StudyLoop.thisRepN,StudyLoop.thisTrialN,StudyLoop.thisN,StudyLoop.thisIndex,TestLoop.thisRepN,TestLoop.thisTrialN,TestLoop.thisN,TestLoop.thisIndex,textCondition.started,textCondition.stopped,keyCondition.keys,keyCondition.rt,keyCondition.started,keyCondition.stopped,Condition,stim_colors,color_sing,color_aloud,color_silent,textWelcome.started,textWelcome.stopped,keyWelcome.keys,keyWelcome.rt,keyWelcome.started,keyWelcome.stopped,textAloud.started,textAloud.stopped,textSilent.started,textSilent.stopped,textSing.started,textSing.stopped,textBlank500.started,textBlank500.stopped,study_word,study_type,study_color,study_num,study_word_num,textStudy.started,textStudy.stopped,keyStudy.keys,keyStudy.started,keyStudy.stopped,textTestInstructions.started,textTestInstructions.stopped,key_resp_3.keys,key_resp_3.rt,key_resp_3.started,key_resp_3.stopped,testWord,testType,testColor,testN,test_num,test_word_num,textConf.started,textConf.stopped,textConfScale.started,textConfScale.stopped,keyConf.keys,keyConf.rt,keyConf.started,keyConf.stopped,textTestBlank.started,textTestBlank.stopped,textRKN.started,textRKN.stopped,textRKNScale.started,textRKNScale.stopped,keyRKN.keys,keyRKN.rt,keyRKN.started,keyRKN.stopped,textEnd.started,textEnd.stopped,participant,session,date,expName,psychopyVersion,frameRate,
,,,,,,,,1811.0713249000255,None,n,3.3268555998802185,1811.0713249000255,None,,,,,,,,,,,,,,,,,,,,,,,,,,,,,,,,,,,,,,,,,,,,,,,,,,,,,,,,,,,,,,NC19,001,2021_Nov_03_1458,ProdSingRedo,3.2.3,60.288868078270255,
,,,,,,,,,,,,,,NeutralTest,"['blue', 'red', 'yellow']",blue,red,yellow,1814.4656861000694,None,space,330.07058459986,1814.4656861000694,None,,,,,,,,,,,,,,,,,,,,,,,,,,,,,,,,,,,,,,,,,,,,,,,,,,,NC19,001,2021_Nov_03_1458,ProdSingRedo,3.2.3,60.288868078270255,
0,0,0,0,,,,,,,,,,,,,,,,,,,,,,1814.4656861000694,None,1814.4656861000694,None,1814.4656861000694,None,2147.077544900123,None,drove,silent,yellow,72,106,2145.0727677000687,None,None,2145.0727677000687,None,,,,,,,,,,,,,,,,,,,,,,,,,,,,,,,,,NC19,001,2021_Nov_03_1458,ProdSingRedo,3.2.3,60.288868078270255,
1,0,1,0,,,,,,,,,,,,,,,,,,,,,,,,,,,,2149.59521950013,None,trash,silent,yellow,84,337,2147.594747000141,None,None,2147.594747000141,None,,,,,,,,,,,,,,,,,,,,,,,,,,,,,,,,,NC19,001,2021_Nov_03_1458,ProdSingRedo,3.2.3,60.288868078270255,
2,0,2,0,,,,,,,,,,,,,,,,,,,,,,,,,,,,2152.111472400138,None,finance,silent,yellow,67,129,2150.102105200058,None,None,2150.102105200058,None,,,,,,,,,,,,,,,,,,,,,,,,,,,,,,,,,NC19,001,2021_Nov_03_1458,ProdSingRedo,3.2.3,60.288868078270255,
3,0,3,0,,,,,,,,,,,,,,,,,,,,,,,,,,,,2154.6290517000016,None,group,sing,blue,16,143,2152.6283221999183,None,None,2152.6283221999183,None,,,,,,,,,,,,,,,,,,,,,,,,,,,,,,,,,NC19,001,2021_Nov_03_1458,ProdSingRedo,3.2.3,60.288868078270255,
4,0,4,0,,,,,,,,,,,,,,,,,,,,,,,,,,,,2157.1453698000405,None,scale,silent,yellow,69,272,2155.1363675999455,None,None,2155.1363675999455,None,,,,,,,,,,,,,,,,,,,,,,,,,,,,,,,,,NC19,001,2021_Nov_03_1458,ProdSingRedo,3.2.3,60.288868078270255,
5,0,5,0,,,,,,,,,,,,,,,,,,,,,,,,,,,,2159.661704899976,None,youth,silent,yellow,65,359,2157.6713424001355,None,None,2157.6713424001355,None,,,,,,,,,,,,,,,,,,,,,,,,,,,,,,,,,NC19,001,2021_Nov_03_1458,ProdSingRedo,3.2.3,60.288868078270255,
6,0,6,0,,,,,,,,,,,,,,,,,,,,,,,,,,,,2162.179123800015,None,carry,aloud,red,32,43,2160.1767836001236,None,None,2160.1767836001236,None,,,,,,,,,,,,,,,,,,,,,,,,,,,,,,,,,NC19,001,2021_Nov_03_1458,ProdSingRedo,3.2.3,60.288868078270255,
7,0,7,0,,,,,,,,,,,,,,,,,,,,,,,,,,,,2164.6954837001394,None,career,sing,blue,1,42,2162.6913276999258,None,None,2162.6913276999258,None,,,,,,,,,,,,,,,,,,,,,,,,,,,,,,,,,NC19,001,2021_Nov_03_1458,ProdSingRedo,3.2.3,60.288868078270255,
8,0,8,0,,,,,,,,,,,,,,,,,,,,,,,,,,,,2167.2123845999595,None,chief,aloud,red,35,48,2165.208424099954,None,None,2165.208424099954,None,,,,,,,,,,,,,,,,,,,,,,,,,,,,,,,,,NC19,001,2021_Nov_03_1458,ProdSingRedo,3.2.3,60.288868078270255,
9,0,9,0,,,,,,,,,,,,,,,,,,,,,,,,,,,,2169.7300746000838,None,place,aloud,red,51,222,2167.725328499917,None,None,2167.725328499917,None,,,,,,,,,,,,,,,,,,,,,,,,,,,,,,,,,NC19,001,2021_Nov_03_1458,ProdSingRedo,3.2.3,60.288868078270255,
10,0,10,0,,,,,,,,,,,,,,,,,,,,,,,,,,,,2172.2461815001443,None,plane,silent,yellow,76,223,2170.2422140999697,None,None,2170.2422140999697,None,,,,,,,,,,,,,,,,,,,,,,,,,,,,,,,,,NC19,001,2021_Nov_03_1458,ProdSingRedo,3.2.3,60.288868078270255,
11,0,11,0,,,,,,,,,,,,,,,,,,,,,,,,,,,,2174.7637112000957,None,thing,silent,yellow,73,328,2172.758668299997,None,None,2172.758668299997,None,,,,,,,,,,,,,,,,,,,,,,,,,,,,,,,,,NC19,001,2021_Nov_03_1458,ProdSingRedo,3.2.3,60.288868078270255,
12,0,12,0,,,,,,,,,,,,,,,,,,,,,,,,,,,,2177.2821482000872,None,subject,silent,yellow,75,312,2175.2924351999536,None,None,2175.2924351999536,None,,,,,,,,,,,,,,,,,,,,,,,,,,,,,,,,,NC19,001,2021_Nov_03_1458,ProdSingRedo,3.2.3,60.288868078270255,
13,0,13,0,,,,,,,,,,,,,,,,,,,,,,,,,,,,2179.7964091000613,None,pretty,silent,yellow,80,233,2177.7877116000745,None,None,2177.7877116000745,None,,,,,,,,,,,,,,,,,,,,,,,,,,,,,,,,,NC19,001,2021_Nov_03_1458,ProdSingRedo,3.2.3,60.288868078270255,
14,0,14,0,,,,,,,,,,,,,,,,,,,,,,,,,,,,2182.313820499927,None,figure,sing,blue,4,128,2180.3095708999317,None,None,2180.3095708999317,None,,,,,,,,,,,,,,,,,,,,,,,,,,,,,,,,,NC19,001,2021_Nov_03_1458,ProdSingRedo,3.2.3,60.288868078270255,
15,0,15,0,,,,,,,,,,,,,,,,,,,,,,,,,,,,2184.83060700004,None,material,aloud,red,54,182,2182.816674800124,None,None,2182.816674800124,None,,,,,,,,,,,,,,,,,,,,,,,,,,,,,,,,,NC19,001,2021_Nov_03_1458,ProdSingRedo,3.2.3,60.288868078270255,
16,0,16,0,,,,,,,,,,,,,,,,,,,,,,,,,,,,2187.3479164999444,None,music,sing,blue,8,196,2185.337103100028,None,None,2185.337103100028,None,,,,,,,,,,,,,,,,,,,,,,,,,,,,,,,,,NC19,001,2021_Nov_03_1458,ProdSingRedo,3.2.3,60.288868078270255,
17,0,17,0,,,,,,,,,,,,,,,,,,,,,,,,,,,,2189.8659230999183,None,private,silent,yellow,60,237,2187.8543436001055,None,None,2187.8543436001055,None,,,,,,,,,,,,,,,,,,,,,,,,,,,,,,,,,NC19,001,2021_Nov_03_1458,ProdSingRedo,3.2.3,60.288868078270255,
18,0,18,0,,,,,,,,,,,,,,,,,,,,,,,,,,,,2192.380915200105,None,pancakes,sing,blue,5,210,2190.3830417001154,None,None,2190.3830417001154,None,,,,,,,,,,,,,,,,,,,,,,,,,,,,,,,,,NC19,001,2021_Nov_03_1458,ProdSingRedo,3.2.3,60.288868078270255,
19,0,19,0,,,,,,,,,,,,,,,,,,,,,,,,,,,,2194.897743700072,None,order,sing,blue,14,207,2192.8945693999995,None,None,2192.8945693999995,None,,,,,,,,,,,,,,,,,,,,,,,,,,,,,,,,,NC19,001,2021_Nov_03_1458,ProdSingRedo,3.2.3,60.288868078270255,
20,0,20,0,,,,,,,,,,,,,,,,,,,,,,,,,,,,2197.4004669999704,None,notice,aloud,red,58,201,2195.397800799925,None,None,2195.397800799925,None,,,,,,,,,,,,,,,,,,,,,,,,,,,,,,,,,NC19,001,2021_Nov_03_1458,ProdSingRedo,3.2.3,60.288868078270255,
21,0,21,0,,,,,,,,,,,,,,,,,,,,,,,,,,,,2199.9322472000495,None,point,aloud,red,30,226,2197.926024599932,None,None,2197.926024599932,None,,,,,,,,,,,,,,,,,,,,,,,,,,,,,,,,,NC19,001,2021_Nov_03_1458,ProdSingRedo,3.2.3,60.288868078270255,
22,0,22,0,,,,,,,,,,,,,,,,,,,,,,,,,,,,2202.4493168001063,None,story,silent,yellow,71,306,2200.436063100118,None,None,2200.436063100118,None,,,,,,,,,,,,,,,,,,,,,,,,,,,,,,,,,NC19,001,2021_Nov_03_1458,ProdSingRedo,3.2.3,60.288868078270255,
23,0,23,0,,,,,,,,,,,,,,,,,,,,,,,,,,,,2204.96602599998,None,court,aloud,red,55,75,2202.9633814999834,None,None,2202.9633814999834,None,,,,,,,,,,,,,,,,,,,,,,,,,,,,,,,,,NC19,001,2021_Nov_03_1458,ProdSingRedo,3.2.3,60.288868078270255,
24,0,24,0,,,,,,,,,,,,,,,,,,,,,,,,,,,,2207.4816558000166,None,taste,aloud,red,43,322,2205.4820274999365,None,None,2205.4820274999365,None,,,,,,,,,,,,,,,,,,,,,,,,,,,,,,,,,NC19,001,2021_Nov_03_1458,ProdSingRedo,3.2.3,60.288868078270255,
25,0,25,0,,,,,,,,,,,,,,,,,,,,,,,,,,,,2209.998847400071,None,graduate,silent,yellow,79,141,2207.9970124000683,None,None,2207.9970124000683,None,,,,,,,,,,,,,,,,,,,,,,,,,,,,,,,,,NC19,001,2021_Nov_03_1458,ProdSingRedo,3.2.3,60.288868078270255,
26,0,26,0,,,,,,,,,,,,,,,,,,,,,,,,,,,,2212.5161061000545,None,store,sing,blue,15,305,2210.500826400006,None,None,2210.500826400006,None,,,,,,,,,,,,,,,,,,,,,,,,,,,,,,,,,NC19,001,2021_Nov_03_1458,ProdSingRedo,3.2.3,60.288868078270255,
27,0,27,0,,,,,,,,,,,,,,,,,,,,,,,,,,,,2215.032281599939,None,detective,aloud,red,39,92,2213.0362680000253,None,None,2213.0362680000253,None,,,,,,,,,,,,,,,,,,,,,,,,,,,,,,,,,NC19,001,2021_Nov_03_1458,ProdSingRedo,3.2.3,60.288868078270255,
28,0,28,0,,,,,,,,,,,,,,,,,,,,,,,,,,,,2217.5493679000065,None,exchange,silent,yellow,61,121,2215.551075699972,None,None,2215.551075699972,None,,,,,,,,,,,,,,,,,,,,,,,,,,,,,,,,,NC19,001,2021_Nov_03_1458,ProdSingRedo,3.2.3,60.288868078270255,
29,0,29,0,,,,,,,,,,,,,,,,,,,,,,,,,,,,2220.0678819001187,None,crime,silent,yellow,77,78,2218.053768099984,None,None,2218.053768099984,None,,,,,,,,,,,,,,,,,,,,,,,,,,,,,,,,,NC19,001,2021_Nov_03_1458,ProdSingRedo,3.2.3,60.288868078270255,
30,0,30,0,,,,,,,,,,,,,,,,,,,,,,,,,,,,2222.5825334999245,None,entrance,aloud,red,44,115,2220.574520400027,None,None,2220.574520400027,None,,,,,,,,,,,,,,,,,,,,,,,,,,,,,,,,,NC19,001,2021_Nov_03_1458,ProdSingRedo,3.2.3,60.288868078270255,
31,0,31,0,,,,,,,,,,,,,,,,,,,,,,,,,,,,2225.101535800146,None,executive,sing,blue,20,122,2223.1043684000615,None,None,2223.1043684000615,None,,,,,,,,,,,,,,,,,,,,,,,,,,,,,,,,,NC19,001,2021_Nov_03_1458,ProdSingRedo,3.2.3,60.288868078270255,
32,0,32,0,,,,,,,,,,,,,,,,,,,,,,,,,,,,2227.616460399935,None,sound,silent,yellow,88,295,2225.6024643001147,None,None,2225.6024643001147,None,,,,,,,,,,,,,,,,,,,,,,,,,,,,,,,,,NC19,001,2021_Nov_03_1458,ProdSingRedo,3.2.3,60.288868078270255,
33,0,33,0,,,,,,,,,,,,,,,,,,,,,,,,,,,,2230.133853400126,None,fight,sing,blue,25,127,2228.1288153999485,None,None,2228.1288153999485,None,,,,,,,,,,,,,,,,,,,,,,,,,,,,,,,,,NC19,001,2021_Nov_03_1458,ProdSingRedo,3.2.3,60.288868078270255,
34,0,34,0,,,,,,,,,,,,,,,,,,,,,,,,,,,,2232.650999400066,None,captain,silent,yellow,81,41,2230.6434184000827,None,None,2230.6434184000827,None,,,,,,,,,,,,,,,,,,,,,,,,,,,,,,,,,NC19,001,2021_Nov_03_1458,ProdSingRedo,3.2.3,60.288868078270255,
35,0,35,0,,,,,,,,,,,,,,,,,,,,,,,,,,,,2235.1679416000843,None,number,sing,blue,13,203,2233.1704919999465,None,None,2233.1704919999465,None,,,,,,,,,,,,,,,,,,,,,,,,,,,,,,,,,NC19,001,2021_Nov_03_1458,ProdSingRedo,3.2.3,60.288868078270255,
36,0,36,0,,,,,,,,,,,,,,,,,,,,,,,,,,,,2237.6880183999892,None,safety,aloud,red,34,270,2235.677424900001,None,None,2235.677424900001,None,,,,,,,,,,,,,,,,,,,,,,,,,,,,,,,,,NC19,001,2021_Nov_03_1458,ProdSingRedo,3.2.3,60.288868078270255,
37,0,37,0,,,,,,,,,,,,,,,,,,,,,,,,,,,,2240.2015500999987,None,produce,aloud,red,57,239,2238.197952500079,None,None,2238.197952500079,None,,,,,,,,,,,,,,,,,,,,,,,,,,,,,,,,,NC19,001,2021_Nov_03_1458,ProdSingRedo,3.2.3,60.288868078270255,
38,0,38,0,,,,,,,,,,,,,,,,,,,,,,,,,,,,2242.7174957001116,None,equipment,silent,yellow,83,116,2240.710907700006,None,None,2240.710907700006,None,,,,,,,,,,,,,,,,,,,,,,,,,,,,,,,,,NC19,001,2021_Nov_03_1458,ProdSingRedo,3.2.3,60.288868078270255,
39,0,39,0,,,,,,,,,,,,,,,,,,,,,,,,,,,,2245.2375412001275,None,citizen,aloud,red,49,50,2243.239009400131,None,None,2243.239009400131,None,,,,,,,,,,,,,,,,,,,,,,,,,,,,,,,,,NC19,001,2021_Nov_03_1458,ProdSingRedo,3.2.3,60.288868078270255,
40,0,40,0,,,,,,,,,,,,,,,,,,,,,,,,,,,,2247.752195100067,None,hearing,aloud,red,45,150,2245.7542417000514,None,None,2245.7542417000514,None,,,,,,,,,,,,,,,,,,,,,,,,,,,,,,,,,NC19,001,2021_Nov_03_1458,ProdSingRedo,3.2.3,60.288868078270255,
41,0,41,0,,,,,,,,,,,,,,,,,,,,,,,,,,,,2250.2694296999834,None,quick,sing,blue,27,248,2248.259807100054,None,None,2248.259807100054,None,,,,,,,,,,,,,,,,,,,,,,,,,,,,,,,,,NC19,001,2021_Nov_03_1458,ProdSingRedo,3.2.3,60.288868078270255,
42,0,42,0,,,,,,,,,,,,,,,,,,,,,,,,,,,,2252.7846848000772,None,health,sing,blue,28,149,2250.7769432999194,None,None,2250.7769432999194,None,,,,,,,,,,,,,,,,,,,,,,,,,,,,,,,,,NC19,001,2021_Nov_03_1458,ProdSingRedo,3.2.3,60.288868078270255,
43,0,43,0,,,,,,,,,,,,,,,,,,,,,,,,,,,,2255.302713399986,None,write,sing,blue,19,358,2253.301270399941,None,None,2253.301270399941,None,,,,,,,,,,,,,,,,,,,,,,,,,,,,,,,,,NC19,001,2021_Nov_03_1458,ProdSingRedo,3.2.3,60.288868078270255,
44,0,44,0,,,,,,,,,,,,,,,,,,,,,,,,,,,,2257.8187474000733,None,speech,silent,yellow,66,298,2255.811530600069,None,None,2255.811530600069,None,,,,,,,,,,,,,,,,,,,,,,,,,,,,,,,,,NC19,001,2021_Nov_03_1458,ProdSingRedo,3.2.3,60.288868078270255,
45,0,45,0,,,,,,,,,,,,,,,,,,,,,,,,,,,,2260.336192900082,None,degree,silent,yellow,68,89,2258.328997600125,None,None,2258.328997600125,None,,,,,,,,,,,,,,,,,,,,,,,,,,,,,,,,,NC19,001,2021_Nov_03_1458,ProdSingRedo,3.2.3,60.288868078270255,
46,0,46,0,,,,,,,,,,,,,,,,,,,,,,,,,,,,2262.852398799965,None,spoke,sing,blue,18,300,2260.849241600139,None,None,2260.849241600139,None,,,,,,,,,,,,,,,,,,,,,,,,,,,,,,,,,NC19,001,2021_Nov_03_1458,ProdSingRedo,3.2.3,60.288868078270255,
47,0,47,0,,,,,,,,,,,,,,,,,,,,,,,,,,,,2265.370017600013,None,leader,aloud,red,48,168,2263.3614499000832,None,None,2263.3614499000832,None,,,,,,,,,,,,,,,,,,,,,,,,,,,,,,,,,NC19,001,2021_Nov_03_1458,ProdSingRedo,3.2.3,60.288868078270255,
48,0,48,0,,,,,,,,,,,,,,,,,,,,,,,,,,,,2267.8869364000857,None,surface,sing,blue,2,316,2265.879191900138,None,None,2265.879191900138,None,,,,,,,,,,,,,,,,,,,,,,,,,,,,,,,,,NC19,001,2021_Nov_03_1458,ProdSingRedo,3.2.3,60.288868078270255,
49,0,49,0,,,,,,,,,,,,,,,,,,,,,,,,,,,,2270.403816000093,None,charter,sing,blue,26,47,2268.402916799998,None,None,2268.402916799998,None,,,,,,,,,,,,,,,,,,,,,,,,,,,,,,,,,NC19,001,2021_Nov_03_1458,ProdSingRedo,3.2.3,60.288868078270255,
50,0,50,0,,,,,,,,,,,,,,,,,,,,,,,,,,,,2272.91959880013,None,employment,aloud,red,47,111,2270.9203812999185,None,None,2270.9203812999185,None,,,,,,,,,,,,,,,,,,,,,,,,,,,,,,,,,NC19,001,2021_Nov_03_1458,ProdSingRedo,3.2.3,60.288868078270255,
51,0,51,0,,,,,,,,,,,,,,,,,,,,,,,,,,,,2275.437390400097,None,agency,sing,blue,21,4,2273.438897300046,None,None,2273.438897300046,None,,,,,,,,,,,,,,,,,,,,,,,,,,,,,,,,,NC19,001,2021_Nov_03_1458,ProdSingRedo,3.2.3,60.288868078270255,
52,0,52,0,,,,,,,,,,,,,,,,,,,,,,,,,,,,2277.9529186999425,None,novel,sing,blue,22,202,2275.949869800126,None,None,2275.949869800126,None,,,,,,,,,,,,,,,,,,,,,,,,,,,,,,,,,NC19,001,2021_Nov_03_1458,ProdSingRedo,3.2.3,60.288868078270255,
53,0,53,0,,,,,,,,,,,,,,,,,,,,,,,,,,,,2280.4711573999375,None,south,silent,yellow,64,296,2278.4748917000834,None,None,2278.4748917000834,None,,,,,,,,,,,,,,,,,,,,,,,,,,,,,,,,,NC19,001,2021_Nov_03_1458,ProdSingRedo,3.2.3,60.288868078270255,
54,0,54,0,,,,,,,,,,,,,,,,,,,,,,,,,,,,2282.987851700047,None,birth,sing,blue,7,22,2280.986431400059,None,None,2280.986431400059,None,,,,,,,,,,,,,,,,,,,,,,,,,,,,,,,,,NC19,001,2021_Nov_03_1458,ProdSingRedo,3.2.3,60.288868078270255,
55,0,55,0,,,,,,,,,,,,,,,,,,,,,,,,,,,,2285.5038364001084,None,history,sing,blue,29,153,2283.4962460000534,None,None,2283.4962460000534,None,,,,,,,,,,,,,,,,,,,,,,,,,,,,,,,,,NC19,001,2021_Nov_03_1458,ProdSingRedo,3.2.3,60.288868078270255,
56,0,56,0,,,,,,,,,,,,,,,,,,,,,,,,,,,,2288.02085239999,None,touch,aloud,red,31,332,2286.012806399958,None,None,2286.012806399958,None,,,,,,,,,,,,,,,,,,,,,,,,,,,,,,,,,NC19,001,2021_Nov_03_1458,ProdSingRedo,3.2.3,60.288868078270255,
57,0,57,0,,,,,,,,,,,,,,,,,,,,,,,,,,,,2290.538523599971,None,crowd,aloud,red,41,81,2288.528803500114,None,None,2288.528803500114,None,,,,,,,,,,,,,,,,,,,,,,,,,,,,,,,,,NC19,001,2021_Nov_03_1458,ProdSingRedo,3.2.3,60.288868078270255,
58,0,58,0,,,,,,,,,,,,,,,,,,,,,,,,,,,,2293.05480240006,None,sweet,sing,blue,9,319,2291.0449403999373,None,None,2291.0449403999373,None,,,,,,,,,,,,,,,,,,,,,,,,,,,,,,,,,NC19,001,2021_Nov_03_1458,ProdSingRedo,3.2.3,60.288868078270255,
59,0,59,0,,,,,,,,,,,,,,,,,,,,,,,,,,,,2295.572005700087,None,under,sing,blue,10,343,2293.5650261000264,None,None,2293.5650261000264,None,,,,,,,,,,,,,,,,,,,,,,,,,,,,,,,,,NC19,001,2021_Nov_03_1458,ProdSingRedo,3.2.3,60.288868078270255,
60,0,60,0,,,,,,,,,,,,,,,,,,,,,,,,,,,,2298.088986400049,None,collection,aloud,red,56,54,2296.085558200022,None,None,2296.085558200022,None,,,,,,,,,,,,,,,,,,,,,,,,,,,,,,,,,NC19,001,2021_Nov_03_1458,ProdSingRedo,3.2.3,60.288868078270255,
61,0,61,0,,,,,,,,,,,,,,,,,,,,,,,,,,,,2300.605234600138,None,universal,aloud,red,37,345,2298.6101875000168,None,None,2298.6101875000168,None,,,,,,,,,,,,,,,,,,,,,,,,,,,,,,,,,NC19,001,2021_Nov_03_1458,ProdSingRedo,3.2.3,60.288868078270255,
62,0,62,0,,,,,,,,,,,,,,,,,,,,,,,,,,,,2303.122259200085,None,education,aloud,red,46,108,2301.1146903999615,None,None,2301.1146903999615,None,,,,,,,,,,,,,,,,,,,,,,,,,,,,,,,,,NC19,001,2021_Nov_03_1458,ProdSingRedo,3.2.3,60.288868078270255,
63,0,63,0,,,,,,,,,,,,,,,,,,,,,,,,,,,,2305.6391108001117,None,owner,sing,blue,17,208,2303.6235368000343,None,None,2303.6235368000343,None,,,,,,,,,,,,,,,,,,,,,,,,,,,,,,,,,NC19,001,2021_Nov_03_1458,ProdSingRedo,3.2.3,60.288868078270255,
64,0,64,0,,,,,,,,,,,,,,,,,,,,,,,,,,,,2308.1563154999167,None,symbol,silent,yellow,62,321,2306.156466500135,None,None,2306.156466500135,None,,,,,,,,,,,,,,,,,,,,,,,,,,,,,,,,,NC19,001,2021_Nov_03_1458,ProdSingRedo,3.2.3,60.288868078270255,
65,0,65,0,,,,,,,,,,,,,,,,,,,,,,,,,,,,2310.672016599914,None,master,silent,yellow,89,180,2308.6748391999863,None,None,2308.6748391999863,None,,,,,,,,,,,,,,,,,,,,,,,,,,,,,,,,,NC19,001,2021_Nov_03_1458,ProdSingRedo,3.2.3,60.288868078270255,
66,0,66,0,,,,,,,,,,,,,,,,,,,,,,,,,,,,2313.189219499938,None,trail,aloud,red,50,336,2311.1743427000474,None,None,2311.1743427000474,None,,,,,,,,,,,,,,,,,,,,,,,,,,,,,,,,,NC19,001,2021_Nov_03_1458,ProdSingRedo,3.2.3,60.288868078270255,
67,0,67,0,,,,,,,,,,,,,,,,,,,,,,,,,,,,2315.705745199928,None,period,silent,yellow,74,217,2313.7088786000386,None,None,2313.7088786000386,None,,,,,,,,,,,,,,,,,,,,,,,,,,,,,,,,,NC19,001,2021_Nov_03_1458,ProdSingRedo,3.2.3,60.288868078270255,
68,0,68,0,,,,,,,,,,,,,,,,,,,,,,,,,,,,2318.2226766000967,None,gesture,aloud,red,59,137,2316.2234740999993,None,None,2316.2234740999993,None,,,,,,,,,,,,,,,,,,,,,,,,,,,,,,,,,NC19,001,2021_Nov_03_1458,ProdSingRedo,3.2.3,60.288868078270255,
69,0,69,0,,,,,,,,,,,,,,,,,,,,,,,,,,,,2320.7426617001183,None,bitter,aloud,red,38,23,2318.739571500104,None,None,2318.739571500104,None,,,,,,,,,,,,,,,,,,,,,,,,,,,,,,,,,NC19,001,2021_Nov_03_1458,ProdSingRedo,3.2.3,60.288868078270255,
70,0,70,0,,,,,,,,,,,,,,,,,,,,,,,,,,,,2323.2564097000286,None,raise,sing,blue,24,250,2321.2485804001335,None,None,2321.2485804001335,None,,,,,,,,,,,,,,,,,,,,,,,,,,,,,,,,,NC19,001,2021_Nov_03_1458,ProdSingRedo,3.2.3,60.288868078270255,
71,0,71,0,,,,,,,,,,,,,,,,,,,,,,,,,,,,2325.773570700083,None,guide,aloud,red,36,147,2323.769365099957,None,None,2323.769365099957,None,,,,,,,,,,,,,,,,,,,,,,,,,,,,,,,,,NC19,001,2021_Nov_03_1458,ProdSingRedo,3.2.3,60.288868078270255,
72,0,72,0,,,,,,,,,,,,,,,,,,,,,,,,,,,,2328.290824699914,None,marriage,silent,yellow,70,179,2326.294883900089,None,None,2326.294883900089,None,,,,,,,,,,,,,,,,,,,,,,,,,,,,,,,,,NC19,001,2021_Nov_03_1458,ProdSingRedo,3.2.3,60.288868078270255,
73,0,73,0,,,,,,,,,,,,,,,,,,,,,,,,,,,,2330.8070217000786,None,motion,silent,yellow,86,194,2328.7920002001338,None,None,2328.7920002001338,None,,,,,,,,,,,,,,,,,,,,,,,,,,,,,,,,,NC19,001,2021_Nov_03_1458,ProdSingRedo,3.2.3,60.288868078270255,
74,0,74,0,,,,,,,,,,,,,,,,,,,,,,,,,,,,2333.3237046001013,None,accident,sing,blue,12,0,2331.322685000021,None,None,2331.322685000021,None,,,,,,,,,,,,,,,,,,,,,,,,,,,,,,,,,NC19,001,2021_Nov_03_1458,ProdSingRedo,3.2.3,60.288868078270255,
75,0,75,0,,,,,,,,,,,,,,,,,,,,,,,,,,,,2335.840501199942,None,majority,silent,yellow,85,176,2333.843237699941,None,None,2333.843237699941,None,,,,,,,,,,,,,,,,,,,,,,,,,,,,,,,,,NC19,001,2021_Nov_03_1458,ProdSingRedo,3.2.3,60.288868078270255,
76,0,76,0,,,,,,,,,,,,,,,,,,,,,,,,,,,,2338.3583931000903,None,guard,silent,yellow,63,145,2336.3577451000456,None,None,2336.3577451000456,None,,,,,,,,,,,,,,,,,,,,,,,,,,,,,,,,,NC19,001,2021_Nov_03_1458,ProdSingRedo,3.2.3,60.288868078270255,
77,0,77,0,,,,,,,,,,,,,,,,,,,,,,,,,,,,2340.8742686000187,None,nature,sing,blue,11,200,2338.877843800001,None,None,2338.877843800001,None,,,,,,,,,,,,,,,,,,,,,,,,,,,,,,,,,NC19,001,2021_Nov_03_1458,ProdSingRedo,3.2.3,60.288868078270255,
78,0,78,0,,,,,,,,,,,,,,,,,,,,,,,,,,,,2343.391726500122,None,problem,sing,blue,0,238,2341.3919174999464,None,None,2341.3919174999464,None,,,,,,,,,,,,,,,,,,,,,,,,,,,,,,,,,NC19,001,2021_Nov_03_1458,ProdSingRedo,3.2.3,60.288868078270255,
79,0,79,0,,,,,,,,,,,,,,,,,,,,,,,,,,,,2345.907931199996,None,tennis,silent,yellow,87,323,2343.8929530000314,None,None,2343.8929530000314,None,,,,,,,,,,,,,,,,,,,,,,,,,,,,,,,,,NC19,001,2021_Nov_03_1458,ProdSingRedo,3.2.3,60.288868078270255,
80,0,80,0,,,,,,,,,,,,,,,,,,,,,,,,,,,,2348.4255755001213,None,expansion,aloud,red,53,123,2346.428650900023,None,None,2346.428650900023,None,,,,,,,,,,,,,,,,,,,,,,,,,,,,,,,,,NC19,001,2021_Nov_03_1458,ProdSingRedo,3.2.3,60.288868078270255,
81,0,81,0,,,,,,,,,,,,,,,,,,,,,,,,,,,,2350.942432800075,None,piece,aloud,red,33,221,2348.935561600141,None,None,2348.935561600141,None,,,,,,,,,,,,,,,,,,,,,,,,,,,,,,,,,NC19,001,2021_Nov_03_1458,ProdSingRedo,3.2.3,60.288868078270255,
82,0,82,0,,,,,,,,,,,,,,,,,,,,,,,,,,,,2353.4582504001446,None,vision,sing,blue,3,347,2351.4593416000716,None,None,2351.4593416000716,None,,,,,,,,,,,,,,,,,,,,,,,,,,,,,,,,,NC19,001,2021_Nov_03_1458,ProdSingRedo,3.2.3,60.288868078270255,
83,0,83,0,,,,,,,,,,,,,,,,,,,,,,,,,,,,2355.9750002000947,None,color,aloud,red,42,56,2353.9688806999475,None,None,2353.9688806999475,None,,,,,,,,,,,,,,,,,,,,,,,,,,,,,,,,,NC19,001,2021_Nov_03_1458,ProdSingRedo,3.2.3,60.288868078270255,
84,0,84,0,,,,,,,,,,,,,,,,,,,,,,,,,,,,2358.4921313000377,None,meeting,silent,yellow,78,187,2356.4941014000215,None,None,2356.4941014000215,None,,,,,,,,,,,,,,,,,,,,,,,,,,,,,,,,,NC19,001,2021_Nov_03_1458,ProdSingRedo,3.2.3,60.288868078270255,
85,0,85,0,,,,,,,,,,,,,,,,,,,,,,,,,,,,2360.9932228000835,None,finish,silent,yellow,82,130,2358.994120599935,None,None,2358.994120599935,None,,,,,,,,,,,,,,,,,,,,,,,,,,,,,,,,,NC19,001,2021_Nov_03_1458,ProdSingRedo,3.2.3,60.288868078270255,
86,0,86,0,,,,,,,,,,,,,,,,,,,,,,,,,,,,2363.509482400026,None,mechanical,aloud,red,40,185,2361.5199148999527,None,None,2361.5199148999527,None,,,,,,,,,,,,,,,,,,,,,,,,,,,,,,,,,NC19,001,2021_Nov_03_1458,ProdSingRedo,3.2.3,60.288868078270255,
87,0,87,0,,,,,,,,,,,,,,,,,,,,,,,,,,,,2366.026398600079,None,department,sing,blue,6,90,2364.0216866000555,None,None,2364.0216866000555,None,,,,,,,,,,,,,,,,,,,,,,,,,,,,,,,,,NC19,001,2021_Nov_03_1458,ProdSingRedo,3.2.3,60.288868078270255,
88,0,88,0,,,,,,,,,,,,,,,,,,,,,,,,,,,,2368.542674999917,None,length,aloud,red,52,169,2366.5283697000705,None,None,2366.5283697000705,None,,,,,,,,,,,,,,,,,,,,,,,,,,,,,,,,,NC19,001,2021_Nov_03_1458,ProdSingRedo,3.2.3,60.288868078270255,
89,0,89,0,,,,,,,,,,,,,,,,,,,,,,,,,,,,2371.059587799944,None,swift,sing,blue,23,320,2369.0448646000586,None,None,2369.0448646000586,None,,,,,,,,,,,,,,,,,,,,,,,,,,,,,,,,,NC19,001,2021_Nov_03_1458,ProdSingRedo,3.2.3,60.288868078270255,
,,,,,,,,,,,,,,,,,,,,,,,,,,,,,,,,,,,,,,,,,,,2371.5603503000457,None,k,385.69604169996455,2371.5603503000457,None,,,,,,,,,,,,,,,,,,,,,,,,,,,NC19,001,2021_Nov_03_1458,ProdSingRedo,3.2.3,60.288868078270255,
,,,,0,0,0,0,,,,,,,,,,,,,,,,,,,,,,,,2771.861762000015,None,,,,,,,,,,,,,,,,,write,sing,white,0,19,358,2757.8046122000087,None,2757.8046122000087,None,6,8.714319200022146,2757.8046122000087,None,2766.5578342000954,None,2767.0818159000482,None,2767.0818159000482,None,f,4.748907599831,2767.0818159000482,None,,,NC19,001,2021_Nov_03_1458,ProdSingRedo,3.2.3,60.288868078270255,
,,,,1,0,1,0,,,,,,,,,,,,,,,,,,,,,,,,2779.4779944000766,None,,,,,,,,,,,,,,,,,listen,new_a,white,1,118,172,2772.383862100076,None,2772.383862100076,None,2,4.022974099963903,2772.383862100076,None,2776.4534549999516,None,2776.958443199983,None,2776.958443199983,None,n,2.4881643999833614,2776.958443199983,None,,,NC19,001,2021_Nov_03_1458,ProdSingRedo,3.2.3,60.288868078270255,
,,,,2,0,2,0,,,,,,,,,,,,,,,,,,,,,,,,2792.9915031001437,None,,,,,,,,,,,,,,,,,trail,aloud,white,2,50,336,2780.0004851999693,None,2780.0004851999693,None,5,7.398375000106171,2780.0004851999693,None,2787.445284600137,None,2787.9737509000115,None,2787.9737509000115,None,r,4.985069500049576,2787.9737509000115,None,,,NC19,001,2021_Nov_03_1458,ProdSingRedo,3.2.3,60.288868078270255,
,,,,3,0,3,0,,,,,,,,,,,,,,,,,,,,,,,,2799.3070380000863,None,,,,,,,,,,,,,,,,,leader,aloud,white,3,48,168,2793.523673299933,None,2793.523673299933,None,1,3.451143699930981,2793.523673299933,None,2797.035614799941,None,2797.5522320000455,None,2797.5522320000455,None,n,1.734607300022617,2797.5522320000455,None,,,NC19,001,2021_Nov_03_1458,ProdSingRedo,3.2.3,60.288868078270255,
,,,,4,0,4,0,,,,,,,,,,,,,,,,,,,,,,,,2806.5355178001337,None,,,,,,,,,,,,,,,,,hearing,aloud,white,4,45,150,2799.827806400135,None,2799.827806400135,None,2,4.46683910000138,2799.827806400135,None,2804.336589500075,None,2804.856970400084,None,2804.856970400084,None,n,1.6458856000099331,2804.856970400084,None,,,NC19,001,2021_Nov_03_1458,ProdSingRedo,3.2.3,60.288868078270255,
,,,,5,0,5,0,,,,,,,,,,,,,,,,,,,,,,,,2813.4079112000763,None,,,,,,,,,,,,,,,,,curve,new_b,white,5,143,82,2807.0432575999293,None,2807.0432575999293,None,1,4.091683699982241,2807.0432575999293,None,2811.172089200001,None,2811.6869960001204,None,2811.6869960001204,None,n,1.703698200173676,2811.6869960001204,None,,,NC19,001,2021_Nov_03_1458,ProdSingRedo,3.2.3,60.288868078270255,
,,,,6,0,6,0,,,,,,,,,,,,,,,,,,,,,,,,2823.4265163000673,None,,,,,,,,,,,,,,,,,youth,silent,white,6,65,359,2813.929337100126,None,2813.929337100126,None,3,2.110043300082907,2813.929337100126,None,2816.0874807999935,None,2816.597341600107,None,2816.597341600107,None,n,6.809582300018519,2816.597341600107,None,,,NC19,001,2021_Nov_03_1458,ProdSingRedo,3.2.3,60.288868078270255,
,,,,7,0,7,0,,,,,,,,,,,,,,,,,,,,,,,,2830.6278337000404,None,,,,,,,,,,,,,,,,,pressure,new_a,white,7,105,232,2823.9466882001143,None,2823.9466882001143,None,2,4.948061800096184,2823.9466882001143,None,2828.936514500063,None,2829.453278500121,None,2829.453278500121,None,n,1.1454308999236673,2829.453278500121,None,,,NC19,001,2021_Nov_03_1458,ProdSingRedo,3.2.3,60.288868078270255,
,,,,8,0,8,0,,,,,,,,,,,,,,,,,,,,,,,,2834.4427620000206,None,,,,,,,,,,,,,,,,,symbol,silent,white,8,62,321,2831.158097000094,None,2831.158097000094,None,1,2.601018900051713,2831.158097000094,None,2833.803630999988,None,2834.3103074000683,None,2834.3103074000683,None,n,0.11257450003176928,2834.3103074000683,None,,,NC19,001,2021_Nov_03_1458,ProdSingRedo,3.2.3,60.288868078270255,
,,,,9,0,9,0,,,,,,,,,,,,,,,,,,,,,,,,2842.4767527999356,None,,,,,,,,,,,,,,,,,shape,new_b,white,9,147,282,2834.9748231000267,None,2834.9748231000267,None,4,4.367932799970731,2834.9748231000267,None,2839.374473700067,None,2839.8862242000178,None,2839.8862242000178,None,f,2.5605856000911444,2839.8862242000178,None,,,NC19,001,2021_Nov_03_1458,ProdSingRedo,3.2.3,60.288868078270255,
,,,,10,0,10,0,,,,,,,,,,,,,,,,,,,,,,,,2848.8324933999684,None,,,,,,,,,,,,,,,,,collection,aloud,white,10,56,54,2842.992342500016,None,2842.992342500016,None,1,3.2382183000445366,2842.992342500016,None,2846.2693862000015,None,2846.777194000082,None,2846.777194000082,None,n,2.029908400028944,2846.777194000082,None,,,NC19,001,2021_Nov_03_1458,ProdSingRedo,3.2.3,60.288868078270255,
,,,,11,0,11,0,,,,,,,,,,,,,,,,,,,,,,,,2853.676471099956,None,,,,,,,,,,,,,,,,,damage,new_c,white,11,152,83,2849.366808900144,None,2849.366808900144,None,3,2.768056800123304,2849.366808900144,None,2852.18305839994,None,2852.69065689994,None,2852.69065689994,None,n,0.948185299988836,2852.69065689994,None,,,NC19,001,2021_Nov_03_1458,ProdSingRedo,3.2.3,60.288868078270255,
,,,,12,0,12,0,,,,,,,,,,,,,,,,,,,,,,,,2863.7615000000224,None,,,,,,,,,,,,,,,,,sound,silent,white,12,88,295,2854.192429000046,None,2854.192429000046,None,2,8.150680699851364,2854.192429000046,None,2862.386884599924,None,2862.9088457000908,None,2862.9088457000908,None,n,0.834113199962303,2862.9088457000908,None,,,NC19,001,2021_Nov_03_1458,ProdSingRedo,3.2.3,60.288868078270255,
,,,,13,0,13,0,,,,,,,,,,,,,,,,,,,,,,,,2869.168782999972,None,,,,,,,,,,,,,,,,,crowd,aloud,white,13,41,81,2864.2733462001197,None,2864.2733462001197,None,6,3.0857003000564873,2864.2733462001197,None,2867.3890591000672,None,2867.8978250999935,None,2867.8978250999935,None,r,1.2453042999841273,2867.8978250999935,None,,,NC19,001,2021_Nov_03_1458,ProdSingRedo,3.2.3,60.288868078270255,
,,,,14,0,14,0,,,,,,,,,,,,,,,,,,,,,,,,2873.3280607000925,None,,,,,,,,,,,,,,,,,drove,silent,white,14,72,106,2869.69538239995,None,2869.69538239995,None,6,2.4872230000328273,2869.69538239995,None,2872.2135411000345,None,2872.7398288999684,None,2872.7398288999684,None,r,0.5710176001302898,2872.7398288999684,None,,,NC19,001,2021_Nov_03_1458,ProdSingRedo,3.2.3,60.288868078270255,
,,,,15,0,15,0,,,,,,,,,,,,,,,,,,,,,,,,2885.0128081000876,None,,,,,,,,,,,,,,,,,quiet,new_c,white,15,163,249,2873.840955700027,None,2873.840955700027,None,4,4.141967799980193,2873.840955700027,None,2878.0424744000193,None,2878.5546583000105,None,2878.5546583000105,None,f,6.428074199939147,2878.5546583000105,None,,,NC19,001,2021_Nov_03_1458,ProdSingRedo,3.2.3,60.288868078270255,
,,,,16,0,16,0,,,,,,,,,,,,,,,,,,,,,,,,2892.19807630009,None,,,,,,,,,,,,,,,,,detective,aloud,white,16,39,92,2885.534378200071,None,2885.534378200071,None,6,3.0483687999658287,2885.534378200071,None,2888.6253536001313,None,2889.134828499984,None,2889.134828499984,None,r,3.031924800015986,2889.134828499984,None,,,NC19,001,2021_Nov_03_1458,ProdSingRedo,3.2.3,60.288868078270255,
,,,,17,0,17,0,,,,,,,,,,,,,,,,,,,,,,,,2899.313940400025,None,,,,,,,,,,,,,,,,,group,sing,white,17,16,143,2892.7317615000065,None,2892.7317615000065,None,5,3.282987300073728,2892.7317615000065,None,2896.0667483001016,None,2896.5827115001157,None,2896.5827115001157,None,f,2.712014500051737,2896.5827115001157,None,,,NC19,001,2021_Nov_03_1458,ProdSingRedo,3.2.3,60.288868078270255,
,,,,18,0,18,0,,,,,,,,,,,,,,,,,,,,,,,,2907.2741664000787,None,,,,,,,,,,,,,,,,,evidence,new_c,white,18,177,120,2899.834128299961,None,2899.834128299961,None,3,5.348891899921,2899.834128299961,None,2905.2344500999898,None,2905.752622900065,None,2905.752622900065,None,n,1.4862168999388814,2905.752622900065,None,,,NC19,001,2021_Nov_03_1458,ProdSingRedo,3.2.3,60.288868078270255,
,,,,19,0,19,0,,,,,,,,,,,,,,,,,,,,,,,,2912.8344964999706,None,,,,,,,,,,,,,,,,,notice,aloud,white,19,58,201,2907.7938264000695,None,2907.7938264000695,None,5,3.8130367000121623,2907.7938264000695,None,2911.6386446000542,None,2912.150337900035,None,2912.150337900035,None,f,0.6566069000400603,2912.150337900035,None,,,NC19,001,2021_Nov_03_1458,ProdSingRedo,3.2.3,60.288868078270255,
,,,,20,0,20,0,,,,,,,,,,,,,,,,,,,,,,,,2918.7175008999184,None,,,,,,,,,,,,,,,,,addition,new_c,white,20,166,2,2913.3665672000498,None,2913.3665672000498,None,1,2.1444924999959767,2913.3665672000498,None,2915.54314059997,None,2916.0505218000617,None,2916.0505218000617,None,n,2.644747900078073,2916.0505218000617,None,,,NC19,001,2021_Nov_03_1458,ProdSingRedo,3.2.3,60.288868078270255,
,,,,21,0,21,0,,,,,,,,,,,,,,,,,,,,,,,,2925.188744599931,None,,,,,,,,,,,,,,,,,quick,sing,white,21,27,248,2919.254305199953,None,2919.254305199953,None,4,4.120497300056741,2919.254305199953,None,2923.412101800088,None,2923.9192188000306,None,2923.9192188000306,None,f,1.2397459000349045,2923.9192188000306,None,,,NC19,001,2021_Nov_03_1458,ProdSingRedo,3.2.3,60.288868078270255,
,,,,22,0,22,0,,,,,,,,,,,,,,,,,,,,,,,,2928.6325386001263,None,,,,,,,,,,,,,,,,,little,new_c,white,22,160,174,2925.711885900004,None,2925.711885900004,None,1,1.7514753001742065,2925.711885900004,None,2927.506824400043,None,2928.025687100133,None,2928.025687100133,None,n,0.5889419999439269,2928.025687100133,None,,,NC19,001,2021_Nov_03_1458,ProdSingRedo,3.2.3,60.288868078270255,
,,,,23,0,23,0,,,,,,,,,,,,,,,,,,,,,,,,2937.7079390001018,None,,,,,,,,,,,,,,,,,subject,silent,white,23,75,312,2929.1569205000997,None,2929.1569205000997,None,3,4.145936399931088,2929.1569205000997,None,2933.345259899972,None,2933.8520695001353,None,2933.8520695001353,None,f,3.8190102998632938,2933.8520695001353,None,,,NC19,001,2021_Nov_03_1458,ProdSingRedo,3.2.3,60.288868078270255,
,,,,24,0,24,0,,,,,,,,,,,,,,,,,,,,,,,,2941.3602068000473,None,,,,,,,,,,,,,,,,,hunger,new_c,white,24,153,155,2938.2361534000374,None,2938.2361534000374,None,1,2.187011699890718,2938.2361534000374,None,2940.4602103000507,None,2940.9703589000273,None,2940.9703589000273,None,n,0.35654020006768405,2940.9703589000273,None,,,NC19,001,2021_Nov_03_1458,ProdSingRedo,3.2.3,60.288868078270255,
,,,,25,0,25,0,,,,,,,,,,,,,,,,,,,,,,,,2944.3322672001086,None,,,,,,,,,,,,,,,,,platform,new_c,white,25,178,224,2941.8858342999592,None,2941.8858342999592,None,1,1.7450643999036402,2941.8858342999592,None,2943.6635253001004,None,2944.1649188001174,None,2944.1649188001174,None,n,0.14580029994249344,2944.1649188001174,None,,,NC19,001,2021_Nov_03_1458,ProdSingRedo,3.2.3,60.288868078270255,
,,,,26,0,26,0,,,,,,,,,,,,,,,,,,,,,,,,2949.622464200016,None,,,,,,,,,,,,,,,,,fellow,new_b,white,26,120,126,2944.833234900143,None,2944.833234900143,None,2,3.798257499933243,2944.833234900143,None,2948.678004699992,None,2949.1957229999825,None,2949.1957229999825,None,n,0.4033435999881476,2949.1957229999825,None,,,NC19,001,2021_Nov_03_1458,ProdSingRedo,3.2.3,60.288868078270255,
,,,,27,0,27,0,,,,,,,,,,,,,,,,,,,,,,,,2955.15236139996,None,,,,,,,,,,,,,,,,,empty,new_b,white,27,130,112,2950.142150999978,None,2950.142150999978,None,1,4.328821999952197,2950.142150999978,None,2954.522958799964,None,2955.048274700064,None,2955.048274700064,None,n,0.07029559998773038,2955.048274700064,None,,,NC19,001,2021_Nov_03_1458,ProdSingRedo,3.2.3,60.288868078270255,
,,,,28,0,28,0,,,,,,,,,,,,,,,,,,,,,,,,2960.090048199985,None,,,,,,,,,,,,,,,,,universal,aloud,white,28,37,345,2955.67943940009,None,2955.67943940009,None,6,2.927534099901095,2955.67943940009,None,2958.663694899995,None,2959.1880314999726,None,2959.1880314999726,None,r,0.8671214000787586,2959.1880314999726,None,,,NC19,001,2021_Nov_03_1458,ProdSingRedo,3.2.3,60.288868078270255,
,,,,29,0,29,0,,,,,,,,,,,,,,,,,,,,,,,,2964.085346000036,None,,,,,,,,,,,,,,,,,literature,new_a,white,29,111,173,2960.6246577999555,None,2960.6246577999555,None,1,2.309994500130415,2960.6246577999555,None,2962.9597666999325,None,2963.4786676999647,None,2963.4786676999647,None,n,0.5760592999868095,2963.4786676999647,None,,,NC19,001,2021_Nov_03_1458,ProdSingRedo,3.2.3,60.288868078270255,
,,,,30,0,30,0,,,,,,,,,,,,,,,,,,,,,,,,2970.739907799987,None,,,,,,,,,,,,,,,,,dance,new_c,white,30,169,84,2964.6192656001076,None,2964.6192656001076,None,3,1.6517453999258578,2964.6192656001076,None,2966.328703199979,None,2966.8447986999527,None,2966.8447986999527,None,n,3.8581983998883516,2966.8447986999527,None,,,NC19,001,2021_Nov_03_1458,ProdSingRedo,3.2.3,60.288868078270255,
,,,,31,0,31,0,,,,,,,,,,,,,,,,,,,,,,,,2978.2606695001014,None,,,,,,,,,,,,,,,,,guide,aloud,white,31,36,147,2971.264253699919,None,2971.264253699919,None,5,5.2465623000171036,2971.264253699919,None,2976.5443953999784,None,2977.0628764999565,None,2977.0628764999565,None,f,1.1603683999273926,2977.0628764999565,None,,,NC19,001,2021_Nov_03_1458,ProdSingRedo,3.2.3,60.288868078270255,
,,,,32,0,32,0,,,,,,,,,,,,,,,,,,,,,,,,2984.3258080999367,None,,,,,,,,,,,,,,,,,agency,sing,white,32,21,4,2978.7951696000528,None,2978.7951696000528,None,6,3.1636860999278724,2978.7951696000528,None,2981.996148900129,None,2982.516366600059,None,2982.516366600059,None,r,1.786492499988526,2982.516366600059,None,,,NC19,001,2021_Nov_03_1458,ProdSingRedo,3.2.3,60.288868078270255,
,,,,33,0,33,0,,,,,,,,,,,,,,,,,,,,,,,,2988.8963618001435,None,,,,,,,,,,,,,,,,,cross,new_c,white,33,168,80,2984.853609099984,None,2984.853609099984,None,3,1.873735399916768,2984.853609099984,None,2986.774623699952,None,2987.2937626999337,None,2987.2937626999337,None,f,1.5693018999882042,2987.2937626999337,None,,,NC19,001,2021_Nov_03_1458,ProdSingRedo,3.2.3,60.288868078270255,
,,,,34,0,34,0,,,,,,,,,,,,,,,,,,,,,,,,2991.826764700003,None,,,,,,,,,,,,,,,,,thing,silent,white,34,73,328,2989.4170860000886,None,2989.4170860000886,None,1,1.4220434001181275,2989.4170860000886,None,2990.8983167000115,None,2991.4117678001057,None,2991.4117678001057,None,n,0.37929589999839664,2991.4117678001057,None,,,NC19,001,2021_Nov_03_1458,ProdSingRedo,3.2.3,60.288868078270255,
,,,,35,0,35,0,,,,,,,,,,,,,,,,,,,,,,,,2996.313466000138,None,,,,,,,,,,,,,,,,,scale,silent,white,35,69,272,2992.3575172000565,None,2992.3575172000565,None,2,3.1617727000266314,2992.3575172000565,None,2995.5553055999335,None,2996.082855100045,None,2996.082855100045,None,n,0.19632809981703758,2996.082855100045,None,,,NC19,001,2021_Nov_03_1458,ProdSingRedo,3.2.3,60.288868078270255,
,,,,36,0,36,0,,,,,,,,,,,,,,,,,,,,,,,,3002.6130019000266,None,,,,,,,,,,,,,,,,,property,new_a,white,36,109,242,2996.8390319999307,None,2996.8390319999307,None,1,5.1120911000762135,2996.8390319999307,None,3001.976404499961,None,3002.5114977001213,None,3002.5114977001213,None,n,0.07145689986646175,3002.5114977001213,None,,,NC19,001,2021_Nov_03_1458,ProdSingRedo,3.2.3,60.288868078270255,
,,,,37,0,37,0,,,,,,,,,,,,,,,,,,,,,,,,3005.462660399964,None,,,,,,,,,,,,,,,,,column,new_c,white,37,161,57,3003.1385385000613,None,3003.1385385000613,None,1,1.5402096000034362,3003.1385385000613,None,3004.710088700056,None,3005.222734299954,None,3005.222734299954,None,n,0.20019509992562234,3005.222734299954,None,,,NC19,001,2021_Nov_03_1458,ProdSingRedo,3.2.3,60.288868078270255,
,,,,38,0,38,0,,,,,,,,,,,,,,,,,,,,,,,,3011.7225490000565,None,,,,,,,,,,,,,,,,,citizen,aloud,white,38,49,50,3005.9894598000683,None,3005.9894598000683,None,5,4.033670600038022,3005.9894598000683,None,3010.0735261000227,None,3010.5995455000084,None,3010.5995455000084,None,f,1.095378699945286,3010.5995455000084,None,,,NC19,001,2021_Nov_03_1458,ProdSingRedo,3.2.3,60.288868078270255,
,,,,39,0,39,0,,,,,,,,,,,,,,,,,,,,,,,,3016.762478900142,None,,,,,,,,,,,,,,,,,institute,new_b,white,39,128,162,3012.2586886999197,None,3012.2586886999197,None,1,3.796947499969974,3012.2586886999197,None,3016.1045508000534,None,3016.614702099934,None,3016.614702099934,None,n,0.12112250016070902,3016.614702099934,None,,,NC19,001,2021_Nov_03_1458,ProdSingRedo,3.2.3,60.288868078270255,
,,,,40,0,40,0,,,,,,,,,,,,,,,,,,,,,,,,3022.714956999989,None,,,,,,,,,,,,,,,,,finish,silent,white,40,82,130,3017.287551500136,None,3017.287551500136,None,3,2.847945800051093,3017.287551500136,None,3020.163814000087,None,3020.675346700009,None,3020.675346700009,None,f,2.0120602999813855,3020.675346700009,None,,,NC19,001,2021_Nov_03_1458,ProdSingRedo,3.2.3,60.288868078270255,
,,,,41,0,41,0,,,,,,,,,,,,,,,,,,,,,,,,3030.523936300073,None,,,,,,,,,,,,,,,,,length,aloud,white,41,52,169,3023.2311951001175,None,3023.2311951001175,None,5,5.504096100106835,3023.2311951001175,None,3028.7668912000954,None,3029.2805872000754,None,3029.2805872000754,None,f,1.2142112997826189,3029.2805872000754,None,,,NC19,001,2021_Nov_03_1458,ProdSingRedo,3.2.3,60.288868078270255,
,,,,42,0,42,0,,,,,,,,,,,,,,,,,,,,,,,,3037.3968313001096,None,,,,,,,,,,,,,,,,,period,silent,white,42,74,217,3031.042110099923,None,3031.042110099923,None,1,3.748698699986562,3031.042110099923,None,3034.823263300117,None,3035.3312055999413,None,3035.3312055999413,None,n,2.0357498000375926,3035.3312055999413,None,,,NC19,001,2021_Nov_03_1458,ProdSingRedo,3.2.3,60.288868078270255,
,,,,43,0,43,0,,,,,,,,,,,,,,,,,,,,,,,,3041.0914670000784,None,,,,,,,,,,,,,,,,,story,silent,white,43,71,306,3037.921464300016,None,3037.921464300016,None,2,2.101273200009018,3037.921464300016,None,3040.0454488999676,None,3040.558071800042,None,3040.558071800042,None,n,0.5048165000043809,3040.558071800042,None,,,NC19,001,2021_Nov_03_1458,ProdSingRedo,3.2.3,60.288868078270255,
,,,,44,0,44,0,,,,,,,,,,,,,,,,,,,,,,,,3046.1587547999807,None,,,,,,,,,,,,,,,,,season,new_b,white,44,132,277,3041.6271536001004,None,3041.6271536001004,None,4,2.5478556999005377,3041.6271536001004,None,3044.2147093999665,None,3044.7340546001215,None,3044.7340546001215,None,f,1.4007283002138138,3044.7340546001215,None,,,NC19,001,2021_Nov_03_1458,ProdSingRedo,3.2.3,60.288868078270255,
,,,,45,0,45,0,,,,,,,,,,,,,,,,,,,,,,,,3052.5753631000407,None,,,,,,,,,,,,,,,,,power,new_b,white,45,121,230,3046.6920455999207,None,3046.6920455999207,None,5,2.5951233999803662,3046.6920455999207,None,3049.3200066001154,None,3049.838536299998,None,3049.838536299998,None,f,2.7123471999075264,3049.838536299998,None,,,NC19,001,2021_Nov_03_1458,ProdSingRedo,3.2.3,60.288868078270255,
,,,,46,0,46,0,,,,,,,,,,,,,,,,,,,,,,,,3055.807337400038,None,,,,,,,,,,,,,,,,,solution,new_a,white,46,100,294,3053.0924158000853,None,3053.0924158000853,None,2,2.026359200011939,3053.0924158000853,None,3055.1469831001014,None,3055.6678760000505,None,3055.6678760000505,None,n,0.10696749994531274,3055.6678760000505,None,,,NC19,001,2021_Nov_03_1458,ProdSingRedo,3.2.3,60.288868078270255,
,,,,47,0,47,0,,,,,,,,,,,,,,,,,,,,,,,,3058.833939400036,None,,,,,,,,,,,,,,,,,beauty,new_b,white,47,134,18,3056.328494900139,None,3056.328494900139,None,1,1.3985246000811458,3056.328494900139,None,3057.7829402000643,None,3058.2851768999826,None,3058.2851768999826,None,n,0.5220694998279214,3058.2851768999826,None,,,NC19,001,2021_Nov_03_1458,ProdSingRedo,3.2.3,60.288868078270255,
,,,,48,0,48,0,,,,,,,,,,,,,,,,,,,,,,,,3061.5246105000842,None,,,,,,,,,,,,,,,,,salary,new_b,white,48,135,271,3059.3490190999582,None,3059.3490190999582,None,1,1.313773499801755,3059.3490190999582,None,3060.6984049999155,None,3061.206328100059,None,3061.206328100059,None,n,0.28841860010288656,3061.206328100059,None,,,NC19,001,2021_Nov_03_1458,ProdSingRedo,3.2.3,60.288868078270255,
,,,,49,0,49,0,,,,,,,,,,,,,,,,,,,,,,,,3092.5696012999397,None,,,,,,,,,,,,,,,,,speech,silent,white,49,66,298,3062.034298500046,None,3062.034298500046,None,5,29.468654100084677,3062.034298500046,None,3091.534549199976,None,3092.052610400133,None,3092.052610400133,None,r,0.4824528999160975,3092.052610400133,None,,,NC19,001,2021_Nov_03_1458,ProdSingRedo,3.2.3,60.288868078270255,
,,,,50,0,50,0,,,,,,,,,,,,,,,,,,,,,,,,3102.8007126001175,None,,,,,,,,,,,,,,,,,narrow,new_b,white,50,141,197,3093.095809600083,None,3093.095809600083,None,2,6.127630499890074,3093.095809600083,None,3099.2554194999393,None,3099.7684577000327,None,3099.7684577000327,None,f,3.0069951999466866,3099.7684577000327,None,,,NC19,001,2021_Nov_03_1458,ProdSingRedo,3.2.3,60.288868078270255,
,,,,51,0,51,0,,,,,,,,,,,,,,,,,,,,,,,,3114.5518865999766,None,,,,,,,,,,,,,,,,,attack,new_a,white,51,95,13,3103.3412661999464,None,3103.3412661999464,None,2,9.801792599959299,3103.3412661999464,None,3113.1747644001152,None,3113.6874200999737,None,3113.6874200999737,None,n,0.8397613000124693,3113.6874200999737,None,,,NC19,001,2021_Nov_03_1458,ProdSingRedo,3.2.3,60.288868078270255,
,,,,52,0,52,0,,,,,,,,,,,,,,,,,,,,,,,,3117.9074941000436,None,,,,,,,,,,,,,,,,,south,silent,white,52,64,296,3115.0739764000755,None,3115.0739764000755,None,1,1.8930842000991106,3115.0739764000755,None,3117.0184244001284,None,3117.539153000107,None,3117.539153000107,None,n,0.3398770000785589,3117.539153000107,None,,,NC19,001,2021_Nov_03_1458,ProdSingRedo,3.2.3,60.288868078270255,
,,,,53,0,53,0,,,,,,,,,,,,,,,,,,,,,,,,3124.8272178999614,None,,,,,,,,,,,,,,,,,dozen,new_c,white,53,172,102,3118.430884100031,None,3118.430884100031,None,3,4.44784769997932,3118.430884100031,None,3122.9135612000246,None,3123.438195799943,None,3123.438195799943,None,f,1.360542400041595,3123.438195799943,None,,,NC19,001,2021_Nov_03_1458,ProdSingRedo,3.2.3,60.288868078270255,
,,,,54,0,54,0,,,,,,,,,,,,,,,,,,,,,,,,3131.9029109999537,None,,,,,,,,,,,,,,,,,report,new_b,white,54,144,259,3125.3371774000116,None,3125.3371774000116,None,3,3.35779060004279,3125.3371774000116,None,3128.723478599917,None,3129.2317188000306,None,3129.2317188000306,None,f,2.647675800137222,3129.2317188000306,None,,,NC19,001,2021_Nov_03_1458,ProdSingRedo,3.2.3,60.288868078270255,
,,,,55,0,55,0,,,,,,,,,,,,,,,,,,,,,,,,3140.5335280001163,None,,,,,,,,,,,,,,,,,drink,new_b,white,55,129,105,3132.4296158999205,None,3132.4296158999205,None,1,4.009452800033614,3132.4296158999205,None,3136.486407000106,None,3136.9967825999483,None,3136.9967825999483,None,n,3.5061524000484496,3136.9967825999483,None,,,NC19,001,2021_Nov_03_1458,ProdSingRedo,3.2.3,60.288868078270255,
,,,,56,0,56,0,,,,,,,,,,,,,,,,,,,,,,,,3143.497378600063,None,,,,,,,,,,,,,,,,,territory,new_b,white,56,122,324,3141.056484099943,None,3141.056484099943,None,1,1.8305138000287116,3141.056484099943,None,3142.9232260000426,None,3143.4449784001336,None,3143.4449784001336,None,n,0.025990800000727177,3143.4449784001336,None,,,NC19,001,2021_Nov_03_1458,ProdSingRedo,3.2.3,60.288868078270255,
,,,,57,0,57,0,,,,,,,,,,,,,,,,,,,,,,,,3149.7879985999316,None,,,,,,,,,,,,,,,,,spoke,sing,white,57,18,300,3144.0155545999296,None,3144.0155545999296,None,6,5.143201599828899,3144.0155545999296,None,3149.186926299939,None,3149.709927899996,None,3149.709927899996,None,r,0.04121820000000298,3149.709927899996,None,,,NC19,001,2021_Nov_03_1458,ProdSingRedo,3.2.3,60.288868078270255,
,,,,58,0,58,0,,,,,,,,,,,,,,,,,,,,,,,,3153.3472511,None,,,,,,,,,,,,,,,,,direction,new_a,white,58,96,94,3150.3114769000094,None,3150.3114769000094,None,2,2.351584100164473,3150.3114769000094,None,3152.6865562999155,None,3153.205344100017,None,3153.205344100017,None,n,0.10662259999662638,3153.205344100017,None,,,NC19,001,2021_Nov_03_1458,ProdSingRedo,3.2.3,60.288868078270255,
,,,,59,0,59,0,,,,,,,,,,,,,,,,,,,,,,,,3160.0150999999605,None,,,,,,,,,,,,,,,,,crime,silent,white,59,77,78,3153.8663812000304,None,3153.8663812000304,None,6,3.9486265000887215,3153.8663812000304,None,3157.848897299962,None,3158.3560313999187,None,3158.3560313999187,None,r,1.6350261999759823,3158.3560313999187,None,,,NC19,001,2021_Nov_03_1458,ProdSingRedo,3.2.3,60.288868078270255,
,,,,60,0,60,0,,,,,,,,,,,,,,,,,,,,,,,,3163.57171509997,None,,,,,,,,,,,,,,,,,pretty,silent,white,60,80,233,3160.5384551000316,None,3160.5384551000316,None,6,2.460471900179982,3160.5384551000316,None,3163.0413577000145,None,3163.5491313000675,None,3163.5491313000675,None,r,0.0018956998828798532,3163.5491313000675,None,,,NC19,001,2021_Nov_03_1458,ProdSingRedo,3.2.3,60.288868078270255,
,,,,61,0,61,0,,,,,,,,,,,,,,,,,,,,,,,,3168.8684022000525,None,,,,,,,,,,,,,,,,,session,new_a,white,61,114,281,3164.0827182999346,None,3164.0827182999346,None,3,2.580644099973142,3164.0827182999346,None,3166.70368149993,None,3167.226837400114,None,3167.226837400114,None,f,1.620747100096196,3167.226837400114,None,,,NC19,001,2021_Nov_03_1458,ProdSingRedo,3.2.3,60.288868078270255,
,,,,62,0,62,0,,,,,,,,,,,,,,,,,,,,,,,,3172.269006700022,None,,,,,,,,,,,,,,,,,express,new_b,white,62,137,124,3169.4017928999383,None,3169.4017928999383,None,1,2.1492463999893516,3169.4017928999383,None,3171.5896644000895,None,3172.1006829999387,None,3172.1006829999387,None,n,0.14688639994710684,3172.1006829999387,None,,,NC19,001,2021_Nov_03_1458,ProdSingRedo,3.2.3,60.288868078270255,
,,,,63,0,63,0,,,,,,,,,,,,,,,,,,,,,,,,3177.188263399992,None,,,,,,,,,,,,,,,,,audience,new_c,white,63,175,14,3172.791625400074,None,3172.791625400074,None,4,3.3194811001885682,3172.791625400074,None,3176.1638329999987,None,3176.67874699994,None,3176.67874699994,None,f,0.4802115000784397,3176.67874699994,None,,,NC19,001,2021_Nov_03_1458,ProdSingRedo,3.2.3,60.288868078270255,
,,,,64,0,64,0,,,,,,,,,,,,,,,,,,,,,,,,3180.1921204000246,None,,,,,,,,,,,,,,,,,still,new_b,white,64,131,304,3177.7079905001447,None,3177.7079905001447,None,4,1.8269279999658465,3177.7079905001447,None,3179.5700501000974,None,3180.083510100143,None,3180.083510100143,None,f,0.0756854999344796,3180.083510100143,None,,,NC19,001,2021_Nov_03_1458,ProdSingRedo,3.2.3,60.288868078270255,
,,,,65,0,65,0,,,,,,,,,,,,,,,,,,,,,,,,3183.0001288000494,None,,,,,,,,,,,,,,,,,course,new_a,white,65,116,74,3180.7137923000846,None,3180.7137923000846,None,2,1.5661249000113457,3180.7137923000846,None,3182.3250023000874,None,3182.842311100103,None,3182.842311100103,None,n,0.14065119996666908,3182.842311100103,None,,,NC19,001,2021_Nov_03_1458,ProdSingRedo,3.2.3,60.288868078270255,
,,,,66,0,66,0,,,,,,,,,,,,,,,,,,,,,,,,3188.336014200002,None,,,,,,,,,,,,,,,,,comfort,new_a,white,66,91,59,3183.5186135999393,None,3183.5186135999393,None,1,2.0483888001181185,3183.5186135999393,None,3185.6168094999157,None,3186.120647399919,None,3186.120647399919,None,n,2.1824631998315454,3186.120647399919,None,,,NC19,001,2021_Nov_03_1458,ProdSingRedo,3.2.3,60.288868078270255,
,,,,67,0,67,0,,,,,,,,,,,,,,,,,,,,,,,,3193.717369399965,None,,,,,,,,,,,,,,,,,captain,silent,white,67,81,41,3188.872571000131,None,3188.872571000131,None,1,4.230514900060371,3188.872571000131,None,3193.1550273001194,None,3193.6674637999386,None,3193.6674637999386,None,n,0.019545000046491623,3193.6674637999386,None,,,NC19,001,2021_Nov_03_1458,ProdSingRedo,3.2.3,60.288868078270255,
,,,,68,0,68,0,,,,,,,,,,,,,,,,,,,,,,,,3199.118408499984,None,,,,,,,,,,,,,,,,,exchange,silent,white,68,61,121,3194.2381744000595,None,3194.2381744000595,None,5,3.7369371000677347,3194.2381744000595,None,3198.033090400044,None,3198.5487168000545,None,3198.5487168000545,None,f,0.5381965001579374,3198.5487168000545,None,,,NC19,001,2021_Nov_03_1458,ProdSingRedo,3.2.3,60.288868078270255,
,,,,69,0,69,0,,,,,,,,,,,,,,,,,,,,,,,,3215.8188180001453,None,,,,,,,,,,,,,,,,,display,new_c,white,69,165,98,3199.6500631999224,None,3199.6500631999224,None,4,14.013042399892583,3199.6500631999224,None,3213.695725900121,None,3214.1999971000478,None,3214.1999971000478,None,f,1.5909819998778403,3214.1999971000478,None,,,NC19,001,2021_Nov_03_1458,ProdSingRedo,3.2.3,60.288868078270255,
,,,,70,0,70,0,,,,,,,,,,,,,,,,,,,,,,,,3222.181924100034,None,,,,,,,,,,,,,,,,,running,new_c,white,70,151,268,3216.344423600007,None,3216.344423600007,None,3,3.6468545000534505,3216.344423600007,None,3220.0452821000945,None,3220.5695971001405,None,3220.5695971001405,None,n,1.581680600065738,3220.5695971001405,None,,,NC19,001,2021_Nov_03_1458,ProdSingRedo,3.2.3,60.288868078270255,
,,,,71,0,71,0,,,,,,,,,,,,,,,,,,,,,,,,3225.302841400029,None,,,,,,,,,,,,,,,,,opening,new_a,white,71,106,205,3222.707045099931,None,3222.707045099931,None,1,2.0039248999673873,3222.707045099931,None,3224.744056900032,None,3225.254261699971,None,3225.254261699971,None,n,0.01691240002401173,3225.254261699971,None,,,NC19,001,2021_Nov_03_1458,ProdSingRedo,3.2.3,60.288868078270255,
,,,,72,0,72,0,,,,,,,,,,,,,,,,,,,,,,,,3232.8865503999405,None,,,,,,,,,,,,,,,,,raise,sing,white,72,24,250,3225.826783100143,None,3225.826783100143,None,5,3.78028679988347,3225.826783100143,None,3229.6503370001446,None,3230.163348000031,None,3230.163348000031,None,f,2.699900999898091,3230.163348000031,None,,,NC19,001,2021_Nov_03_1458,ProdSingRedo,3.2.3,60.288868078270255,
,,,,73,0,73,0,,,,,,,,,,,,,,,,,,,,,,,,3238.1276472001337,None,,,,,,,,,,,,,,,,,place,aloud,white,73,51,222,3233.406143100001,None,3233.406143100001,None,4,3.968707999913022,3233.406143100001,None,3237.4158948000986,None,3237.9330124000553,None,3237.9330124000553,None,f,0.16209309990517795,3237.9330124000553,None,,,NC19,001,2021_Nov_03_1458,ProdSingRedo,3.2.3,60.288868078270255,
,,,,74,0,74,0,,,,,,,,,,,,,,,,,,,,,,,,3242.7177307999227,None,,,,,,,,,,,,,,,,,character,new_a,white,74,117,46,3238.6595243001357,None,3238.6595243001357,None,2,2.6596002001315355,3238.6595243001357,None,3241.352499099914,None,3241.876154999947,None,3241.876154999947,None,n,0.8109850001055747,3241.876154999947,None,,,NC19,001,2021_Nov_03_1458,ProdSingRedo,3.2.3,60.288868078270255,
,,,,75,0,75,0,,,,,,,,,,,,,,,,,,,,,,,,3246.1329040001146,None,,,,,,,,,,,,,,,,,profession,new_c,white,75,176,241,3243.242144800024,None,3243.242144800024,None,1,2.0528482999652624,3243.242144800024,None,3245.3303008000366,None,3245.83721300005,None,3245.83721300005,None,n,0.2579686997924,3245.83721300005,None,,,NC19,001,2021_Nov_03_1458,ProdSingRedo,3.2.3,60.288868078270255,
,,,,76,0,76,0,,,,,,,,,,,,,,,,,,,,,,,,3250.3715504999273,None,,,,,,,,,,,,,,,,,material,aloud,white,76,54,182,3246.655395100126,None,3246.655395100126,None,6,3.071504699997604,3246.655395100126,None,3249.768720299937,None,3250.2699671001174,None,3250.2699671001174,None,r,0.08121670014224946,3250.2699671001174,None,,,NC19,001,2021_Nov_03_1458,ProdSingRedo,3.2.3,60.288868078270255,
,,,,77,0,77,0,,,,,,,,,,,,,,,,,,,,,,,,3257.412103299983,None,,,,,,,,,,,,,,,,,executive,sing,white,77,20,122,3250.9079609001055,None,3250.9079609001055,None,6,4.419282800052315,3250.9079609001055,None,3255.381503399927,None,3255.904756200034,None,3255.904756200034,None,r,1.4782513999380171,3255.904756200034,None,,,NC19,001,2021_Nov_03_1458,ProdSingRedo,3.2.3,60.288868078270255,
,,,,78,0,78,0,,,,,,,,,,,,,,,,,,,,,,,,3261.553750500083,None,,,,,,,,,,,,,,,,,carry,aloud,white,78,32,43,3257.9268458001316,None,3257.9268458001316,None,4,2.3521396999713033,3257.9268458001316,None,3260.3146186000668,None,3260.8375804000534,None,3260.8375804000534,None,f,0.6819249000400305,3260.8375804000534,None,,,NC19,001,2021_Nov_03_1458,ProdSingRedo,3.2.3,60.288868078270255,
,,,,79,0,79,0,,,,,,,,,,,,,,,,,,,,,,,,3268.307860400062,None,,,,,,,,,,,,,,,,,finance,silent,white,79,67,129,3262.0719345000107,None,3262.0719345000107,None,6,5.151199499843642,3262.0719345000107,None,3267.268824599916,None,3267.7778459999245,None,3267.7778459999245,None,r,0.5094055000226945,3267.7778459999245,None,,,NC19,001,2021_Nov_03_1458,ProdSingRedo,3.2.3,60.288868078270255,
,,,,80,0,80,0,,,,,,,,,,,,,,,,,,,,,,,,3273.139683800051,None,,,,,,,,,,,,,,,,,light,new_a,white,80,99,171,3268.8337175000925,None,3268.8337175000925,None,1,3.645287699997425,3268.8337175000925,None,3272.5190781001,None,3273.024280300131,None,3273.024280300131,None,n,0.08666780008934438,3273.024280300131,None,,,NC19,001,2021_Nov_03_1458,ProdSingRedo,3.2.3,60.288868078270255,
,,,,81,0,81,0,,,,,,,,,,,,,,,,,,,,,,,,3278.3151434001047,None,,,,,,,,,,,,,,,,,entrance,aloud,white,81,44,115,3273.652894699946,None,3273.652894699946,None,4,3.842255000025034,3273.652894699946,None,3277.539823499974,None,3278.0553727999795,None,3278.0553727999795,None,f,0.2239005002193153,3278.0553727999795,None,,,NC19,001,2021_Nov_03_1458,ProdSingRedo,3.2.3,60.288868078270255,
,,,,82,0,82,0,,,,,,,,,,,,,,,,,,,,,,,,3284.7576482000295,None,,,,,,,,,,,,,,,,,career,sing,white,82,1,42,3278.8392976000905,None,3278.8392976000905,None,1,3.8559292999561876,3278.8392976000905,None,3282.744351600064,None,3283.270105100004,None,3283.270105100004,None,n,1.4568660999648273,3283.270105100004,None,,,NC19,001,2021_Nov_03_1458,ProdSingRedo,3.2.3,60.288868078270255,
,,,,83,0,83,0,,,,,,,,,,,,,,,,,,,,,,,,3287.7073979999404,None,,,,,,,,,,,,,,,,,level,new_c,white,83,154,170,3285.288185900077,None,3285.288185900077,None,2,1.671200100099668,3285.288185900077,None,3287.01727930014,None,3287.5331796000246,None,3287.5331796000246,None,n,0.14587830007076263,3287.5331796000246,None,,,NC19,001,2021_Nov_03_1458,ProdSingRedo,3.2.3,60.288868078270255,
,,,,84,0,84,0,,,,,,,,,,,,,,,,,,,,,,,,3290.540620499989,None,,,,,,,,,,,,,,,,,shear,new_c,white,84,156,283,3288.222566300072,None,3288.222566300072,None,1,1.6564536998048425,3288.222566300072,None,3289.9156766999513,None,3290.427238400094,None,3290.427238400094,None,n,0.09245379990898073,3290.427238400094,None,,,NC19,001,2021_Nov_03_1458,ProdSingRedo,3.2.3,60.288868078270255,
,,,,85,0,85,0,,,,,,,,,,,,,,,,,,,,,,,,3295.933520199964,None,,,,,,,,,,,,,,,,,member,new_c,white,85,179,188,3291.0707924000453,None,3291.0707924000453,None,1,2.712434400105849,3291.0707924000453,None,3293.833428400103,None,3294.353217100026,None,3294.353217100026,None,n,1.542102700099349,3294.353217100026,None,,,NC19,001,2021_Nov_03_1458,ProdSingRedo,3.2.3,60.288868078270255,
,,,,86,0,86,0,,,,,,,,,,,,,,,,,,,,,,,,3302.0746752000414,None,,,,,,,,,,,,,,,,,fight,sing,white,86,25,127,3296.461536800023,None,3296.461536800023,None,6,4.665757899871096,3296.461536800023,None,3301.1826776999515,None,3301.7017924000975,None,3301.7017924000975,None,r,0.3452448998577893,3301.7017924000975,None,,,NC19,001,2021_Nov_03_1458,ProdSingRedo,3.2.3,60.288868078270255,
,,,,87,0,87,0,,,,,,,,,,,,,,,,,,,,,,,,3317.152416799916,None,,,,,,,,,,,,,,,,,trial,new_b,white,87,139,341,3302.5966728001367,None,3302.5966728001367,None,6,7.194284700090066,3302.5966728001367,None,3309.8153492999263,None,3310.332846699981,None,3310.332846699981,None,r,6.786570800002664,3310.332846699981,None,,,NC19,001,2021_Nov_03_1458,ProdSingRedo,3.2.3,60.288868078270255,
,,,,88,0,88,0,,,,,,,,,,,,,,,,,,,,,,,,3322.877304899972,None,,,,,,,,,,,,,,,,,charter,sing,white,88,26,47,3317.678356599994,None,3317.678356599994,None,6,4.289078000001609,3317.678356599994,None,3322.0130209999625,None,3322.527237500064,None,3322.527237500064,None,r,0.3198567999061197,3322.527237500064,None,,,NC19,001,2021_Nov_03_1458,ProdSingRedo,3.2.3,60.288868078270255,
,,,,89,0,89,0,,,,,,,,,,,,,,,,,,,,,,,,3329.396821799921,None,,,,,,,,,,,,,,,,,school,new_a,white,89,115,274,3323.3937735999934,None,3323.3937735999934,None,1,2.557328299852088,3323.3937735999934,None,3325.9852802001406,None,3326.4936335000675,None,3326.4936335000675,None,n,2.873493699822575,3326.4936335000675,None,,,NC19,001,2021_Nov_03_1458,ProdSingRedo,3.2.3,60.288868078270255,
,,,,90,0,90,0,,,,,,,,,,,,,,,,,,,,,,,,3332.9782428999897,None,,,,,,,,,,,,,,,,,income,new_b,white,90,142,159,3329.9166532000527,None,3329.9166532000527,None,1,1.6427023001015186,3329.9166532000527,None,3331.589681300102,None,3332.10074959998,None,3332.10074959998,None,n,0.8503155000507832,3332.10074959998,None,,,NC19,001,2021_Nov_03_1458,ProdSingRedo,3.2.3,60.288868078270255,
,,,,91,0,91,0,,,,,,,,,,,,,,,,,,,,,,,,3339.850279300008,None,,,,,,,,,,,,,,,,,suggestion,new_b,white,91,149,314,3333.499931700062,None,3333.499931700062,None,3,4.075324099976569,3333.499931700062,None,3337.6323387001175,None,3338.140199500136,None,3338.140199500136,None,f,1.6838732999749482,3338.140199500136,None,,,NC19,001,2021_Nov_03_1458,ProdSingRedo,3.2.3,60.288868078270255,
,,,,92,0,92,0,,,,,,,,,,,,,,,,,,,,,,,,3343.028797399951,None,,,,,,,,,,,,,,,,,piece,aloud,white,92,33,221,3340.368380600121,None,3340.368380600121,None,6,1.5348914000205696,3340.368380600121,None,3341.9507313999347,None,3342.461351200007,None,3342.461351200007,None,r,0.5377787000034004,3342.461351200007,None,,,NC19,001,2021_Nov_03_1458,ProdSingRedo,3.2.3,60.288868078270255,
,,,,93,0,93,0,,,,,,,,,,,,,,,,,,,,,,,,3347.7454198000487,None,,,,,,,,,,,,,,,,,resistance,new_a,white,93,101,262,3343.5531498999335,None,3343.5531498999335,None,4,2.293925300007686,3343.5531498999335,None,3345.88993220008,None,3346.398536700057,None,3346.398536700057,None,n,1.3284911001101136,3346.398536700057,None,,,NC19,001,2021_Nov_03_1458,ProdSingRedo,3.2.3,60.288868078270255,
,,,,94,0,94,0,,,,,,,,,,,,,,,,,,,,,,,,3354.461714199977,None,,,,,,,,,,,,,,,,,education,aloud,white,94,46,108,3348.2837578000035,None,3348.2837578000035,None,6,5.099261000053957,3348.2837578000035,None,3353.4249460999854,None,3353.936930600088,None,3353.936930600088,None,f,0.4940747998189181,3353.936930600088,None,,,NC19,001,2021_Nov_03_1458,ProdSingRedo,3.2.3,60.288868078270255,
,,,,95,0,95,0,,,,,,,,,,,,,,,,,,,,,,,,3361.011972700013,None,,,,,,,,,,,,,,,,,payment,new_a,white,95,113,215,3354.991978999926,None,3354.991978999926,None,3,3.6551192000042647,3354.991978999926,None,3358.6889158000704,None,3359.208108100109,None,3359.208108100109,None,f,1.783457900164649,3359.208108100109,None,,,NC19,001,2021_Nov_03_1458,ProdSingRedo,3.2.3,60.288868078270255,
,,,,96,0,96,0,,,,,,,,,,,,,,,,,,,,,,,,3365.547668500105,None,,,,,,,,,,,,,,,,,store,sing,white,96,15,305,3361.5296684999485,None,3361.5296684999485,None,1,2.165332800010219,3361.5296684999485,None,3363.7128379999194,None,3364.227004100103,None,3364.227004100103,None,n,1.2922555000986904,3364.227004100103,None,,,NC19,001,2021_Nov_03_1458,ProdSingRedo,3.2.3,60.288868078270255,
,,,,97,0,97,0,,,,,,,,,,,,,,,,,,,,,,,,3371.5568860999774,None,,,,,,,,,,,,,,,,,bitter,aloud,white,97,38,23,3366.0736048999242,None,3366.0736048999242,None,6,2.8865813999436796,3366.0736048999242,None,3368.996143199969,None,3369.5084188000765,None,3369.5084188000765,None,r,2.0192082999274135,3369.5084188000765,None,,,NC19,001,2021_Nov_03_1458,ProdSingRedo,3.2.3,60.288868078270255,
,,,,98,0,98,0,,,,,,,,,,,,,,,,,,,,,,,,3377.294793700101,None,,,,,,,,,,,,,,,,,range,new_b,white,98,136,251,3372.0799106000923,None,3372.0799106000923,None,4,1.615563000086695,3372.0799106000923,None,3373.7312738001347,None,3374.2413675000425,None,3374.2413675000425,None,f,3.0375077999196947,3374.2413675000425,None,,,NC19,001,2021_Nov_03_1458,ProdSingRedo,3.2.3,60.288868078270255,
,,,,99,0,99,0,,,,,,,,,,,,,,,,,,,,,,,,3387.8972247999627,None,,,,,,,,,,,,,,,,,impact,new_b,white,99,138,157,3377.816570600029,None,3377.816570600029,None,1,5.174649599939585,3377.816570600029,None,3383.0363320999313,None,3383.54750049999,None,3383.54750049999,None,n,4.323565399972722,3383.54750049999,None,,,NC19,001,2021_Nov_03_1458,ProdSingRedo,3.2.3,60.288868078270255,
,,,,100,0,100,0,,,,,,,,,,,,,,,,,,,,,,,,3391.6045546999667,None,,,,,,,,,,,,,,,,,owner,sing,white,100,17,208,3388.4213594999164,None,3388.4213594999164,None,4,2.193919299868867,3388.4213594999164,None,3390.6634186999872,None,3391.176746299956,None,3391.176746299956,None,f,0.39072009990923107,3391.176746299956,None,,,NC19,001,2021_Nov_03_1458,ProdSingRedo,3.2.3,60.288868078270255,
,,,,101,0,101,0,,,,,,,,,,,,,,,,,,,,,,,,3394.513401299948,None,,,,,,,,,,,,,,,,,style,new_a,white,101,112,311,3392.126737100072,None,3392.126737100072,None,5,1.6564887000713497,3392.126737100072,None,3393.830681900028,None,3394.3475498000626,None,3394.3475498000626,None,f,0.14755359990522265,3394.3475498000626,None,,,NC19,001,2021_Nov_03_1458,ProdSingRedo,3.2.3,60.288868078270255,
,,,,102,0,102,0,,,,,,,,,,,,,,,,,,,,,,,,3397.8224706000183,None,,,,,,,,,,,,,,,,,chief,aloud,white,102,35,48,3395.0290844999254,None,3395.0290844999254,None,6,1.1859594001434743,3395.0290844999254,None,3396.25691180001,None,3396.7702991999686,None,3396.7702991999686,None,r,1.0213915000203997,3396.7702991999686,None,,,NC19,001,2021_Nov_03_1458,ProdSingRedo,3.2.3,60.288868078270255,
,,,,103,0,103,0,,,,,,,,,,,,,,,,,,,,,,,,3412.490335999988,None,,,,,,,,,,,,,,,,,conference,new_c,white,103,155,66,3398.3503374999855,None,3398.3503374999855,None,4,11.216722900047898,3398.3503374999855,None,3409.6101989001036,None,3410.118524600053,None,3410.118524600053,None,f,2.3367530999239534,3410.118524600053,None,,,NC19,001,2021_Nov_03_1458,ProdSingRedo,3.2.3,60.288868078270255,
,,,,104,0,104,0,,,,,,,,,,,,,,,,,,,,,,,,3418.733147599967,None,,,,,,,,,,,,,,,,,debate,new_c,white,104,170,87,3413.0166076000314,None,3413.0166076000314,None,1,5.046694800024852,3413.0166076000314,None,3418.097071999917,None,3418.6056802000385,None,3418.6056802000385,None,n,0.10570399998687208,3418.6056802000385,None,,,NC19,001,2021_Nov_03_1458,ProdSingRedo,3.2.3,60.288868078270255,
,,,,105,0,105,0,,,,,,,,,,,,,,,,,,,,,,,,3429.504933099961,None,,,,,,,,,,,,,,,,,community,new_c,white,105,173,63,3419.271522999974,None,3419.271522999974,None,2,8.535939099965617,3419.271522999974,None,3427.8461249999236,None,3428.363106200006,None,3428.363106200006,None,n,1.11681819986552,3428.363106200006,None,,,NC19,001,2021_Nov_03_1458,ProdSingRedo,3.2.3,60.288868078270255,
,,,,106,0,106,0,,,,,,,,,,,,,,,,,,,,,,,,3434.1392729000654,None,,,,,,,,,,,,,,,,,vision,sing,white,106,3,347,3430.0344440999907,None,3430.0344440999907,None,1,3.0849345000460744,3430.0344440999907,None,3433.1737085001078,None,3433.684212699998,None,3433.684212699998,None,n,0.42688099993392825,3433.684212699998,None,,,NC19,001,2021_Nov_03_1458,ProdSingRedo,3.2.3,60.288868078270255,
,,,,107,0,107,0,,,,,,,,,,,,,,,,,,,,,,,,3441.7224957,None,,,,,,,,,,,,,,,,,music,sing,white,107,8,196,3434.662365300115,None,3434.662365300115,None,6,5.169224699959159,3434.662365300115,None,3439.8679498999845,None,3440.3796872000676,None,3440.3796872000676,None,r,1.307360399980098,3440.3796872000676,None,,,NC19,001,2021_Nov_03_1458,ProdSingRedo,3.2.3,60.288868078270255,
,,,,108,0,108,0,,,,,,,,,,,,,,,,,,,,,,,,3449.1769443000667,None,,,,,,,,,,,,,,,,,republic,new_c,white,108,174,260,3442.248384800041,None,3442.248384800041,None,1,5.095057199941948,3442.248384800041,None,3447.4059751001187,None,3447.9176219000947,None,3447.9176219000947,None,n,1.2338310999330133,3447.9176219000947,None,,,NC19,001,2021_Nov_03_1458,ProdSingRedo,3.2.3,60.288868078270255,
,,,,109,0,109,0,,,,,,,,,,,,,,,,,,,,,,,,3453.020187200047,None,,,,,,,,,,,,,,,,,author,new_a,white,109,90,15,3449.703323499998,None,3449.703323499998,None,1,2.4080010999459773,3449.703323499998,None,3452.1535457000136,None,3452.676713499939,None,3452.676713499939,None,n,0.3144238998647779,3452.676713499939,None,,,NC19,001,2021_Nov_03_1458,ProdSingRedo,3.2.3,60.288868078270255,
,,,,110,0,110,0,,,,,,,,,,,,,,,,,,,,,,,,3458.4020990999416,None,,,,,,,,,,,,,,,,,mechanical,aloud,white,110,40,185,3453.5473762999754,None,3453.5473762999754,None,4,3.900411400012672,3453.5473762999754,None,3457.4920357000083,None,3457.9926404000726,None,3457.9926404000726,None,f,0.39079099986702204,3457.9926404000726,None,,,NC19,001,2021_Nov_03_1458,ProdSingRedo,3.2.3,60.288868078270255,
,,,,111,0,111,0,,,,,,,,,,,,,,,,,,,,,,,,3462.794454399962,None,,,,,,,,,,,,,,,,,point,aloud,white,111,30,226,3458.9149386999197,None,3458.9149386999197,None,5,3.0764072998426855,3458.9149386999197,None,3462.0324120000005,None,3462.5476480000652,None,3462.5476480000652,None,f,0.2116499999538064,3462.5476480000652,None,,,NC19,001,2021_Nov_03_1458,ProdSingRedo,3.2.3,60.288868078270255,
,,,,112,0,112,0,,,,,,,,,,,,,,,,,,,,,,,,3467.8196656999644,None,,,,,,,,,,,,,,,,,expansion,aloud,white,112,53,123,3463.32090219995,None,3463.32090219995,None,5,2.718232400016859,3463.32090219995,None,3466.0820698000025,None,3466.6025660999585,None,3466.6025660999585,None,f,1.188558400142938,3466.6025660999585,None,,,NC19,001,2021_Nov_03_1458,ProdSingRedo,3.2.3,60.288868078270255,
,,,,113,0,113,0,,,,,,,,,,,,,,,,,,,,,,,,3471.011454100022,None,,,,,,,,,,,,,,,,,private,silent,white,113,60,237,3468.3509293999523,None,3468.3509293999523,None,6,1.9122790999244899,3468.3509293999523,None,3470.2977351001464,None,3470.81298050005,None,3470.81298050005,None,r,0.16256910003721714,3470.81298050005,None,,,NC19,001,2021_Nov_03_1458,ProdSingRedo,3.2.3,60.288868078270255,
,,,,114,0,114,0,,,,,,,,,,,,,,,,,,,,,,,,3476.0940608000383,None,,,,,,,,,,,,,,,,,figure,sing,white,114,4,128,3471.5342379999347,None,3471.5342379999347,None,3,3.568952800007537,3471.5342379999347,None,3475.1409869999625,None,3475.646349299932,None,3475.646349299932,None,n,0.4171704000327736,3475.646349299932,None,,,NC19,001,2021_Nov_03_1458,ProdSingRedo,3.2.3,60.288868078270255,
,,,,115,0,115,0,,,,,,,,,,,,,,,,,,,,,,,,3479.337205399992,None,,,,,,,,,,,,,,,,,meeting,silent,white,115,78,187,3476.6218135999516,None,3476.6218135999516,None,2,2.0575918999966234,3476.6218135999516,None,3478.728204099927,None,3479.243963500019,None,3479.243963500019,None,n,0.07525849994271994,3479.243963500019,None,,,NC19,001,2021_Nov_03_1458,ProdSingRedo,3.2.3,60.288868078270255,
,,,,116,0,116,0,,,,,,,,,,,,,,,,,,,,,,,,3482.3039925999474,None,,,,,,,,,,,,,,,,,minor,new_a,white,116,97,191,3479.868512300076,None,3479.868512300076,None,2,1.698771899798885,3479.868512300076,None,3481.5939792001154,None,3482.112191100139,None,3482.112191100139,None,n,0.16690650000236928,3482.112191100139,None,,,NC19,001,2021_Nov_03_1458,ProdSingRedo,3.2.3,60.288868078270255,
,,,,117,0,117,0,,,,,,,,,,,,,,,,,,,,,,,,3486.7600366999395,None,,,,,,,,,,,,,,,,,gesture,aloud,white,117,59,137,3482.8350778000895,None,3482.8350778000895,None,1,2.652151199989021,3482.8350778000895,None,3485.534446200123,None,3486.0555807999335,None,3486.0555807999335,None,n,0.6797950000036508,3486.0555807999335,None,,,NC19,001,2021_Nov_03_1458,ProdSingRedo,3.2.3,60.288868078270255,
,,,,118,0,118,0,,,,,,,,,,,,,,,,,,,,,,,,3492.6996840001084,None,,,,,,,,,,,,,,,,,escape,new_b,white,118,148,118,3487.2858701001387,None,3487.2858701001387,None,2,4.273360199993476,3487.2858701001387,None,3491.6026423999574,None,3492.1075820999686,None,3492.1075820999686,None,n,0.5637661998625845,3492.1075820999686,None,,,NC19,001,2021_Nov_03_1458,ProdSingRedo,3.2.3,60.288868078270255,
,,,,119,0,119,0,,,,,,,,,,,,,,,,,,,,,,,,3495.6583676999435,None,,,,,,,,,,,,,,,,,center,new_a,white,119,94,44,3493.2208352999296,None,3493.2208352999296,None,5,1.7546478000003844,3493.2208352999296,None,3495.021397399949,None,3495.546355900122,None,3495.546355900122,None,f,0.07688069995492697,3495.546355900122,None,,,NC19,001,2021_Nov_03_1458,ProdSingRedo,3.2.3,60.288868078270255,
,,,,120,0,120,0,,,,,,,,,,,,,,,,,,,,,,,,3501.542567100143,None,,,,,,,,,,,,,,,,,guard,silent,white,120,63,145,3496.189420599956,None,3496.189420599956,None,4,3.5629171000327915,3496.189420599956,None,3499.7918434999883,None,3500.3165440999437,None,3500.3165440999437,None,f,1.203225800069049,3500.3165440999437,None,,,NC19,001,2021_Nov_03_1458,ProdSingRedo,3.2.3,60.288868078270255,
,,,,121,0,121,0,,,,,,,,,,,,,,,,,,,,,,,,3505.8461685001384,None,,,,,,,,,,,,,,,,,order,sing,white,121,14,207,3502.054440600099,None,3502.054440600099,None,6,2.2086924999020994,3502.054440600099,None,3504.3110247000586,None,3504.823773100041,None,3504.823773100041,None,r,0.991369399940595,3504.823773100041,None,,,NC19,001,2021_Nov_03_1458,ProdSingRedo,3.2.3,60.288868078270255,
,,,,122,0,122,0,,,,,,,,,,,,,,,,,,,,,,,,3509.9586519000586,None,,,,,,,,,,,,,,,,,object,new_b,white,122,145,204,3506.361075300025,None,3506.361075300025,None,6,2.6459878999739885,3506.361075300025,None,3509.040187400067,None,3509.5553171001375,None,3509.5553171001375,None,f,0.3719732000026852,3509.5553171001375,None,,,NC19,001,2021_Nov_03_1458,ProdSingRedo,3.2.3,60.288868078270255,
,,,,123,0,123,0,,,,,,,,,,,,,,,,,,,,,,,,3513.240036699921,None,,,,,,,,,,,,,,,,,graduate,silent,white,123,79,141,3510.4924155999906,None,3510.4924155999906,None,4,1.8027429000940174,3510.4924155999906,None,3512.3362583999988,None,3512.853288399987,None,3512.853288399987,None,f,0.3700494000222534,3512.853288399987,None,,,NC19,001,2021_Nov_03_1458,ProdSingRedo,3.2.3,60.288868078270255,
,,,,124,0,124,0,,,,,,,,,,,,,,,,,,,,,,,,3535.2240287000313,None,,,,,,,,,,,,,,,,,swift,sing,white,124,23,320,3513.7732023000717,None,3513.7732023000717,None,4,18.89841639995575,3513.7732023000717,None,3532.7097658999264,None,3533.226495299954,None,3533.226495299954,None,f,1.9807166999671608,3533.226495299954,None,,,NC19,001,2021_Nov_03_1458,ProdSingRedo,3.2.3,60.288868078270255,
,,,,125,0,125,0,,,,,,,,,,,,,,,,,,,,,,,,3542.6247849999927,None,,,,,,,,,,,,,,,,,master,silent,white,125,89,180,3535.739134900039,None,3535.739134900039,None,4,4.972279399866238,3535.739134900039,None,3540.766697200015,None,3541.285438199993,None,3541.285438199993,None,f,1.3137397000100464,3541.285438199993,None,,,NC19,001,2021_Nov_03_1458,ProdSingRedo,3.2.3,60.288868078270255,
,,,,126,0,126,0,,,,,,,,,,,,,,,,,,,,,,,,3545.3914942999836,None,,,,,,,,,,,,,,,,,revolution,new_c,white,126,159,264,3543.142634100048,None,3543.142634100048,None,1,1.4564676999580115,3543.142634100048,None,3544.624951600097,None,3545.1548904001247,None,3545.1548904001247,None,n,0.2043330001179129,3545.1548904001247,None,,,NC19,001,2021_Nov_03_1458,ProdSingRedo,3.2.3,60.288868078270255,
,,,,127,0,127,0,,,,,,,,,,,,,,,,,,,,,,,,3548.424872600008,None,,,,,,,,,,,,,,,,,breath,new_b,white,127,123,27,3545.9090716000646,None,3545.9090716000646,None,1,1.8020784000400454,3545.9090716000646,None,3547.751665699994,None,3548.2726006000303,None,3548.2726006000303,None,n,0.11866990011185408,3548.2726006000303,None,,,NC19,001,2021_Nov_03_1458,ProdSingRedo,3.2.3,60.288868078270255,
,,,,128,0,128,0,,,,,,,,,,,,,,,,,,,,,,,,3552.883552999934,None,,,,,,,,,,,,,,,,,marriage,silent,white,128,70,179,3548.9505656000692,None,3548.9505656000692,None,3,2.640588999958709,3548.9505656000692,None,3551.6185751000885,None,3552.1409519000445,None,3552.1409519000445,None,n,0.7156744000967592,3552.1409519000445,None,,,NC19,001,2021_Nov_03_1458,ProdSingRedo,3.2.3,60.288868078270255,
,,,,129,0,129,0,,,,,,,,,,,,,,,,,,,,,,,,3556.559604899958,None,,,,,,,,,,,,,,,,,history,sing,white,129,29,153,3553.406873299973,None,3553.406873299973,None,2,2.432702000020072,3553.406873299973,None,3555.87239699997,None,3556.37770920014,None,3556.37770920014,None,n,0.15757100004702806,3556.37770920014,None,,,NC19,001,2021_Nov_03_1458,ProdSingRedo,3.2.3,60.288868078270255,
,,,,130,0,130,0,,,,,,,,,,,,,,,,,,,,,,,,3559.6465332000516,None,,,,,,,,,,,,,,,,,threat,new_c,white,130,150,329,3557.0841584000736,None,3557.0841584000736,None,1,1.7630505999550223,3557.0841584000736,None,3558.892838000087,None,3559.4017674999777,None,3559.4017674999777,None,n,0.2216458001639694,3559.4017674999777,None,,,NC19,001,2021_Nov_03_1458,ProdSingRedo,3.2.3,60.288868078270255,
,,,,131,0,131,0,,,,,,,,,,,,,,,,,,,,,,,,3564.24295850005,None,,,,,,,,,,,,,,,,,review,new_a,white,131,93,263,3560.172356599942,None,3560.172356599942,None,2,3.3388998999726027,3560.172356599942,None,3563.550275299931,None,3564.076142499922,None,3564.076142499922,None,n,0.13904660008847713,3564.076142499922,None,,,NC19,001,2021_Nov_03_1458,ProdSingRedo,3.2.3,60.288868078270255,
,,,,132,0,132,0,,,,,,,,,,,,,,,,,,,,,,,,3570.060079799965,None,,,,,,,,,,,,,,,,,accident,sing,white,132,12,0,3564.7618839999195,None,3564.7618839999195,None,5,2.4936204999685287,3564.7618839999195,None,3567.292738799937,None,3567.799548299983,None,3567.799548299983,None,r,2.2402385999448597,3567.799548299983,None,,,NC19,001,2021_Nov_03_1458,ProdSingRedo,3.2.3,60.288868078270255,
,,,,133,0,133,0,,,,,,,,,,,,,,,,,,,,,,,,3575.1600879000034,None,,,,,,,,,,,,,,,,,surface,sing,white,133,2,316,3570.5918145999312,None,3570.5918145999312,None,2,3.78322790004313,3570.5918145999312,None,3574.4011568001006,None,3574.9139992999844,None,3574.9139992999844,None,n,0.22127099987119436,3574.9139992999844,None,,,NC19,001,2021_Nov_03_1458,ProdSingRedo,3.2.3,60.288868078270255,
,,,,134,0,134,0,,,,,,,,,,,,,,,,,,,,,,,,3583.8720380000304,None,,,,,,,,,,,,,,,,,majority,silent,white,134,85,176,3575.695924000116,None,3575.695924000116,None,6,7.535254499875009,3575.695924000116,None,3583.2763282000087,None,3583.794296399923,None,3583.794296399923,None,r,0.045262299943715334,3583.794296399923,None,,,NC19,001,2021_Nov_03_1458,ProdSingRedo,3.2.3,60.288868078270255,
,,,,135,0,135,0,,,,,,,,,,,,,,,,,,,,,,,,3588.1523647001013,None,,,,,,,,,,,,,,,,,pancakes,sing,white,135,5,210,3584.397740199929,None,3584.397740199929,None,6,2.410274000139907,3584.397740199929,None,3586.8578890000936,None,3587.377879800042,None,3587.377879800042,None,r,0.7496126000769436,3587.377879800042,None,,,NC19,001,2021_Nov_03_1458,ProdSingRedo,3.2.3,60.288868078270255,
,,,,136,0,136,0,,,,,,,,,,,,,,,,,,,,,,,,3591.2602985999547,None,,,,,,,,,,,,,,,,,touch,aloud,white,136,31,332,3588.6683958999347,None,3588.6683958999347,None,2,1.7707884998526424,3588.6683958999347,None,3590.4739361000247,None,3590.9873522999696,None,3590.9873522999696,None,n,0.2438844998832792,3590.9873522999696,None,,,NC19,001,2021_Nov_03_1458,ProdSingRedo,3.2.3,60.288868078270255,
,,,,137,0,137,0,,,,,,,,,,,,,,,,,,,,,,,,3593.7563005001284,None,,,,,,,,,,,,,,,,,plane,silent,white,137,76,223,3591.774112300016,None,3591.774112300016,None,1,1.329242300009355,3591.774112300016,None,3593.1497369999997,None,3593.6629741000943,None,3593.6629741000943,None,n,0.05643699993379414,3593.6629741000943,None,,,NC19,001,2021_Nov_03_1458,ProdSingRedo,3.2.3,60.288868078270255,
,,,,138,0,138,0,,,,,,,,,,,,,,,,,,,,,,,,3596.8099565999582,None,,,,,,,,,,,,,,,,,taste,aloud,white,138,43,322,3594.2654160000384,None,3594.2654160000384,None,5,1.8459753000643104,3594.2654160000384,None,3596.1497992000077,None,3596.6739684001077,None,3596.6739684001077,None,f,0.11744399997405708,3596.6739684001077,None,,,NC19,001,2021_Nov_03_1458,ProdSingRedo,3.2.3,60.288868078270255,
,,,,139,0,139,0,,,,,,,,,,,,,,,,,,,,,,,,3600.938219100004,None,,,,,,,,,,,,,,,,,business,new_c,white,139,158,38,3597.329911699984,None,3597.329911699984,None,4,2.9412732999771833,3597.329911699984,None,3600.3000583001412,None,3600.8197967000306,None,3600.8197967000306,None,f,0.0917182001285255,3600.8197967000306,None,,,NC19,001,2021_Nov_03_1458,ProdSingRedo,3.2.3,60.288868078270255,
,,,,140,0,140,0,,,,,,,,,,,,,,,,,,,,,,,,3603.413099100115,None,,,,,,,,,,,,,,,,,motion,silent,white,140,86,194,3601.45797410002,None,3601.45797410002,None,1,1.2935528999660164,3601.45797410002,None,3602.8053397000767,None,3603.3122551999986,None,3603.3122551999986,None,n,0.07143420004285872,3603.3122551999986,None,,,NC19,001,2021_Nov_03_1458,ProdSingRedo,3.2.3,60.288868078270255,
,,,,141,0,141,0,,,,,,,,,,,,,,,,,,,,,,,,3606.26225670008,None,,,,,,,,,,,,,,,,,nature,sing,white,141,11,200,3603.933682499919,None,3603.933682499919,None,6,1.409466799814254,3603.933682499919,None,3605.368165699998,None,3605.878104100004,None,3605.878104100004,None,r,0.3531447001732886,3605.878104100004,None,,,NC19,001,2021_Nov_03_1458,ProdSingRedo,3.2.3,60.288868078270255,
,,,,142,0,142,0,,,,,,,,,,,,,,,,,,,,,,,,3610.061067200033,None,,,,,,,,,,,,,,,,,broad,new_a,white,142,119,31,3606.7918486001436,None,3606.7918486001436,None,1,1.6395482001826167,3606.7918486001436,None,3608.4751947000623,None,3608.9846367000137,None,3608.9846367000137,None,n,1.0466601001098752,3608.9846367000137,None,,,NC19,001,2021_Nov_03_1458,ProdSingRedo,3.2.3,60.288868078270255,
,,,,143,0,143,0,,,,,,,,,,,,,,,,,,,,,,,,3613.601742699975,None,,,,,,,,,,,,,,,,,tennis,silent,white,143,87,323,3610.5781751000322,None,3610.5781751000322,None,3,1.461066999938339,3610.5781751000322,None,3612.066979700001,None,3612.5887774000876,None,3612.5887774000876,None,f,0.9787614000961185,3612.5887774000876,None,,,NC19,001,2021_Nov_03_1458,ProdSingRedo,3.2.3,60.288868078270255,
,,,,144,0,144,0,,,,,,,,,,,,,,,,,,,,,,,,3619.405655400129,None,,,,,,,,,,,,,,,,,service,new_c,white,144,157,280,3614.1247165999375,None,3614.1247165999375,None,2,4.482483700150624,3614.1247165999375,None,3618.6515445001423,None,3619.166457799962,None,3619.166457799962,None,n,0.20921160001307726,3619.166457799962,None,,,NC19,001,2021_Nov_03_1458,ProdSingRedo,3.2.3,60.288868078270255,
,,,,145,0,145,0,,,,,,,,,,,,,,,,,,,,,,,,3624.537908300059,None,,,,,,,,,,,,,,,,,novel,sing,white,145,22,202,3619.929825600004,None,3619.929825600004,None,5,1.8298766000662,3619.929825600004,None,3621.792608299991,None,3622.299658600008,None,3622.299658600008,None,f,2.211923300055787,3622.299658600008,None,,,NC19,001,2021_Nov_03_1458,ProdSingRedo,3.2.3,60.288868078270255,
,,,,146,0,146,0,,,,,,,,,,,,,,,,,,,,,,,,3629.8632596000098,None,,,,,,,,,,,,,,,,,count,new_a,white,146,107,72,3625.062666800106,None,3625.062666800106,None,3,2.2328832000494003,3625.062666800106,None,3627.3405709001236,None,3627.8563904999755,None,3627.8563904999755,None,n,1.9748086999170482,3627.8563904999755,None,,,NC19,001,2021_Nov_03_1458,ProdSingRedo,3.2.3,60.288868078270255,
,,,,147,0,147,0,,,,,,,,,,,,,,,,,,,,,,,,3635.4688804000616,None,,,,,,,,,,,,,,,,,error,new_a,white,147,98,117,3630.379096199991,None,3630.379096199991,None,6,3.3081676000729203,3630.379096199991,None,3633.721732800128,None,3634.228630000027,None,3634.228630000027,None,r,1.2026674000080675,3634.228630000027,None,,,NC19,001,2021_Nov_03_1458,ProdSingRedo,3.2.3,60.288868078270255,
,,,,148,0,148,0,,,,,,,,,,,,,,,,,,,,,,,,3639.6881184999365,None,,,,,,,,,,,,,,,,,color,aloud,white,148,42,56,3635.993446599925,None,3635.993446599925,None,6,2.893928499892354,3635.993446599925,None,3638.9260273999535,None,3639.4313561001327,None,3639.4313561001327,None,r,0.2241008998826146,3639.4313561001327,None,,,NC19,001,2021_Nov_03_1458,ProdSingRedo,3.2.3,60.288868078270255,
,,,,149,0,149,0,,,,,,,,,,,,,,,,,,,,,,,,3642.13155749999,None,,,,,,,,,,,,,,,,,sweet,sing,white,149,9,319,3640.2187912999652,None,3640.2187912999652,None,6,1.1964912000112236,3640.2187912999652,None,3641.4575223999564,None,3641.977298300015,None,3641.977298300015,None,r,0.1342976000159979,3641.977298300015,None,,,NC19,001,2021_Nov_03_1458,ProdSingRedo,3.2.3,60.288868078270255,
,,,,150,0,150,0,,,,,,,,,,,,,,,,,,,,,,,,3646.035292699933,None,,,,,,,,,,,,,,,,,short,new_a,white,150,92,285,3642.6592435999773,None,3642.6592435999773,None,3,2.0761145998258144,3642.6592435999773,None,3644.7835926001426,None,3645.284034400014,None,3645.284034400014,None,n,0.7154397000558674,3645.284034400014,None,,,NC19,001,2021_Nov_03_1458,ProdSingRedo,3.2.3,60.288868078270255,
,,,,151,0,151,0,,,,,,,,,,,,,,,,,,,,,,,,3648.784398100106,None,,,,,,,,,,,,,,,,,number,sing,white,151,13,203,3646.5662108999677,None,3646.5662108999677,None,4,1.5454312001820654,3646.5662108999677,None,3648.1451622000895,None,3648.658497299999,None,3648.658497299999,None,f,0.10075940005481243,3648.658497299999,None,,,NC19,001,2021_Nov_03_1458,ProdSingRedo,3.2.3,60.288868078270255,
,,,,152,0,152,0,,,,,,,,,,,,,,,,,,,,,,,,3651.464778000023,None,,,,,,,,,,,,,,,,,produce,aloud,white,152,57,239,3649.300492200069,None,3649.300492200069,None,6,1.5789296999573708,3649.300492200069,None,3650.912245700136,None,3651.415522000054,None,3651.415522000054,None,r,0.023716700030490756,3651.415522000054,None,,,NC19,001,2021_Nov_03_1458,ProdSingRedo,3.2.3,60.288868078270255,
,,,,153,0,153,0,,,,,,,,,,,,,,,,,,,,,,,,3654.333017700119,None,,,,,,,,,,,,,,,,,patient,new_a,white,153,108,213,3651.9775215000845,None,3651.9775215000845,None,1,1.5979735997971147,3651.9775215000845,None,3653.6194907000754,None,3654.132854100084,None,3654.132854100084,None,n,0.1787221000995487,3654.132854100084,None,,,NC19,001,2021_Nov_03_1458,ProdSingRedo,3.2.3,60.288868078270255,
,,,,154,0,154,0,,,,,,,,,,,,,,,,,,,,,,,,3658.0489732001442,None,,,,,,,,,,,,,,,,,degree,silent,white,154,68,89,3654.8572301999666,None,3654.8572301999666,None,2,2.502121399855241,3654.8572301999666,None,3657.3907057999168,None,3657.9074188999366,None,3657.9074188999366,None,n,0.11595410015434027,3657.9074188999366,None,,,NC19,001,2021_Nov_03_1458,ProdSingRedo,3.2.3,60.288868078270255,
,,,,155,0,155,0,,,,,,,,,,,,,,,,,,,,,,,,3660.926416500006,None,,,,,,,,,,,,,,,,,reach,new_b,white,155,125,253,3658.56669040001,None,3658.56669040001,None,1,1.5606914998497814,3658.56669040001,None,3660.173121500062,None,3660.691952600144,None,3660.691952600144,None,n,0.2043180000036955,3660.691952600144,None,,,NC19,001,2021_Nov_03_1458,ProdSingRedo,3.2.3,60.288868078270255,
,,,,156,0,156,0,,,,,,,,,,,,,,,,,,,,,,,,3674.0013069999404,None,,,,,,,,,,,,,,,,,equipment,silent,white,156,83,116,3661.4565906999633,None,3661.4565906999633,None,4,11.84668349986896,3661.4565906999633,None,3673.3435385001358,None,3673.861973100109,None,3673.861973100109,None,f,0.1134657000657171,3673.861973100109,None,,,NC19,001,2021_Nov_03_1458,ProdSingRedo,3.2.3,60.288868078270255,
,,,,157,0,157,0,,,,,,,,,,,,,,,,,,,,,,,,3677.8413224001415,None,,,,,,,,,,,,,,,,,trash,silent,white,157,84,337,3674.5248606000096,None,3674.5248606000096,None,5,2.3704610001295805,3674.5248606000096,None,3676.9287507000845,None,3677.4377765001263,None,3677.4377765001263,None,f,0.37784680002368987,3677.4377765001263,None,,,NC19,001,2021_Nov_03_1458,ProdSingRedo,3.2.3,60.288868078270255,
,,,,158,0,158,0,,,,,,,,,,,,,,,,,,,,,,,,3680.8682025000453,None,,,,,,,,,,,,,,,,,department,sing,white,158,6,90,3678.350585100008,None,3678.350585100008,None,2,1.6090126999188215,3678.350585100008,None,3680.009984200122,None,3680.533182099927,None,3680.533182099927,None,n,0.31426479993388057,3680.533182099927,None,,,NC19,001,2021_Nov_03_1458,ProdSingRedo,3.2.3,60.288868078270255,
,,,,159,0,159,0,,,,,,,,,,,,,,,,,,,,,,,,3685.235336099984,None,,,,,,,,,,,,,,,,,employment,aloud,white,159,47,111,3681.4046360999346,None,3681.4046360999346,None,5,3.1625486998818815,3681.4046360999346,None,3684.5843430000823,None,3685.1058752001263,None,3685.1058752001263,None,f,0.10978180007077754,3685.1058752001263,None,,,NC19,001,2021_Nov_03_1458,ProdSingRedo,3.2.3,60.288868078270255,
,,,,160,0,160,0,,,,,,,,,,,,,,,,,,,,,,,,3694.8833151001018,None,,,,,,,,,,,,,,,,,problem,sing,white,160,0,238,3685.7580180000514,None,3685.7580180000514,None,6,5.54517039982602,3685.7580180000514,None,3691.33516090014,None,3691.8587702999357,None,3691.8587702999357,None,r,3.0046906999778003,3691.8587702999357,None,,,NC19,001,2021_Nov_03_1458,ProdSingRedo,3.2.3,60.288868078270255,
,,,,161,0,161,0,,,,,,,,,,,,,,,,,,,,,,,,3702.3150154999457,None,,,,,,,,,,,,,,,,,court,aloud,white,161,55,75,3695.400053099962,None,3695.400053099962,None,1,5.959486100124195,3695.400053099962,None,3701.400521500036,None,3701.9045780999586,None,3701.9045780999586,None,n,0.3670002999715507,3701.9045780999586,None,,,NC19,001,2021_Nov_03_1458,ProdSingRedo,3.2.3,60.288868078270255,
,,,,162,0,162,0,,,,,,,,,,,,,,,,,,,,,,,,3704.7183247001376,None,,,,,,,,,,,,,,,,,oxygen,new_a,white,162,102,209,3702.8339369001333,None,3702.8339369001333,None,1,1.2775850999169052,3702.8339369001333,None,3704.1638547000475,None,3704.6820243000984,None,3704.6820243000984,None,n,0.013238799991086125,3704.6820243000984,None,,,NC19,001,2021_Nov_03_1458,ProdSingRedo,3.2.3,60.288868078270255,
,,,,163,0,163,0,,,,,,,,,,,,,,,,,,,,,,,,3708.250615699915,None,,,,,,,,,,,,,,,,,reading,new_b,white,163,140,254,3705.233940999955,None,3705.233940999955,None,3,2.2136214000638574,3705.233940999955,None,3707.4873279000167,None,3708.017670399975,None,3708.017670399975,None,n,0.19892099988646805,3708.017670399975,None,,,NC19,001,2021_Nov_03_1458,ProdSingRedo,3.2.3,60.288868078270255,
,,,,164,0,164,0,,,,,,,,,,,,,,,,,,,,,,,,3711.918388500111,None,,,,,,,,,,,,,,,,,birth,sing,white,164,7,22,3708.7621878001373,None,3708.7621878001373,None,2,2.565239500021562,3708.7621878001373,None,3711.361133000115,None,3711.8823031000793,None,3711.8823031000793,None,n,0.012969499919563532,3711.8823031000793,None,,,NC19,001,2021_Nov_03_1458,ProdSingRedo,3.2.3,60.288868078270255,
,,,,165,0,165,0,,,,,,,,,,,,,,,,,,,,,,,,3714.5270941001363,None,,,,,,,,,,,,,,,,,orchestra,new_b,white,165,127,206,3712.43496340001,None,3712.43496340001,None,1,1.3403780998196453,3712.43496340001,None,3713.810213699937,None,3714.3291027001105,None,3714.3291027001105,None,n,0.17437090002931654,3714.3291027001105,None,,,NC19,001,2021_Nov_03_1458,ProdSingRedo,3.2.3,60.288868078270255,
,,,,166,0,166,0,,,,,,,,,,,,,,,,,,,,,,,,3717.603731099982,None,,,,,,,,,,,,,,,,,match,new_b,white,166,124,181,3715.055735999951,None,3715.055735999951,None,5,1.87169470009394,3715.055735999951,None,3716.9713952001184,None,3717.4757588000502,None,3717.4757588000502,None,f,0.09959320002235472,3717.4757588000502,None,,,NC19,001,2021_Nov_03_1458,ProdSingRedo,3.2.3,60.288868078270255,
,,,,167,0,167,0,,,,,,,,,,,,,,,,,,,,,,,,3721.4712583001237,None,,,,,,,,,,,,,,,,,safety,aloud,white,167,34,270,3718.1334019999485,None,3718.1334019999485,None,6,1.7541925001423806,3718.1334019999485,None,3719.928608200047,None,3720.4447184000164,None,3720.4447184000164,None,f,1.0026160997804254,3720.4447184000164,None,,,NC19,001,2021_Nov_03_1458,ProdSingRedo,3.2.3,60.288868078270255,
,,,,168,0,168,0,,,,,,,,,,,,,,,,,,,,,,,,3727.7208734001033,None,,,,,,,,,,,,,,,,,primary,new_b,white,168,146,234,3722.003245400032,None,3722.003245400032,None,4,3.844317600131035,3722.003245400032,None,3725.8975840001367,None,3726.425940700108,None,3726.425940700108,None,f,1.2614633000921458,3726.425940700108,None,,,NC19,001,2021_Nov_03_1458,ProdSingRedo,3.2.3,60.288868078270255,
,,,,169,0,169,0,,,,,,,,,,,,,,,,,,,,,,,,3730.909082399914,None,,,,,,,,,,,,,,,,,junior,new_c,white,169,162,167,3728.2576280001085,None,3728.2576280001085,None,1,1.326920700026676,3728.2576280001085,None,3729.6276926000137,None,3730.1395264000166,None,3730.1395264000166,None,n,0.7478833000641316,3730.1395264000166,None,,,NC19,001,2021_Nov_03_1458,ProdSingRedo,3.2.3,60.288868078270255,
,,,,170,0,170,0,,,,,,,,,,,,,,,,,,,,,,,,3733.990603199927,None,,,,,,,,,,,,,,,,,right,new_b,white,170,133,265,3731.436506600119,None,3731.436506600119,None,1,1.6267751001287252,3731.436506600119,None,3733.097623199923,None,3733.6140888000373,None,3733.6140888000373,None,n,0.3535867999307811,3733.6140888000373,None,,,NC19,001,2021_Nov_03_1458,ProdSingRedo,3.2.3,60.288868078270255,
,,,,171,0,171,0,,,,,,,,,,,,,,,,,,,,,,,,3738.372486199951,None,,,,,,,,,,,,,,,,,commercial,new_b,white,171,126,61,3734.5146131000947,None,3734.5146131000947,None,2,2.8530597002245486,3734.5146131000947,None,3737.407831700053,None,3737.917527700076,None,3737.917527700076,None,n,0.425695100100711,3737.917527700076,None,,,NC19,001,2021_Nov_03_1458,ProdSingRedo,3.2.3,60.288868078270255,
,,,,172,0,172,0,,,,,,,,,,,,,,,,,,,,,,,,3740.9536880999804,None,,,,,,,,,,,,,,,,,answer,new_c,white,172,171,8,3738.904878200032,None,3738.904878200032,None,4,1.3267343000043184,3738.904878200032,None,3740.2654927999247,None,3740.786949099973,None,3740.786949099973,None,f,0.14036209997721016,3740.786949099973,None,,,NC19,001,2021_Nov_03_1458,ProdSingRedo,3.2.3,60.288868078270255,
,,,,173,0,173,0,,,,,,,,,,,,,,,,,,,,,,,,3746.079465500079,None,,,,,,,,,,,,,,,,,disease,new_a,white,173,104,97,3741.4745772001334,None,3741.4745772001334,None,1,3.2131856998894364,3741.4745772001334,None,3744.7217300001066,None,3745.2351522999816,None,3745.2351522999816,None,n,0.8044068000745028,3745.2351522999816,None,,,NC19,001,2021_Nov_03_1458,ProdSingRedo,3.2.3,60.288868078270255,
,,,,174,0,174,0,,,,,,,,,,,,,,,,,,,,,,,,3753.9264489000197,None,,,,,,,,,,,,,,,,,thick,new_c,white,174,167,327,3746.6011047000065,None,3746.6011047000065,None,1,5.8064764000009745,3746.6011047000065,None,3752.4518760000356,None,3752.9585045001004,None,3752.9585045001004,None,n,0.9450554000213742,3752.9585045001004,None,,,NC19,001,2021_Nov_03_1458,ProdSingRedo,3.2.3,60.288868078270255,
,,,,175,0,175,0,,,,,,,,,,,,,,,,,,,,,,,,3758.1785003000405,None,,,,,,,,,,,,,,,,,mankind,new_a,white,175,110,178,3754.444014500128,None,3754.444014500128,None,1,1.5556964999996126,3754.444014500128,None,3756.042374300072,None,3756.5523065000307,None,3756.5523065000307,None,n,1.5997611000202596,3756.5523065000307,None,,,NC19,001,2021_Nov_03_1458,ProdSingRedo,3.2.3,60.288868078270255,
,,,,176,0,176,0,,,,,,,,,,,,,,,,,,,,,,,,3762.0564636001363,None,,,,,,,,,,,,,,,,,track,new_a,white,176,103,334,3758.70667720004,None,3758.70667720004,None,1,2.1566105999518186,3758.70667720004,None,3760.90283320006,None,3761.4143715000246,None,3761.4143715000246,None,n,0.6089383000507951,3761.4143715000246,None,,,NC19,001,2021_Nov_03_1458,ProdSingRedo,3.2.3,60.288868078270255,
,,,,177,0,177,0,,,,,,,,,,,,,,,,,,,,,,,,3764.5231761999894,None,,,,,,,,,,,,,,,,,under,sing,white,177,10,343,3762.5904739000835,None,3762.5904739000835,None,4,1.17697160015814,3762.5904739000835,None,3763.8085539999884,None,3764.3338633000385,None,3764.3338633000385,None,f,0.1615951000712812,3764.3338633000385,None,,,NC19,001,2021_Nov_03_1458,ProdSingRedo,3.2.3,60.288868078270255,
,,,,178,0,178,0,,,,,,,,,,,,,,,,,,,,,,,,3767.5381978000514,None,,,,,,,,,,,,,,,,,science,new_c,white,178,164,275,3765.0521476001013,None,3765.0521476001013,None,5,1.8994646999053657,3765.0521476001013,None,3766.980600300012,None,3767.4974871999584,None,3767.4974871999584,None,f,0.021766799967736006,3767.4974871999584,None,,,NC19,001,2021_Nov_03_1458,ProdSingRedo,3.2.3,60.288868078270255,
,,,,179,0,179,0,,,,,,,,,,,,,,,,,,,,,,,,3770.7622791000176,None,,,,,,,,,,,,,,,,,health,sing,white,179,28,149,3768.052968499949,None,3768.052968499949,None,6,1.6264984998852015,3768.052968499949,None,3769.7244838001207,None,3770.23709030007,None,3770.23709030007,None,r,0.4903867000248283,3770.23709030007,None,,,NC19,001,2021_Nov_03_1458,ProdSingRedo,3.2.3,60.288868078270255,
,,,,,,,,,,,,,,,,,,,,,,,,,,,,,,,,,,,,,,,,,,,,,,,,,,,,,,,,,,,,,,,,,,,,,,,,,3771.275637099985,None,,,,,,,
