StudyLoop.thisRepN,StudyLoop.thisTrialN,StudyLoop.thisN,StudyLoop.thisIndex,TestLoop.thisRepN,TestLoop.thisTrialN,TestLoop.thisN,TestLoop.thisIndex,textCondition.started,textCondition.stopped,keyCondition.keys,keyCondition.rt,keyCondition.started,keyCondition.stopped,Condition,stim_colors,color_sing,color_aloud,color_silent,textWelcome.started,textWelcome.stopped,keyWelcome.keys,keyWelcome.rt,keyWelcome.started,keyWelcome.stopped,textAloud.started,textAloud.stopped,textSilent.started,textSilent.stopped,textSing.started,textSing.stopped,textBlank500.started,textBlank500.stopped,study_word,study_type,study_color,study_num,study_word_num,textStudy.started,textStudy.stopped,keyStudy.keys,keyStudy.started,keyStudy.stopped,textTestInstructions.started,textTestInstructions.stopped,key_resp_3.keys,key_resp_3.rt,key_resp_3.started,key_resp_3.stopped,testWord,testType,testColor,testN,test_num,test_word_num,textConf.started,textConf.stopped,textConfScale.started,textConfScale.stopped,keyConf.keys,keyConf.rt,keyConf.started,keyConf.stopped,textTestBlank.started,textTestBlank.stopped,textRKN.started,textRKN.stopped,textRKNScale.started,textRKNScale.stopped,keyRKN.keys,keyRKN.rt,keyRKN.started,keyRKN.stopped,textEnd.started,textEnd.stopped,participant,session,date,expName,psychopyVersion,frameRate,
,,,,,,,,13.014520199998515,None,n,5.159766500000842,13.014520199998515,None,,,,,,,,,,,,,,,,,,,,,,,,,,,,,,,,,,,,,,,,,,,,,,,,,,,,,,,,,,,,,,sing9,001,2019_Dec_02_0858,ProdSingRedo,3.2.3,59.92498590349895,
,,,,,,,,,,,,,,NeutralTest,"['blue', 'red', 'yellow']",blue,red,yellow,18.259694800013676,None,space,266.8983901999891,18.259694800013676,None,,,,,,,,,,,,,,,,,,,,,,,,,,,,,,,,,,,,,,,,,,,,,,,,,,,sing9,001,2019_Dec_02_0858,ProdSingRedo,3.2.3,59.92498590349895,
0,0,0,0,,,,,,,,,,,,,,,,,,,,,,18.259694800013676,None,18.259694800013676,None,18.259694800013676,None,287.7085733000131,None,character,aloud,red,58,46,285.70493619999615,None,None,285.70493619999615,None,,,,,,,,,,,,,,,,,,,,,,,,,,,,,,,,,sing9,001,2019_Dec_02_0858,ProdSingRedo,3.2.3,59.92498590349895,
1,0,1,0,,,,,,,,,,,,,,,,,,,,,,,,,,,,290.2278714000131,None,bright,sing,blue,22,29,288.2321085000003,None,None,288.2321085000003,None,,,,,,,,,,,,,,,,,,,,,,,,,,,,,,,,,sing9,001,2019_Dec_02_0858,ProdSingRedo,3.2.3,59.92498590349895,
2,0,2,0,,,,,,,,,,,,,,,,,,,,,,,,,,,,292.7470400999882,None,mechanical,silent,yellow,68,185,290.74747679999564,None,None,290.74747679999564,None,,,,,,,,,,,,,,,,,,,,,,,,,,,,,,,,,sing9,001,2019_Dec_02_0858,ProdSingRedo,3.2.3,59.92498590349895,
3,0,3,0,,,,,,,,,,,,,,,,,,,,,,,,,,,,295.2662624999939,None,pattern,aloud,red,49,214,293.2660007000086,None,None,293.2660007000086,None,,,,,,,,,,,,,,,,,,,,,,,,,,,,,,,,,sing9,001,2019_Dec_02_0858,ProdSingRedo,3.2.3,59.92498590349895,
4,0,4,0,,,,,,,,,,,,,,,,,,,,,,,,,,,,297.78528859998914,None,minute,sing,blue,16,192,295.7833718000038,None,None,295.7833718000038,None,,,,,,,,,,,,,,,,,,,,,,,,,,,,,,,,,sing9,001,2019_Dec_02_0858,ProdSingRedo,3.2.3,59.92498590349895,
5,0,5,0,,,,,,,,,,,,,,,,,,,,,,,,,,,,300.30463170001167,None,worker,sing,blue,14,356,298.3089278000116,None,None,298.3089278000116,None,,,,,,,,,,,,,,,,,,,,,,,,,,,,,,,,,sing9,001,2019_Dec_02_0858,ProdSingRedo,3.2.3,59.92498590349895,
6,0,6,0,,,,,,,,,,,,,,,,,,,,,,,,,,,,302.82370609999634,None,religion,silent,yellow,81,258,300.8220115000149,None,None,300.8220115000149,None,,,,,,,,,,,,,,,,,,,,,,,,,,,,,,,,,sing9,001,2019_Dec_02_0858,ProdSingRedo,3.2.3,59.92498590349895,
7,0,7,0,,,,,,,,,,,,,,,,,,,,,,,,,,,,305.3428903000022,None,hearing,sing,blue,6,150,303.34311180000077,None,None,303.34311180000077,None,,,,,,,,,,,,,,,,,,,,,,,,,,,,,,,,,sing9,001,2019_Dec_02_0858,ProdSingRedo,3.2.3,59.92498590349895,
8,0,8,0,,,,,,,,,,,,,,,,,,,,,,,,,,,,307.86217659999966,None,design,sing,blue,25,91,305.8598969000159,None,None,305.8598969000159,None,,,,,,,,,,,,,,,,,,,,,,,,,,,,,,,,,sing9,001,2019_Dec_02_0858,ProdSingRedo,3.2.3,59.92498590349895,
9,0,9,0,,,,,,,,,,,,,,,,,,,,,,,,,,,,310.38125330000184,None,detective,silent,yellow,64,92,308.3873658000084,None,None,308.3873658000084,None,,,,,,,,,,,,,,,,,,,,,,,,,,,,,,,,,sing9,001,2019_Dec_02_0858,ProdSingRedo,3.2.3,59.92498590349895,
10,0,10,0,,,,,,,,,,,,,,,,,,,,,,,,,,,,312.90043790001073,None,mayor,aloud,red,35,183,310.9071597000002,None,None,310.9071597000002,None,,,,,,,,,,,,,,,,,,,,,,,,,,,,,,,,,sing9,001,2019_Dec_02_0858,ProdSingRedo,3.2.3,59.92498590349895,
11,0,11,0,,,,,,,,,,,,,,,,,,,,,,,,,,,,315.4196865000122,None,signal,aloud,red,32,287,313.42452170001343,None,None,313.42452170001343,None,,,,,,,,,,,,,,,,,,,,,,,,,,,,,,,,,sing9,001,2019_Dec_02_0858,ProdSingRedo,3.2.3,59.92498590349895,
12,0,12,0,,,,,,,,,,,,,,,,,,,,,,,,,,,,317.9387784000137,None,candidate,aloud,red,31,39,315.94290260001435,None,None,315.94290260001435,None,,,,,,,,,,,,,,,,,,,,,,,,,,,,,,,,,sing9,001,2019_Dec_02_0858,ProdSingRedo,3.2.3,59.92498590349895,
13,0,13,0,,,,,,,,,,,,,,,,,,,,,,,,,,,,320.4579939999967,None,present,silent,yellow,82,231,318.45114509999985,None,None,318.45114509999985,None,,,,,,,,,,,,,,,,,,,,,,,,,,,,,,,,,sing9,001,2019_Dec_02_0858,ProdSingRedo,3.2.3,59.92498590349895,
14,0,14,0,,,,,,,,,,,,,,,,,,,,,,,,,,,,322.97727569998824,None,error,silent,yellow,77,117,320.972374200006,None,None,320.972374200006,None,,,,,,,,,,,,,,,,,,,,,,,,,,,,,,,,,sing9,001,2019_Dec_02_0858,ProdSingRedo,3.2.3,59.92498590349895,
15,0,15,0,,,,,,,,,,,,,,,,,,,,,,,,,,,,325.4962658000004,None,addition,sing,blue,13,2,323.49732230001246,None,None,323.49732230001246,None,,,,,,,,,,,,,,,,,,,,,,,,,,,,,,,,,sing9,001,2019_Dec_02_0858,ProdSingRedo,3.2.3,59.92498590349895,
16,0,16,0,,,,,,,,,,,,,,,,,,,,,,,,,,,,328.01563519999036,None,crisis,silent,yellow,66,79,326.0128071999934,None,None,326.0128071999934,None,,,,,,,,,,,,,,,,,,,,,,,,,,,,,,,,,sing9,001,2019_Dec_02_0858,ProdSingRedo,3.2.3,59.92498590349895,
17,0,17,0,,,,,,,,,,,,,,,,,,,,,,,,,,,,330.53479700000025,None,symbol,aloud,red,30,321,328.53650740001467,None,None,328.53650740001467,None,,,,,,,,,,,,,,,,,,,,,,,,,,,,,,,,,sing9,001,2019_Dec_02_0858,ProdSingRedo,3.2.3,59.92498590349895,
18,0,18,0,,,,,,,,,,,,,,,,,,,,,,,,,,,,333.0538843999966,None,phrase,silent,yellow,74,220,331.05483040001127,None,None,331.05483040001127,None,,,,,,,,,,,,,,,,,,,,,,,,,,,,,,,,,sing9,001,2019_Dec_02_0858,ProdSingRedo,3.2.3,59.92498590349895,
19,0,19,0,,,,,,,,,,,,,,,,,,,,,,,,,,,,335.5730665999872,None,attack,aloud,red,46,13,333.5716586000053,None,None,333.5716586000053,None,,,,,,,,,,,,,,,,,,,,,,,,,,,,,,,,,sing9,001,2019_Dec_02_0858,ProdSingRedo,3.2.3,59.92498590349895,
20,0,20,0,,,,,,,,,,,,,,,,,,,,,,,,,,,,338.09224749999703,None,reach,silent,yellow,62,253,336.0902410999988,None,None,336.0902410999988,None,,,,,,,,,,,,,,,,,,,,,,,,,,,,,,,,,sing9,001,2019_Dec_02_0858,ProdSingRedo,3.2.3,59.92498590349895,
21,0,21,0,,,,,,,,,,,,,,,,,,,,,,,,,,,,340.6115559999889,None,running,sing,blue,11,268,338.6042129000125,None,None,338.6042129000125,None,,,,,,,,,,,,,,,,,,,,,,,,,,,,,,,,,sing9,001,2019_Dec_02_0858,ProdSingRedo,3.2.3,59.92498590349895,
22,0,22,0,,,,,,,,,,,,,,,,,,,,,,,,,,,,343.1307175999973,None,rural,aloud,red,34,269,341.133762500016,None,None,341.133762500016,None,,,,,,,,,,,,,,,,,,,,,,,,,,,,,,,,,sing9,001,2019_Dec_02_0858,ProdSingRedo,3.2.3,59.92498590349895,
23,0,23,0,,,,,,,,,,,,,,,,,,,,,,,,,,,,345.64979749999475,None,congress,sing,blue,17,67,343.64764260000084,None,None,343.64764260000084,None,,,,,,,,,,,,,,,,,,,,,,,,,,,,,,,,,sing9,001,2019_Dec_02_0858,ProdSingRedo,3.2.3,59.92498590349895,
24,0,24,0,,,,,,,,,,,,,,,,,,,,,,,,,,,,348.16893730001175,None,damage,silent,yellow,63,83,346.1695265999879,None,None,346.1695265999879,None,,,,,,,,,,,,,,,,,,,,,,,,,,,,,,,,,sing9,001,2019_Dec_02_0858,ProdSingRedo,3.2.3,59.92498590349895,
25,0,25,0,,,,,,,,,,,,,,,,,,,,,,,,,,,,350.68814750001184,None,harmony,silent,yellow,83,148,348.6844915999973,None,None,348.6844915999973,None,,,,,,,,,,,,,,,,,,,,,,,,,,,,,,,,,sing9,001,2019_Dec_02_0858,ProdSingRedo,3.2.3,59.92498590349895,
26,0,26,0,,,,,,,,,,,,,,,,,,,,,,,,,,,,353.20733750000363,None,comfort,silent,yellow,72,59,351.2037033000088,None,None,351.2037033000088,None,,,,,,,,,,,,,,,,,,,,,,,,,,,,,,,,,sing9,001,2019_Dec_02_0858,ProdSingRedo,3.2.3,59.92498590349895,
27,0,27,0,,,,,,,,,,,,,,,,,,,,,,,,,,,,355.72650729998713,None,search,sing,blue,9,276,353.72034540001187,None,None,353.72034540001187,None,,,,,,,,,,,,,,,,,,,,,,,,,,,,,,,,,sing9,001,2019_Dec_02_0858,ProdSingRedo,3.2.3,59.92498590349895,
28,0,28,0,,,,,,,,,,,,,,,,,,,,,,,,,,,,358.2458087000123,None,turkey,aloud,red,33,342,356.24465050001163,None,None,356.24465050001163,None,,,,,,,,,,,,,,,,,,,,,,,,,,,,,,,,,sing9,001,2019_Dec_02_0858,ProdSingRedo,3.2.3,59.92498590349895,
29,0,29,0,,,,,,,,,,,,,,,,,,,,,,,,,,,,360.7649775999889,None,impact,sing,blue,15,157,358.76102179999,None,None,358.76102179999,None,,,,,,,,,,,,,,,,,,,,,,,,,,,,,,,,,sing9,001,2019_Dec_02_0858,ProdSingRedo,3.2.3,59.92498590349895,
30,0,30,0,,,,,,,,,,,,,,,,,,,,,,,,,,,,363.28415180000593,None,permit,aloud,red,42,218,361.27558039998985,None,None,361.27558039998985,None,,,,,,,,,,,,,,,,,,,,,,,,,,,,,,,,,sing9,001,2019_Dec_02_0858,ProdSingRedo,3.2.3,59.92498590349895,
31,0,31,0,,,,,,,,,,,,,,,,,,,,,,,,,,,,365.80317279999144,None,solution,sing,blue,2,294,363.8003674999927,None,None,363.8003674999927,None,,,,,,,,,,,,,,,,,,,,,,,,,,,,,,,,,sing9,001,2019_Dec_02_0858,ProdSingRedo,3.2.3,59.92498590349895,
32,0,32,0,,,,,,,,,,,,,,,,,,,,,,,,,,,,368.3221920999931,None,waste,silent,yellow,69,350,366.31750259999535,None,None,366.31750259999535,None,,,,,,,,,,,,,,,,,,,,,,,,,,,,,,,,,sing9,001,2019_Dec_02_0858,ProdSingRedo,3.2.3,59.92498590349895,
33,0,33,0,,,,,,,,,,,,,,,,,,,,,,,,,,,,370.8417077999911,None,hunger,sing,blue,23,155,368.84474490000866,None,None,368.84474490000866,None,,,,,,,,,,,,,,,,,,,,,,,,,,,,,,,,,sing9,001,2019_Dec_02_0858,ProdSingRedo,3.2.3,59.92498590349895,
34,0,34,0,,,,,,,,,,,,,,,,,,,,,,,,,,,,373.3607933000021,None,profession,sing,blue,0,241,371.36012880000635,None,None,371.36012880000635,None,,,,,,,,,,,,,,,,,,,,,,,,,,,,,,,,,sing9,001,2019_Dec_02_0858,ProdSingRedo,3.2.3,59.92498590349895,
35,0,35,0,,,,,,,,,,,,,,,,,,,,,,,,,,,,375.87996819999535,None,appeal,aloud,red,41,9,373.8775891000114,None,None,373.8775891000114,None,,,,,,,,,,,,,,,,,,,,,,,,,,,,,,,,,sing9,001,2019_Dec_02_0858,ProdSingRedo,3.2.3,59.92498590349895,
36,0,36,0,,,,,,,,,,,,,,,,,,,,,,,,,,,,378.3991381000087,None,private,silent,yellow,73,237,376.40203550001024,None,None,376.40203550001024,None,,,,,,,,,,,,,,,,,,,,,,,,,,,,,,,,,sing9,001,2019_Dec_02_0858,ProdSingRedo,3.2.3,59.92498590349895,
37,0,37,0,,,,,,,,,,,,,,,,,,,,,,,,,,,,380.9183186000155,None,rough,aloud,red,40,266,378.91616890000296,None,None,378.91616890000296,None,,,,,,,,,,,,,,,,,,,,,,,,,,,,,,,,,sing9,001,2019_Dec_02_0858,ProdSingRedo,3.2.3,59.92498590349895,
38,0,38,0,,,,,,,,,,,,,,,,,,,,,,,,,,,,383.4374982000154,None,skill,sing,blue,28,289,381.43465360000846,None,None,381.43465360000846,None,,,,,,,,,,,,,,,,,,,,,,,,,,,,,,,,,sing9,001,2019_Dec_02_0858,ProdSingRedo,3.2.3,59.92498590349895,
39,0,39,0,,,,,,,,,,,,,,,,,,,,,,,,,,,,385.9566827999952,None,range,sing,blue,20,251,383.95543500001077,None,None,383.95543500001077,None,,,,,,,,,,,,,,,,,,,,,,,,,,,,,,,,,sing9,001,2019_Dec_02_0858,ProdSingRedo,3.2.3,59.92498590349895,
40,0,40,0,,,,,,,,,,,,,,,,,,,,,,,,,,,,388.47587669998757,None,spoke,sing,blue,18,300,386.4732798000041,None,None,386.4732798000041,None,,,,,,,,,,,,,,,,,,,,,,,,,,,,,,,,,sing9,001,2019_Dec_02_0858,ProdSingRedo,3.2.3,59.92498590349895,
41,0,41,0,,,,,,,,,,,,,,,,,,,,,,,,,,,,390.99504290000186,None,background,aloud,red,50,16,388.9976905999938,None,None,388.9976905999938,None,,,,,,,,,,,,,,,,,,,,,,,,,,,,,,,,,sing9,001,2019_Dec_02_0858,ProdSingRedo,3.2.3,59.92498590349895,
42,0,42,0,,,,,,,,,,,,,,,,,,,,,,,,,,,,393.5142266000039,None,style,silent,yellow,61,311,391.5115011000016,None,None,391.5115011000016,None,,,,,,,,,,,,,,,,,,,,,,,,,,,,,,,,,sing9,001,2019_Dec_02_0858,ProdSingRedo,3.2.3,59.92498590349895,
43,0,43,0,,,,,,,,,,,,,,,,,,,,,,,,,,,,396.03341329999967,None,union,silent,yellow,76,344,394.03181029998814,None,None,394.03181029998814,None,,,,,,,,,,,,,,,,,,,,,,,,,,,,,,,,,sing9,001,2019_Dec_02_0858,ProdSingRedo,3.2.3,59.92498590349895,
44,0,44,0,,,,,,,,,,,,,,,,,,,,,,,,,,,,398.55269519999274,None,company,sing,blue,26,64,396.5538882999972,None,None,396.5538882999972,None,,,,,,,,,,,,,,,,,,,,,,,,,,,,,,,,,sing9,001,2019_Dec_02_0858,ProdSingRedo,3.2.3,59.92498590349895,
45,0,45,0,,,,,,,,,,,,,,,,,,,,,,,,,,,,401.0717701000103,None,husband,sing,blue,7,156,399.073378400004,None,None,399.073378400004,None,,,,,,,,,,,,,,,,,,,,,,,,,,,,,,,,,sing9,001,2019_Dec_02_0858,ProdSingRedo,3.2.3,59.92498590349895,
46,0,46,0,,,,,,,,,,,,,,,,,,,,,,,,,,,,403.5909524000017,None,primary,aloud,red,54,234,401.59184539999114,None,None,401.59184539999114,None,,,,,,,,,,,,,,,,,,,,,,,,,,,,,,,,,sing9,001,2019_Dec_02_0858,ProdSingRedo,3.2.3,59.92498590349895,
47,0,47,0,,,,,,,,,,,,,,,,,,,,,,,,,,,,406.1102228999953,None,number,silent,yellow,87,203,404.1092329999956,None,None,404.1092329999956,None,,,,,,,,,,,,,,,,,,,,,,,,,,,,,,,,,sing9,001,2019_Dec_02_0858,ProdSingRedo,3.2.3,59.92498590349895,
48,0,48,0,,,,,,,,,,,,,,,,,,,,,,,,,,,,408.62938349999604,None,death,silent,yellow,60,86,406.62969060000614,None,None,406.62969060000614,None,,,,,,,,,,,,,,,,,,,,,,,,,,,,,,,,,sing9,001,2019_Dec_02_0858,ProdSingRedo,3.2.3,59.92498590349895,
49,0,49,0,,,,,,,,,,,,,,,,,,,,,,,,,,,,411.14846090000356,None,watch,aloud,red,55,351,409.14371020000544,None,None,409.14371020000544,None,,,,,,,,,,,,,,,,,,,,,,,,,,,,,,,,,sing9,001,2019_Dec_02_0858,ProdSingRedo,3.2.3,59.92498590349895,
50,0,50,0,,,,,,,,,,,,,,,,,,,,,,,,,,,,413.6676727000158,None,height,aloud,red,48,152,411.66439250000985,None,None,411.66439250000985,None,,,,,,,,,,,,,,,,,,,,,,,,,,,,,,,,,sing9,001,2019_Dec_02_0858,ProdSingRedo,3.2.3,59.92498590349895,
51,0,51,0,,,,,,,,,,,,,,,,,,,,,,,,,,,,416.1868548000057,None,debate,silent,yellow,86,87,414.1849133000069,None,None,414.1849133000069,None,,,,,,,,,,,,,,,,,,,,,,,,,,,,,,,,,sing9,001,2019_Dec_02_0858,ProdSingRedo,3.2.3,59.92498590349895,
52,0,52,0,,,,,,,,,,,,,,,,,,,,,,,,,,,,418.7060358999879,None,safety,sing,blue,4,270,416.7034401000128,None,None,416.7034401000128,None,,,,,,,,,,,,,,,,,,,,,,,,,,,,,,,,,sing9,001,2019_Dec_02_0858,ProdSingRedo,3.2.3,59.92498590349895,
53,0,53,0,,,,,,,,,,,,,,,,,,,,,,,,,,,,421.22519860000466,None,personnel,silent,yellow,85,219,419.2195284999907,None,None,419.2195284999907,None,,,,,,,,,,,,,,,,,,,,,,,,,,,,,,,,,sing9,001,2019_Dec_02_0858,ProdSingRedo,3.2.3,59.92498590349895,
54,0,54,0,,,,,,,,,,,,,,,,,,,,,,,,,,,,423.7447283999936,None,touch,silent,yellow,88,332,421.7414943999902,None,None,421.7414943999902,None,,,,,,,,,,,,,,,,,,,,,,,,,,,,,,,,,sing9,001,2019_Dec_02_0858,ProdSingRedo,3.2.3,59.92498590349895,
55,0,55,0,,,,,,,,,,,,,,,,,,,,,,,,,,,,426.263577900012,None,emergency,sing,blue,24,110,424.26743780000834,None,None,424.26743780000834,None,,,,,,,,,,,,,,,,,,,,,,,,,,,,,,,,,sing9,001,2019_Dec_02_0858,ProdSingRedo,3.2.3,59.92498590349895,
56,0,56,0,,,,,,,,,,,,,,,,,,,,,,,,,,,,428.78289150001365,None,answer,sing,blue,27,8,426.7868191000016,None,None,426.7868191000016,None,,,,,,,,,,,,,,,,,,,,,,,,,,,,,,,,,sing9,001,2019_Dec_02_0858,ProdSingRedo,3.2.3,59.92498590349895,
57,0,57,0,,,,,,,,,,,,,,,,,,,,,,,,,,,,431.30198210000526,None,month,sing,blue,1,193,429.2921151999908,None,None,429.2921151999908,None,,,,,,,,,,,,,,,,,,,,,,,,,,,,,,,,,sing9,001,2019_Dec_02_0858,ProdSingRedo,3.2.3,59.92498590349895,
58,0,58,0,,,,,,,,,,,,,,,,,,,,,,,,,,,,433.8211250999884,None,platform,silent,yellow,89,224,431.8229003000015,None,None,431.8229003000015,None,,,,,,,,,,,,,,,,,,,,,,,,,,,,,,,,,sing9,001,2019_Dec_02_0858,ProdSingRedo,3.2.3,59.92498590349895,
59,0,59,0,,,,,,,,,,,,,,,,,,,,,,,,,,,,436.3403037000098,None,orchestra,aloud,red,57,206,434.334775299998,None,None,434.334775299998,None,,,,,,,,,,,,,,,,,,,,,,,,,,,,,,,,,sing9,001,2019_Dec_02_0858,ProdSingRedo,3.2.3,59.92498590349895,
60,0,60,0,,,,,,,,,,,,,,,,,,,,,,,,,,,,438.859641499992,None,court,sing,blue,5,75,436.8541172000114,None,None,436.8541172000114,None,,,,,,,,,,,,,,,,,,,,,,,,,,,,,,,,,sing9,001,2019_Dec_02_0858,ProdSingRedo,3.2.3,59.92498590349895,
61,0,61,0,,,,,,,,,,,,,,,,,,,,,,,,,,,,441.3787644999975,None,portion,aloud,red,53,228,439.37319780001417,None,None,439.37319780001417,None,,,,,,,,,,,,,,,,,,,,,,,,,,,,,,,,,sing9,001,2019_Dec_02_0858,ProdSingRedo,3.2.3,59.92498590349895,
62,0,62,0,,,,,,,,,,,,,,,,,,,,,,,,,,,,443.8979632999981,None,level,sing,blue,29,170,441.8953535000037,None,None,441.8953535000037,None,,,,,,,,,,,,,,,,,,,,,,,,,,,,,,,,,sing9,001,2019_Dec_02_0858,ProdSingRedo,3.2.3,59.92498590349895,
63,0,63,0,,,,,,,,,,,,,,,,,,,,,,,,,,,,446.417125500011,None,dozen,silent,yellow,70,102,444.416324299993,None,None,444.416324299993,None,,,,,,,,,,,,,,,,,,,,,,,,,,,,,,,,,sing9,001,2019_Dec_02_0858,ProdSingRedo,3.2.3,59.92498590349895,
64,0,64,0,,,,,,,,,,,,,,,,,,,,,,,,,,,,448.93631670001196,None,junior,aloud,red,52,167,446.9369468000077,None,None,446.9369468000077,None,,,,,,,,,,,,,,,,,,,,,,,,,,,,,,,,,sing9,001,2019_Dec_02_0858,ProdSingRedo,3.2.3,59.92498590349895,
65,0,65,0,,,,,,,,,,,,,,,,,,,,,,,,,,,,451.4554174999939,None,danger,aloud,red,56,85,449.4557926999987,None,None,449.4557926999987,None,,,,,,,,,,,,,,,,,,,,,,,,,,,,,,,,,sing9,001,2019_Dec_02_0858,ProdSingRedo,3.2.3,59.92498590349895,
66,0,66,0,,,,,,,,,,,,,,,,,,,,,,,,,,,,453.97456940001575,None,account,aloud,red,39,1,451.96918139999616,None,None,451.96918139999616,None,,,,,,,,,,,,,,,,,,,,,,,,,,,,,,,,,sing9,001,2019_Dec_02_0858,ProdSingRedo,3.2.3,59.92498590349895,
67,0,67,0,,,,,,,,,,,,,,,,,,,,,,,,,,,,456.4937184000155,None,working,silent,yellow,79,357,454.4957562999916,None,None,454.4957562999916,None,,,,,,,,,,,,,,,,,,,,,,,,,,,,,,,,,sing9,001,2019_Dec_02_0858,ProdSingRedo,3.2.3,59.92498590349895,
68,0,68,0,,,,,,,,,,,,,,,,,,,,,,,,,,,,459.01300810000976,None,plane,aloud,red,45,223,457.01076289999764,None,None,457.01076289999764,None,,,,,,,,,,,,,,,,,,,,,,,,,,,,,,,,,sing9,001,2019_Dec_02_0858,ProdSingRedo,3.2.3,59.92498590349895,
69,0,69,0,,,,,,,,,,,,,,,,,,,,,,,,,,,,461.53216090000933,None,crowd,sing,blue,12,81,459.52923210000154,None,None,459.52923210000154,None,,,,,,,,,,,,,,,,,,,,,,,,,,,,,,,,,sing9,001,2019_Dec_02_0858,ProdSingRedo,3.2.3,59.92498590349895,
70,0,70,0,,,,,,,,,,,,,,,,,,,,,,,,,,,,464.0512940000044,None,narrow,aloud,red,36,197,462.04803239999455,None,None,462.04803239999455,None,,,,,,,,,,,,,,,,,,,,,,,,,,,,,,,,,sing9,001,2019_Dec_02_0858,ProdSingRedo,3.2.3,59.92498590349895,
71,0,71,0,,,,,,,,,,,,,,,,,,,,,,,,,,,,466.57048339999164,None,weight,aloud,red,43,353,464.5682012999896,None,None,464.5682012999896,None,,,,,,,,,,,,,,,,,,,,,,,,,,,,,,,,,sing9,001,2019_Dec_02_0858,ProdSingRedo,3.2.3,59.92498590349895,
72,0,72,0,,,,,,,,,,,,,,,,,,,,,,,,,,,,469.0896986000007,None,department,aloud,red,38,90,467.0852601999941,None,None,467.0852601999941,None,,,,,,,,,,,,,,,,,,,,,,,,,,,,,,,,,sing9,001,2019_Dec_02_0858,ProdSingRedo,3.2.3,59.92498590349895,
73,0,73,0,,,,,,,,,,,,,,,,,,,,,,,,,,,,471.6089623000007,None,power,sing,blue,10,230,469.60518250000314,None,None,469.60518250000314,None,,,,,,,,,,,,,,,,,,,,,,,,,,,,,,,,,sing9,001,2019_Dec_02_0858,ProdSingRedo,3.2.3,59.92498590349895,
74,0,74,0,,,,,,,,,,,,,,,,,,,,,,,,,,,,474.128020300006,None,principal,silent,yellow,75,236,472.1249897000089,None,None,472.1249897000089,None,,,,,,,,,,,,,,,,,,,,,,,,,,,,,,,,,sing9,001,2019_Dec_02_0858,ProdSingRedo,3.2.3,59.92498590349895,
75,0,75,0,,,,,,,,,,,,,,,,,,,,,,,,,,,,476.64729610001086,None,route,silent,yellow,84,267,474.6446646999975,None,None,474.6446646999975,None,,,,,,,,,,,,,,,,,,,,,,,,,,,,,,,,,sing9,001,2019_Dec_02_0858,ProdSingRedo,3.2.3,59.92498590349895,
76,0,76,0,,,,,,,,,,,,,,,,,,,,,,,,,,,,479.1665139000106,None,interior,silent,yellow,71,164,477.1637150000024,None,None,477.1637150000024,None,,,,,,,,,,,,,,,,,,,,,,,,,,,,,,,,,sing9,001,2019_Dec_02_0858,ProdSingRedo,3.2.3,59.92498590349895,
77,0,77,0,,,,,,,,,,,,,,,,,,,,,,,,,,,,481.68555610001204,None,bicycle,aloud,red,37,21,479.6894372999959,None,None,479.6894372999959,None,,,,,,,,,,,,,,,,,,,,,,,,,,,,,,,,,sing9,001,2019_Dec_02_0858,ProdSingRedo,3.2.3,59.92498590349895,
78,0,78,0,,,,,,,,,,,,,,,,,,,,,,,,,,,,484.2047324000159,None,figure,sing,blue,21,128,482.20723400000134,None,None,482.20723400000134,None,,,,,,,,,,,,,,,,,,,,,,,,,,,,,,,,,sing9,001,2019_Dec_02_0858,ProdSingRedo,3.2.3,59.92498590349895,
79,0,79,0,,,,,,,,,,,,,,,,,,,,,,,,,,,,486.7239159999881,None,council,sing,blue,19,71,484.7218482999888,None,None,484.7218482999888,None,,,,,,,,,,,,,,,,,,,,,,,,,,,,,,,,,sing9,001,2019_Dec_02_0858,ProdSingRedo,3.2.3,59.92498590349895,
80,0,80,0,,,,,,,,,,,,,,,,,,,,,,,,,,,,489.2431304999918,None,suggestion,silent,yellow,78,314,487.2440968999872,None,None,487.2440968999872,None,,,,,,,,,,,,,,,,,,,,,,,,,,,,,,,,,sing9,001,2019_Dec_02_0858,ProdSingRedo,3.2.3,59.92498590349895,
81,0,81,0,,,,,,,,,,,,,,,,,,,,,,,,,,,,491.76229479999165,None,store,sing,blue,8,305,489.75466080001206,None,None,489.75466080001206,None,,,,,,,,,,,,,,,,,,,,,,,,,,,,,,,,,sing9,001,2019_Dec_02_0858,ProdSingRedo,3.2.3,59.92498590349895,
82,0,82,0,,,,,,,,,,,,,,,,,,,,,,,,,,,,494.28155439998955,None,review,silent,yellow,80,263,492.2819765000022,None,None,492.2819765000022,None,,,,,,,,,,,,,,,,,,,,,,,,,,,,,,,,,sing9,001,2019_Dec_02_0858,ProdSingRedo,3.2.3,59.92498590349895,
83,0,83,0,,,,,,,,,,,,,,,,,,,,,,,,,,,,496.80074490001425,None,block,silent,yellow,65,25,494.800106300012,None,None,494.800106300012,None,,,,,,,,,,,,,,,,,,,,,,,,,,,,,,,,,sing9,001,2019_Dec_02_0858,ProdSingRedo,3.2.3,59.92498590349895,
84,0,84,0,,,,,,,,,,,,,,,,,,,,,,,,,,,,499.31980319999275,None,school,aloud,red,59,274,497.313041299989,None,None,497.313041299989,None,,,,,,,,,,,,,,,,,,,,,,,,,,,,,,,,,sing9,001,2019_Dec_02_0858,ProdSingRedo,3.2.3,59.92498590349895,
85,0,85,0,,,,,,,,,,,,,,,,,,,,,,,,,,,,501.8390036000055,None,motion,aloud,red,51,194,499.83264330000384,None,None,499.83264330000384,None,,,,,,,,,,,,,,,,,,,,,,,,,,,,,,,,,sing9,001,2019_Dec_02_0858,ProdSingRedo,3.2.3,59.92498590349895,
86,0,86,0,,,,,,,,,,,,,,,,,,,,,,,,,,,,504.34150770000997,None,government,sing,blue,3,139,502.33911400000216,None,None,502.33911400000216,None,,,,,,,,,,,,,,,,,,,,,,,,,,,,,,,,,sing9,001,2019_Dec_02_0858,ProdSingRedo,3.2.3,59.92498590349895,
87,0,87,0,,,,,,,,,,,,,,,,,,,,,,,,,,,,506.86079139998765,None,salary,silent,yellow,67,271,504.86230929999147,None,None,504.86230929999147,None,,,,,,,,,,,,,,,,,,,,,,,,,,,,,,,,,sing9,001,2019_Dec_02_0858,ProdSingRedo,3.2.3,59.92498590349895,
88,0,88,0,,,,,,,,,,,,,,,,,,,,,,,,,,,,509.37987760000397,None,guide,aloud,red,47,147,507.3737964000029,None,None,507.3737964000029,None,,,,,,,,,,,,,,,,,,,,,,,,,,,,,,,,,sing9,001,2019_Dec_02_0858,ProdSingRedo,3.2.3,59.92498590349895,
89,0,89,0,,,,,,,,,,,,,,,,,,,,,,,,,,,,511.89900420000777,None,broad,aloud,red,44,31,509.8987541999959,None,None,509.8987541999959,None,,,,,,,,,,,,,,,,,,,,,,,,,,,,,,,,,sing9,001,2019_Dec_02_0858,ProdSingRedo,3.2.3,59.92498590349895,
,,,,,,,,,,,,,,,,,,,,,,,,,,,,,,,,,,,,,,,,,,,512.3998597000027,None,k,85.69392069999594,512.3998597000027,None,,,,,,,,,,,,,,,,,,,,,,,,,,,sing9,001,2019_Dec_02_0858,ProdSingRedo,3.2.3,59.92498590349895,
,,,,0,0,0,0,,,,,,,,,,,,,,,,,,,,,,,,610.6299865999899,None,,,,,,,,,,,,,,,,,danger,aloud,white,0,56,85,598.6412979000015,None,598.6412979000015,None,6,7.884598799981177,598.6412979000015,None,606.5686136000149,None,607.097122200008,None,607.097122200008,None,r,3.5007609000022057,607.097122200008,None,,,sing9,001,2019_Dec_02_0858,ProdSingRedo,3.2.3,59.92498590349895,
,,,,1,0,1,0,,,,,,,,,,,,,,,,,,,,,,,,615.2614410000097,None,,,,,,,,,,,,,,,,,swift,new_c,white,1,153,320,611.1588455000019,None,611.1588455000019,None,1,2.238958400004776,611.1588455000019,None,613.443933100003,None,613.9654061000037,None,613.9654061000037,None,n,1.2643102000001818,613.9654061000037,None,,,sing9,001,2019_Dec_02_0858,ProdSingRedo,3.2.3,59.92498590349895,
,,,,2,0,2,0,,,,,,,,,,,,,,,,,,,,,,,,619.7002686999913,None,,,,,,,,,,,,,,,,,region,new_c,white,2,170,256,615.792953600001,None,615.792953600001,None,6,2.1810077000118326,615.792953600001,None,618.0303572000121,None,618.5534562999965,None,618.5534562999965,None,f,1.116368599992711,618.5534562999965,None,,,sing9,001,2019_Dec_02_0858,ProdSingRedo,3.2.3,59.92498590349895,
,,,,3,0,3,0,,,,,,,,,,,,,,,,,,,,,,,,625.1608645000088,None,,,,,,,,,,,,,,,,,range,sing,white,3,20,251,620.2322573999991,None,620.2322573999991,None,6,2.484955199994147,620.2322573999991,None,622.7473701999988,None,623.2727639999939,None,623.2727639999939,None,r,1.8450396000116598,623.2727639999939,None,,,sing9,001,2019_Dec_02_0858,ProdSingRedo,3.2.3,59.92498590349895,
,,,,4,0,4,0,,,,,,,,,,,,,,,,,,,,,,,,631.1298263999925,None,,,,,,,,,,,,,,,,,personnel,silent,white,4,85,219,625.6807073999953,None,625.6807073999953,None,3,3.844513200019719,625.6807073999953,None,629.5494896000018,None,630.0641108000127,None,630.0641108000127,None,f,1.0298215000075288,630.0641108000127,None,,,sing9,001,2019_Dec_02_0858,ProdSingRedo,3.2.3,59.92498590349895,
,,,,5,0,5,0,,,,,,,,,,,,,,,,,,,,,,,,635.3989467000065,None,,,,,,,,,,,,,,,,,degree,new_c,white,5,177,89,631.6534635999997,None,631.6534635999997,None,6,2.2644015999976546,631.6534635999997,None,633.9660230000154,None,634.4843325999973,None,634.4843325999973,None,f,0.8736534000199754,634.4843325999973,None,,,sing9,001,2019_Dec_02_0858,ProdSingRedo,3.2.3,59.92498590349895,
,,,,6,0,6,0,,,,,,,,,,,,,,,,,,,,,,,,640.2546525000071,None,,,,,,,,,,,,,,,,,broad,aloud,white,6,44,31,635.9269455999893,None,635.9269455999893,None,6,2.215019900002517,635.9269455999893,None,638.1840551999921,None,638.7004480999894,None,638.7004480999894,None,r,1.5214254000165965,638.7004480999894,None,,,sing9,001,2019_Dec_02_0858,ProdSingRedo,3.2.3,59.92498590349895,
,,,,7,0,7,0,,,,,,,,,,,,,,,,,,,,,,,,645.3755850000016,None,,,,,,,,,,,,,,,,,period,new_b,white,7,132,217,640.7777900999936,None,640.7777900999936,None,1,2.1239837000030093,640.7777900999936,None,642.9498440999887,None,643.4724128000089,None,643.4724128000089,None,n,1.86962240000139,643.4724128000089,None,,,sing9,001,2019_Dec_02_0858,ProdSingRedo,3.2.3,59.92498590349895,
,,,,8,0,8,0,,,,,,,,,,,,,,,,,,,,,,,,652.5017768999969,None,,,,,,,,,,,,,,,,,territory,new_b,white,8,149,324,645.9019174000132,None,645.9019174000132,None,5,5.159875599987572,645.9019174000132,None,651.1116524999961,None,651.634182800015,None,651.634182800015,None,f,0.8355199999932665,651.634182800015,None,,,sing9,001,2019_Dec_02_0858,ProdSingRedo,3.2.3,59.92498590349895,
,,,,9,0,9,0,,,,,,,,,,,,,,,,,,,,,,,,655.9250924999942,None,,,,,,,,,,,,,,,,,height,aloud,white,9,48,152,653.0260611000122,None,653.0260611000122,None,6,1.4437581000092905,653.0260611000122,None,654.5187543999928,None,655.0409787000099,None,655.0409787000099,None,r,0.844676700013224,655.0409787000099,None,,,sing9,001,2019_Dec_02_0858,ProdSingRedo,3.2.3,59.92498590349895,
,,,,10,0,10,0,,,,,,,,,,,,,,,,,,,,,,,,659.4556648000143,None,,,,,,,,,,,,,,,,,partner,new_a,white,10,92,211,656.4491765999992,None,656.4491765999992,None,6,1.732628099998692,656.4491765999992,None,658.2338099000044,None,658.7588144000038,None,658.7588144000038,None,r,0.6709251999855042,658.7588144000038,None,,,sing9,001,2019_Dec_02_0858,ProdSingRedo,3.2.3,59.92498590349895,
,,,,11,0,11,0,,,,,,,,,,,,,,,,,,,,,,,,663.3954240999883,None,,,,,,,,,,,,,,,,,notice,new_a,white,11,118,201,659.9792042000045,None,659.9792042000045,None,1,1.48255670000799,659.9792042000045,None,661.5018064999895,None,662.0241221000033,None,662.0241221000033,None,n,1.3415888999879826,662.0241221000033,None,,,sing9,001,2019_Dec_02_0858,ProdSingRedo,3.2.3,59.92498590349895,
,,,,12,0,12,0,,,,,,,,,,,,,,,,,,,,,,,,667.282601599989,None,,,,,,,,,,,,,,,,,congress,sing,white,12,17,67,663.9196115999948,None,663.9196115999948,None,6,1.9020719000254758,663.9196115999948,None,665.8644015000027,None,666.3900686000125,None,666.3900686000125,None,r,0.863524199987296,666.3900686000125,None,,,sing9,001,2019_Dec_02_0858,ProdSingRedo,3.2.3,59.92498590349895,
,,,,13,0,13,0,,,,,,,,,,,,,,,,,,,,,,,,671.4520862000063,None,,,,,,,,,,,,,,,,,harmony,silent,white,13,83,148,667.812904499995,None,667.812904499995,None,6,2.712808699987363,667.812904499995,None,670.566875199991,None,671.0891524000035,None,671.0891524000035,None,r,0.33261909999419004,671.0891524000035,None,,,sing9,001,2019_Dec_02_0858,ProdSingRedo,3.2.3,59.92498590349895,
,,,,14,0,14,0,,,,,,,,,,,,,,,,,,,,,,,,677.7914760000131,None,,,,,,,,,,,,,,,,,guest,new_b,white,14,141,146,671.9789847999928,None,671.9789847999928,None,5,4.202950200007763,671.9789847999928,None,676.23563380001,None,676.7595127999957,None,676.7595127999957,None,f,0.9902391000068747,676.7595127999957,None,,,sing9,001,2019_Dec_02_0858,ProdSingRedo,3.2.3,59.92498590349895,
,,,,15,0,15,0,,,,,,,,,,,,,,,,,,,,,,,,681.4292304000119,None,,,,,,,,,,,,,,,,,interior,silent,white,15,71,164,678.3150296999956,None,678.3150296999956,None,1,1.6508156000054441,678.3150296999956,None,680.0024129000085,None,680.5259921000106,None,680.5259921000106,None,n,0.8637776999967173,680.5259921000106,None,,,sing9,001,2019_Dec_02_0858,ProdSingRedo,3.2.3,59.92498590349895,
,,,,16,0,16,0,,,,,,,,,,,,,,,,,,,,,,,,684.9479785000149,None,,,,,,,,,,,,,,,,,quantity,new_a,white,16,112,245,681.9628680000023,None,681.9628680000023,None,1,1.690759999997681,681.9628680000023,None,683.6952783000015,None,684.2206688000006,None,684.2206688000006,None,n,0.6892481000104453,684.2206688000006,None,,,sing9,001,2019_Dec_02_0858,ProdSingRedo,3.2.3,59.92498590349895,
,,,,17,0,17,0,,,,,,,,,,,,,,,,,,,,,,,,689.3536775000102,None,,,,,,,,,,,,,,,,,mayor,aloud,white,17,35,183,685.4802746000059,None,685.4802746000059,None,6,1.8932868000119925,685.4802746000059,None,687.4158133000019,None,687.9426007000147,None,687.9426007000147,None,f,1.3750731000036467,687.9426007000147,None,,,sing9,001,2019_Dec_02_0858,ProdSingRedo,3.2.3,59.92498590349895,
,,,,18,0,18,0,,,,,,,,,,,,,,,,,,,,,,,,693.1909708000021,None,,,,,,,,,,,,,,,,,debate,silent,white,18,86,87,689.8815975000034,None,689.8815975000034,None,1,1.4601412000192795,689.8815975000034,None,691.3876808999921,None,691.9101536000089,None,691.9101536000089,None,n,1.2395167000067886,691.9101536000089,None,,,sing9,001,2019_Dec_02_0858,ProdSingRedo,3.2.3,59.92498590349895,
,,,,19,0,19,0,,,,,,,,,,,,,,,,,,,,,,,,697.7958007999987,None,,,,,,,,,,,,,,,,,error,silent,white,19,77,117,693.7152129999886,None,693.7152129999886,None,6,2.39495500002522,693.7152129999886,None,696.1568121000018,None,696.6768108000106,None,696.6768108000106,None,f,1.0891377000079956,696.6768108000106,None,,,sing9,001,2019_Dec_02_0858,ProdSingRedo,3.2.3,59.92498590349895,
,,,,20,0,20,0,,,,,,,,,,,,,,,,,,,,,,,,704.3705880999914,None,,,,,,,,,,,,,,,,,style,silent,white,20,61,311,698.3240508000017,None,698.3240508000017,None,2,2.3856914999778382,698.3240508000017,None,700.7642709999927,None,701.2839069000038,None,701.2839069000038,None,f,3.0581229999952484,701.2839069000038,None,,,sing9,001,2019_Dec_02_0858,ProdSingRedo,3.2.3,59.92498590349895,
,,,,21,0,21,0,,,,,,,,,,,,,,,,,,,,,,,,708.4366863000032,None,,,,,,,,,,,,,,,,,profession,sing,white,21,0,241,704.8976755999902,None,704.8976755999902,None,6,1.8442320000031032,704.8976755999902,None,706.7880448999931,None,707.3106043000007,None,707.3106043000007,None,r,1.0951331999967806,707.3106043000007,None,,,sing9,001,2019_Dec_02_0858,ProdSingRedo,3.2.3,59.92498590349895,
,,,,22,0,22,0,,,,,,,,,,,,,,,,,,,,,,,,711.4605138000043,None,,,,,,,,,,,,,,,,,principal,silent,white,22,75,236,708.9702618999872,None,708.9702618999872,None,6,1.2276221000065561,708.9702618999872,None,710.2393245999992,None,710.7622018000111,None,710.7622018000111,None,r,0.6677094000042416,710.7622018000111,None,,,sing9,001,2019_Dec_02_0858,ProdSingRedo,3.2.3,59.92498590349895,
,,,,23,0,23,0,,,,,,,,,,,,,,,,,,,,,,,,714.2116990000068,None,,,,,,,,,,,,,,,,,motion,aloud,white,23,51,194,711.980175500008,None,711.980175500008,None,6,1.2894926000153646,711.980175500008,None,713.3220872000093,None,713.8437457999971,None,713.8437457999971,None,r,0.3379700999939814,713.8437457999971,None,,,sing9,001,2019_Dec_02_0858,ProdSingRedo,3.2.3,59.92498590349895,
,,,,24,0,24,0,,,,,,,,,,,,,,,,,,,,,,,,718.4506427999877,None,,,,,,,,,,,,,,,,,dispute,new_b,white,24,144,99,714.7383474000089,None,714.7383474000089,None,1,2.6113619999960065,714.7383474000089,None,717.3910464000073,None,717.9193031000032,None,717.9193031000032,None,n,0.49441399998613633,717.9193031000032,None,,,sing9,001,2019_Dec_02_0858,ProdSingRedo,3.2.3,59.92498590349895,
,,,,25,0,25,0,,,,,,,,,,,,,,,,,,,,,,,,721.1347918999963,None,,,,,,,,,,,,,,,,,dance,new_b,white,25,138,84,718.9734888999956,None,718.9734888999956,None,1,1.2963419999869075,718.9734888999956,None,720.3163618000108,None,720.8379445000028,None,720.8379445000028,None,n,0.255905600002734,720.8379445000028,None,,,sing9,001,2019_Dec_02_0858,ProdSingRedo,3.2.3,59.92498590349895,
,,,,26,0,26,0,,,,,,,,,,,,,,,,,,,,,,,,726.1895637999987,None,,,,,,,,,,,,,,,,,close,new_c,white,26,155,53,721.6585131000029,None,721.6585131000029,None,3,2.763365899998462,721.6585131000029,None,724.464358600002,None,724.9884204000118,None,724.9884204000118,None,f,1.1612884000060149,724.9884204000118,None,,,sing9,001,2019_Dec_02_0858,ProdSingRedo,3.2.3,59.92498590349895,
,,,,27,0,27,0,,,,,,,,,,,,,,,,,,,,,,,,729.6107005999947,None,,,,,,,,,,,,,,,,,track,new_a,white,27,110,334,726.7148235999921,None,726.7148235999921,None,2,2.099064300011378,726.7148235999921,None,728.8620816000039,None,729.3816674000118,None,729.3816674000118,None,f,0.20005959999980405,729.3816674000118,None,,,sing9,001,2019_Dec_02_0858,ProdSingRedo,3.2.3,59.92498590349895,
,,,,28,0,28,0,,,,,,,,,,,,,,,,,,,,,,,,732.797071900015,None,,,,,,,,,,,,,,,,,signal,aloud,white,28,32,287,730.136371200002,None,730.136371200002,None,6,1.6692534000030719,730.136371200002,None,731.8640125000093,None,732.3827381999872,None,732.3827381999872,None,r,0.38297390000661835,732.3827381999872,None,,,sing9,001,2019_Dec_02_0858,ProdSingRedo,3.2.3,59.92498590349895,
,,,,29,0,29,0,,,,,,,,,,,,,,,,,,,,,,,,735.416418000008,None,,,,,,,,,,,,,,,,,impact,sing,white,29,15,157,733.3247292999877,None,733.3247292999877,None,6,1.2649113000079524,733.3247292999877,None,734.6292249000107,None,735.1520885000064,None,735.1520885000064,None,r,0.2375651000184007,735.1520885000064,None,,,sing9,001,2019_Dec_02_0858,ProdSingRedo,3.2.3,59.92498590349895,
,,,,30,0,30,0,,,,,,,,,,,,,,,,,,,,,,,,740.136642700003,None,,,,,,,,,,,,,,,,,concern,new_c,white,30,169,65,735.9416690999933,None,735.9416690999933,None,3,3.528297599987127,735.9416690999933,None,739.5158752000134,None,740.0365160999936,None,740.0365160999936,None,f,0.06507429998600855,740.0365160999936,None,,,sing9,001,2019_Dec_02_0858,ProdSingRedo,3.2.3,59.92498590349895,
,,,,31,0,31,0,,,,,,,,,,,,,,,,,,,,,,,,745.497094099992,None,,,,,,,,,,,,,,,,,charter,new_b,white,31,146,47,740.6609010999964,None,740.6609010999964,None,1,1.921046200004639,740.6609010999964,None,742.6390660000034,None,743.1561423999956,None,743.1561423999956,None,n,2.305563900008565,743.1561423999956,None,,,sing9,001,2019_Dec_02_0858,ProdSingRedo,3.2.3,59.92498590349895,
,,,,32,0,32,0,,,,,,,,,,,,,,,,,,,,,,,,748.0614496000053,None,,,,,,,,,,,,,,,,,death,silent,white,32,60,86,746.0222114000062,None,746.0222114000062,None,1,1.3354675000009593,746.0222114000062,None,747.4103044999938,None,747.9306519000093,None,747.9306519000093,None,n,0.09108640000340529,747.9306519000093,None,,,sing9,001,2019_Dec_02_0858,ProdSingRedo,3.2.3,59.92498590349895,
,,,,33,0,33,0,,,,,,,,,,,,,,,,,,,,,,,,751.4810976000153,None,,,,,,,,,,,,,,,,,private,silent,white,33,73,237,748.5877260999987,None,748.5877260999987,None,6,2.2180563999863807,748.5877260999987,None,750.8462067999935,None,751.3693324000051,None,751.3693324000051,None,f,0.08426249999320135,751.3693324000051,None,,,sing9,001,2019_Dec_02_0858,ProdSingRedo,3.2.3,59.92498590349895,
,,,,34,0,34,0,,,,,,,,,,,,,,,,,,,,,,,,757.9401782999921,None,,,,,,,,,,,,,,,,,attack,aloud,white,34,46,13,752.0081804000074,None,752.0081804000074,None,2,3.6696373999875505,752.0081804000074,None,755.7359783000138,None,756.2568372999958,None,756.2568372999958,None,n,1.6528326999978162,756.2568372999958,None,,,sing9,001,2019_Dec_02_0858,ProdSingRedo,3.2.3,59.92498590349895,
,,,,35,0,35,0,,,,,,,,,,,,,,,,,,,,,,,,760.9086875999928,None,,,,,,,,,,,,,,,,,minute,sing,white,35,16,192,758.4661900000065,None,758.4661900000065,None,6,1.3633504000026733,758.4661900000065,None,759.8721073000052,None,760.3930312000157,None,760.3930312000157,None,r,0.4846440000110306,760.3930312000157,None,,,sing9,001,2019_Dec_02_0858,ProdSingRedo,3.2.3,59.92498590349895,
,,,,36,0,36,0,,,,,,,,,,,,,,,,,,,,,,,,763.4102498000138,None,,,,,,,,,,,,,,,,,narrow,aloud,white,36,36,197,761.4351848000078,None,761.4351848000078,None,6,1.3784911999828182,761.4351848000078,None,762.8598666999897,None,763.3815037999884,None,763.3815037999884,None,r,0.008014399994863197,763.3815037999884,None,,,sing9,001,2019_Dec_02_0858,ProdSingRedo,3.2.3,59.92498590349895,
,,,,37,0,37,0,,,,,,,,,,,,,,,,,,,,,,,,767.6995674000063,None,,,,,,,,,,,,,,,,,treatment,new_b,white,37,131,339,763.9392054000054,None,763.9392054000054,None,2,2.498508300021058,763.9392054000054,None,766.483444500016,None,767.0002641000028,None,767.0002641000028,None,f,0.661622100014938,767.0002641000028,None,,,sing9,001,2019_Dec_02_0858,ProdSingRedo,3.2.3,59.92498590349895,
,,,,38,0,38,0,,,,,,,,,,,,,,,,,,,,,,,,770.2005770000105,None,,,,,,,,,,,,,,,,,pattern,aloud,white,38,49,214,768.2265953999886,None,768.2265953999886,None,6,1.330951300013112,768.2265953999886,None,769.6000324999914,None,770.123399300006,None,770.123399300006,None,r,0.05033430000185035,770.123399300006,None,,,sing9,001,2019_Dec_02_0858,ProdSingRedo,3.2.3,59.92498590349895,
,,,,39,0,39,0,,,,,,,,,,,,,,,,,,,,,,,,773.8217355000088,None,,,,,,,,,,,,,,,,,south,new_a,white,39,97,296,770.7253995999927,None,770.7253995999927,None,1,1.7442897000000812,770.7253995999927,None,772.5188518000068,None,773.0388309000118,None,773.0388309000118,None,n,0.7430003999907058,773.0388309000118,None,,,sing9,001,2019_Dec_02_0858,ProdSingRedo,3.2.3,59.92498590349895,
,,,,40,0,40,0,,,,,,,,,,,,,,,,,,,,,,,,776.306309800013,None,,,,,,,,,,,,,,,,,smooth,new_b,white,40,142,292,774.34559360001,None,774.34559360001,None,1,1.1001197999867145,774.34559360001,None,775.4864823000098,None,776.0057124999876,None,776.0057124999876,None,n,0.26391929999226704,776.0057124999876,None,,,sing9,001,2019_Dec_02_0858,ProdSingRedo,3.2.3,59.92498590349895,
,,,,41,0,41,0,,,,,,,,,,,,,,,,,,,,,,,,778.6093450000044,None,,,,,,,,,,,,,,,,,machinery,new_a,white,41,116,175,776.8358900999883,None,776.8358900999883,None,1,1.0337963000056334,776.8358900999883,None,777.9237479000003,None,778.4522332999913,None,778.4522332999913,None,n,0.12148689999594353,778.4522332999913,None,,,sing9,001,2019_Dec_02_0858,ProdSingRedo,3.2.3,59.92498590349895,
,,,,42,0,42,0,,,,,,,,,,,,,,,,,,,,,,,,782.3145605000027,None,,,,,,,,,,,,,,,,,account,aloud,white,42,39,1,779.1368167999899,None,779.1368167999899,None,6,1.5967019000090659,779.1368167999899,None,780.7745348000026,None,781.3012388999923,None,781.3012388999923,None,f,0.9846464000002015,781.3012388999923,None,,,sing9,001,2019_Dec_02_0858,ProdSingRedo,3.2.3,59.92498590349895,
,,,,43,0,43,0,,,,,,,,,,,,,,,,,,,,,,,,789.9395053999906,None,,,,,,,,,,,,,,,,,suggestion,silent,white,43,78,314,782.8431067999918,None,782.8431067999918,None,2,5.042615099984687,782.8431067999918,None,787.9371474999934,None,788.4564348999993,None,788.4564348999993,None,f,1.4453422999940813,788.4564348999993,None,,,sing9,001,2019_Dec_02_0858,ProdSingRedo,3.2.3,59.92498590349895,
,,,,44,0,44,0,,,,,,,,,,,,,,,,,,,,,,,,792.5509485999937,None,,,,,,,,,,,,,,,,,master,new_c,white,44,167,180,790.4621508000128,None,790.4621508000128,None,1,1.4074848000018392,790.4621508000128,None,791.9242359999917,None,792.444430500007,None,792.444430500007,None,n,0.08095579998916946,792.444430500007,None,,,sing9,001,2019_Dec_02_0858,ProdSingRedo,3.2.3,59.92498590349895,
,,,,45,0,45,0,,,,,,,,,,,,,,,,,,,,,,,,796.1588449999981,None,,,,,,,,,,,,,,,,,addition,sing,white,45,13,2,793.083914399991,None,793.083914399991,None,6,1.377797000022838,793.083914399991,None,794.5077916999871,None,795.0296682000044,None,795.0296682000044,None,r,1.0958316000178456,795.0296682000044,None,,,sing9,001,2019_Dec_02_0858,ProdSingRedo,3.2.3,59.92498590349895,
,,,,46,0,46,0,,,,,,,,,,,,,,,,,,,,,,,,799.4014452999982,None,,,,,,,,,,,,,,,,,gesture,new_a,white,46,94,137,796.6878309999884,None,796.6878309999884,None,1,1.6057389999914449,796.6878309999884,None,798.3472781000019,None,798.8658341999981,None,798.8658341999981,None,n,0.491725600004429,798.8658341999981,None,,,sing9,001,2019_Dec_02_0858,ProdSingRedo,3.2.3,59.92498590349895,
,,,,47,0,47,0,,,,,,,,,,,,,,,,,,,,,,,,802.6823649000144,None,,,,,,,,,,,,,,,,,orchestra,aloud,white,47,57,206,799.9240150999976,None,799.9240150999976,None,6,1.978108200011775,799.9240150999976,None,801.9492747999902,None,802.4704169000033,None,802.4704169000033,None,r,0.18351490001077764,802.4704169000033,None,,,sing9,001,2019_Dec_02_0858,ProdSingRedo,3.2.3,59.92498590349895,
,,,,48,0,48,0,,,,,,,,,,,,,,,,,,,,,,,,806.2185266999877,None,,,,,,,,,,,,,,,,,welcome,new_a,white,48,109,354,803.2064348999993,None,803.2064348999993,None,1,1.3113508000096772,803.2064348999993,None,804.5620429000119,None,805.0888336999924,None,805.0888336999924,None,n,1.0926861999905668,805.0888336999924,None,,,sing9,001,2019_Dec_02_0858,ProdSingRedo,3.2.3,59.92498590349895,
,,,,49,0,49,0,,,,,,,,,,,,,,,,,,,,,,,,808.8225571000075,None,,,,,,,,,,,,,,,,,fashion,new_b,white,49,147,125,806.7464602999971,None,806.7464602999971,None,1,1.3393744000059087,806.7464602999971,None,808.1334348999953,None,808.6605848000036,None,808.6605848000036,None,n,0.12903660000301898,808.6605848000036,None,,,sing9,001,2019_Dec_02_0858,ProdSingRedo,3.2.3,59.92498590349895,
,,,,50,0,50,0,,,,,,,,,,,,,,,,,,,,,,,,811.6397912999964,None,,,,,,,,,,,,,,,,,frank,new_c,white,50,173,133,809.3544556999987,None,809.3544556999987,None,1,1.5954391999985091,809.3544556999987,None,811.0022227999871,None,811.5139177000092,None,811.5139177000092,None,n,0.09179560001939535,811.5139177000092,None,,,sing9,001,2019_Dec_02_0858,ProdSingRedo,3.2.3,59.92498590349895,
,,,,51,0,51,0,,,,,,,,,,,,,,,,,,,,,,,,816.0021953000105,None,,,,,,,,,,,,,,,,,reach,silent,white,51,62,253,812.1681431999896,None,812.1681431999896,None,4,2.253424599999562,812.1681431999896,None,814.4786025999929,None,814.9998761999886,None,814.9998761999886,None,f,0.9658769000088796,814.9998761999886,None,,,sing9,001,2019_Dec_02_0858,ProdSingRedo,3.2.3,59.92498590349895,
,,,,52,0,52,0,,,,,,,,,,,,,,,,,,,,,,,,820.1667055000144,None,,,,,,,,,,,,,,,,,corner,new_b,white,52,122,69,816.5210354999872,None,816.5210354999872,None,3,2.8126523999962956,816.5210354999872,None,819.3771246999968,None,819.8974420000159,None,819.8974420000159,None,f,0.22836300000199117,819.8974420000159,None,,,sing9,001,2019_Dec_02_0858,ProdSingRedo,3.2.3,59.92498590349895,
,,,,53,0,53,0,,,,,,,,,,,,,,,,,,,,,,,,823.558314199996,None,,,,,,,,,,,,,,,,,background,aloud,white,53,50,16,820.6999400999921,None,820.6999400999921,None,1,2.257979999994859,820.6999400999921,None,823.0094515999954,None,823.52702400001,None,823.52702400001,None,n,0.006298599997535348,823.52702400001,None,,,sing9,001,2019_Dec_02_0858,ProdSingRedo,3.2.3,59.92498590349895,
,,,,54,0,54,0,,,,,,,,,,,,,,,,,,,,,,,,826.3836890000093,None,,,,,,,,,,,,,,,,,council,sing,white,54,19,71,824.0819612999912,None,824.0819612999912,None,6,1.563874699990265,824.0819612999912,None,825.6861022000085,None,826.2126076999994,None,826.2126076999994,None,r,0.1447694000089541,826.2126076999994,None,,,sing9,001,2019_Dec_02_0858,ProdSingRedo,3.2.3,59.92498590349895,
,,,,55,0,55,0,,,,,,,,,,,,,,,,,,,,,,,,830.809908700001,None,,,,,,,,,,,,,,,,,review,silent,white,55,80,263,826.9161437000148,None,826.9161437000148,None,2,2.4977358000178356,826.9161437000148,None,829.4597174999944,None,829.9841359000129,None,829.9841359000129,None,f,0.7977557000122033,829.9841359000129,None,,,sing9,001,2019_Dec_02_0858,ProdSingRedo,3.2.3,59.92498590349895,
,,,,56,0,56,0,,,,,,,,,,,,,,,,,,,,,,,,836.3669814000023,None,,,,,,,,,,,,,,,,,comedy,new_b,white,56,126,58,831.3384936999937,None,831.3384936999937,None,4,4.331037399999332,831.3384936999937,None,835.7084564999968,None,836.2347180999932,None,836.2347180999932,None,f,0.09878469997784123,836.2347180999932,None,,,sing9,001,2019_Dec_02_0858,ProdSingRedo,3.2.3,59.92498590349895,
,,,,57,0,57,0,,,,,,,,,,,,,,,,,,,,,,,,840.2779421000159,None,,,,,,,,,,,,,,,,,space,new_a,white,57,101,297,836.8937464999908,None,836.8937464999908,None,3,2.775919100007741,836.8937464999908,None,839.7174280000036,None,840.2405246999988,None,840.2405246999988,None,f,0.01280540000880137,840.2405246999988,None,,,sing9,001,2019_Dec_02_0858,ProdSingRedo,3.2.3,59.92498590349895,
,,,,58,0,58,0,,,,,,,,,,,,,,,,,,,,,,,,844.9412243000115,None,,,,,,,,,,,,,,,,,crisis,silent,white,58,66,79,840.7953305999981,None,840.7953305999981,None,1,2.1943633000191767,840.7953305999981,None,843.0363779999898,None,843.556712199992,None,843.556712199992,None,n,1.3448560000106227,843.556712199992,None,,,sing9,001,2019_Dec_02_0858,ProdSingRedo,3.2.3,59.92498590349895,
,,,,59,0,59,0,,,,,,,,,,,,,,,,,,,,,,,,850.5471263999934,None,,,,,,,,,,,,,,,,,dozen,silent,white,59,70,102,845.4723261999898,None,845.4723261999898,None,2,2.6774132999998983,845.4723261999898,None,848.192204299994,None,848.7138345999992,None,848.7138345999992,None,f,1.803787899989402,848.7138345999992,None,,,sing9,001,2019_Dec_02_0858,ProdSingRedo,3.2.3,59.92498590349895,
,,,,60,0,60,0,,,,,,,,,,,,,,,,,,,,,,,,854.5518534000148,None,,,,,,,,,,,,,,,,,symbol,aloud,white,60,30,321,851.0814765999967,None,851.0814765999967,None,6,1.5881567999895196,851.0814765999967,None,852.7145183999965,None,853.2432501000003,None,853.2432501000003,None,f,1.2823060000082478,853.2432501000003,None,,,sing9,001,2019_Dec_02_0858,ProdSingRedo,3.2.3,59.92498590349895,
,,,,61,0,61,0,,,,,,,,,,,,,,,,,,,,,,,,859.6904843999946,None,,,,,,,,,,,,,,,,,skill,sing,white,61,28,289,855.077958800015,None,855.077958800015,None,2,3.759588699991582,855.077958800015,None,858.8877859000058,None,859.4109046999947,None,859.4109046999947,None,f,0.25058849999913946,859.4109046999947,None,,,sing9,001,2019_Dec_02_0858,ProdSingRedo,3.2.3,59.92498590349895,
,,,,62,0,62,0,,,,,,,,,,,,,,,,,,,,,,,,864.5954018000048,None,,,,,,,,,,,,,,,,,business,new_c,white,62,174,38,860.2212636999902,None,860.2212636999902,None,3,3.3842351000057533,860.2212636999902,None,863.6644602000015,None,864.1799729999912,None,864.1799729999912,None,f,0.38582719999249093,864.1799729999912,None,,,sing9,001,2019_Dec_02_0858,ProdSingRedo,3.2.3,59.92498590349895,
,,,,63,0,63,0,,,,,,,,,,,,,,,,,,,,,,,,867.7148975000018,None,,,,,,,,,,,,,,,,,education,new_a,white,63,104,108,865.1249060000118,None,865.1249060000118,None,1,1.904686900001252,865.1249060000118,None,867.0817594999971,None,867.605327600002,None,867.605327600002,None,n,0.08025379999889992,867.605327600002,None,,,sing9,001,2019_Dec_02_0858,ProdSingRedo,3.2.3,59.92498590349895,
,,,,64,0,64,0,,,,,,,,,,,,,,,,,,,,,,,,870.4988459000015,None,,,,,,,,,,,,,,,,,break,new_a,white,64,90,26,868.2440937999927,None,868.2440937999927,None,1,1.4974950999894645,868.2440937999927,None,869.7957304999873,None,870.3194683000038,None,870.3194683000038,None,n,0.1424035000090953,870.3194683000038,None,,,sing9,001,2019_Dec_02_0858,ProdSingRedo,3.2.3,59.92498590349895,
,,,,65,0,65,0,,,,,,,,,,,,,,,,,,,,,,,,873.4863722999871,None,,,,,,,,,,,,,,,,,colonel,new_a,white,65,106,55,871.0267306999885,None,871.0267306999885,None,1,1.77099239997915,871.0267306999885,None,872.8488060999953,None,873.371994599991,None,873.371994599991,None,n,0.0895547000109218,873.371994599991,None,,,sing9,001,2019_Dec_02_0858,ProdSingRedo,3.2.3,59.92498590349895,
,,,,66,0,66,0,,,,,,,,,,,,,,,,,,,,,,,,877.2234446000075,None,,,,,,,,,,,,,,,,,number,silent,white,66,87,203,874.0117689000035,None,874.0117689000035,None,6,2.1220046000089496,874.0117689000035,None,876.1858461000083,None,876.709538199997,None,876.709538199997,None,r,0.4799389000108931,876.709538199997,None,,,sing9,001,2019_Dec_02_0858,ProdSingRedo,3.2.3,59.92498590349895,
,,,,67,0,67,0,,,,,,,,,,,,,,,,,,,,,,,,882.0130429000128,None,,,,,,,,,,,,,,,,,direction,new_a,white,67,91,94,877.7489341000037,None,877.7489341000037,None,3,3.3528666000056546,877.7489341000037,None,881.1429841000063,None,881.6594166000141,None,881.6594166000141,None,f,0.3141895000007935,881.6594166000141,None,,,sing9,001,2019_Dec_02_0858,ProdSingRedo,3.2.3,59.92498590349895,
,,,,68,0,68,0,,,,,,,,,,,,,,,,,,,,,,,,885.5660437000042,None,,,,,,,,,,,,,,,,,block,silent,white,68,65,25,882.5408699999971,None,882.5408699999971,None,1,2.1127239000052214,882.5408699999971,None,884.6946342999872,None,885.2193468000041,None,885.2193468000041,None,n,0.3141256999806501,885.2193468000041,None,,,sing9,001,2019_Dec_02_0858,ProdSingRedo,3.2.3,59.92498590349895,
,,,,69,0,69,0,,,,,,,,,,,,,,,,,,,,,,,,889.987414800009,None,,,,,,,,,,,,,,,,,capital,new_c,white,69,175,40,886.0962767000019,None,886.0962767000019,None,1,3.181114599981811,886.0962767000019,None,889.3389283000142,None,889.8611849000154,None,889.8611849000154,None,n,0.09663499999442138,889.8611849000154,None,,,sing9,001,2019_Dec_02_0858,ProdSingRedo,3.2.3,59.92498590349895,
,,,,70,0,70,0,,,,,,,,,,,,,,,,,,,,,,,,893.0046779999975,None,,,,,,,,,,,,,,,,,cover,new_c,white,70,154,77,890.5120269999898,None,890.5120269999898,None,1,1.6136224000074435,890.5120269999898,None,892.1678863000125,None,892.6936060000153,None,892.6936060000153,None,n,0.27176659999531694,892.6936060000153,None,,,sing9,001,2019_Dec_02_0858,ProdSingRedo,3.2.3,59.92498590349895,
,,,,71,0,71,0,,,,,,,,,,,,,,,,,,,,,,,,895.8748333000112,None,,,,,,,,,,,,,,,,,platform,silent,white,71,89,224,893.5359545999963,None,893.5359545999963,None,6,1.5416989999939688,893.5359545999963,None,895.1277012999926,None,895.6469524000131,None,895.6469524000131,None,r,0.19850519997999072,895.6469524000131,None,,,sing9,001,2019_Dec_02_0858,ProdSingRedo,3.2.3,59.92498590349895,
,,,,72,0,72,0,,,,,,,,,,,,,,,,,,,,,,,,899.9474156000069,None,,,,,,,,,,,,,,,,,atmosphere,new_b,white,72,129,12,896.405508099997,None,896.405508099997,None,3,2.7360461999778636,896.405508099997,None,899.187753700011,None,899.7141592999978,None,899.7141592999978,None,f,0.19526889998815022,899.7141592999978,None,,,sing9,001,2019_Dec_02_0858,ProdSingRedo,3.2.3,59.92498590349895,
,,,,73,0,73,0,,,,,,,,,,,,,,,,,,,,,,,,903.0001245999883,None,,,,,,,,,,,,,,,,,drink,new_c,white,73,150,105,900.4694149999996,None,900.4694149999996,None,1,1.6962159000104293,900.4694149999996,None,902.2093604000111,None,902.737140400015,None,902.737140400015,None,n,0.2284018000063952,902.737140400015,None,,,sing9,001,2019_Dec_02_0858,ProdSingRedo,3.2.3,59.92498590349895,
,,,,74,0,74,0,,,,,,,,,,,,,,,,,,,,,,,,905.7470145999978,None,,,,,,,,,,,,,,,,,safety,sing,white,74,4,270,903.5287812000024,None,903.5287812000024,None,1,1.500717099988833,903.5287812000024,None,905.0859106999997,None,905.6067162000109,None,905.6067162000109,None,n,0.11857180000515655,905.6067162000109,None,,,sing9,001,2019_Dec_02_0858,ProdSingRedo,3.2.3,59.92498590349895,
,,,,75,0,75,0,,,,,,,,,,,,,,,,,,,,,,,,910.574411300011,None,,,,,,,,,,,,,,,,,power,sing,white,75,10,230,906.278790100012,None,906.278790100012,None,3,2.0627406999992672,906.278790100012,None,908.388649600005,None,908.9101002000098,None,908.9101002000098,None,f,1.6313105000008363,908.9101002000098,None,,,sing9,001,2019_Dec_02_0858,ProdSingRedo,3.2.3,59.92498590349895,
,,,,76,0,76,0,,,,,,,,,,,,,,,,,,,,,,,,914.6785351000144,None,,,,,,,,,,,,,,,,,running,sing,white,76,11,268,911.106403200014,None,911.106403200014,None,6,1.6590160999912769,911.106403200014,None,912.8064581000071,None,913.3328981999948,None,913.3328981999948,None,r,1.3126345000055153,913.3328981999948,None,,,sing9,001,2019_Dec_02_0858,ProdSingRedo,3.2.3,59.92498590349895,
,,,,77,0,77,0,,,,,,,,,,,,,,,,,,,,,,,,918.0963525999978,None,,,,,,,,,,,,,,,,,pressure,new_a,white,77,102,232,915.2045504999987,None,915.2045504999987,None,2,2.248880300001474,915.2045504999987,None,917.4954856999975,None,918.01733100001,None,918.01733100001,None,f,0.05181340000126511,918.01733100001,None,,,sing9,001,2019_Dec_02_0858,ProdSingRedo,3.2.3,59.92498590349895,
,,,,78,0,78,0,,,,,,,,,,,,,,,,,,,,,,,,921.2000971999951,None,,,,,,,,,,,,,,,,,payment,new_a,white,78,111,215,918.6270015999908,None,918.6270015999908,None,2,1.4506946000037715,918.6270015999908,None,920.1308944000048,None,920.655631200003,None,920.655631200003,None,f,0.517943999991985,920.655631200003,None,,,sing9,001,2019_Dec_02_0858,ProdSingRedo,3.2.3,59.92498590349895,
,,,,79,0,79,0,,,,,,,,,,,,,,,,,,,,,,,,925.1649344000034,None,,,,,,,,,,,,,,,,,weight,aloud,white,79,43,353,921.7292943999928,None,921.7292943999928,None,6,2.7725184000155423,921.7292943999928,None,924.5547304000065,None,925.07312429999,None,925.07312429999,None,r,0.06009260000428185,925.07312429999,None,,,sing9,001,2019_Dec_02_0858,ProdSingRedo,3.2.3,59.92498590349895,
,,,,80,0,80,0,,,,,,,,,,,,,,,,,,,,,,,,928.8761861000094,None,,,,,,,,,,,,,,,,,turkey,aloud,white,80,33,342,925.6999980999972,None,925.6999980999972,None,6,1.097896799998125,925.6999980999972,None,926.8422658999916,None,927.3688899000117,None,927.3688899000117,None,r,1.4766318000038154,927.3688899000117,None,,,sing9,001,2019_Dec_02_0858,ProdSingRedo,3.2.3,59.92498590349895,
,,,,81,0,81,0,,,,,,,,,,,,,,,,,,,,,,,,932.0260815999936,None,,,,,,,,,,,,,,,,,native,new_b,white,81,124,199,929.408857500006,None,929.408857500006,None,1,1.764649399992777,929.408857500006,None,931.2309532999934,None,931.7529707000067,None,931.7529707000067,None,n,0.24458959998446517,931.7529707000067,None,,,sing9,001,2019_Dec_02_0858,ProdSingRedo,3.2.3,59.92498590349895,
,,,,82,0,82,0,,,,,,,,,,,,,,,,,,,,,,,,934.4247240000113,None,,,,,,,,,,,,,,,,,novel,new_b,white,82,125,202,932.5578403999971,None,932.5578403999971,None,1,1.255763900000602,932.5578403999971,None,933.8639848000021,None,934.3844370000006,None,934.3844370000006,None,n,0.012775099981809035,934.3844370000006,None,,,sing9,001,2019_Dec_02_0858,ProdSingRedo,3.2.3,59.92498590349895,
,,,,83,0,83,0,,,,,,,,,,,,,,,,,,,,,,,,937.9008443999919,None,,,,,,,,,,,,,,,,,comfort,silent,white,83,72,59,934.956545699999,None,934.956545699999,None,1,1.5849832999811042,934.956545699999,None,936.5842521000013,None,937.1060316000076,None,937.1060316000076,None,n,0.7553654000221286,937.1060316000076,None,,,sing9,001,2019_Dec_02_0858,ProdSingRedo,3.2.3,59.92498590349895,
,,,,84,0,84,0,,,,,,,,,,,,,,,,,,,,,,,,941.870148499991,None,,,,,,,,,,,,,,,,,scale,new_c,white,84,160,272,938.4288133000082,None,938.4288133000082,None,1,2.3287079999863636,938.4288133000082,None,940.8008059000131,None,941.3234697000007,None,941.3234697000007,None,n,0.5223235999874305,941.3234697000007,None,,,sing9,001,2019_Dec_02_0858,ProdSingRedo,3.2.3,59.92498590349895,
,,,,85,0,85,0,,,,,,,,,,,,,,,,,,,,,,,,946.3419098999875,None,,,,,,,,,,,,,,,,,department,aloud,white,85,38,90,942.4038090000104,None,942.4038090000104,None,6,2.7380106000055093,942.4038090000104,None,945.1932709999965,None,945.7097207999905,None,945.7097207999905,None,r,0.607821600016905,945.7097207999905,None,,,sing9,001,2019_Dec_02_0858,ProdSingRedo,3.2.3,59.92498590349895,
,,,,86,0,86,0,,,,,,,,,,,,,,,,,,,,,,,,949.7278538999963,None,,,,,,,,,,,,,,,,,universal,new_b,white,86,145,345,946.8772156999912,None,946.8772156999912,None,1,1.9443527999974322,946.8772156999912,None,948.8828838999907,None,949.404051199992,None,949.404051199992,None,n,0.289753400022164,949.404051199992,None,,,sing9,001,2019_Dec_02_0858,ProdSingRedo,3.2.3,59.92498590349895,
,,,,87,0,87,0,,,,,,,,,,,,,,,,,,,,,,,,953.2437024000101,None,,,,,,,,,,,,,,,,,mechanical,silent,white,87,68,185,950.2605196000077,None,950.2605196000077,None,1,2.2089922000013757,950.2605196000077,None,952.5214455999958,None,953.0375124000129,None,953.0375124000129,None,n,0.18366390001028776,953.0375124000129,None,,,sing9,001,2019_Dec_02_0858,ProdSingRedo,3.2.3,59.92498590349895,
,,,,88,0,88,0,,,,,,,,,,,,,,,,,,,,,,,,957.2870142000029,None,,,,,,,,,,,,,,,,,weather,new_b,white,88,143,352,953.7777053999889,None,953.7777053999889,None,4,2.027710099995602,953.7777053999889,None,955.850063299993,None,956.3735076999874,None,956.3735076999874,None,f,0.8799400000134483,956.3735076999874,None,,,sing9,001,2019_Dec_02_0858,ProdSingRedo,3.2.3,59.92498590349895,
,,,,89,0,89,0,,,,,,,,,,,,,,,,,,,,,,,,961.3061344999878,None,,,,,,,,,,,,,,,,,answer,sing,white,89,27,8,957.8187833999982,None,957.8187833999982,None,1,2.634662800002843,957.8187833999982,None,960.5036515000102,None,961.0331177999906,None,961.0331177999906,None,n,0.23640860000159591,961.0331177999906,None,,,sing9,001,2019_Dec_02_0858,ProdSingRedo,3.2.3,59.92498590349895,
,,,,90,0,90,0,,,,,,,,,,,,,,,,,,,,,,,,964.1284540999914,None,,,,,,,,,,,,,,,,,guide,aloud,white,90,47,147,961.8336725000117,None,961.8336725000117,None,1,1.5317826999817044,961.8336725000117,None,963.4078222000098,None,963.9295662000077,None,963.9295662000077,None,n,0.17190929999924265,963.9295662000077,None,,,sing9,001,2019_Dec_02_0858,ProdSingRedo,3.2.3,59.92498590349895,
,,,,91,0,91,0,,,,,,,,,,,,,,,,,,,,,,,,967.4645015000133,None,,,,,,,,,,,,,,,,,session,new_c,white,91,165,281,964.6523143000086,None,964.6523143000086,None,1,2.0331324000144377,964.6523143000086,None,966.7264901000017,None,967.2466371000046,None,967.2466371000046,None,n,0.18283460001111962,967.2466371000046,None,,,sing9,001,2019_Dec_02_0858,ProdSingRedo,3.2.3,59.92498590349895,
,,,,92,0,92,0,,,,,,,,,,,,,,,,,,,,,,,,971.7864862999995,None,,,,,,,,,,,,,,,,,management,new_a,white,92,93,177,967.9959407999995,None,967.9959407999995,None,5,2.9614711000176612,967.9959407999995,None,971.0017994999944,None,971.5274637000111,None,971.5274637000111,None,f,0.22197129999403842,971.5274637000111,None,,,sing9,001,2019_Dec_02_0858,ProdSingRedo,3.2.3,59.92498590349895,
,,,,93,0,93,0,,,,,,,,,,,,,,,,,,,,,,,,975.0035579999967,None,,,,,,,,,,,,,,,,,watch,aloud,white,93,55,351,972.3129525000113,None,972.3129525000113,None,4,2.0046183000085875,972.3129525000113,None,974.3624658999906,None,974.8885292999912,None,974.8885292999912,None,f,0.07697819999884814,974.8885292999912,None,,,sing9,001,2019_Dec_02_0858,ProdSingRedo,3.2.3,59.92498590349895,
,,,,94,0,94,0,,,,,,,,,,,,,,,,,,,,,,,,978.165393400006,None,,,,,,,,,,,,,,,,,election,new_b,white,94,139,109,975.5271358999889,None,975.5271358999889,None,1,1.99025130001246,975.5271358999889,None,977.5690504999948,None,978.0907036999997,None,978.0907036999997,None,n,0.0585387000173796,978.0907036999997,None,,,sing9,001,2019_Dec_02_0858,ProdSingRedo,3.2.3,59.92498590349895,
,,,,95,0,95,0,,,,,,,,,,,,,,,,,,,,,,,,980.9790320000029,None,,,,,,,,,,,,,,,,,shape,new_a,white,95,96,282,978.6837035999924,None,978.6837035999924,None,1,1.5457754000090063,978.6837035999924,None,980.2726990999945,None,980.7963049999962,None,980.7963049999962,None,n,0.15313600000808947,980.7963049999962,None,,,sing9,001,2019_Dec_02_0858,ProdSingRedo,3.2.3,59.92498590349895,
,,,,96,0,96,0,,,,,,,,,,,,,,,,,,,,,,,,985.1811708000023,None,,,,,,,,,,,,,,,,,sound,new_b,white,96,123,295,981.5052153000142,None,981.5052153000142,None,4,2.851724300009664,981.5052153000142,None,984.4067682999885,None,984.9180942999956,None,984.9180942999956,None,f,0.23136710000107996,984.9180942999956,None,,,sing9,001,2019_Dec_02_0858,ProdSingRedo,3.2.3,59.92498590349895,
,,,,97,0,97,0,,,,,,,,,,,,,,,,,,,,,,,,987.9343799999915,None,,,,,,,,,,,,,,,,,route,silent,white,97,84,267,985.7041697000095,None,985.7041697000095,None,4,1.3974702999985311,985.7041697000095,None,987.1507404000149,None,987.670907199994,None,987.670907199994,None,f,0.23045979999005795,987.670907199994,None,,,sing9,001,2019_Dec_02_0858,ProdSingRedo,3.2.3,59.92498590349895,
,,,,98,0,98,0,,,,,,,,,,,,,,,,,,,,,,,,990.3678289999953,None,,,,,,,,,,,,,,,,,finance,new_c,white,98,151,129,988.4610066000023,None,988.4610066000023,None,1,1.19248840000364,988.4610066000023,None,989.6981455000059,None,990.2243620000081,None,990.2243620000081,None,n,0.10905840000486933,990.2243620000081,None,,,sing9,001,2019_Dec_02_0858,ProdSingRedo,3.2.3,59.92498590349895,
,,,,99,0,99,0,,,,,,,,,,,,,,,,,,,,,,,,992.9120528000058,None,,,,,,,,,,,,,,,,,public,new_c,white,99,168,244,990.893365099997,None,990.893365099997,None,1,1.400252300023567,990.893365099997,None,992.3343730999914,None,992.8605161999876,None,992.8605161999876,None,n,0.02446849999250844,992.8605161999876,None,,,sing9,001,2019_Dec_02_0858,ProdSingRedo,3.2.3,59.92498590349895,
,,,,100,0,100,0,,,,,,,,,,,,,,,,,,,,,,,,995.5250187999918,None,,,,,,,,,,,,,,,,,worker,sing,white,100,14,356,993.4363732000056,None,993.4363732000056,None,1,1.3130910999898333,993.4363732000056,None,994.7902767999913,None,995.3135665000009,None,995.3135665000009,None,n,0.17182320001302287,995.3135665000009,None,,,sing9,001,2019_Dec_02_0858,ProdSingRedo,3.2.3,59.92498590349895,
,,,,101,0,101,0,,,,,,,,,,,,,,,,,,,,,,,,1000.4487197000126,None,,,,,,,,,,,,,,,,,portion,aloud,white,101,53,228,996.0478000000003,None,996.0478000000003,None,2,3.557740999996895,996.0478000000003,None,999.6538656000048,None,1000.1637981999957,None,1000.1637981999957,None,f,0.25760949999676086,1000.1637981999957,None,,,sing9,001,2019_Dec_02_0858,ProdSingRedo,3.2.3,59.92498590349895,
,,,,102,0,102,0,,,,,,,,,,,,,,,,,,,,,,,,1003.8007704000047,None,,,,,,,,,,,,,,,,,science,new_a,white,102,103,275,1000.9670828999951,None,1000.9670828999951,None,1,2.1265124999918044,1000.9670828999951,None,1003.141249200009,None,1003.6647987999895,None,1003.6647987999895,None,n,0.1007003000122495,1003.6647987999895,None,,,sing9,001,2019_Dec_02_0858,ProdSingRedo,3.2.3,59.92498590349895,
,,,,103,0,103,0,,,,,,,,,,,,,,,,,,,,,,,,1006.4856013999961,None,,,,,,,,,,,,,,,,,crowd,sing,white,103,12,81,1004.3261100999953,None,1004.3261100999953,None,1,1.4152212000044528,1004.3261100999953,None,1005.7882260000042,None,1006.3048001000134,None,1006.3048001000134,None,n,0.14116800000192598,1006.3048001000134,None,,,sing9,001,2019_Dec_02_0858,ProdSingRedo,3.2.3,59.92498590349895,
,,,,104,0,104,0,,,,,,,,,,,,,,,,,,,,,,,,1009.149414399988,None,,,,,,,,,,,,,,,,,century,new_b,white,104,134,45,1007.0176015000034,None,1007.0176015000034,None,1,1.4596982999937609,1007.0176015000034,None,1008.5246349000081,None,1009.0438917000138,None,1009.0438917000138,None,n,0.08133259997703135,1009.0438917000138,None,,,sing9,001,2019_Dec_02_0858,ProdSingRedo,3.2.3,59.92498590349895,
,,,,105,0,105,0,,,,,,,,,,,,,,,,,,,,,,,,1012.1072230999998,None,,,,,,,,,,,,,,,,,vision,new_b,white,105,136,347,1009.678166800004,None,1009.678166800004,None,1,1.7432578000007197,1009.678166800004,None,1011.4705253000138,None,1011.9951934000128,None,1011.9951934000128,None,n,0.07430189999286085,1011.9951934000128,None,,,sing9,001,2019_Dec_02_0858,ProdSingRedo,3.2.3,59.92498590349895,
,,,,106,0,106,0,,,,,,,,,,,,,,,,,,,,,,,,1014.5940266000107,None,,,,,,,,,,,,,,,,,passage,new_a,white,106,113,212,1012.6360926000052,None,1012.6360926000052,None,1,1.2732670000114013,1012.6360926000052,None,1013.9602487999946,None,1014.4841893000121,None,1014.4841893000121,None,n,0.0732170999981463,1014.4841893000121,None,,,sing9,001,2019_Dec_02_0858,ProdSingRedo,3.2.3,59.92498590349895,
,,,,107,0,107,0,,,,,,,,,,,,,,,,,,,,,,,,1018.1619086000137,None,,,,,,,,,,,,,,,,,subject,new_c,white,107,176,312,1015.1240257000027,None,1015.1240257000027,None,6,1.5214410000189673,1015.1240257000027,None,1016.6980252999929,None,1017.2211865000136,None,1017.2211865000136,None,r,0.9044271000020672,1017.2211865000136,None,,,sing9,001,2019_Dec_02_0858,ProdSingRedo,3.2.3,59.92498590349895,
,,,,108,0,108,0,,,,,,,,,,,,,,,,,,,,,,,,1021.2004715999938,None,,,,,,,,,,,,,,,,,length,new_a,white,108,100,169,1018.6936549000093,None,1018.6936549000093,None,1,1.7438041999994311,1018.6936549000093,None,1020.4848530000017,None,1021.0039709999983,None,1021.0039709999983,None,n,0.16928709999774583,1021.0039709999983,None,,,sing9,001,2019_Dec_02_0858,ProdSingRedo,3.2.3,59.92498590349895,
,,,,109,0,109,0,,,,,,,,,,,,,,,,,,,,,,,,1023.5376557999989,None,,,,,,,,,,,,,,,,,still,new_a,white,109,107,304,1021.7239325999981,None,1021.7239325999981,None,1,1.1134124000091106,1021.7239325999981,None,1022.8770835000032,None,1023.3858765999903,None,1023.3858765999903,None,n,0.12351450001006015,1023.3858765999903,None,,,sing9,001,2019_Dec_02_0858,ProdSingRedo,3.2.3,59.92498590349895,
,,,,110,0,110,0,,,,,,,,,,,,,,,,,,,,,,,,1026.7229012000025,None,,,,,,,,,,,,,,,,,junior,aloud,white,110,52,167,1024.0645016999915,None,1024.0645016999915,None,6,1.2450638000154868,1024.0645016999915,None,1025.3550397999934,None,1025.8753923999902,None,1025.8753923999902,None,r,0.8100333000184037,1025.8753923999902,None,,,sing9,001,2019_Dec_02_0858,ProdSingRedo,3.2.3,59.92498590349895,
,,,,111,0,111,0,,,,,,,,,,,,,,,,,,,,,,,,1029.4882310999965,None,,,,,,,,,,,,,,,,,agency,new_b,white,111,121,4,1027.2485616999911,None,1027.2485616999911,None,6,1.6367779999854974,1027.2485616999911,None,1028.9363994000014,None,1029.4634428000136,None,1029.4634428000136,None,r,0.0055785000149626285,1029.4634428000136,None,,,sing9,001,2019_Dec_02_0858,ProdSingRedo,3.2.3,59.92498590349895,
,,,,112,0,112,0,,,,,,,,,,,,,,,,,,,,,,,,1031.9603724000044,None,,,,,,,,,,,,,,,,,husband,sing,white,112,7,156,1030.0155375000031,None,1030.0155375000031,None,6,1.2298927999800071,1030.0155375000031,None,1031.2960489999969,None,1031.8127676000004,None,1031.8127676000004,None,r,0.11269040001207031,1031.8127676000004,None,,,sing9,001,2019_Dec_02_0858,ProdSingRedo,3.2.3,59.92498590349895,
,,,,113,0,113,0,,,,,,,,,,,,,,,,,,,,,,,,1035.7335690000036,None,,,,,,,,,,,,,,,,,court,sing,white,113,5,75,1032.488245399989,None,1032.488245399989,None,3,2.4131830999976955,1032.488245399989,None,1034.9442102999892,None,1035.467229300004,None,1035.467229300004,None,f,0.23421400002553128,1035.467229300004,None,,,sing9,001,2019_Dec_02_0858,ProdSingRedo,3.2.3,59.92498590349895,
,,,,114,0,114,0,,,,,,,,,,,,,,,,,,,,,,,,1038.4516348000034,None,,,,,,,,,,,,,,,,,plane,aloud,white,114,45,223,1036.2555944999913,None,1036.2555944999913,None,1,1.4618685999885201,1036.2555944999913,None,1037.7670658999996,None,1038.2880673999898,None,1038.2880673999898,None,n,0.1334783000056632,1038.2880673999898,None,,,sing9,001,2019_Dec_02_0858,ProdSingRedo,3.2.3,59.92498590349895,
,,,,115,0,115,0,,,,,,,,,,,,,,,,,,,,,,,,1041.1258509999898,None,,,,,,,,,,,,,,,,,rough,aloud,white,115,40,266,1038.9763608000067,None,1038.9763608000067,None,6,1.5570284000132233,1038.9763608000067,None,1040.5846306000021,None,1041.1062350000138,None,1041.1062350000138,None,r,0.0027833999774884433,1041.1062350000138,None,,,sing9,001,2019_Dec_02_0858,ProdSingRedo,3.2.3,59.92498590349895,
,,,,116,0,116,0,,,,,,,,,,,,,,,,,,,,,,,,1045.3977944999933,None,,,,,,,,,,,,,,,,,religion,silent,white,116,81,258,1041.6512951999903,None,1041.6512951999903,None,6,3.106008799979463,1041.6512951999903,None,1044.803684899991,None,1045.330359399988,None,1045.330359399988,None,r,0.04263370000990108,1045.330359399988,None,,,sing9,001,2019_Dec_02_0858,ProdSingRedo,3.2.3,59.92498590349895,
,,,,117,0,117,0,,,,,,,,,,,,,,,,,,,,,,,,1048.9447482000105,None,,,,,,,,,,,,,,,,,quiet,new_b,white,117,148,249,1045.9200303000107,None,1045.9200303000107,None,1,1.8854445000179112,1045.9200303000107,None,1047.8597188999993,None,1048.3823340999952,None,1048.3823340999952,None,n,0.5271215999964625,1048.3823340999952,None,,,sing9,001,2019_Dec_02_0858,ProdSingRedo,3.2.3,59.92498590349895,
,,,,118,0,118,0,,,,,,,,,,,,,,,,,,,,,,,,1051.2812222999928,None,,,,,,,,,,,,,,,,,phrase,silent,white,118,74,220,1049.4736503000022,None,1049.4736503000022,None,1,1.1159296000259928,1049.4736503000022,None,1050.64648950001,None,1051.1675466999877,None,1051.1675466999877,None,n,0.08576769998762757,1051.1675466999877,None,,,sing9,001,2019_Dec_02_0858,ProdSingRedo,3.2.3,59.92498590349895,
,,,,119,0,119,0,,,,,,,,,,,,,,,,,,,,,,,,1054.0873411000066,None,,,,,,,,,,,,,,,,,escape,new_b,white,119,137,118,1051.810403999989,None,1051.810403999989,None,1,1.1948530999943614,1051.810403999989,None,1053.0481422999874,None,1053.5698724999966,None,1053.5698724999966,None,n,0.48352320000412874,1053.5698724999966,None,,,sing9,001,2019_Dec_02_0858,ProdSingRedo,3.2.3,59.92498590349895,
,,,,120,0,120,0,,,,,,,,,,,,,,,,,,,,,,,,1059.5233378999983,None,,,,,,,,,,,,,,,,,salary,silent,white,120,67,271,1054.6106043999898,None,1054.6106043999898,None,3,3.0826239000016358,1054.6106043999898,None,1057.746583500004,None,1058.264271699998,None,1058.264271699998,None,f,1.2293729000084568,1058.264271699998,None,,,sing9,001,2019_Dec_02_0858,ProdSingRedo,3.2.3,59.92498590349895,
,,,,121,0,121,0,,,,,,,,,,,,,,,,,,,,,,,,1062.7917737000098,None,,,,,,,,,,,,,,,,,column,new_a,white,121,117,57,1060.0457909000106,None,1060.0457909000106,None,1,1.7197735999943689,1060.0457909000106,None,1061.8067425999907,None,1062.3285865999933,None,1062.3285865999933,None,n,0.42886549999821,1062.3285865999933,None,,,sing9,001,2019_Dec_02_0858,ProdSingRedo,3.2.3,59.92498590349895,
,,,,122,0,122,0,,,,,,,,,,,,,,,,,,,,,,,,1066.1959257000126,None,,,,,,,,,,,,,,,,,store,sing,white,122,8,305,1063.3122662999958,None,1063.3122662999958,None,1,2.205062799999723,1063.3122662999958,None,1065.5577966000128,None,1066.0764767999935,None,1066.0764767999935,None,n,0.0810256999975536,1066.0764767999935,None,,,sing9,001,2019_Dec_02_0858,ProdSingRedo,3.2.3,59.92498590349895,
,,,,123,0,123,0,,,,,,,,,,,,,,,,,,,,,,,,1069.1798381000117,None,,,,,,,,,,,,,,,,,spoke,sing,white,123,18,300,1066.7221160999907,None,1066.7221160999907,None,1,1.7873464000003878,1066.7221160999907,None,1068.5603985000052,None,1069.0870692000026,None,1069.0870692000026,None,n,0.053906000015558675,1069.0870692000026,None,,,sing9,001,2019_Dec_02_0858,ProdSingRedo,3.2.3,59.92498590349895,
,,,,124,0,124,0,,,,,,,,,,,,,,,,,,,,,,,,1074.3359577000083,None,,,,,,,,,,,,,,,,,working,silent,white,124,79,357,1069.7145075000008,None,1069.7145075000008,None,2,3.6508505000092555,1069.7145075000008,None,1073.420912600006,None,1073.9441269999952,None,1073.9441269999952,None,f,0.357152499986114,1073.9441269999952,None,,,sing9,001,2019_Dec_02_0858,ProdSingRedo,3.2.3,59.92498590349895,
,,,,125,0,125,0,,,,,,,,,,,,,,,,,,,,,,,,1077.5001541000092,None,,,,,,,,,,,,,,,,,level,sing,white,125,29,170,1074.861988699995,None,1074.861988699995,None,1,2.007339800009504,1074.861988699995,None,1076.9231915000128,None,1077.444351699989,None,1077.444351699989,None,n,0.024711300007766113,1077.444351699989,None,,,sing9,001,2019_Dec_02_0858,ProdSingRedo,3.2.3,59.92498590349895,
,,,,126,0,126,0,,,,,,,,,,,,,,,,,,,,,,,,1080.4606109999877,None,,,,,,,,,,,,,,,,,exchange,new_c,white,126,163,121,1078.0357730000105,None,1078.0357730000105,None,1,1.6896313999895938,1078.0357730000105,None,1079.7774656999973,None,1080.298566500016,None,1080.298566500016,None,n,0.13081609999062493,1080.298566500016,None,,,sing9,001,2019_Dec_02_0858,ProdSingRedo,3.2.3,59.92498590349895,
,,,,127,0,127,0,,,,,,,,,,,,,,,,,,,,,,,,1083.496186400007,None,,,,,,,,,,,,,,,,,afternoon,new_c,white,127,161,3,1080.9842930999876,None,1080.9842930999876,None,1,1.429460499988636,1080.9842930999876,None,1082.454624200007,None,1082.9812763000082,None,1082.9812763000082,None,n,0.48803510001744144,1082.9812763000082,None,,,sing9,001,2019_Dec_02_0858,ProdSingRedo,3.2.3,59.92498590349895,
,,,,128,0,128,0,,,,,,,,,,,,,,,,,,,,,,,,1085.8893597999995,None,,,,,,,,,,,,,,,,,bright,sing,white,128,22,29,1084.02438670001,None,1084.02438670001,None,1,1.2209689999872353,1084.02438670001,None,1085.296329600009,None,1085.818808400014,None,1085.818808400014,None,n,0.04213879999588244,1085.818808400014,None,,,sing9,001,2019_Dec_02_0858,ProdSingRedo,3.2.3,59.92498590349895,
,,,,129,0,129,0,,,,,,,,,,,,,,,,,,,,,,,,1088.6672994999972,None,,,,,,,,,,,,,,,,,union,silent,white,129,76,344,1086.408965700015,None,1086.408965700015,None,1,1.6604078000236768,1086.408965700015,None,1088.1145636000147,None,1088.6373566999973,None,1088.6373566999973,None,n,0.007805899978848174,1088.6373566999973,None,,,sing9,001,2019_Dec_02_0858,ProdSingRedo,3.2.3,59.92498590349895,
,,,,130,0,130,0,,,,,,,,,,,,,,,,,,,,,,,,1091.952541000006,None,,,,,,,,,,,,,,,,,express,new_c,white,130,152,124,1089.1918479999877,None,1089.1918479999877,None,1,2.125517500011483,1089.1918479999877,None,1091.3608954999945,None,1091.8722509999934,None,1091.8722509999934,None,n,0.04497689998243004,1091.8722509999934,None,,,sing9,001,2019_Dec_02_0858,ProdSingRedo,3.2.3,59.92498590349895,
,,,,131,0,131,0,,,,,,,,,,,,,,,,,,,,,,,,1094.7573750000156,None,,,,,,,,,,,,,,,,,thick,new_b,white,131,135,327,1092.4816188999976,None,1092.4816188999976,None,1,1.5397702000045683,1092.4816188999976,None,1094.0727320000005,None,1094.5932123000093,None,1094.5932123000093,None,n,0.12426620000042021,1094.5932123000093,None,,,sing9,001,2019_Dec_02_0858,ProdSingRedo,3.2.3,59.92498590349895,
,,,,132,0,132,0,,,,,,,,,,,,,,,,,,,,,,,,1097.658971900004,None,,,,,,,,,,,,,,,,,candidate,aloud,white,132,31,39,1095.285197499994,None,1095.285197499994,None,6,1.5362980000209063,1095.285197499994,None,1096.8789460000116,None,1097.4026608999993,None,1097.4026608999993,None,r,0.21889580000424758,1097.4026608999993,None,,,sing9,001,2019_Dec_02_0858,ProdSingRedo,3.2.3,59.92498590349895,
,,,,133,0,133,0,,,,,,,,,,,,,,,,,,,,,,,,1100.2964149999898,None,,,,,,,,,,,,,,,,,literature,new_b,white,133,128,173,1098.1938665999915,None,1098.1938665999915,None,1,1.3715190999791957,1098.1938665999915,None,1099.6170824000146,None,1100.1362669999944,None,1100.1362669999944,None,n,0.1250953999988269,1100.1362669999944,None,,,sing9,001,2019_Dec_02_0858,ProdSingRedo,3.2.3,59.92498590349895,
,,,,134,0,134,0,,,,,,,,,,,,,,,,,,,,,,,,1103.9997259000083,None,,,,,,,,,,,,,,,,,silence,new_c,white,134,172,288,1100.8206005000102,None,1100.8206005000102,None,1,2.4647659999900497,1100.8206005000102,None,1103.3283867000137,None,1103.849583800009,None,1103.849583800009,None,n,0.11579640000127256,1103.849583800009,None,,,sing9,001,2019_Dec_02_0858,ProdSingRedo,3.2.3,59.92498590349895,
,,,,135,0,135,0,,,,,,,,,,,,,,,,,,,,,,,,1106.576725699997,None,,,,,,,,,,,,,,,,,permit,aloud,white,135,42,218,1104.521968999994,None,1104.521968999994,None,1,1.4275084999972023,1104.521968999994,None,1105.9972070000076,None,1106.5196178999904,None,1106.5196178999904,None,n,0.03743399999802932,1106.5196178999904,None,,,sing9,001,2019_Dec_02_0858,ProdSingRedo,3.2.3,59.92498590349895,
,,,,136,0,136,0,,,,,,,,,,,,,,,,,,,,,,,,1109.3792661000043,None,,,,,,,,,,,,,,,,,budget,new_a,white,136,114,34,1107.0972301000147,None,1107.0972301000147,None,1,1.6440930000098888,1107.0972301000147,None,1108.7871831000084,None,1109.311323700007,None,1109.311323700007,None,n,0.037732700002379715,1109.311323700007,None,,,sing9,001,2019_Dec_02_0858,ProdSingRedo,3.2.3,59.92498590349895,
,,,,137,0,137,0,,,,,,,,,,,,,,,,,,,,,,,,1112.577003000013,None,,,,,,,,,,,,,,,,,appeal,aloud,white,137,41,9,1109.898921200016,None,1109.898921200016,None,1,1.3704328000021633,1109.898921200016,None,1111.316979299998,None,1111.8452642000047,None,1111.8452642000047,None,n,0.7043971999955829,1111.8452642000047,None,,,sing9,001,2019_Dec_02_0858,ProdSingRedo,3.2.3,59.92498590349895,
,,,,138,0,138,0,,,,,,,,,,,,,,,,,,,,,,,,1116.146563199989,None,,,,,,,,,,,,,,,,,solution,sing,white,138,2,294,1113.1036120000063,None,1113.1036120000063,None,3,2.229696199996397,1113.1036120000063,None,1115.3749924000003,None,1115.8988173000107,None,1115.8988173000107,None,f,0.2185135000036098,1115.8988173000107,None,,,sing9,001,2019_Dec_02_0858,ProdSingRedo,3.2.3,59.92498590349895,
,,,,139,0,139,0,,,,,,,,,,,,,,,,,,,,,,,,1119.8332519000105,None,,,,,,,,,,,,,,,,,suspect,new_c,white,139,158,318,1116.6722564999945,None,1116.6722564999945,None,3,2.44515980000142,1116.6722564999945,None,1119.1661850000091,None,1119.6870264000027,None,1119.6870264000027,None,f,0.11824959999648854,1119.6870264000027,None,,,sing9,001,2019_Dec_02_0858,ProdSingRedo,3.2.3,59.92498590349895,
,,,,140,0,140,0,,,,,,,,,,,,,,,,,,,,,,,,1122.572340499988,None,,,,,,,,,,,,,,,,,waste,silent,white,140,69,350,1120.358420900011,None,1120.358420900011,None,1,1.286990099994,1120.358420900011,None,1121.6992818000144,None,1122.2198502999963,None,1122.2198502999963,None,n,0.31348099999013357,1122.2198502999963,None,,,sing9,001,2019_Dec_02_0858,ProdSingRedo,3.2.3,59.92498590349895,
,,,,141,0,141,0,,,,,,,,,,,,,,,,,,,,,,,,1124.9383770000131,None,,,,,,,,,,,,,,,,,series,new_c,white,141,157,279,1123.0904447000066,None,1123.0904447000066,None,1,1.1307787999976426,1123.0904447000066,None,1124.2663568000135,None,1124.7861553000112,None,1124.7861553000112,None,n,0.12322370000765659,1124.7861553000112,None,,,sing9,001,2019_Dec_02_0858,ProdSingRedo,3.2.3,59.92498590349895,
,,,,142,0,142,0,,,,,,,,,,,,,,,,,,,,,,,,1127.0386227999988,None,,,,,,,,,,,,,,,,,month,sing,white,142,1,193,1125.461526500003,None,1125.461526500003,None,1,0.9439861999999266,1125.461526500003,None,1126.4519306000147,None,1126.9700841000013,None,1126.9700841000013,None,n,0.03509130000020377,1126.9700841000013,None,,,sing9,001,2019_Dec_02_0858,ProdSingRedo,3.2.3,59.92498590349895,
,,,,143,0,143,0,,,,,,,,,,,,,,,,,,,,,,,,1129.340946500015,None,,,,,,,,,,,,,,,,,hunger,sing,white,143,23,155,1127.5687060999917,None,1127.5687060999917,None,1,1.0126396999985445,1127.5687060999917,None,1128.6233141999983,None,1129.147336599999,None,1129.147336599999,None,n,0.15422619998571463,1129.147336599999,None,,,sing9,001,2019_Dec_02_0858,ProdSingRedo,3.2.3,59.92498590349895,
,,,,144,0,144,0,,,,,,,,,,,,,,,,,,,,,,,,1131.6761542999884,None,,,,,,,,,,,,,,,,,staff,new_b,white,144,127,301,1129.8690736000135,None,1129.8690736000135,None,1,1.0962754000211135,1129.8690736000135,None,1131.0098203000089,None,1131.5251714999904,None,1131.5251714999904,None,n,0.11213180000777356,1131.5251714999904,None,,,sing9,001,2019_Dec_02_0858,ProdSingRedo,3.2.3,59.92498590349895,
,,,,145,0,145,0,,,,,,,,,,,,,,,,,,,,,,,,1136.2650830000057,None,,,,,,,,,,,,,,,,,school,aloud,white,145,59,274,1132.2027249000093,None,1132.2027249000093,None,4,2.978627200005576,1132.2027249000093,None,1135.2224742000108,None,1135.7353913999978,None,1135.7353913999978,None,f,0.4941813000186812,1135.7353913999978,None,,,sing9,001,2019_Dec_02_0858,ProdSingRedo,3.2.3,59.92498590349895,
,,,,146,0,146,0,,,,,,,,,,,,,,,,,,,,,,,,1139.700214899989,None,,,,,,,,,,,,,,,,,piece,new_a,white,146,105,221,1136.788785200013,None,1136.788785200013,None,1,2.1366469000058714,1136.788785200013,None,1138.964487499994,None,1139.483238100016,None,1139.483238100016,None,n,0.17819770000642166,1139.483238100016,None,,,sing9,001,2019_Dec_02_0858,ProdSingRedo,3.2.3,59.92498590349895,
,,,,147,0,147,0,,,,,,,,,,,,,,,,,,,,,,,,1142.6392914000025,None,,,,,,,,,,,,,,,,,figure,sing,white,147,21,128,1140.2334408999886,None,1140.2334408999886,None,1,1.4838425000198185,1140.2334408999886,None,1141.7738012000045,None,1142.2920290000038,None,1142.2920290000038,None,n,0.32123989998945035,1142.2920290000038,None,,,sing9,001,2019_Dec_02_0858,ProdSingRedo,3.2.3,59.92498590349895,
,,,,148,0,148,0,,,,,,,,,,,,,,,,,,,,,,,,1147.327348699997,None,,,,,,,,,,,,,,,,,rural,aloud,white,148,34,269,1143.1674751999963,None,1143.1674751999963,None,6,3.3900768000166863,1143.1674751999963,None,1146.607454699988,None,1147.129357800004,None,1147.129357800004,None,r,0.17192289998638444,1147.129357800004,None,,,sing9,001,2019_Dec_02_0858,ProdSingRedo,3.2.3,59.92498590349895,
,,,,149,0,149,0,,,,,,,,,,,,,,,,,,,,,,,,1150.2958093000052,None,,,,,,,,,,,,,,,,,measure,new_c,white,149,171,184,1147.8537930999883,None,1147.8537930999883,None,6,1.7996516000130214,1147.8537930999883,None,1149.6956207999901,None,1150.2210004999943,None,1150.2210004999943,None,r,0.0402135000040289,1150.2210004999943,None,,,sing9,001,2019_Dec_02_0858,ProdSingRedo,3.2.3,59.92498590349895,
,,,,150,0,150,0,,,,,,,,,,,,,,,,,,,,,,,,1153.2170246999885,None,,,,,,,,,,,,,,,,,primary,aloud,white,150,54,234,1150.8229278000072,None,1150.8229278000072,None,6,1.2543790999916382,1150.8229278000072,None,1152.1351274999906,None,1152.6530939000077,None,1152.6530939000077,None,r,0.5281992999953218,1152.6530939000077,None,,,sing9,001,2019_Dec_02_0858,ProdSingRedo,3.2.3,59.92498590349895,
,,,,151,0,151,0,,,,,,,,,,,,,,,,,,,,,,,,1156.8590987999924,None,,,,,,,,,,,,,,,,,bicycle,aloud,white,151,37,21,1153.7505590000073,None,1153.7505590000073,None,1,2.478636699990602,1153.7505590000073,None,1156.2880223999964,None,1156.8103281999938,None,1156.8103281999938,None,n,0.02675039999303408,1156.8103281999938,None,,,sing9,001,2019_Dec_02_0858,ProdSingRedo,3.2.3,59.92498590349895,
,,,,152,0,152,0,,,,,,,,,,,,,,,,,,,,,,,,1159.3896204000048,None,,,,,,,,,,,,,,,,,fellow,new_b,white,152,120,126,1157.3816147999896,None,1157.3816147999896,None,1,0.9918078999908175,1157.3816147999896,None,1158.4165905000118,None,1158.9409018000006,None,1158.9409018000006,None,n,0.4163991000095848,1158.9409018000006,None,,,sing9,001,2019_Dec_02_0858,ProdSingRedo,3.2.3,59.92498590349895,
,,,,153,0,153,0,,,,,,,,,,,,,,,,,,,,,,,,1162.4749565999955,None,,,,,,,,,,,,,,,,,search,sing,white,153,9,276,1159.9146079999919,None,1159.9146079999919,None,2,0.8186108999943826,1159.9146079999919,None,1160.7909402000078,None,1161.310751300014,None,1161.310751300014,None,n,1.126420099986717,1161.310751300014,None,,,sing9,001,2019_Dec_02_0858,ProdSingRedo,3.2.3,59.92498590349895,
,,,,154,0,154,0,,,,,,,,,,,,,,,,,,,,,,,,1165.0004317999992,None,,,,,,,,,,,,,,,,,damage,silent,white,154,63,83,1162.9999324000091,None,1162.9999324000091,None,1,1.085298399993917,1162.9999324000091,None,1164.1411323999928,None,1164.667788199993,None,1164.667788199993,None,n,0.3048912000085693,1164.667788199993,None,,,sing9,001,2019_Dec_02_0858,ProdSingRedo,3.2.3,59.92498590349895,
,,,,155,0,155,0,,,,,,,,,,,,,,,,,,,,,,,,1167.1786473999964,None,,,,,,,,,,,,,,,,,hearing,sing,white,155,6,150,1165.5200834000134,None,1165.5200834000134,None,1,0.8452413000050001,1165.5200834000134,None,1166.4147232999967,None,1166.931901200005,None,1166.931901200005,None,n,0.20947760000126436,1166.931901200005,None,,,sing9,001,2019_Dec_02_0858,ProdSingRedo,3.2.3,59.92498590349895,
,,,,156,0,156,0,,,,,,,,,,,,,,,,,,,,,,,,1170.065849000006,None,,,,,,,,,,,,,,,,,travel,new_c,white,156,164,338,1167.70917680001,None,1167.70917680001,None,1,1.6722009000077378,1167.70917680001,None,1169.4290321000153,None,1169.9538649999886,None,1169.9538649999886,None,n,0.0753192999982275,1169.9538649999886,None,,,sing9,001,2019_Dec_02_0858,ProdSingRedo,3.2.3,59.92498590349895,
,,,,157,0,157,0,,,,,,,,,,,,,,,,,,,,,,,,1172.1344652000116,None,,,,,,,,,,,,,,,,,emergency,sing,white,157,24,110,1170.5984870000102,None,1170.5984870000102,None,1,0.806752200005576,1170.5984870000102,None,1171.4535031999985,None,1171.9724945999915,None,1171.9724945999915,None,n,0.12883179998607375,1171.9724945999915,None,,,sing9,001,2019_Dec_02_0858,ProdSingRedo,3.2.3,59.92498590349895,
,,,,158,0,158,0,,,,,,,,,,,,,,,,,,,,,,,,1174.7056589999993,None,,,,,,,,,,,,,,,,,marriage,new_c,white,158,162,179,1172.6606792999955,None,1172.6606792999955,None,1,1.2326199999952223,1172.6606792999955,None,1173.9360637000063,None,1174.457446299988,None,1174.457446299988,None,n,0.211749600013718,1174.457446299988,None,,,sing9,001,2019_Dec_02_0858,ProdSingRedo,3.2.3,59.92498590349895,
,,,,159,0,159,0,,,,,,,,,,,,,,,,,,,,,,,,1178.1414277000003,None,,,,,,,,,,,,,,,,,commercial,new_b,white,159,140,61,1175.2331025000021,None,1175.2331025000021,None,6,1.6601973000215366,1175.2331025000021,None,1176.9418161000067,None,1177.4621625000145,None,1177.4621625000145,None,r,0.6470169000094756,1177.4621625000145,None,,,sing9,001,2019_Dec_02_0858,ProdSingRedo,3.2.3,59.92498590349895,
,,,,160,0,160,0,,,,,,,,,,,,,,,,,,,,,,,,1180.993321099988,None,,,,,,,,,,,,,,,,,message,new_b,white,160,133,189,1178.661444199999,None,1178.661444199999,None,1,1.5678949000139255,1178.661444199999,None,1180.2763120000018,None,1180.7950700999936,None,1180.7950700999936,None,n,0.16219050000654534,1180.7950700999936,None,,,sing9,001,2019_Dec_02_0858,ProdSingRedo,3.2.3,59.92498590349895,
,,,,161,0,161,0,,,,,,,,,,,,,,,,,,,,,,,,1184.3958410999912,None,,,,,,,,,,,,,,,,,company,sing,white,161,26,64,1181.5260838000104,None,1181.5260838000104,None,1,1.8231818999920506,1181.5260838000104,None,1183.3966135999945,None,1183.9161023999914,None,1183.9161023999914,None,n,0.44117169998935424,1183.9161023999914,None,,,sing9,001,2019_Dec_02_0858,ProdSingRedo,3.2.3,59.92498590349895,
,,,,162,0,162,0,,,,,,,,,,,,,,,,,,,,,,,,1186.7832210999914,None,,,,,,,,,,,,,,,,,brilliant,new_a,white,162,119,30,1184.9257717000146,None,1184.9257717000146,None,1,1.087494900013553,1184.9257717000146,None,1186.0669669999916,None,1186.5877635999932,None,1186.5877635999932,None,n,0.16948189999675378,1186.5877635999932,None,,,sing9,001,2019_Dec_02_0858,ProdSingRedo,3.2.3,59.92498590349895,
,,,,163,0,163,0,,,,,,,,,,,,,,,,,,,,,,,,1189.2492313999974,None,,,,,,,,,,,,,,,,,employment,new_a,white,163,115,111,1187.3061449000088,None,1187.3061449000088,None,1,1.18730739998864,1187.3061449000088,None,1188.5527445999905,None,1189.070409100008,None,1189.070409100008,None,n,0.14293000000179745,1189.070409100008,None,,,sing9,001,2019_Dec_02_0858,ProdSingRedo,3.2.3,59.92498590349895,
,,,,164,0,164,0,,,,,,,,,,,,,,,,,,,,,,,,1191.8380919999909,None,,,,,,,,,,,,,,,,,clear,new_a,white,164,108,52,1189.7780430999992,None,1189.7780430999992,None,1,1.3474451000220142,1189.7780430999992,None,1191.1715428000025,None,1191.691209200013,None,1191.691209200013,None,n,0.11407609999878332,1191.691209200013,None,,,sing9,001,2019_Dec_02_0858,ProdSingRedo,3.2.3,59.92498590349895,
,,,,165,0,165,0,,,,,,,,,,,,,,,,,,,,,,,,1194.0839772000036,None,,,,,,,,,,,,,,,,,sight,new_c,white,165,178,286,1192.3647557999939,None,1192.3647557999939,None,1,1.0963793999981135,1192.3647557999939,None,1193.5042492999928,None,1194.0240549999871,None,1194.0240549999871,None,n,0.037062999996123835,1194.0240549999871,None,,,sing9,001,2019_Dec_02_0858,ProdSingRedo,3.2.3,59.92498590349895,
,,,,166,0,166,0,,,,,,,,,,,,,,,,,,,,,,,,1196.2410388000135,None,,,,,,,,,,,,,,,,,blind,new_c,white,166,166,24,1194.6135696000129,None,1194.6135696000129,None,1,0.8876936000015121,1194.6135696000129,None,1195.5551485999895,None,1196.0759461999987,None,1196.0759461999987,None,n,0.12919230002444237,1196.0759461999987,None,,,sing9,001,2019_Dec_02_0858,ProdSingRedo,3.2.3,59.92498590349895,
,,,,167,0,167,0,,,,,,,,,,,,,,,,,,,,,,,,1198.3930930999923,None,,,,,,,,,,,,,,,,,division,new_a,white,167,99,101,1196.769688100001,None,1196.769688100001,None,1,0.971780599997146,1196.769688100001,None,1197.794747100008,None,1198.3144445999933,None,1198.3144445999933,None,n,0.04270459999679588,1198.3144445999933,None,,,sing9,001,2019_Dec_02_0858,ProdSingRedo,3.2.3,59.92498590349895,
,,,,168,0,168,0,,,,,,,,,,,,,,,,,,,,,,,,1201.6800461999956,None,,,,,,,,,,,,,,,,,government,sing,white,168,3,139,1198.9295472000085,None,1198.9295472000085,None,6,1.7079193999816198,1198.9295472000085,None,1200.681623899989,None,1201.206554400007,None,1201.206554400007,None,r,0.43856809998396784,1201.206554400007,None,,,sing9,001,2019_Dec_02_0858,ProdSingRedo,3.2.3,59.92498590349895,
,,,,169,0,169,0,,,,,,,,,,,,,,,,,,,,,,,,1203.9150403999956,None,,,,,,,,,,,,,,,,,design,sing,white,169,25,91,1202.2077897000127,None,1202.2077897000127,None,1,0.9814786000060849,1202.2077897000127,None,1203.2311634999933,None,1203.7520849000139,None,1203.7520849000139,None,n,0.12534719999530353,1203.7520849000139,None,,,sing9,001,2019_Dec_02_0858,ProdSingRedo,3.2.3,59.92498590349895,
,,,,170,0,170,0,,,,,,,,,,,,,,,,,,,,,,,,1206.5202014000097,None,,,,,,,,,,,,,,,,,stranger,new_c,white,170,179,309,1204.445690499997,None,1204.445690499997,None,1,1.0075542000122368,1204.445690499997,None,1205.5070675000024,None,1206.022025400016,None,1206.022025400016,None,n,0.4713800000026822,1206.022025400016,None,,,sing9,001,2019_Dec_02_0858,ProdSingRedo,3.2.3,59.92498590349895,
,,,,171,0,171,0,,,,,,,,,,,,,,,,,,,,,,,,1208.8695708999876,None,,,,,,,,,,,,,,,,,sweet,new_a,white,171,95,319,1207.0439396000002,None,1207.0439396000002,None,1,1.129341799998656,1207.0439396000002,None,1208.2134689000086,None,1208.7406196999946,None,1208.7406196999946,None,n,0.09664679999696091,1208.7406196999946,None,,,sing9,001,2019_Dec_02_0858,ProdSingRedo,3.2.3,59.92498590349895,
,,,,172,0,172,0,,,,,,,,,,,,,,,,,,,,,,,,1211.0554707999981,None,,,,,,,,,,,,,,,,,present,silent,white,172,82,231,1209.396532499988,None,1209.396532499988,None,1,0.9527112000214402,1209.396532499988,None,1210.405258999992,None,1210.9232469999988,None,1210.9232469999988,None,n,0.10578630000236444,1210.9232469999988,None,,,sing9,001,2019_Dec_02_0858,ProdSingRedo,3.2.3,59.92498590349895,
,,,,173,0,173,0,,,,,,,,,,,,,,,,,,,,,,,,1213.2551656000142,None,,,,,,,,,,,,,,,,,touch,silent,white,173,88,332,1211.5840361999872,None,1211.5840361999872,None,1,1.0692492999951355,1211.5840361999872,None,1212.706440400012,None,1213.2269216999994,None,1213.2269216999994,None,n,0.01010889999452047,1213.2269216999994,None,,,sing9,001,2019_Dec_02_0858,ProdSingRedo,3.2.3,59.92498590349895,
,,,,174,0,174,0,,,,,,,,,,,,,,,,,,,,,,,,1215.5433731999947,None,,,,,,,,,,,,,,,,,throw,new_c,white,174,156,330,1213.7850865999935,None,1213.7850865999935,None,1,0.884322500001872,1213.7850865999935,None,1214.7273548000085,None,1215.2460894999967,None,1215.2460894999967,None,n,0.26313300000038,1215.2460894999967,None,,,sing9,001,2019_Dec_02_0858,ProdSingRedo,3.2.3,59.92498590349895,
,,,,175,0,175,0,,,,,,,,,,,,,,,,,,,,,,,,1217.4952420000045,None,,,,,,,,,,,,,,,,,course,new_b,white,175,130,74,1216.0683964999916,None,1216.0683964999916,None,1,0.7530250999843702,1216.0683964999916,None,1216.8768263999955,None,1217.3999118999927,None,1217.3999118999927,None,n,0.06096189998788759,1217.3999118999927,None,,,sing9,001,2019_Dec_02_0858,ProdSingRedo,3.2.3,59.92498590349895,
,,,,176,0,176,0,,,,,,,,,,,,,,,,,,,,,,,,1220.5003665999975,None,,,,,,,,,,,,,,,,,character,aloud,white,176,58,46,1218.022892100009,None,1218.022892100009,None,6,1.3902136000106111,1218.022892100009,None,1219.4686740000034,None,1219.9917181000055,None,1219.9917181000055,None,r,0.4776434999948833,1219.9917181000055,None,,,sing9,001,2019_Dec_02_0858,ProdSingRedo,3.2.3,59.92498590349895,
,,,,177,0,177,0,,,,,,,,,,,,,,,,,,,,,,,,1223.1696955999942,None,,,,,,,,,,,,,,,,,report,new_a,white,177,98,259,1221.019671499991,None,1221.019671499991,None,1,1.4734488000103738,1221.019671499991,None,1222.532077700016,None,1223.0528773000115,None,1223.0528773000115,None,n,0.08838629999081604,1223.0528773000115,None,,,sing9,001,2019_Dec_02_0858,ProdSingRedo,3.2.3,59.92498590349895,
,,,,178,0,178,0,,,,,,,,,,,,,,,,,,,,,,,,1225.4502804999938,None,,,,,,,,,,,,,,,,,country,new_c,white,178,159,73,1223.6971762999892,None,1223.6971762999892,None,1,1.0282264999987092,1223.6971762999892,None,1224.7712828000076,None,1225.2774359000032,None,1225.2774359000032,None,n,0.13565009998274036,1225.2774359000032,None,,,sing9,001,2019_Dec_02_0858,ProdSingRedo,3.2.3,59.92498590349895,
,,,,179,0,179,0,,,,,,,,,,,,,,,,,,,,,,,,1229.841773299995,None,,,,,,,,,,,,,,,,,detective,silent,white,179,64,92,1225.9832640000095,None,1225.9832640000095,None,4,3.0379943999869283,1225.9832640000095,None,1229.0701319999935,None,1229.5967334999877,None,1229.5967334999877,None,f,0.21675319998757914,1229.5967334999877,None,,,sing9,001,2019_Dec_02_0858,ProdSingRedo,3.2.3,59.92498590349895,
,,,,,,,,,,,,,,,,,,,,,,,,,,,,,,,,,,,,,,,,,,,,,,,,,,,,,,,,,,,,,,,,,,,,,,,,,1230.3500179999974,None,,,,,,,
