StudyLoop.thisRepN,StudyLoop.thisTrialN,StudyLoop.thisN,StudyLoop.thisIndex,TestLoop.thisRepN,TestLoop.thisTrialN,TestLoop.thisN,TestLoop.thisIndex,textCondition.started,textCondition.stopped,keyCondition.keys,keyCondition.rt,keyCondition.started,keyCondition.stopped,Condition,stim_colors,color_sing,color_aloud,color_silent,textWelcome.started,textWelcome.stopped,keyWelcome.keys,keyWelcome.rt,keyWelcome.started,keyWelcome.stopped,textAloud.started,textAloud.stopped,textSilent.started,textSilent.stopped,textSing.started,textSing.stopped,textBlank500.started,textBlank500.stopped,study_word,study_type,study_color,study_num,study_word_num,textStudy.started,textStudy.stopped,keyStudy.keys,keyStudy.started,keyStudy.stopped,textTestInstructions.started,textTestInstructions.stopped,key_resp_3.keys,key_resp_3.rt,key_resp_3.started,key_resp_3.stopped,testWord,testType,testColor,testN,test_num,test_word_num,textConf.started,textConf.stopped,textConfScale.started,textConfScale.stopped,keyConf.keys,keyConf.rt,keyConf.started,keyConf.stopped,textTestBlank.started,textTestBlank.stopped,textRKN.started,textRKN.stopped,textRKNScale.started,textRKNScale.stopped,keyRKN.keys,keyRKN.rt,keyRKN.started,keyRKN.stopped,textEnd.started,textEnd.stopped,participant,session,date,expName,psychopyVersion,frameRate,
,,,,,,,,11.716886000009254,None,n,2.345803199801594,11.716886000009254,None,,,,,,,,,,,,,,,,,,,,,,,,,,,,,,,,,,,,,,,,,,,,,,,,,,,,,,,,,,,,,,NC20,001,2021_Nov_04_1030,ProdSingRedo,3.2.3,59.87615208832419,
,,,,,,,,,,,,,,NeutralTest,"['red', 'blue', 'yellow']",red,blue,yellow,14.095220500137657,None,space,182.4084606000688,14.095220500137657,None,,,,,,,,,,,,,,,,,,,,,,,,,,,,,,,,,,,,,,,,,,,,,,,,,,,NC20,001,2021_Nov_04_1030,ProdSingRedo,3.2.3,59.87615208832419,
0,0,0,0,,,,,,,,,,,,,,,,,,,,,,14.095220500137657,None,14.095220500137657,None,14.095220500137657,None,199.06141720013693,None,write,aloud,blue,56,358,197.04854340013117,None,None,197.04854340013117,None,,,,,,,,,,,,,,,,,,,,,,,,,,,,,,,,,NC20,001,2021_Nov_04_1030,ProdSingRedo,3.2.3,59.87615208832419,
1,0,1,0,,,,,,,,,,,,,,,,,,,,,,,,,,,,201.5764961000532,None,impact,sing,red,15,157,199.57214840012603,None,None,199.57214840012603,None,,,,,,,,,,,,,,,,,,,,,,,,,,,,,,,,,NC20,001,2021_Nov_04_1030,ProdSingRedo,3.2.3,59.87615208832419,
2,0,2,0,,,,,,,,,,,,,,,,,,,,,,,,,,,,204.0923357999418,None,mankind,aloud,blue,36,178,202.09571860008873,None,None,202.09571860008873,None,,,,,,,,,,,,,,,,,,,,,,,,,,,,,,,,,NC20,001,2021_Nov_04_1030,ProdSingRedo,3.2.3,59.87615208832419,
3,0,3,0,,,,,,,,,,,,,,,,,,,,,,,,,,,,206.61017210013233,None,service,sing,red,10,280,204.59680930012837,None,None,204.59680930012837,None,,,,,,,,,,,,,,,,,,,,,,,,,,,,,,,,,NC20,001,2021_Nov_04_1030,ProdSingRedo,3.2.3,59.87615208832419,
4,0,4,0,,,,,,,,,,,,,,,,,,,,,,,,,,,,209.12709800014272,None,crime,silent,yellow,66,78,207.11931470013224,None,None,207.11931470013224,None,,,,,,,,,,,,,,,,,,,,,,,,,,,,,,,,,NC20,001,2021_Nov_04_1030,ProdSingRedo,3.2.3,59.87615208832419,
5,0,5,0,,,,,,,,,,,,,,,,,,,,,,,,,,,,211.64388600015081,None,trail,silent,yellow,81,336,209.64019960002042,None,None,209.64019960002042,None,,,,,,,,,,,,,,,,,,,,,,,,,,,,,,,,,NC20,001,2021_Nov_04_1030,ProdSingRedo,3.2.3,59.87615208832419,
6,0,6,0,,,,,,,,,,,,,,,,,,,,,,,,,,,,214.1606974999886,None,bitter,aloud,blue,46,23,212.15798060013913,None,None,212.15798060013913,None,,,,,,,,,,,,,,,,,,,,,,,,,,,,,,,,,NC20,001,2021_Nov_04_1030,ProdSingRedo,3.2.3,59.87615208832419,
7,0,7,0,,,,,,,,,,,,,,,,,,,,,,,,,,,,216.67653320007958,None,crisis,silent,yellow,65,79,214.66943929996341,None,None,214.66943929996341,None,,,,,,,,,,,,,,,,,,,,,,,,,,,,,,,,,NC20,001,2021_Nov_04_1030,ProdSingRedo,3.2.3,59.87615208832419,
8,0,8,0,,,,,,,,,,,,,,,,,,,,,,,,,,,,219.19437919999473,None,department,sing,red,12,90,217.19740910013206,None,None,217.19740910013206,None,,,,,,,,,,,,,,,,,,,,,,,,,,,,,,,,,NC20,001,2021_Nov_04_1030,ProdSingRedo,3.2.3,59.87615208832419,
9,0,9,0,,,,,,,,,,,,,,,,,,,,,,,,,,,,221.71155639993958,None,management,aloud,blue,49,177,219.7107772999443,None,None,219.7107772999443,None,,,,,,,,,,,,,,,,,,,,,,,,,,,,,,,,,NC20,001,2021_Nov_04_1030,ProdSingRedo,3.2.3,59.87615208832419,
10,0,10,0,,,,,,,,,,,,,,,,,,,,,,,,,,,,224.2287755999714,None,route,silent,yellow,80,267,222.22626619995572,None,None,222.22626619995572,None,,,,,,,,,,,,,,,,,,,,,,,,,,,,,,,,,NC20,001,2021_Nov_04_1030,ProdSingRedo,3.2.3,59.87615208832419,
11,0,11,0,,,,,,,,,,,,,,,,,,,,,,,,,,,,226.74486259999685,None,collection,sing,red,3,54,224.73779270006344,None,None,224.73779270006344,None,,,,,,,,,,,,,,,,,,,,,,,,,,,,,,,,,NC20,001,2021_Nov_04_1030,ProdSingRedo,3.2.3,59.87615208832419,
12,0,12,0,,,,,,,,,,,,,,,,,,,,,,,,,,,,229.26190769998357,None,match,aloud,blue,55,181,227.25754499994218,None,None,227.25754499994218,None,,,,,,,,,,,,,,,,,,,,,,,,,,,,,,,,,NC20,001,2021_Nov_04_1030,ProdSingRedo,3.2.3,59.87615208832419,
13,0,13,0,,,,,,,,,,,,,,,,,,,,,,,,,,,,231.77850820007734,None,sound,silent,yellow,78,295,229.76545830001123,None,None,229.76545830001123,None,,,,,,,,,,,,,,,,,,,,,,,,,,,,,,,,,NC20,001,2021_Nov_04_1030,ProdSingRedo,3.2.3,59.87615208832419,
14,0,14,0,,,,,,,,,,,,,,,,,,,,,,,,,,,,234.29546670010313,None,novel,silent,yellow,79,202,232.28899380005896,None,None,232.28899380005896,None,,,,,,,,,,,,,,,,,,,,,,,,,,,,,,,,,NC20,001,2021_Nov_04_1030,ProdSingRedo,3.2.3,59.87615208832419,
15,0,15,0,,,,,,,,,,,,,,,,,,,,,,,,,,,,236.7946733001154,None,conference,silent,yellow,71,66,234.79617150011472,None,None,234.79617150011472,None,,,,,,,,,,,,,,,,,,,,,,,,,,,,,,,,,NC20,001,2021_Nov_04_1030,ProdSingRedo,3.2.3,59.87615208832419,
16,0,16,0,,,,,,,,,,,,,,,,,,,,,,,,,,,,239.3127731999848,None,trial,sing,red,25,341,237.31143960007466,None,None,237.31143960007466,None,,,,,,,,,,,,,,,,,,,,,,,,,,,,,,,,,NC20,001,2021_Nov_04_1030,ProdSingRedo,3.2.3,59.87615208832419,
17,0,17,0,,,,,,,,,,,,,,,,,,,,,,,,,,,,241.82865449995734,None,pattern,aloud,blue,34,214,239.82611400005408,None,None,239.82611400005408,None,,,,,,,,,,,,,,,,,,,,,,,,,,,,,,,,,NC20,001,2021_Nov_04_1030,ProdSingRedo,3.2.3,59.87615208832419,
18,0,18,0,,,,,,,,,,,,,,,,,,,,,,,,,,,,244.33065260015428,None,escape,aloud,blue,35,118,242.32937330007553,None,None,242.32937330007553,None,,,,,,,,,,,,,,,,,,,,,,,,,,,,,,,,,NC20,001,2021_Nov_04_1030,ProdSingRedo,3.2.3,59.87615208832419,
19,0,19,0,,,,,,,,,,,,,,,,,,,,,,,,,,,,246.86287580011413,None,discussion,aloud,blue,31,96,244.86181810009293,None,None,244.86181810009293,None,,,,,,,,,,,,,,,,,,,,,,,,,,,,,,,,,NC20,001,2021_Nov_04_1030,ProdSingRedo,3.2.3,59.87615208832419,
20,0,20,0,,,,,,,,,,,,,,,,,,,,,,,,,,,,249.37903810013086,None,strain,sing,red,17,308,247.37160379998386,None,None,247.37160379998386,None,,,,,,,,,,,,,,,,,,,,,,,,,,,,,,,,,NC20,001,2021_Nov_04_1030,ProdSingRedo,3.2.3,59.87615208832419,
21,0,21,0,,,,,,,,,,,,,,,,,,,,,,,,,,,,251.89619290013798,None,weight,sing,red,27,353,249.89222920010798,None,None,249.89222920010798,None,,,,,,,,,,,,,,,,,,,,,,,,,,,,,,,,,NC20,001,2021_Nov_04_1030,ProdSingRedo,3.2.3,59.87615208832419,
22,0,22,0,,,,,,,,,,,,,,,,,,,,,,,,,,,,254.41388130001724,None,generation,silent,yellow,83,136,252.4142998000607,None,None,252.4142998000607,None,,,,,,,,,,,,,,,,,,,,,,,,,,,,,,,,,NC20,001,2021_Nov_04_1030,ProdSingRedo,3.2.3,59.87615208832419,
23,0,23,0,,,,,,,,,,,,,,,,,,,,,,,,,,,,256.9302900999319,None,company,aloud,blue,45,64,254.9391970001161,None,None,254.9391970001161,None,,,,,,,,,,,,,,,,,,,,,,,,,,,,,,,,,NC20,001,2021_Nov_04_1030,ProdSingRedo,3.2.3,59.87615208832419,
24,0,24,0,,,,,,,,,,,,,,,,,,,,,,,,,,,,259.4471319001168,None,answer,aloud,blue,50,8,257.448002200108,None,None,257.448002200108,None,,,,,,,,,,,,,,,,,,,,,,,,,,,,,,,,,NC20,001,2021_Nov_04_1030,ProdSingRedo,3.2.3,59.87615208832419,
25,0,25,0,,,,,,,,,,,,,,,,,,,,,,,,,,,,261.9642247001175,None,level,aloud,blue,44,170,259.9649094999768,None,None,259.9649094999768,None,,,,,,,,,,,,,,,,,,,,,,,,,,,,,,,,,NC20,001,2021_Nov_04_1030,ProdSingRedo,3.2.3,59.87615208832419,
26,0,26,0,,,,,,,,,,,,,,,,,,,,,,,,,,,,264.480082700029,None,foundation,sing,red,21,132,262.4828362001572,None,None,262.4828362001572,None,,,,,,,,,,,,,,,,,,,,,,,,,,,,,,,,,NC20,001,2021_Nov_04_1030,ProdSingRedo,3.2.3,59.87615208832419,
27,0,27,0,,,,,,,,,,,,,,,,,,,,,,,,,,,,266.9976782000158,None,community,silent,yellow,77,63,264.9829792000819,None,None,264.9829792000819,None,,,,,,,,,,,,,,,,,,,,,,,,,,,,,,,,,NC20,001,2021_Nov_04_1030,ProdSingRedo,3.2.3,59.87615208832419,
28,0,28,0,,,,,,,,,,,,,,,,,,,,,,,,,,,,269.51498400000855,None,equipment,aloud,blue,39,116,267.52055190014653,None,None,267.52055190014653,None,,,,,,,,,,,,,,,,,,,,,,,,,,,,,,,,,NC20,001,2021_Nov_04_1030,ProdSingRedo,3.2.3,59.87615208832419,
29,0,29,0,,,,,,,,,,,,,,,,,,,,,,,,,,,,272.03136090002954,None,interview,aloud,blue,58,165,270.0295236001257,None,None,270.0295236001257,None,,,,,,,,,,,,,,,,,,,,,,,,,,,,,,,,,NC20,001,2021_Nov_04_1030,ProdSingRedo,3.2.3,59.87615208832419,
30,0,30,0,,,,,,,,,,,,,,,,,,,,,,,,,,,,274.54818090004846,None,swift,aloud,blue,54,320,272.54533049999736,None,None,272.54533049999736,None,,,,,,,,,,,,,,,,,,,,,,,,,,,,,,,,,NC20,001,2021_Nov_04_1030,ProdSingRedo,3.2.3,59.87615208832419,
31,0,31,0,,,,,,,,,,,,,,,,,,,,,,,,,,,,277.0485646999441,None,notice,aloud,blue,30,201,275.0490789001342,None,None,275.0490789001342,None,,,,,,,,,,,,,,,,,,,,,,,,,,,,,,,,,NC20,001,2021_Nov_04_1030,ProdSingRedo,3.2.3,59.87615208832419,
32,0,32,0,,,,,,,,,,,,,,,,,,,,,,,,,,,,279.5653488000389,None,heavy,silent,yellow,84,151,277.5603054999374,None,None,277.5603054999374,None,,,,,,,,,,,,,,,,,,,,,,,,,,,,,,,,,NC20,001,2021_Nov_04_1030,ProdSingRedo,3.2.3,59.87615208832419,
33,0,33,0,,,,,,,,,,,,,,,,,,,,,,,,,,,,282.08411019993946,None,corner,aloud,blue,37,69,280.0745016001165,None,None,280.0745016001165,None,,,,,,,,,,,,,,,,,,,,,,,,,,,,,,,,,NC20,001,2021_Nov_04_1030,ProdSingRedo,3.2.3,59.87615208832419,
34,0,34,0,,,,,,,,,,,,,,,,,,,,,,,,,,,,284.6003819000907,None,audience,aloud,blue,59,14,282.5944662000984,None,None,282.5944662000984,None,,,,,,,,,,,,,,,,,,,,,,,,,,,,,,,,,NC20,001,2021_Nov_04_1030,ProdSingRedo,3.2.3,59.87615208832419,
35,0,35,0,,,,,,,,,,,,,,,,,,,,,,,,,,,,287.1155863001477,None,store,silent,yellow,67,305,285.10750479996204,None,None,285.10750479996204,None,,,,,,,,,,,,,,,,,,,,,,,,,,,,,,,,,NC20,001,2021_Nov_04_1030,ProdSingRedo,3.2.3,59.87615208832419,
36,0,36,0,,,,,,,,,,,,,,,,,,,,,,,,,,,,289.6324714999646,None,union,sing,red,23,344,287.63322219997644,None,None,287.63322219997644,None,,,,,,,,,,,,,,,,,,,,,,,,,,,,,,,,,NC20,001,2021_Nov_04_1030,ProdSingRedo,3.2.3,59.87615208832419,
37,0,37,0,,,,,,,,,,,,,,,,,,,,,,,,,,,,292.14929630002007,None,agency,sing,red,28,4,290.1467713001184,None,None,290.1467713001184,None,,,,,,,,,,,,,,,,,,,,,,,,,,,,,,,,,NC20,001,2021_Nov_04_1030,ProdSingRedo,3.2.3,59.87615208832419,
38,0,38,0,,,,,,,,,,,,,,,,,,,,,,,,,,,,294.66481729992665,None,waste,aloud,blue,42,350,292.6603987000417,None,None,292.6603987000417,None,,,,,,,,,,,,,,,,,,,,,,,,,,,,,,,,,NC20,001,2021_Nov_04_1030,ProdSingRedo,3.2.3,59.87615208832419,
39,0,39,0,,,,,,,,,,,,,,,,,,,,,,,,,,,,297.16599040012807,None,edition,silent,yellow,68,107,295.16567220003344,None,None,295.16567220003344,None,,,,,,,,,,,,,,,,,,,,,,,,,,,,,,,,,NC20,001,2021_Nov_04_1030,ProdSingRedo,3.2.3,59.87615208832419,
40,0,40,0,,,,,,,,,,,,,,,,,,,,,,,,,,,,299.68312770011835,None,leader,sing,red,0,168,297.6822645000648,None,None,297.6822645000648,None,,,,,,,,,,,,,,,,,,,,,,,,,,,,,,,,,NC20,001,2021_Nov_04_1030,ProdSingRedo,3.2.3,59.87615208832419,
41,0,41,0,,,,,,,,,,,,,,,,,,,,,,,,,,,,302.1999403000809,None,government,silent,yellow,89,139,300.2015764999669,None,None,300.2015764999669,None,,,,,,,,,,,,,,,,,,,,,,,,,,,,,,,,,NC20,001,2021_Nov_04_1030,ProdSingRedo,3.2.3,59.87615208832419,
42,0,42,0,,,,,,,,,,,,,,,,,,,,,,,,,,,,304.7157199999783,None,clear,sing,red,2,52,302.71267629996873,None,None,302.71267629996873,None,,,,,,,,,,,,,,,,,,,,,,,,,,,,,,,,,NC20,001,2021_Nov_04_1030,ProdSingRedo,3.2.3,59.87615208832419,
43,0,43,0,,,,,,,,,,,,,,,,,,,,,,,,,,,,307.21897909999825,None,permit,silent,yellow,72,218,305.2162975000683,None,None,305.2162975000683,None,,,,,,,,,,,,,,,,,,,,,,,,,,,,,,,,,NC20,001,2021_Nov_04_1030,ProdSingRedo,3.2.3,59.87615208832419,
44,0,44,0,,,,,,,,,,,,,,,,,,,,,,,,,,,,309.7505898999516,None,hearing,silent,yellow,70,150,307.7586544000078,None,None,307.7586544000078,None,,,,,,,,,,,,,,,,,,,,,,,,,,,,,,,,,NC20,001,2021_Nov_04_1030,ProdSingRedo,3.2.3,59.87615208832419,
45,0,45,0,,,,,,,,,,,,,,,,,,,,,,,,,,,,312.267355900025,None,marriage,aloud,blue,53,179,310.2688635000959,None,None,310.2688635000959,None,,,,,,,,,,,,,,,,,,,,,,,,,,,,,,,,,NC20,001,2021_Nov_04_1030,ProdSingRedo,3.2.3,59.87615208832419,
46,0,46,0,,,,,,,,,,,,,,,,,,,,,,,,,,,,314.78423360013403,None,birth,sing,red,16,22,312.77978960005566,None,None,312.77978960005566,None,,,,,,,,,,,,,,,,,,,,,,,,,,,,,,,,,NC20,001,2021_Nov_04_1030,ProdSingRedo,3.2.3,59.87615208832419,
47,0,47,0,,,,,,,,,,,,,,,,,,,,,,,,,,,,317.30105899996124,None,cover,silent,yellow,86,77,315.2965092000086,None,None,315.2965092000086,None,,,,,,,,,,,,,,,,,,,,,,,,,,,,,,,,,NC20,001,2021_Nov_04_1030,ProdSingRedo,3.2.3,59.87615208832419,
48,0,48,0,,,,,,,,,,,,,,,,,,,,,,,,,,,,319.81717559997924,None,shear,silent,yellow,60,283,317.8145896999631,None,None,317.8145896999631,None,,,,,,,,,,,,,,,,,,,,,,,,,,,,,,,,,NC20,001,2021_Nov_04_1030,ProdSingRedo,3.2.3,59.87615208832419,
49,0,49,0,,,,,,,,,,,,,,,,,,,,,,,,,,,,322.3347184001468,None,beginning,sing,red,14,19,320.3397538000718,None,None,320.3397538000718,None,,,,,,,,,,,,,,,,,,,,,,,,,,,,,,,,,NC20,001,2021_Nov_04_1030,ProdSingRedo,3.2.3,59.87615208832419,
50,0,50,0,,,,,,,,,,,,,,,,,,,,,,,,,,,,324.85061049996875,None,tragedy,sing,red,26,335,322.8507385000121,None,None,322.8507385000121,None,,,,,,,,,,,,,,,,,,,,,,,,,,,,,,,,,NC20,001,2021_Nov_04_1030,ProdSingRedo,3.2.3,59.87615208832419,
51,0,51,0,,,,,,,,,,,,,,,,,,,,,,,,,,,,327.3517972000409,None,center,silent,yellow,62,44,325.35165790002793,None,None,325.35165790002793,None,,,,,,,,,,,,,,,,,,,,,,,,,,,,,,,,,NC20,001,2021_Nov_04_1030,ProdSingRedo,3.2.3,59.87615208832419,
52,0,52,0,,,,,,,,,,,,,,,,,,,,,,,,,,,,329.8685749999713,None,breath,silent,yellow,74,27,327.87074130005203,None,None,327.87074130005203,None,,,,,,,,,,,,,,,,,,,,,,,,,,,,,,,,,NC20,001,2021_Nov_04_1030,ProdSingRedo,3.2.3,59.87615208832419,
53,0,53,0,,,,,,,,,,,,,,,,,,,,,,,,,,,,332.38447370007634,None,science,sing,red,6,275,330.37762259994633,None,None,330.37762259994633,None,,,,,,,,,,,,,,,,,,,,,,,,,,,,,,,,,NC20,001,2021_Nov_04_1030,ProdSingRedo,3.2.3,59.87615208832419,
54,0,54,0,,,,,,,,,,,,,,,,,,,,,,,,,,,,334.9022560000885,None,institute,silent,yellow,75,162,332.90701730013825,None,None,332.90701730013825,None,,,,,,,,,,,,,,,,,,,,,,,,,,,,,,,,,NC20,001,2021_Nov_04_1030,ProdSingRedo,3.2.3,59.87615208832419,
55,0,55,0,,,,,,,,,,,,,,,,,,,,,,,,,,,,337.4192520000506,None,nature,silent,yellow,76,200,335.41753450012766,None,None,335.41753450012766,None,,,,,,,,,,,,,,,,,,,,,,,,,,,,,,,,,NC20,001,2021_Nov_04_1030,ProdSingRedo,3.2.3,59.87615208832419,
56,0,56,0,,,,,,,,,,,,,,,,,,,,,,,,,,,,339.935923299985,None,graduate,sing,red,18,141,337.93915760004893,None,None,337.93915760004893,None,,,,,,,,,,,,,,,,,,,,,,,,,,,,,,,,,NC20,001,2021_Nov_04_1030,ProdSingRedo,3.2.3,59.87615208832419,
57,0,57,0,,,,,,,,,,,,,,,,,,,,,,,,,,,,342.4523734000977,None,whole,sing,red,22,355,340.4473510000389,None,None,340.4473510000389,None,,,,,,,,,,,,,,,,,,,,,,,,,,,,,,,,,NC20,001,2021_Nov_04_1030,ProdSingRedo,3.2.3,59.87615208832419,
58,0,58,0,,,,,,,,,,,,,,,,,,,,,,,,,,,,344.9695576999802,None,council,sing,red,7,71,342.9639980001375,None,None,342.9639980001375,None,,,,,,,,,,,,,,,,,,,,,,,,,,,,,,,,,NC20,001,2021_Nov_04_1030,ProdSingRedo,3.2.3,59.87615208832419,
59,0,59,0,,,,,,,,,,,,,,,,,,,,,,,,,,,,347.486539500067,None,color,silent,yellow,69,56,345.4777105001267,None,None,345.4777105001267,None,,,,,,,,,,,,,,,,,,,,,,,,,,,,,,,,,NC20,001,2021_Nov_04_1030,ProdSingRedo,3.2.3,59.87615208832419,
60,0,60,0,,,,,,,,,,,,,,,,,,,,,,,,,,,,350.00331649999134,None,literature,silent,yellow,82,173,347.99959599995054,None,None,347.99959599995054,None,,,,,,,,,,,,,,,,,,,,,,,,,,,,,,,,,NC20,001,2021_Nov_04_1030,ProdSingRedo,3.2.3,59.87615208832419,
61,0,61,0,,,,,,,,,,,,,,,,,,,,,,,,,,,,352.52035180013627,None,territory,aloud,blue,48,324,350.50617119995877,None,None,350.50617119995877,None,,,,,,,,,,,,,,,,,,,,,,,,,,,,,,,,,NC20,001,2021_Nov_04_1030,ProdSingRedo,3.2.3,59.87615208832419,
62,0,62,0,,,,,,,,,,,,,,,,,,,,,,,,,,,,355.03602620004676,None,figure,aloud,blue,57,128,353.0350453001447,None,None,353.0350453001447,None,,,,,,,,,,,,,,,,,,,,,,,,,,,,,,,,,NC20,001,2021_Nov_04_1030,ProdSingRedo,3.2.3,59.87615208832419,
63,0,63,0,,,,,,,,,,,,,,,,,,,,,,,,,,,,357.55334670003504,None,executive,silent,yellow,61,122,355.5542306001298,None,None,355.5542306001298,None,,,,,,,,,,,,,,,,,,,,,,,,,,,,,,,,,NC20,001,2021_Nov_04_1030,ProdSingRedo,3.2.3,59.87615208832419,
64,0,64,0,,,,,,,,,,,,,,,,,,,,,,,,,,,,360.0706754999701,None,alert,sing,red,24,6,358.07234570011497,None,None,358.07234570011497,None,,,,,,,,,,,,,,,,,,,,,,,,,,,,,,,,,NC20,001,2021_Nov_04_1030,ProdSingRedo,3.2.3,59.87615208832419,
65,0,65,0,,,,,,,,,,,,,,,,,,,,,,,,,,,,362.5874614000786,None,quantity,silent,yellow,64,245,360.58782140002586,None,None,360.58782140002586,None,,,,,,,,,,,,,,,,,,,,,,,,,,,,,,,,,NC20,001,2021_Nov_04_1030,ProdSingRedo,3.2.3,59.87615208832419,
66,0,66,0,,,,,,,,,,,,,,,,,,,,,,,,,,,,365.1043839000631,None,murder,silent,yellow,88,195,363.1010907001328,None,None,363.1010907001328,None,,,,,,,,,,,,,,,,,,,,,,,,,,,,,,,,,NC20,001,2021_Nov_04_1030,ProdSingRedo,3.2.3,59.87615208832419,
67,0,67,0,,,,,,,,,,,,,,,,,,,,,,,,,,,,367.62044500000775,None,dream,aloud,blue,40,104,365.6178715999704,None,None,365.6178715999704,None,,,,,,,,,,,,,,,,,,,,,,,,,,,,,,,,,NC20,001,2021_Nov_04_1030,ProdSingRedo,3.2.3,59.87615208832419,
68,0,68,0,,,,,,,,,,,,,,,,,,,,,,,,,,,,370.1214012999553,None,sweet,sing,red,5,319,368.1201937000733,None,None,368.1201937000733,None,,,,,,,,,,,,,,,,,,,,,,,,,,,,,,,,,NC20,001,2021_Nov_04_1030,ProdSingRedo,3.2.3,59.87615208832419,
69,0,69,0,,,,,,,,,,,,,,,,,,,,,,,,,,,,372.6380161999259,None,column,sing,red,8,57,370.63768359995447,None,None,370.63768359995447,None,,,,,,,,,,,,,,,,,,,,,,,,,,,,,,,,,NC20,001,2021_Nov_04_1030,ProdSingRedo,3.2.3,59.87615208832419,
70,0,70,0,,,,,,,,,,,,,,,,,,,,,,,,,,,,375.15521700005047,None,grade,silent,yellow,85,140,373.155887800036,None,None,373.155887800036,None,,,,,,,,,,,,,,,,,,,,,,,,,,,,,,,,,NC20,001,2021_Nov_04_1030,ProdSingRedo,3.2.3,59.87615208832419,
71,0,71,0,,,,,,,,,,,,,,,,,,,,,,,,,,,,377.67068500001915,None,space,sing,red,19,297,375.66727810003795,None,None,375.66727810003795,None,,,,,,,,,,,,,,,,,,,,,,,,,,,,,,,,,NC20,001,2021_Nov_04_1030,ProdSingRedo,3.2.3,59.87615208832419,
72,0,72,0,,,,,,,,,,,,,,,,,,,,,,,,,,,,380.1889816999901,None,direction,aloud,blue,51,94,378.17957819998264,None,None,378.17957819998264,None,,,,,,,,,,,,,,,,,,,,,,,,,,,,,,,,,NC20,001,2021_Nov_04_1030,ProdSingRedo,3.2.3,59.87615208832419,
73,0,73,0,,,,,,,,,,,,,,,,,,,,,,,,,,,,382.70567360008135,None,prime,sing,red,4,235,380.6960476001259,None,None,380.6960476001259,None,,,,,,,,,,,,,,,,,,,,,,,,,,,,,,,,,NC20,001,2021_Nov_04_1030,ProdSingRedo,3.2.3,59.87615208832419,
74,0,74,0,,,,,,,,,,,,,,,,,,,,,,,,,,,,385.2210985000711,None,judge,sing,red,13,166,383.2278752999846,None,None,383.2278752999846,None,,,,,,,,,,,,,,,,,,,,,,,,,,,,,,,,,NC20,001,2021_Nov_04_1030,ProdSingRedo,3.2.3,59.87615208832419,
75,0,75,0,,,,,,,,,,,,,,,,,,,,,,,,,,,,387.7392045999877,None,engineer,silent,yellow,87,114,385.736091400031,None,None,385.736091400031,None,,,,,,,,,,,,,,,,,,,,,,,,,,,,,,,,,NC20,001,2021_Nov_04_1030,ProdSingRedo,3.2.3,59.87615208832419,
76,0,76,0,,,,,,,,,,,,,,,,,,,,,,,,,,,,390.2560107000172,None,device,aloud,blue,38,93,388.25275500002317,None,None,388.25275500002317,None,,,,,,,,,,,,,,,,,,,,,,,,,,,,,,,,,NC20,001,2021_Nov_04_1030,ProdSingRedo,3.2.3,59.87615208832419,
77,0,77,0,,,,,,,,,,,,,,,,,,,,,,,,,,,,392.77284050011076,None,public,aloud,blue,52,244,390.76784400013275,None,None,390.76784400013275,None,,,,,,,,,,,,,,,,,,,,,,,,,,,,,,,,,NC20,001,2021_Nov_04_1030,ProdSingRedo,3.2.3,59.87615208832419,
78,0,78,0,,,,,,,,,,,,,,,,,,,,,,,,,,,,395.29006849997677,None,school,aloud,blue,41,274,393.2816779999994,None,None,393.2816779999994,None,,,,,,,,,,,,,,,,,,,,,,,,,,,,,,,,,NC20,001,2021_Nov_04_1030,ProdSingRedo,3.2.3,59.87615208832419,
79,0,79,0,,,,,,,,,,,,,,,,,,,,,,,,,,,,397.80565420002677,None,present,silent,yellow,63,231,395.79598980001174,None,None,395.79598980001174,None,,,,,,,,,,,,,,,,,,,,,,,,,,,,,,,,,NC20,001,2021_Nov_04_1030,ProdSingRedo,3.2.3,59.87615208832419,
80,0,80,0,,,,,,,,,,,,,,,,,,,,,,,,,,,,400.3249109000899,None,country,aloud,blue,47,73,398.33017770014703,None,None,398.33017770014703,None,,,,,,,,,,,,,,,,,,,,,,,,,,,,,,,,,NC20,001,2021_Nov_04_1030,ProdSingRedo,3.2.3,59.87615208832419,
81,0,81,0,,,,,,,,,,,,,,,,,,,,,,,,,,,,402.83998310007155,None,material,sing,red,1,182,400.8404312999919,None,None,400.8404312999919,None,,,,,,,,,,,,,,,,,,,,,,,,,,,,,,,,,NC20,001,2021_Nov_04_1030,ProdSingRedo,3.2.3,59.87615208832419,
82,0,82,0,,,,,,,,,,,,,,,,,,,,,,,,,,,,405.3574270999525,None,drama,sing,red,9,103,403.3520166000817,None,None,403.3520166000817,None,,,,,,,,,,,,,,,,,,,,,,,,,,,,,,,,,NC20,001,2021_Nov_04_1030,ProdSingRedo,3.2.3,59.87615208832419,
83,0,83,0,,,,,,,,,,,,,,,,,,,,,,,,,,,,407.8739339001477,None,death,silent,yellow,73,86,405.8673489000648,None,None,405.8673489000648,None,,,,,,,,,,,,,,,,,,,,,,,,,,,,,,,,,NC20,001,2021_Nov_04_1030,ProdSingRedo,3.2.3,59.87615208832419,
84,0,84,0,,,,,,,,,,,,,,,,,,,,,,,,,,,,410.3898672000505,None,still,sing,red,20,304,408.3830689000897,None,None,408.3830689000897,None,,,,,,,,,,,,,,,,,,,,,,,,,,,,,,,,,NC20,001,2021_Nov_04_1030,ProdSingRedo,3.2.3,59.87615208832419,
85,0,85,0,,,,,,,,,,,,,,,,,,,,,,,,,,,,412.9076179000549,None,scale,aloud,blue,32,272,410.90665840008296,None,None,410.90665840008296,None,,,,,,,,,,,,,,,,,,,,,,,,,,,,,,,,,NC20,001,2021_Nov_04_1030,ProdSingRedo,3.2.3,59.87615208832419,
86,0,86,0,,,,,,,,,,,,,,,,,,,,,,,,,,,,415.42355499998666,None,plane,sing,red,29,223,413.421045999974,None,None,413.421045999974,None,,,,,,,,,,,,,,,,,,,,,,,,,,,,,,,,,NC20,001,2021_Nov_04_1030,ProdSingRedo,3.2.3,59.87615208832419,
87,0,87,0,,,,,,,,,,,,,,,,,,,,,,,,,,,,417.94125839998014,None,disease,aloud,blue,43,97,415.94114529993385,None,None,415.94114529993385,None,,,,,,,,,,,,,,,,,,,,,,,,,,,,,,,,,NC20,001,2021_Nov_04_1030,ProdSingRedo,3.2.3,59.87615208832419,
88,0,88,0,,,,,,,,,,,,,,,,,,,,,,,,,,,,420.45784769998863,None,evidence,aloud,blue,33,120,418.45414820010774,None,None,418.45414820010774,None,,,,,,,,,,,,,,,,,,,,,,,,,,,,,,,,,NC20,001,2021_Nov_04_1030,ProdSingRedo,3.2.3,59.87615208832419,
89,0,89,0,,,,,,,,,,,,,,,,,,,,,,,,,,,,422.9749394999817,None,danger,sing,red,11,85,420.97304320009425,None,None,420.97304320009425,None,,,,,,,,,,,,,,,,,,,,,,,,,,,,,,,,,NC20,001,2021_Nov_04_1030,ProdSingRedo,3.2.3,59.87615208832419,
,,,,,,,,,,,,,,,,,,,,,,,,,,,,,,,,,,,,,,,,,,,423.47407729993574,None,k,269.4352484000847,423.47407729993574,None,,,,,,,,,,,,,,,,,,,,,,,,,,,NC20,001,2021_Nov_04_1030,ProdSingRedo,3.2.3,59.87615208832419,
,,,,0,0,0,0,,,,,,,,,,,,,,,,,,,,,,,,702.3764297000598,None,,,,,,,,,,,,,,,,,shock,new_a,white,0,92,284,693.4459329000674,None,693.4459329000674,None,3,4.833352399989963,693.4459329000674,None,698.3333199999761,None,698.8460161001422,None,698.8460161001422,None,f,3.4893369001802057,698.8460161001422,None,,,NC20,001,2021_Nov_04_1030,ProdSingRedo,3.2.3,59.87615208832419,
,,,,1,0,1,0,,,,,,,,,,,,,,,,,,,,,,,,707.8188732999843,None,,,,,,,,,,,,,,,,,sweet,sing,white,1,5,319,702.894655500073,None,702.894655500073,None,1,1.8005770000163466,702.894655500073,None,704.7341708999593,None,705.257127400022,None,705.257127400022,None,n,2.5262432999443263,705.257127400022,None,,,NC20,001,2021_Nov_04_1030,ProdSingRedo,3.2.3,59.87615208832419,
,,,,2,0,2,0,,,,,,,,,,,,,,,,,,,,,,,,716.0869803000242,None,,,,,,,,,,,,,,,,,measure,new_c,white,2,158,184,708.3500292000826,None,708.3500292000826,None,6,4.249390499899164,708.3500292000826,None,712.6556015000679,None,713.1646104000974,None,713.1646104000974,None,r,2.882919399999082,713.1646104000974,None,,,NC20,001,2021_Nov_04_1030,ProdSingRedo,3.2.3,59.87615208832419,
,,,,3,0,3,0,,,,,,,,,,,,,,,,,,,,,,,,723.2220982001163,None,,,,,,,,,,,,,,,,,cover,silent,white,3,86,77,716.6089013000019,None,716.6089013000019,None,6,3.734991099918261,716.6089013000019,None,720.3854275001213,None,720.9035408999771,None,720.9035408999771,None,r,2.2879015000071377,720.9035408999771,None,,,NC20,001,2021_Nov_04_1030,ProdSingRedo,3.2.3,59.87615208832419,
,,,,4,0,4,0,,,,,,,,,,,,,,,,,,,,,,,,729.0204658999573,None,,,,,,,,,,,,,,,,,patient,new_a,white,4,103,213,723.7456330000423,None,723.7456330000423,None,2,3.2457200000062585,723.7456330000423,None,727.0371865001507,None,727.5579351999331,None,727.5579351999331,None,f,1.4254903998225927,727.5579351999331,None,,,NC20,001,2021_Nov_04_1030,ProdSingRedo,3.2.3,59.87615208832419,
,,,,5,0,5,0,,,,,,,,,,,,,,,,,,,,,,,,734.154266100144,None,,,,,,,,,,,,,,,,,graduate,sing,white,5,18,141,729.5379505001474,None,729.5379505001474,None,6,2.8062948998995125,729.5379505001474,None,732.3890046000015,None,732.9087882000022,None,732.9087882000022,None,r,1.218889300012961,732.9087882000022,None,,,NC20,001,2021_Nov_04_1030,ProdSingRedo,3.2.3,59.87615208832419,
,,,,6,0,6,0,,,,,,,,,,,,,,,,,,,,,,,,740.689424799988,None,,,,,,,,,,,,,,,,,light,new_a,white,6,114,171,734.6807779001538,None,734.6807779001538,None,3,3.0147996000014246,734.6807779001538,None,737.7351220999844,None,738.2651442000642,None,738.2651442000642,None,n,2.390279100043699,738.2651442000642,None,,,NC20,001,2021_Nov_04_1030,ProdSingRedo,3.2.3,59.87615208832419,
,,,,7,0,7,0,,,,,,,,,,,,,,,,,,,,,,,,749.033703400055,None,,,,,,,,,,,,,,,,,welcome,new_a,white,7,113,354,741.2105032000691,None,741.2105032000691,None,1,2.724898099899292,741.2105032000691,None,743.9855250001419,None,744.4869302001316,None,744.4869302001316,None,n,4.504374000011012,744.4869302001316,None,,,NC20,001,2021_Nov_04_1030,ProdSingRedo,3.2.3,59.87615208832419,
,,,,8,0,8,0,,,,,,,,,,,,,,,,,,,,,,,,756.2786771000829,None,,,,,,,,,,,,,,,,,answer,aloud,white,8,50,8,749.5827697000932,None,749.5827697000932,None,5,3.8246323000639677,749.5827697000932,None,753.4519889000803,None,753.9766484999564,None,753.9766484999564,None,f,2.271132499910891,753.9766484999564,None,,,NC20,001,2021_Nov_04_1030,ProdSingRedo,3.2.3,59.87615208832419,
,,,,9,0,9,0,,,,,,,,,,,,,,,,,,,,,,,,762.5565003000665,None,,,,,,,,,,,,,,,,,pattern,aloud,white,9,34,214,756.8010724000633,None,756.8010724000633,None,6,2.846473400015384,756.8010724000633,None,759.6896866001189,None,760.2100754000712,None,760.2100754000712,None,f,2.3173879999667406,760.2100754000712,None,,,NC20,001,2021_Nov_04_1030,ProdSingRedo,3.2.3,59.87615208832419,
,,,,10,0,10,0,,,,,,,,,,,,,,,,,,,,,,,,771.2729829000309,None,,,,,,,,,,,,,,,,,revolution,new_c,white,10,177,264,763.0832772001158,None,763.0832772001158,None,2,5.843957900069654,763.0832772001158,None,768.9620753999334,None,769.4841416000854,None,769.4841416000854,None,n,1.7636167998425663,769.4841416000854,None,,,NC20,001,2021_Nov_04_1030,ProdSingRedo,3.2.3,59.87615208832419,
,,,,11,0,11,0,,,,,,,,,,,,,,,,,,,,,,,,776.1890076000709,None,,,,,,,,,,,,,,,,,angle,new_a,white,11,101,7,771.8006313999649,None,771.8006313999649,None,1,2.247070200042799,771.8006313999649,None,774.0886359999422,None,774.5978521001525,None,774.5978521001525,None,n,1.5535749001428485,774.5978521001525,None,,,NC20,001,2021_Nov_04_1030,ProdSingRedo,3.2.3,59.87615208832419,
,,,,12,0,12,0,,,,,,,,,,,,,,,,,,,,,,,,779.8670568999369,None,,,,,,,,,,,,,,,,,phrase,new_b,white,12,120,220,776.7223277001176,None,776.7223277001176,None,1,1.781094399979338,776.7223277001176,None,778.5595232001506,None,779.0851275001187,None,779.0851275001187,None,n,0.7540937999729067,779.0851275001187,None,,,NC20,001,2021_Nov_04_1030,ProdSingRedo,3.2.3,59.87615208832419,
,,,,13,0,13,0,,,,,,,,,,,,,,,,,,,,,,,,786.991790200118,None,,,,,,,,,,,,,,,,,accident,new_c,white,13,155,0,780.399129500147,None,780.399129500147,None,6,2.2241772001143545,780.399129500147,None,782.66987959994,None,783.19392170012,None,783.19392170012,None,r,3.757552199997008,783.19392170012,None,,,NC20,001,2021_Nov_04_1030,ProdSingRedo,3.2.3,59.87615208832419,
,,,,14,0,14,0,,,,,,,,,,,,,,,,,,,,,,,,792.6420752000995,None,,,,,,,,,,,,,,,,,sight,new_c,white,14,178,286,787.5064473999664,None,787.5064473999664,None,5,3.4449545999523252,787.5064473999664,None,791.0054536999669,None,791.5271717000287,None,791.5271717000287,None,f,1.0803018000442535,791.5271717000287,None,,,NC20,001,2021_Nov_04_1030,ProdSingRedo,3.2.3,59.87615208832419,
,,,,15,0,15,0,,,,,,,,,,,,,,,,,,,,,,,,799.2906414000317,None,,,,,,,,,,,,,,,,,match,aloud,white,15,55,181,793.1658956001047,None,793.1658956001047,None,1,2.7697066001128405,793.1658956001047,None,795.9881414000411,None,796.5126076999586,None,796.5126076999586,None,n,2.742933100089431,796.5126076999586,None,,,NC20,001,2021_Nov_04_1030,ProdSingRedo,3.2.3,59.87615208832419,
,,,,16,0,16,0,,,,,,,,,,,,,,,,,,,,,,,,803.5594872001093,None,,,,,,,,,,,,,,,,,member,new_a,white,16,117,188,799.8178028999828,None,799.8178028999828,None,5,2.2774576998781413,799.8178028999828,None,802.127399600111,None,802.6333508000243,None,802.6333508000243,None,f,0.8941019000485539,802.6333508000243,None,,,NC20,001,2021_Nov_04_1030,ProdSingRedo,3.2.3,59.87615208832419,
,,,,17,0,17,0,,,,,,,,,,,,,,,,,,,,,,,,810.4766691999976,None,,,,,,,,,,,,,,,,,corner,aloud,white,17,37,69,804.0820794000756,None,804.0820794000756,None,6,4.197293099947274,804.0820794000756,None,808.3188402999658,None,808.8250132999383,None,808.8250132999383,None,r,1.6144631998613477,808.8250132999383,None,,,NC20,001,2021_Nov_04_1030,ProdSingRedo,3.2.3,59.87615208832419,
,,,,18,0,18,0,,,,,,,,,,,,,,,,,,,,,,,,813.8860814999789,None,,,,,,,,,,,,,,,,,escape,aloud,white,18,35,118,811.0037911999971,None,811.0037911999971,None,6,1.8672772999852896,811.0037911999971,None,812.9046591999941,None,813.4441947001033,None,813.4441947001033,None,r,0.41103059984743595,813.4441947001033,None,,,NC20,001,2021_Nov_04_1030,ProdSingRedo,3.2.3,59.87615208832419,
,,,,19,0,19,0,,,,,,,,,,,,,,,,,,,,,,,,819.6702402001247,None,,,,,,,,,,,,,,,,,split,new_a,white,19,111,299,814.4123201000039,None,814.4123201000039,None,4,2.8589201997965574,814.4123201000039,None,817.3070044000633,None,817.8183228000998,None,817.8183228000998,None,f,1.8289296999573708,817.8183228000998,None,,,NC20,001,2021_Nov_04_1030,ProdSingRedo,3.2.3,59.87615208832419,
,,,,20,0,20,0,,,,,,,,,,,,,,,,,,,,,,,,823.144265800016,None,,,,,,,,,,,,,,,,,running,new_b,white,20,133,268,820.1998165000696,None,820.1998165000696,None,1,1.463567700004205,820.1998165000696,None,821.6942342000548,None,822.2048788999673,None,822.2048788999673,None,n,0.914731299970299,822.2048788999673,None,,,NC20,001,2021_Nov_04_1030,ProdSingRedo,3.2.3,59.87615208832419,
,,,,21,0,21,0,,,,,,,,,,,,,,,,,,,,,,,,826.9040399000514,None,,,,,,,,,,,,,,,,,dozen,new_b,white,21,147,102,823.6791125000454,None,823.6791125000454,None,1,1.6408293000422418,823.6791125000454,None,825.3577934000641,None,825.8826196999289,None,825.8826196999289,None,n,0.9966190999839455,825.8826196999289,None,,,NC20,001,2021_Nov_04_1030,ProdSingRedo,3.2.3,59.87615208832419,
,,,,22,0,22,0,,,,,,,,,,,,,,,,,,,,,,,,833.521885599941,None,,,,,,,,,,,,,,,,,region,new_a,white,22,98,256,827.4201636000071,None,827.4201636000071,None,3,4.227429500082508,827.4201636000071,None,831.6928061000071,None,832.2163553000428,None,832.2163553000428,None,f,1.2710521998815238,832.2163553000428,None,,,NC20,001,2021_Nov_04_1030,ProdSingRedo,3.2.3,59.87615208832419,
,,,,23,0,23,0,,,,,,,,,,,,,,,,,,,,,,,,838.6776588000357,None,,,,,,,,,,,,,,,,,instrument,new_b,white,23,121,163,834.0546510999557,None,834.0546510999557,None,6,3.0488887999672443,834.0546510999557,None,837.1448743999936,None,837.6624781999271,None,837.6624781999271,None,f,0.9850320999976248,837.6624781999271,None,,,NC20,001,2021_Nov_04_1030,ProdSingRedo,3.2.3,59.87615208832419,
,,,,24,0,24,0,,,,,,,,,,,,,,,,,,,,,,,,850.0947624000255,None,,,,,,,,,,,,,,,,,audience,aloud,white,24,59,14,839.20574939996,None,839.20574939996,None,6,9.19360959995538,839.20574939996,None,848.4401495000347,None,848.965214899974,None,848.965214899974,None,r,1.0981497999746352,848.965214899974,None,,,NC20,001,2021_Nov_04_1030,ProdSingRedo,3.2.3,59.87615208832419,
,,,,25,0,25,0,,,,,,,,,,,,,,,,,,,,,,,,853.1973882999737,None,,,,,,,,,,,,,,,,,number,new_c,white,25,150,203,850.6150917999912,None,850.6150917999912,None,6,1.7530996000859886,850.6150917999912,None,852.4088614000939,None,852.9098859000951,None,852.9098859000951,None,r,0.24966939981095493,852.9098859000951,None,,,NC20,001,2021_Nov_04_1030,ProdSingRedo,3.2.3,59.87615208832419,
,,,,26,0,26,0,,,,,,,,,,,,,,,,,,,,,,,,857.6341526999604,None,,,,,,,,,,,,,,,,,murder,silent,white,26,88,195,853.7249515000731,None,853.7249515000731,None,2,2.0345964001026005,853.7249515000731,None,855.8122113000136,None,856.3322354999837,None,856.3322354999837,None,n,1.2672374998219311,856.3322354999837,None,,,NC20,001,2021_Nov_04_1030,ProdSingRedo,3.2.3,59.87615208832419,
,,,,27,0,27,0,,,,,,,,,,,,,,,,,,,,,,,,863.3794782999903,None,,,,,,,,,,,,,,,,,speech,new_c,white,27,179,298,858.1399904000573,None,858.1399904000573,None,6,3.931608200073242,858.1399904000573,None,862.1071079000831,None,862.6281719000544,None,862.6281719000544,None,r,0.7152289999648929,862.6281719000544,None,,,NC20,001,2021_Nov_04_1030,ProdSingRedo,3.2.3,59.87615208832419,
,,,,28,0,28,0,,,,,,,,,,,,,,,,,,,,,,,,868.1309486001264,None,,,,,,,,,,,,,,,,,career,new_b,white,28,139,42,863.904913400067,None,863.904913400067,None,2,2.6147767000366002,863.904913400067,None,866.5565130999312,None,867.0839029001072,None,867.0839029001072,None,f,1.0116624999791384,867.0839029001072,None,,,NC20,001,2021_Nov_04_1030,ProdSingRedo,3.2.3,59.87615208832419,
,,,,29,0,29,0,,,,,,,,,,,,,,,,,,,,,,,,875.8236664000433,None,,,,,,,,,,,,,,,,,leader,sing,white,29,0,168,868.6521870000288,None,868.6521870000288,None,3,6.123241499997675,868.6521870000288,None,874.8324579999316,None,875.356949799927,None,875.356949799927,None,n,0.44224969996139407,875.356949799927,None,,,NC20,001,2021_Nov_04_1030,ProdSingRedo,3.2.3,59.87615208832419,
,,,,30,0,30,0,,,,,,,,,,,,,,,,,,,,,,,,879.9474554001354,None,,,,,,,,,,,,,,,,,judge,sing,white,30,13,166,876.3386582001112,None,876.3386582001112,None,6,1.868914500111714,876.3386582001112,None,878.2599076000042,None,878.7547818999738,None,878.7547818999738,None,r,1.156672399956733,878.7547818999738,None,,,NC20,001,2021_Nov_04_1030,ProdSingRedo,3.2.3,59.87615208832419,
,,,,31,0,31,0,,,,,,,,,,,,,,,,,,,,,,,,887.3973571001552,None,,,,,,,,,,,,,,,,,generation,silent,white,31,83,136,880.4747206000611,None,880.4747206000611,None,6,3.308746200054884,880.4747206000611,None,883.8296744001564,None,884.3529566000216,None,884.3529566000216,None,r,3.006455000024289,884.3529566000216,None,,,NC20,001,2021_Nov_04_1030,ProdSingRedo,3.2.3,59.87615208832419,
,,,,32,0,32,0,,,,,,,,,,,,,,,,,,,,,,,,891.026266900124,None,,,,,,,,,,,,,,,,,institute,silent,white,32,75,162,887.9286819000263,None,887.9286819000263,None,6,1.6467857998795807,887.9286819000263,None,889.6155087000225,None,890.1369273001328,None,890.1369273001328,None,r,0.8624400999397039,890.1369273001328,None,,,NC20,001,2021_Nov_04_1030,ProdSingRedo,3.2.3,59.87615208832419,
,,,,33,0,33,0,,,,,,,,,,,,,,,,,,,,,,,,894.4678193000145,None,,,,,,,,,,,,,,,,,country,aloud,white,33,47,73,891.5521863000467,None,891.5521863000467,None,5,2.0071574999019504,891.5521863000467,None,893.60210070014,None,894.1193371999543,None,894.1193371999543,None,n,0.3121199000161141,894.1193371999543,None,,,NC20,001,2021_Nov_04_1030,ProdSingRedo,3.2.3,59.87615208832419,
,,,,34,0,34,0,,,,,,,,,,,,,,,,,,,,,,,,899.7490537001286,None,,,,,,,,,,,,,,,,,command,new_a,white,34,99,60,894.9764739000238,None,894.9764739000238,None,4,3.0709945999551564,894.9764739000238,None,898.1004405000713,None,898.6196735999547,None,898.6196735999547,None,f,1.099747700151056,898.6196735999547,None,,,NC20,001,2021_Nov_04_1030,ProdSingRedo,3.2.3,59.87615208832419,
,,,,35,0,35,0,,,,,,,,,,,,,,,,,,,,,,,,903.4677665999625,None,,,,,,,,,,,,,,,,,prime,sing,white,35,4,235,900.2666396000423,None,900.2666396000423,None,6,1.6768890998791903,900.2666396000423,None,901.9951554001309,None,902.5135507001542,None,902.5135507001542,None,r,0.9179043001495302,902.5135507001542,None,,,NC20,001,2021_Nov_04_1030,ProdSingRedo,3.2.3,59.87615208832419,
,,,,36,0,36,0,,,,,,,,,,,,,,,,,,,,,,,,906.5004829999525,None,,,,,,,,,,,,,,,,,engineer,silent,white,36,87,114,903.9949996001087,None,903.9949996001087,None,6,1.4286195000167936,903.9949996001087,None,905.4662852999754,None,905.9877429001499,None,905.9877429001499,None,r,0.48457590001635253,905.9877429001499,None,,,NC20,001,2021_Nov_04_1030,ProdSingRedo,3.2.3,59.87615208832419,
,,,,37,0,37,0,,,,,,,,,,,,,,,,,,,,,,,,911.2160309001338,None,,,,,,,,,,,,,,,,,strain,sing,white,37,17,308,907.0220324001275,None,907.0220324001275,None,3,1.833733200095594,907.0220324001275,None,908.8991970000789,None,909.4184109000489,None,909.4184109000489,None,n,1.7650544999632984,909.4184109000489,None,,,NC20,001,2021_Nov_04_1030,ProdSingRedo,3.2.3,59.87615208832419,
,,,,38,0,38,0,,,,,,,,,,,,,,,,,,,,,,,,916.4672110001557,None,,,,,,,,,,,,,,,,,society,new_c,white,38,154,293,911.7301706001163,None,911.7301706001163,None,6,3.7973281999584287,911.7301706001163,None,915.5784474001266,None,916.1022980001289,None,916.1022980001289,None,r,0.3374679998960346,916.1022980001289,None,,,NC20,001,2021_Nov_04_1030,ProdSingRedo,3.2.3,59.87615208832419,
,,,,39,0,39,0,,,,,,,,,,,,,,,,,,,,,,,,921.8774334001355,None,,,,,,,,,,,,,,,,,music,new_b,white,39,148,196,916.9931298000738,None,916.9931298000738,None,5,3.9021824998781085,916.9931298000738,None,920.936017600121,None,921.4483952999581,None,921.4483952999581,None,f,0.4072722001001239,921.4483952999581,None,,,NC20,001,2021_Nov_04_1030,ProdSingRedo,3.2.3,59.87615208832419,
,,,,40,0,40,0,,,,,,,,,,,,,,,,,,,,,,,,924.5465148999356,None,,,,,,,,,,,,,,,,,incident,new_c,white,40,173,158,922.4048145001289,None,922.4048145001289,None,6,1.4186982000246644,922.4048145001289,None,923.855469699949,None,924.3642051001079,None,924.3642051001079,None,r,0.1629406998399645,924.3642051001079,None,,,NC20,001,2021_Nov_04_1030,ProdSingRedo,3.2.3,59.87615208832419,
,,,,41,0,41,0,,,,,,,,,,,,,,,,,,,,,,,,927.1060339999385,None,,,,,,,,,,,,,,,,,council,sing,white,41,7,71,925.0604028999805,None,925.0604028999805,None,6,1.1550465000327677,925.0604028999805,None,926.2585241999477,None,926.7715884000063,None,926.7715884000063,None,r,0.29193349997512996,926.7715884000063,None,,,NC20,001,2021_Nov_04_1030,ProdSingRedo,3.2.3,59.87615208832419,
,,,,42,0,42,0,,,,,,,,,,,,,,,,,,,,,,,,929.6769644999877,None,,,,,,,,,,,,,,,,,executive,silent,white,42,61,122,927.6316393001471,None,927.6316393001471,None,6,1.1679268998559564,927.6316393001471,None,928.854745300021,None,929.3716170999687,None,929.3716170999687,None,r,0.27576080011203885,929.3716170999687,None,,,NC20,001,2021_Nov_04_1030,ProdSingRedo,3.2.3,59.87615208832419,
,,,,43,0,43,0,,,,,,,,,,,,,,,,,,,,,,,,934.4695381000638,None,,,,,,,,,,,,,,,,,agency,sing,white,43,28,4,930.1960577000864,None,930.1960577000864,None,6,3.3874278001021594,930.1960577000864,None,933.63438459998,None,934.1555395000614,None,934.1555395000614,None,r,0.2839686998631805,934.1555395000614,None,,,NC20,001,2021_Nov_04_1030,ProdSingRedo,3.2.3,59.87615208832419,
,,,,44,0,44,0,,,,,,,,,,,,,,,,,,,,,,,,938.0779770000372,None,,,,,,,,,,,,,,,,,growth,new_b,white,44,146,144,934.9961670001503,None,934.9961670001503,None,3,1.7392927999608219,934.9961670001503,None,936.7828089999966,None,937.3070466001518,None,937.3070466001518,None,f,0.7244928001891822,937.3070466001518,None,,,NC20,001,2021_Nov_04_1030,ProdSingRedo,3.2.3,59.87615208832419,
,,,,45,0,45,0,,,,,,,,,,,,,,,,,,,,,,,,941.4679440001491,None,,,,,,,,,,,,,,,,,portion,new_a,white,45,119,228,938.6047342000529,None,938.6047342000529,None,2,1.6426511998288333,938.6047342000529,None,940.278144699987,None,940.7927922001109,None,940.7927922001109,None,f,0.6388041998725384,940.7927922001109,None,,,NC20,001,2021_Nov_04_1030,ProdSingRedo,3.2.3,59.87615208832419,
,,,,46,0,46,0,,,,,,,,,,,,,,,,,,,,,,,,945.7358776000328,None,,,,,,,,,,,,,,,,,search,new_b,white,46,142,276,941.9841279999819,None,941.9841279999819,None,6,2.303210400044918,941.9841279999819,None,944.3207207000814,None,944.8405871000141,None,944.8405871000141,None,r,0.8709309999831021,944.8405871000141,None,,,NC20,001,2021_Nov_04_1030,ProdSingRedo,3.2.3,59.87615208832419,
,,,,47,0,47,0,,,,,,,,,,,,,,,,,,,,,,,,950.9537454000674,None,,,,,,,,,,,,,,,,,victory,new_c,white,47,162,346,946.2611100000795,None,946.2611100000795,None,3,2.8983110000845045,946.2611100000795,None,949.1992771001533,None,949.71110090008,None,949.71110090008,None,f,1.2085166000761092,949.71110090008,None,,,NC20,001,2021_Nov_04_1030,ProdSingRedo,3.2.3,59.87615208832419,
,,,,48,0,48,0,,,,,,,,,,,,,,,,,,,,,,,,954.7278863000683,None,,,,,,,,,,,,,,,,,property,new_b,white,48,125,242,951.477382699959,None,951.477382699959,None,5,2.186067500151694,951.477382699959,None,953.7196961999871,None,954.2376322001219,None,954.2376322001219,None,f,0.4655612998176366,954.2376322001219,None,,,NC20,001,2021_Nov_04_1030,ProdSingRedo,3.2.3,59.87615208832419,
,,,,49,0,49,0,,,,,,,,,,,,,,,,,,,,,,,,959.2862402000464,None,,,,,,,,,,,,,,,,,master,new_b,white,49,138,180,955.2446085000411,None,955.2446085000411,None,1,2.506881000008434,955.2446085000411,None,957.7914821000304,None,958.3054246001411,None,958.3054246001411,None,n,0.9420765999238938,958.3054246001411,None,,,NC20,001,2021_Nov_04_1030,ProdSingRedo,3.2.3,59.87615208832419,
,,,,50,0,50,0,,,,,,,,,,,,,,,,,,,,,,,,961.9545669001527,None,,,,,,,,,,,,,,,,,trash,new_b,white,50,124,337,959.8189944999758,None,959.8189944999758,None,1,1.388557800091803,959.8189944999758,None,961.2534450001549,None,961.7703641001135,None,961.7703641001135,None,n,0.1491690999828279,961.7703641001135,None,,,NC20,001,2021_Nov_04_1030,ProdSingRedo,3.2.3,59.87615208832419,
,,,,51,0,51,0,,,,,,,,,,,,,,,,,,,,,,,,964.6216051001102,None,,,,,,,,,,,,,,,,,drama,sing,white,51,9,103,962.4802419999614,None,962.4802419999614,None,6,1.3193799001164734,962.4802419999614,None,963.8465309999883,None,964.3747151000425,None,964.3747151000425,None,r,0.21685249987058342,964.3747151000425,None,,,NC20,001,2021_Nov_04_1030,ProdSingRedo,3.2.3,59.87615208832419,
,,,,52,0,52,0,,,,,,,,,,,,,,,,,,,,,,,,969.690145800123,None,,,,,,,,,,,,,,,,,little,new_b,white,52,136,174,965.1431490001269,None,965.1431490001269,None,1,3.008956299861893,965.1431490001269,None,968.1939751999453,None,968.7039978001267,None,968.7039978001267,None,n,0.9515595000702888,968.7039978001267,None,,,NC20,001,2021_Nov_04_1030,ProdSingRedo,3.2.3,59.87615208832419,
,,,,53,0,53,0,,,,,,,,,,,,,,,,,,,,,,,,973.7048214999959,None,,,,,,,,,,,,,,,,,breath,silent,white,53,74,27,970.2215824001469,None,970.2215824001469,None,2,2.4099867998156697,970.2215824001469,None,972.6873431999702,None,973.2109195000958,None,973.2109195000958,None,f,0.4687560999300331,973.2109195000958,None,,,NC20,001,2021_Nov_04_1030,ProdSingRedo,3.2.3,59.87615208832419,
,,,,54,0,54,0,,,,,,,,,,,,,,,,,,,,,,,,976.4362310001161,None,,,,,,,,,,,,,,,,,rough,new_a,white,54,109,266,974.2299418000039,None,974.2299418000039,None,1,1.3456798000261188,974.2299418000039,None,975.6112894001417,None,976.1280611001421,None,976.1280611001421,None,n,0.27135480009019375,976.1280611001421,None,,,NC20,001,2021_Nov_04_1030,ProdSingRedo,3.2.3,59.87615208832419,
,,,,55,0,55,0,,,,,,,,,,,,,,,,,,,,,,,,980.256081599975,None,,,,,,,,,,,,,,,,,machinery,new_a,white,55,115,175,976.9682678000536,None,976.9682678000536,None,1,2.335344199789688,976.9682678000536,None,979.3526198000181,None,979.8793218000792,None,979.8793218000792,None,n,0.34423490008339286,979.8793218000792,None,,,NC20,001,2021_Nov_04_1030,ProdSingRedo,3.2.3,59.87615208832419,
,,,,56,0,56,0,,,,,,,,,,,,,,,,,,,,,,,,983.8536136001348,None,,,,,,,,,,,,,,,,,fight,new_b,white,56,141,127,980.7824938001577,None,980.7824938001577,None,2,2.265023299958557,980.7824938001577,None,983.0881682001054,None,983.6076428000815,None,983.6076428000815,None,f,0.2157656999770552,983.6076428000815,None,,,NC20,001,2021_Nov_04_1030,ProdSingRedo,3.2.3,59.87615208832419,
,,,,57,0,57,0,,,,,,,,,,,,,,,,,,,,,,,,986.7719950000755,None,,,,,,,,,,,,,,,,,danger,sing,white,57,11,85,984.3913227999583,None,984.3913227999583,None,3,1.3759602999780327,984.3913227999583,None,985.8036102000624,None,986.3230016001035,None,986.3230016001035,None,f,0.41254410007968545,986.3230016001035,None,,,NC20,001,2021_Nov_04_1030,ProdSingRedo,3.2.3,59.87615208832419,
,,,,58,0,58,0,,,,,,,,,,,,,,,,,,,,,,,,989.8417007001117,None,,,,,,,,,,,,,,,,,touch,new_b,white,58,140,332,987.296208600048,None,987.296208600048,None,1,1.743216099916026,987.296208600048,None,989.074937999947,None,989.5815864999313,None,989.5815864999313,None,n,0.21817480004392564,989.5815864999313,None,,,NC20,001,2021_Nov_04_1030,ProdSingRedo,3.2.3,59.87615208832419,
,,,,59,0,59,0,,,,,,,,,,,,,,,,,,,,,,,,992.8608415999915,None,,,,,,,,,,,,,,,,,government,silent,white,59,89,139,990.3633600000758,None,990.3633600000758,None,1,1.6441808000672609,990.3633600000758,None,992.0522925001569,None,992.5780345001258,None,992.5780345001258,None,n,0.24558470002375543,992.5780345001258,None,,,NC20,001,2021_Nov_04_1030,ProdSingRedo,3.2.3,59.87615208832419,
,,,,60,0,60,0,,,,,,,,,,,,,,,,,,,,,,,,996.9580781001132,None,,,,,,,,,,,,,,,,,still,sing,white,60,20,304,993.3767520999536,None,993.3767520999536,None,3,1.9269465000834316,993.3767520999536,None,995.350978200091,None,995.8710330999456,None,995.8710330999456,None,f,1.0570823000743985,995.8710330999456,None,,,NC20,001,2021_Nov_04_1030,ProdSingRedo,3.2.3,59.87615208832419,
,,,,61,0,61,0,,,,,,,,,,,,,,,,,,,,,,,,999.6396015000064,None,,,,,,,,,,,,,,,,,equipment,aloud,white,61,39,116,997.4858697999734,None,997.4858697999734,None,6,1.3937832000665367,997.4858697999734,None,998.9185164000373,None,999.4469052001368,None,999.4469052001368,None,r,0.15278449980542064,999.4469052001368,None,,,NC20,001,2021_Nov_04_1030,ProdSingRedo,3.2.3,59.87615208832419,
,,,,62,0,62,0,,,,,,,,,,,,,,,,,,,,,,,,1002.2099453001283,None,,,,,,,,,,,,,,,,,literature,silent,white,62,82,173,1000.1684751000721,None,1000.1684751000721,None,6,1.2468419999349862,1000.1684751000721,None,1001.4415182000957,None,1001.9468928000424,None,1001.9468928000424,None,r,0.2205048999749124,1001.9468928000424,None,,,NC20,001,2021_Nov_04_1030,ProdSingRedo,3.2.3,59.87615208832419,
,,,,63,0,63,0,,,,,,,,,,,,,,,,,,,,,,,,1004.6898280000314,None,,,,,,,,,,,,,,,,,department,sing,white,63,12,90,1002.7260688000824,None,1002.7260688000824,None,6,1.1374168000184,1002.7260688000824,None,1003.8847733000293,None,1004.4096550000831,None,1004.4096550000831,None,r,0.2458681999705732,1004.4096550000831,None,,,NC20,001,2021_Nov_04_1030,ProdSingRedo,3.2.3,59.87615208832419,
,,,,64,0,64,0,,,,,,,,,,,,,,,,,,,,,,,,1007.4403937000316,None,,,,,,,,,,,,,,,,,title,new_b,white,64,126,331,1005.2085417001508,None,1005.2085417001508,None,6,1.0069522999692708,1005.2085417001508,None,1006.2363277999684,None,1006.7479725999292,None,1006.7479725999292,None,r,0.6595922999549657,1006.7479725999292,None,,,NC20,001,2021_Nov_04_1030,ProdSingRedo,3.2.3,59.87615208832419,
,,,,65,0,65,0,,,,,,,,,,,,,,,,,,,,,,,,1010.9535213999916,None,,,,,,,,,,,,,,,,,color,silent,white,65,69,56,1007.9619396000635,None,1007.9619396000635,None,4,1.909535099985078,1007.9619396000635,None,1009.9172879001126,None,1010.4399556000717,None,1010.4399556000717,None,f,0.48753480007871985,1010.4399556000717,None,,,NC20,001,2021_Nov_04_1030,ProdSingRedo,3.2.3,59.87615208832419,
,,,,66,0,66,0,,,,,,,,,,,,,,,,,,,,,,,,1017.2068944999482,None,,,,,,,,,,,,,,,,,center,silent,white,66,62,44,1011.477141899988,None,1011.477141899988,None,4,4.770490000024438,1011.477141899988,None,1016.2804207999725,None,1016.7923214000184,None,1016.7923214000184,None,f,0.38376619992777705,1016.7923214000184,None,,,NC20,001,2021_Nov_04_1030,ProdSingRedo,3.2.3,59.87615208832419,
,,,,67,0,67,0,,,,,,,,,,,,,,,,,,,,,,,,1027.6753744999878,None,,,,,,,,,,,,,,,,,evidence,aloud,white,67,33,120,1017.717212599935,None,1017.717212599935,None,5,5.754214299842715,1017.717212599935,None,1023.513728500111,None,1024.0275383000262,None,1024.0275383000262,None,r,3.611909299856052,1024.0275383000262,None,,,NC20,001,2021_Nov_04_1030,ProdSingRedo,3.2.3,59.87615208832419,
,,,,68,0,68,0,,,,,,,,,,,,,,,,,,,,,,,,1031.1750904000364,None,,,,,,,,,,,,,,,,,hearing,silent,white,68,70,150,1028.203322000103,None,1028.203322000103,None,6,2.3324371001217514,1028.203322000103,None,1030.589397000149,None,1031.113004700048,None,1031.113004700048,None,r,0.030582200037315488,1031.113004700048,None,,,NC20,001,2021_Nov_04_1030,ProdSingRedo,3.2.3,59.87615208832419,
,,,,69,0,69,0,,,,,,,,,,,,,,,,,,,,,,,,1037.5426527999807,None,,,,,,,,,,,,,,,,,dream,aloud,white,69,40,104,1031.6982615999877,None,1031.6982615999877,None,4,4.877356900135055,1031.6982615999877,None,1036.621709200088,None,1037.1505392000545,None,1037.1505392000545,None,f,0.3612078002188355,1037.1505392000545,None,,,NC20,001,2021_Nov_04_1030,ProdSingRedo,3.2.3,59.87615208832419,
,,,,70,0,70,0,,,,,,,,,,,,,,,,,,,,,,,,1051.004654899938,None,,,,,,,,,,,,,,,,,beginning,sing,white,70,14,19,1038.0656990001444,None,1038.0656990001444,None,4,11.702101799892262,1038.0656990001444,None,1049.8204968001228,None,1050.3308751001023,None,1050.3308751001023,None,f,0.6367962001822889,1050.3308751001023,None,,,NC20,001,2021_Nov_04_1030,ProdSingRedo,3.2.3,59.87615208832419,
,,,,71,0,71,0,,,,,,,,,,,,,,,,,,,,,,,,1054.2271058999468,None,,,,,,,,,,,,,,,,,junior,new_a,white,71,100,167,1051.5315815000795,None,1051.5315815000795,None,1,1.8602402999531478,1051.5315815000795,None,1053.4443256999366,None,1053.9606817001477,None,1053.9606817001477,None,n,0.2310142999049276,1053.9606817001477,None,,,NC20,001,2021_Nov_04_1030,ProdSingRedo,3.2.3,59.87615208832419,
,,,,72,0,72,0,,,,,,,,,,,,,,,,,,,,,,,,1057.2858820999973,None,,,,,,,,,,,,,,,,,height,new_c,white,72,168,152,1054.7529756000731,None,1054.7529756000731,None,2,1.4385494000744075,1054.7529756000731,None,1056.2402900999878,None,1056.772625700105,None,1056.772625700105,None,f,0.48278079996816814,1056.772625700105,None,,,NC20,001,2021_Nov_04_1030,ProdSingRedo,3.2.3,59.87615208832419,
,,,,73,0,73,0,,,,,,,,,,,,,,,,,,,,,,,,1060.4277280999813,None,,,,,,,,,,,,,,,,,plane,sing,white,73,29,223,1057.7992781000212,None,1057.7992781000212,None,5,1.7762645001057535,1057.7992781000212,None,1059.6261169000063,None,1060.1365891001187,None,1060.1365891001187,None,f,0.26332990010268986,1060.1365891001187,None,,,NC20,001,2021_Nov_04_1030,ProdSingRedo,3.2.3,59.87615208832419,
,,,,74,0,74,0,,,,,,,,,,,,,,,,,,,,,,,,1063.148695500102,None,,,,,,,,,,,,,,,,,majority,new_a,white,74,116,176,1060.9525190000422,None,1060.9525190000422,None,1,1.3590989001095295,1060.9525190000422,None,1062.3599815999623,None,1062.8758070000913,None,1062.8758070000913,None,n,0.22791329980827868,1062.8758070000913,None,,,NC20,001,2021_Nov_04_1030,ProdSingRedo,3.2.3,59.87615208832419,
,,,,75,0,75,0,,,,,,,,,,,,,,,,,,,,,,,,1067.4185105999932,None,,,,,,,,,,,,,,,,,fashion,new_c,white,75,163,125,1063.6697496001143,None,1063.6697496001143,None,1,2.8894959001336247,1063.6697496001143,None,1066.5865853999276,None,1067.1012635000516,None,1067.1012635000516,None,n,0.2901882999576628,1067.1012635000516,None,,,NC20,001,2021_Nov_04_1030,ProdSingRedo,3.2.3,59.87615208832419,
,,,,76,0,76,0,,,,,,,,,,,,,,,,,,,,,,,,1070.127544600051,None,,,,,,,,,,,,,,,,,foundation,sing,white,76,21,132,1067.94411520008,None,1067.94411520008,None,5,1.359306300058961,1067.94411520008,None,1069.3466110001318,None,1069.8645915000234,None,1069.8645915000234,None,f,0.23907090001739562,1069.8645915000234,None,,,NC20,001,2021_Nov_04_1030,ProdSingRedo,3.2.3,59.87615208832419,
,,,,77,0,77,0,,,,,,,,,,,,,,,,,,,,,,,,1073.3282892999705,None,,,,,,,,,,,,,,,,,committee,new_b,white,77,131,62,1070.6531724999659,None,1070.6531724999659,None,1,1.2022655000910163,1070.6531724999659,None,1071.8948312001303,None,1072.4104051999748,None,1072.4104051999748,None,n,0.8930985999759287,1072.4104051999748,None,,,NC20,001,2021_Nov_04_1030,ProdSingRedo,3.2.3,59.87615208832419,
,,,,78,0,78,0,,,,,,,,,,,,,,,,,,,,,,,,1079.0944171000738,None,,,,,,,,,,,,,,,,,relation,new_c,white,78,172,257,1073.8557313000783,None,1073.8557313000783,None,1,4.271838399814442,1073.8557313000783,None,1078.1659502999391,None,1078.6707580001093,None,1078.6707580001093,None,n,0.3928811000660062,1078.6707580001093,None,,,NC20,001,2021_Nov_04_1030,ProdSingRedo,3.2.3,59.87615208832419,
,,,,79,0,79,0,,,,,,,,,,,,,,,,,,,,,,,,1082.2754371999763,None,,,,,,,,,,,,,,,,,guest,new_c,white,79,169,146,1079.6186303999275,None,1079.6186303999275,None,2,1.5969229000620544,1079.6186303999275,None,1081.2598544000648,None,1081.773687900044,None,1081.773687900044,None,n,0.4739516000263393,1081.773687900044,None,,,NC20,001,2021_Nov_04_1030,ProdSingRedo,3.2.3,59.87615208832419,
,,,,80,0,80,0,,,,,,,,,,,,,,,,,,,,,,,,1085.7811585001182,None,,,,,,,,,,,,,,,,,birth,sing,white,80,16,22,1082.8020599000156,None,1082.8020599000156,None,1,2.237531299935654,1082.8020599000156,None,1085.0902644000016,None,1085.616344399983,None,1085.616344399983,None,n,0.12729710014536977,1085.616344399983,None,,,NC20,001,2021_Nov_04_1030,ProdSingRedo,3.2.3,59.87615208832419,
,,,,81,0,81,0,,,,,,,,,,,,,,,,,,,,,,,,1088.8458668999374,None,,,,,,,,,,,,,,,,,store,silent,white,81,67,305,1086.2994490999263,None,1086.2994490999263,None,1,1.5561071999836713,1086.2994490999263,None,1087.8954918000381,None,1088.41011980013,None,1088.41011980013,None,n,0.4055233998224139,1088.41011980013,None,,,NC20,001,2021_Nov_04_1030,ProdSingRedo,3.2.3,59.87615208832419,
,,,,82,0,82,0,,,,,,,,,,,,,,,,,,,,,,,,1091.763551299926,None,,,,,,,,,,,,,,,,,novel,silent,white,82,79,202,1089.3723585000262,None,1089.3723585000262,None,5,1.6750439999159425,1089.3723585000262,None,1091.0912586001214,None,1091.5873400000855,None,1091.5873400000855,None,f,0.14027890004217625,1091.5873400000855,None,,,NC20,001,2021_Nov_04_1030,ProdSingRedo,3.2.3,59.87615208832419,
,,,,83,0,83,0,,,,,,,,,,,,,,,,,,,,,,,,1094.1733715999871,None,,,,,,,,,,,,,,,,,route,silent,white,83,80,267,1092.2890103999525,None,1092.2890103999525,None,5,1.1743566000368446,1092.2890103999525,None,1093.4949135000352,None,1094.0128063999582,None,1094.0128063999582,None,f,0.1389150999020785,1094.0128063999582,None,,,NC20,001,2021_Nov_04_1030,ProdSingRedo,3.2.3,59.87615208832419,
,,,,84,0,84,0,,,,,,,,,,,,,,,,,,,,,,,,1098.6056224999484,None,,,,,,,,,,,,,,,,,territory,aloud,white,84,48,324,1094.7002737999428,None,1094.7002737999428,None,1,2.0195655000861734,1094.7002737999428,None,1096.7628796999343,None,1097.2830426001456,None,1097.2830426001456,None,f,1.3008496998809278,1097.2830426001456,None,,,NC20,001,2021_Nov_04_1030,ProdSingRedo,3.2.3,59.87615208832419,
,,,,85,0,85,0,,,,,,,,,,,,,,,,,,,,,,,,1103.1115415999666,None,,,,,,,,,,,,,,,,,drink,new_c,white,85,157,105,1099.1228486001492,None,1099.1228486001492,None,5,3.0049165999516845,1099.1228486001492,None,1102.1711565000005,None,1102.680523399962,None,1102.680523399962,None,f,0.4071078000124544,1102.680523399962,None,,,NC20,001,2021_Nov_04_1030,ProdSingRedo,3.2.3,59.87615208832419,
,,,,86,0,86,0,,,,,,,,,,,,,,,,,,,,,,,,1106.3467513001524,None,,,,,,,,,,,,,,,,,trail,silent,white,86,81,336,1103.6364641999826,None,1103.6364641999826,None,5,1.1628554998897016,1103.6364641999826,None,1104.8220186999533,None,1105.337952800095,None,1105.337952800095,None,f,0.9819131998810917,1105.337952800095,None,,,NC20,001,2021_Nov_04_1030,ProdSingRedo,3.2.3,59.87615208832419,
,,,,87,0,87,0,,,,,,,,,,,,,,,,,,,,,,,,1111.7752505999524,None,,,,,,,,,,,,,,,,,disease,aloud,white,87,43,97,1106.873301200103,None,1106.873301200103,None,4,3.646645300090313,1106.873301200103,None,1110.5655418999959,None,1111.0810610000044,None,1111.0810610000044,None,f,0.662456399993971,1111.0810610000044,None,,,NC20,001,2021_Nov_04_1030,ProdSingRedo,3.2.3,59.87615208832419,
,,,,88,0,88,0,,,,,,,,,,,,,,,,,,,,,,,,1117.2808102001436,None,,,,,,,,,,,,,,,,,defeat,new_c,white,88,174,88,1112.3064254999626,None,1112.3064254999626,None,3,3.2453014000784606,1112.3064254999626,None,1115.574550300138,None,1116.1028080000542,None,1116.1028080000542,None,f,1.152879800181836,1116.1028080000542,None,,,NC20,001,2021_Nov_04_1030,ProdSingRedo,3.2.3,59.87615208832419,
,,,,89,0,89,0,,,,,,,,,,,,,,,,,,,,,,,,1120.4505749000236,None,,,,,,,,,,,,,,,,,state,new_c,white,89,152,303,1117.813395400066,None,1117.813395400066,None,5,1.2586111000273377,1117.813395400066,None,1119.0993032001425,None,1119.6229205001146,None,1119.6229205001146,None,r,0.8006917999591678,1119.6229205001146,None,,,NC20,001,2021_Nov_04_1030,ProdSingRedo,3.2.3,59.87615208832419,
,,,,90,0,90,0,,,,,,,,,,,,,,,,,,,,,,,,1124.960645900108,None,,,,,,,,,,,,,,,,,crisis,silent,white,90,65,79,1120.9710425999947,None,1120.9710425999947,None,4,2.6127275999169797,1120.9710425999947,None,1123.6214701000135,None,1124.1303270000499,None,1124.1303270000499,None,f,0.7972321999259293,1124.1303270000499,None,,,NC20,001,2021_Nov_04_1030,ProdSingRedo,3.2.3,59.87615208832419,
,,,,91,0,91,0,,,,,,,,,,,,,,,,,,,,,,,,1128.7071213999297,None,,,,,,,,,,,,,,,,,shear,silent,white,91,60,283,1125.4914466000628,None,1125.4914466000628,None,1,1.38806979986839,1125.4914466000628,None,1126.9242151000071,None,1127.4515714000445,None,1127.4515714000445,None,n,1.2362166000530124,1127.4515714000445,None,,,NC20,001,2021_Nov_04_1030,ProdSingRedo,3.2.3,59.87615208832419,
,,,,92,0,92,0,,,,,,,,,,,,,,,,,,,,,,,,1131.3581570000388,None,,,,,,,,,,,,,,,,,distance,new_b,white,92,144,100,1129.2486308000516,None,1129.2486308000516,None,2,1.4790380001068115,1129.2486308000516,None,1130.7817629999481,None,1131.299738700036,None,1131.299738700036,None,n,0.03574989992193878,1131.299738700036,None,,,NC20,001,2021_Nov_04_1030,ProdSingRedo,3.2.3,59.87615208832419,
,,,,93,0,93,0,,,,,,,,,,,,,,,,,,,,,,,,1135.4058197999839,None,,,,,,,,,,,,,,,,,discussion,aloud,white,93,31,96,1131.893773399992,None,1131.893773399992,None,3,2.5858090999536216,1131.893773399992,None,1134.531301200157,None,1135.041563600069,None,1135.041563600069,None,n,0.33378469990566373,1135.041563600069,None,,,NC20,001,2021_Nov_04_1030,ProdSingRedo,3.2.3,59.87615208832419,
,,,,94,0,94,0,,,,,,,,,,,,,,,,,,,,,,,,1138.1277165000793,None,,,,,,,,,,,,,,,,,service,sing,white,94,10,280,1135.9220058000647,None,1135.9220058000647,None,4,1.1577375000342727,1135.9220058000647,None,1137.124637800036,None,1137.6398321001325,None,1137.6398321001325,None,f,0.4556326998863369,1137.6398321001325,None,,,NC20,001,2021_Nov_04_1030,ProdSingRedo,3.2.3,59.87615208832419,
,,,,95,0,95,0,,,,,,,,,,,,,,,,,,,,,,,,1142.9184677000158,None,,,,,,,,,,,,,,,,,citizen,new_a,white,95,104,50,1138.6623611000832,None,1138.6623611000832,None,4,1.289236799813807,1138.6623611000832,None,1139.988691400038,None,1140.505664800061,None,1140.505664800061,None,f,2.3829443000722677,1140.505664800061,None,,,NC20,001,2021_Nov_04_1030,ProdSingRedo,3.2.3,59.87615208832419,
,,,,96,0,96,0,,,,,,,,,,,,,,,,,,,,,,,,1147.199250600068,None,,,,,,,,,,,,,,,,,space,sing,white,96,19,297,1143.441937000025,None,1143.441937000025,None,5,1.8777499999850988,1143.441937000025,None,1145.3725684999954,None,1145.886866700137,None,1145.886866700137,None,f,1.2808511999901384,1145.886866700137,None,,,NC20,001,2021_Nov_04_1030,ProdSingRedo,3.2.3,59.87615208832419,
,,,,97,0,97,0,,,,,,,,,,,,,,,,,,,,,,,,1149.966396200005,None,,,,,,,,,,,,,,,,,account,new_a,white,97,105,1,1147.7290336000733,None,1147.7290336000733,None,5,1.5433145998977125,1147.7290336000733,None,1149.317348800134,None,1149.8379842001013,None,1149.8379842001013,None,f,0.09778900002129376,1149.8379842001013,None,,,NC20,001,2021_Nov_04_1030,ProdSingRedo,3.2.3,59.87615208832419,
,,,,98,0,98,0,,,,,,,,,,,,,,,,,,,,,,,,1153.3512997000944,None,,,,,,,,,,,,,,,,,broad,new_c,white,98,159,31,1150.4948128000833,None,1150.4948128000833,None,3,2.0169313999358565,1150.4948128000833,None,1152.5655543000903,None,1153.0909841000102,None,1153.0909841000102,None,n,0.2287763999775052,1153.0909841000102,None,,,NC20,001,2021_Nov_04_1030,ProdSingRedo,3.2.3,59.87615208832419,
,,,,99,0,99,0,,,,,,,,,,,,,,,,,,,,,,,,1158.4489806999918,None,,,,,,,,,,,,,,,,,scale,aloud,white,99,32,272,1153.875284299953,None,1153.875284299953,None,5,2.8763852000702173,1153.875284299953,None,1156.7981509000529,None,1157.3189419999253,None,1157.3189419999253,None,f,1.0965988000389189,1157.3189419999253,None,,,NC20,001,2021_Nov_04_1030,ProdSingRedo,3.2.3,59.87615208832419,
,,,,100,0,100,0,,,,,,,,,,,,,,,,,,,,,,,,1161.2015992000233,None,,,,,,,,,,,,,,,,,interview,aloud,white,100,58,165,1158.9816038000863,None,1158.9816038000863,None,6,1.4581728000193834,1158.9816038000863,None,1160.481972800102,None,1161.0045821000822,None,1161.0045821000822,None,r,0.16308380011469126,1161.0045821000822,None,,,NC20,001,2021_Nov_04_1030,ProdSingRedo,3.2.3,59.87615208832419,
,,,,101,0,101,0,,,,,,,,,,,,,,,,,,,,,,,,1164.0597105000634,None,,,,,,,,,,,,,,,,,heavy,silent,white,101,84,151,1161.7303429001477,None,1161.7303429001477,None,3,1.7332774000242352,1161.7303429001477,None,1163.508741900092,None,1164.0207023001276,None,1164.0207023001276,None,f,0.019096299773082137,1164.0207023001276,None,,,NC20,001,2021_Nov_04_1030,ProdSingRedo,3.2.3,59.87615208832419,
,,,,102,0,102,0,,,,,,,,,,,,,,,,,,,,,,,,1166.7848285001237,None,,,,,,,,,,,,,,,,,motion,new_a,white,102,106,194,1164.576500599971,None,1164.576500599971,None,1,1.079727299977094,1164.576500599971,None,1165.6902213001158,None,1166.1931916000322,None,1166.1931916000322,None,n,0.5666485999245197,1166.1931916000322,None,,,NC20,001,2021_Nov_04_1030,ProdSingRedo,3.2.3,59.87615208832419,
,,,,103,0,103,0,,,,,,,,,,,,,,,,,,,,,,,,1170.5935856001452,None,,,,,,,,,,,,,,,,,swift,aloud,white,103,54,320,1167.3119143000804,None,1167.3119143000804,None,6,1.5678079999051988,1167.3119143000804,None,1168.9342193999328,None,1169.455611600075,None,1169.455611600075,None,r,1.1118711999151856,1169.455611600075,None,,,NC20,001,2021_Nov_04_1030,ProdSingRedo,3.2.3,59.87615208832419,
,,,,104,0,104,0,,,,,,,,,,,,,,,,,,,,,,,,1173.7329377001151,None,,,,,,,,,,,,,,,,,grade,silent,white,104,85,140,1171.1122121999506,None,1171.1122121999506,None,6,1.5832852001767606,1171.1122121999506,None,1172.7344782999717,None,1173.2548891999759,None,1173.2548891999759,None,r,0.44878900004550815,1173.2548891999759,None,,,NC20,001,2021_Nov_04_1030,ProdSingRedo,3.2.3,59.87615208832419,
,,,,105,0,105,0,,,,,,,,,,,,,,,,,,,,,,,,1176.6696631000377,None,,,,,,,,,,,,,,,,,republic,new_a,white,105,107,260,1174.266662399983,None,1174.266662399983,None,6,1.5090587998274714,1174.266662399983,None,1175.816275200108,None,1176.3424150000792,None,1176.3424150000792,None,r,0.29792130016721785,1176.3424150000792,None,,,NC20,001,2021_Nov_04_1030,ProdSingRedo,3.2.3,59.87615208832419,
,,,,106,0,106,0,,,,,,,,,,,,,,,,,,,,,,,,1181.1698577001225,None,,,,,,,,,,,,,,,,,raise,new_c,white,106,164,250,1177.1939934999682,None,1177.1939934999682,None,2,1.3337648999877274,1177.1939934999682,None,1178.5693254000507,None,1179.0853373999707,None,1179.0853373999707,None,n,2.0584536001551896,1179.0853373999707,None,,,NC20,001,2021_Nov_04_1030,ProdSingRedo,3.2.3,59.87615208832419,
,,,,107,0,107,0,,,,,,,,,,,,,,,,,,,,,,,,1185.2185895999428,None,,,,,,,,,,,,,,,,,tragedy,sing,white,107,26,335,1181.6965145000722,None,1181.6965145000722,None,2,1.4071838001254946,1181.6965145000722,None,1183.1575738999527,None,1183.677963500144,None,1183.677963500144,None,n,1.5139234000816941,1183.677963500144,None,,,NC20,001,2021_Nov_04_1030,ProdSingRedo,3.2.3,59.87615208832419,
,,,,108,0,108,0,,,,,,,,,,,,,,,,,,,,,,,,1189.5497986001428,None,,,,,,,,,,,,,,,,,income,new_b,white,108,127,159,1185.740074899979,None,1185.740074899979,None,1,1.8357277000322938,1185.740074899979,None,1187.6099614000414,None,1188.1211950001307,None,1188.1211950001307,None,n,1.4065656000748277,1188.1211950001307,None,,,NC20,001,2021_Nov_04_1030,ProdSingRedo,3.2.3,59.87615208832419,
,,,,109,0,109,0,,,,,,,,,,,,,,,,,,,,,,,,1195.0617764999624,None,,,,,,,,,,,,,,,,,track,new_a,white,109,94,334,1190.0790025999304,None,1190.0790025999304,None,3,4.104607499903068,1190.0790025999304,None,1194.2322136999574,None,1194.7430998999625,None,1194.7430998999625,None,n,0.2963082999922335,1194.7430998999625,None,,,NC20,001,2021_Nov_04_1030,ProdSingRedo,3.2.3,59.87615208832419,
,,,,110,0,110,0,,,,,,,,,,,,,,,,,,,,,,,,1198.88848770014,None,,,,,,,,,,,,,,,,,collection,sing,white,110,3,54,1195.5780814001337,None,1195.5780814001337,None,5,2.469643099932,1195.5780814001337,None,1198.0903128001373,None,1198.6077972999774,None,1198.6077972999774,None,r,0.24797670007683337,1198.6077972999774,None,,,NC20,001,2021_Nov_04_1030,ProdSingRedo,3.2.3,59.87615208832419,
,,,,111,0,111,0,,,,,,,,,,,,,,,,,,,,,,,,1202.0456064001191,None,,,,,,,,,,,,,,,,,public,aloud,white,111,52,244,1199.4163584001362,None,1199.4163584001362,None,5,1.4553302000276744,1199.4163584001362,None,1200.9218812000472,None,1201.442144999979,None,1201.442144999979,None,r,0.573415599996224,1201.442144999979,None,,,NC20,001,2021_Nov_04_1030,ProdSingRedo,3.2.3,59.87615208832419,
,,,,112,0,112,0,,,,,,,,,,,,,,,,,,,,,,,,1206.904044700088,None,,,,,,,,,,,,,,,,,crime,silent,white,112,66,78,1202.573265900137,None,1202.573265900137,None,1,1.74632260017097,1202.573265900137,None,1204.3644723999314,None,1204.8847695000004,None,1204.8847695000004,None,f,1.9789158999919891,1204.8847695000004,None,,,NC20,001,2021_Nov_04_1030,ProdSingRedo,3.2.3,59.87615208832419,
,,,,113,0,113,0,,,,,,,,,,,,,,,,,,,,,,,,1211.2887168999296,None,,,,,,,,,,,,,,,,,goose,new_c,white,113,167,138,1207.4301659001503,None,1207.4301659001503,None,1,2.809546999866143,1207.4301659001503,None,1210.2855919001158,None,1210.805566899944,None,1210.805566899944,None,n,0.4421377999242395,1210.805566899944,None,,,NC20,001,2021_Nov_04_1030,ProdSingRedo,3.2.3,59.87615208832419,
,,,,114,0,114,0,,,,,,,,,,,,,,,,,,,,,,,,1214.7969633000903,None,,,,,,,,,,,,,,,,,bitter,aloud,white,114,46,23,1211.8131250999868,None,1211.8131250999868,None,1,1.5786191001534462,1211.8131250999868,None,1213.435015300056,None,1213.9568521999754,None,1213.9568521999754,None,n,0.8107999998610467,1213.9568521999754,None,,,NC20,001,2021_Nov_04_1030,ProdSingRedo,3.2.3,59.87615208832419,
,,,,115,0,115,0,,,,,,,,,,,,,,,,,,,,,,,,1218.3719460000284,None,,,,,,,,,,,,,,,,,direction,aloud,white,115,51,94,1215.3267985000275,None,1215.3267985000275,None,3,1.2089809998869896,1215.3267985000275,None,1216.5840328000486,None,1217.1043146001175,None,1217.1043146001175,None,f,1.2396404000464827,1217.1043146001175,None,,,NC20,001,2021_Nov_04_1030,ProdSingRedo,3.2.3,59.87615208832419,
,,,,116,0,116,0,,,,,,,,,,,,,,,,,,,,,,,,1220.8455310999416,None,,,,,,,,,,,,,,,,,payment,new_c,white,116,156,215,1218.9018574999645,None,1218.9018574999645,None,1,0.9780385000631213,1218.9018574999645,None,1219.9199717999436,None,1220.4453340000473,None,1220.4453340000473,None,n,0.3623399001080543,1220.4453340000473,None,,,NC20,001,2021_Nov_04_1030,ProdSingRedo,3.2.3,59.87615208832419,
,,,,117,0,117,0,,,,,,,,,,,,,,,,,,,,,,,,1223.773046999937,None,,,,,,,,,,,,,,,,,atmosphere,new_b,white,117,128,12,1221.3626501001418,None,1221.3626501001418,None,4,1.7410122998990119,1221.3626501001418,None,1223.1543463999406,None,1223.6713283001445,None,1223.6713283001445,None,f,0.07270260015502572,1223.6713283001445,None,,,NC20,001,2021_Nov_04_1030,ProdSingRedo,3.2.3,59.87615208832419,
,,,,118,0,118,0,,,,,,,,,,,,,,,,,,,,,,,,1226.6914725999814,None,,,,,,,,,,,,,,,,,whole,sing,white,118,22,355,1224.2986564000603,None,1224.2986564000603,None,4,1.196981400018558,1224.2986564000603,None,1225.5279407000635,None,1226.0378535001073,None,1226.0378535001073,None,f,0.6260158999357373,1226.0378535001073,None,,,NC20,001,2021_Nov_04_1030,ProdSingRedo,3.2.3,59.87615208832419,
,,,,119,0,119,0,,,,,,,,,,,,,,,,,,,,,,,,1229.3051353001501,None,,,,,,,,,,,,,,,,,owner,new_b,white,119,145,208,1227.2105994999874,None,1227.2105994999874,None,4,1.2449264999013394,1227.2105994999874,None,1228.5000734000932,None,1229.023902399931,None,1229.023902399931,None,f,0.2562208001036197,1229.023902399931,None,,,NC20,001,2021_Nov_04_1030,ProdSingRedo,3.2.3,59.87615208832419,
,,,,120,0,120,0,,,,,,,,,,,,,,,,,,,,,,,,1232.561975199962,None,,,,,,,,,,,,,,,,,tennis,new_b,white,120,143,323,1229.8267719999421,None,1229.8267719999421,None,5,1.8287909999489784,1229.8267719999421,None,1231.687919500051,None,1232.2073085999582,None,1232.2073085999582,None,f,0.3126022999640554,1232.2073085999582,None,,,NC20,001,2021_Nov_04_1030,ProdSingRedo,3.2.3,59.87615208832419,
,,,,121,0,121,0,,,,,,,,,,,,,,,,,,,,,,,,1235.426060799975,None,,,,,,,,,,,,,,,,,quantity,silent,white,121,64,245,1233.084758500103,None,1233.084758500103,None,6,1.3548823001328856,1233.084758500103,None,1234.4820679000113,None,1234.9950739000924,None,1234.9950739000924,None,r,0.3965815999545157,1234.9950739000924,None,,,NC20,001,2021_Nov_04_1030,ProdSingRedo,3.2.3,59.87615208832419,
,,,,122,0,122,0,,,,,,,,,,,,,,,,,,,,,,,,1237.6646978000645,None,,,,,,,,,,,,,,,,,management,aloud,white,122,49,177,1235.9564102999866,None,1235.9564102999866,None,6,0.835365799954161,1235.9564102999866,None,1236.8386774000246,None,1237.36238029995,None,1237.36238029995,None,r,0.28505960013717413,1237.36238029995,None,,,NC20,001,2021_Nov_04_1030,ProdSingRedo,3.2.3,59.87615208832419,
,,,,123,0,123,0,,,,,,,,,,,,,,,,,,,,,,,,1239.72317020013,None,,,,,,,,,,,,,,,,,sound,silent,white,123,78,295,1238.1851770000067,None,1238.1851770000067,None,6,0.6863628998398781,1238.1851770000067,None,1238.9064245999325,None,1239.42424520012,None,1239.42424520012,None,r,0.26350030000321567,1239.42424520012,None,,,NC20,001,2021_Nov_04_1030,ProdSingRedo,3.2.3,59.87615208832419,
,,,,124,0,124,0,,,,,,,,,,,,,,,,,,,,,,,,1243.1391259999946,None,,,,,,,,,,,,,,,,,enemy,new_b,white,124,149,113,1240.2475219001062,None,1240.2475219001062,None,2,1.5681973001919687,1240.2475219001062,None,1241.8820489000063,None,1242.3887776001357,None,1242.3887776001357,None,n,0.7231272000353783,1242.3887776001357,None,,,NC20,001,2021_Nov_04_1030,ProdSingRedo,3.2.3,59.87615208832419,
,,,,125,0,125,0,,,,,,,,,,,,,,,,,,,,,,,,1246.4390301001258,None,,,,,,,,,,,,,,,,,produce,new_c,white,125,160,239,1243.667056800099,None,1243.667056800099,None,3,1.3729761000722647,1243.667056800099,None,1245.0874882000498,None,1245.6113214001525,None,1245.6113214001525,None,n,0.8044488001614809,1245.6113214001525,None,,,NC20,001,2021_Nov_04_1030,ProdSingRedo,3.2.3,59.87615208832419,
,,,,126,0,126,0,,,,,,,,,,,,,,,,,,,,,,,,1250.7064102001023,None,,,,,,,,,,,,,,,,,stranger,new_c,white,126,170,309,1246.9683133000508,None,1246.9683133000508,None,4,1.9511891999281943,1246.9683133000508,None,1248.9593951001298,None,1249.4733395001385,None,1249.4733395001385,None,f,1.1983050999697298,1249.4733395001385,None,,,NC20,001,2021_Nov_04_1030,ProdSingRedo,3.2.3,59.87615208832419,
,,,,127,0,127,0,,,,,,,,,,,,,,,,,,,,,,,,1254.5871628001332,None,,,,,,,,,,,,,,,,,quarter,new_c,white,127,171,246,1251.234789900016,None,1251.234789900016,None,1,2.2453467999584973,1251.234789900016,None,1253.5197924000677,None,1254.040183100151,None,1254.040183100151,None,n,0.5193013001699001,1254.040183100151,None,,,NC20,001,2021_Nov_04_1030,ProdSingRedo,3.2.3,59.87615208832419,
,,,,128,0,128,0,,,,,,,,,,,,,,,,,,,,,,,,1258.5672051000874,None,,,,,,,,,,,,,,,,,story,new_a,white,128,110,306,1255.0993047000375,None,1255.0993047000375,None,2,2.6044326000846922,1255.0993047000375,None,1257.7495598001406,None,1258.25800599996,None,1258.25800599996,None,n,0.2778306999243796,1258.25800599996,None,,,NC20,001,2021_Nov_04_1030,ProdSingRedo,3.2.3,59.87615208832419,
,,,,129,0,129,0,,,,,,,,,,,,,,,,,,,,,,,,1261.5247039999813,None,,,,,,,,,,,,,,,,,marriage,aloud,white,129,53,179,1259.098546500085,None,1259.098546500085,None,6,1.5653119999915361,1259.098546500085,None,1260.7116918000393,None,1261.227913599927,None,1261.227913599927,None,r,0.26874150009825826,1261.227913599927,None,,,NC20,001,2021_Nov_04_1030,ProdSingRedo,3.2.3,59.87615208832419,
,,,,130,0,130,0,,,,,,,,,,,,,,,,,,,,,,,,1264.9670661001,None,,,,,,,,,,,,,,,,,commercial,new_b,white,130,137,61,1262.0529603001196,None,1262.0529603001196,None,6,2.0746894001495093,1262.0529603001196,None,1264.166844600113,None,1264.6648329000454,None,1264.6648329000454,None,r,0.27081190003082156,1264.6648329000454,None,,,NC20,001,2021_Nov_04_1030,ProdSingRedo,3.2.3,59.87615208832419,
,,,,131,0,131,0,,,,,,,,,,,,,,,,,,,,,,,,1269.5776065001264,None,,,,,,,,,,,,,,,,,trial,sing,white,131,25,341,1265.488927999977,None,1265.488927999977,None,4,2.6388490002136678,1265.488927999977,None,1268.1809368000831,None,1268.6956285000779,None,1268.6956285000779,None,f,0.8481364999897778,1268.6956285000779,None,,,NC20,001,2021_Nov_04_1030,ProdSingRedo,3.2.3,59.87615208832419,
,,,,132,0,132,0,,,,,,,,,,,,,,,,,,,,,,,,1273.885686900001,None,,,,,,,,,,,,,,,,,clear,sing,white,132,2,52,1270.1015908999834,None,1270.1015908999834,None,4,2.6742461000103503,1270.1015908999834,None,1272.816762600094,None,1273.3252032001037,None,1273.3252032001037,None,f,0.5303850001655519,1273.3252032001037,None,,,NC20,001,2021_Nov_04_1030,ProdSingRedo,3.2.3,59.87615208832419,
,,,,133,0,133,0,,,,,,,,,,,,,,,,,,,,,,,,1276.7718810001388,None,,,,,,,,,,,,,,,,,waste,aloud,white,133,42,350,1274.4162353000138,None,1274.4162353000138,None,4,1.4639224000275135,1274.4162353000138,None,1275.9142162001226,None,1276.4271510001272,None,1276.4271510001272,None,f,0.31659810012206435,1276.4271510001272,None,,,NC20,001,2021_Nov_04_1030,ProdSingRedo,3.2.3,59.87615208832419,
,,,,134,0,134,0,,,,,,,,,,,,,,,,,,,,,,,,1279.7590384001378,None,,,,,,,,,,,,,,,,,front,new_a,white,134,93,134,1277.3025875000749,None,1277.3025875000749,None,1,1.4731646000873297,1277.3025875000749,None,1278.827151000034,None,1279.3440702001099,None,1279.3440702001099,None,n,0.37563810008578,1279.3440702001099,None,,,NC20,001,2021_Nov_04_1030,ProdSingRedo,3.2.3,59.87615208832419,
,,,,135,0,135,0,,,,,,,,,,,,,,,,,,,,,,,,1282.2177520999685,None,,,,,,,,,,,,,,,,,short,new_a,white,135,112,285,1280.2781060000416,None,1280.2781060000416,None,1,1.0736652000341564,1280.2781060000416,None,1281.3919840001035,None,1281.9087569999974,None,1281.9087569999974,None,n,0.29089959990233183,1281.9087569999974,None,,,NC20,001,2021_Nov_04_1030,ProdSingRedo,3.2.3,59.87615208832419,
,,,,136,0,136,0,,,,,,,,,,,,,,,,,,,,,,,,1284.4179686999414,None,,,,,,,,,,,,,,,,,benefit,new_a,white,136,118,20,1282.7448569999542,None,1282.7448569999542,None,1,0.7108643997926265,1282.7448569999542,None,1283.5112211001106,None,1284.0353455001023,None,1284.0353455001023,None,n,0.35634440020658076,1284.0353455001023,None,,,NC20,001,2021_Nov_04_1030,ProdSingRedo,3.2.3,59.87615208832419,
,,,,137,0,137,0,,,,,,,,,,,,,,,,,,,,,,,,1287.4596148000564,None,,,,,,,,,,,,,,,,,weight,sing,white,137,27,353,1284.9352693001274,None,1284.9352693001274,None,4,1.5444583999924362,1284.9352693001274,None,1286.519049800001,None,1287.0314100000542,None,1287.0314100000542,None,f,0.39253449998795986,1287.0314100000542,None,,,NC20,001,2021_Nov_04_1030,ProdSingRedo,3.2.3,59.87615208832419,
,,,,138,0,138,0,,,,,,,,,,,,,,,,,,,,,,,,1293.89307989995,None,,,,,,,,,,,,,,,,,piece,new_c,white,138,161,221,1287.9828057999257,None,1287.9828057999257,None,4,5.065444899955764,1287.9828057999257,None,1293.0866692001,None,1293.6001701999921,None,1293.6001701999921,None,f,0.2637032999191433,1293.6001701999921,None,,,NC20,001,2021_Nov_04_1030,ProdSingRedo,3.2.3,59.87615208832419,
,,,,139,0,139,0,,,,,,,,,,,,,,,,,,,,,,,,1296.9105341001414,None,,,,,,,,,,,,,,,,,impact,sing,white,139,15,157,1294.4194088000804,None,1294.4194088000804,None,4,1.2283803999889642,1294.4194088000804,None,1295.6875754999928,None,1296.1969820000231,None,1296.1969820000231,None,n,0.6827750999946147,1296.1969820000231,None,,,NC20,001,2021_Nov_04_1030,ProdSingRedo,3.2.3,59.87615208832419,
,,,,140,0,140,0,,,,,,,,,,,,,,,,,,,,,,,,1299.5521744000725,None,,,,,,,,,,,,,,,,,emergency,new_c,white,140,166,110,1297.4378941999748,None,1297.4378941999748,None,5,1.169874999905005,1297.4378941999748,None,1298.6637546001002,None,1299.1793690000195,None,1299.1793690000195,None,f,0.35618790006265044,1299.1793690000195,None,,,NC20,001,2021_Nov_04_1030,ProdSingRedo,3.2.3,59.87615208832419,
,,,,141,0,141,0,,,,,,,,,,,,,,,,,,,,,,,,1304.3275800999254,None,,,,,,,,,,,,,,,,,comfort,new_c,white,141,165,59,1300.0712699999567,None,1300.0712699999567,None,3,2.3453569998964667,1300.0712699999567,None,1302.4538724999875,None,1302.9810508999508,None,1302.9810508999508,None,f,1.3064687000587583,1302.9810508999508,None,,,NC20,001,2021_Nov_04_1030,ProdSingRedo,3.2.3,59.87615208832419,
,,,,142,0,142,0,,,,,,,,,,,,,,,,,,,,,,,,1308.4606459999923,None,,,,,,,,,,,,,,,,,primary,new_a,white,142,102,234,1304.857199900085,None,1304.857199900085,None,4,2.670642700046301,1304.857199900085,None,1307.5777885999996,None,1308.089531000005,None,1308.089531000005,None,f,0.33431609999388456,1308.089531000005,None,,,NC20,001,2021_Nov_04_1030,ProdSingRedo,3.2.3,59.87615208832419,
,,,,143,0,143,0,,,,,,,,,,,,,,,,,,,,,,,,1311.4165066001005,None,,,,,,,,,,,,,,,,,science,sing,white,143,6,275,1308.983729599975,None,1308.983729599975,None,1,1.424090800108388,1308.983729599975,None,1310.4583650999703,None,1310.9763994000386,None,1310.9763994000386,None,n,0.40773950004950166,1310.9763994000386,None,,,NC20,001,2021_Nov_04_1030,ProdSingRedo,3.2.3,59.87615208832419,
,,,,144,0,144,0,,,,,,,,,,,,,,,,,,,,,,,,1314.6540341000073,None,,,,,,,,,,,,,,,,,clean,new_a,white,144,90,51,1311.9386561999563,None,1311.9386561999563,None,1,2.125101499957964,1311.9386561999563,None,1314.1010589001235,None,1314.6033441999462,None,1314.6033441999462,None,n,0.020144399954006076,1314.6033441999462,None,,,NC20,001,2021_Nov_04_1030,ProdSingRedo,3.2.3,59.87615208832419,
,,,,145,0,145,0,,,,,,,,,,,,,,,,,,,,,,,,1317.2015792001039,None,,,,,,,,,,,,,,,,,guard,new_b,white,145,130,145,1315.168446100084,None,1315.168446100084,None,4,1.4551095999777317,1315.168446100084,None,1316.6606687000021,None,1317.1683082999662,None,1317.1683082999662,None,f,0.015231600031256676,1317.1683082999662,None,,,NC20,001,2021_Nov_04_1030,ProdSingRedo,3.2.3,59.87615208832419,
,,,,146,0,146,0,,,,,,,,,,,,,,,,,,,,,,,,1320.6621904999483,None,,,,,,,,,,,,,,,,,write,aloud,white,146,56,358,1317.704120800132,None,1317.704120800132,None,2,1.4715913999825716,1317.704120800132,None,1319.222664900124,None,1319.7464052001014,None,1319.7464052001014,None,f,0.8775195998605341,1319.7464052001014,None,,,NC20,001,2021_Nov_04_1030,ProdSingRedo,3.2.3,59.87615208832419,
,,,,147,0,147,0,,,,,,,,,,,,,,,,,,,,,,,,1325.2785086000804,None,,,,,,,,,,,,,,,,,notice,aloud,white,147,30,201,1321.1827982999384,None,1321.1827982999384,None,3,2.193049999885261,1321.1827982999384,None,1323.4237892001402,None,1323.9435604999308,None,1323.9435604999308,None,f,1.2961662001907825,1323.9435604999308,None,,,NC20,001,2021_Nov_04_1030,ProdSingRedo,3.2.3,59.87615208832419,
,,,,148,0,148,0,,,,,,,,,,,,,,,,,,,,,,,,1328.2957361999433,None,,,,,,,,,,,,,,,,,school,aloud,white,148,41,274,1325.8099015001208,None,1325.8099015001208,None,3,1.3903898999560624,1325.8099015001208,None,1327.2322794001084,None,1327.7458128000144,None,1327.7458128000144,None,f,0.5101539001334459,1327.7458128000144,None,,,NC20,001,2021_Nov_04_1030,ProdSingRedo,3.2.3,59.87615208832419,
,,,,149,0,149,0,,,,,,,,,,,,,,,,,,,,,,,,1332.0798100000247,None,,,,,,,,,,,,,,,,,hunger,new_a,white,149,95,155,1328.819309799932,None,1328.819309799932,None,3,2.0363926999270916,1328.819309799932,None,1330.8999264999293,None,1331.4182237000205,None,1331.4182237000205,None,f,0.6295131000224501,1331.4182237000205,None,,,NC20,001,2021_Nov_04_1030,ProdSingRedo,3.2.3,59.87615208832419,
,,,,150,0,150,0,,,,,,,,,,,,,,,,,,,,,,,,1336.6559133001138,None,,,,,,,,,,,,,,,,,figure,aloud,white,150,57,128,1332.60232740012,None,1332.60232740012,None,4,1.4212774999905378,1332.60232740012,None,1334.068056799937,None,1334.5807213000953,None,1334.5807213000953,None,f,2.043006599880755,1334.5807213000953,None,,,NC20,001,2021_Nov_04_1030,ProdSingRedo,3.2.3,59.87615208832419,
,,,,151,0,151,0,,,,,,,,,,,,,,,,,,,,,,,,1342.0640366999432,None,,,,,,,,,,,,,,,,,union,sing,white,151,23,344,1337.1868167000357,None,1337.1868167000357,None,3,3.1491459999233484,1337.1868167000357,None,1340.3791684999596,None,1340.897259300109,None,1340.897259300109,None,f,1.1342928998637944,1340.897259300109,None,,,NC20,001,2021_Nov_04_1030,ProdSingRedo,3.2.3,59.87615208832419,
,,,,152,0,152,0,,,,,,,,,,,,,,,,,,,,,,,,1344.720708400011,None,,,,,,,,,,,,,,,,,death,silent,white,152,73,86,1342.573534999974,None,1342.573534999974,None,5,1.506258999928832,1342.573534999974,None,1344.1221197000705,None,1344.6392948001157,None,1344.6392948001157,None,f,0.06425819988362491,1344.6392948001157,None,,,NC20,001,2021_Nov_04_1030,ProdSingRedo,3.2.3,59.87615208832419,
,,,,153,0,153,0,,,,,,,,,,,,,,,,,,,,,,,,1348.0286117000505,None,,,,,,,,,,,,,,,,,passage,new_a,white,153,96,212,1345.2213437000755,None,1345.2213437000755,None,5,1.770455100107938,1345.2213437000755,None,1347.0380295999348,None,1347.5554526001215,None,1347.5554526001215,None,r,0.4441784000955522,1347.5554526001215,None,,,NC20,001,2021_Nov_04_1030,ProdSingRedo,3.2.3,59.87615208832419,
,,,,154,0,154,0,,,,,,,,,,,,,,,,,,,,,,,,1352.233549100114,None,,,,,,,,,,,,,,,,,permit,silent,white,154,72,218,1348.553479500115,None,1348.553479500115,None,4,2.6303163000848144,1348.553479500115,None,1351.2253958000802,None,1351.744909600122,None,1351.744909600122,None,f,0.4468791000545025,1351.744909600122,None,,,NC20,001,2021_Nov_04_1030,ProdSingRedo,3.2.3,59.87615208832419,
,,,,155,0,155,0,,,,,,,,,,,,,,,,,,,,,,,,1355.1318413000554,None,,,,,,,,,,,,,,,,,present,silent,white,155,63,231,1352.755307600135,None,1352.755307600135,None,4,1.5648933998309076,1352.755307600135,None,1354.3562237999868,None,1354.8650436000898,None,1354.8650436000898,None,f,0.2389481000136584,1354.8650436000898,None,,,NC20,001,2021_Nov_04_1030,ProdSingRedo,3.2.3,59.87615208832419,
,,,,156,0,156,0,,,,,,,,,,,,,,,,,,,,,,,,1358.722830099985,None,,,,,,,,,,,,,,,,,mankind,aloud,white,156,36,178,1355.6596266000997,None,1355.6596266000997,None,2,1.2605006000958383,1355.6596266000997,None,1356.9608285001013,None,1357.4859307999723,None,1357.4859307999723,None,n,1.2177036001812667,1357.4859307999723,None,,,NC20,001,2021_Nov_04_1030,ProdSingRedo,3.2.3,59.87615208832419,
,,,,157,0,157,0,,,,,,,,,,,,,,,,,,,,,,,,1362.2479445000645,None,,,,,,,,,,,,,,,,,profession,new_c,white,157,175,241,1359.240715400083,None,1359.240715400083,None,3,1.89565770002082,1359.240715400083,None,1361.1821503001265,None,1361.700112099992,None,1361.700112099992,None,n,0.5078036999329925,1361.700112099992,None,,,NC20,001,2021_Nov_04_1030,ProdSingRedo,3.2.3,59.87615208832419,
,,,,158,0,158,0,,,,,,,,,,,,,,,,,,,,,,,,1364.814292800147,None,,,,,,,,,,,,,,,,,community,silent,white,158,77,63,1362.7770537000615,None,1362.7770537000615,None,4,1.3668700000271201,1362.7770537000615,None,1364.2037549000233,None,1364.721463300055,None,1364.721463300055,None,f,0.05431689997203648,1364.721463300055,None,,,NC20,001,2021_Nov_04_1030,ProdSingRedo,3.2.3,59.87615208832419,
,,,,159,0,159,0,,,,,,,,,,,,,,,,,,,,,,,,1367.714292400051,None,,,,,,,,,,,,,,,,,surprise,new_a,white,159,108,317,1365.3409540001303,None,1365.3409540001303,None,2,1.3548805001191795,1365.3409540001303,None,1366.7490399000235,None,1367.2692991001531,None,1367.2692991001531,None,n,0.4103838999290019,1367.2692991001531,None,,,NC20,001,2021_Nov_04_1030,ProdSingRedo,3.2.3,59.87615208832419,
,,,,160,0,160,0,,,,,,,,,,,,,,,,,,,,,,,,1375.7441970999353,None,,,,,,,,,,,,,,,,,conference,silent,white,160,71,66,1368.239250499988,None,1368.239250499988,None,3,5.760534999892116,1368.239250499988,None,1374.0406627000775,None,1374.567726700101,None,1374.567726700101,None,f,1.1439912000205368,1374.567726700101,None,,,NC20,001,2021_Nov_04_1030,ProdSingRedo,3.2.3,59.87615208832419,
,,,,161,0,161,0,,,,,,,,,,,,,,,,,,,,,,,,1378.647852800088,None,,,,,,,,,,,,,,,,,religion,new_a,white,161,97,258,1376.2740816001315,None,1376.2740816001315,None,4,1.437802900094539,1376.2740816001315,None,1377.7661119000986,None,1378.2762709001545,None,1378.2762709001545,None,f,0.3396533001214266,1378.2762709001545,None,,,NC20,001,2021_Nov_04_1030,ProdSingRedo,3.2.3,59.87615208832419,
,,,,162,0,162,0,,,,,,,,,,,,,,,,,,,,,,,,1383.4478309999686,None,,,,,,,,,,,,,,,,,broke,new_c,white,162,153,32,1379.1788667000365,None,1379.1788667000365,None,4,3.3967675999738276,1379.1788667000365,None,1382.6343599001411,None,1383.1405035001226,None,1383.1405035001226,None,f,0.28341170004568994,1383.1405035001226,None,,,NC20,001,2021_Nov_04_1030,ProdSingRedo,3.2.3,59.87615208832419,
,,,,163,0,163,0,,,,,,,,,,,,,,,,,,,,,,,,1390.458399000112,None,,,,,,,,,,,,,,,,,level,aloud,white,163,44,170,1383.9758311000187,None,1383.9758311000187,None,3,3.640111899934709,1383.9758311000187,None,1387.6580260000192,None,1388.1695427000523,None,1388.1695427000523,None,n,2.270407000090927,1388.1695427000523,None,,,NC20,001,2021_Nov_04_1030,ProdSingRedo,3.2.3,59.87615208832419,
,,,,164,0,164,0,,,,,,,,,,,,,,,,,,,,,,,,1393.5598872001283,None,,,,,,,,,,,,,,,,,brief,new_a,white,164,91,28,1390.9761316999793,None,1390.9761316999793,None,1,1.4638117998838425,1390.9761316999793,None,1392.47976440005,None,1393.005819800077,None,1393.005819800077,None,n,0.5299590998329222,1393.005819800077,None,,,NC20,001,2021_Nov_04_1030,ProdSingRedo,3.2.3,59.87615208832419,
,,,,165,0,165,0,,,,,,,,,,,,,,,,,,,,,,,,1397.300493299961,None,,,,,,,,,,,,,,,,,point,new_b,white,165,132,226,1394.0871731000952,None,1394.0871731000952,None,2,1.9286358000244945,1394.0871731000952,None,1396.0583381000906,None,1396.5621440000832,None,1396.5621440000832,None,n,0.7017779999878258,1396.5621440000832,None,,,NC20,001,2021_Nov_04_1030,ProdSingRedo,3.2.3,59.87615208832419,
,,,,166,0,166,0,,,,,,,,,,,,,,,,,,,,,,,,1400.4434088000562,None,,,,,,,,,,,,,,,,,military,new_b,white,166,134,190,1397.8236376000568,None,1397.8236376000568,None,4,1.424113699933514,1397.8236376000568,None,1399.291418600129,None,1399.806713799946,None,1399.806713799946,None,f,0.6089643999002874,1399.806713799946,None,,,NC20,001,2021_Nov_04_1030,ProdSingRedo,3.2.3,59.87615208832419,
,,,,167,0,167,0,,,,,,,,,,,,,,,,,,,,,,,,1403.053974899929,None,,,,,,,,,,,,,,,,,edition,silent,white,167,68,107,1400.9687187999953,None,1400.9687187999953,None,1,1.0874149999581277,1400.9687187999953,None,1402.0970265001524,None,1402.61555210012,None,1402.61555210012,None,n,0.4002561999950558,1402.61555210012,None,,,NC20,001,2021_Nov_04_1030,ProdSingRedo,3.2.3,59.87615208832419,
,,,,168,0,168,0,,,,,,,,,,,,,,,,,,,,,,,,1405.542595700128,None,,,,,,,,,,,,,,,,,nature,silent,white,168,76,200,1403.5774348000996,None,1403.5774348000996,None,1,1.0622012000530958,1403.5774348000996,None,1404.6696773001458,None,1405.1739962000865,None,1405.1739962000865,None,n,0.33762210002169013,1405.1739962000865,None,,,NC20,001,2021_Nov_04_1030,ProdSingRedo,3.2.3,59.87615208832419,
,,,,169,0,169,0,,,,,,,,,,,,,,,,,,,,,,,,1408.38407619996,None,,,,,,,,,,,,,,,,,company,aloud,white,169,45,64,1406.063734000083,None,1406.063734000083,None,2,1.4481040998362005,1406.063734000083,None,1407.5679447001312,None,1408.0899434001185,None,1408.0899434001185,None,n,0.2700180998072028,1408.0899434001185,None,,,NC20,001,2021_Nov_04_1030,ProdSingRedo,3.2.3,59.87615208832419,
,,,,170,0,170,0,,,,,,,,,,,,,,,,,,,,,,,,1412.7685108000878,None,,,,,,,,,,,,,,,,,theme,new_c,white,170,176,326,1408.9066876000725,None,1408.9066876000725,None,3,1.7497356000822037,1408.9066876000725,None,1410.6923464001156,None,1411.200894900132,None,1411.200894900132,None,f,1.5429489000234753,1411.200894900132,None,,,NC20,001,2021_Nov_04_1030,ProdSingRedo,3.2.3,59.87615208832419,
,,,,171,0,171,0,,,,,,,,,,,,,,,,,,,,,,,,1416.2104446000885,None,,,,,,,,,,,,,,,,,force,new_b,white,171,135,131,1413.2910357001238,None,1413.2910357001238,None,3,1.276744200149551,1413.2910357001238,None,1414.6017762999982,None,1415.1185252999421,None,1415.1185252999421,None,f,1.073356700129807,1415.1185252999421,None,,,NC20,001,2021_Nov_04_1030,ProdSingRedo,3.2.3,59.87615208832419,
,,,,172,0,172,0,,,,,,,,,,,,,,,,,,,,,,,,1419.3745409999974,None,,,,,,,,,,,,,,,,,bicycle,new_b,white,172,122,21,1416.744461500086,None,1416.744461500086,None,3,1.7033056002110243,1416.744461500086,None,1418.4941289999988,None,1419.0219779000618,None,1419.0219779000618,None,n,0.3138168000150472,1419.0219779000618,None,,,NC20,001,2021_Nov_04_1030,ProdSingRedo,3.2.3,59.87615208832419,
,,,,173,0,173,0,,,,,,,,,,,,,,,,,,,,,,,,1421.8827744000591,None,,,,,,,,,,,,,,,,,column,sing,white,173,8,57,1419.8947668001056,None,1419.8947668001056,None,3,1.097146299900487,1419.8947668001056,None,1421.0336853000335,None,1421.5521958000027,None,1421.5521958000027,None,n,0.2956242000218481,1421.5521958000027,None,,,NC20,001,2021_Nov_04_1030,ProdSingRedo,3.2.3,59.87615208832419,
,,,,174,0,174,0,,,,,,,,,,,,,,,,,,,,,,,,1425.186013800092,None,,,,,,,,,,,,,,,,,division,new_c,white,174,151,101,1422.4139855001122,None,1422.4139855001122,None,2,1.1378546999767423,1422.4139855001122,None,1423.5943825000431,None,1424.1223736000247,None,1424.1223736000247,None,f,1.0375342001207173,1424.1223736000247,None,,,NC20,001,2021_Nov_04_1030,ProdSingRedo,3.2.3,59.87615208832419,
,,,,175,0,175,0,,,,,,,,,,,,,,,,,,,,,,,,1427.8185306000523,None,,,,,,,,,,,,,,,,,orchestra,new_b,white,175,129,206,1425.7117522000335,None,1425.7117522000335,None,1,1.1361610998865217,1425.7117522000335,None,1426.8942462000996,None,1427.4068796001375,None,1427.4068796001375,None,n,0.37695679999887943,1427.4068796001375,None,,,NC20,001,2021_Nov_04_1030,ProdSingRedo,3.2.3,59.87615208832419,
,,,,176,0,176,0,,,,,,,,,,,,,,,,,,,,,,,,1429.8851153999567,None,,,,,,,,,,,,,,,,,material,sing,white,176,1,182,1428.348408000078,None,1428.348408000078,None,1,0.6515609000343829,1428.348408000078,None,1429.0498003000394,None,1429.5719821001403,None,1429.5719821001403,None,n,0.2838124001864344,1429.5719821001403,None,,,NC20,001,2021_Nov_04_1030,ProdSingRedo,3.2.3,59.87615208832419,
,,,,177,0,177,0,,,,,,,,,,,,,,,,,,,,,,,,1433.5285751000047,None,,,,,,,,,,,,,,,,,alert,sing,white,177,24,6,1430.411366400076,None,1430.411366400076,None,4,2.0523206000216305,1430.411366400076,None,1432.5029130999465,None,1433.0206814999692,None,1433.0206814999692,None,f,0.4832159001380205,1433.0206814999692,None,,,NC20,001,2021_Nov_04_1030,ProdSingRedo,3.2.3,59.87615208832419,
,,,,178,0,178,0,,,,,,,,,,,,,,,,,,,,,,,,1437.2125938001554,None,,,,,,,,,,,,,,,,,device,aloud,white,178,38,93,1434.0488297999837,None,1434.0488297999837,None,5,1.5991831999272108,1434.0488297999837,None,1435.6873963000253,None,1436.2116219999734,None,1436.2116219999734,None,r,0.9720735000446439,1436.2116219999734,None,,,NC20,001,2021_Nov_04_1030,ProdSingRedo,3.2.3,59.87615208832419,
,,,,179,0,179,0,,,,,,,,,,,,,,,,,,,,,,,,1442.8700258000754,None,,,,,,,,,,,,,,,,,close,new_b,white,179,123,53,1437.7401825000998,None,1437.7401825000998,None,4,4.179360199952498,1437.7401825000998,None,1441.9459458000492,None,1442.4675030999351,None,1442.4675030999351,None,f,0.3644512000028044,1442.4675030999351,None,,,NC20,001,2021_Nov_04_1030,ProdSingRedo,3.2.3,59.87615208832419,
,,,,,,,,,,,,,,,,,,,,,,,,,,,,,,,,,,,,,,,,,,,,,,,,,,,,,,,,,,,,,,,,,,,,,,,,,1443.3775643000845,None,,,,,,,
