StudyLoop.thisRepN,StudyLoop.thisTrialN,StudyLoop.thisN,StudyLoop.thisIndex,TestLoop.thisRepN,TestLoop.thisTrialN,TestLoop.thisN,TestLoop.thisIndex,textCondition.started,textCondition.stopped,keyCondition.keys,keyCondition.rt,keyCondition.started,keyCondition.stopped,Condition,stim_colors,color_sing,color_aloud,color_silent,textWelcome.started,textWelcome.stopped,keyWelcome.keys,keyWelcome.rt,keyWelcome.started,keyWelcome.stopped,textAloud.started,textAloud.stopped,textSilent.started,textSilent.stopped,textSing.started,textSing.stopped,textBlank500.started,textBlank500.stopped,study_word,study_type,study_color,study_num,study_word_num,textStudy.started,textStudy.stopped,keyStudy.keys,keyStudy.started,keyStudy.stopped,textTestInstructions.started,textTestInstructions.stopped,key_resp_3.keys,key_resp_3.rt,key_resp_3.started,key_resp_3.stopped,testWord,testType,testColor,testN,test_num,test_word_num,textConf.started,textConf.stopped,textConfScale.started,textConfScale.stopped,keyConf.keys,keyConf.rt,keyConf.started,keyConf.stopped,textTestBlank.started,textTestBlank.stopped,textRKN.started,textRKN.stopped,textRKNScale.started,textRKNScale.stopped,keyRKN.keys,keyRKN.rt,keyRKN.started,keyRKN.stopped,textEnd.started,textEnd.stopped,participant,session,date,expName,psychopyVersion,frameRate,
,,,,,,,,14.137639899738133,None,n,2.2789618000388145,14.137639899738133,None,,,,,,,,,,,,,,,,,,,,,,,,,,,,,,,,,,,,,,,,,,,,,,,,,,,,,,,,,,,,,,NC21,001,2021_Nov_08_1525,ProdSingRedo,3.2.3,59.94995376043702,
,,,,,,,,,,,,,,NeutralTest,"['red', 'yellow', 'blue']",red,yellow,blue,16.47059439960867,None,space,2045.7796630999073,16.47059439960867,None,,,,,,,,,,,,,,,,,,,,,,,,,,,,,,,,,,,,,,,,,,,,,,,,,,,NC21,001,2021_Nov_08_1525,ProdSingRedo,3.2.3,59.94995376043702,
0,0,0,0,,,,,,,,,,,,,,,,,,,,,,16.47059439960867,None,16.47059439960867,None,16.47059439960867,None,2064.7852729996666,None,minute,silent,blue,70,192,2062.783011699561,None,None,2062.783011699561,None,,,,,,,,,,,,,,,,,,,,,,,,,,,,,,,,,NC21,001,2021_Nov_08_1525,ProdSingRedo,3.2.3,59.94995376043702,
1,0,1,0,,,,,,,,,,,,,,,,,,,,,,,,,,,,2067.3044826998375,None,quiet,sing,red,11,249,2065.302577099763,None,None,2065.302577099763,None,,,,,,,,,,,,,,,,,,,,,,,,,,,,,,,,,NC21,001,2021_Nov_08_1525,ProdSingRedo,3.2.3,59.94995376043702,
2,0,2,0,,,,,,,,,,,,,,,,,,,,,,,,,,,,2069.8065474997275,None,mechanical,sing,red,3,185,2067.8046192997135,None,None,2067.8046192997135,None,,,,,,,,,,,,,,,,,,,,,,,,,,,,,,,,,NC21,001,2021_Nov_08_1525,ProdSingRedo,3.2.3,59.94995376043702,
3,0,3,0,,,,,,,,,,,,,,,,,,,,,,,,,,,,2072.311182699632,None,height,aloud,yellow,39,152,2070.307025999762,None,None,2070.307025999762,None,,,,,,,,,,,,,,,,,,,,,,,,,,,,,,,,,NC21,001,2021_Nov_08_1525,ProdSingRedo,3.2.3,59.94995376043702,
4,0,4,0,,,,,,,,,,,,,,,,,,,,,,,,,,,,2074.8136749998666,None,direction,aloud,yellow,53,94,2072.8117142999545,None,None,2072.8117142999545,None,,,,,,,,,,,,,,,,,,,,,,,,,,,,,,,,,NC21,001,2021_Nov_08_1525,ProdSingRedo,3.2.3,59.94995376043702,
5,0,5,0,,,,,,,,,,,,,,,,,,,,,,,,,,,,2077.333386999555,None,novel,sing,red,19,202,2075.336403799709,None,None,2075.336403799709,None,,,,,,,,,,,,,,,,,,,,,,,,,,,,,,,,,NC21,001,2021_Nov_08_1525,ProdSingRedo,3.2.3,59.94995376043702,
6,0,6,0,,,,,,,,,,,,,,,,,,,,,,,,,,,,2079.850301699713,None,strain,sing,red,9,308,2077.847567799967,None,None,2077.847567799967,None,,,,,,,,,,,,,,,,,,,,,,,,,,,,,,,,,NC21,001,2021_Nov_08_1525,ProdSingRedo,3.2.3,59.94995376043702,
7,0,7,0,,,,,,,,,,,,,,,,,,,,,,,,,,,,2082.3693685997277,None,testimony,aloud,yellow,38,325,2080.366931699682,None,None,2080.366931699682,None,,,,,,,,,,,,,,,,,,,,,,,,,,,,,,,,,NC21,001,2021_Nov_08_1525,ProdSingRedo,3.2.3,59.94995376043702,
8,0,8,0,,,,,,,,,,,,,,,,,,,,,,,,,,,,2084.8886670996435,None,clean,sing,red,6,51,2082.879339899868,None,None,2082.879339899868,None,,,,,,,,,,,,,,,,,,,,,,,,,,,,,,,,,NC21,001,2021_Nov_08_1525,ProdSingRedo,3.2.3,59.94995376043702,
9,0,9,0,,,,,,,,,,,,,,,,,,,,,,,,,,,,2087.407892999705,None,community,sing,red,29,63,2085.403319099918,None,None,2085.403319099918,None,,,,,,,,,,,,,,,,,,,,,,,,,,,,,,,,,NC21,001,2021_Nov_08_1525,ProdSingRedo,3.2.3,59.94995376043702,
10,0,10,0,,,,,,,,,,,,,,,,,,,,,,,,,,,,2089.927039399743,None,hearing,sing,red,15,150,2087.9269178998657,None,None,2087.9269178998657,None,,,,,,,,,,,,,,,,,,,,,,,,,,,,,,,,,NC21,001,2021_Nov_08_1525,ProdSingRedo,3.2.3,59.94995376043702,
11,0,11,0,,,,,,,,,,,,,,,,,,,,,,,,,,,,2092.4463049997576,None,trail,aloud,yellow,43,336,2090.441323599778,None,None,2090.441323599778,None,,,,,,,,,,,,,,,,,,,,,,,,,,,,,,,,,NC21,001,2021_Nov_08_1525,ProdSingRedo,3.2.3,59.94995376043702,
12,0,12,0,,,,,,,,,,,,,,,,,,,,,,,,,,,,2094.965524099767,None,light,silent,blue,84,171,2092.9580999999307,None,None,2092.9580999999307,None,,,,,,,,,,,,,,,,,,,,,,,,,,,,,,,,,NC21,001,2021_Nov_08_1525,ProdSingRedo,3.2.3,59.94995376043702,
13,0,13,0,,,,,,,,,,,,,,,,,,,,,,,,,,,,2097.4844841999,None,dispute,aloud,yellow,34,99,2095.4772339998744,None,None,2095.4772339998744,None,,,,,,,,,,,,,,,,,,,,,,,,,,,,,,,,,NC21,001,2021_Nov_08_1525,ProdSingRedo,3.2.3,59.94995376043702,
14,0,14,0,,,,,,,,,,,,,,,,,,,,,,,,,,,,2100.0037175999023,None,weather,aloud,yellow,31,352,2097.9969099997543,None,None,2097.9969099997543,None,,,,,,,,,,,,,,,,,,,,,,,,,,,,,,,,,NC21,001,2021_Nov_08_1525,ProdSingRedo,3.2.3,59.94995376043702,
15,0,15,0,,,,,,,,,,,,,,,,,,,,,,,,,,,,2102.5229608998634,None,native,silent,blue,89,199,2100.5139454999007,None,None,2100.5139454999007,None,,,,,,,,,,,,,,,,,,,,,,,,,,,,,,,,,NC21,001,2021_Nov_08_1525,ProdSingRedo,3.2.3,59.94995376043702,
16,0,16,0,,,,,,,,,,,,,,,,,,,,,,,,,,,,2105.0422114999965,None,discussion,aloud,yellow,57,96,2103.03700939985,None,None,2103.03700939985,None,,,,,,,,,,,,,,,,,,,,,,,,,,,,,,,,,NC21,001,2021_Nov_08_1525,ProdSingRedo,3.2.3,59.94995376043702,
17,0,17,0,,,,,,,,,,,,,,,,,,,,,,,,,,,,2107.561348399613,None,waste,aloud,yellow,48,350,2105.5544435000047,None,None,2105.5544435000047,None,,,,,,,,,,,,,,,,,,,,,,,,,,,,,,,,,NC21,001,2021_Nov_08_1525,ProdSingRedo,3.2.3,59.94995376043702,
18,0,18,0,,,,,,,,,,,,,,,,,,,,,,,,,,,,2110.0805689999834,None,under,silent,blue,77,343,2108.0740824998356,None,None,2108.0740824998356,None,,,,,,,,,,,,,,,,,,,,,,,,,,,,,,,,,NC21,001,2021_Nov_08_1525,ProdSingRedo,3.2.3,59.94995376043702,
19,0,19,0,,,,,,,,,,,,,,,,,,,,,,,,,,,,2112.5996199999936,None,husband,silent,blue,82,156,2110.6028209999204,None,None,2110.6028209999204,None,,,,,,,,,,,,,,,,,,,,,,,,,,,,,,,,,NC21,001,2021_Nov_08_1525,ProdSingRedo,3.2.3,59.94995376043702,
20,0,20,0,,,,,,,,,,,,,,,,,,,,,,,,,,,,2115.1189058995806,None,style,aloud,yellow,55,311,2113.110697799828,None,None,2113.110697799828,None,,,,,,,,,,,,,,,,,,,,,,,,,,,,,,,,,NC21,001,2021_Nov_08_1525,ProdSingRedo,3.2.3,59.94995376043702,
21,0,21,0,,,,,,,,,,,,,,,,,,,,,,,,,,,,2117.6381296999753,None,institute,sing,red,16,162,2115.637204399798,None,None,2115.637204399798,None,,,,,,,,,,,,,,,,,,,,,,,,,,,,,,,,,NC21,001,2021_Nov_08_1525,ProdSingRedo,3.2.3,59.94995376043702,
22,0,22,0,,,,,,,,,,,,,,,,,,,,,,,,,,,,2120.1573126995936,None,theme,silent,blue,72,326,2118.145316399634,None,None,2118.145316399634,None,,,,,,,,,,,,,,,,,,,,,,,,,,,,,,,,,NC21,001,2021_Nov_08_1525,ProdSingRedo,3.2.3,59.94995376043702,
23,0,23,0,,,,,,,,,,,,,,,,,,,,,,,,,,,,2122.676543599926,None,burden,sing,red,4,36,2120.6684785997495,None,None,2120.6684785997495,None,,,,,,,,,,,,,,,,,,,,,,,,,,,,,,,,,NC21,001,2021_Nov_08_1525,ProdSingRedo,3.2.3,59.94995376043702,
24,0,24,0,,,,,,,,,,,,,,,,,,,,,,,,,,,,2125.195700199809,None,produce,aloud,yellow,47,239,2123.186014899984,None,None,2123.186014899984,None,,,,,,,,,,,,,,,,,,,,,,,,,,,,,,,,,NC21,001,2021_Nov_08_1525,ProdSingRedo,3.2.3,59.94995376043702,
25,0,25,0,,,,,,,,,,,,,,,,,,,,,,,,,,,,2127.7147824997082,None,bucket,aloud,yellow,58,33,2125.7099459995516,None,None,2125.7099459995516,None,,,,,,,,,,,,,,,,,,,,,,,,,,,,,,,,,NC21,001,2021_Nov_08_1525,ProdSingRedo,3.2.3,59.94995376043702,
26,0,26,0,,,,,,,,,,,,,,,,,,,,,,,,,,,,2130.234027599916,None,majority,silent,blue,76,176,2128.231398899574,None,None,2128.231398899574,None,,,,,,,,,,,,,,,,,,,,,,,,,,,,,,,,,NC21,001,2021_Nov_08_1525,ProdSingRedo,3.2.3,59.94995376043702,
27,0,27,0,,,,,,,,,,,,,,,,,,,,,,,,,,,,2132.7532598995604,None,emergency,aloud,yellow,40,110,2130.7519760997966,None,None,2130.7519760997966,None,,,,,,,,,,,,,,,,,,,,,,,,,,,,,,,,,NC21,001,2021_Nov_08_1525,ProdSingRedo,3.2.3,59.94995376043702,
28,0,28,0,,,,,,,,,,,,,,,,,,,,,,,,,,,,2135.2723832000047,None,distance,aloud,yellow,54,100,2133.2712570996955,None,None,2133.2712570996955,None,,,,,,,,,,,,,,,,,,,,,,,,,,,,,,,,,NC21,001,2021_Nov_08_1525,ProdSingRedo,3.2.3,59.94995376043702,
29,0,29,0,,,,,,,,,,,,,,,,,,,,,,,,,,,,2137.7916199998,None,hunger,silent,blue,88,155,2135.785870499909,None,None,2135.785870499909,None,,,,,,,,,,,,,,,,,,,,,,,,,,,,,,,,,NC21,001,2021_Nov_08_1525,ProdSingRedo,3.2.3,59.94995376043702,
30,0,30,0,,,,,,,,,,,,,,,,,,,,,,,,,,,,2140.3107718997635,None,poetry,silent,blue,65,225,2138.302443199791,None,None,2138.302443199791,None,,,,,,,,,,,,,,,,,,,,,,,,,,,,,,,,,NC21,001,2021_Nov_08_1525,ProdSingRedo,3.2.3,59.94995376043702,
31,0,31,0,,,,,,,,,,,,,,,,,,,,,,,,,,,,2142.82998759998,None,society,sing,red,18,293,2140.8224228997715,None,None,2140.8224228997715,None,,,,,,,,,,,,,,,,,,,,,,,,,,,,,,,,,NC21,001,2021_Nov_08_1525,ProdSingRedo,3.2.3,59.94995376043702,
32,0,32,0,,,,,,,,,,,,,,,,,,,,,,,,,,,,2145.349125699606,None,staff,sing,red,27,301,2143.338834699709,None,None,2143.338834699709,None,,,,,,,,,,,,,,,,,,,,,,,,,,,,,,,,,NC21,001,2021_Nov_08_1525,ProdSingRedo,3.2.3,59.94995376043702,
33,0,33,0,,,,,,,,,,,,,,,,,,,,,,,,,,,,2147.868364599999,None,republic,silent,blue,75,260,2145.8629079000093,None,None,2145.8629079000093,None,,,,,,,,,,,,,,,,,,,,,,,,,,,,,,,,,NC21,001,2021_Nov_08_1525,ProdSingRedo,3.2.3,59.94995376043702,
34,0,34,0,,,,,,,,,,,,,,,,,,,,,,,,,,,,2150.387454799842,None,audience,silent,blue,74,14,2148.3790070000105,None,None,2148.3790070000105,None,,,,,,,,,,,,,,,,,,,,,,,,,,,,,,,,,NC21,001,2021_Nov_08_1525,ProdSingRedo,3.2.3,59.94995376043702,
35,0,35,0,,,,,,,,,,,,,,,,,,,,,,,,,,,,2152.9066427997313,None,escape,sing,red,7,118,2150.902203299571,None,None,2150.902203299571,None,,,,,,,,,,,,,,,,,,,,,,,,,,,,,,,,,NC21,001,2021_Nov_08_1525,ProdSingRedo,3.2.3,59.94995376043702,
36,0,36,0,,,,,,,,,,,,,,,,,,,,,,,,,,,,2155.425902699586,None,bitter,silent,blue,64,23,2153.4173391996883,None,None,2153.4173391996883,None,,,,,,,,,,,,,,,,,,,,,,,,,,,,,,,,,NC21,001,2021_Nov_08_1525,ProdSingRedo,3.2.3,59.94995376043702,
37,0,37,0,,,,,,,,,,,,,,,,,,,,,,,,,,,,2157.945081499871,None,beauty,aloud,yellow,52,18,2155.940492599737,None,None,2155.940492599737,None,,,,,,,,,,,,,,,,,,,,,,,,,,,,,,,,,NC21,001,2021_Nov_08_1525,ProdSingRedo,3.2.3,59.94995376043702,
38,0,38,0,,,,,,,,,,,,,,,,,,,,,,,,,,,,2160.4641986996867,None,voice,silent,blue,71,348,2158.456974999979,None,None,2158.456974999979,None,,,,,,,,,,,,,,,,,,,,,,,,,,,,,,,,,NC21,001,2021_Nov_08_1525,ProdSingRedo,3.2.3,59.94995376043702,
39,0,39,0,,,,,,,,,,,,,,,,,,,,,,,,,,,,2162.9833995997906,None,interior,aloud,yellow,46,164,2160.9723870996386,None,None,2160.9723870996386,None,,,,,,,,,,,,,,,,,,,,,,,,,,,,,,,,,NC21,001,2021_Nov_08_1525,ProdSingRedo,3.2.3,59.94995376043702,
40,0,40,0,,,,,,,,,,,,,,,,,,,,,,,,,,,,2165.5025996998884,None,article,silent,blue,79,11,2163.493270299863,None,None,2163.493270299863,None,,,,,,,,,,,,,,,,,,,,,,,,,,,,,,,,,NC21,001,2021_Nov_08_1525,ProdSingRedo,3.2.3,59.94995376043702,
41,0,41,0,,,,,,,,,,,,,,,,,,,,,,,,,,,,2168.0217822999693,None,safety,silent,blue,86,270,2166.0179975996725,None,None,2166.0179975996725,None,,,,,,,,,,,,,,,,,,,,,,,,,,,,,,,,,NC21,001,2021_Nov_08_1525,ProdSingRedo,3.2.3,59.94995376043702,
42,0,42,0,,,,,,,,,,,,,,,,,,,,,,,,,,,,2170.540973899886,None,business,sing,red,20,38,2168.5371306999587,None,None,2168.5371306999587,None,,,,,,,,,,,,,,,,,,,,,,,,,,,,,,,,,NC21,001,2021_Nov_08_1525,ProdSingRedo,3.2.3,59.94995376043702,
43,0,43,0,,,,,,,,,,,,,,,,,,,,,,,,,,,,2173.060203399975,None,express,sing,red,17,124,2171.0514460997656,None,None,2171.0514460997656,None,,,,,,,,,,,,,,,,,,,,,,,,,,,,,,,,,NC21,001,2021_Nov_08_1525,ProdSingRedo,3.2.3,59.94995376043702,
44,0,44,0,,,,,,,,,,,,,,,,,,,,,,,,,,,,2175.57933749957,None,character,silent,blue,60,46,2173.575438999571,None,None,2173.575438999571,None,,,,,,,,,,,,,,,,,,,,,,,,,,,,,,,,,NC21,001,2021_Nov_08_1525,ProdSingRedo,3.2.3,59.94995376043702,
45,0,45,0,,,,,,,,,,,,,,,,,,,,,,,,,,,,2178.098590699956,None,store,silent,blue,69,305,2176.085739799775,None,None,2176.085739799775,None,,,,,,,,,,,,,,,,,,,,,,,,,,,,,,,,,NC21,001,2021_Nov_08_1525,ProdSingRedo,3.2.3,59.94995376043702,
46,0,46,0,,,,,,,,,,,,,,,,,,,,,,,,,,,,2180.6177138998173,None,design,aloud,yellow,42,91,2178.6093445997685,None,None,2178.6093445997685,None,,,,,,,,,,,,,,,,,,,,,,,,,,,,,,,,,NC21,001,2021_Nov_08_1525,ProdSingRedo,3.2.3,59.94995376043702,
47,0,47,0,,,,,,,,,,,,,,,,,,,,,,,,,,,,2183.1202550996095,None,member,silent,blue,63,188,2181.1178830997087,None,None,2181.1178830997087,None,,,,,,,,,,,,,,,,,,,,,,,,,,,,,,,,,NC21,001,2021_Nov_08_1525,ProdSingRedo,3.2.3,59.94995376043702,
48,0,48,0,,,,,,,,,,,,,,,,,,,,,,,,,,,,2185.6394553999417,None,company,sing,red,0,64,2183.6348269996233,None,None,2183.6348269996233,None,,,,,,,,,,,,,,,,,,,,,,,,,,,,,,,,,NC21,001,2021_Nov_08_1525,ProdSingRedo,3.2.3,59.94995376043702,
49,0,49,0,,,,,,,,,,,,,,,,,,,,,,,,,,,,2188.1586400996894,None,contract,aloud,yellow,45,68,2186.1522253998555,None,None,2186.1522253998555,None,,,,,,,,,,,,,,,,,,,,,,,,,,,,,,,,,NC21,001,2021_Nov_08_1525,ProdSingRedo,3.2.3,59.94995376043702,
50,0,50,0,,,,,,,,,,,,,,,,,,,,,,,,,,,,2190.6777689997107,None,court,sing,red,28,75,2188.6694495999254,None,None,2188.6694495999254,None,,,,,,,,,,,,,,,,,,,,,,,,,,,,,,,,,NC21,001,2021_Nov_08_1525,ProdSingRedo,3.2.3,59.94995376043702,
51,0,51,0,,,,,,,,,,,,,,,,,,,,,,,,,,,,2193.197013299912,None,principal,aloud,yellow,56,236,2191.1915308996104,None,None,2191.1915308996104,None,,,,,,,,,,,,,,,,,,,,,,,,,,,,,,,,,NC21,001,2021_Nov_08_1525,ProdSingRedo,3.2.3,59.94995376043702,
52,0,52,0,,,,,,,,,,,,,,,,,,,,,,,,,,,,2195.716154899914,None,appeal,aloud,yellow,41,9,2193.7109062997624,None,None,2193.7109062997624,None,,,,,,,,,,,,,,,,,,,,,,,,,,,,,,,,,NC21,001,2021_Nov_08_1525,ProdSingRedo,3.2.3,59.94995376043702,
53,0,53,0,,,,,,,,,,,,,,,,,,,,,,,,,,,,2198.235023499932,None,problem,silent,blue,68,238,2196.227903299965,None,None,2196.227903299965,None,,,,,,,,,,,,,,,,,,,,,,,,,,,,,,,,,NC21,001,2021_Nov_08_1525,ProdSingRedo,3.2.3,59.94995376043702,
54,0,54,0,,,,,,,,,,,,,,,,,,,,,,,,,,,,2200.754567499738,None,expansion,sing,red,13,123,2198.759509699885,None,None,2198.759509699885,None,,,,,,,,,,,,,,,,,,,,,,,,,,,,,,,,,NC21,001,2021_Nov_08_1525,ProdSingRedo,3.2.3,59.94995376043702,
55,0,55,0,,,,,,,,,,,,,,,,,,,,,,,,,,,,2203.2737547997385,None,private,sing,red,8,237,2201.2679001996294,None,None,2201.2679001996294,None,,,,,,,,,,,,,,,,,,,,,,,,,,,,,,,,,NC21,001,2021_Nov_08_1525,ProdSingRedo,3.2.3,59.94995376043702,
56,0,56,0,,,,,,,,,,,,,,,,,,,,,,,,,,,,2205.7928504999727,None,comedy,silent,blue,62,58,2203.7844408997335,None,None,2203.7844408997335,None,,,,,,,,,,,,,,,,,,,,,,,,,,,,,,,,,NC21,001,2021_Nov_08_1525,ProdSingRedo,3.2.3,59.94995376043702,
57,0,57,0,,,,,,,,,,,,,,,,,,,,,,,,,,,,2208.31207049964,None,history,sing,red,26,153,2206.303724600002,None,None,2206.303724600002,None,,,,,,,,,,,,,,,,,,,,,,,,,,,,,,,,,NC21,001,2021_Nov_08_1525,ProdSingRedo,3.2.3,59.94995376043702,
58,0,58,0,,,,,,,,,,,,,,,,,,,,,,,,,,,,2210.831253999844,None,throw,aloud,yellow,50,330,2208.821060899645,None,None,2208.821060899645,None,,,,,,,,,,,,,,,,,,,,,,,,,,,,,,,,,NC21,001,2021_Nov_08_1525,ProdSingRedo,3.2.3,59.94995376043702,
59,0,59,0,,,,,,,,,,,,,,,,,,,,,,,,,,,,2213.333754299674,None,graduate,sing,red,23,141,2211.3317113998346,None,None,2211.3317113998346,None,,,,,,,,,,,,,,,,,,,,,,,,,,,,,,,,,NC21,001,2021_Nov_08_1525,ProdSingRedo,3.2.3,59.94995376043702,
60,0,60,0,,,,,,,,,,,,,,,,,,,,,,,,,,,,2215.852991799824,None,review,aloud,yellow,30,263,2213.8531388998963,None,None,2213.8531388998963,None,,,,,,,,,,,,,,,,,,,,,,,,,,,,,,,,,NC21,001,2021_Nov_08_1525,ProdSingRedo,3.2.3,59.94995376043702,
61,0,61,0,,,,,,,,,,,,,,,,,,,,,,,,,,,,2218.372187099885,None,candidate,aloud,yellow,51,39,2216.3667330997996,None,None,2216.3667330997996,None,,,,,,,,,,,,,,,,,,,,,,,,,,,,,,,,,NC21,001,2021_Nov_08_1525,ProdSingRedo,3.2.3,59.94995376043702,
62,0,62,0,,,,,,,,,,,,,,,,,,,,,,,,,,,,2220.891307399608,None,pretty,silent,blue,85,233,2218.883324299939,None,None,2218.883324299939,None,,,,,,,,,,,,,,,,,,,,,,,,,,,,,,,,,NC21,001,2021_Nov_08_1525,ProdSingRedo,3.2.3,59.94995376043702,
63,0,63,0,,,,,,,,,,,,,,,,,,,,,,,,,,,,2223.4106281995773,None,track,aloud,yellow,49,334,2221.403019099962,None,None,2221.403019099962,None,,,,,,,,,,,,,,,,,,,,,,,,,,,,,,,,,NC21,001,2021_Nov_08_1525,ProdSingRedo,3.2.3,59.94995376043702,
64,0,64,0,,,,,,,,,,,,,,,,,,,,,,,,,,,,2225.913025699556,None,carry,sing,red,10,43,2223.91063129995,None,None,2223.91063129995,None,,,,,,,,,,,,,,,,,,,,,,,,,,,,,,,,,NC21,001,2021_Nov_08_1525,ProdSingRedo,3.2.3,59.94995376043702,
65,0,65,0,,,,,,,,,,,,,,,,,,,,,,,,,,,,2228.432186699938,None,author,silent,blue,67,15,2226.4300996996462,None,None,2226.4300996996462,None,,,,,,,,,,,,,,,,,,,,,,,,,,,,,,,,,NC21,001,2021_Nov_08_1525,ProdSingRedo,3.2.3,59.94995376043702,
66,0,66,0,,,,,,,,,,,,,,,,,,,,,,,,,,,,2230.9514212999493,None,portion,sing,red,21,228,2228.945239599794,None,None,2228.945239599794,None,,,,,,,,,,,,,,,,,,,,,,,,,,,,,,,,,NC21,001,2021_Nov_08_1525,ProdSingRedo,3.2.3,59.94995376043702,
67,0,67,0,,,,,,,,,,,,,,,,,,,,,,,,,,,,2233.470588099677,None,disease,sing,red,5,97,2231.4640295999125,None,None,2231.4640295999125,None,,,,,,,,,,,,,,,,,,,,,,,,,,,,,,,,,NC21,001,2021_Nov_08_1525,ProdSingRedo,3.2.3,59.94995376043702,
68,0,68,0,,,,,,,,,,,,,,,,,,,,,,,,,,,,2235.989762999583,None,literature,silent,blue,81,173,2233.985206499696,None,None,2233.985206499696,None,,,,,,,,,,,,,,,,,,,,,,,,,,,,,,,,,NC21,001,2021_Nov_08_1525,ProdSingRedo,3.2.3,59.94995376043702,
69,0,69,0,,,,,,,,,,,,,,,,,,,,,,,,,,,,2238.509009699803,None,corner,sing,red,22,69,2236.495987399947,None,None,2236.495987399947,None,,,,,,,,,,,,,,,,,,,,,,,,,,,,,,,,,NC21,001,2021_Nov_08_1525,ProdSingRedo,3.2.3,59.94995376043702,
70,0,70,0,,,,,,,,,,,,,,,,,,,,,,,,,,,,2241.027722199913,None,science,silent,blue,87,275,2239.017064000014,None,None,2239.017064000014,None,,,,,,,,,,,,,,,,,,,,,,,,,,,,,,,,,NC21,001,2021_Nov_08_1525,ProdSingRedo,3.2.3,59.94995376043702,
71,0,71,0,,,,,,,,,,,,,,,,,,,,,,,,,,,,2243.5302695999853,None,split,silent,blue,73,299,2241.5283345999196,None,None,2241.5283345999196,None,,,,,,,,,,,,,,,,,,,,,,,,,,,,,,,,,NC21,001,2021_Nov_08_1525,ProdSingRedo,3.2.3,59.94995376043702,
72,0,72,0,,,,,,,,,,,,,,,,,,,,,,,,,,,,2246.0497888997197,None,revolution,sing,red,24,264,2244.0429525999352,None,None,2244.0429525999352,None,,,,,,,,,,,,,,,,,,,,,,,,,,,,,,,,,NC21,001,2021_Nov_08_1525,ProdSingRedo,3.2.3,59.94995376043702,
73,0,73,0,,,,,,,,,,,,,,,,,,,,,,,,,,,,2248.5690195998177,None,search,silent,blue,83,276,2246.560641299933,None,None,2246.560641299933,None,,,,,,,,,,,,,,,,,,,,,,,,,,,,,,,,,NC21,001,2021_Nov_08_1525,ProdSingRedo,3.2.3,59.94995376043702,
74,0,74,0,,,,,,,,,,,,,,,,,,,,,,,,,,,,2251.0881352997385,None,thick,sing,red,1,327,2249.0778468996286,None,None,2249.0778468996286,None,,,,,,,,,,,,,,,,,,,,,,,,,,,,,,,,,NC21,001,2021_Nov_08_1525,ProdSingRedo,3.2.3,59.94995376043702,
75,0,75,0,,,,,,,,,,,,,,,,,,,,,,,,,,,,2253.6073579997756,None,write,aloud,yellow,44,358,2251.598038799595,None,None,2251.598038799595,None,,,,,,,,,,,,,,,,,,,,,,,,,,,,,,,,,NC21,001,2021_Nov_08_1525,ProdSingRedo,3.2.3,59.94995376043702,
76,0,76,0,,,,,,,,,,,,,,,,,,,,,,,,,,,,2256.126524699852,None,signal,aloud,yellow,33,287,2254.121298199985,None,None,2254.121298199985,None,,,,,,,,,,,,,,,,,,,,,,,,,,,,,,,,,NC21,001,2021_Nov_08_1525,ProdSingRedo,3.2.3,59.94995376043702,
77,0,77,0,,,,,,,,,,,,,,,,,,,,,,,,,,,,2258.645709199831,None,finish,silent,blue,78,130,2256.6363824997097,None,None,2256.6363824997097,None,,,,,,,,,,,,,,,,,,,,,,,,,,,,,,,,,NC21,001,2021_Nov_08_1525,ProdSingRedo,3.2.3,59.94995376043702,
78,0,78,0,,,,,,,,,,,,,,,,,,,,,,,,,,,,2261.1648720996454,None,comfort,silent,blue,61,59,2259.157081299927,None,None,2259.157081299927,None,,,,,,,,,,,,,,,,,,,,,,,,,,,,,,,,,NC21,001,2021_Nov_08_1525,ProdSingRedo,3.2.3,59.94995376043702,
79,0,79,0,,,,,,,,,,,,,,,,,,,,,,,,,,,,2263.6840750998817,None,dozen,sing,red,25,102,2261.6728869997896,None,None,2261.6728869997896,None,,,,,,,,,,,,,,,,,,,,,,,,,,,,,,,,,NC21,001,2021_Nov_08_1525,ProdSingRedo,3.2.3,59.94995376043702,
80,0,80,0,,,,,,,,,,,,,,,,,,,,,,,,,,,,2266.203216599766,None,rough,aloud,yellow,32,266,2264.195053999778,None,None,2264.195053999778,None,,,,,,,,,,,,,,,,,,,,,,,,,,,,,,,,,NC21,001,2021_Nov_08_1525,ProdSingRedo,3.2.3,59.94995376043702,
81,0,81,0,,,,,,,,,,,,,,,,,,,,,,,,,,,,2268.7224618997425,None,pattern,aloud,yellow,37,214,2266.717476999853,None,None,2266.717476999853,None,,,,,,,,,,,,,,,,,,,,,,,,,,,,,,,,,NC21,001,2021_Nov_08_1525,ProdSingRedo,3.2.3,59.94995376043702,
82,0,82,0,,,,,,,,,,,,,,,,,,,,,,,,,,,,2271.241351599805,None,skill,sing,red,14,289,2269.235456599854,None,None,2269.235456599854,None,,,,,,,,,,,,,,,,,,,,,,,,,,,,,,,,,NC21,001,2021_Nov_08_1525,ProdSingRedo,3.2.3,59.94995376043702,
83,0,83,0,,,,,,,,,,,,,,,,,,,,,,,,,,,,2273.7441684999503,None,passage,aloud,yellow,35,212,2271.742171099875,None,None,2271.742171099875,None,,,,,,,,,,,,,,,,,,,,,,,,,,,,,,,,,NC21,001,2021_Nov_08_1525,ProdSingRedo,3.2.3,59.94995376043702,
84,0,84,0,,,,,,,,,,,,,,,,,,,,,,,,,,,,2276.263111599721,None,block,sing,red,2,25,2274.257291099988,None,None,2274.257291099988,None,,,,,,,,,,,,,,,,,,,,,,,,,,,,,,,,,NC21,001,2021_Nov_08_1525,ProdSingRedo,3.2.3,59.94995376043702,
85,0,85,0,,,,,,,,,,,,,,,,,,,,,,,,,,,,2278.782571699936,None,background,sing,red,12,16,2276.78734839987,None,None,2276.78734839987,None,,,,,,,,,,,,,,,,,,,,,,,,,,,,,,,,,NC21,001,2021_Nov_08_1525,ProdSingRedo,3.2.3,59.94995376043702,
86,0,86,0,,,,,,,,,,,,,,,,,,,,,,,,,,,,2281.2850401997566,None,front,silent,blue,80,134,2279.2844027997926,None,None,2279.2844027997926,None,,,,,,,,,,,,,,,,,,,,,,,,,,,,,,,,,NC21,001,2021_Nov_08_1525,ProdSingRedo,3.2.3,59.94995376043702,
87,0,87,0,,,,,,,,,,,,,,,,,,,,,,,,,,,,2283.804251199588,None,welcome,silent,blue,66,354,2281.800251299981,None,None,2281.800251299981,None,,,,,,,,,,,,,,,,,,,,,,,,,,,,,,,,,NC21,001,2021_Nov_08_1525,ProdSingRedo,3.2.3,59.94995376043702,
88,0,88,0,,,,,,,,,,,,,,,,,,,,,,,,,,,,2286.306705799885,None,blind,aloud,yellow,36,24,2284.3043593997136,None,None,2284.3043593997136,None,,,,,,,,,,,,,,,,,,,,,,,,,,,,,,,,,NC21,001,2021_Nov_08_1525,ProdSingRedo,3.2.3,59.94995376043702,
89,0,89,0,,,,,,,,,,,,,,,,,,,,,,,,,,,,2288.8258914998733,None,shear,aloud,yellow,59,283,2286.8218175997026,None,None,2286.8218175997026,None,,,,,,,,,,,,,,,,,,,,,,,,,,,,,,,,,NC21,001,2021_Nov_08_1525,ProdSingRedo,3.2.3,59.94995376043702,
,,,,,,,,,,,,,,,,,,,,,,,,,,,,,,,,,,,,,,,,,,,2289.3266121996567,None,k,144.7477036002092,2289.3266121996567,None,,,,,,,,,,,,,,,,,,,,,,,,,,,NC21,001,2021_Nov_08_1525,ProdSingRedo,3.2.3,59.94995376043702,
,,,,0,0,0,0,,,,,,,,,,,,,,,,,,,,,,,,2452.648884399794,None,,,,,,,,,,,,,,,,,colonel,new_b,white,0,142,55,2434.6181154996157,None,2434.6181154996157,None,1,12.38422690005973,2434.6181154996157,None,2447.0378763996996,None,2447.5599019997753,None,2447.5599019997753,None,r,5.050513099879026,2447.5599019997753,None,,,NC21,001,2021_Nov_08_1525,ProdSingRedo,3.2.3,59.94995376043702,
,,,,1,0,1,0,,,,,,,,,,,,,,,,,,,,,,,,2458.8361664996482,None,,,,,,,,,,,,,,,,,pattern,aloud,white,1,37,214,2453.178832599893,None,2453.178832599893,None,4,3.183493799995631,2453.178832599893,None,2456.416135699954,None,2456.92086849967,None,2456.92086849967,None,r,1.8816006002016366,2456.92086849967,None,,,NC21,001,2021_Nov_08_1525,ProdSingRedo,3.2.3,59.94995376043702,
,,,,2,0,2,0,,,,,,,,,,,,,,,,,,,,,,,,2463.7734188996255,None,,,,,,,,,,,,,,,,,block,sing,white,2,2,25,2459.3623373997398,None,2459.3623373997398,None,1,2.5199087001383305,2459.3623373997398,None,2461.917249299586,None,2462.425127299968,None,2462.425127299968,None,n,1.3133373004384339,2462.425127299968,None,,,NC21,001,2021_Nov_08_1525,ProdSingRedo,3.2.3,59.94995376043702,
,,,,3,0,3,0,,,,,,,,,,,,,,,,,,,,,,,,2467.9791678995825,None,,,,,,,,,,,,,,,,,write,aloud,white,3,44,358,2464.3010360999033,None,2464.3010360999033,None,1,2.109437800012529,2464.3010360999033,None,2466.4580204999074,None,2466.9775580996647,None,2466.9775580996647,None,n,0.976700299885124,2466.9775580996647,None,,,NC21,001,2021_Nov_08_1525,ProdSingRedo,3.2.3,59.94995376043702,
,,,,4,0,4,0,,,,,,,,,,,,,,,,,,,,,,,,2472.3003014000133,None,,,,,,,,,,,,,,,,,travel,new_b,white,4,130,338,2468.50704449974,None,2468.50704449974,None,2,1.815320000052452,2468.50704449974,None,2470.3577711996622,None,2470.8697081999853,None,2470.8697081999853,None,f,1.404547699727118,2470.8697081999853,None,,,NC21,001,2021_Nov_08_1525,ProdSingRedo,3.2.3,59.94995376043702,
,,,,5,0,5,0,,,,,,,,,,,,,,,,,,,,,,,,2475.6364225000143,None,,,,,,,,,,,,,,,,,sunset,new_c,white,5,160,315,2472.829180999659,None,2472.829180999659,None,1,1.4771389998495579,2472.829180999659,None,2474.3521534996107,None,2474.8709466997534,None,2474.8709466997534,None,n,0.7395262001082301,2474.8709466997534,None,,,NC21,001,2021_Nov_08_1525,ProdSingRedo,3.2.3,59.94995376043702,
,,,,6,0,6,0,,,,,,,,,,,,,,,,,,,,,,,,2482.42609239975,None,,,,,,,,,,,,,,,,,general,new_c,white,6,175,135,2476.1640866999514,None,2476.1640866999514,None,3,4.254077899735421,2476.1640866999514,None,2480.4557162998244,None,2480.982686399948,None,2480.982686399948,None,f,1.4115786999464035,2480.982686399948,None,,,NC21,001,2021_Nov_08_1525,ProdSingRedo,3.2.3,59.94995376043702,
,,,,7,0,7,0,,,,,,,,,,,,,,,,,,,,,,,,2487.2294389996678,None,,,,,,,,,,,,,,,,,corner,sing,white,7,22,69,2482.94643989997,None,2482.94643989997,None,2,2.7758630998432636,2482.94643989997,None,2485.756879999768,None,2486.260945199989,None,2486.260945199989,None,n,0.9333351999521255,2486.260945199989,None,,,NC21,001,2021_Nov_08_1525,ProdSingRedo,3.2.3,59.94995376043702,
,,,,8,0,8,0,,,,,,,,,,,,,,,,,,,,,,,,2491.085098899901,None,,,,,,,,,,,,,,,,,center,new_c,white,8,165,44,2487.748075599782,None,2487.748075599782,None,1,1.8623680002056062,2487.748075599782,None,2489.6444625998847,None,2490.148408799898,None,2490.148408799898,None,n,0.9019312001764774,2490.148408799898,None,,,NC21,001,2021_Nov_08_1525,ProdSingRedo,3.2.3,59.94995376043702,
,,,,9,0,9,0,,,,,,,,,,,,,,,,,,,,,,,,2495.023045399692,None,,,,,,,,,,,,,,,,,comfort,silent,white,9,61,59,2491.611987499986,None,2491.611987499986,None,4,2.2623306000605226,2491.611987499986,None,2493.92156659998,None,2494.441420399584,None,2494.441420399584,None,f,0.5530570996925235,2494.441420399584,None,,,NC21,001,2021_Nov_08_1525,ProdSingRedo,3.2.3,59.94995376043702,
,,,,10,0,10,0,,,,,,,,,,,,,,,,,,,,,,,,2499.0081518995576,None,,,,,,,,,,,,,,,,,union,new_b,white,10,144,344,2495.5458022998646,None,2495.5458022998646,None,2,2.088473299983889,2495.5458022998646,None,2497.6725096995942,None,2498.194001799915,None,2498.194001799915,None,f,0.7925030998885632,2498.194001799915,None,,,NC21,001,2021_Nov_08_1525,ProdSingRedo,3.2.3,59.94995376043702,
,,,,11,0,11,0,,,,,,,,,,,,,,,,,,,,,,,,2502.6296092998236,None,,,,,,,,,,,,,,,,,reach,new_c,white,11,178,253,2499.5327963000163,None,2499.5327963000163,None,1,1.7415685998275876,2499.5327963000163,None,2501.3265515998937,None,2501.8481809999794,None,2501.8481809999794,None,n,0.754139699973166,2501.8481809999794,None,,,NC21,001,2021_Nov_08_1525,ProdSingRedo,3.2.3,59.94995376043702,
,,,,12,0,12,0,,,,,,,,,,,,,,,,,,,,,,,,2506.367472599726,None,,,,,,,,,,,,,,,,,character,silent,white,12,60,46,2503.1632383000106,None,2503.1632383000106,None,3,2.135130699723959,2503.1632383000106,None,2505.3523340998217,None,2505.872517199721,None,2505.872517199721,None,f,0.4658618001267314,2505.872517199721,None,,,NC21,001,2021_Nov_08_1525,ProdSingRedo,3.2.3,59.94995376043702,
,,,,13,0,13,0,,,,,,,,,,,,,,,,,,,,,,,,2510.1381717999466,None,,,,,,,,,,,,,,,,,background,sing,white,13,12,16,2506.896070599556,None,2506.896070599556,None,4,2.2343477001413703,2506.896070599556,None,2509.1706845997833,None,2509.678584799636,None,2509.678584799636,None,f,0.4277914999984205,2509.678584799636,None,,,NC21,001,2021_Nov_08_1525,ProdSingRedo,3.2.3,59.94995376043702,
,,,,14,0,14,0,,,,,,,,,,,,,,,,,,,,,,,,2515.0746025997214,None,,,,,,,,,,,,,,,,,grade,new_a,white,14,112,140,2510.6654244996607,None,2510.6654244996607,None,2,2.1528079002164304,2510.6654244996607,None,2512.8588572000153,None,2513.3670009998605,None,2513.3670009998605,None,f,1.6833093999885023,2513.3670009998605,None,,,NC21,001,2021_Nov_08_1525,ProdSingRedo,3.2.3,59.94995376043702,
,,,,15,0,15,0,,,,,,,,,,,,,,,,,,,,,,,,2518.345715199597,None,,,,,,,,,,,,,,,,,under,silent,white,15,77,343,2515.591875099577,None,2515.591875099577,None,1,1.354523700196296,2515.591875099577,None,2516.9928032997996,None,2517.5115920999087,None,2517.5115920999087,None,n,0.8111425000242889,2517.5115920999087,None,,,NC21,001,2021_Nov_08_1525,ProdSingRedo,3.2.3,59.94995376043702,
,,,,16,0,16,0,,,,,,,,,,,,,,,,,,,,,,,,2521.6756075997837,None,,,,,,,,,,,,,,,,,growth,new_a,white,16,104,144,2518.8740496998653,None,2518.8740496998653,None,1,1.4483695002272725,2518.8740496998653,None,2520.359239500016,None,2520.8844223995693,None,2520.8844223995693,None,n,0.773656599689275,2520.8844223995693,None,,,NC21,001,2021_Nov_08_1525,ProdSingRedo,3.2.3,59.94995376043702,
,,,,17,0,17,0,,,,,,,,,,,,,,,,,,,,,,,,2526.7881721998565,None,,,,,,,,,,,,,,,,,husband,silent,white,17,82,156,2522.1938622999005,None,2522.1938622999005,None,3,3.328537200111896,2522.1938622999005,None,2525.5732483998872,None,2526.0779376998544,None,2526.0779376998544,None,f,0.6842991001904011,2526.0779376998544,None,,,NC21,001,2021_Nov_08_1525,ProdSingRedo,3.2.3,59.94995376043702,
,,,,18,0,18,0,,,,,,,,,,,,,,,,,,,,,,,,2529.9730312996544,None,,,,,,,,,,,,,,,,,public,new_c,white,18,156,244,2527.313860999886,None,2527.313860999886,None,1,1.5285888998769224,2527.313860999886,None,2528.885632199701,None,2529.393809199799,None,2529.393809199799,None,n,0.5445407000370324,2529.393809199799,None,,,NC21,001,2021_Nov_08_1525,ProdSingRedo,3.2.3,59.94995376043702,
,,,,19,0,19,0,,,,,,,,,,,,,,,,,,,,,,,,2533.699570399709,None,,,,,,,,,,,,,,,,,style,aloud,white,19,55,311,2530.4960918999277,None,2530.4960918999277,None,2,1.922228300012648,2530.4960918999277,None,2532.457104999572,None,2532.978502199985,None,2532.978502199985,None,f,0.679968100041151,2532.978502199985,None,,,NC21,001,2021_Nov_08_1525,ProdSingRedo,3.2.3,59.94995376043702,
,,,,20,0,20,0,,,,,,,,,,,,,,,,,,,,,,,,2537.3142908997834,None,,,,,,,,,,,,,,,,,empty,new_b,white,20,138,112,2534.218703499995,None,2534.218703499995,None,3,2.0955440001562238,2534.218703499995,None,2536.360504399985,None,2536.881243999582,None,2536.881243999582,None,f,0.4090251000598073,2536.881243999582,None,,,NC21,001,2021_Nov_08_1525,ProdSingRedo,3.2.3,59.94995376043702,
,,,,21,0,21,0,,,,,,,,,,,,,,,,,,,,,,,,2541.7451380998828,None,,,,,,,,,,,,,,,,,poetry,silent,white,21,65,225,2537.8409120999277,None,2537.8409120999277,None,5,2.1213999995961785,2537.8409120999277,None,2540.009173600003,None,2540.5193608999252,None,2540.5193608999252,None,r,1.202633099630475,2540.5193608999252,None,,,NC21,001,2021_Nov_08_1525,ProdSingRedo,3.2.3,59.94995376043702,
,,,,22,0,22,0,,,,,,,,,,,,,,,,,,,,,,,,2546.089724099729,None,,,,,,,,,,,,,,,,,sweet,new_b,white,22,140,319,2542.2598842997104,None,2542.2598842997104,None,1,2.7584640001878142,2542.2598842997104,None,2545.0690836999565,None,2545.5755591997877,None,2545.5755591997877,None,n,0.4908620002679527,2545.5755591997877,None,,,NC21,001,2021_Nov_08_1525,ProdSingRedo,3.2.3,59.94995376043702,
,,,,23,0,23,0,,,,,,,,,,,,,,,,,,,,,,,,2550.2282038996927,None,,,,,,,,,,,,,,,,,patient,new_b,white,23,141,213,2546.6165009997785,None,2546.6165009997785,None,2,2.1299163000658154,2546.6165009997785,None,2548.791427699849,None,2549.2965646996163,None,2549.2965646996163,None,f,0.9057159000076354,2549.2965646996163,None,,,NC21,001,2021_Nov_08_1525,ProdSingRedo,3.2.3,59.94995376043702,
,,,,24,0,24,0,,,,,,,,,,,,,,,,,,,,,,,,2553.83014779957,None,,,,,,,,,,,,,,,,,evidence,new_c,white,24,171,120,2550.753687799908,None,2550.753687799908,None,1,1.432777900248766,2550.753687799908,None,2552.2305124998093,None,2552.7332607000135,None,2552.7332607000135,None,n,1.0610483000054955,2552.7332607000135,None,,,NC21,001,2021_Nov_08_1525,ProdSingRedo,3.2.3,59.94995376043702,
,,,,25,0,25,0,,,,,,,,,,,,,,,,,,,,,,,,2558.050003999844,None,,,,,,,,,,,,,,,,,dispute,aloud,white,25,34,99,2554.3587869997136,None,2554.3587869997136,None,1,1.7315955003723502,2554.3587869997136,None,2556.136429199949,None,2556.6528909998015,None,2556.6528909998015,None,n,1.373377799987793,2556.6528909998015,None,,,NC21,001,2021_Nov_08_1525,ProdSingRedo,3.2.3,59.94995376043702,
,,,,26,0,26,0,,,,,,,,,,,,,,,,,,,,,,,,2561.756399899721,None,,,,,,,,,,,,,,,,,native,silent,white,26,89,199,2558.575989899691,None,2558.575989899691,None,3,1.9785476000979543,2558.575989899691,None,2560.6077789999545,None,2561.125599599909,None,2561.125599599909,None,f,0.5967791001312435,2561.125599599909,None,,,NC21,001,2021_Nov_08_1525,ProdSingRedo,3.2.3,59.94995376043702,
,,,,27,0,27,0,,,,,,,,,,,,,,,,,,,,,,,,2566.411094599869,None,,,,,,,,,,,,,,,,,thick,sing,white,27,1,327,2562.280094199814,None,2562.280094199814,None,5,1.914330800063908,2562.280094199814,None,2564.2389260996133,None,2564.759927699808,None,2564.759927699808,None,r,1.6264105001464486,2564.759927699808,None,,,NC21,001,2021_Nov_08_1525,ProdSingRedo,3.2.3,59.94995376043702,
,,,,28,0,28,0,,,,,,,,,,,,,,,,,,,,,,,,2570.4641585997306,None,,,,,,,,,,,,,,,,,signal,aloud,white,28,33,287,2566.9386607999913,None,2566.9386607999913,None,3,2.503730899654329,2566.9386607999913,None,2569.4952426999807,None,2570.0192837999202,None,2570.0192837999202,None,f,0.42302440013736486,2570.0192837999202,None,,,NC21,001,2021_Nov_08_1525,ProdSingRedo,3.2.3,59.94995376043702,
,,,,29,0,29,0,,,,,,,,,,,,,,,,,,,,,,,,2573.8438825998455,None,,,,,,,,,,,,,,,,,color,new_c,white,29,177,56,2570.9973806999624,None,2570.9973806999624,None,2,1.3970678001642227,2570.9973806999624,None,2572.428294399753,None,2572.946792299859,None,2572.946792299859,None,f,0.8712157998234034,2572.946792299859,None,,,NC21,001,2021_Nov_08_1525,ProdSingRedo,3.2.3,59.94995376043702,
,,,,30,0,30,0,,,,,,,,,,,,,,,,,,,,,,,,2578.3079065997154,None,,,,,,,,,,,,,,,,,touch,new_a,white,30,96,332,2574.3737311000004,None,2574.3737311000004,None,3,2.3565072999335825,2574.3737311000004,None,2576.772838999983,None,2577.289526099805,None,2577.289526099805,None,f,0.9930545999668539,2577.289526099805,None,,,NC21,001,2021_Nov_08_1525,ProdSingRedo,3.2.3,59.94995376043702,
,,,,31,0,31,0,,,,,,,,,,,,,,,,,,,,,,,,2581.4427652996965,None,,,,,,,,,,,,,,,,,listen,new_c,white,31,172,172,2578.827242799569,None,2578.827242799569,None,1,1.4151860000565648,2578.827242799569,None,2580.286112799775,None,2580.8055917997845,None,2580.8055917997845,None,n,0.6049794997088611,2580.8055917997845,None,,,NC21,001,2021_Nov_08_1525,ProdSingRedo,3.2.3,59.94995376043702,
,,,,32,0,32,0,,,,,,,,,,,,,,,,,,,,,,,,2585.6294554998167,None,,,,,,,,,,,,,,,,,subject,new_c,white,32,159,312,2581.9715915997513,None,2581.9715915997513,None,1,2.2788289999589324,2581.9715915997513,None,2584.2976621999405,None,2584.819117899984,None,2584.819117899984,None,n,0.7833223999477923,2584.819117899984,None,,,NC21,001,2021_Nov_08_1525,ProdSingRedo,3.2.3,59.94995376043702,
,,,,33,0,33,0,,,,,,,,,,,,,,,,,,,,,,,,2589.398717899807,None,,,,,,,,,,,,,,,,,right,new_b,white,33,129,265,2586.154995699879,None,2586.154995699879,None,3,2.375345400068909,2586.154995699879,None,2588.5769793996587,None,2589.0876422999427,None,2589.0876422999427,None,f,0.2745914999395609,2589.0876422999427,None,,,NC21,001,2021_Nov_08_1525,ProdSingRedo,3.2.3,59.94995376043702,
,,,,34,0,34,0,,,,,,,,,,,,,,,,,,,,,,,,2593.3872275999747,None,,,,,,,,,,,,,,,,,society,sing,white,34,18,293,2589.9223873997107,None,2589.9223873997107,None,4,2.64799219975248,2589.9223873997107,None,2592.6179388999008,None,2593.137474499643,None,2593.137474499643,None,f,0.2249355004169047,2593.137474499643,None,,,NC21,001,2021_Nov_08_1525,ProdSingRedo,3.2.3,59.94995376043702,
,,,,35,0,35,0,,,,,,,,,,,,,,,,,,,,,,,,2596.4734169999138,None,,,,,,,,,,,,,,,,,south,new_c,white,35,166,296,2593.914381199982,None,2593.914381199982,None,1,1.3761672000400722,2593.914381199982,None,2595.333969099913,None,2595.8587831999175,None,2595.8587831999175,None,n,0.5837853001430631,2595.8587831999175,None,,,NC21,001,2021_Nov_08_1525,ProdSingRedo,3.2.3,59.94995376043702,
,,,,36,0,36,0,,,,,,,,,,,,,,,,,,,,,,,,2600.011660099961,None,,,,,,,,,,,,,,,,,length,new_a,white,36,115,169,2597.001193099655,None,2597.001193099655,None,1,1.6892205998301506,2597.001193099655,None,2598.7465826999396,None,2599.2650448996574,None,2599.2650448996574,None,n,0.7134762001223862,2599.2650448996574,None,,,NC21,001,2021_Nov_08_1525,ProdSingRedo,3.2.3,59.94995376043702,
,,,,37,0,37,0,,,,,,,,,,,,,,,,,,,,,,,,2603.765076499898,None,,,,,,,,,,,,,,,,,bitter,silent,white,37,64,23,2600.5366014996544,None,2600.5366014996544,None,3,2.225792699959129,2600.5366014996544,None,2602.8101164996624,None,2603.3317583999597,None,2603.3317583999597,None,f,0.4068545000627637,2603.3317583999597,None,,,NC21,001,2021_Nov_08_1525,ProdSingRedo,3.2.3,59.94995376043702,
,,,,38,0,38,0,,,,,,,,,,,,,,,,,,,,,,,,2607.0160292997025,None,,,,,,,,,,,,,,,,,author,silent,white,38,67,15,2604.2888152999803,None,2604.2888152999803,None,1,1.7777287000790238,2604.2888152999803,None,2606.113663799595,None,2606.6340782996267,None,2606.6340782996267,None,n,0.36004599975422025,2606.6340782996267,None,,,NC21,001,2021_Nov_08_1525,ProdSingRedo,3.2.3,59.94995376043702,
,,,,39,0,39,0,,,,,,,,,,,,,,,,,,,,,,,,2610.6047041998245,None,,,,,,,,,,,,,,,,,silence,new_a,white,39,100,288,2607.5395423998125,None,2607.5395423998125,None,1,1.9588480000384152,2607.5395423998125,None,2609.542640599888,None,2610.0515735996887,None,2610.0515735996887,None,n,0.5270845000632107,2610.0515735996887,None,,,NC21,001,2021_Nov_08_1525,ProdSingRedo,3.2.3,59.94995376043702,
,,,,40,0,40,0,,,,,,,,,,,,,,,,,,,,,,,,2614.057839699555,None,,,,,,,,,,,,,,,,,split,silent,white,40,73,299,2611.1284329998307,None,2611.1284329998307,None,6,1.9059775997884572,2611.1284329998307,None,2613.0688858996145,None,2613.5934497998096,None,2613.5934497998096,None,r,0.43298229994252324,2613.5934497998096,None,,,NC21,001,2021_Nov_08_1525,ProdSingRedo,3.2.3,59.94995376043702,
,,,,41,0,41,0,,,,,,,,,,,,,,,,,,,,,,,,2620.3302838997915,None,,,,,,,,,,,,,,,,,audience,silent,white,41,74,14,2614.583157299552,None,2614.583157299552,None,3,3.363349699880928,2614.583157299552,None,2617.9840151998214,None,2618.4904303997755,None,2618.4904303997755,None,f,1.816207299940288,2618.4904303997755,None,,,NC21,001,2021_Nov_08_1525,ProdSingRedo,3.2.3,59.94995376043702,
,,,,42,0,42,0,,,,,,,,,,,,,,,,,,,,,,,,2623.149874799885,None,,,,,,,,,,,,,,,,,mechanical,sing,white,42,3,185,2620.8576965997927,None,2620.8576965997927,None,1,1.296735799871385,2620.8576965997927,None,2622.2010544999503,None,2622.706134099979,None,2622.706134099979,None,n,0.4083317997865379,2622.706134099979,None,,,NC21,001,2021_Nov_08_1525,ProdSingRedo,3.2.3,59.94995376043702,
,,,,43,0,43,0,,,,,,,,,,,,,,,,,,,,,,,,2627.0039323996753,None,,,,,,,,,,,,,,,,,tragedy,new_c,white,43,158,335,2623.6837588995695,None,2623.6837588995695,None,3,1.9906939002685249,2623.6837588995695,None,2625.723098699935,None,2626.2445463999175,None,2626.2445463999175,None,f,0.7260087998583913,2626.2445463999175,None,,,NC21,001,2021_Nov_08_1525,ProdSingRedo,3.2.3,59.94995376043702,
,,,,44,0,44,0,,,,,,,,,,,,,,,,,,,,,,,,2630.1247641998343,None,,,,,,,,,,,,,,,,,voice,silent,white,44,71,348,2627.5298345997,None,2627.5298345997,None,1,1.3207387002184987,2627.5298345997,None,2628.890321799554,None,2629.4105824995786,None,2629.4105824995786,None,n,0.6878841002471745,2629.4105824995786,None,,,NC21,001,2021_Nov_08_1525,ProdSingRedo,3.2.3,59.94995376043702,
,,,,45,0,45,0,,,,,,,,,,,,,,,,,,,,,,,,2633.926793599967,None,,,,,,,,,,,,,,,,,front,silent,white,45,80,134,2630.652845799923,None,2630.652845799923,None,2,1.429554299917072,2630.652845799923,None,2632.125918199774,None,2632.6437509995885,None,2632.6437509995885,None,f,1.2467856998555362,2632.6437509995885,None,,,NC21,001,2021_Nov_08_1525,ProdSingRedo,3.2.3,59.94995376043702,
,,,,46,0,46,0,,,,,,,,,,,,,,,,,,,,,,,,2636.7901006997563,None,,,,,,,,,,,,,,,,,department,new_c,white,46,151,90,2634.4502515997738,None,2634.4502515997738,None,1,1.304310199804604,2634.4502515997738,None,2635.7949552997015,None,2636.3023027000017,None,2636.3023027000017,None,n,0.46779779996722937,2636.3023027000017,None,,,NC21,001,2021_Nov_08_1525,ProdSingRedo,3.2.3,59.94995376043702,
,,,,47,0,47,0,,,,,,,,,,,,,,,,,,,,,,,,2640.1172430999577,None,,,,,,,,,,,,,,,,,article,silent,white,47,79,11,2637.308788499795,None,2637.308788499795,None,1,1.9416282000020146,2637.308788499795,None,2639.2991250995547,None,2639.822265799623,None,2639.822265799623,None,n,0.26819289987906814,2639.822265799623,None,,,NC21,001,2021_Nov_08_1525,ProdSingRedo,3.2.3,59.94995376043702,
,,,,48,0,48,0,,,,,,,,,,,,,,,,,,,,,,,,2642.7200420997106,None,,,,,,,,,,,,,,,,,express,sing,white,48,17,124,2640.640097499825,None,2640.640097499825,None,3,1.2582773002795875,2640.640097499825,None,2641.9471083995886,None,2642.4514444000088,None,2642.4514444000088,None,f,0.23116860026493669,2642.4514444000088,None,,,NC21,001,2021_Nov_08_1525,ProdSingRedo,3.2.3,59.94995376043702,
,,,,49,0,49,0,,,,,,,,,,,,,,,,,,,,,,,,2647.641377999913,None,,,,,,,,,,,,,,,,,blind,aloud,white,49,36,24,2643.2456013998017,None,2643.2456013998017,None,6,2.5087176002562046,2643.2456013998017,None,2645.801495899912,None,2646.307139399927,None,2646.307139399927,None,r,1.3115284000523388,2646.307139399927,None,,,NC21,001,2021_Nov_08_1525,ProdSingRedo,3.2.3,59.94995376043702,
,,,,50,0,50,0,,,,,,,,,,,,,,,,,,,,,,,,2651.6796349999495,None,,,,,,,,,,,,,,,,,finish,silent,white,50,78,130,2648.1704491996206,None,2648.1704491996206,None,1,2.479994300287217,2648.1704491996206,None,2650.691773999948,None,2651.195808499586,None,2651.195808499586,None,n,0.4546680999919772,2651.195808499586,None,,,NC21,001,2021_Nov_08_1525,ProdSingRedo,3.2.3,59.94995376043702,
,,,,51,0,51,0,,,,,,,,,,,,,,,,,,,,,,,,2654.7652742997743,None,,,,,,,,,,,,,,,,,angle,new_b,white,51,127,7,2652.205565699842,None,2652.205565699842,None,1,1.5889028999954462,2652.205565699842,None,2653.847409299575,None,2654.368513799738,None,2654.368513799738,None,n,0.3699040003120899,2654.368513799738,None,,,NC21,001,2021_Nov_08_1525,ProdSingRedo,3.2.3,59.94995376043702,
,,,,52,0,52,0,,,,,,,,,,,,,,,,,,,,,,,,2657.867681999691,None,,,,,,,,,,,,,,,,,shock,new_c,white,52,179,284,2655.290748299565,None,2655.290748299565,None,3,1.727631099987775,2655.290748299565,None,2657.065113599878,None,2657.5854146997444,None,2657.5854146997444,None,f,0.2570269997231662,2657.5854146997444,None,,,NC21,001,2021_Nov_08_1525,ProdSingRedo,3.2.3,59.94995376043702,
,,,,53,0,53,0,,,,,,,,,,,,,,,,,,,,,,,,2661.1178311998956,None,,,,,,,,,,,,,,,,,account,new_c,white,53,152,1,2658.3949620998465,None,2658.3949620998465,None,1,1.7274108999408782,2658.3949620998465,None,2660.1701132999733,None,2660.6755349999294,None,2660.6755349999294,None,n,0.41446899995207787,2660.6755349999294,None,,,NC21,001,2021_Nov_08_1525,ProdSingRedo,3.2.3,59.94995376043702,
,,,,54,0,54,0,,,,,,,,,,,,,,,,,,,,,,,,2665.0420010997914,None,,,,,,,,,,,,,,,,,budget,new_b,white,54,131,34,2661.63171469979,None,2661.63171469979,None,1,2.5067912000231445,2661.63171469979,None,2664.186929699965,None,2664.7156821996905,None,2664.7156821996905,None,n,0.2948037004098296,2664.7156821996905,None,,,NC21,001,2021_Nov_08_1525,ProdSingRedo,3.2.3,59.94995376043702,
,,,,55,0,55,0,,,,,,,,,,,,,,,,,,,,,,,,2669.6458317996003,None,,,,,,,,,,,,,,,,,safety,silent,white,55,86,270,2665.5727758998983,None,2665.5727758998983,None,3,3.3417400997132063,2665.5727758998983,None,2668.964266799856,None,2669.467409899924,None,2669.467409899924,None,f,0.143049499951303,2669.467409899924,None,,,NC21,001,2021_Nov_08_1525,ProdSingRedo,3.2.3,59.94995376043702,
,,,,56,0,56,0,,,,,,,,,,,,,,,,,,,,,,,,2673.2666957997717,None,,,,,,,,,,,,,,,,,produce,aloud,white,56,47,239,2670.1712574996054,None,2670.1712574996054,None,2,2.207284600008279,2670.1712574996054,None,2672.4288090998307,None,2672.95348439971,None,2672.95348439971,None,f,0.28096540039405227,2672.95348439971,None,,,NC21,001,2021_Nov_08_1525,ProdSingRedo,3.2.3,59.94995376043702,
,,,,57,0,57,0,,,,,,,,,,,,,,,,,,,,,,,,2675.9875342999585,None,,,,,,,,,,,,,,,,,staff,sing,white,57,27,301,2673.79167149961,None,2673.79167149961,None,1,1.2907276996411383,2673.79167149961,None,2675.128501500003,None,2675.636116199661,None,2675.636116199661,None,n,0.3264426998794079,2675.636116199661,None,,,NC21,001,2021_Nov_08_1525,ProdSingRedo,3.2.3,59.94995376043702,
,,,,58,0,58,0,,,,,,,,,,,,,,,,,,,,,,,,2680.1904797996394,None,,,,,,,,,,,,,,,,,theme,silent,white,58,72,326,2676.508780799806,None,2676.508780799806,None,3,2.7735828002914786,2676.508780799806,None,2679.3217677995563,None,2679.8382683997042,None,2679.8382683997042,None,f,0.3241495997644961,2679.8382683997042,None,,,NC21,001,2021_Nov_08_1525,ProdSingRedo,3.2.3,59.94995376043702,
,,,,59,0,59,0,,,,,,,,,,,,,,,,,,,,,,,,2682.993103399873,None,,,,,,,,,,,,,,,,,carry,sing,white,59,10,43,2680.717230199836,None,2680.717230199836,None,2,1.4531783000566065,2680.717230199836,None,2682.2122668996453,None,2682.731985299848,None,2682.731985299848,None,f,0.23849619971588254,2682.731985299848,None,,,NC21,001,2021_Nov_08_1525,ProdSingRedo,3.2.3,59.94995376043702,
,,,,60,0,60,0,,,,,,,,,,,,,,,,,,,,,,,,2686.6165009997785,None,,,,,,,,,,,,,,,,,council,new_a,white,60,107,71,2683.5189789999276,None,2683.5189789999276,None,3,2.443436899688095,2683.5189789999276,None,2686.0110152997077,None,2686.517169599887,None,2686.517169599887,None,f,0.06924320012331009,2686.517169599887,None,,,NC21,001,2021_Nov_08_1525,ProdSingRedo,3.2.3,59.94995376043702,
,,,,61,0,61,0,,,,,,,,,,,,,,,,,,,,,,,,2689.966860599816,None,,,,,,,,,,,,,,,,,quiet,sing,white,61,11,249,2687.1370312999934,None,2687.1370312999934,None,4,2.2094740997999907,2687.1370312999934,None,2689.3968460997567,None,2689.9174579996616,None,2689.9174579996616,None,f,0.021001700311899185,2689.9174579996616,None,,,NC21,001,2021_Nov_08_1525,ProdSingRedo,3.2.3,59.94995376043702,
,,,,62,0,62,0,,,,,,,,,,,,,,,,,,,,,,,,2692.9397077998146,None,,,,,,,,,,,,,,,,,search,silent,white,62,83,276,2690.4925505998544,None,2690.4925505998544,None,2,1.7578422999940813,2690.4925505998544,None,2692.3058539996855,None,2692.8222228996456,None,2692.8222228996456,None,f,0.08438599994406104,2692.8222228996456,None,,,NC21,001,2021_Nov_08_1525,ProdSingRedo,3.2.3,59.94995376043702,
,,,,63,0,63,0,,,,,,,,,,,,,,,,,,,,,,,,2695.8220941997133,None,,,,,,,,,,,,,,,,,household,new_b,white,63,121,154,2693.4650727999397,None,2693.4650727999397,None,1,1.313457699958235,2693.4650727999397,None,2694.822287999559,None,2695.3257521996275,None,2695.3257521996275,None,n,0.4606375000439584,2695.3257521996275,None,,,NC21,001,2021_Nov_08_1525,ProdSingRedo,3.2.3,59.94995376043702,
,,,,64,0,64,0,,,,,,,,,,,,,,,,,,,,,,,,2701.2879911996424,None,,,,,,,,,,,,,,,,,tough,new_b,white,64,124,333,2696.3477869997732,None,2696.3477869997732,None,1,3.614419599995017,2696.3477869997732,None,2699.986647399608,None,2700.499782699626,None,2700.499782699626,None,n,0.7663913001306355,2700.499782699626,None,,,NC21,001,2021_Nov_08_1525,ProdSingRedo,3.2.3,59.94995376043702,
,,,,65,0,65,0,,,,,,,,,,,,,,,,,,,,,,,,2707.05106529966,None,,,,,,,,,,,,,,,,,member,silent,white,65,63,188,2701.7989678997546,None,2701.7989678997546,None,6,3.283620700240135,2701.7989678997546,None,2705.1275094999,None,2705.6531475000083,None,2705.6531475000083,None,r,1.3653043997474015,2705.6531475000083,None,,,NC21,001,2021_Nov_08_1525,ProdSingRedo,3.2.3,59.94995376043702,
,,,,66,0,66,0,,,,,,,,,,,,,,,,,,,,,,,,2713.257863299921,None,,,,,,,,,,,,,,,,,school,new_c,white,66,168,274,2707.574792599771,None,2707.574792599771,None,2,4.899673200212419,2707.574792599771,None,2712.519197399728,None,2713.0379911996424,None,2713.0379911996424,None,f,0.1963998000137508,2713.0379911996424,None,,,NC21,001,2021_Nov_08_1525,ProdSingRedo,3.2.3,59.94995376043702,
,,,,67,0,67,0,,,,,,,,,,,,,,,,,,,,,,,,2716.176777899731,None,,,,,,,,,,,,,,,,,weight,new_c,white,67,161,353,2713.786008399911,None,2713.786008399911,None,1,1.4406766002066433,2713.786008399911,None,2715.2760058999993,None,2715.797342199832,None,2715.797342199832,None,n,0.34118220023810863,2715.797342199832,None,,,NC21,001,2021_Nov_08_1525,ProdSingRedo,3.2.3,59.94995376043702,
,,,,68,0,68,0,,,,,,,,,,,,,,,,,,,,,,,,2719.963916399982,None,,,,,,,,,,,,,,,,,company,sing,white,68,0,64,2716.7073751999997,None,2716.7073751999997,None,3,2.599163900129497,2716.7073751999997,None,2719.347680499777,None,2719.86886529997,None,2719.86886529997,None,f,0.06966560008004308,2719.86886529997,None,,,NC21,001,2021_Nov_08_1525,ProdSingRedo,3.2.3,59.94995376043702,
,,,,69,0,69,0,,,,,,,,,,,,,,,,,,,,,,,,2722.583921100013,None,,,,,,,,,,,,,,,,,threat,new_b,white,69,143,329,2720.488112599589,None,2720.488112599589,None,2,1.4423973998054862,2720.488112599589,None,2721.9864765997045,None,2722.4852513996884,None,2722.4852513996884,None,f,0.06927070021629333,2722.4852513996884,None,,,NC21,001,2021_Nov_08_1525,ProdSingRedo,3.2.3,59.94995376043702,
,,,,70,0,70,0,,,,,,,,,,,,,,,,,,,,,,,,2725.6862068995833,None,,,,,,,,,,,,,,,,,stand,new_a,white,70,101,302,2723.108577499632,None,2723.108577499632,None,3,1.8779001999646425,2723.108577499632,None,2725.0372106996365,None,2725.554938899819,None,2725.554938899819,None,f,0.10360960010439157,2725.554938899819,None,,,NC21,001,2021_Nov_08_1525,ProdSingRedo,3.2.3,59.94995376043702,
,,,,71,0,71,0,,,,,,,,,,,,,,,,,,,,,,,,2729.155954599846,None,,,,,,,,,,,,,,,,,pretty,silent,white,71,85,233,2726.2106718998402,None,2726.2106718998402,None,5,2.3118396000936627,2726.2106718998402,None,2728.5633363998495,None,2729.0772347999737,None,2729.0772347999737,None,f,0.05351209966465831,2729.0772347999737,None,,,NC21,001,2021_Nov_08_1525,ProdSingRedo,3.2.3,59.94995376043702,
,,,,72,0,72,0,,,,,,,,,,,,,,,,,,,,,,,,2732.576226899866,None,,,,,,,,,,,,,,,,,revolution,sing,white,72,24,264,2729.6902993996628,None,2729.6902993996628,None,6,1.9763247002847493,2729.6902993996628,None,2731.7131745996885,None,2732.2338319998235,None,2732.2338319998235,None,r,0.3206521002575755,2732.2338319998235,None,,,NC21,001,2021_Nov_08_1525,ProdSingRedo,3.2.3,59.94995376043702,
,,,,73,0,73,0,,,,,,,,,,,,,,,,,,,,,,,,2736.2151504997164,None,,,,,,,,,,,,,,,,,prime,new_b,white,73,122,235,2733.0982491998,None,2733.0982491998,None,3,2.3764124996960163,2733.0982491998,None,2735.5190192996524,None,2736.028031999711,None,2736.028031999711,None,f,0.15849089995026588,2736.028031999711,None,,,NC21,001,2021_Nov_08_1525,ProdSingRedo,3.2.3,59.94995376043702,
,,,,74,0,74,0,,,,,,,,,,,,,,,,,,,,,,,,2739.0660270997323,None,,,,,,,,,,,,,,,,,title,new_b,white,74,148,331,2736.746539799962,None,2736.746539799962,None,2,1.488005899824202,2736.746539799962,None,2738.278482099995,None,2738.7968043996952,None,2738.7968043996952,None,f,0.23774300003424287,2738.7968043996952,None,,,NC21,001,2021_Nov_08_1525,ProdSingRedo,3.2.3,59.94995376043702,
,,,,75,0,75,0,,,,,,,,,,,,,,,,,,,,,,,,2742.206091299653,None,,,,,,,,,,,,,,,,,waste,aloud,white,75,48,350,2739.589960299898,None,2739.589960299898,None,5,1.8045341996476054,2739.589960299898,None,2741.42824249994,None,2741.937263599597,None,2741.937263599597,None,f,0.23328629974275827,2741.937263599597,None,,,NC21,001,2021_Nov_08_1525,ProdSingRedo,3.2.3,59.94995376043702,
,,,,76,0,76,0,,,,,,,,,,,,,,,,,,,,,,,,2748.8080909997225,None,,,,,,,,,,,,,,,,,machinery,new_b,white,76,136,175,2742.7356628999114,None,2742.7356628999114,None,4,5.450807000044733,2742.7356628999114,None,2748.2286626999266,None,2748.7515018996783,None,2748.7515018996783,None,f,0.02690930012613535,2748.7515018996783,None,,,NC21,001,2021_Nov_08_1525,ProdSingRedo,3.2.3,59.94995376043702,
,,,,77,0,77,0,,,,,,,,,,,,,,,,,,,,,,,,2752.0113174999133,None,,,,,,,,,,,,,,,,,agency,new_b,white,77,126,4,2749.335524399765,None,2749.335524399765,None,1,1.818630499765277,2749.335524399765,None,2751.176813399885,None,2751.688680399675,None,2751.688680399675,None,n,0.2980028004385531,2751.688680399675,None,,,NC21,001,2021_Nov_08_1525,ProdSingRedo,3.2.3,59.94995376043702,
,,,,78,0,78,0,,,,,,,,,,,,,,,,,,,,,,,,2754.668947799597,None,,,,,,,,,,,,,,,,,resistance,new_c,white,78,162,262,2752.5422748997808,None,2752.5422748997808,None,1,1.3324700999073684,2752.5422748997808,None,2753.910544499755,None,2754.4369924999774,None,2754.4369924999774,None,n,0.20537550002336502,2754.4369924999774,None,,,NC21,001,2021_Nov_08_1525,ProdSingRedo,3.2.3,59.94995376043702,
,,,,79,0,79,0,,,,,,,,,,,,,,,,,,,,,,,,2757.5348118999973,None,,,,,,,,,,,,,,,,,collection,new_b,white,79,137,54,2755.1920076999813,None,2755.1920076999813,None,3,1.7144515998661518,2755.1920076999813,None,2756.9465713999234,None,2757.450823799707,None,2757.450823799707,None,f,0.047785500064492226,2757.450823799707,None,,,NC21,001,2021_Nov_08_1525,ProdSingRedo,3.2.3,59.94995376043702,
,,,,80,0,80,0,,,,,,,,,,,,,,,,,,,,,,,,2762.982823499944,None,,,,,,,,,,,,,,,,,republic,silent,white,80,75,260,2758.0645573996007,None,2758.0645573996007,None,1,2.546012199949473,2758.0645573996007,None,2760.655210599769,None,2761.1618338995613,None,2761.1618338995613,None,n,1.7922886000014842,2761.1618338995613,None,,,NC21,001,2021_Nov_08_1525,ProdSingRedo,3.2.3,59.94995376043702,
,,,,81,0,81,0,,,,,,,,,,,,,,,,,,,,,,,,2766.8104522000067,None,,,,,,,,,,,,,,,,,skill,sing,white,81,14,289,2763.4981475998648,None,2763.4981475998648,None,2,2.6959088002331555,2763.4981475998648,None,2766.2203257000074,None,2766.730643399991,None,2766.730643399991,None,f,0.055831499863415956,2766.730643399991,None,,,NC21,001,2021_Nov_08_1525,ProdSingRedo,3.2.3,59.94995376043702,
,,,,82,0,82,0,,,,,,,,,,,,,,,,,,,,,,,,2769.8966355999,None,,,,,,,,,,,,,,,,,contract,aloud,white,82,45,68,2767.336968699936,None,2767.336968699936,None,2,1.8095511998981237,2767.336968699936,None,2769.1988114998676,None,2769.7247057999484,None,2769.7247057999484,None,f,0.1418651998974383,2769.7247057999484,None,,,NC21,001,2021_Nov_08_1525,ProdSingRedo,3.2.3,59.94995376043702,
,,,,83,0,83,0,,,,,,,,,,,,,,,,,,,,,,,,2772.483752699569,None,,,,,,,,,,,,,,,,,hearing,sing,white,83,15,150,2770.4258377999067,None,2770.4258377999067,None,3,1.4165749000385404,2770.4258377999067,None,2771.877818599809,None,2772.3858610996976,None,2772.3858610996976,None,f,0.06472729984670877,2772.3858610996976,None,,,NC21,001,2021_Nov_08_1525,ProdSingRedo,3.2.3,59.94995376043702,
,,,,84,0,84,0,,,,,,,,,,,,,,,,,,,,,,,,2775.0190926999785,None,,,,,,,,,,,,,,,,,level,new_a,white,84,103,170,2773.0107384999283,None,2773.0107384999283,None,1,1.2397485999390483,2773.0107384999283,None,2774.2994685997255,None,2774.8203884996474,None,2774.8203884996474,None,n,0.16615079995244741,2774.8203884996474,None,,,NC21,001,2021_Nov_08_1525,ProdSingRedo,3.2.3,59.94995376043702,
,,,,85,0,85,0,,,,,,,,,,,,,,,,,,,,,,,,2777.6716051995754,None,,,,,,,,,,,,,,,,,design,aloud,white,85,42,91,2775.5472331997007,None,2775.5472331997007,None,2,1.4631504002027214,2775.5472331997007,None,2777.0431111999787,None,2777.5589763997123,None,2777.5589763997123,None,f,0.07555439975112677,2777.5589763997123,None,,,NC21,001,2021_Nov_08_1525,ProdSingRedo,3.2.3,59.94995376043702,
,,,,86,0,86,0,,,,,,,,,,,,,,,,,,,,,,,,2780.255928899627,None,,,,,,,,,,,,,,,,,distance,aloud,white,86,54,100,2778.198015599977,None,2778.198015599977,None,3,1.42048400035128,2778.198015599977,None,2779.6713013998233,None,2780.1773243998177,None,2780.1773243998177,None,f,0.04903189977630973,2780.1773243998177,None,,,NC21,001,2021_Nov_08_1525,ProdSingRedo,3.2.3,59.94995376043702,
,,,,87,0,87,0,,,,,,,,,,,,,,,,,,,,,,,,2784.111190299969,None,,,,,,,,,,,,,,,,,frank,new_b,white,87,149,133,2780.786923599895,None,2780.786923599895,None,1,2.3675040998496115,2780.786923599895,None,2783.1924927998334,None,2783.72370259976,None,2783.72370259976,None,n,0.35096490010619164,2783.72370259976,None,,,NC21,001,2021_Nov_08_1525,ProdSingRedo,3.2.3,59.94995376043702,
,,,,88,0,88,0,,,,,,,,,,,,,,,,,,,,,,,,2787.7977043995634,None,,,,,,,,,,,,,,,,,rapid,new_a,white,88,108,252,2784.636069699656,None,2784.636069699656,None,2,1.3988601001910865,2784.636069699656,None,2786.0737821999937,None,2786.582889399957,None,2786.582889399957,None,f,1.1797748999670148,2786.582889399957,None,,,NC21,001,2021_Nov_08_1525,ProdSingRedo,3.2.3,59.94995376043702,
,,,,89,0,89,0,,,,,,,,,,,,,,,,,,,,,,,,2790.4253242998384,None,,,,,,,,,,,,,,,,,majority,silent,white,89,76,176,2788.329604199622,None,2788.329604199622,None,3,1.5048815999180079,2788.329604199622,None,2789.886444099713,None,2790.40785269998,None,2790.40785269998,None,f,0.002639499958604574,2790.40785269998,None,,,NC21,001,2021_Nov_08_1525,ProdSingRedo,3.2.3,59.94995376043702,
,,,,90,0,90,0,,,,,,,,,,,,,,,,,,,,,,,,2798.6098746997304,None,,,,,,,,,,,,,,,,,quick,new_a,white,90,91,248,2790.9446152998134,None,2790.9446152998134,None,3,2.257806200068444,2790.9446152998134,None,2793.2513383999467,None,2793.760469299741,None,2793.760469299741,None,f,4.818103599827737,2793.760469299741,None,,,NC21,001,2021_Nov_08_1525,ProdSingRedo,3.2.3,59.94995376043702,
,,,,91,0,91,0,,,,,,,,,,,,,,,,,,,,,,,,2802.3303869999945,None,,,,,,,,,,,,,,,,,permit,new_a,white,91,119,218,2799.131907199975,None,2799.131907199975,None,2,2.19868479995057,2799.131907199975,None,2801.375254099723,None,2801.888616599608,None,2801.888616599608,None,f,0.4099822002463043,2801.888616599608,None,,,NC21,001,2021_Nov_08_1525,ProdSingRedo,3.2.3,59.94995376043702,
,,,,92,0,92,0,,,,,,,,,,,,,,,,,,,,,,,,2805.8326524998993,None,,,,,,,,,,,,,,,,,comedy,silent,white,92,62,58,2802.8548981999047,None,2802.8548981999047,None,1,1.9316797000356019,2802.8548981999047,None,2804.828882499598,None,2805.3349410998635,None,2805.3349410998635,None,n,0.4675968000665307,2805.3349410998635,None,,,NC21,001,2021_Nov_08_1525,ProdSingRedo,3.2.3,59.94995376043702,
,,,,93,0,93,0,,,,,,,,,,,,,,,,,,,,,,,,2808.6030452996492,None,,,,,,,,,,,,,,,,,community,sing,white,93,29,63,2806.3644334999844,None,2806.3644334999844,None,3,1.4700863002799451,2806.3644334999844,None,2807.8868693998083,None,2808.407181999646,None,2808.407181999646,None,f,0.17134529957547784,2808.407181999646,None,,,NC21,001,2021_Nov_08_1525,ProdSingRedo,3.2.3,59.94995376043702,
,,,,94,0,94,0,,,,,,,,,,,,,,,,,,,,,,,,2811.2812390998006,None,,,,,,,,,,,,,,,,,generation,new_b,white,94,147,136,2809.132342999801,None,2809.132342999801,None,4,1.5742593999020755,2809.132342999801,None,2810.7559177000076,None,2811.26471149968,None,2811.26471149968,None,f,0.0014148000627756119,2811.26471149968,None,,,NC21,001,2021_Nov_08_1525,ProdSingRedo,3.2.3,59.94995376043702,
,,,,95,0,95,0,,,,,,,,,,,,,,,,,,,,,,,,2814.2755344999023,None,,,,,,,,,,,,,,,,,primary,new_c,white,95,174,234,2811.7829644996673,None,2811.7829644996673,None,3,1.8035976001992822,2811.7829644996673,None,2813.6387678999454,None,2814.1651213997975,None,2814.1651213997975,None,f,0.08540139999240637,2814.1651213997975,None,,,NC21,001,2021_Nov_08_1525,ProdSingRedo,3.2.3,59.94995376043702,
,,,,96,0,96,0,,,,,,,,,,,,,,,,,,,,,,,,2817.2742964997888,None,,,,,,,,,,,,,,,,,individual,new_c,white,96,157,160,2814.805971799884,None,2814.805971799884,None,2,1.8365875999443233,2814.805971799884,None,2816.6981416000053,None,2817.218243899755,None,2817.218243899755,None,f,0.024106699973344803,2817.218243899755,None,,,NC21,001,2021_Nov_08_1525,ProdSingRedo,3.2.3,59.94995376043702,
,,,,97,0,97,0,,,,,,,,,,,,,,,,,,,,,,,,2820.7657788996585,None,,,,,,,,,,,,,,,,,master,new_a,white,97,117,180,2817.803832099773,None,2817.803832099773,None,1,1.902592500206083,2817.803832099773,None,2819.7453016997315,None,2820.249476299621,None,2820.249476299621,None,n,0.48935050005093217,2820.249476299621,None,,,NC21,001,2021_Nov_08_1525,ProdSingRedo,3.2.3,59.94995376043702,
,,,,98,0,98,0,,,,,,,,,,,,,,,,,,,,,,,,2823.2874282998964,None,,,,,,,,,,,,,,,,,burden,sing,white,98,4,36,2821.290769299958,None,2821.290769299958,None,2,1.2558234999887645,2821.290769299958,None,2822.600319999736,None,2823.122485099826,None,2823.122485099826,None,f,0.1360547998920083,2823.122485099826,None,,,NC21,001,2021_Nov_08_1525,ProdSingRedo,3.2.3,59.94995376043702,
,,,,99,0,99,0,,,,,,,,,,,,,,,,,,,,,,,,2825.561452199705,None,,,,,,,,,,,,,,,,,citizen,new_b,white,99,134,50,2823.8077634996735,None,2823.8077634996735,None,3,1.1544595998711884,2823.8077634996735,None,2824.988598899916,None,2825.495849999599,None,2825.495849999599,None,f,0.01876439992338419,2825.495849999599,None,,,NC21,001,2021_Nov_08_1525,ProdSingRedo,3.2.3,59.94995376043702,
,,,,100,0,100,0,,,,,,,,,,,,,,,,,,,,,,,,2829.0056793997064,None,,,,,,,,,,,,,,,,,shear,aloud,white,100,59,283,2826.08318329975,None,2826.08318329975,None,6,2.023509600199759,2826.08318329975,None,2828.1543467999436,None,2828.674919899553,None,2828.674919899553,None,r,0.2956142998300493,2828.674919899553,None,,,NC21,001,2021_Nov_08_1525,ProdSingRedo,3.2.3,59.94995376043702,
,,,,101,0,101,0,,,,,,,,,,,,,,,,,,,,,,,,2832.601189799607,None,,,,,,,,,,,,,,,,,court,sing,white,101,28,75,2829.532398100011,None,2829.532398100011,None,3,1.7981897997669876,2829.532398100011,None,2831.3694180999883,None,2831.8789595998824,None,2831.8789595998824,None,f,0.6836798000149429,2831.8789595998824,None,,,NC21,001,2021_Nov_08_1525,ProdSingRedo,3.2.3,59.94995376043702,
,,,,102,0,102,0,,,,,,,,,,,,,,,,,,,,,,,,2836.963193099946,None,,,,,,,,,,,,,,,,,weather,aloud,white,102,31,352,2833.122001499869,None,2833.122001499869,None,4,2.2886282997205853,2833.122001499869,None,2835.4569547995925,None,2835.9705146998167,None,2835.9705146998167,None,f,0.959975200239569,2835.9705146998167,None,,,NC21,001,2021_Nov_08_1525,ProdSingRedo,3.2.3,59.94995376043702,
,,,,103,0,103,0,,,,,,,,,,,,,,,,,,,,,,,,2839.703005499672,None,,,,,,,,,,,,,,,,,novel,sing,white,103,19,202,2837.490745099727,None,2837.490745099727,None,3,1.5037900004535913,2837.490745099727,None,2839.0330144995824,None,2839.5522299995646,None,2839.5522299995646,None,f,0.12252969993278384,2839.5522299995646,None,,,NC21,001,2021_Nov_08_1525,ProdSingRedo,3.2.3,59.94995376043702,
,,,,104,0,104,0,,,,,,,,,,,,,,,,,,,,,,,,2842.7622940000147,None,,,,,,,,,,,,,,,,,message,new_a,white,104,92,189,2840.23033569986,None,2840.23033569986,None,1,1.7800757000222802,2840.23033569986,None,2842.0512914997526,None,2842.55488969991,None,2842.55488969991,None,n,0.16763830045238137,2842.55488969991,None,,,NC21,001,2021_Nov_08_1525,ProdSingRedo,3.2.3,59.94995376043702,
,,,,105,0,105,0,,,,,,,,,,,,,,,,,,,,,,,,2845.939344599843,None,,,,,,,,,,,,,,,,,science,silent,white,105,87,275,2843.275724499952,None,2843.275724499952,None,2,1.9028989998623729,2843.275724499952,None,2845.2253992999904,None,2845.7382143996656,None,2845.7382143996656,None,f,0.1763793001882732,2845.7382143996656,None,,,NC21,001,2021_Nov_08_1525,ProdSingRedo,3.2.3,59.94995376043702,
,,,,106,0,106,0,,,,,,,,,,,,,,,,,,,,,,,,2848.509760099929,None,,,,,,,,,,,,,,,,,recall,new_a,white,106,94,255,2846.467239299789,None,2846.467239299789,None,3,1.3832557001151145,2846.467239299789,None,2847.8899768996052,None,2848.3933060998097,None,2848.3933060998097,None,f,0.0892187999561429,2848.3933060998097,None,,,NC21,001,2021_Nov_08_1525,ProdSingRedo,3.2.3,59.94995376043702,
,,,,107,0,107,0,,,,,,,,,,,,,,,,,,,,,,,,2851.211393199861,None,,,,,,,,,,,,,,,,,reading,new_a,white,107,93,254,2849.0358717995696,None,2849.0358717995696,None,2,1.4147923002019525,2849.0358717995696,None,2850.4954329999164,None,2851.0143079999834,None,2851.0143079999834,None,f,0.1642653001472354,2851.0143079999834,None,,,NC21,001,2021_Nov_08_1525,ProdSingRedo,3.2.3,59.94995376043702,
,,,,108,0,108,0,,,,,,,,,,,,,,,,,,,,,,,,2853.957254400011,None,,,,,,,,,,,,,,,,,private,sing,white,108,8,237,2851.7380867996253,None,2851.7380867996253,None,3,1.4725020001642406,2851.7380867996253,None,2853.2641785996966,None,2853.7589548998512,None,2853.7589548998512,None,f,0.17925400007516146,2853.7589548998512,None,,,NC21,001,2021_Nov_08_1525,ProdSingRedo,3.2.3,59.94995376043702,
,,,,109,0,109,0,,,,,,,,,,,,,,,,,,,,,,,,2856.359608899802,None,,,,,,,,,,,,,,,,,equipment,new_b,white,109,133,116,2854.4588158996776,None,2854.4588158996776,None,4,1.2554200999438763,2854.4588158996776,None,2855.7423802996054,None,2856.2429814999923,None,2856.2429814999923,None,f,0.09526060009375215,2856.2429814999923,None,,,NC21,001,2021_Nov_08_1525,ProdSingRedo,3.2.3,59.94995376043702,
,,,,110,0,110,0,,,,,,,,,,,,,,,,,,,,,,,,2859.0797892999835,None,,,,,,,,,,,,,,,,,brief,new_b,white,110,125,28,2856.877162999939,None,2856.877162999939,None,3,1.589375900104642,2856.877162999939,None,2858.516391299665,None,2859.0236868998036,None,2859.0236868998036,None,f,0.026727499905973673,2859.0236868998036,None,,,NC21,001,2021_Nov_08_1525,ProdSingRedo,3.2.3,59.94995376043702,
,,,,111,0,111,0,,,,,,,,,,,,,,,,,,,,,,,,2862.7573201996274,None,,,,,,,,,,,,,,,,,throw,aloud,white,111,50,330,2859.5933160996065,None,2859.5933160996065,None,3,1.3610641001723707,2859.5933160996065,None,2860.999827499967,None,2861.5079367998987,None,2861.5079367998987,None,f,1.2227233001030982,2861.5079367998987,None,,,NC21,001,2021_Nov_08_1525,ProdSingRedo,3.2.3,59.94995376043702,
,,,,112,0,112,0,,,,,,,,,,,,,,,,,,,,,,,,2865.625032799784,None,,,,,,,,,,,,,,,,,broke,new_a,white,112,111,32,2863.2828420996666,None,2863.2828420996666,None,1,1.46380570018664,2863.2828420996666,None,2864.7871546996757,None,2865.2941469997168,None,2865.2941469997168,None,n,0.3085019001737237,2865.2941469997168,None,,,NC21,001,2021_Nov_08_1525,ProdSingRedo,3.2.3,59.94995376043702,
,,,,113,0,113,0,,,,,,,,,,,,,,,,,,,,,,,,2870.1806994997896,None,,,,,,,,,,,,,,,,,rough,aloud,white,113,32,266,2866.1515784999356,None,2866.1515784999356,None,6,3.275083299726248,2866.1515784999356,None,2869.473314499948,None,2869.980826999992,None,2869.980826999992,None,r,0.16577109973877668,2869.980826999992,None,,,NC21,001,2021_Nov_08_1525,ProdSingRedo,3.2.3,59.94995376043702,
,,,,114,0,114,0,,,,,,,,,,,,,,,,,,,,,,,,2873.8508416996337,None,,,,,,,,,,,,,,,,,height,aloud,white,114,39,152,2870.7061635996215,None,2870.7061635996215,None,2,1.5204413998872042,2870.7061635996215,None,2872.26466049999,None,2872.786539899651,None,2872.786539899651,None,f,1.0399436997249722,2872.786539899651,None,,,NC21,001,2021_Nov_08_1525,ProdSingRedo,3.2.3,59.94995376043702,
,,,,115,0,115,0,,,,,,,,,,,,,,,,,,,,,,,,2876.8205923996866,None,,,,,,,,,,,,,,,,,junior,new_b,white,115,139,167,2874.377095699776,None,2874.377095699776,None,3,0.8895732001401484,2874.377095699776,None,2875.3185538998805,None,2875.8401531996205,None,2875.8401531996205,None,f,0.94649269990623,2875.8401531996205,None,,,NC21,001,2021_Nov_08_1525,ProdSingRedo,3.2.3,59.94995376043702,
,,,,116,0,116,0,,,,,,,,,,,,,,,,,,,,,,,,2879.9233895996585,None,,,,,,,,,,,,,,,,,edition,new_a,white,116,113,107,2877.3439664999023,None,2877.3439664999023,None,2,1.92285929992795,2877.3439664999023,None,2879.3018094999716,None,2879.825176899787,None,2879.825176899787,None,f,0.0733329001814127,2879.825176899787,None,,,NC21,001,2021_Nov_08_1525,ProdSingRedo,3.2.3,59.94995376043702,
,,,,117,0,117,0,,,,,,,,,,,,,,,,,,,,,,,,2882.5589326997288,None,,,,,,,,,,,,,,,,,passage,aloud,white,117,35,212,2880.449643999804,None,2880.449643999804,None,2,1.3370761000551283,2880.449643999804,None,2881.825342899654,None,2882.3316037999466,None,2882.3316037999466,None,f,0.19098389986902475,2882.3316037999466,None,,,NC21,001,2021_Nov_08_1525,ProdSingRedo,3.2.3,59.94995376043702,
,,,,118,0,118,0,,,,,,,,,,,,,,,,,,,,,,,,2885.012890599668,None,,,,,,,,,,,,,,,,,business,sing,white,118,20,38,2883.0848445999436,None,2883.0848445999436,None,4,1.261725400108844,2883.0848445999436,None,2884.397293899674,None,2884.9161804998294,None,2884.9161804998294,None,f,0.062390000093728304,2884.9161804998294,None,,,NC21,001,2021_Nov_08_1525,ProdSingRedo,3.2.3,59.94995376043702,
,,,,119,0,119,0,,,,,,,,,,,,,,,,,,,,,,,,2887.7586312997155,None,,,,,,,,,,,,,,,,,clear,new_c,white,119,167,52,2885.539086099714,None,2885.539086099714,None,5,1.535640800371766,2885.539086099714,None,2887.1105033997446,None,2887.634620699566,None,2887.634620699566,None,f,0.09558619977906346,2887.634620699566,None,,,NC21,001,2021_Nov_08_1525,ProdSingRedo,3.2.3,59.94995376043702,
,,,,120,0,120,0,,,,,,,,,,,,,,,,,,,,,,,,2890.4015983999707,None,,,,,,,,,,,,,,,,,direction,aloud,white,120,53,94,2888.270836799871,None,2888.270836799871,None,3,1.4594230996444821,2888.270836799871,None,2889.7600411996245,None,2890.2604034999385,None,2890.2604034999385,None,f,0.11030689999461174,2890.2604034999385,None,,,NC21,001,2021_Nov_08_1525,ProdSingRedo,3.2.3,59.94995376043702,
,,,,121,0,121,0,,,,,,,,,,,,,,,,,,,,,,,,2893.3582850997336,None,,,,,,,,,,,,,,,,,principal,aloud,white,121,56,236,2890.9290878996253,None,2890.9290878996253,None,6,1.6894789999350905,2890.9290878996253,None,2892.6647568996996,None,2893.1745270998217,None,2893.1745270998217,None,r,0.14812930021435022,2893.1745270998217,None,,,NC21,001,2021_Nov_08_1525,ProdSingRedo,3.2.3,59.94995376043702,
,,,,122,0,122,0,,,,,,,,,,,,,,,,,,,,,,,,2897.067397999577,None,,,,,,,,,,,,,,,,,history,sing,white,122,26,153,2893.883966199588,None,2893.883966199588,None,4,2.3429454998113215,2893.883966199588,None,2896.271328599658,None,2896.783829999622,None,2896.783829999622,None,f,0.26646750001236796,2896.783829999622,None,,,NC21,001,2021_Nov_08_1525,ProdSingRedo,3.2.3,59.94995376043702,
,,,,123,0,123,0,,,,,,,,,,,,,,,,,,,,,,,,2900.0772812999785,None,,,,,,,,,,,,,,,,,review,aloud,white,123,30,263,2897.5822218996473,None,2897.5822218996473,None,3,1.6446328000165522,2897.5822218996473,None,2899.278014099691,None,2899.7960431999527,None,2899.7960431999527,None,f,0.24657300021499395,2899.7960431999527,None,,,NC21,001,2021_Nov_08_1525,ProdSingRedo,3.2.3,59.94995376043702,
,,,,124,0,124,0,,,,,,,,,,,,,,,,,,,,,,,,2904.280562199652,None,,,,,,,,,,,,,,,,,strain,sing,white,124,9,308,2900.604018199723,None,2900.604018199723,None,3,2.1106408000923693,2900.604018199723,None,2902.765936699696,None,2903.266747399699,None,2903.266747399699,None,f,0.9838409000076354,2903.266747399699,None,,,NC21,001,2021_Nov_08_1525,ProdSingRedo,3.2.3,59.94995376043702,
,,,,125,0,125,0,,,,,,,,,,,,,,,,,,,,,,,,2907.0683161998168,None,,,,,,,,,,,,,,,,,position,new_c,white,125,155,229,2904.8011411000043,None,2904.8011411000043,None,3,1.5134546998888254,2904.8011411000043,None,2906.3677230998874,None,2906.882556399796,None,2906.882556399796,None,f,0.15211170027032495,2906.882556399796,None,,,NC21,001,2021_Nov_08_1525,ProdSingRedo,3.2.3,59.94995376043702,
,,,,126,0,126,0,,,,,,,,,,,,,,,,,,,,,,,,2910.136868099682,None,,,,,,,,,,,,,,,,,trail,aloud,white,126,43,336,2907.5941764996387,None,2907.5941764996387,None,4,1.9205427002161741,2907.5941764996387,None,2909.5530470996164,None,2910.072234199848,None,2910.072234199848,None,f,0.03417620016261935,2910.072234199848,None,,,NC21,001,2021_Nov_08_1525,ProdSingRedo,3.2.3,59.94995376043702,
,,,,127,0,127,0,,,,,,,,,,,,,,,,,,,,,,,,2913.112495899666,None,,,,,,,,,,,,,,,,,portion,sing,white,127,21,228,2910.6594962999225,None,2910.6594962999225,None,2,1.583117900416255,2910.6594962999225,None,2912.280153799802,None,2912.789085599594,None,2912.789085599594,None,f,0.28544639982283115,2912.789085599594,None,,,NC21,001,2021_Nov_08_1525,ProdSingRedo,3.2.3,59.94995376043702,
,,,,128,0,128,0,,,,,,,,,,,,,,,,,,,,,,,,2916.9438636996783,None,,,,,,,,,,,,,,,,,government,new_a,white,128,118,139,2913.638586799614,None,2913.638586799614,None,1,1.93196459999308,2913.638586799614,None,2915.6085129999556,None,2916.115285899956,None,2916.115285899956,None,n,0.7993274996988475,2916.115285899956,None,,,NC21,001,2021_Nov_08_1525,ProdSingRedo,3.2.3,59.94995376043702,
,,,,129,0,129,0,,,,,,,,,,,,,,,,,,,,,,,,2920.9002502998337,None,,,,,,,,,,,,,,,,,welcome,silent,white,129,66,354,2917.466844999697,None,2917.466844999697,None,4,1.9277030997909606,2917.466844999697,None,2919.4428427997045,None,2919.965020899661,None,2919.965020899661,None,f,0.9095478998497128,2919.965020899661,None,,,NC21,001,2021_Nov_08_1525,ProdSingRedo,3.2.3,59.94995376043702,
,,,,130,0,130,0,,,,,,,,,,,,,,,,,,,,,,,,2923.716565199662,None,,,,,,,,,,,,,,,,,institute,sing,white,130,16,162,2921.4263464999385,None,2921.4263464999385,None,4,1.5521859000436962,2921.4263464999385,None,2923.0149406995624,None,2923.522554199677,None,2923.522554199677,None,f,0.16016830038279295,2923.522554199677,None,,,NC21,001,2021_Nov_08_1525,ProdSingRedo,3.2.3,59.94995376043702,
,,,,131,0,131,0,,,,,,,,,,,,,,,,,,,,,,,,2927.354971899651,None,,,,,,,,,,,,,,,,,beauty,aloud,white,131,52,18,2924.2441806998104,None,2924.2441806998104,None,5,2.366473800037056,2924.2441806998104,None,2926.652301899623,None,2927.179862299934,None,2927.179862299934,None,f,0.14284129999578,2927.179862299934,None,,,NC21,001,2021_Nov_08_1525,ProdSingRedo,3.2.3,59.94995376043702,
,,,,132,0,132,0,,,,,,,,,,,,,,,,,,,,,,,,2929.9412084999494,None,,,,,,,,,,,,,,,,,minute,silent,white,132,70,192,2927.87945989985,None,2927.87945989985,None,1,1.1071798000484705,2927.87945989985,None,2929.0381572996266,None,2929.558102999814,None,2929.558102999814,None,n,0.35663860011845827,2929.558102999814,None,,,NC21,001,2021_Nov_08_1525,ProdSingRedo,3.2.3,59.94995376043702,
,,,,133,0,133,0,,,,,,,,,,,,,,,,,,,,,,,,2933.760773099959,None,,,,,,,,,,,,,,,,,emergency,aloud,white,133,40,110,2930.4719713996165,None,2930.4719713996165,None,1,1.9305928000248969,2930.4719713996165,None,2932.4463346996345,None,2932.9661635998636,None,2932.9661635998636,None,n,0.7643745001405478,2932.9661635998636,None,,,NC21,001,2021_Nov_08_1525,ProdSingRedo,3.2.3,59.94995376043702,
,,,,134,0,134,0,,,,,,,,,,,,,,,,,,,,,,,,2936.4115282995626,None,,,,,,,,,,,,,,,,,region,new_c,white,134,163,256,2934.2881254996173,None,2934.2881254996173,None,1,1.482587399892509,2934.2881254996173,None,2935.813586599659,None,2936.332587099634,None,2936.332587099634,None,n,0.04587579984217882,2936.332587099634,None,,,NC21,001,2021_Nov_08_1525,ProdSingRedo,3.2.3,59.94995376043702,
,,,,135,0,135,0,,,,,,,,,,,,,,,,,,,,,,,,2940.147556899581,None,,,,,,,,,,,,,,,,,literature,silent,white,135,81,173,2936.939841499552,None,2936.939841499552,None,3,1.3908521998673677,2936.939841499552,None,2938.384746799711,None,2938.9064874998294,None,2938.9064874998294,None,f,1.2082368000410497,2938.9064874998294,None,,,NC21,001,2021_Nov_08_1525,ProdSingRedo,3.2.3,59.94995376043702,
,,,,136,0,136,0,,,,,,,,,,,,,,,,,,,,,,,,2943.7538843997754,None,,,,,,,,,,,,,,,,,session,new_c,white,136,173,281,2940.671898199711,None,2940.671898199711,None,2,2.459036899730563,2940.671898199711,None,2943.1660904996097,None,2943.6869226996787,None,2943.6869226996787,None,f,0.03597259987145662,2943.6869226996787,None,,,NC21,001,2021_Nov_08_1525,ProdSingRedo,3.2.3,59.94995376043702,
,,,,137,0,137,0,,,,,,,,,,,,,,,,,,,,,,,,2947.0347599997185,None,,,,,,,,,,,,,,,,,detective,new_b,white,137,132,92,2944.282606099732,None,2944.282606099732,None,2,2.1682643997482955,2944.282606099732,None,2946.4897956997156,None,2947.0103552998044,None,2947.0103552998044,None,f,0.008000900037586689,2947.0103552998044,None,,,NC21,001,2021_Nov_08_1525,ProdSingRedo,3.2.3,59.94995376043702,
,,,,138,0,138,0,,,,,,,,,,,,,,,,,,,,,,,,2950.2613857998513,None,,,,,,,,,,,,,,,,,suspect,new_c,white,138,169,318,2947.552258899901,None,2947.552258899901,None,1,1.8346604001708329,2947.552258899901,None,2949.422124199569,None,2949.945903599728,None,2949.945903599728,None,n,0.28878580033779144,2949.945903599728,None,,,NC21,001,2021_Nov_08_1525,ProdSingRedo,3.2.3,59.94995376043702,
,,,,139,0,139,0,,,,,,,,,,,,,,,,,,,,,,,,2953.780938099604,None,,,,,,,,,,,,,,,,,problem,silent,white,139,68,238,2950.7898991997354,None,2950.7898991997354,None,3,1.5003484999760985,2950.7898991997354,None,2952.3063435996883,None,2952.806348499842,None,2952.806348499842,None,f,0.9403456002473831,2952.806348499842,None,,,NC21,001,2021_Nov_08_1525,ProdSingRedo,3.2.3,59.94995376043702,
,,,,140,0,140,0,,,,,,,,,,,,,,,,,,,,,,,,2956.3509061997756,None,,,,,,,,,,,,,,,,,series,new_c,white,140,176,279,2954.3038191995583,None,2954.3038191995583,None,1,1.3308834000490606,2954.3038191995583,None,2955.678144400008,None,2956.1989227999,None,2956.1989227999,None,n,0.12376089999452233,2956.1989227999,None,,,NC21,001,2021_Nov_08_1525,ProdSingRedo,3.2.3,59.94995376043702,
,,,,141,0,141,0,,,,,,,,,,,,,,,,,,,,,,,,2959.301925199572,None,,,,,,,,,,,,,,,,,enemy,new_b,white,141,146,113,2956.876601399854,None,2956.876601399854,None,2,1.67826890014112,2956.876601399854,None,2958.5998140997253,None,2959.12138349982,None,2959.12138349982,None,f,0.14528769999742508,2959.12138349982,None,,,NC21,001,2021_Nov_08_1525,ProdSingRedo,3.2.3,59.94995376043702,
,,,,142,0,142,0,,,,,,,,,,,,,,,,,,,,,,,,2963.5906798997894,None,,,,,,,,,,,,,,,,,sleep,new_a,white,142,97,290,2959.8232686999254,None,2959.8232686999254,None,4,2.355464800260961,2959.8232686999254,None,2962.2186032999307,None,2962.7391830999404,None,2962.7391830999404,None,f,0.8235128000378609,2962.7391830999404,None,,,NC21,001,2021_Nov_08_1525,ProdSingRedo,3.2.3,59.94995376043702,
,,,,143,0,143,0,,,,,,,,,,,,,,,,,,,,,,,,2966.19330169959,None,,,,,,,,,,,,,,,,,crisis,new_c,white,143,170,79,2964.111596299801,None,2964.111596299801,None,2,1.3470313004218042,2964.111596299801,None,2965.502347599715,None,2966.0084184999578,None,2966.0084184999578,None,f,0.14616400003433228,2966.0084184999578,None,,,NC21,001,2021_Nov_08_1525,ProdSingRedo,3.2.3,59.94995376043702,
,,,,144,0,144,0,,,,,,,,,,,,,,,,,,,,,,,,2970.1814981997013,None,,,,,,,,,,,,,,,,,suggestion,new_a,white,144,90,314,2966.722022299655,None,2966.722022299655,None,2,2.0007507000118494,2966.722022299655,None,2968.768060299568,None,2969.2877495996654,None,2969.2877495996654,None,f,0.8670797999948263,2969.2877495996654,None,,,NC21,001,2021_Nov_08_1525,ProdSingRedo,3.2.3,59.94995376043702,
,,,,145,0,145,0,,,,,,,,,,,,,,,,,,,,,,,,2973.835135499947,None,,,,,,,,,,,,,,,,,discussion,aloud,white,145,57,96,2970.71005409956,None,2970.71005409956,None,2,1.684551099780947,2970.71005409956,None,2972.4495263998397,None,2972.9710233998485,None,2972.9710233998485,None,f,0.8317024996504188,2972.9710233998485,None,,,NC21,001,2021_Nov_08_1525,ProdSingRedo,3.2.3,59.94995376043702,
,,,,146,0,146,0,,,,,,,,,,,,,,,,,,,,,,,,2978.1216184999794,None,,,,,,,,,,,,,,,,,season,new_a,white,146,114,277,2974.3617777996697,None,2974.3617777996697,None,3,2.456935199908912,2974.3617777996697,None,2976.8696088995785,None,2977.3920163000003,None,2977.3920163000003,None,f,0.6986380000598729,2977.3920163000003,None,,,NC21,001,2021_Nov_08_1525,ProdSingRedo,3.2.3,59.94995376043702,
,,,,147,0,147,0,,,,,,,,,,,,,,,,,,,,,,,,2981.441187599674,None,,,,,,,,,,,,,,,,,capital,new_a,white,147,98,40,2978.649607299827,None,2978.649607299827,None,1,1.8730902001261711,2978.649607299827,None,2980.5763689996675,None,2981.098835799843,None,2981.098835799843,None,n,0.31181830028072,2981.098835799843,None,,,NC21,001,2021_Nov_08_1525,ProdSingRedo,3.2.3,59.94995376043702,
,,,,148,0,148,0,,,,,,,,,,,,,,,,,,,,,,,,2984.094662899617,None,,,,,,,,,,,,,,,,,place,new_a,white,148,95,222,2981.965544299688,None,2981.965544299688,None,2,1.4291186002083123,2981.965544299688,None,2983.438468299806,None,2983.9460572996177,None,2983.9460572996177,None,f,0.11271200003102422,2983.9460572996177,None,,,NC21,001,2021_Nov_08_1525,ProdSingRedo,3.2.3,59.94995376043702,
,,,,149,0,149,0,,,,,,,,,,,,,,,,,,,,,,,,2986.9294935995713,None,,,,,,,,,,,,,,,,,bucket,aloud,white,149,58,33,2984.6259925998747,None,2984.6259925998747,None,1,1.3688592999242246,2984.6259925998747,None,2986.047567299567,None,2986.5701285996474,None,2986.5701285996474,None,n,0.3364574001170695,2986.5701285996474,None,,,NC21,001,2021_Nov_08_1525,ProdSingRedo,3.2.3,59.94995376043702,
,,,,150,0,150,0,,,,,,,,,,,,,,,,,,,,,,,,2990.1837455998175,None,,,,,,,,,,,,,,,,,heavy,new_b,white,150,120,151,2987.4542345996015,None,2987.4542345996015,None,3,2.044363500084728,2987.4542345996015,None,2989.5486189997755,None,2990.053351499606,None,2990.053351499606,None,f,0.10132400039583445,2990.053351499606,None,,,NC21,001,2021_Nov_08_1525,ProdSingRedo,3.2.3,59.94995376043702,
,,,,151,0,151,0,,,,,,,,,,,,,,,,,,,,,,,,2993.337745099794,None,,,,,,,,,,,,,,,,,interior,aloud,white,151,46,164,2990.7076502996497,None,2990.7076502996497,None,2,1.9350507999770343,2990.7076502996497,None,2992.678310499992,None,2993.1845941999927,None,2993.1845941999927,None,f,0.1300463997758925,2993.1845941999927,None,,,NC21,001,2021_Nov_08_1525,ProdSingRedo,3.2.3,59.94995376043702,
,,,,152,0,152,0,,,,,,,,,,,,,,,,,,,,,,,,2996.6405070996843,None,,,,,,,,,,,,,,,,,present,new_a,white,152,110,231,2993.860796699766,None,2993.860796699766,None,3,1.8299188995733857,2993.860796699766,None,2995.733516599983,None,2996.239781399723,None,2996.239781399723,None,n,0.36293060006573796,2996.239781399723,None,,,NC21,001,2021_Nov_08_1525,ProdSingRedo,3.2.3,59.94995376043702,
,,,,153,0,153,0,,,,,,,,,,,,,,,,,,,,,,,,2999.575504299719,None,,,,,,,,,,,,,,,,,store,silent,white,153,69,305,2997.1631624000147,None,2997.1631624000147,None,1,1.4794827001169324,2997.1631624000147,None,2998.6876152995974,None,2999.2083586999215,None,2999.2083586999215,None,n,0.33049550000578165,2999.2083586999215,None,,,NC21,001,2021_Nov_08_1525,ProdSingRedo,3.2.3,59.94995376043702,
,,,,154,0,154,0,,,,,,,,,,,,,,,,,,,,,,,,3002.343082399573,None,,,,,,,,,,,,,,,,,dozen,sing,white,154,25,102,3000.104831099976,None,3000.104831099976,None,3,1.6018643002025783,3000.104831099976,None,3001.7405272996984,None,3002.2641793997027,None,3002.2641793997027,None,f,0.05029459996148944,3002.2641793997027,None,,,NC21,001,2021_Nov_08_1525,ProdSingRedo,3.2.3,59.94995376043702,
,,,,155,0,155,0,,,,,,,,,,,,,,,,,,,,,,,,3005.1987232998945,None,,,,,,,,,,,,,,,,,owner,new_c,white,155,150,208,3002.869626699947,None,3002.869626699947,None,1,1.253065999597311,3002.869626699947,None,3004.162355999928,None,3004.6831936999224,None,3004.6831936999224,None,n,0.48752189986407757,3004.6831936999224,None,,,NC21,001,2021_Nov_08_1525,ProdSingRedo,3.2.3,59.94995376043702,
,,,,156,0,156,0,,,,,,,,,,,,,,,,,,,,,,,,3008.352867299691,None,,,,,,,,,,,,,,,,,disease,sing,white,156,5,97,3005.722911999561,None,3005.722911999561,None,1,1.583784599788487,3005.722911999561,None,3007.3470607995987,None,3007.8547247997485,None,3007.8547247997485,None,n,0.467994200065732,3007.8547247997485,None,,,NC21,001,2021_Nov_08_1525,ProdSingRedo,3.2.3,59.94995376043702,
,,,,157,0,157,0,,,,,,,,,,,,,,,,,,,,,,,,3011.6722303996794,None,,,,,,,,,,,,,,,,,appeal,aloud,white,157,41,9,3008.8775286995806,None,3008.8775286995806,None,2,2.125259599648416,3008.8775286995806,None,3011.054959299974,None,3011.574990199879,None,3011.574990199879,None,f,0.07567329984158278,3011.574990199879,None,,,NC21,001,2021_Nov_08_1525,ProdSingRedo,3.2.3,59.94995376043702,
,,,,158,0,158,0,,,,,,,,,,,,,,,,,,,,,,,,3015.3881349996664,None,,,,,,,,,,,,,,,,,clean,sing,white,158,6,51,3012.1992682996206,None,3012.1992682996206,None,3,1.699382200371474,3012.1992682996206,None,3013.9506522999145,None,3014.4713969998993,None,3014.4713969998993,None,f,0.8752276999875903,3014.4713969998993,None,,,NC21,001,2021_Nov_08_1525,ProdSingRedo,3.2.3,59.94995376043702,
,,,,159,0,159,0,,,,,,,,,,,,,,,,,,,,,,,,3019.996871399693,None,,,,,,,,,,,,,,,,,degree,new_c,white,159,153,89,3015.9109898000024,None,3015.9109898000024,None,4,2.795686200261116,3015.9109898000024,None,3018.747062599752,None,3019.263420099858,None,3019.263420099858,None,f,0.7073107003234327,3019.263420099858,None,,,NC21,001,2021_Nov_08_1525,ProdSingRedo,3.2.3,59.94995376043702,
,,,,160,0,160,0,,,,,,,,,,,,,,,,,,,,,,,,3024.2826207997277,None,,,,,,,,,,,,,,,,,build,new_a,white,160,106,35,3020.522217599675,None,3020.522217599675,None,4,3.144467799924314,3020.522217599675,None,3023.7171276998706,None,3024.2211360000074,None,3024.2211360000074,None,f,0.03736760001629591,3024.2211360000074,None,,,NC21,001,2021_Nov_08_1525,ProdSingRedo,3.2.3,59.94995376043702,
,,,,161,0,161,0,,,,,,,,,,,,,,,,,,,,,,,,3027.6376410997473,None,,,,,,,,,,,,,,,,,incident,new_a,white,161,109,158,3024.8054020996206,None,3024.8054020996206,None,1,1.9494373998604715,3024.8054020996206,None,3026.7991173998453,None,3027.319265599828,None,3027.319265599828,None,n,0.29145359992980957,3027.319265599828,None,,,NC21,001,2021_Nov_08_1525,ProdSingRedo,3.2.3,59.94995376043702,
,,,,162,0,162,0,,,,,,,,,,,,,,,,,,,,,,,,3030.992167599965,None,,,,,,,,,,,,,,,,,testimony,aloud,white,162,38,325,3028.1622210997157,None,3028.1622210997157,None,3,1.4485304998233914,3028.1622210997157,None,3029.6542034996673,None,3030.160107899923,None,3030.160107899923,None,f,0.8025505002588034,3030.160107899923,None,,,NC21,001,2021_Nov_08_1525,ProdSingRedo,3.2.3,59.94995376043702,
,,,,163,0,163,0,,,,,,,,,,,,,,,,,,,,,,,,3034.311205699574,None,,,,,,,,,,,,,,,,,hunger,silent,white,163,88,155,3031.5236471998505,None,3031.5236471998505,None,6,2.031130200251937,3031.5236471998505,None,3033.5806640000083,None,3034.0998656996526,None,3034.0998656996526,None,r,0.18278060015290976,3034.0998656996526,None,,,NC21,001,2021_Nov_08_1525,ProdSingRedo,3.2.3,59.94995376043702,
,,,,164,0,164,0,,,,,,,,,,,,,,,,,,,,,,,,3038.398949599825,None,,,,,,,,,,,,,,,,,thing,new_c,white,164,154,328,3034.8337530000135,None,3034.8337530000135,None,4,2.841033899690956,3034.8337530000135,None,3037.7118803998455,None,3038.216621399857,None,3038.216621399857,None,f,0.15408279979601502,3038.216621399857,None,,,NC21,001,2021_Nov_08_1525,ProdSingRedo,3.2.3,59.94995376043702,
,,,,165,0,165,0,,,,,,,,,,,,,,,,,,,,,,,,3043.2034048996866,None,,,,,,,,,,,,,,,,,group,new_a,white,165,99,143,3038.9268592996523,None,3038.9268592996523,None,5,3.0438885004259646,3038.9268592996523,None,3042.0192296998575,None,3042.5240634996444,None,3042.5240634996444,None,f,0.654708500020206,3042.5240634996444,None,,,NC21,001,2021_Nov_08_1525,ProdSingRedo,3.2.3,59.94995376043702,
,,,,166,0,166,0,,,,,,,,,,,,,,,,,,,,,,,,3046.00565369986,None,,,,,,,,,,,,,,,,,track,aloud,white,166,49,334,3043.7342349998653,None,3043.7342349998653,None,2,1.5245151999406517,3043.7342349998653,None,3045.3002566997893,None,3045.812939199619,None,3045.812939199619,None,f,0.16574009973555803,3045.812939199619,None,,,NC21,001,2021_Nov_08_1525,ProdSingRedo,3.2.3,59.94995376043702,
,,,,167,0,167,0,,,,,,,,,,,,,,,,,,,,,,,,3048.859037099872,None,,,,,,,,,,,,,,,,,escape,sing,white,167,7,118,3046.531862599775,None,3046.531862599775,None,3,1.1108809001743793,3046.531862599775,None,3047.691556699574,None,3048.2129253996536,None,3048.2129253996536,None,f,0.6217599003575742,3048.2129253996536,None,,,NC21,001,2021_Nov_08_1525,ProdSingRedo,3.2.3,59.94995376043702,
,,,,168,0,168,0,,,,,,,,,,,,,,,,,,,,,,,,3052.7973454999737,None,,,,,,,,,,,,,,,,,second,new_b,white,168,135,278,3049.3820472997613,None,3049.3820472997613,None,1,1.2926984000951052,3049.3820472997613,None,3050.720701399725,None,3051.2211593999527,None,3051.2211593999527,None,n,1.549666800070554,3051.2211593999527,None,,,NC21,001,2021_Nov_08_1525,ProdSingRedo,3.2.3,59.94995376043702,
,,,,169,0,169,0,,,,,,,,,,,,,,,,,,,,,,,,3055.6990258996375,None,,,,,,,,,,,,,,,,,curve,new_b,white,169,123,82,3053.3274170998484,None,3053.3274170998484,None,1,1.4832917996682227,3053.3274170998484,None,3054.866090399679,None,3055.3886025999673,None,3055.3886025999673,None,n,0.2861138000153005,3055.3886025999673,None,,,NC21,001,2021_Nov_08_1525,ProdSingRedo,3.2.3,59.94995376043702,
,,,,170,0,170,0,,,,,,,,,,,,,,,,,,,,,,,,3058.4837354999036,None,,,,,,,,,,,,,,,,,mankind,new_c,white,170,164,178,3056.230590199586,None,3056.230590199586,None,1,1.4521806999109685,3056.230590199586,None,3057.7373724998906,None,3058.2433364996687,None,3058.2433364996687,None,n,0.2073391997255385,3058.2433364996687,None,,,NC21,001,2021_Nov_08_1525,ProdSingRedo,3.2.3,59.94995376043702,
,,,,171,0,171,0,,,,,,,,,,,,,,,,,,,,,,,,3061.273616499733,None,,,,,,,,,,,,,,,,,candidate,aloud,white,171,51,39,3059.01316079963,None,3059.01316079963,None,2,1.4375650002621114,3059.01316079963,None,3060.50592629984,None,3061.027800999582,None,3061.027800999582,None,f,0.20700829988345504,3061.027800999582,None,,,NC21,001,2021_Nov_08_1525,ProdSingRedo,3.2.3,59.94995376043702,
,,,,172,0,172,0,,,,,,,,,,,,,,,,,,,,,,,,3063.906572399661,None,,,,,,,,,,,,,,,,,expansion,sing,white,172,13,123,3061.7993159997277,None,3061.7993159997277,None,2,1.35550170019269,3061.7993159997277,None,3063.206908899825,None,3063.7317803995684,None,3063.7317803995684,None,f,0.14281779993325472,3063.7317803995684,None,,,NC21,001,2021_Nov_08_1525,ProdSingRedo,3.2.3,59.94995376043702,
,,,,173,0,173,0,,,,,,,,,,,,,,,,,,,,,,,,3066.6628107996657,None,,,,,,,,,,,,,,,,,light,silent,white,173,84,171,3064.432428699918,None,3064.432428699918,None,3,1.522250899579376,3064.432428699918,None,3066.0028645996936,None,3066.5149583998136,None,3066.5149583998136,None,f,0.11179429991170764,3066.5149583998136,None,,,NC21,001,2021_Nov_08_1525,ProdSingRedo,3.2.3,59.94995376043702,
,,,,174,0,174,0,,,,,,,,,,,,,,,,,,,,,,,,3069.89636949962,None,,,,,,,,,,,,,,,,,murder,new_a,white,174,105,195,3067.188943099696,None,3067.188943099696,None,1,1.7098745997063816,3067.188943099696,None,3068.940434999764,None,3069.4508411996067,None,3069.4508411996067,None,n,0.4000023999251425,3069.4508411996067,None,,,NC21,001,2021_Nov_08_1525,ProdSingRedo,3.2.3,59.94995376043702,
,,,,175,0,175,0,,,,,,,,,,,,,,,,,,,,,,,,3073.8359756995924,None,,,,,,,,,,,,,,,,,orchestra,new_b,white,175,145,206,3070.423981299624,None,3070.423981299624,None,1,1.7388223996385932,3070.423981299624,None,3072.215276299976,None,3072.741438099649,None,3072.741438099649,None,n,1.0614177999086678,3072.741438099649,None,,,NC21,001,2021_Nov_08_1525,ProdSingRedo,3.2.3,59.94995376043702,
,,,,176,0,176,0,,,,,,,,,,,,,,,,,,,,,,,,3077.2471758998,None,,,,,,,,,,,,,,,,,drove,new_b,white,176,128,106,3074.3584354999475,None,3074.3584354999475,None,3,1.64398830011487,3074.3584354999475,None,3076.0351084996946,None,3076.5481154997833,None,3076.5481154997833,None,f,0.6784091996960342,3076.5481154997833,None,,,NC21,001,2021_Nov_08_1525,ProdSingRedo,3.2.3,59.94995376043702,
,,,,177,0,177,0,,,,,,,,,,,,,,,,,,,,,,,,3080.3398042996414,None,,,,,,,,,,,,,,,,,bright,new_a,white,177,102,29,3077.772603899706,None,3077.772603899706,None,2,1.8141271001659334,3077.772603899706,None,3079.641318799928,None,3080.1457455996424,None,3080.1457455996424,None,f,0.16098760021850467,3080.1457455996424,None,,,NC21,001,2021_Nov_08_1525,ProdSingRedo,3.2.3,59.94995376043702,
,,,,178,0,178,0,,,,,,,,,,,,,,,,,,,,,,,,3083.409591899719,None,,,,,,,,,,,,,,,,,appearance,new_a,white,178,116,10,3080.869784999639,None,3080.869784999639,None,4,1.8610115996561944,3080.869784999639,None,3082.7751456997357,None,3083.301404199563,None,3083.301404199563,None,f,0.0853201998397708,3083.301404199563,None,,,NC21,001,2021_Nov_08_1525,ProdSingRedo,3.2.3,59.94995376043702,
,,,,179,0,179,0,,,,,,,,,,,,,,,,,,,,,,,,3086.7134794997983,None,,,,,,,,,,,,,,,,,graduate,sing,white,179,23,141,3083.9362740996294,None,3083.9362740996294,None,6,1.44262359989807,3083.9362740996294,None,3085.432043499779,None,3085.951902099885,None,3085.951902099885,None,f,0.7389965001493692,3085.951902099885,None,,,NC21,001,2021_Nov_08_1525,ProdSingRedo,3.2.3,59.94995376043702,
,,,,,,,,,,,,,,,,,,,,,,,,,,,,,,,,,,,,,,,,,,,,,,,,,,,,,,,,,,,,,,,,,,,,,,,,,3087.227732899599,None,,,,,,,
