StudyLoop.thisRepN,StudyLoop.thisTrialN,StudyLoop.thisN,StudyLoop.thisIndex,TestLoop.thisRepN,TestLoop.thisTrialN,TestLoop.thisN,TestLoop.thisIndex,textCondition.started,textCondition.stopped,keyCondition.keys,keyCondition.rt,keyCondition.started,keyCondition.stopped,Condition,stim_colors,color_sing,color_aloud,color_silent,textWelcome.started,textWelcome.stopped,keyWelcome.keys,keyWelcome.rt,keyWelcome.started,keyWelcome.stopped,textAloud.started,textAloud.stopped,textSilent.started,textSilent.stopped,textSing.started,textSing.stopped,textBlank500.started,textBlank500.stopped,study_word,study_type,study_color,study_num,study_word_num,textStudy.started,textStudy.stopped,keyStudy.keys,keyStudy.started,keyStudy.stopped,textTestInstructions.started,textTestInstructions.stopped,key_resp_3.keys,key_resp_3.rt,key_resp_3.started,key_resp_3.stopped,testWord,testType,testColor,testN,test_num,test_word_num,textConf.started,textConf.stopped,textConfScale.started,textConfScale.stopped,keyConf.keys,keyConf.rt,keyConf.started,keyConf.stopped,textTestBlank.started,textTestBlank.stopped,textRKN.started,textRKN.stopped,textRKNScale.started,textRKNScale.stopped,keyRKN.keys,keyRKN.rt,keyRKN.started,keyRKN.stopped,textEnd.started,textEnd.stopped,participant,session,date,expName,psychopyVersion,frameRate,
,,,,,,,,27.02434920007363,None,n,1.2183608002960682,27.02434920007363,None,,,,,,,,,,,,,,,,,,,,,,,,,,,,,,,,,,,,,,,,,,,,,,,,,,,,,,,,,,,,,,NC22,001,2021_Nov_08_1619,ProdSingRedo,3.2.3,59.9407904410774,
,,,,,,,,,,,,,,NeutralTest,"['blue', 'yellow', 'red']",blue,yellow,red,28.309084000065923,None,space,502.8619864000939,28.309084000065923,None,,,,,,,,,,,,,,,,,,,,,,,,,,,,,,,,,,,,,,,,,,,,,,,,,,,NC22,001,2021_Nov_08_1619,ProdSingRedo,3.2.3,59.9407904410774,
0,0,0,0,,,,,,,,,,,,,,,,,,,,,,28.309084000065923,None,28.309084000065923,None,28.309084000065923,None,533.7076197001152,None,weather,aloud,yellow,43,352,531.7047708001919,None,None,531.7047708001919,None,,,,,,,,,,,,,,,,,,,,,,,,,,,,,,,,,NC22,001,2021_Nov_08_1619,ProdSingRedo,3.2.3,59.9407904410774,
1,0,1,0,,,,,,,,,,,,,,,,,,,,,,,,,,,,536.226809900254,None,second,sing,blue,14,278,534.2146208002232,None,None,534.2146208002232,None,,,,,,,,,,,,,,,,,,,,,,,,,,,,,,,,,NC22,001,2021_Nov_08_1619,ProdSingRedo,3.2.3,59.9407904410774,
2,0,2,0,,,,,,,,,,,,,,,,,,,,,,,,,,,,538.745870300103,None,detective,aloud,yellow,31,92,536.7440543002449,None,None,536.7440543002449,None,,,,,,,,,,,,,,,,,,,,,,,,,,,,,,,,,NC22,001,2021_Nov_08_1619,ProdSingRedo,3.2.3,59.9407904410774,
3,0,3,0,,,,,,,,,,,,,,,,,,,,,,,,,,,,541.2481313003227,None,beauty,sing,blue,27,18,539.2648917003535,None,None,539.2648917003535,None,,,,,,,,,,,,,,,,,,,,,,,,,,,,,,,,,NC22,001,2021_Nov_08_1619,ProdSingRedo,3.2.3,59.9407904410774,
4,0,4,0,,,,,,,,,,,,,,,,,,,,,,,,,,,,543.7676854999736,None,problem,sing,blue,10,238,541.7601417000405,None,None,541.7601417000405,None,,,,,,,,,,,,,,,,,,,,,,,,,,,,,,,,,NC22,001,2021_Nov_08_1619,ProdSingRedo,3.2.3,59.9407904410774,
5,0,5,0,,,,,,,,,,,,,,,,,,,,,,,,,,,,546.2865384002216,None,spoke,sing,blue,12,300,544.2783524999395,None,None,544.2783524999395,None,,,,,,,,,,,,,,,,,,,,,,,,,,,,,,,,,NC22,001,2021_Nov_08_1619,ProdSingRedo,3.2.3,59.9407904410774,
6,0,6,0,,,,,,,,,,,,,,,,,,,,,,,,,,,,548.8060933002271,None,scene,aloud,yellow,48,273,546.7929273000918,None,None,546.7929273000918,None,,,,,,,,,,,,,,,,,,,,,,,,,,,,,,,,,NC22,001,2021_Nov_08_1619,ProdSingRedo,3.2.3,59.9407904410774,
7,0,7,0,,,,,,,,,,,,,,,,,,,,,,,,,,,,551.3252317002043,None,burden,silent,red,71,36,549.3202899000607,None,None,549.3202899000607,None,,,,,,,,,,,,,,,,,,,,,,,,,,,,,,,,,NC22,001,2021_Nov_08_1619,ProdSingRedo,3.2.3,59.9407904410774,
8,0,8,0,,,,,,,,,,,,,,,,,,,,,,,,,,,,553.844462600071,None,substance,sing,blue,13,313,551.8394879000261,None,None,551.8394879000261,None,,,,,,,,,,,,,,,,,,,,,,,,,,,,,,,,,NC22,001,2021_Nov_08_1619,ProdSingRedo,3.2.3,59.9407904410774,
9,0,9,0,,,,,,,,,,,,,,,,,,,,,,,,,,,,556.3636011001654,None,brilliant,sing,blue,28,30,554.3610003003851,None,None,554.3610003003851,None,,,,,,,,,,,,,,,,,,,,,,,,,,,,,,,,,NC22,001,2021_Nov_08_1619,ProdSingRedo,3.2.3,59.9407904410774,
10,0,10,0,,,,,,,,,,,,,,,,,,,,,,,,,,,,558.88282170007,None,tough,aloud,yellow,36,333,556.8738648002036,None,None,556.8738648002036,None,,,,,,,,,,,,,,,,,,,,,,,,,,,,,,,,,NC22,001,2021_Nov_08_1619,ProdSingRedo,3.2.3,59.9407904410774,
11,0,11,0,,,,,,,,,,,,,,,,,,,,,,,,,,,,561.401996999979,None,division,sing,blue,23,101,559.3973969002254,None,None,559.3973969002254,None,,,,,,,,,,,,,,,,,,,,,,,,,,,,,,,,,NC22,001,2021_Nov_08_1619,ProdSingRedo,3.2.3,59.9407904410774,
12,0,12,0,,,,,,,,,,,,,,,,,,,,,,,,,,,,563.921197600197,None,disease,aloud,yellow,51,97,561.9145780000836,None,None,561.9145780000836,None,,,,,,,,,,,,,,,,,,,,,,,,,,,,,,,,,NC22,001,2021_Nov_08_1619,ProdSingRedo,3.2.3,59.9407904410774,
13,0,13,0,,,,,,,,,,,,,,,,,,,,,,,,,,,,566.4402931001969,None,region,aloud,yellow,32,256,564.4343805001117,None,None,564.4343805001117,None,,,,,,,,,,,,,,,,,,,,,,,,,,,,,,,,,NC22,001,2021_Nov_08_1619,ProdSingRedo,3.2.3,59.9407904410774,
14,0,14,0,,,,,,,,,,,,,,,,,,,,,,,,,,,,568.9595858999528,None,safety,silent,red,89,270,566.9536775001325,None,None,566.9536775001325,None,,,,,,,,,,,,,,,,,,,,,,,,,,,,,,,,,NC22,001,2021_Nov_08_1619,ProdSingRedo,3.2.3,59.9407904410774,
15,0,15,0,,,,,,,,,,,,,,,,,,,,,,,,,,,,571.4787265001796,None,relation,silent,red,73,257,569.4723114999942,None,None,569.4723114999942,None,,,,,,,,,,,,,,,,,,,,,,,,,,,,,,,,,NC22,001,2021_Nov_08_1619,ProdSingRedo,3.2.3,59.9407904410774,
16,0,16,0,,,,,,,,,,,,,,,,,,,,,,,,,,,,573.9980232003145,None,little,silent,red,70,174,571.9877649000846,None,None,571.9877649000846,None,,,,,,,,,,,,,,,,,,,,,,,,,,,,,,,,,NC22,001,2021_Nov_08_1619,ProdSingRedo,3.2.3,59.9407904410774,
17,0,17,0,,,,,,,,,,,,,,,,,,,,,,,,,,,,576.5170126003213,None,straight,aloud,yellow,55,307,574.5137350000441,None,None,574.5137350000441,None,,,,,,,,,,,,,,,,,,,,,,,,,,,,,,,,,NC22,001,2021_Nov_08_1619,ProdSingRedo,3.2.3,59.9407904410774,
18,0,18,0,,,,,,,,,,,,,,,,,,,,,,,,,,,,579.0363124003634,None,contract,sing,blue,5,68,577.029821400065,None,None,577.029821400065,None,,,,,,,,,,,,,,,,,,,,,,,,,,,,,,,,,NC22,001,2021_Nov_08_1619,ProdSingRedo,3.2.3,59.9407904410774,
19,0,19,0,,,,,,,,,,,,,,,,,,,,,,,,,,,,581.5553267002106,None,plane,aloud,yellow,34,223,579.5489575001411,None,None,579.5489575001411,None,,,,,,,,,,,,,,,,,,,,,,,,,,,,,,,,,NC22,001,2021_Nov_08_1619,ProdSingRedo,3.2.3,59.9407904410774,
20,0,20,0,,,,,,,,,,,,,,,,,,,,,,,,,,,,584.0747360000387,None,profession,silent,red,88,241,582.0684468001127,None,None,582.0684468001127,None,,,,,,,,,,,,,,,,,,,,,,,,,,,,,,,,,NC22,001,2021_Nov_08_1619,ProdSingRedo,3.2.3,59.9407904410774,
21,0,21,0,,,,,,,,,,,,,,,,,,,,,,,,,,,,586.5938699999824,None,individual,aloud,yellow,39,160,584.5909140002914,None,None,584.5909140002914,None,,,,,,,,,,,,,,,,,,,,,,,,,,,,,,,,,NC22,001,2021_Nov_08_1619,ProdSingRedo,3.2.3,59.9407904410774,
22,0,22,0,,,,,,,,,,,,,,,,,,,,,,,,,,,,589.1130193001591,None,dance,sing,blue,16,84,587.1054792003706,None,None,587.1054792003706,None,,,,,,,,,,,,,,,,,,,,,,,,,,,,,,,,,NC22,001,2021_Nov_08_1619,ProdSingRedo,3.2.3,59.9407904410774,
23,0,23,0,,,,,,,,,,,,,,,,,,,,,,,,,,,,591.6322384001687,None,afternoon,sing,blue,9,3,589.624937100336,None,None,589.624937100336,None,,,,,,,,,,,,,,,,,,,,,,,,,,,,,,,,,NC22,001,2021_Nov_08_1619,ProdSingRedo,3.2.3,59.9407904410774,
24,0,24,0,,,,,,,,,,,,,,,,,,,,,,,,,,,,594.1514529003762,None,master,silent,red,74,180,592.1449100002646,None,None,592.1449100002646,None,,,,,,,,,,,,,,,,,,,,,,,,,,,,,,,,,NC22,001,2021_Nov_08_1619,ProdSingRedo,3.2.3,59.9407904410774,
25,0,25,0,,,,,,,,,,,,,,,,,,,,,,,,,,,,596.6705562002026,None,comedy,aloud,yellow,49,58,594.6641842001118,None,None,594.6641842001118,None,,,,,,,,,,,,,,,,,,,,,,,,,,,,,,,,,NC22,001,2021_Nov_08_1619,ProdSingRedo,3.2.3,59.9407904410774,
26,0,26,0,,,,,,,,,,,,,,,,,,,,,,,,,,,,599.1898008999415,None,people,sing,blue,19,216,597.1786488001235,None,None,597.1786488001235,None,,,,,,,,,,,,,,,,,,,,,,,,,,,,,,,,,NC22,001,2021_Nov_08_1619,ProdSingRedo,3.2.3,59.9407904410774,
27,0,27,0,,,,,,,,,,,,,,,,,,,,,,,,,,,,601.7088868003339,None,meeting,sing,blue,25,187,599.7013378003612,None,None,599.7013378003612,None,,,,,,,,,,,,,,,,,,,,,,,,,,,,,,,,,NC22,001,2021_Nov_08_1619,ProdSingRedo,3.2.3,59.9407904410774,
28,0,28,0,,,,,,,,,,,,,,,,,,,,,,,,,,,,604.2114906003699,None,orchestra,aloud,yellow,54,206,602.2093869000673,None,None,602.2093869000673,None,,,,,,,,,,,,,,,,,,,,,,,,,,,,,,,,,NC22,001,2021_Nov_08_1619,ProdSingRedo,3.2.3,59.9407904410774,
29,0,29,0,,,,,,,,,,,,,,,,,,,,,,,,,,,,606.7305461000651,None,general,silent,red,67,135,604.7250564000569,None,None,604.7250564000569,None,,,,,,,,,,,,,,,,,,,,,,,,,,,,,,,,,NC22,001,2021_Nov_08_1619,ProdSingRedo,3.2.3,59.9407904410774,
30,0,30,0,,,,,,,,,,,,,,,,,,,,,,,,,,,,609.2498709000647,None,smooth,silent,red,76,292,607.2396253999323,None,None,607.2396253999323,None,,,,,,,,,,,,,,,,,,,,,,,,,,,,,,,,,NC22,001,2021_Nov_08_1619,ProdSingRedo,3.2.3,59.9407904410774,
31,0,31,0,,,,,,,,,,,,,,,,,,,,,,,,,,,,611.7689980003051,None,partner,silent,red,65,211,609.7605388001539,None,None,609.7605388001539,None,,,,,,,,,,,,,,,,,,,,,,,,,,,,,,,,,NC22,001,2021_Nov_08_1619,ProdSingRedo,3.2.3,59.9407904410774,
32,0,32,0,,,,,,,,,,,,,,,,,,,,,,,,,,,,614.2881706999615,None,express,silent,red,83,124,612.2783233001828,None,None,612.2783233001828,None,,,,,,,,,,,,,,,,,,,,,,,,,,,,,,,,,NC22,001,2021_Nov_08_1619,ProdSingRedo,3.2.3,59.9407904410774,
33,0,33,0,,,,,,,,,,,,,,,,,,,,,,,,,,,,616.8073677001521,None,judge,sing,blue,26,166,614.8070968003012,None,None,614.8070968003012,None,,,,,,,,,,,,,,,,,,,,,,,,,,,,,,,,,NC22,001,2021_Nov_08_1619,ProdSingRedo,3.2.3,59.9407904410774,
34,0,34,0,,,,,,,,,,,,,,,,,,,,,,,,,,,,619.326538500376,None,congress,sing,blue,17,67,617.3207470001653,None,None,617.3207470001653,None,,,,,,,,,,,,,,,,,,,,,,,,,,,,,,,,,NC22,001,2021_Nov_08_1619,ProdSingRedo,3.2.3,59.9407904410774,
35,0,35,0,,,,,,,,,,,,,,,,,,,,,,,,,,,,621.8458956000395,None,attack,aloud,yellow,37,13,619.8408497003838,None,None,619.8408497003838,None,,,,,,,,,,,,,,,,,,,,,,,,,,,,,,,,,NC22,001,2021_Nov_08_1619,ProdSingRedo,3.2.3,59.9407904410774,
36,0,36,0,,,,,,,,,,,,,,,,,,,,,,,,,,,,624.3649603002705,None,search,sing,blue,6,276,622.3593749003485,None,None,622.3593749003485,None,,,,,,,,,,,,,,,,,,,,,,,,,,,,,,,,,NC22,001,2021_Nov_08_1619,ProdSingRedo,3.2.3,59.9407904410774,
37,0,37,0,,,,,,,,,,,,,,,,,,,,,,,,,,,,626.8674429999664,None,number,silent,red,72,203,624.8672575000674,None,None,624.8672575000674,None,,,,,,,,,,,,,,,,,,,,,,,,,,,,,,,,,NC22,001,2021_Nov_08_1619,ProdSingRedo,3.2.3,59.9407904410774,
38,0,38,0,,,,,,,,,,,,,,,,,,,,,,,,,,,,629.3865917003714,None,court,sing,blue,20,75,627.3781810002401,None,None,627.3781810002401,None,,,,,,,,,,,,,,,,,,,,,,,,,,,,,,,,,NC22,001,2021_Nov_08_1619,ProdSingRedo,3.2.3,59.9407904410774,
39,0,39,0,,,,,,,,,,,,,,,,,,,,,,,,,,,,631.90582370013,None,story,silent,red,69,306,629.8952323999256,None,None,629.8952323999256,None,,,,,,,,,,,,,,,,,,,,,,,,,,,,,,,,,NC22,001,2021_Nov_08_1619,ProdSingRedo,3.2.3,59.9407904410774,
40,0,40,0,,,,,,,,,,,,,,,,,,,,,,,,,,,,634.4249648000114,None,recall,aloud,yellow,56,255,632.41652670037,None,None,632.41652670037,None,,,,,,,,,,,,,,,,,,,,,,,,,,,,,,,,,NC22,001,2021_Nov_08_1619,ProdSingRedo,3.2.3,59.9407904410774,
41,0,41,0,,,,,,,,,,,,,,,,,,,,,,,,,,,,636.9440836999565,None,oxygen,silent,red,79,209,634.9387775002979,None,None,634.9387775002979,None,,,,,,,,,,,,,,,,,,,,,,,,,,,,,,,,,NC22,001,2021_Nov_08_1619,ProdSingRedo,3.2.3,59.9407904410774,
42,0,42,0,,,,,,,,,,,,,,,,,,,,,,,,,,,,639.4633435001597,None,cover,sing,blue,4,77,637.4545150003396,None,None,637.4545150003396,None,,,,,,,,,,,,,,,,,,,,,,,,,,,,,,,,,NC22,001,2021_Nov_08_1619,ProdSingRedo,3.2.3,59.9407904410774,
43,0,43,0,,,,,,,,,,,,,,,,,,,,,,,,,,,,641.9825365999714,None,novel,aloud,yellow,59,202,639.9744085003622,None,None,639.9744085003622,None,,,,,,,,,,,,,,,,,,,,,,,,,,,,,,,,,NC22,001,2021_Nov_08_1619,ProdSingRedo,3.2.3,59.9407904410774,
44,0,44,0,,,,,,,,,,,,,,,,,,,,,,,,,,,,644.5017881002277,None,school,aloud,yellow,47,274,642.4905835003592,None,None,642.4905835003592,None,,,,,,,,,,,,,,,,,,,,,,,,,,,,,,,,,NC22,001,2021_Nov_08_1619,ProdSingRedo,3.2.3,59.9407904410774,
45,0,45,0,,,,,,,,,,,,,,,,,,,,,,,,,,,,647.0209741001017,None,household,sing,blue,15,154,645.0134424003772,None,None,645.0134424003772,None,,,,,,,,,,,,,,,,,,,,,,,,,,,,,,,,,NC22,001,2021_Nov_08_1619,ProdSingRedo,3.2.3,59.9407904410774,
46,0,46,0,,,,,,,,,,,,,,,,,,,,,,,,,,,,649.5400225999765,None,shape,silent,red,64,282,647.5326053001918,None,None,647.5326053001918,None,,,,,,,,,,,,,,,,,,,,,,,,,,,,,,,,,NC22,001,2021_Nov_08_1619,ProdSingRedo,3.2.3,59.9407904410774,
47,0,47,0,,,,,,,,,,,,,,,,,,,,,,,,,,,,652.0592710999772,None,light,silent,red,80,171,650.0518855000846,None,None,650.0518855000846,None,,,,,,,,,,,,,,,,,,,,,,,,,,,,,,,,,NC22,001,2021_Nov_08_1619,ProdSingRedo,3.2.3,59.9407904410774,
48,0,48,0,,,,,,,,,,,,,,,,,,,,,,,,,,,,654.5784705001861,None,member,aloud,yellow,50,188,652.5632189000025,None,None,652.5632189000025,None,,,,,,,,,,,,,,,,,,,,,,,,,,,,,,,,,NC22,001,2021_Nov_08_1619,ProdSingRedo,3.2.3,59.9407904410774,
49,0,49,0,,,,,,,,,,,,,,,,,,,,,,,,,,,,657.09763210034,None,display,aloud,yellow,45,98,655.0929873003624,None,None,655.0929873003624,None,,,,,,,,,,,,,,,,,,,,,,,,,,,,,,,,,NC22,001,2021_Nov_08_1619,ProdSingRedo,3.2.3,59.9407904410774,
50,0,50,0,,,,,,,,,,,,,,,,,,,,,,,,,,,,659.6168683003634,None,block,silent,red,75,25,657.6095060999505,None,None,657.6095060999505,None,,,,,,,,,,,,,,,,,,,,,,,,,,,,,,,,,NC22,001,2021_Nov_08_1619,ProdSingRedo,3.2.3,59.9407904410774,
51,0,51,0,,,,,,,,,,,,,,,,,,,,,,,,,,,,662.1360102002509,None,figure,silent,red,86,128,660.1297134002671,None,None,660.1297134002671,None,,,,,,,,,,,,,,,,,,,,,,,,,,,,,,,,,NC22,001,2021_Nov_08_1619,ProdSingRedo,3.2.3,59.9407904410774,
52,0,52,0,,,,,,,,,,,,,,,,,,,,,,,,,,,,664.6548983999528,None,strain,aloud,yellow,41,308,662.6473770001903,None,None,662.6473770001903,None,,,,,,,,,,,,,,,,,,,,,,,,,,,,,,,,,NC22,001,2021_Nov_08_1619,ProdSingRedo,3.2.3,59.9407904410774,
53,0,53,0,,,,,,,,,,,,,,,,,,,,,,,,,,,,667.1576996003278,None,power,sing,blue,7,230,665.1554420003667,None,None,665.1554420003667,None,,,,,,,,,,,,,,,,,,,,,,,,,,,,,,,,,NC22,001,2021_Nov_08_1619,ProdSingRedo,3.2.3,59.9407904410774,
54,0,54,0,,,,,,,,,,,,,,,,,,,,,,,,,,,,669.6768847000785,None,background,aloud,yellow,58,16,667.6823229999281,None,None,667.6823229999281,None,,,,,,,,,,,,,,,,,,,,,,,,,,,,,,,,,NC22,001,2021_Nov_08_1619,ProdSingRedo,3.2.3,59.9407904410774,
55,0,55,0,,,,,,,,,,,,,,,,,,,,,,,,,,,,672.209682600107,None,military,silent,red,87,190,670.1930529000238,None,None,670.1930529000238,None,,,,,,,,,,,,,,,,,,,,,,,,,,,,,,,,,NC22,001,2021_Nov_08_1619,ProdSingRedo,3.2.3,59.9407904410774,
56,0,56,0,,,,,,,,,,,,,,,,,,,,,,,,,,,,674.7319366000593,None,narrow,aloud,yellow,30,197,672.7239991999231,None,None,672.7239991999231,None,,,,,,,,,,,,,,,,,,,,,,,,,,,,,,,,,NC22,001,2021_Nov_08_1619,ProdSingRedo,3.2.3,59.9407904410774,
57,0,57,0,,,,,,,,,,,,,,,,,,,,,,,,,,,,677.2511521000415,None,listen,silent,red,62,172,675.239954400342,None,None,675.239954400342,None,,,,,,,,,,,,,,,,,,,,,,,,,,,,,,,,,NC22,001,2021_Nov_08_1619,ProdSingRedo,3.2.3,59.9407904410774,
58,0,58,0,,,,,,,,,,,,,,,,,,,,,,,,,,,,679.77031740034,None,raise,aloud,yellow,38,250,677.7618245999329,None,None,677.7618245999329,None,,,,,,,,,,,,,,,,,,,,,,,,,,,,,,,,,NC22,001,2021_Nov_08_1619,ProdSingRedo,3.2.3,59.9407904410774,
59,0,59,0,,,,,,,,,,,,,,,,,,,,,,,,,,,,682.272810800001,None,cousin,sing,blue,2,76,680.270621099975,None,None,680.270621099975,None,,,,,,,,,,,,,,,,,,,,,,,,,,,,,,,,,NC22,001,2021_Nov_08_1619,ProdSingRedo,3.2.3,59.9407904410774,
60,0,60,0,,,,,,,,,,,,,,,,,,,,,,,,,,,,684.7920444002375,None,platform,aloud,yellow,53,224,682.7891301000491,None,None,682.7891301000491,None,,,,,,,,,,,,,,,,,,,,,,,,,,,,,,,,,NC22,001,2021_Nov_08_1619,ProdSingRedo,3.2.3,59.9407904410774,
61,0,61,0,,,,,,,,,,,,,,,,,,,,,,,,,,,,687.3111718003638,None,literature,sing,blue,3,173,685.3085251003504,None,None,685.3085251003504,None,,,,,,,,,,,,,,,,,,,,,,,,,,,,,,,,,NC22,001,2021_Nov_08_1619,ProdSingRedo,3.2.3,59.9407904410774,
62,0,62,0,,,,,,,,,,,,,,,,,,,,,,,,,,,,689.8303737002425,None,interview,aloud,yellow,35,165,687.8256006999873,None,None,687.8256006999873,None,,,,,,,,,,,,,,,,,,,,,,,,,,,,,,,,,NC22,001,2021_Nov_08_1619,ProdSingRedo,3.2.3,59.9407904410774,
63,0,63,0,,,,,,,,,,,,,,,,,,,,,,,,,,,,692.3504067999311,None,design,silent,red,66,91,690.3429446001537,None,None,690.3429446001537,None,,,,,,,,,,,,,,,,,,,,,,,,,,,,,,,,,NC22,001,2021_Nov_08_1619,ProdSingRedo,3.2.3,59.9407904410774,
64,0,64,0,,,,,,,,,,,,,,,,,,,,,,,,,,,,694.8687680000439,None,volume,silent,red,63,349,692.8641163003631,None,None,692.8641163003631,None,,,,,,,,,,,,,,,,,,,,,,,,,,,,,,,,,NC22,001,2021_Nov_08_1619,ProdSingRedo,3.2.3,59.9407904410774,
65,0,65,0,,,,,,,,,,,,,,,,,,,,,,,,,,,,697.3879492003471,None,finish,sing,blue,0,130,695.3890563002788,None,None,695.3890563002788,None,,,,,,,,,,,,,,,,,,,,,,,,,,,,,,,,,NC22,001,2021_Nov_08_1619,ProdSingRedo,3.2.3,59.9407904410774,
66,0,66,0,,,,,,,,,,,,,,,,,,,,,,,,,,,,699.9070942001417,None,grade,aloud,yellow,33,140,697.901067300234,None,None,697.901067300234,None,,,,,,,,,,,,,,,,,,,,,,,,,,,,,,,,,NC22,001,2021_Nov_08_1619,ProdSingRedo,3.2.3,59.9407904410774,
67,0,67,0,,,,,,,,,,,,,,,,,,,,,,,,,,,,702.4263256001286,None,voice,silent,red,82,348,700.4158396003768,None,None,700.4158396003768,None,,,,,,,,,,,,,,,,,,,,,,,,,,,,,,,,,NC22,001,2021_Nov_08_1619,ProdSingRedo,3.2.3,59.9407904410774,
68,0,68,0,,,,,,,,,,,,,,,,,,,,,,,,,,,,704.9455906003714,None,turkey,sing,blue,22,342,702.9442656002939,None,None,702.9442656002939,None,,,,,,,,,,,,,,,,,,,,,,,,,,,,,,,,,NC22,001,2021_Nov_08_1619,ProdSingRedo,3.2.3,59.9407904410774,
69,0,69,0,,,,,,,,,,,,,,,,,,,,,,,,,,,,707.4646618003026,None,council,silent,red,85,71,705.4591769999824,None,None,705.4591769999824,None,,,,,,,,,,,,,,,,,,,,,,,,,,,,,,,,,NC22,001,2021_Nov_08_1619,ProdSingRedo,3.2.3,59.9407904410774,
70,0,70,0,,,,,,,,,,,,,,,,,,,,,,,,,,,,709.9838923001662,None,career,aloud,yellow,42,42,707.9762015999295,None,None,707.9762015999295,None,,,,,,,,,,,,,,,,,,,,,,,,,,,,,,,,,NC22,001,2021_Nov_08_1619,ProdSingRedo,3.2.3,59.9407904410774,
71,0,71,0,,,,,,,,,,,,,,,,,,,,,,,,,,,,712.5030533000827,None,balance,sing,blue,29,17,710.5004873001017,None,None,710.5004873001017,None,,,,,,,,,,,,,,,,,,,,,,,,,,,,,,,,,NC22,001,2021_Nov_08_1619,ProdSingRedo,3.2.3,59.9407904410774,
72,0,72,0,,,,,,,,,,,,,,,,,,,,,,,,,,,,715.022221500054,None,travel,sing,blue,18,338,713.0137744001113,None,None,713.0137744001113,None,,,,,,,,,,,,,,,,,,,,,,,,,,,,,,,,,NC22,001,2021_Nov_08_1619,ProdSingRedo,3.2.3,59.9407904410774,
73,0,73,0,,,,,,,,,,,,,,,,,,,,,,,,,,,,717.5414073001593,None,dream,aloud,yellow,57,104,715.5341646000743,None,None,715.5341646000743,None,,,,,,,,,,,,,,,,,,,,,,,,,,,,,,,,,NC22,001,2021_Nov_08_1619,ProdSingRedo,3.2.3,59.9407904410774,
74,0,74,0,,,,,,,,,,,,,,,,,,,,,,,,,,,,720.0605904003605,None,rapid,aloud,yellow,52,252,718.0516038001515,None,None,718.0516038001515,None,,,,,,,,,,,,,,,,,,,,,,,,,,,,,,,,,NC22,001,2021_Nov_08_1619,ProdSingRedo,3.2.3,59.9407904410774,
75,0,75,0,,,,,,,,,,,,,,,,,,,,,,,,,,,,722.579843299929,None,generation,aloud,yellow,44,136,720.5745274000801,None,None,720.5745274000801,None,,,,,,,,,,,,,,,,,,,,,,,,,,,,,,,,,NC22,001,2021_Nov_08_1619,ProdSingRedo,3.2.3,59.9407904410774,
76,0,76,0,,,,,,,,,,,,,,,,,,,,,,,,,,,,725.0990089001134,None,agency,sing,blue,21,4,723.0932208001614,None,None,723.0932208001614,None,,,,,,,,,,,,,,,,,,,,,,,,,,,,,,,,,NC22,001,2021_Nov_08_1619,ProdSingRedo,3.2.3,59.9407904410774,
77,0,77,0,,,,,,,,,,,,,,,,,,,,,,,,,,,,727.6180401002057,None,month,aloud,yellow,46,193,725.6067151003517,None,None,725.6067151003517,None,,,,,,,,,,,,,,,,,,,,,,,,,,,,,,,,,NC22,001,2021_Nov_08_1619,ProdSingRedo,3.2.3,59.9407904410774,
78,0,78,0,,,,,,,,,,,,,,,,,,,,,,,,,,,,730.1206754003651,None,music,silent,red,61,196,728.118451999966,None,None,728.118451999966,None,,,,,,,,,,,,,,,,,,,,,,,,,,,,,,,,,NC22,001,2021_Nov_08_1619,ProdSingRedo,3.2.3,59.9407904410774,
79,0,79,0,,,,,,,,,,,,,,,,,,,,,,,,,,,,732.639791900292,None,dispute,sing,blue,11,99,730.6332649001852,None,None,730.6332649001852,None,,,,,,,,,,,,,,,,,,,,,,,,,,,,,,,,,NC22,001,2021_Nov_08_1619,ProdSingRedo,3.2.3,59.9407904410774,
80,0,80,0,,,,,,,,,,,,,,,,,,,,,,,,,,,,735.1590574001893,None,present,silent,red,68,231,733.1488822000101,None,None,733.1488822000101,None,,,,,,,,,,,,,,,,,,,,,,,,,,,,,,,,,NC22,001,2021_Nov_08_1619,ProdSingRedo,3.2.3,59.9407904410774,
81,0,81,0,,,,,,,,,,,,,,,,,,,,,,,,,,,,737.6782522001304,None,bicycle,silent,red,60,21,735.673799500335,None,None,735.673799500335,None,,,,,,,,,,,,,,,,,,,,,,,,,,,,,,,,,NC22,001,2021_Nov_08_1619,ProdSingRedo,3.2.3,59.9407904410774,
82,0,82,0,,,,,,,,,,,,,,,,,,,,,,,,,,,,740.1974301999435,None,command,silent,red,77,60,738.1898389002308,None,None,738.1898389002308,None,,,,,,,,,,,,,,,,,,,,,,,,,,,,,,,,,NC22,001,2021_Nov_08_1619,ProdSingRedo,3.2.3,59.9407904410774,
83,0,83,0,,,,,,,,,,,,,,,,,,,,,,,,,,,,742.7166570001282,None,trail,sing,blue,8,336,740.7080639000051,None,None,740.7080639000051,None,,,,,,,,,,,,,,,,,,,,,,,,,,,,,,,,,NC22,001,2021_Nov_08_1619,ProdSingRedo,3.2.3,59.9407904410774,
84,0,84,0,,,,,,,,,,,,,,,,,,,,,,,,,,,,745.2354421000928,None,crisis,silent,red,84,79,743.2246366003528,None,None,743.2246366003528,None,,,,,,,,,,,,,,,,,,,,,,,,,,,,,,,,,NC22,001,2021_Nov_08_1619,ProdSingRedo,3.2.3,59.9407904410774,
85,0,85,0,,,,,,,,,,,,,,,,,,,,,,,,,,,,747.7549284999259,None,hearing,silent,red,81,150,745.7509612999856,None,None,745.7509612999856,None,,,,,,,,,,,,,,,,,,,,,,,,,,,,,,,,,NC22,001,2021_Nov_08_1619,ProdSingRedo,3.2.3,59.9407904410774,
86,0,86,0,,,,,,,,,,,,,,,,,,,,,,,,,,,,750.2742043002509,None,track,silent,red,78,334,748.2688736002892,None,None,748.2688736002892,None,,,,,,,,,,,,,,,,,,,,,,,,,,,,,,,,,NC22,001,2021_Nov_08_1619,ProdSingRedo,3.2.3,59.9407904410774,
87,0,87,0,,,,,,,,,,,,,,,,,,,,,,,,,,,,752.7933558002114,None,crowd,sing,blue,24,81,750.7882087002508,None,None,750.7882087002508,None,,,,,,,,,,,,,,,,,,,,,,,,,,,,,,,,,NC22,001,2021_Nov_08_1619,ProdSingRedo,3.2.3,59.9407904410774,
88,0,88,0,,,,,,,,,,,,,,,,,,,,,,,,,,,,755.3124864003621,None,worker,aloud,yellow,40,356,753.308718400076,None,None,753.308718400076,None,,,,,,,,,,,,,,,,,,,,,,,,,,,,,,,,,NC22,001,2021_Nov_08_1619,ProdSingRedo,3.2.3,59.9407904410774,
89,0,89,0,,,,,,,,,,,,,,,,,,,,,,,,,,,,757.8150146002881,None,evidence,sing,blue,1,120,755.8128556003794,None,None,755.8128556003794,None,,,,,,,,,,,,,,,,,,,,,,,,,,,,,,,,,NC22,001,2021_Nov_08_1619,ProdSingRedo,3.2.3,59.9407904410774,
,,,,,,,,,,,,,,,,,,,,,,,,,,,,,,,,,,,,,,,,,,,758.315726400353,None,k,120.53548559965566,758.315726400353,None,,,,,,,,,,,,,,,,,,,,,,,,,,,NC22,001,2021_Nov_08_1619,ProdSingRedo,3.2.3,59.9407904410774,
,,,,0,0,0,0,,,,,,,,,,,,,,,,,,,,,,,,896.9295968003571,None,,,,,,,,,,,,,,,,,author,new_c,white,0,177,15,879.3891623001546,None,879.3891623001546,None,2,10.574116900097579,879.3891623001546,None,890.0052794003859,None,890.5235180002637,None,890.5235180002637,None,n,6.367988599929959,890.5235180002637,None,,,NC22,001,2021_Nov_08_1619,ProdSingRedo,3.2.3,59.9407904410774,
,,,,1,0,1,0,,,,,,,,,,,,,,,,,,,,,,,,906.6879904000089,None,,,,,,,,,,,,,,,,,agency,sing,white,1,21,4,897.456981100142,None,897.456981100142,None,6,6.514382199849933,897.456981100142,None,904.0126799000427,None,904.5236289999448,None,904.5236289999448,None,f,2.1357983998022974,904.5236289999448,None,,,NC22,001,2021_Nov_08_1619,ProdSingRedo,3.2.3,59.9407904410774,
,,,,2,0,2,0,,,,,,,,,,,,,,,,,,,,,,,,915.831556300167,None,,,,,,,,,,,,,,,,,meeting,sing,white,2,25,187,907.2127419002354,None,907.2127419002354,None,6,5.998474099673331,907.2127419002354,None,913.2529238001443,None,913.7642330001108,None,913.7642330001108,None,r,2.0389635004103184,913.7642330001108,None,,,NC22,001,2021_Nov_08_1619,ProdSingRedo,3.2.3,59.9407904410774,
,,,,3,0,3,0,,,,,,,,,,,,,,,,,,,,,,,,922.0184959000908,None,,,,,,,,,,,,,,,,,bright,new_b,white,3,123,29,916.3402156000957,None,916.3402156000957,None,1,2.4550752001814544,916.3402156000957,None,918.8494843002409,None,919.3547692000866,None,919.3547692000866,None,n,2.6404615002684295,919.3547692000866,None,,,NC22,001,2021_Nov_08_1619,ProdSingRedo,3.2.3,59.9407904410774,
,,,,4,0,4,0,,,,,,,,,,,,,,,,,,,,,,,,929.7771700001322,None,,,,,,,,,,,,,,,,,revolution,new_b,white,4,146,264,922.5563529999927,None,922.5563529999927,None,4,4.99097969988361,922.5563529999927,None,927.5897706001997,None,928.0977950999513,None,928.0977950999513,None,f,1.6496031996794045,928.0977950999513,None,,,NC22,001,2021_Nov_08_1619,ProdSingRedo,3.2.3,59.9407904410774,
,,,,5,0,5,0,,,,,,,,,,,,,,,,,,,,,,,,938.1173792001791,None,,,,,,,,,,,,,,,,,minute,new_a,white,5,91,192,930.303530999925,None,930.303530999925,None,5,6.139409600291401,930.303530999925,None,936.464115800336,None,936.9857348003425,None,936.9857348003425,None,f,1.0977007998153567,936.9857348003425,None,,,NC22,001,2021_Nov_08_1619,ProdSingRedo,3.2.3,59.9407904410774,
,,,,6,0,6,0,,,,,,,,,,,,,,,,,,,,,,,,944.4072581999935,None,,,,,,,,,,,,,,,,,piece,new_c,white,6,151,221,938.6392276999541,None,938.6392276999541,None,1,2.7565814997069538,938.6392276999541,None,941.4447753001004,None,941.9533139001578,None,941.9533139001578,None,n,2.4179599001072347,941.9533139001578,None,,,NC22,001,2021_Nov_08_1619,ProdSingRedo,3.2.3,59.9407904410774,
,,,,7,0,7,0,,,,,,,,,,,,,,,,,,,,,,,,950.6170557001606,None,,,,,,,,,,,,,,,,,hunger,new_a,white,7,109,155,944.9301943001337,None,944.9301943001337,None,3,3.7773249996826053,944.9301943001337,None,948.7479093000293,None,949.2500080000609,None,949.2500080000609,None,f,1.3373990003019571,949.2500080000609,None,,,NC22,001,2021_Nov_08_1619,ProdSingRedo,3.2.3,59.9407904410774,
,,,,8,0,8,0,,,,,,,,,,,,,,,,,,,,,,,,956.9198535000905,None,,,,,,,,,,,,,,,,,crowd,sing,white,8,24,81,951.139448700007,None,951.139448700007,None,6,3.808029799722135,951.139448700007,None,955.0021669003181,None,955.5194892999716,None,955.5194892999716,None,f,1.3640030003152788,955.5194892999716,None,,,NC22,001,2021_Nov_08_1619,ProdSingRedo,3.2.3,59.9407904410774,
,,,,9,0,9,0,,,,,,,,,,,,,,,,,,,,,,,,962.8608804000542,None,,,,,,,,,,,,,,,,,captain,new_b,white,9,131,41,957.4472350003198,None,957.4472350003198,None,1,3.196156700141728,957.4472350003198,None,960.6868504001759,None,961.1970311999321,None,961.1970311999321,None,n,1.6302455002442002,961.1970311999321,None,,,NC22,001,2021_Nov_08_1619,ProdSingRedo,3.2.3,59.9407904410774,
,,,,10,0,10,0,,,,,,,,,,,,,,,,,,,,,,,,969.8519899002276,None,,,,,,,,,,,,,,,,,society,new_a,white,10,119,293,963.384597599972,None,963.384597599972,None,2,2.810364000033587,963.384597599972,None,966.2278216001578,None,966.747864600271,None,966.747864600271,None,n,3.0797278000973165,966.747864600271,None,,,NC22,001,2021_Nov_08_1619,ProdSingRedo,3.2.3,59.9407904410774,
,,,,11,0,11,0,,,,,,,,,,,,,,,,,,,,,,,,978.0516989999451,None,,,,,,,,,,,,,,,,,write,new_c,white,11,156,358,970.3749506003223,None,970.3749506003223,None,4,4.980449500028044,970.3749506003223,None,975.4051475999877,None,975.9245358002372,None,975.9245358002372,None,f,2.1105050002224743,975.9245358002372,None,,,NC22,001,2021_Nov_08_1619,ProdSingRedo,3.2.3,59.9407904410774,
,,,,12,0,12,0,,,,,,,,,,,,,,,,,,,,,,,,986.8858555001207,None,,,,,,,,,,,,,,,,,judge,sing,white,12,26,166,978.5836976002902,None,978.5836976002902,None,6,4.691479799803346,978.5836976002902,None,983.301339500118,None,983.8192332000472,None,983.8192332000472,None,r,3.032196099869907,983.8192332000472,None,,,NC22,001,2021_Nov_08_1619,ProdSingRedo,3.2.3,59.9407904410774,
,,,,13,0,13,0,,,,,,,,,,,,,,,,,,,,,,,,993.5064218002371,None,,,,,,,,,,,,,,,,,afternoon,sing,white,13,9,3,987.4092315002345,None,987.4092315002345,None,6,4.402178700082004,987.4092315002345,None,991.8553178003058,None,992.3745470000431,None,992.3745470000431,None,f,1.1087566995993257,992.3745470000431,None,,,NC22,001,2021_Nov_08_1619,ProdSingRedo,3.2.3,59.9407904410774,
,,,,14,0,14,0,,,,,,,,,,,,,,,,,,,,,,,,999.6460253000259,None,,,,,,,,,,,,,,,,,working,new_a,white,14,90,357,994.0364165999927,None,994.0364165999927,None,3,3.6229002000764012,994.0364165999927,None,997.7172539001331,None,998.2350798002444,None,998.2350798002444,None,f,1.3842974998988211,998.2350798002444,None,,,NC22,001,2021_Nov_08_1619,ProdSingRedo,3.2.3,59.9407904410774,
,,,,15,0,15,0,,,,,,,,,,,,,,,,,,,,,,,,1004.8023072001524,None,,,,,,,,,,,,,,,,,season,new_a,white,15,95,277,1000.1723910002038,None,1000.1723910002038,None,5,3.2710642996244133,1000.1723910002038,None,1003.4835537001491,None,1004.0034741000272,None,1004.0034741000272,None,f,0.767870900221169,1004.0034741000272,None,,,NC22,001,2021_Nov_08_1619,ProdSingRedo,3.2.3,59.9407904410774,
,,,,16,0,16,0,,,,,,,,,,,,,,,,,,,,,,,,1009.3058344000019,None,,,,,,,,,,,,,,,,,discovery,new_b,white,16,122,95,1005.3312837001868,None,1005.3312837001868,None,6,2.1039471002295613,1005.3312837001868,None,1007.4716223999858,None,1007.9969337000512,None,1007.9969337000512,None,f,1.2864963002502918,1007.9969337000512,None,,,NC22,001,2021_Nov_08_1619,ProdSingRedo,3.2.3,59.9407904410774,
,,,,17,0,17,0,,,,,,,,,,,,,,,,,,,,,,,,1016.0175390001386,None,,,,,,,,,,,,,,,,,degree,new_c,white,17,166,89,1009.8338615000248,None,1009.8338615000248,None,2,3.8656602003611624,1009.8338615000248,None,1013.7451504999772,None,1014.2667733002454,None,1014.2667733002454,None,f,1.7208540998399258,1014.2667733002454,None,,,NC22,001,2021_Nov_08_1619,ProdSingRedo,3.2.3,59.9407904410774,
,,,,18,0,18,0,,,,,,,,,,,,,,,,,,,,,,,,1021.3515413003042,None,,,,,,,,,,,,,,,,,power,sing,white,18,7,230,1016.548934600316,None,1016.548934600316,None,6,1.9585045999847353,1016.548934600316,None,1018.5460886000656,None,1019.0678212000057,None,1019.0678212000057,None,r,2.255612500011921,1019.0678212000057,None,,,NC22,001,2021_Nov_08_1619,ProdSingRedo,3.2.3,59.9407904410774,
,,,,19,0,19,0,,,,,,,,,,,,,,,,,,,,,,,,1026.4335588002577,None,,,,,,,,,,,,,,,,,beginning,new_c,white,19,162,19,1021.8851694003679,None,1021.8851694003679,None,6,2.822187500074506,1021.8851694003679,None,1024.761840800289,None,1025.2764715999365,None,1025.2764715999365,None,f,1.134560199920088,1025.2764715999365,None,,,NC22,001,2021_Nov_08_1619,ProdSingRedo,3.2.3,59.9407904410774,
,,,,20,0,20,0,,,,,,,,,,,,,,,,,,,,,,,,1032.146776900161,None,,,,,,,,,,,,,,,,,report,new_c,white,20,153,259,1026.9453352000564,None,1026.9453352000564,None,1,2.362244099844247,1026.9453352000564,None,1029.3560236999765,None,1029.8735966002569,None,1029.8735966002569,None,n,2.2417354001663625,1029.8735966002569,None,,,NC22,001,2021_Nov_08_1619,ProdSingRedo,3.2.3,59.9407904410774,
,,,,21,0,21,0,,,,,,,,,,,,,,,,,,,,,,,,1038.6182977003045,None,,,,,,,,,,,,,,,,,division,sing,white,21,23,101,1032.6735783000477,None,1032.6735783000477,None,6,1.961887199897319,1032.6735783000477,None,1034.6817936003208,None,1035.1849510003813,None,1035.1849510003813,None,f,3.4103446998633444,1035.1849510003813,None,,,NC22,001,2021_Nov_08_1619,ProdSingRedo,3.2.3,59.9407904410774,
,,,,22,0,22,0,,,,,,,,,,,,,,,,,,,,,,,,1043.974275900051,None,,,,,,,,,,,,,,,,,grade,aloud,white,22,33,140,1039.1468024002388,None,1039.1468024002388,None,6,3.2004392999224365,1039.1468024002388,None,1042.376733600162,None,1042.8934955000877,None,1042.8934955000877,None,f,1.0539648002013564,1042.8934955000877,None,,,NC22,001,2021_Nov_08_1619,ProdSingRedo,3.2.3,59.9407904410774,
,,,,23,0,23,0,,,,,,,,,,,,,,,,,,,,,,,,1049.195251100231,None,,,,,,,,,,,,,,,,,foundation,new_a,white,23,115,132,1044.5089214001782,None,1044.5089214001782,None,4,3.1185359000228345,1044.5089214001782,None,1047.6782021000981,None,1048.2040345002897,None,1048.2040345002897,None,f,0.9673071000725031,1048.2040345002897,None,,,NC22,001,2021_Nov_08_1619,ProdSingRedo,3.2.3,59.9407904410774,
,,,,24,0,24,0,,,,,,,,,,,,,,,,,,,,,,,,1054.2854429003783,None,,,,,,,,,,,,,,,,,touch,new_c,white,24,170,332,1049.718632800039,None,1049.718632800039,None,1,1.900689299684018,1049.718632800039,None,1051.6630645999685,None,1052.1683616000228,None,1052.1683616000228,None,n,2.0834447001107037,1052.1683616000228,None,,,NC22,001,2021_Nov_08_1619,ProdSingRedo,3.2.3,59.9407904410774,
,,,,25,0,25,0,,,,,,,,,,,,,,,,,,,,,,,,1061.359452500008,None,,,,,,,,,,,,,,,,,trash,new_c,white,25,155,337,1054.8106305999681,None,1054.8106305999681,None,3,4.176851399708539,1054.8106305999681,None,1059.0363295003772,None,1059.5589519999921,None,1059.5589519999921,None,f,1.7725192001089454,1059.5589519999921,None,,,NC22,001,2021_Nov_08_1619,ProdSingRedo,3.2.3,59.9407904410774,
,,,,26,0,26,0,,,,,,,,,,,,,,,,,,,,,,,,1067.2130615003407,None,,,,,,,,,,,,,,,,,disease,aloud,white,26,51,97,1061.8858313001692,None,1061.8858313001692,None,6,2.445718000177294,1061.8858313001692,None,1064.3795052003115,None,1064.8964146003127,None,1064.8964146003127,None,f,2.2830493999645114,1064.8964146003127,None,,,NC22,001,2021_Nov_08_1619,ProdSingRedo,3.2.3,59.9407904410774,
,,,,27,0,27,0,,,,,,,,,,,,,,,,,,,,,,,,1073.1033491999842,None,,,,,,,,,,,,,,,,,quiet,new_c,white,27,174,249,1067.7454221001826,None,1067.7454221001826,None,1,3.8341669999063015,1067.7454221001826,None,1071.6153152999468,None,1072.1223683999851,None,1072.1223683999851,None,n,0.9531268002465367,1072.1223683999851,None,,,NC22,001,2021_Nov_08_1619,ProdSingRedo,3.2.3,59.9407904410774,
,,,,28,0,28,0,,,,,,,,,,,,,,,,,,,,,,,,1076.9891495001502,None,,,,,,,,,,,,,,,,,smell,new_b,white,28,139,291,1073.6235982999206,None,1073.6235982999206,None,1,1.940277799963951,1073.6235982999206,None,1075.6006758003496,None,1076.1061876001768,None,1076.1061876001768,None,n,0.8493115003220737,1076.1061876001768,None,,,NC22,001,2021_Nov_08_1619,ProdSingRedo,3.2.3,59.9407904410774,
,,,,29,0,29,0,,,,,,,,,,,,,,,,,,,,,,,,1082.012265500147,None,,,,,,,,,,,,,,,,,tough,aloud,white,29,36,333,1077.5247288001701,None,1077.5247288001701,None,6,2.51087149977684,1077.5247288001701,None,1080.0878157000989,None,1080.5962819000706,None,1080.5962819000706,None,f,1.3911631000228226,1080.5962819000706,None,,,NC22,001,2021_Nov_08_1619,ProdSingRedo,3.2.3,59.9407904410774,
,,,,30,0,30,0,,,,,,,,,,,,,,,,,,,,,,,,1086.526847100351,None,,,,,,,,,,,,,,,,,rapid,aloud,white,30,52,252,1082.5358398002572,None,1082.5358398002572,None,4,2.547554099932313,1082.5358398002572,None,1085.1234023999423,None,1085.6362002003007,None,1085.6362002003007,None,f,0.8708355999551713,1085.6362002003007,None,,,NC22,001,2021_Nov_08_1619,ProdSingRedo,3.2.3,59.9407904410774,
,,,,31,0,31,0,,,,,,,,,,,,,,,,,,,,,,,,1094.0242035002448,None,,,,,,,,,,,,,,,,,individual,aloud,white,31,39,160,1087.0434725000523,None,1087.0434725000523,None,6,2.279985800385475,1087.0434725000523,None,1089.372289000079,None,1089.8767197001725,None,1089.8767197001725,None,r,4.1187435002066195,1089.8767197001725,None,,,NC22,001,2021_Nov_08_1619,ProdSingRedo,3.2.3,59.9407904410774,
,,,,32,0,32,0,,,,,,,,,,,,,,,,,,,,,,,,1100.497300799936,None,,,,,,,,,,,,,,,,,sleep,new_b,white,32,120,290,1094.54528770037,None,1094.54528770037,None,2,2.7541926000267267,1094.54528770037,None,1097.3390083000995,None,1097.8425484001637,None,1097.8425484001637,None,f,2.6328929997980595,1097.8425484001637,None,,,NC22,001,2021_Nov_08_1619,ProdSingRedo,3.2.3,59.9407904410774,
,,,,33,0,33,0,,,,,,,,,,,,,,,,,,,,,,,,1107.771479499992,None,,,,,,,,,,,,,,,,,place,new_a,white,33,98,222,1101.0231141000986,None,1101.0231141000986,None,4,4.948332199826837,1101.0231141000986,None,1106.0175229003653,None,1106.5381758003496,None,1106.5381758003496,None,f,1.2015416999347508,1106.5381758003496,None,,,NC22,001,2021_Nov_08_1619,ProdSingRedo,3.2.3,59.9407904410774,
,,,,34,0,34,0,,,,,,,,,,,,,,,,,,,,,,,,1112.9604962002486,None,,,,,,,,,,,,,,,,,marriage,new_b,white,34,128,179,1108.2992118000984,None,1108.2992118000984,None,1,2.0880604996345937,1108.2992118000984,None,1110.428914600052,None,1110.9484634003602,None,1110.9484634003602,None,n,1.9750864999368787,1110.9484634003602,None,,,NC22,001,2021_Nov_08_1619,ProdSingRedo,3.2.3,59.9407904410774,
,,,,35,0,35,0,,,,,,,,,,,,,,,,,,,,,,,,1117.3308530999348,None,,,,,,,,,,,,,,,,,crisis,silent,white,35,84,79,1113.483129600063,None,1113.483129600063,None,6,2.208055099938065,1113.483129600063,None,1115.7421798999421,None,1116.2402371000499,None,1116.2402371000499,None,f,1.0671923998743296,1116.2402371000499,None,,,NC22,001,2021_Nov_08_1619,ProdSingRedo,3.2.3,59.9407904410774,
,,,,36,0,36,0,,,,,,,,,,,,,,,,,,,,,,,,1121.0022728000768,None,,,,,,,,,,,,,,,,,detective,aloud,white,36,31,92,1117.8600016003475,None,1117.8600016003475,None,6,1.6716014998964965,1117.8600016003475,None,1119.5831113001332,None,1120.0891953003593,None,1120.0891953003593,None,f,0.8901949999853969,1120.0891953003593,None,,,NC22,001,2021_Nov_08_1619,ProdSingRedo,3.2.3,59.9407904410774,
,,,,37,0,37,0,,,,,,,,,,,,,,,,,,,,,,,,1124.4215407003649,None,,,,,,,,,,,,,,,,,equipment,new_b,white,37,127,116,1121.5224894001149,None,1121.5224894001149,None,1,1.5930337999016047,1121.5224894001149,None,1123.157696600072,None,1123.6747783003375,None,1123.6747783003375,None,n,0.7207444999366999,1123.6747783003375,None,,,NC22,001,2021_Nov_08_1619,ProdSingRedo,3.2.3,59.9407904410774,
,,,,38,0,38,0,,,,,,,,,,,,,,,,,,,,,,,,1128.176173900254,None,,,,,,,,,,,,,,,,,dream,aloud,white,38,57,104,1124.9483608002774,None,1124.9483608002774,None,1,2.0471677999012172,1124.9483608002774,None,1127.0334057002328,None,1127.543836900033,None,1127.543836900033,None,n,0.6036825999617577,1127.543836900033,None,,,NC22,001,2021_Nov_08_1619,ProdSingRedo,3.2.3,59.9407904410774,
,,,,39,0,39,0,,,,,,,,,,,,,,,,,,,,,,,,1132.7971109999344,None,,,,,,,,,,,,,,,,,mechanical,new_a,white,39,96,185,1128.7049227999523,None,1128.7049227999523,None,1,2.858324899803847,1128.7049227999523,None,1131.5968833002262,None,1132.118999700062,None,1132.118999700062,None,n,0.6525620999746025,1132.118999700062,None,,,NC22,001,2021_Nov_08_1619,ProdSingRedo,3.2.3,59.9407904410774,
,,,,40,0,40,0,,,,,,,,,,,,,,,,,,,,,,,,1136.8167318999767,None,,,,,,,,,,,,,,,,,government,new_a,white,40,111,139,1133.32539490005,None,1133.32539490005,None,6,2.2061322000809014,1133.32539490005,None,1135.5790584003553,None,1136.1073338002898,None,1136.1073338002898,None,f,0.6720938999205828,1136.1073338002898,None,,,NC22,001,2021_Nov_08_1619,ProdSingRedo,3.2.3,59.9407904410774,
,,,,41,0,41,0,,,,,,,,,,,,,,,,,,,,,,,,1141.090074799955,None,,,,,,,,,,,,,,,,,estate,new_a,white,41,106,119,1137.344405299984,None,1137.344405299984,None,1,2.0831484999507666,1137.344405299984,None,1139.4687120001763,None,1139.9882864002138,None,1139.9882864002138,None,n,1.0633399998769164,1139.9882864002138,None,,,NC22,001,2021_Nov_08_1619,ProdSingRedo,3.2.3,59.9407904410774,
,,,,42,0,42,0,,,,,,,,,,,,,,,,,,,,,,,,1145.3600298003294,None,,,,,,,,,,,,,,,,,military,silent,white,42,87,190,1141.6194899999537,None,1141.6194899999537,None,5,2.3919803998433053,1141.6194899999537,None,1144.0608880999498,None,1144.5809033000842,None,1144.5809033000842,None,f,0.7507393998093903,1144.5809033000842,None,,,NC22,001,2021_Nov_08_1619,ProdSingRedo,3.2.3,59.9407904410774,
,,,,43,0,43,0,,,,,,,,,,,,,,,,,,,,,,,,1151.6653293999843,None,,,,,,,,,,,,,,,,,present,silent,white,43,68,231,1145.8695350000635,None,1145.8695350000635,None,4,4.726073499768972,1145.8695350000635,None,1150.64319790015,None,1151.145869600121,None,1151.145869600121,None,f,0.48962310003116727,1151.145869600121,None,,,NC22,001,2021_Nov_08_1619,ProdSingRedo,3.2.3,59.9407904410774,
,,,,44,0,44,0,,,,,,,,,,,,,,,,,,,,,,,,1155.1847308003344,None,,,,,,,,,,,,,,,,,bicycle,silent,white,44,60,21,1152.1949359001592,None,1152.1949359001592,None,1,1.6726202997379005,1152.1949359001592,None,1153.9133672001772,None,1154.4408082002774,None,1154.4408082002774,None,n,0.7066295999102294,1154.4408082002774,None,,,NC22,001,2021_Nov_08_1619,ProdSingRedo,3.2.3,59.9407904410774,
,,,,45,0,45,0,,,,,,,,,,,,,,,,,,,,,,,,1159.8394226999953,None,,,,,,,,,,,,,,,,,household,sing,white,45,15,154,1155.7143929000013,None,1155.7143929000013,None,6,2.0011443998664618,1155.7143929000013,None,1157.7508654999547,None,1158.2763527003117,None,1158.2763527003117,None,f,1.5272010997869074,1158.2763527003117,None,,,NC22,001,2021_Nov_08_1619,ProdSingRedo,3.2.3,59.9407904410774,
,,,,46,0,46,0,,,,,,,,,,,,,,,,,,,,,,,,1163.7680019000545,None,,,,,,,,,,,,,,,,,congress,sing,white,46,17,67,1160.3684547999874,None,1160.3684547999874,None,5,1.9630812997929752,1160.3684547999874,None,1162.370523000136,None,1162.8787127002142,None,1162.8787127002142,None,f,0.844798999838531,1162.8787127002142,None,,,NC22,001,2021_Nov_08_1619,ProdSingRedo,3.2.3,59.9407904410774,
,,,,47,0,47,0,,,,,,,,,,,,,,,,,,,,,,,,1170.2672391002998,None,,,,,,,,,,,,,,,,,background,aloud,white,47,58,16,1164.291038400028,None,1164.291038400028,None,6,1.8402480999939144,1164.291038400028,None,1166.1750118001364,None,1166.6736642001197,None,1166.6736642001197,None,f,3.5618992997333407,1166.6736642001197,None,,,NC22,001,2021_Nov_08_1619,ProdSingRedo,3.2.3,59.9407904410774,
,,,,48,0,48,0,,,,,,,,,,,,,,,,,,,,,,,,1174.5225587999448,None,,,,,,,,,,,,,,,,,gesture,new_c,white,48,159,137,1170.7964260000736,None,1170.7964260000736,None,1,2.2391488002613187,1170.7964260000736,None,1173.088357000146,None,1173.6134530003183,None,1173.6134530003183,None,n,0.8781904000788927,1173.6134530003183,None,,,NC22,001,2021_Nov_08_1619,ProdSingRedo,3.2.3,59.9407904410774,
,,,,49,0,49,0,,,,,,,,,,,,,,,,,,,,,,,,1179.4602841003798,None,,,,,,,,,,,,,,,,,account,new_c,white,49,158,1,1175.050411700271,None,1175.050411700271,None,6,2.7531091002747416,1175.050411700271,None,1177.851598000154,None,1178.3639426999725,None,1178.3639426999725,None,f,1.0715987998992205,1178.3639426999725,None,,,NC22,001,2021_Nov_08_1619,ProdSingRedo,3.2.3,59.9407904410774,
,,,,50,0,50,0,,,,,,,,,,,,,,,,,,,,,,,,1183.8310660999268,None,,,,,,,,,,,,,,,,,plane,aloud,white,50,34,223,1179.9855328002013,None,1179.9855328002013,None,6,2.2183274002745748,1179.9855328002013,None,1182.243722599931,None,1182.7477265000343,None,1182.7477265000343,None,f,1.0479139001108706,1182.7477265000343,None,,,NC22,001,2021_Nov_08_1619,ProdSingRedo,3.2.3,59.9407904410774,
,,,,51,0,51,0,,,,,,,,,,,,,,,,,,,,,,,,1188.6042448002845,None,,,,,,,,,,,,,,,,,watch,new_c,white,51,176,351,1184.3555836002342,None,1184.3555836002342,None,1,3.1520211999304593,1184.3555836002342,None,1187.5441760001704,None,1188.0553923002444,None,1188.0553923002444,None,n,0.5161721999756992,1188.0553923002444,None,,,NC22,001,2021_Nov_08_1619,ProdSingRedo,3.2.3,59.9407904410774,
,,,,52,0,52,0,,,,,,,,,,,,,,,,,,,,,,,,1192.724003800191,None,,,,,,,,,,,,,,,,,turkey,sing,white,52,22,342,1189.139510200359,None,1189.139510200359,None,6,1.8560410998761654,1189.139510200359,None,1191.043513700366,None,1191.5614684000611,None,1191.5614684000611,None,r,1.1380129996687174,1191.5614684000611,None,,,NC22,001,2021_Nov_08_1619,ProdSingRedo,3.2.3,59.9407904410774,
,,,,53,0,53,0,,,,,,,,,,,,,,,,,,,,,,,,1198.238366900012,None,,,,,,,,,,,,,,,,,count,new_b,white,53,124,72,1193.2487953002565,None,1193.2487953002565,None,1,3.738738900050521,1193.2487953002565,None,1197.0258456999436,None,1197.5283183003776,None,1197.5283183003776,None,n,0.6911341999657452,1197.5283183003776,None,,,NC22,001,2021_Nov_08_1619,ProdSingRedo,3.2.3,59.9407904410774,
,,,,54,0,54,0,,,,,,,,,,,,,,,,,,,,,,,,1202.2320437002927,None,,,,,,,,,,,,,,,,,scene,aloud,white,54,48,273,1198.7504885001108,None,1198.7504885001108,None,4,2.3251165999099612,1198.7504885001108,None,1201.1091171000153,None,1201.6149083003402,None,1201.6149083003402,None,f,0.5886689000762999,1201.6149083003402,None,,,NC22,001,2021_Nov_08_1619,ProdSingRedo,3.2.3,59.9407904410774,
,,,,55,0,55,0,,,,,,,,,,,,,,,,,,,,,,,,1206.6204043999314,None,,,,,,,,,,,,,,,,,track,silent,white,55,78,334,1202.7627725000493,None,1202.7627725000493,None,2,2.1370008001103997,1202.7627725000493,None,1204.9467090000398,None,1205.4592197001912,None,1205.4592197001912,None,f,1.1362638999707997,1205.4592197001912,None,,,NC22,001,2021_Nov_08_1619,ProdSingRedo,3.2.3,59.9407904410774,
,,,,56,0,56,0,,,,,,,,,,,,,,,,,,,,,,,,1210.3399718999863,None,,,,,,,,,,,,,,,,,reach,new_c,white,56,168,253,1207.1448818999343,None,1207.1448818999343,None,5,1.9307472999207675,1207.1448818999343,None,1209.1166886999272,None,1209.627927900292,None,1209.627927900292,None,f,0.679581199772656,1209.627927900292,None,,,NC22,001,2021_Nov_08_1619,ProdSingRedo,3.2.3,59.9407904410774,
,,,,57,0,57,0,,,,,,,,,,,,,,,,,,,,,,,,1213.810732100159,None,,,,,,,,,,,,,,,,,career,aloud,white,57,42,42,1210.8686132002622,None,1210.8686132002622,None,6,1.5268927002325654,1210.8686132002622,None,1212.4376595001668,None,1212.945608400274,None,1212.945608400274,None,f,0.8340650000609457,1212.945608400274,None,,,NC22,001,2021_Nov_08_1619,ProdSingRedo,3.2.3,59.9407904410774,
,,,,58,0,58,0,,,,,,,,,,,,,,,,,,,,,,,,1217.1322993999347,None,,,,,,,,,,,,,,,,,cousin,sing,white,58,2,76,1214.336754700169,None,1214.336754700169,None,6,1.5467265001498163,1214.336754700169,None,1215.9325363999233,None,1216.4480844000354,None,1216.4480844000354,None,f,0.6595630003139377,1216.4480844000354,None,,,NC22,001,2021_Nov_08_1619,ProdSingRedo,3.2.3,59.9407904410774,
,,,,59,0,59,0,,,,,,,,,,,,,,,,,,,,,,,,1220.1497264001518,None,,,,,,,,,,,,,,,,,dance,sing,white,59,16,84,1217.656064600218,None,1217.656064600218,None,6,1.2837514001876116,1217.656064600218,None,1218.9827796001919,None,1219.501260400284,None,1219.501260400284,None,f,0.6144028003327549,1219.501260400284,None,,,NC22,001,2021_Nov_08_1619,ProdSingRedo,3.2.3,59.9407904410774,
,,,,60,0,60,0,,,,,,,,,,,,,,,,,,,,,,,,1224.7717287000269,None,,,,,,,,,,,,,,,,,express,silent,white,60,83,124,1220.6713462001644,None,1220.6713462001644,None,3,2.9882983998395503,1220.6713462001644,None,1223.7010592999868,None,1224.2228785003535,None,1224.2228785003535,None,f,0.516750399954617,1224.2228785003535,None,,,NC22,001,2021_Nov_08_1619,ProdSingRedo,3.2.3,59.9407904410774,
,,,,61,0,61,0,,,,,,,,,,,,,,,,,,,,,,,,1228.1857734001242,None,,,,,,,,,,,,,,,,,display,aloud,white,61,45,98,1225.2999211000279,None,1225.2999211000279,None,5,1.6558571001514792,1225.2999211000279,None,1227.0258810999803,None,1227.547208300326,None,1227.547208300326,None,f,0.6160573000088334,1227.547208300326,None,,,NC22,001,2021_Nov_08_1619,ProdSingRedo,3.2.3,59.9407904410774,
,,,,62,0,62,0,,,,,,,,,,,,,,,,,,,,,,,,1233.9967813999392,None,,,,,,,,,,,,,,,,,comedy,aloud,white,62,49,58,1228.6857114001177,None,1228.6857114001177,None,6,2.1578587000258267,1228.6857114001177,None,1230.8884984999895,None,1231.3956480002962,None,1231.3956480002962,None,f,2.5679564997553825,1231.3956480002962,None,,,NC22,001,2021_Nov_08_1619,ProdSingRedo,3.2.3,59.9407904410774,
,,,,63,0,63,0,,,,,,,,,,,,,,,,,,,,,,,,1238.2680652001873,None,,,,,,,,,,,,,,,,,profession,silent,white,63,88,241,1234.5254061003216,None,1234.5254061003216,None,6,2.27016260009259,1234.5254061003216,None,1236.8300168002024,None,1237.354355700314,None,1237.354355700314,None,f,0.881264400202781,1237.354355700314,None,,,NC22,001,2021_Nov_08_1619,ProdSingRedo,3.2.3,59.9407904410774,
,,,,64,0,64,0,,,,,,,,,,,,,,,,,,,,,,,,1242.2050287001766,None,,,,,,,,,,,,,,,,,appeal,new_b,white,64,138,9,1238.7970942999236,None,1238.7970942999236,None,1,1.9825301002711058,1238.7970942999236,None,1240.8184850001708,None,1241.3253671000712,None,1241.3253671000712,None,n,0.84616390010342,1241.3253671000712,None,,,NC22,001,2021_Nov_08_1619,ProdSingRedo,3.2.3,59.9407904410774,
,,,,65,0,65,0,,,,,,,,,,,,,,,,,,,,,,,,1246.7026868001558,None,,,,,,,,,,,,,,,,,shape,silent,white,65,64,282,1242.7379081002437,None,1242.7379081002437,None,1,2.17020389996469,1242.7379081002437,None,1244.9543481003493,None,1245.4606274003163,None,1245.4606274003163,None,n,1.1988992998376489,1245.4606274003163,None,,,NC22,001,2021_Nov_08_1619,ProdSingRedo,3.2.3,59.9407904410774,
,,,,66,0,66,0,,,,,,,,,,,,,,,,,,,,,,,,1250.365451300051,None,,,,,,,,,,,,,,,,,trail,sing,white,66,8,336,1247.2183610000648,None,1247.2183610000648,None,3,1.8650333997793496,1247.2183610000648,None,1249.1264786999673,None,1249.6314390003681,None,1249.6314390003681,None,f,0.7000302001833916,1249.6314390003681,None,,,NC22,001,2021_Nov_08_1619,ProdSingRedo,3.2.3,59.9407904410774,
,,,,67,0,67,0,,,,,,,,,,,,,,,,,,,,,,,,1254.309480899945,None,,,,,,,,,,,,,,,,,machinery,new_a,white,67,118,175,1250.8942782003433,None,1250.8942782003433,None,1,2.2133794999681413,1250.8942782003433,None,1253.1560786003247,None,1253.6835457002744,None,1253.6835457002744,None,n,0.5924435001797974,1253.6835457002744,None,,,NC22,001,2021_Nov_08_1619,ProdSingRedo,3.2.3,59.9407904410774,
,,,,68,0,68,0,,,,,,,,,,,,,,,,,,,,,,,,1257.5544617003761,None,,,,,,,,,,,,,,,,,under,new_b,white,68,134,343,1254.8252244000323,None,1254.8252244000323,None,1,1.6984390998259187,1254.8252244000323,None,1256.5656856000423,None,1257.0889193001203,None,1257.0889193001203,None,n,0.4346944000571966,1257.0889193001203,None,,,NC22,001,2021_Nov_08_1619,ProdSingRedo,3.2.3,59.9407904410774,
,,,,69,0,69,0,,,,,,,,,,,,,,,,,,,,,,,,1261.7913452000357,None,,,,,,,,,,,,,,,,,blind,new_a,white,69,107,24,1258.077186500188,None,1258.077186500188,None,1,2.382413299754262,1258.077186500188,None,1260.5008865003474,None,1261.0105444001965,None,1261.0105444001965,None,n,0.7450447999872267,1261.0105444001965,None,,,NC22,001,2021_Nov_08_1619,ProdSingRedo,3.2.3,59.9407904410774,
,,,,70,0,70,0,,,,,,,,,,,,,,,,,,,,,,,,1264.8883899999782,None,,,,,,,,,,,,,,,,,theme,new_c,white,70,169,326,1262.3120206999592,None,1262.3120206999592,None,5,1.5476248003542423,1262.3120206999592,None,1263.9041162002832,None,1264.4101597000845,None,1264.4101597000845,None,f,0.44929050002247095,1264.4101597000845,None,,,NC22,001,2021_Nov_08_1619,ProdSingRedo,3.2.3,59.9407904410774,
,,,,71,0,71,0,,,,,,,,,,,,,,,,,,,,,,,,1268.8661990999244,None,,,,,,,,,,,,,,,,,oxygen,silent,white,71,79,209,1265.4081745999865,None,1265.4081745999865,None,5,2.355424900073558,1265.4081745999865,None,1267.8182112001814,None,1268.3357542003505,None,1268.3357542003505,None,f,0.5077221998944879,1268.3357542003505,None,,,NC22,001,2021_Nov_08_1619,ProdSingRedo,3.2.3,59.9407904410774,
,,,,72,0,72,0,,,,,,,,,,,,,,,,,,,,,,,,1272.7033299999312,None,,,,,,,,,,,,,,,,,block,silent,white,72,75,25,1269.3905776003376,None,1269.3905776003376,None,3,2.149045600090176,1269.3905776003376,None,1271.5850991001353,None,1272.1053321999498,None,1272.1053321999498,None,f,0.5624005999416113,1272.1053321999498,None,,,NC22,001,2021_Nov_08_1619,ProdSingRedo,3.2.3,59.9407904410774,
,,,,73,0,73,0,,,,,,,,,,,,,,,,,,,,,,,,1278.508921700064,None,,,,,,,,,,,,,,,,,mankind,new_a,white,73,110,178,1273.232686900068,None,1273.232686900068,None,1,2.0268826000392437,1273.232686900068,None,1275.3025394002907,None,1275.81686859997,None,1275.81686859997,None,n,2.6667883000336587,1275.81686859997,None,,,NC22,001,2021_Nov_08_1619,ProdSingRedo,3.2.3,59.9407904410774,
,,,,74,0,74,0,,,,,,,,,,,,,,,,,,,,,,,,1283.1246756003238,None,,,,,,,,,,,,,,,,,worker,aloud,white,74,40,356,1279.0373204001226,None,1279.0373204001226,None,5,2.8703622999601066,1279.0373204001226,None,1281.9587725000456,None,1282.4850821001455,None,1282.4850821001455,None,f,0.6143566998653114,1282.4850821001455,None,,,NC22,001,2021_Nov_08_1619,ProdSingRedo,3.2.3,59.9407904410774,
,,,,75,0,75,0,,,,,,,,,,,,,,,,,,,,,,,,1287.200661400333,None,,,,,,,,,,,,,,,,,thing,new_b,white,75,142,328,1283.6394127001986,None,1283.6394127001986,None,1,1.8921846002340317,1283.6394127001986,None,1285.5770868002437,None,1286.0930552002974,None,1286.0930552002974,None,n,1.0786202996969223,1286.0930552002974,None,,,NC22,001,2021_Nov_08_1619,ProdSingRedo,3.2.3,59.9407904410774,
,,,,76,0,76,0,,,,,,,,,,,,,,,,,,,,,,,,1291.1670953999273,None,,,,,,,,,,,,,,,,,little,silent,white,76,70,174,1287.72180390032,None,1287.72180390032,None,1,2.0577936000190675,1287.72180390032,None,1289.8114364999346,None,1290.3213769001886,None,1290.3213769001886,None,n,0.8179965000599623,1290.3213769001886,None,,,NC22,001,2021_Nov_08_1619,ProdSingRedo,3.2.3,59.9407904410774,
,,,,77,0,77,0,,,,,,,,,,,,,,,,,,,,,,,,1297.9959354000166,None,,,,,,,,,,,,,,,,,pancakes,new_a,white,77,103,210,1291.7094930000603,None,1291.7094930000603,None,3,4.733695199713111,1291.7094930000603,None,1296.4779708003625,None,1297.0008950000629,None,1297.0008950000629,None,f,0.9625901998952031,1297.0008950000629,None,,,NC22,001,2021_Nov_08_1619,ProdSingRedo,3.2.3,59.9407904410774,
,,,,78,0,78,0,,,,,,,,,,,,,,,,,,,,,,,,1302.4317248002626,None,,,,,,,,,,,,,,,,,leader,new_a,white,78,102,168,1298.5221621999517,None,1298.5221621999517,None,5,2.5215985998511314,1298.5221621999517,None,1301.0922384001315,None,1301.6012230999768,None,1301.6012230999768,None,f,0.7944022999145091,1301.6012230999768,None,,,NC22,001,2021_Nov_08_1619,ProdSingRedo,3.2.3,59.9407904410774,
,,,,79,0,79,0,,,,,,,,,,,,,,,,,,,,,,,,1307.0213299002498,None,,,,,,,,,,,,,,,,,brilliant,sing,white,79,28,30,1302.963282499928,None,1302.963282499928,None,6,2.360383199993521,1302.963282499928,None,1305.3721965001896,None,1305.8752174000256,None,1305.8752174000256,None,f,1.120447399560362,1305.8752174000256,None,,,NC22,001,2021_Nov_08_1619,ProdSingRedo,3.2.3,59.9407904410774,
,,,,80,0,80,0,,,,,,,,,,,,,,,,,,,,,,,,1311.292328500189,None,,,,,,,,,,,,,,,,,substance,sing,white,80,13,313,1307.5553550003096,None,1307.5553550003096,None,6,2.592283300124109,1307.5553550003096,None,1310.2008907999843,None,1310.71862910036,None,1310.71862910036,None,f,0.541010900400579,1310.71862910036,None,,,NC22,001,2021_Nov_08_1619,ProdSingRedo,3.2.3,59.9407904410774,
,,,,81,0,81,0,,,,,,,,,,,,,,,,,,,,,,,,1315.3813481000252,None,,,,,,,,,,,,,,,,,region,aloud,white,81,32,256,1311.8182169999927,None,1311.8182169999927,None,3,2.2574998000636697,1311.8182169999927,None,1314.126986599993,None,1314.6452745003626,None,1314.6452745003626,None,f,0.7103057000786066,1314.6452745003626,None,,,NC22,001,2021_Nov_08_1619,ProdSingRedo,3.2.3,59.9407904410774,
,,,,82,0,82,0,,,,,,,,,,,,,,,,,,,,,,,,1318.6148707000539,None,,,,,,,,,,,,,,,,,dispute,sing,white,82,11,99,1315.90550310025,None,1315.90550310025,None,6,1.522164599969983,1315.90550310025,None,1317.4742672001012,None,1317.9850248000585,None,1317.9850248000585,None,f,0.5946137001737952,1317.9850248000585,None,,,NC22,001,2021_Nov_08_1619,ProdSingRedo,3.2.3,59.9407904410774,
,,,,83,0,83,0,,,,,,,,,,,,,,,,,,,,,,,,1321.8686600001529,None,,,,,,,,,,,,,,,,,voice,silent,white,83,82,348,1319.1394257000647,None,1319.1394257000647,None,1,1.528104200027883,1319.1394257000647,None,1320.7140148002654,None,1321.2187475999817,None,1321.2187475999817,None,n,0.6250790003687143,1321.2187475999817,None,,,NC22,001,2021_Nov_08_1619,ProdSingRedo,3.2.3,59.9407904410774,
,,,,84,0,84,0,,,,,,,,,,,,,,,,,,,,,,,,1325.5887290001847,None,,,,,,,,,,,,,,,,,symbol,new_c,white,84,150,321,1322.3943672003224,None,1322.3943672003224,None,1,1.8572808001190424,1322.3943672003224,None,1324.30492650019,None,1324.8271943000145,None,1324.8271943000145,None,n,0.7364817000925541,1324.8271943000145,None,,,NC22,001,2021_Nov_08_1619,ProdSingRedo,3.2.3,59.9407904410774,
,,,,85,0,85,0,,,,,,,,,,,,,,,,,,,,,,,,1329.6258479002863,None,,,,,,,,,,,,,,,,,listen,silent,white,85,62,172,1326.0997472000308,None,1326.0997472000308,None,5,1.6560897999443114,1326.0997472000308,None,1327.8023218000308,None,1328.3154406999238,None,1328.3154406999238,None,f,1.2724868999794126,1328.3154406999238,None,,,NC22,001,2021_Nov_08_1619,ProdSingRedo,3.2.3,59.9407904410774,
,,,,86,0,86,0,,,,,,,,,,,,,,,,,,,,,,,,1335.0663382001221,None,,,,,,,,,,,,,,,,,store,new_c,white,86,161,305,1330.1494823000394,None,1330.1494823000394,None,2,1.9260959001258016,1330.1494823000394,None,1332.121334800031,None,1332.6296703000553,None,1332.6296703000553,None,n,2.4139031996019185,1332.6296703000553,None,,,NC22,001,2021_Nov_08_1619,ProdSingRedo,3.2.3,59.9407904410774,
,,,,87,0,87,0,,,,,,,,,,,,,,,,,,,,,,,,1341.6555203003809,None,,,,,,,,,,,,,,,,,state,new_a,white,87,108,303,1335.5886222003028,None,1335.5886222003028,None,1,4.887120199855417,1335.5886222003028,None,1340.521689500194,None,1341.0405030003749,None,1341.0405030003749,None,n,0.5793254999443889,1341.0405030003749,None,,,NC22,001,2021_Nov_08_1619,ProdSingRedo,3.2.3,59.9407904410774,
,,,,88,0,88,0,,,,,,,,,,,,,,,,,,,,,,,,1345.0753104002215,None,,,,,,,,,,,,,,,,,music,silent,white,88,61,196,1342.1797643001191,None,1342.1797643001191,None,4,1.6719005997292697,1342.1797643001191,None,1343.8886351003312,None,1344.3926632003859,None,1344.3926632003859,None,f,0.6509438999928534,1344.3926632003859,None,,,NC22,001,2021_Nov_08_1619,ProdSingRedo,3.2.3,59.9407904410774,
,,,,89,0,89,0,,,,,,,,,,,,,,,,,,,,,,,,1348.845667900052,None,,,,,,,,,,,,,,,,,union,new_c,white,89,172,344,1345.599802700337,None,1345.599802700337,None,4,1.8677226998843253,1345.599802700337,None,1347.51830060035,None,1348.0298732002266,None,1348.0298732002266,None,f,0.7818022002466023,1348.0298732002266,None,,,NC22,001,2021_Nov_08_1619,ProdSingRedo,3.2.3,59.9407904410774,
,,,,90,0,90,0,,,,,,,,,,,,,,,,,,,,,,,,1352.2495420002379,None,,,,,,,,,,,,,,,,,goose,new_a,white,90,112,138,1349.376137400046,None,1349.376137400046,None,1,1.7636285000480711,1349.376137400046,None,1351.1785226999782,None,1351.6982233999297,None,1351.6982233999297,None,n,0.5135023999027908,1351.6982233999297,None,,,NC22,001,2021_Nov_08_1619,ProdSingRedo,3.2.3,59.9407904410774,
,,,,91,0,91,0,,,,,,,,,,,,,,,,,,,,,,,,1355.3891813000664,None,,,,,,,,,,,,,,,,,burden,silent,white,91,71,36,1352.7687899000011,None,1352.7687899000011,None,6,1.6026936997659504,1352.7687899000011,None,1354.4300366002135,None,1354.9284764002077,None,1354.9284764002077,None,f,0.42698110034689307,1354.9284764002077,None,,,NC22,001,2021_Nov_08_1619,ProdSingRedo,3.2.3,59.9407904410774,
,,,,92,0,92,0,,,,,,,,,,,,,,,,,,,,,,,,1358.8901754003018,None,,,,,,,,,,,,,,,,,people,sing,white,92,19,216,1355.89601280028,None,1355.89601280028,None,6,2.1077018002979457,1355.89601280028,None,1358.0495476000942,None,1358.5574743002653,None,1358.5574743002653,None,f,0.2939789001829922,1358.5574743002653,None,,,NC22,001,2021_Nov_08_1619,ProdSingRedo,3.2.3,59.9407904410774,
,,,,93,0,93,0,,,,,,,,,,,,,,,,,,,,,,,,1362.3752608001232,None,,,,,,,,,,,,,,,,,citizen,new_b,white,93,126,50,1359.4258222002536,None,1359.4258222002536,None,4,1.6257981001399457,1359.4258222002536,None,1361.0884332000278,None,1361.5971337999217,None,1361.5971337999217,None,f,0.7426344999112189,1361.5971337999217,None,,,NC22,001,2021_Nov_08_1619,ProdSingRedo,3.2.3,59.9407904410774,
,,,,94,0,94,0,,,,,,,,,,,,,,,,,,,,,,,,1366.2454919000156,None,,,,,,,,,,,,,,,,,period,new_c,white,94,175,217,1362.8989599002525,None,1362.8989599002525,None,1,1.6406445000320673,1362.8989599002525,None,1364.5736640002578,None,1365.0781522002071,None,1365.0781522002071,None,n,1.1416437001898885,1365.0781522002071,None,,,NC22,001,2021_Nov_08_1619,ProdSingRedo,3.2.3,59.9407904410774,
,,,,95,0,95,0,,,,,,,,,,,,,,,,,,,,,,,,1370.1001818003133,None,,,,,,,,,,,,,,,,,device,new_c,white,95,163,93,1366.7723191003315,None,1366.7723191003315,None,1,2.255317499861121,1366.7723191003315,None,1369.0677140001208,None,1369.5845564999618,None,1369.5845564999618,None,n,0.4831107002682984,1369.5845564999618,None,,,NC22,001,2021_Nov_08_1619,ProdSingRedo,3.2.3,59.9407904410774,
,,,,96,0,96,0,,,,,,,,,,,,,,,,,,,,,,,,1376.0575435003266,None,,,,,,,,,,,,,,,,,member,aloud,white,96,50,188,1370.6255618999712,None,1370.6255618999712,None,4,2.210212300065905,1370.6255618999712,None,1372.8874948001467,None,1373.4062161999755,None,1373.4062161999755,None,f,2.6215021000243723,1373.4062161999755,None,,,NC22,001,2021_Nov_08_1619,ProdSingRedo,3.2.3,59.9407904410774,
,,,,97,0,97,0,,,,,,,,,,,,,,,,,,,,,,,,1382.1460962002166,None,,,,,,,,,,,,,,,,,executive,new_b,white,97,141,122,1376.5871843001805,None,1376.5871843001805,None,5,4.512418699916452,1376.5871843001805,None,1381.150760800112,None,1381.6680036000907,None,1381.6680036000907,None,f,0.45564889954403043,1381.6680036000907,None,,,NC22,001,2021_Nov_08_1619,ProdSingRedo,3.2.3,59.9407904410774,
,,,,98,0,98,0,,,,,,,,,,,,,,,,,,,,,,,,1386.6490111001767,None,,,,,,,,,,,,,,,,,provision,new_c,white,98,157,243,1382.6745299999602,None,1382.6745299999602,None,1,2.7451447998173535,1382.6745299999602,None,1385.468220199924,None,1385.9761670003645,None,1385.9761670003645,None,n,0.6435352000407875,1385.9761670003645,None,,,NC22,001,2021_Nov_08_1619,ProdSingRedo,3.2.3,59.9407904410774,
,,,,99,0,99,0,,,,,,,,,,,,,,,,,,,,,,,,1390.0043712002225,None,,,,,,,,,,,,,,,,,signal,new_a,white,99,93,287,1387.1806668001227,None,1387.1806668001227,None,1,1.9590046997182071,1387.1806668001227,None,1389.1888627000153,None,1389.6948966002092,None,1389.6948966002092,None,n,0.27679589996114373,1389.6948966002092,None,,,NC22,001,2021_Nov_08_1619,ProdSingRedo,3.2.3,59.9407904410774,
,,,,100,0,100,0,,,,,,,,,,,,,,,,,,,,,,,,1393.8242132002488,None,,,,,,,,,,,,,,,,,literature,sing,white,100,3,173,1390.5365290003829,None,1390.5365290003829,None,3,1.8671448999084532,1390.5365290003829,None,1392.4636818999425,None,1392.980756700039,None,1392.980756700039,None,f,0.8149357996881008,1392.980756700039,None,,,NC22,001,2021_Nov_08_1619,ProdSingRedo,3.2.3,59.9407904410774,
,,,,101,0,101,0,,,,,,,,,,,,,,,,,,,,,,,,1399.096080600284,None,,,,,,,,,,,,,,,,,health,new_a,white,101,116,149,1394.3510524001904,None,1394.3510524001904,None,1,3.292600800283253,1394.3510524001904,None,1397.6893995003775,None,1398.200759800151,None,1398.200759800151,None,n,0.866880000103265,1398.200759800151,None,,,NC22,001,2021_Nov_08_1619,ProdSingRedo,3.2.3,59.9407904410774,
,,,,102,0,102,0,,,,,,,,,,,,,,,,,,,,,,,,1404.5242409002967,None,,,,,,,,,,,,,,,,,speech,new_a,white,102,99,298,1399.619867300149,None,1399.619867300149,None,3,3.5118905999697745,1399.619867300149,None,1403.1772774001583,None,1403.6829776000232,None,1403.6829776000232,None,f,0.8088119998574257,1403.6829776000232,None,,,NC22,001,2021_Nov_08_1619,ProdSingRedo,3.2.3,59.9407904410774,
,,,,103,0,103,0,,,,,,,,,,,,,,,,,,,,,,,,1408.5774445999414,None,,,,,,,,,,,,,,,,,rough,new_b,white,103,147,266,1405.046460499987,None,1405.046460499987,None,5,2.389208400156349,1405.046460499987,None,1407.4847937999293,None,1408.0032914001495,None,1408.0032914001495,None,f,0.5443604998290539,1408.0032914001495,None,,,NC22,001,2021_Nov_08_1619,ProdSingRedo,3.2.3,59.9407904410774,
,,,,104,0,104,0,,,,,,,,,,,,,,,,,,,,,,,,1413.16093620006,None,,,,,,,,,,,,,,,,,master,silent,white,104,74,180,1409.0977136003785,None,1409.0977136003785,None,5,3.025816800072789,1409.0977136003785,None,1412.1747686001472,None,1412.6788988001645,None,1412.6788988001645,None,f,0.45285060023888946,1412.6788988001645,None,,,NC22,001,2021_Nov_08_1619,ProdSingRedo,3.2.3,59.9407904410774,
,,,,105,0,105,0,,,,,,,,,,,,,,,,,,,,,,,,1416.1228439002298,None,,,,,,,,,,,,,,,,,science,new_b,white,105,132,275,1413.6797731001861,None,1413.6797731001861,None,1,1.6280903001315892,1413.6797731001861,None,1415.3550142999738,None,1415.8559901001863,None,1415.8559901001863,None,n,0.25125279976055026,1415.8559901001863,None,,,NC22,001,2021_Nov_08_1619,ProdSingRedo,3.2.3,59.9407904410774,
,,,,106,0,106,0,,,,,,,,,,,,,,,,,,,,,,,,1420.3379016001709,None,,,,,,,,,,,,,,,,,recall,aloud,white,106,56,255,1416.6283134999685,None,1416.6283134999685,None,1,2.991217600181699,1416.6283134999685,None,1419.6583428001031,None,1420.1705062002875,None,1420.1705062002875,None,n,0.1371557000093162,1420.1705062002875,None,,,NC22,001,2021_Nov_08_1619,ProdSingRedo,3.2.3,59.9407904410774,
,,,,107,0,107,0,,,,,,,,,,,,,,,,,,,,,,,,1424.5375307002105,None,,,,,,,,,,,,,,,,,appearance,new_b,white,107,136,10,1420.8656244003214,None,1420.8656244003214,None,5,2.2659340002574027,1420.8656244003214,None,1423.175776600372,None,1423.6780644999817,None,1423.6780644999817,None,f,0.8379889000207186,1423.6780644999817,None,,,NC22,001,2021_Nov_08_1619,ProdSingRedo,3.2.3,59.9407904410774,
,,,,108,0,108,0,,,,,,,,,,,,,,,,,,,,,,,,1427.9239890002646,None,,,,,,,,,,,,,,,,,narrow,aloud,white,108,30,197,1425.066106100101,None,1425.066106100101,None,1,1.6255545997992158,1425.066106100101,None,1426.746016100049,None,1427.262148400303,None,1427.262148400303,None,n,0.6296610999852419,1427.262148400303,None,,,NC22,001,2021_Nov_08_1619,ProdSingRedo,3.2.3,59.9407904410774,
,,,,109,0,109,0,,,,,,,,,,,,,,,,,,,,,,,,1432.0951799000613,None,,,,,,,,,,,,,,,,,space,new_b,white,109,144,297,1428.4505932000466,None,1428.4505932000466,None,1,2.833169000223279,1428.4505932000466,None,1431.3280373001471,None,1431.829625500366,None,1431.829625500366,None,n,0.23817719984799623,1431.829625500366,None,,,NC22,001,2021_Nov_08_1619,ProdSingRedo,3.2.3,59.9407904410774,
,,,,110,0,110,0,,,,,,,,,,,,,,,,,,,,,,,,1439.485966200009,None,,,,,,,,,,,,,,,,,income,new_c,white,110,164,159,1432.6200156002305,None,1432.6200156002305,None,3,5.967706200201064,1432.6200156002305,None,1438.632634300273,None,1439.151483700145,None,1439.151483700145,None,f,0.30032190028578043,1439.151483700145,None,,,NC22,001,2021_Nov_08_1619,ProdSingRedo,3.2.3,59.9407904410774,
,,,,111,0,111,0,,,,,,,,,,,,,,,,,,,,,,,,1446.3530960003845,None,,,,,,,,,,,,,,,,,break,new_b,white,111,125,26,1440.01489030011,None,1440.01489030011,None,5,5.0768535998649895,1440.01489030011,None,1445.1432713000104,None,1445.6486586001702,None,1445.6486586001702,None,f,0.6826669001020491,1445.6486586001702,None,,,NC22,001,2021_Nov_08_1619,ProdSingRedo,3.2.3,59.9407904410774,
,,,,112,0,112,0,,,,,,,,,,,,,,,,,,,,,,,,1450.030467200093,None,,,,,,,,,,,,,,,,,engineer,new_c,white,112,171,114,1446.8731659003533,None,1446.8731659003533,None,5,2.090371100232005,1446.8731659003533,None,1449.0122543000616,None,1449.522973400075,None,1449.522973400075,None,f,0.48080419981852174,1449.522973400075,None,,,NC22,001,2021_Nov_08_1619,ProdSingRedo,3.2.3,59.9407904410774,
,,,,113,0,113,0,,,,,,,,,,,,,,,,,,,,,,,,1453.3660396002233,None,,,,,,,,,,,,,,,,,figure,silent,white,113,86,128,1450.561081700027,None,1450.561081700027,None,1,1.850784100126475,1450.561081700027,None,1452.4684815001674,None,1452.9878946002573,None,1452.9878946002573,None,n,0.3439595000818372,1452.9878946002573,None,,,NC22,001,2021_Nov_08_1619,ProdSingRedo,3.2.3,59.9407904410774,
,,,,114,0,114,0,,,,,,,,,,,,,,,,,,,,,,,,1457.2041164999828,None,,,,,,,,,,,,,,,,,evidence,sing,white,114,1,120,1453.892764300108,None,1453.892764300108,None,6,2.4710682998411357,1453.892764300108,None,1456.3985600001179,None,1456.9098261003383,None,1456.9098261003383,None,f,0.2618336002342403,1456.9098261003383,None,,,NC22,001,2021_Nov_08_1619,ProdSingRedo,3.2.3,59.9407904410774,
,,,,115,0,115,0,,,,,,,,,,,,,,,,,,,,,,,,1459.9744700002484,None,,,,,,,,,,,,,,,,,fight,new_c,white,115,154,127,1457.7436852003448,None,1457.7436852003448,None,1,1.540239400230348,1457.7436852003448,None,1459.3198052002117,None,1459.8432857003063,None,1459.8432857003063,None,n,0.10448870016261935,1459.8432857003063,None,,,NC22,001,2021_Nov_08_1619,ProdSingRedo,3.2.3,59.9407904410774,
,,,,116,0,116,0,,,,,,,,,,,,,,,,,,,,,,,,1468.6652905000374,None,,,,,,,,,,,,,,,,,number,silent,white,116,72,203,1460.503910700325,None,1460.503910700325,None,3,6.40412459988147,1460.503910700325,None,1466.9504490001127,None,1467.469066500198,None,1467.469066500198,None,f,1.1587801999412477,1467.469066500198,None,,,NC22,001,2021_Nov_08_1619,ProdSingRedo,3.2.3,59.9407904410774,
,,,,117,0,117,0,,,,,,,,,,,,,,,,,,,,,,,,1473.5529355001636,None,,,,,,,,,,,,,,,,,childhood,new_c,white,117,152,49,1469.1908911000937,None,1469.1908911000937,None,4,3.1648479998111725,1469.1908911000937,None,1472.398260100279,None,1472.9019051999785,None,1472.9019051999785,None,f,0.6138873002491891,1472.9019051999785,None,,,NC22,001,2021_Nov_08_1619,ProdSingRedo,3.2.3,59.9407904410774,
,,,,118,0,118,0,,,,,,,,,,,,,,,,,,,,,,,,1477.823956400156,None,,,,,,,,,,,,,,,,,comfort,new_c,white,118,173,59,1474.0808654003777,None,1474.0808654003777,None,1,2.770795200020075,1474.0808654003777,None,1476.8845627000555,None,1477.3958308999427,None,1477.3958308999427,None,n,0.3918881001882255,1477.3958308999427,None,,,NC22,001,2021_Nov_08_1619,ProdSingRedo,3.2.3,59.9407904410774,
,,,,119,0,119,0,,,,,,,,,,,,,,,,,,,,,,,,1481.8792348001152,None,,,,,,,,,,,,,,,,,search,sing,white,119,6,276,1478.3582794000395,None,1478.3582794000395,None,3,2.605437000282109,1478.3582794000395,None,1481.007273599971,None,1481.5050797001459,None,1481.5050797001459,None,f,0.33878640038892627,1481.5050797001459,None,,,NC22,001,2021_Nov_08_1619,ProdSingRedo,3.2.3,59.9407904410774,
,,,,120,0,120,0,,,,,,,,,,,,,,,,,,,,,,,,1485.648760900367,None,,,,,,,,,,,,,,,,,production,new_c,white,120,165,240,1482.4050720003434,None,1482.4050720003434,None,1,2.1668094000779092,1482.4050720003434,None,1484.617794800084,None,1485.135838100221,None,1485.135838100221,None,n,0.4840443003922701,1485.135838100221,None,,,NC22,001,2021_Nov_08_1619,ProdSingRedo,3.2.3,59.9407904410774,
,,,,121,0,121,0,,,,,,,,,,,,,,,,,,,,,,,,1489.8740789000876,None,,,,,,,,,,,,,,,,,curve,new_b,white,121,145,82,1486.1751164002344,None,1486.1751164002344,None,1,2.9884835998527706,1486.1751164002344,None,1489.2047414002009,None,1489.7069198000245,None,1489.7069198000245,None,n,0.12882589967921376,1489.7069198000245,None,,,NC22,001,2021_Nov_08_1619,ProdSingRedo,3.2.3,59.9407904410774,
,,,,122,0,122,0,,,,,,,,,,,,,,,,,,,,,,,,1493.3224973999895,None,,,,,,,,,,,,,,,,,bitter,new_a,white,122,97,23,1490.3999920999631,None,1490.3999920999631,None,4,2.2438837997615337,1490.3999920999631,None,1492.6864383001812,None,1493.1943602003157,None,1493.1943602003157,None,f,0.0973577001132071,1493.1943602003157,None,,,NC22,001,2021_Nov_08_1619,ProdSingRedo,3.2.3,59.9407904410774,
,,,,123,0,123,0,,,,,,,,,,,,,,,,,,,,,,,,1497.2620943002403,None,,,,,,,,,,,,,,,,,guard,new_a,white,123,92,145,1493.8483405001462,None,1493.8483405001462,None,3,2.1954120001755655,1493.8483405001462,None,1496.0921005001292,None,1496.6137145003304,None,1496.6137145003304,None,f,0.6143789999186993,1496.6137145003304,None,,,NC22,001,2021_Nov_08_1619,ProdSingRedo,3.2.3,59.9407904410774,
,,,,124,0,124,0,,,,,,,,,,,,,,,,,,,,,,,,1501.081386799924,None,,,,,,,,,,,,,,,,,beauty,sing,white,124,27,18,1497.7916495003738,None,1497.7916495003738,None,6,1.6760064996778965,1497.7916495003738,None,1499.5190519001335,None,1500.0173053001054,None,1500.0173053001054,None,f,1.0424955999478698,1500.0173053001054,None,,,NC22,001,2021_Nov_08_1619,ProdSingRedo,3.2.3,59.9407904410774,
,,,,125,0,125,0,,,,,,,,,,,,,,,,,,,,,,,,1504.7675654999912,None,,,,,,,,,,,,,,,,,clean,new_b,white,125,137,51,1501.6040108003654,None,1501.6040108003654,None,3,1.8637683000415564,1501.6040108003654,None,1503.5186844002455,None,1504.041411000304,None,1504.041411000304,None,f,0.6904878998175263,1504.041411000304,None,,,NC22,001,2021_Nov_08_1619,ProdSingRedo,3.2.3,59.9407904410774,
,,,,126,0,126,0,,,,,,,,,,,,,,,,,,,,,,,,1507.8388435002416,None,,,,,,,,,,,,,,,,,cover,sing,white,126,4,77,1505.2930021001957,None,1505.2930021001957,None,1,1.5588201000355184,1505.2930021001957,None,1506.900709300302,None,1507.4215791001916,None,1507.4215791001916,None,n,0.39024800015613437,1507.4215791001916,None,,,NC22,001,2021_Nov_08_1619,ProdSingRedo,3.2.3,59.9407904410774,
,,,,127,0,127,0,,,,,,,,,,,,,,,,,,,,,,,,1512.0585537003353,None,,,,,,,,,,,,,,,,,spoke,sing,white,127,12,300,1508.3640478001907,None,1508.3640478001907,None,2,2.671628199983388,1508.3640478001907,None,1511.0668216003105,None,1511.5787229002453,None,1511.5787229002453,None,n,0.457054799888283,1511.5787229002453,None,,,NC22,001,2021_Nov_08_1619,ProdSingRedo,3.2.3,59.9407904410774,
,,,,128,0,128,0,,,,,,,,,,,,,,,,,,,,,,,,1518.0825901003554,None,,,,,,,,,,,,,,,,,novel,aloud,white,128,59,202,1512.5826930999756,None,1512.5826930999756,None,5,4.581179500091821,1512.5826930999756,None,1517.2080200002529,None,1517.7157304002903,None,1517.7157304002903,None,f,0.33645900012925267,1517.7157304002903,None,,,NC22,001,2021_Nov_08_1619,ProdSingRedo,3.2.3,59.9407904410774,
,,,,129,0,129,0,,,,,,,,,,,,,,,,,,,,,,,,1522.6537117999978,None,,,,,,,,,,,,,,,,,court,sing,white,129,20,75,1518.605320900213,None,1518.605320900213,None,5,2.5343824001029134,1518.605320900213,None,1521.1858737003058,None,1521.7042374000885,None,1521.7042374000885,None,f,0.9237206997349858,1521.7042374000885,None,,,NC22,001,2021_Nov_08_1619,ProdSingRedo,3.2.3,59.9407904410774,
,,,,130,0,130,0,,,,,,,,,,,,,,,,,,,,,,,,1525.9737837002613,None,,,,,,,,,,,,,,,,,material,new_b,white,130,143,182,1523.1795988003723,None,1523.1795988003723,None,1,1.9840425997972488,1523.1795988003723,None,1525.1995643000118,None,1525.7106079999357,None,1525.7106079999357,None,n,0.2291867001913488,1525.7106079999357,None,,,NC22,001,2021_Nov_08_1619,ProdSingRedo,3.2.3,59.9407904410774,
,,,,131,0,131,0,,,,,,,,,,,,,,,,,,,,,,,,1535.565818300005,None,,,,,,,,,,,,,,,,,platform,aloud,white,131,53,224,1526.5045082001016,None,1526.5045082001016,None,3,8.043360299896449,1526.5045082001016,None,1534.599093500059,None,1535.10611290019,None,1535.10611290019,None,f,0.43370720045641065,1535.10611290019,None,,,NC22,001,2021_Nov_08_1619,ProdSingRedo,3.2.3,59.9407904410774,
,,,,132,0,132,0,,,,,,,,,,,,,,,,,,,,,,,,1539.6689443001524,None,,,,,,,,,,,,,,,,,running,new_c,white,132,179,268,1536.0762068000622,None,1536.0762068000622,None,1,2.543514700140804,1536.0762068000622,None,1538.6695912000723,None,1539.191527900286,None,1539.191527900286,None,n,0.44421719992533326,1539.191527900286,None,,,NC22,001,2021_Nov_08_1619,ProdSingRedo,3.2.3,59.9407904410774,
,,,,133,0,133,0,,,,,,,,,,,,,,,,,,,,,,,,1552.832297900226,None,,,,,,,,,,,,,,,,,series,new_b,white,133,121,279,1540.1900822003372,None,1540.1900822003372,None,1,8.045750900171697,1540.1900822003372,None,1548.2733363001607,None,1548.7798157003708,None,1548.7798157003708,None,r,4.016157200094312,1548.7798157003708,None,,,NC22,001,2021_Nov_08_1619,ProdSingRedo,3.2.3,59.9407904410774,
,,,,134,0,134,0,,,,,,,,,,,,,,,,,,,,,,,,1561.9422617000528,None,,,,,,,,,,,,,,,,,guide,new_c,white,134,167,147,1553.3548627002165,None,1553.3548627002165,None,6,7.192994500044733,1553.3548627002165,None,1560.5874935002066,None,1561.1115377000533,None,1561.1115377000533,None,f,0.7962333997711539,1561.1115377000533,None,,,NC22,001,2021_Nov_08_1619,ProdSingRedo,3.2.3,59.9407904410774,
,,,,135,0,135,0,,,,,,,,,,,,,,,,,,,,,,,,1567.0805790000595,None,,,,,,,,,,,,,,,,,growth,new_b,white,135,135,144,1562.4733105003834,None,1562.4733105003834,None,6,3.5541737000457942,1562.4733105003834,None,1566.056052800268,None,1566.5568164000288,None,1566.5568164000288,None,r,0.49518389999866486,1566.5568164000288,None,,,NC22,001,2021_Nov_08_1619,ProdSingRedo,3.2.3,59.9407904410774,
,,,,136,0,136,0,,,,,,,,,,,,,,,,,,,,,,,,1572.5531812002882,None,,,,,,,,,,,,,,,,,orchestra,aloud,white,136,54,206,1567.6053120000288,None,1567.6053120000288,None,6,4.198605000041425,1567.6053120000288,None,1571.85462810006,None,1572.3723740000278,None,1572.3723740000278,None,f,0.14349349960684776,1572.3723740000278,None,,,NC22,001,2021_Nov_08_1619,ProdSingRedo,3.2.3,59.9407904410774,
,,,,137,0,137,0,,,,,,,,,,,,,,,,,,,,,,,,1576.8750583003275,None,,,,,,,,,,,,,,,,,generation,aloud,white,137,44,136,1573.0746311000548,None,1573.0746311000548,None,6,2.041513600386679,1573.0746311000548,None,1575.157551200129,None,1575.6790358000435,None,1575.6790358000435,None,f,1.1727849999442697,1575.6790358000435,None,,,NC22,001,2021_Nov_08_1619,ProdSingRedo,3.2.3,59.9407904410774,
,,,,138,0,138,0,,,,,,,,,,,,,,,,,,,,,,,,1580.528866900131,None,,,,,,,,,,,,,,,,,front,new_a,white,138,114,134,1577.3995159999467,None,1577.3995159999467,None,1,2.148200700059533,1577.3995159999467,None,1579.5923444000073,None,1580.1109035001136,None,1580.1109035001136,None,n,0.38102929992601275,1580.1109035001136,None,,,NC22,001,2021_Nov_08_1619,ProdSingRedo,3.2.3,59.9407904410774,
,,,,139,0,139,0,,,,,,,,,,,,,,,,,,,,,,,,1585.7492177002132,None,,,,,,,,,,,,,,,,,straight,aloud,white,139,55,307,1581.0529499002732,None,1581.0529499002732,None,3,3.462860899977386,1581.0529499002732,None,1584.5715125002898,None,1585.0914187999442,None,1585.0914187999442,None,f,0.6325690997764468,1585.0914187999442,None,,,NC22,001,2021_Nov_08_1619,ProdSingRedo,3.2.3,59.9407904410774,
,,,,140,0,140,0,,,,,,,,,,,,,,,,,,,,,,,,1588.747009899933,None,,,,,,,,,,,,,,,,,attack,aloud,white,140,37,13,1586.2772481003776,None,1586.2772481003776,None,1,1.8064019000157714,1586.2772481003776,None,1588.1376530001871,None,1588.6287544001825,None,1588.6287544001825,None,n,0.08671090006828308,1588.6287544001825,None,,,NC22,001,2021_Nov_08_1619,ProdSingRedo,3.2.3,59.9407904410774,
,,,,141,0,141,0,,,,,,,,,,,,,,,,,,,,,,,,1592.3887665001675,None,,,,,,,,,,,,,,,,,balance,sing,white,141,29,17,1589.265373500064,None,1589.265373500064,None,4,1.954626000020653,1589.265373500064,None,1591.2751881000586,None,1591.79164460022,None,1591.79164460022,None,f,0.5722953001968563,1591.79164460022,None,,,NC22,001,2021_Nov_08_1619,ProdSingRedo,3.2.3,59.9407904410774,
,,,,142,0,142,0,,,,,,,,,,,,,,,,,,,,,,,,1599.5127918003127,None,,,,,,,,,,,,,,,,,month,aloud,white,142,46,193,1592.911517499946,None,1592.911517499946,None,6,5.428440799936652,1592.911517499946,None,1598.3729084003717,None,1598.8768259999342,None,1598.8768259999342,None,f,0.6069902000017464,1598.8768259999342,None,,,NC22,001,2021_Nov_08_1619,ProdSingRedo,3.2.3,59.9407904410774,
,,,,143,0,143,0,,,,,,,,,,,,,,,,,,,,,,,,1604.9782096999697,None,,,,,,,,,,,,,,,,,territory,new_a,white,143,94,324,1600.0361525001936,None,1600.0361525001936,None,3,3.9513317001983523,1600.0361525001936,None,1604.011263700202,None,1604.5112993000075,None,1604.5112993000075,None,f,0.452210099902004,1604.5112993000075,None,,,NC22,001,2021_Nov_08_1619,ProdSingRedo,3.2.3,59.9407904410774,
,,,,144,0,144,0,,,,,,,,,,,,,,,,,,,,,,,,1610.5576339000836,None,,,,,,,,,,,,,,,,,center,new_b,white,144,149,44,1605.4789527002722,None,1605.4789527002722,None,1,3.636791800148785,1605.4789527002722,None,1609.15128870029,None,1609.6552439001389,None,1609.6552439001389,None,n,0.8686235998757184,1609.6552439001389,None,,,NC22,001,2021_Nov_08_1619,ProdSingRedo,3.2.3,59.9407904410774,
,,,,145,0,145,0,,,,,,,,,,,,,,,,,,,,,,,,1617.381023700349,None,,,,,,,,,,,,,,,,,service,new_a,white,145,104,280,1611.0845323000103,None,1611.0845323000103,None,3,5.455289299599826,1611.0845323000103,None,1616.5910930000246,None,1617.1001860001124,None,1617.1001860001124,None,f,0.24768179981037974,1617.1001860001124,None,,,NC22,001,2021_Nov_08_1619,ProdSingRedo,3.2.3,59.9407904410774,
,,,,146,0,146,0,,,,,,,,,,,,,,,,,,,,,,,,1622.4852505000308,None,,,,,,,,,,,,,,,,,quantity,new_b,white,146,129,245,1617.9107079999521,None,1617.9107079999521,None,1,3.5571317998692393,1617.9107079999521,None,1621.5231237001717,None,1622.040590400342,None,1622.040590400342,None,n,0.4112078002654016,1622.040590400342,None,,,NC22,001,2021_Nov_08_1619,ProdSingRedo,3.2.3,59.9407904410774,
,,,,147,0,147,0,,,,,,,,,,,,,,,,,,,,,,,,1626.873019900173,None,,,,,,,,,,,,,,,,,color,new_c,white,147,160,56,1623.0059188003652,None,1623.0059188003652,None,6,2.77351319976151,1623.0059188003652,None,1625.806874900125,None,1626.3165144002996,None,1626.3165144002996,None,f,0.5194795997813344,1626.3165144002996,None,,,NC22,001,2021_Nov_08_1619,ProdSingRedo,3.2.3,59.9407904410774,
,,,,148,0,148,0,,,,,,,,,,,,,,,,,,,,,,,,1631.4285781001672,None,,,,,,,,,,,,,,,,,review,new_a,white,148,113,263,1627.401263100095,None,1627.401263100095,None,2,2.434554999694228,1627.401263100095,None,1629.878862600308,None,1630.3983527999371,None,1630.3983527999371,None,n,0.9973925002850592,1630.3983527999371,None,,,NC22,001,2021_Nov_08_1619,ProdSingRedo,3.2.3,59.9407904410774,
,,,,149,0,149,0,,,,,,,,,,,,,,,,,,,,,,,,1638.3703312003054,None,,,,,,,,,,,,,,,,,council,silent,white,149,85,71,1631.9575602002442,None,1631.9575602002442,None,5,5.126312899868935,1631.9575602002442,None,1637.126939699985,None,1637.6381347002462,None,1637.6381347002462,None,f,0.7017648997716606,1637.6381347002462,None,,,NC22,001,2021_Nov_08_1619,ProdSingRedo,3.2.3,59.9407904410774,
,,,,150,0,150,0,,,,,,,,,,,,,,,,,,,,,,,,1644.3258202001452,None,,,,,,,,,,,,,,,,,strain,aloud,white,150,41,308,1638.8952446002513,None,1638.8952446002513,None,1,4.332566200289875,1638.8952446002513,None,1643.2704416001216,None,1643.7939936001785,None,1643.7939936001785,None,n,0.4978984999470413,1643.7939936001785,None,,,NC22,001,2021_Nov_08_1619,ProdSingRedo,3.2.3,59.9407904410774,
,,,,151,0,151,0,,,,,,,,,,,,,,,,,,,,,,,,1649.7277357000858,None,,,,,,,,,,,,,,,,,contract,sing,white,151,5,68,1644.8514570002444,None,1644.8514570002444,None,5,3.7284379000775516,1644.8514570002444,None,1648.6219598003663,None,1649.132643500343,None,1649.132643500343,None,f,0.5668420996516943,1649.132643500343,None,,,NC22,001,2021_Nov_08_1619,ProdSingRedo,3.2.3,59.9407904410774,
,,,,152,0,152,0,,,,,,,,,,,,,,,,,,,,,,,,1653.9665339002386,None,,,,,,,,,,,,,,,,,story,silent,white,152,69,306,1650.2536423001438,None,1650.2536423001438,None,3,2.694272099994123,1650.2536423001438,None,1652.993257000111,None,1653.503929400351,None,1653.503929400351,None,f,0.428035800345242,1653.503929400351,None,,,NC22,001,2021_Nov_08_1619,ProdSingRedo,3.2.3,59.9407904410774,
,,,,153,0,153,0,,,,,,,,,,,,,,,,,,,,,,,,1657.5039617000148,None,,,,,,,,,,,,,,,,,tennis,new_a,white,153,101,323,1654.487491399981,None,1654.487491399981,None,1,1.9000709000974894,1654.487491399981,None,1656.4130607000552,None,1656.921978800092,None,1656.921978800092,None,n,0.5459058997221291,1656.921978800092,None,,,NC22,001,2021_Nov_08_1619,ProdSingRedo,3.2.3,59.9407904410774,
,,,,154,0,154,0,,,,,,,,,,,,,,,,,,,,,,,,1663.0456236000173,None,,,,,,,,,,,,,,,,,raise,aloud,white,154,38,250,1658.0309518002905,None,1658.0309518002905,None,4,3.9649185999296606,1658.0309518002905,None,1662.0430697002448,None,1662.5595053001307,None,1662.5595053001307,None,f,0.4604898998513818,1662.5595053001307,None,,,NC22,001,2021_Nov_08_1619,ProdSingRedo,3.2.3,59.9407904410774,
,,,,155,0,155,0,,,,,,,,,,,,,,,,,,,,,,,,1670.234231099952,None,,,,,,,,,,,,,,,,,vision,new_b,white,155,133,347,1663.5691002001986,None,1663.5691002001986,None,3,5.690954700112343,1663.5691002001986,None,1669.296325000003,None,1669.8018062999472,None,1669.8018062999472,None,f,0.3941995999775827,1669.8018062999472,None,,,NC22,001,2021_Nov_08_1619,ProdSingRedo,3.2.3,59.9407904410774,
,,,,156,0,156,0,,,,,,,,,,,,,,,,,,,,,,,,1674.5371983000077,None,,,,,,,,,,,,,,,,,design,silent,white,156,66,91,1670.7615184001625,None,1670.7615184001625,None,1,2.858293800149113,1670.7615184001625,None,1673.6696525001898,None,1674.1906952001154,None,1674.1906952001154,None,n,0.3252274002879858,1674.1906952001154,None,,,NC22,001,2021_Nov_08_1619,ProdSingRedo,3.2.3,59.9407904410774,
,,,,157,0,157,0,,,,,,,,,,,,,,,,,,,,,,,,1678.349199600052,None,,,,,,,,,,,,,,,,,hearing,silent,white,157,81,150,1675.0647853002883,None,1675.0647853002883,None,4,2.3150009997189045,1675.0647853002883,None,1677.4196820999496,None,1677.9314792002551,None,1677.9314792002551,None,f,0.384332999587059,1677.9314792002551,None,,,NC22,001,2021_Nov_08_1619,ProdSingRedo,3.2.3,59.9407904410774,
,,,,158,0,158,0,,,,,,,,,,,,,,,,,,,,,,,,1684.7808700003661,None,,,,,,,,,,,,,,,,,travel,sing,white,158,18,338,1678.8695917003788,None,1678.8695917003788,None,4,4.998325000051409,1678.8695917003788,None,1683.9119865000248,None,1684.4192154002376,None,1684.4192154002376,None,f,0.3286545001901686,1684.4192154002376,None,,,NC22,001,2021_Nov_08_1619,ProdSingRedo,3.2.3,59.9407904410774,
,,,,159,0,159,0,,,,,,,,,,,,,,,,,,,,,,,,1687.9330254001543,None,,,,,,,,,,,,,,,,,interview,aloud,white,159,35,165,1685.31158100022,None,1685.31158100022,None,5,1.9322004998102784,1685.31158100022,None,1687.2870098999701,None,1687.7877539000474,None,1687.7877539000474,None,f,0.11211449978873134,1687.7877539000474,None,,,NC22,001,2021_Nov_08_1619,ProdSingRedo,3.2.3,59.9407904410774,
,,,,160,0,160,0,,,,,,,,,,,,,,,,,,,,,,,,1695.2197712003253,None,,,,,,,,,,,,,,,,,motion,new_a,white,160,117,194,1688.455689900089,None,1688.455689900089,None,1,3.684195199981332,1688.455689900089,None,1692.1842177999206,None,1692.689474100247,None,1692.689474100247,None,n,2.5062864003703,1692.689474100247,None,,,NC22,001,2021_Nov_08_1619,ProdSingRedo,3.2.3,59.9407904410774,
,,,,161,0,161,0,,,,,,,,,,,,,,,,,,,,,,,,1700.1473961002193,None,,,,,,,,,,,,,,,,,problem,sing,white,161,10,238,1695.7366174999624,None,1695.7366174999624,None,2,2.411125199869275,1695.7366174999624,None,1698.183063399978,None,1698.700033100322,None,1698.700033100322,None,n,1.4157895999960601,1698.700033100322,None,,,NC22,001,2021_Nov_08_1619,ProdSingRedo,3.2.3,59.9407904410774,
,,,,162,0,162,0,,,,,,,,,,,,,,,,,,,,,,,,1705.6690837000497,None,,,,,,,,,,,,,,,,,second,sing,white,162,14,278,1700.6705684000626,None,1700.6705684000626,None,4,4.341471200343221,1700.6705684000626,None,1705.0468240999617,None,1705.550172300078,None,1705.550172300078,None,f,0.08587249973788857,1705.550172300078,None,,,NC22,001,2021_Nov_08_1619,ProdSingRedo,3.2.3,59.9407904410774,
,,,,163,0,163,0,,,,,,,,,,,,,,,,,,,,,,,,1708.6887811003253,None,,,,,,,,,,,,,,,,,defeat,new_b,white,163,148,88,1706.1960849002935,None,1706.1960849002935,None,1,1.8559109000489116,1706.1960849002935,None,1708.1002108003013,None,1708.6109080002643,None,1708.6109080002643,None,n,0.048864000011235476,1708.6109080002643,None,,,NC22,001,2021_Nov_08_1619,ProdSingRedo,3.2.3,59.9407904410774,
,,,,164,0,164,0,,,,,,,,,,,,,,,,,,,,,,,,1712.4536284003407,None,,,,,,,,,,,,,,,,,smooth,silent,white,164,76,292,1709.2113757003099,None,1709.2113757003099,None,4,2.5685649001970887,1709.2113757003099,None,1711.8182220002636,None,1712.3242713999934,None,1712.3242713999934,None,f,0.11152409994974732,1712.3242713999934,None,,,NC22,001,2021_Nov_08_1619,ProdSingRedo,3.2.3,59.9407904410774,
,,,,165,0,165,0,,,,,,,,,,,,,,,,,,,,,,,,1715.32881740015,None,,,,,,,,,,,,,,,,,permit,new_b,white,165,140,218,1712.9645869000815,None,1712.9645869000815,None,4,1.6231730002909899,1712.9645869000815,None,1714.6224905001,None,1715.1258040000685,None,1715.1258040000685,None,f,0.17421030020341277,1715.1258040000685,None,,,NC22,001,2021_Nov_08_1619,ProdSingRedo,3.2.3,59.9407904410774,
,,,,166,0,166,0,,,,,,,,,,,,,,,,,,,,,,,,1718.3991440003738,None,,,,,,,,,,,,,,,,,partner,silent,white,166,65,211,1715.8411193001084,None,1715.8411193001084,None,1,1.8827168000862002,1715.8411193001084,None,1717.771419600118,None,1718.284226400312,None,1718.284226400312,None,n,0.07974309986457229,1718.284226400312,None,,,NC22,001,2021_Nov_08_1619,ProdSingRedo,3.2.3,59.9407904410774,
,,,,167,0,167,0,,,,,,,,,,,,,,,,,,,,,,,,1722.2730899001472,None,,,,,,,,,,,,,,,,,light,silent,white,167,80,171,1718.923145600129,None,1718.923145600129,None,1,1.728754899930209,1718.923145600129,None,1720.702737200074,None,1721.2205990003422,None,1721.2205990003422,None,n,1.0234407996758819,1721.2205990003422,None,,,NC22,001,2021_Nov_08_1619,ProdSingRedo,3.2.3,59.9407904410774,
,,,,168,0,168,0,,,,,,,,,,,,,,,,,,,,,,,,1729.1221881001256,None,,,,,,,,,,,,,,,,,interior,new_a,white,168,100,164,1722.7927316999994,None,1722.7927316999994,None,3,5.035216399934143,1722.7927316999994,None,1727.868172199931,None,1728.3686510999687,None,1728.3686510999687,None,f,0.7072172998450696,1728.3686510999687,None,,,NC22,001,2021_Nov_08_1619,ProdSingRedo,3.2.3,59.9407904410774,
,,,,169,0,169,0,,,,,,,,,,,,,,,,,,,,,,,,1732.9630730999634,None,,,,,,,,,,,,,,,,,volume,silent,white,169,63,349,1729.6417787000537,None,1729.6417787000537,None,4,2.138274900149554,1729.6417787000537,None,1731.8278955002315,None,1732.349401500076,None,1732.349401500076,None,f,0.582578900270164,1732.349401500076,None,,,NC22,001,2021_Nov_08_1619,ProdSingRedo,3.2.3,59.9407904410774,
,,,,170,0,170,0,,,,,,,,,,,,,,,,,,,,,,,,1736.1827088999562,None,,,,,,,,,,,,,,,,,close,new_b,white,170,130,53,1733.48581700027,None,1733.48581700027,None,1,1.7739593996666372,1733.48581700027,None,1735.2935525001958,None,1735.799793000333,None,1735.799793000333,None,n,0.356177999638021,1735.799793000333,None,,,NC22,001,2021_Nov_08_1619,ProdSingRedo,3.2.3,59.9407904410774,
,,,,171,0,171,0,,,,,,,,,,,,,,,,,,,,,,,,1743.1237751003355,None,,,,,,,,,,,,,,,,,command,silent,white,171,77,60,1736.7133793001994,None,1736.7133793001994,None,1,5.59458849998191,1736.7133793001994,None,1742.3558204001747,None,1742.8598534003831,None,1742.8598534003831,None,n,0.24008290003985167,1742.8598534003831,None,,,NC22,001,2021_Nov_08_1619,ProdSingRedo,3.2.3,59.9407904410774,
,,,,172,0,172,0,,,,,,,,,,,,,,,,,,,,,,,,1746.0527038001455,None,,,,,,,,,,,,,,,,,relation,silent,white,172,73,257,1743.6491618002765,None,1743.6491618002765,None,5,1.5546631002798676,1743.6491618002765,None,1745.2416233001277,None,1745.774026399944,None,1745.774026399944,None,f,0.25358680030331016,1745.774026399944,None,,,NC22,001,2021_Nov_08_1619,ProdSingRedo,3.2.3,59.9407904410774,
,,,,173,0,173,0,,,,,,,,,,,,,,,,,,,,,,,,1749.7630139002576,None,,,,,,,,,,,,,,,,,general,silent,white,173,67,135,1746.5543194003403,None,1746.5543194003403,None,4,2.337566599715501,1746.5543194003403,None,1748.9467553999275,None,1749.4564467002638,None,1749.4564467002638,None,f,0.2755203996784985,1749.4564467002638,None,,,NC22,001,2021_Nov_08_1619,ProdSingRedo,3.2.3,59.9407904410774,
,,,,174,0,174,0,,,,,,,,,,,,,,,,,,,,,,,,1753.1009287000634,None,,,,,,,,,,,,,,,,,weather,aloud,white,174,43,352,1750.2950291000307,None,1750.2950291000307,None,1,2.1329450998455286,1750.2950291000307,None,1752.4781375001185,None,1753.0096380002797,None,1753.0096380002797,None,n,0.0662410999648273,1753.0096380002797,None,,,NC22,001,2021_Nov_08_1619,ProdSingRedo,3.2.3,59.9407904410774,
,,,,175,0,175,0,,,,,,,,,,,,,,,,,,,,,,,,1757.3937833001837,None,,,,,,,,,,,,,,,,,finish,sing,white,175,0,130,1753.62571080029,None,1753.62571080029,None,4,2.9540477003902197,1753.62571080029,None,1756.6152091999538,None,1757.1212572003715,None,1757.1212572003715,None,f,0.23472840012982488,1757.1212572003715,None,,,NC22,001,2021_Nov_08_1619,ProdSingRedo,3.2.3,59.9407904410774,
,,,,176,0,176,0,,,,,,,,,,,,,,,,,,,,,,,,1761.6188782001846,None,,,,,,,,,,,,,,,,,conference,new_a,white,176,105,66,1757.9163180002943,None,1757.9163180002943,None,1,2.8397552999667823,1757.9163180002943,None,1760.8104628003202,None,1761.3303104001097,None,1761.3303104001097,None,n,0.24167379969730973,1761.3303104001097,None,,,NC22,001,2021_Nov_08_1619,ProdSingRedo,3.2.3,59.9407904410774,
,,,,177,0,177,0,,,,,,,,,,,,,,,,,,,,,,,,1765.4301272002049,None,,,,,,,,,,,,,,,,,candidate,new_c,white,177,178,39,1762.1399900000542,None,1762.1399900000542,None,1,2.559769000392407,1762.1399900000542,None,1764.742073399946,None,1765.2700277999975,None,1765.2700277999975,None,n,0.1339414999820292,1765.2700277999975,None,,,NC22,001,2021_Nov_08_1619,ProdSingRedo,3.2.3,59.9407904410774,
,,,,178,0,178,0,,,,,,,,,,,,,,,,,,,,,,,,1769.3986794003285,None,,,,,,,,,,,,,,,,,safety,silent,white,178,89,270,1765.9585039000958,None,1765.9585039000958,None,6,2.061441699974239,1765.9585039000958,None,1768.0654708002694,None,1768.6012744000182,None,1768.6012744000182,None,f,0.7627210998907685,1768.6012744000182,None,,,NC22,001,2021_Nov_08_1619,ProdSingRedo,3.2.3,59.9407904410774,
,,,,179,0,179,0,,,,,,,,,,,,,,,,,,,,,,,,1772.9029813003726,None,,,,,,,,,,,,,,,,,school,aloud,white,179,47,274,1769.9207244003192,None,1769.9207244003192,None,3,2.1231952998787165,1769.9207244003192,None,1772.079839200247,None,1772.5858531999402,None,1772.5858531999402,None,f,0.2899841000325978,1772.5858531999402,None,,,NC22,001,2021_Nov_08_1619,ProdSingRedo,3.2.3,59.9407904410774,
,,,,,,,,,,,,,,,,,,,,,,,,,,,,,,,,,,,,,,,,,,,,,,,,,,,,,,,,,,,,,,,,,,,,,,,,,1773.4142789002508,None,,,,,,,
