StudyLoop.thisRepN,StudyLoop.thisTrialN,StudyLoop.thisN,StudyLoop.thisIndex,TestLoop.thisRepN,TestLoop.thisTrialN,TestLoop.thisN,TestLoop.thisIndex,textCondition.started,textCondition.stopped,keyCondition.keys,keyCondition.rt,keyCondition.started,keyCondition.stopped,Condition,stim_colors,color_sing,color_aloud,color_silent,textWelcome.started,textWelcome.stopped,keyWelcome.keys,keyWelcome.rt,keyWelcome.started,keyWelcome.stopped,textAloud.started,textAloud.stopped,textSilent.started,textSilent.stopped,textSing.started,textSing.stopped,textBlank500.started,textBlank500.stopped,study_word,study_type,study_color,study_num,study_word_num,textStudy.started,textStudy.stopped,keyStudy.keys,keyStudy.started,keyStudy.stopped,textTestInstructions.started,textTestInstructions.stopped,key_resp_3.keys,key_resp_3.rt,key_resp_3.started,key_resp_3.stopped,testWord,testType,testColor,testN,test_num,test_word_num,textConf.started,textConf.stopped,textConfScale.started,textConfScale.stopped,keyConf.keys,keyConf.rt,keyConf.started,keyConf.stopped,textTestBlank.started,textTestBlank.stopped,textRKN.started,textRKN.stopped,textRKNScale.started,textRKNScale.stopped,keyRKN.keys,keyRKN.rt,keyRKN.started,keyRKN.stopped,textEnd.started,textEnd.stopped,participant,session,date,expName,psychopyVersion,frameRate,
,,,,,,,,19.45974459964782,None,n,1.4028357001952827,19.45974459964782,None,,,,,,,,,,,,,,,,,,,,,,,,,,,,,,,,,,,,,,,,,,,,,,,,,,,,,,,,,,,,,,NC23,001,2021_Nov_10_1614,ProdSingRedo,3.2.3,59.853359351463915,
,,,,,,,,,,,,,,NeutralTest,"['yellow', 'blue', 'red']",yellow,blue,red,20.913209799677134,None,space,1131.605102499947,20.913209799677134,None,,,,,,,,,,,,,,,,,,,,,,,,,,,,,,,,,,,,,,,,,,,,,,,,,,,NC23,001,2021_Nov_10_1614,ProdSingRedo,3.2.3,59.853359351463915,
0,0,0,0,,,,,,,,,,,,,,,,,,,,,,20.913209799677134,None,20.913209799677134,None,20.913209799677134,None,1155.0620550997555,None,growth,silent,red,71,144,1153.0631474996917,None,None,1153.0631474996917,None,,,,,,,,,,,,,,,,,,,,,,,,,,,,,,,,,NC23,001,2021_Nov_10_1614,ProdSingRedo,3.2.3,59.853359351463915,
1,0,1,0,,,,,,,,,,,,,,,,,,,,,,,,,,,,1157.578589799814,None,drink,silent,red,72,105,1155.5819959999062,None,None,1155.5819959999062,None,,,,,,,,,,,,,,,,,,,,,,,,,,,,,,,,,NC23,001,2021_Nov_10_1614,ProdSingRedo,3.2.3,59.853359351463915,
2,0,2,0,,,,,,,,,,,,,,,,,,,,,,,,,,,,1160.0957755995914,None,travel,sing,yellow,15,338,1158.1039847997017,None,None,1158.1039847997017,None,,,,,,,,,,,,,,,,,,,,,,,,,,,,,,,,,NC23,001,2021_Nov_10_1614,ProdSingRedo,3.2.3,59.853359351463915,
3,0,3,0,,,,,,,,,,,,,,,,,,,,,,,,,,,,1162.6124105998315,None,bucket,silent,red,66,33,1160.6247303998098,None,None,1160.6247303998098,None,,,,,,,,,,,,,,,,,,,,,,,,,,,,,,,,,NC23,001,2021_Nov_10_1614,ProdSingRedo,3.2.3,59.853359351463915,
4,0,4,0,,,,,,,,,,,,,,,,,,,,,,,,,,,,1165.1292157997377,None,strain,aloud,blue,40,308,1163.1249432996847,None,None,1163.1249432996847,None,,,,,,,,,,,,,,,,,,,,,,,,,,,,,,,,,NC23,001,2021_Nov_10_1614,ProdSingRedo,3.2.3,59.853359351463915,
5,0,5,0,,,,,,,,,,,,,,,,,,,,,,,,,,,,1167.646359199658,None,rapid,silent,red,75,252,1165.6417843997478,None,None,1165.6417843997478,None,,,,,,,,,,,,,,,,,,,,,,,,,,,,,,,,,NC23,001,2021_Nov_10_1614,ProdSingRedo,3.2.3,59.853359351463915,
6,0,6,0,,,,,,,,,,,,,,,,,,,,,,,,,,,,1170.1650846996345,None,trail,aloud,blue,30,336,1168.1527761998586,None,None,1168.1527761998586,None,,,,,,,,,,,,,,,,,,,,,,,,,,,,,,,,,NC23,001,2021_Nov_10_1614,ProdSingRedo,3.2.3,59.853359351463915,
7,0,7,0,,,,,,,,,,,,,,,,,,,,,,,,,,,,1172.6798140997998,None,empty,aloud,blue,48,112,1170.6815091995522,None,None,1170.6815091995522,None,,,,,,,,,,,,,,,,,,,,,,,,,,,,,,,,,NC23,001,2021_Nov_10_1614,ProdSingRedo,3.2.3,59.853359351463915,
8,0,8,0,,,,,,,,,,,,,,,,,,,,,,,,,,,,1175.1965954997577,None,ground,sing,yellow,13,142,1173.1943512996659,None,None,1173.1943512996659,None,,,,,,,,,,,,,,,,,,,,,,,,,,,,,,,,,NC23,001,2021_Nov_10_1614,ProdSingRedo,3.2.3,59.853359351463915,
9,0,9,0,,,,,,,,,,,,,,,,,,,,,,,,,,,,1177.7127323998138,None,nation,aloud,blue,53,198,1175.7098648999818,None,None,1175.7098648999818,None,,,,,,,,,,,,,,,,,,,,,,,,,,,,,,,,,NC23,001,2021_Nov_10_1614,ProdSingRedo,3.2.3,59.853359351463915,
10,0,10,0,,,,,,,,,,,,,,,,,,,,,,,,,,,,1180.230339499656,None,dozen,silent,red,89,102,1178.23176579969,None,None,1178.23176579969,None,,,,,,,,,,,,,,,,,,,,,,,,,,,,,,,,,NC23,001,2021_Nov_10_1614,ProdSingRedo,3.2.3,59.853359351463915,
11,0,11,0,,,,,,,,,,,,,,,,,,,,,,,,,,,,1182.746048899833,None,listen,silent,red,78,172,1180.7426855997182,None,None,1180.7426855997182,None,,,,,,,,,,,,,,,,,,,,,,,,,,,,,,,,,NC23,001,2021_Nov_10_1614,ProdSingRedo,3.2.3,59.853359351463915,
12,0,12,0,,,,,,,,,,,,,,,,,,,,,,,,,,,,1185.2638429999352,None,comfort,sing,yellow,17,59,1183.262811599765,None,None,1183.262811599765,None,,,,,,,,,,,,,,,,,,,,,,,,,,,,,,,,,NC23,001,2021_Nov_10_1614,ProdSingRedo,3.2.3,59.853359351463915,
13,0,13,0,,,,,,,,,,,,,,,,,,,,,,,,,,,,1187.7817503996193,None,working,aloud,blue,50,357,1185.7770860996097,None,None,1185.7770860996097,None,,,,,,,,,,,,,,,,,,,,,,,,,,,,,,,,,NC23,001,2021_Nov_10_1614,ProdSingRedo,3.2.3,59.853359351463915,
14,0,14,0,,,,,,,,,,,,,,,,,,,,,,,,,,,,1190.2975556999445,None,turkey,sing,yellow,21,342,1188.3187247999012,None,None,1188.3187247999012,None,,,,,,,,,,,,,,,,,,,,,,,,,,,,,,,,,NC23,001,2021_Nov_10_1614,ProdSingRedo,3.2.3,59.853359351463915,
15,0,15,0,,,,,,,,,,,,,,,,,,,,,,,,,,,,1192.814511699602,None,answer,aloud,blue,56,8,1190.8094680998474,None,None,1190.8094680998474,None,,,,,,,,,,,,,,,,,,,,,,,,,,,,,,,,,NC23,001,2021_Nov_10_1614,ProdSingRedo,3.2.3,59.853359351463915,
16,0,16,0,,,,,,,,,,,,,,,,,,,,,,,,,,,,1195.3314121998847,None,period,silent,red,64,217,1193.3228082996793,None,None,1193.3228082996793,None,,,,,,,,,,,,,,,,,,,,,,,,,,,,,,,,,NC23,001,2021_Nov_10_1614,ProdSingRedo,3.2.3,59.853359351463915,
17,0,17,0,,,,,,,,,,,,,,,,,,,,,,,,,,,,1197.8480788995512,None,oxygen,sing,yellow,7,209,1195.8483764999546,None,None,1195.8483764999546,None,,,,,,,,,,,,,,,,,,,,,,,,,,,,,,,,,NC23,001,2021_Nov_10_1614,ProdSingRedo,3.2.3,59.853359351463915,
18,0,18,0,,,,,,,,,,,,,,,,,,,,,,,,,,,,1200.36485659983,None,entrance,aloud,blue,46,115,1198.3633759999648,None,None,1198.3633759999648,None,,,,,,,,,,,,,,,,,,,,,,,,,,,,,,,,,NC23,001,2021_Nov_10_1614,ProdSingRedo,3.2.3,59.853359351463915,
19,0,19,0,,,,,,,,,,,,,,,,,,,,,,,,,,,,1202.8818580997176,None,blind,sing,yellow,2,24,1200.8777759997174,None,None,1200.8777759997174,None,,,,,,,,,,,,,,,,,,,,,,,,,,,,,,,,,NC23,001,2021_Nov_10_1614,ProdSingRedo,3.2.3,59.853359351463915,
20,0,20,0,,,,,,,,,,,,,,,,,,,,,,,,,,,,1205.398548099678,None,frank,aloud,blue,57,133,1203.4004430999048,None,None,1203.4004430999048,None,,,,,,,,,,,,,,,,,,,,,,,,,,,,,,,,,NC23,001,2021_Nov_10_1614,ProdSingRedo,3.2.3,59.853359351463915,
21,0,21,0,,,,,,,,,,,,,,,,,,,,,,,,,,,,1207.9154682997614,None,shock,silent,red,73,284,1205.913017399609,None,None,1205.913017399609,None,,,,,,,,,,,,,,,,,,,,,,,,,,,,,,,,,NC23,001,2021_Nov_10_1614,ProdSingRedo,3.2.3,59.853359351463915,
22,0,22,0,,,,,,,,,,,,,,,,,,,,,,,,,,,,1210.4323017997667,None,present,sing,yellow,25,231,1208.4252769998275,None,None,1208.4252769998275,None,,,,,,,,,,,,,,,,,,,,,,,,,,,,,,,,,NC23,001,2021_Nov_10_1614,ProdSingRedo,3.2.3,59.853359351463915,
23,0,23,0,,,,,,,,,,,,,,,,,,,,,,,,,,,,1212.949310499709,None,charter,sing,yellow,12,47,1210.947804799769,None,None,1210.947804799769,None,,,,,,,,,,,,,,,,,,,,,,,,,,,,,,,,,NC23,001,2021_Nov_10_1614,ProdSingRedo,3.2.3,59.853359351463915,
24,0,24,0,,,,,,,,,,,,,,,,,,,,,,,,,,,,1215.4660861999728,None,detective,aloud,blue,55,92,1213.4635179997422,None,None,1213.4635179997422,None,,,,,,,,,,,,,,,,,,,,,,,,,,,,,,,,,NC23,001,2021_Nov_10_1614,ProdSingRedo,3.2.3,59.853359351463915,
25,0,25,0,,,,,,,,,,,,,,,,,,,,,,,,,,,,1217.9830006998964,None,spoke,aloud,blue,45,300,1215.9788345997222,None,None,1215.9788345997222,None,,,,,,,,,,,,,,,,,,,,,,,,,,,,,,,,,NC23,001,2021_Nov_10_1614,ProdSingRedo,3.2.3,59.853359351463915,
26,0,26,0,,,,,,,,,,,,,,,,,,,,,,,,,,,,1220.4997840998694,None,bicycle,silent,red,68,21,1218.4963364996947,None,None,1218.4963364996947,None,,,,,,,,,,,,,,,,,,,,,,,,,,,,,,,,,NC23,001,2021_Nov_10_1614,ProdSingRedo,3.2.3,59.853359351463915,
27,0,27,0,,,,,,,,,,,,,,,,,,,,,,,,,,,,1223.0170938996598,None,display,sing,yellow,8,98,1221.014181499835,None,None,1221.014181499835,None,,,,,,,,,,,,,,,,,,,,,,,,,,,,,,,,,NC23,001,2021_Nov_10_1614,ProdSingRedo,3.2.3,59.853359351463915,
28,0,28,0,,,,,,,,,,,,,,,,,,,,,,,,,,,,1225.5332721997984,None,contract,silent,red,67,68,1223.5311450995505,None,None,1223.5311450995505,None,,,,,,,,,,,,,,,,,,,,,,,,,,,,,,,,,NC23,001,2021_Nov_10_1614,ProdSingRedo,3.2.3,59.853359351463915,
29,0,29,0,,,,,,,,,,,,,,,,,,,,,,,,,,,,1228.050214599818,None,portion,sing,yellow,1,228,1226.0440945997834,None,None,1226.0440945997834,None,,,,,,,,,,,,,,,,,,,,,,,,,,,,,,,,,NC23,001,2021_Nov_10_1614,ProdSingRedo,3.2.3,59.853359351463915,
30,0,30,0,,,,,,,,,,,,,,,,,,,,,,,,,,,,1230.5679393997416,None,opening,sing,yellow,28,205,1228.5646270997822,None,None,1228.5646270997822,None,,,,,,,,,,,,,,,,,,,,,,,,,,,,,,,,,NC23,001,2021_Nov_10_1614,ProdSingRedo,3.2.3,59.853359351463915,
31,0,31,0,,,,,,,,,,,,,,,,,,,,,,,,,,,,1233.0842716996558,None,health,silent,red,65,149,1231.0788845997304,None,None,1231.0788845997304,None,,,,,,,,,,,,,,,,,,,,,,,,,,,,,,,,,NC23,001,2021_Nov_10_1614,ProdSingRedo,3.2.3,59.853359351463915,
32,0,32,0,,,,,,,,,,,,,,,,,,,,,,,,,,,,1235.6006914996542,None,reach,silent,red,80,253,1233.598405199591,None,None,1233.598405199591,None,,,,,,,,,,,,,,,,,,,,,,,,,,,,,,,,,NC23,001,2021_Nov_10_1614,ProdSingRedo,3.2.3,59.853359351463915,
33,0,33,0,,,,,,,,,,,,,,,,,,,,,,,,,,,,1238.1174474,None,patient,aloud,blue,31,213,1236.1166093996726,None,None,1236.1166093996726,None,,,,,,,,,,,,,,,,,,,,,,,,,,,,,,,,,NC23,001,2021_Nov_10_1614,ProdSingRedo,3.2.3,59.853359351463915,
34,0,34,0,,,,,,,,,,,,,,,,,,,,,,,,,,,,1240.634332599584,None,service,aloud,blue,44,280,1238.6318595996127,None,None,1238.6318595996127,None,,,,,,,,,,,,,,,,,,,,,,,,,,,,,,,,,NC23,001,2021_Nov_10_1614,ProdSingRedo,3.2.3,59.853359351463915,
35,0,35,0,,,,,,,,,,,,,,,,,,,,,,,,,,,,1243.1511593996547,None,concern,silent,red,86,65,1241.144132899586,None,None,1241.144132899586,None,,,,,,,,,,,,,,,,,,,,,,,,,,,,,,,,,NC23,001,2021_Nov_10_1614,ProdSingRedo,3.2.3,59.853359351463915,
36,0,36,0,,,,,,,,,,,,,,,,,,,,,,,,,,,,1245.6682217000052,None,treatment,silent,red,85,339,1243.6673850999214,None,None,1243.6673850999214,None,,,,,,,,,,,,,,,,,,,,,,,,,,,,,,,,,NC23,001,2021_Nov_10_1614,ProdSingRedo,3.2.3,59.853359351463915,
37,0,37,0,,,,,,,,,,,,,,,,,,,,,,,,,,,,1248.1850568996742,None,minor,silent,red,84,191,1246.1780979000032,None,None,1246.1780979000032,None,,,,,,,,,,,,,,,,,,,,,,,,,,,,,,,,,NC23,001,2021_Nov_10_1614,ProdSingRedo,3.2.3,59.853359351463915,
38,0,38,0,,,,,,,,,,,,,,,,,,,,,,,,,,,,1250.701285699848,None,write,aloud,blue,38,358,1248.6956763998605,None,None,1248.6956763998605,None,,,,,,,,,,,,,,,,,,,,,,,,,,,,,,,,,NC23,001,2021_Nov_10_1614,ProdSingRedo,3.2.3,59.853359351463915,
39,0,39,0,,,,,,,,,,,,,,,,,,,,,,,,,,,,1253.21722019976,None,hunger,silent,red,63,155,1251.2168854996562,None,None,1251.2168854996562,None,,,,,,,,,,,,,,,,,,,,,,,,,,,,,,,,,NC23,001,2021_Nov_10_1614,ProdSingRedo,3.2.3,59.853359351463915,
40,0,40,0,,,,,,,,,,,,,,,,,,,,,,,,,,,,1255.735421499703,None,angle,sing,yellow,24,7,1253.7385392999277,None,None,1253.7385392999277,None,,,,,,,,,,,,,,,,,,,,,,,,,,,,,,,,,NC23,001,2021_Nov_10_1614,ProdSingRedo,3.2.3,59.853359351463915,
41,0,41,0,,,,,,,,,,,,,,,,,,,,,,,,,,,,1258.2522042999044,None,danger,silent,red,83,85,1256.2560246000066,None,None,1256.2560246000066,None,,,,,,,,,,,,,,,,,,,,,,,,,,,,,,,,,NC23,001,2021_Nov_10_1614,ProdSingRedo,3.2.3,59.853359351463915,
42,0,42,0,,,,,,,,,,,,,,,,,,,,,,,,,,,,1260.7693243999965,None,front,sing,yellow,9,134,1258.7652291995473,None,None,1258.7652291995473,None,,,,,,,,,,,,,,,,,,,,,,,,,,,,,,,,,NC23,001,2021_Nov_10_1614,ProdSingRedo,3.2.3,59.853359351463915,
43,0,43,0,,,,,,,,,,,,,,,,,,,,,,,,,,,,1263.2858855999075,None,height,sing,yellow,11,152,1261.2836316996254,None,None,1261.2836316996254,None,,,,,,,,,,,,,,,,,,,,,,,,,,,,,,,,,NC23,001,2021_Nov_10_1614,ProdSingRedo,3.2.3,59.853359351463915,
44,0,44,0,,,,,,,,,,,,,,,,,,,,,,,,,,,,1265.803019199986,None,disease,aloud,blue,41,97,1263.802499299869,None,None,1263.802499299869,None,,,,,,,,,,,,,,,,,,,,,,,,,,,,,,,,,NC23,001,2021_Nov_10_1614,ProdSingRedo,3.2.3,59.853359351463915,
45,0,45,0,,,,,,,,,,,,,,,,,,,,,,,,,,,,1268.3195377998054,None,quantity,silent,red,79,245,1266.327684099786,None,None,1266.327684099786,None,,,,,,,,,,,,,,,,,,,,,,,,,,,,,,,,,NC23,001,2021_Nov_10_1614,ProdSingRedo,3.2.3,59.853359351463915,
46,0,46,0,,,,,,,,,,,,,,,,,,,,,,,,,,,,1270.836740499828,None,staff,silent,red,74,301,1268.8326246999204,None,None,1268.8326246999204,None,,,,,,,,,,,,,,,,,,,,,,,,,,,,,,,,,NC23,001,2021_Nov_10_1614,ProdSingRedo,3.2.3,59.853359351463915,
47,0,47,0,,,,,,,,,,,,,,,,,,,,,,,,,,,,1273.353313099593,None,region,sing,yellow,18,256,1271.3497061999515,None,None,1271.3497061999515,None,,,,,,,,,,,,,,,,,,,,,,,,,,,,,,,,,NC23,001,2021_Nov_10_1614,ProdSingRedo,3.2.3,59.853359351463915,
48,0,48,0,,,,,,,,,,,,,,,,,,,,,,,,,,,,1275.87015339965,None,incident,silent,red,69,158,1273.8553064996377,None,None,1273.8553064996377,None,,,,,,,,,,,,,,,,,,,,,,,,,,,,,,,,,NC23,001,2021_Nov_10_1614,ProdSingRedo,3.2.3,59.853359351463915,
49,0,49,0,,,,,,,,,,,,,,,,,,,,,,,,,,,,1278.3871338996105,None,short,silent,red,61,285,1276.3796941996552,None,None,1276.3796941996552,None,,,,,,,,,,,,,,,,,,,,,,,,,,,,,,,,,NC23,001,2021_Nov_10_1614,ProdSingRedo,3.2.3,59.853359351463915,
50,0,50,0,,,,,,,,,,,,,,,,,,,,,,,,,,,,1280.9038756997325,None,engineer,sing,yellow,4,114,1278.9017519997433,None,None,1278.9017519997433,None,,,,,,,,,,,,,,,,,,,,,,,,,,,,,,,,,NC23,001,2021_Nov_10_1614,ProdSingRedo,3.2.3,59.853359351463915,
51,0,51,0,,,,,,,,,,,,,,,,,,,,,,,,,,,,1283.4204579996876,None,narrow,silent,red,70,197,1281.4213186996058,None,None,1281.4213186996058,None,,,,,,,,,,,,,,,,,,,,,,,,,,,,,,,,,NC23,001,2021_Nov_10_1614,ProdSingRedo,3.2.3,59.853359351463915,
52,0,52,0,,,,,,,,,,,,,,,,,,,,,,,,,,,,1285.9372854996473,None,article,sing,yellow,14,11,1283.935070599895,None,None,1283.935070599895,None,,,,,,,,,,,,,,,,,,,,,,,,,,,,,,,,,NC23,001,2021_Nov_10_1614,ProdSingRedo,3.2.3,59.853359351463915,
53,0,53,0,,,,,,,,,,,,,,,,,,,,,,,,,,,,1288.454341699835,None,passage,silent,red,88,212,1286.4533851998858,None,None,1286.4533851998858,None,,,,,,,,,,,,,,,,,,,,,,,,,,,,,,,,,NC23,001,2021_Nov_10_1614,ProdSingRedo,3.2.3,59.853359351463915,
54,0,54,0,,,,,,,,,,,,,,,,,,,,,,,,,,,,1290.9714301996864,None,novel,sing,yellow,5,202,1288.9668711000122,None,None,1288.9668711000122,None,,,,,,,,,,,,,,,,,,,,,,,,,,,,,,,,,NC23,001,2021_Nov_10_1614,ProdSingRedo,3.2.3,59.853359351463915,
55,0,55,0,,,,,,,,,,,,,,,,,,,,,,,,,,,,1293.4880578997545,None,owner,sing,yellow,0,208,1291.4843609998934,None,None,1291.4843609998934,None,,,,,,,,,,,,,,,,,,,,,,,,,,,,,,,,,NC23,001,2021_Nov_10_1614,ProdSingRedo,3.2.3,59.853359351463915,
56,0,56,0,,,,,,,,,,,,,,,,,,,,,,,,,,,,1296.0047117997892,None,material,sing,yellow,29,182,1294.0049325996079,None,None,1294.0049325996079,None,,,,,,,,,,,,,,,,,,,,,,,,,,,,,,,,,NC23,001,2021_Nov_10_1614,ProdSingRedo,3.2.3,59.853359351463915,
57,0,57,0,,,,,,,,,,,,,,,,,,,,,,,,,,,,1298.5215216996148,None,profession,aloud,blue,32,241,1296.5190406995825,None,None,1296.5190406995825,None,,,,,,,,,,,,,,,,,,,,,,,,,,,,,,,,,NC23,001,2021_Nov_10_1614,ProdSingRedo,3.2.3,59.853359351463915,
58,0,58,0,,,,,,,,,,,,,,,,,,,,,,,,,,,,1301.0387228997424,None,degree,aloud,blue,37,89,1299.0368120996282,None,None,1299.0368120996282,None,,,,,,,,,,,,,,,,,,,,,,,,,,,,,,,,,NC23,001,2021_Nov_10_1614,ProdSingRedo,3.2.3,59.853359351463915,
59,0,59,0,,,,,,,,,,,,,,,,,,,,,,,,,,,,1303.5552886999212,None,comedy,sing,yellow,19,58,1301.551578299608,None,None,1301.551578299608,None,,,,,,,,,,,,,,,,,,,,,,,,,,,,,,,,,NC23,001,2021_Nov_10_1614,ProdSingRedo,3.2.3,59.853359351463915,
60,0,60,0,,,,,,,,,,,,,,,,,,,,,,,,,,,,1306.0713848997839,None,birth,sing,yellow,6,22,1304.0680669997819,None,None,1304.0680669997819,None,,,,,,,,,,,,,,,,,,,,,,,,,,,,,,,,,NC23,001,2021_Nov_10_1614,ProdSingRedo,3.2.3,59.853359351463915,
61,0,61,0,,,,,,,,,,,,,,,,,,,,,,,,,,,,1308.5892390999943,None,murder,aloud,blue,52,195,1306.5866270000115,None,None,1306.5866270000115,None,,,,,,,,,,,,,,,,,,,,,,,,,,,,,,,,,NC23,001,2021_Nov_10_1614,ProdSingRedo,3.2.3,59.853359351463915,
62,0,62,0,,,,,,,,,,,,,,,,,,,,,,,,,,,,1311.1057830997743,None,addition,sing,yellow,10,2,1309.1039080996998,None,None,1309.1039080996998,None,,,,,,,,,,,,,,,,,,,,,,,,,,,,,,,,,NC23,001,2021_Nov_10_1614,ProdSingRedo,3.2.3,59.853359351463915,
63,0,63,0,,,,,,,,,,,,,,,,,,,,,,,,,,,,1313.6232387996279,None,emergency,sing,yellow,3,110,1311.6228000996634,None,None,1311.6228000996634,None,,,,,,,,,,,,,,,,,,,,,,,,,,,,,,,,,NC23,001,2021_Nov_10_1614,ProdSingRedo,3.2.3,59.853359351463915,
64,0,64,0,,,,,,,,,,,,,,,,,,,,,,,,,,,,1316.138519599568,None,solution,sing,yellow,27,294,1314.1479932996444,None,None,1314.1479932996444,None,,,,,,,,,,,,,,,,,,,,,,,,,,,,,,,,,NC23,001,2021_Nov_10_1614,ProdSingRedo,3.2.3,59.853359351463915,
65,0,65,0,,,,,,,,,,,,,,,,,,,,,,,,,,,,1318.6564348996617,None,trial,aloud,blue,58,341,1316.6540478998795,None,None,1316.6540478998795,None,,,,,,,,,,,,,,,,,,,,,,,,,,,,,,,,,NC23,001,2021_Nov_10_1614,ProdSingRedo,3.2.3,59.853359351463915,
66,0,66,0,,,,,,,,,,,,,,,,,,,,,,,,,,,,1321.173257299699,None,provision,aloud,blue,43,243,1319.162079199683,None,None,1319.162079199683,None,,,,,,,,,,,,,,,,,,,,,,,,,,,,,,,,,NC23,001,2021_Nov_10_1614,ProdSingRedo,3.2.3,59.853359351463915,
67,0,67,0,,,,,,,,,,,,,,,,,,,,,,,,,,,,1323.6901446999982,None,course,aloud,blue,51,74,1321.6871959995478,None,None,1321.6871959995478,None,,,,,,,,,,,,,,,,,,,,,,,,,,,,,,,,,NC23,001,2021_Nov_10_1614,ProdSingRedo,3.2.3,59.853359351463915,
68,0,68,0,,,,,,,,,,,,,,,,,,,,,,,,,,,,1326.205767699983,None,month,aloud,blue,39,193,1324.1985208997503,None,None,1324.1985208997503,None,,,,,,,,,,,,,,,,,,,,,,,,,,,,,,,,,NC23,001,2021_Nov_10_1614,ProdSingRedo,3.2.3,59.853359351463915,
69,0,69,0,,,,,,,,,,,,,,,,,,,,,,,,,,,,1328.7237930996343,None,under,aloud,blue,42,343,1326.7224957998842,None,None,1326.7224957998842,None,,,,,,,,,,,,,,,,,,,,,,,,,,,,,,,,,NC23,001,2021_Nov_10_1614,ProdSingRedo,3.2.3,59.853359351463915,
70,0,70,0,,,,,,,,,,,,,,,,,,,,,,,,,,,,1331.2396947997622,None,mankind,silent,red,81,178,1329.241942399647,None,None,1329.241942399647,None,,,,,,,,,,,,,,,,,,,,,,,,,,,,,,,,,NC23,001,2021_Nov_10_1614,ProdSingRedo,3.2.3,59.853359351463915,
71,0,71,0,,,,,,,,,,,,,,,,,,,,,,,,,,,,1333.7575560999103,None,platform,silent,red,77,224,1331.7579130996019,None,None,1331.7579130996019,None,,,,,,,,,,,,,,,,,,,,,,,,,,,,,,,,,NC23,001,2021_Nov_10_1614,ProdSingRedo,3.2.3,59.853359351463915,
72,0,72,0,,,,,,,,,,,,,,,,,,,,,,,,,,,,1336.2742772996426,None,business,silent,red,60,38,1334.264175299555,None,None,1334.264175299555,None,,,,,,,,,,,,,,,,,,,,,,,,,,,,,,,,,NC23,001,2021_Nov_10_1614,ProdSingRedo,3.2.3,59.853359351463915,
73,0,73,0,,,,,,,,,,,,,,,,,,,,,,,,,,,,1338.7910395995714,None,crisis,aloud,blue,33,79,1336.7841142998077,None,None,1336.7841142998077,None,,,,,,,,,,,,,,,,,,,,,,,,,,,,,,,,,NC23,001,2021_Nov_10_1614,ProdSingRedo,3.2.3,59.853359351463915,
74,0,74,0,,,,,,,,,,,,,,,,,,,,,,,,,,,,1341.3079386996105,None,candidate,aloud,blue,47,39,1339.30718779983,None,None,1339.30718779983,None,,,,,,,,,,,,,,,,,,,,,,,,,,,,,,,,,NC23,001,2021_Nov_10_1614,ProdSingRedo,3.2.3,59.853359351463915,
75,0,75,0,,,,,,,,,,,,,,,,,,,,,,,,,,,,1343.8247499996796,None,capital,aloud,blue,35,40,1341.8245385996997,None,None,1341.8245385996997,None,,,,,,,,,,,,,,,,,,,,,,,,,,,,,,,,,NC23,001,2021_Nov_10_1614,ProdSingRedo,3.2.3,59.853359351463915,
76,0,76,0,,,,,,,,,,,,,,,,,,,,,,,,,,,,1346.3422910999507,None,general,aloud,blue,49,135,1344.340665699914,None,None,1344.340665699914,None,,,,,,,,,,,,,,,,,,,,,,,,,,,,,,,,,NC23,001,2021_Nov_10_1614,ProdSingRedo,3.2.3,59.853359351463915,
77,0,77,0,,,,,,,,,,,,,,,,,,,,,,,,,,,,1348.858346299734,None,weather,sing,yellow,16,352,1346.8483464997262,None,None,1346.8483464997262,None,,,,,,,,,,,,,,,,,,,,,,,,,,,,,,,,,NC23,001,2021_Nov_10_1614,ProdSingRedo,3.2.3,59.853359351463915,
78,0,78,0,,,,,,,,,,,,,,,,,,,,,,,,,,,,1351.3753243996762,None,bright,aloud,blue,59,29,1349.3839255999774,None,None,1349.3839255999774,None,,,,,,,,,,,,,,,,,,,,,,,,,,,,,,,,,NC23,001,2021_Nov_10_1614,ProdSingRedo,3.2.3,59.853359351463915,
79,0,79,0,,,,,,,,,,,,,,,,,,,,,,,,,,,,1353.8920636000112,None,silence,sing,yellow,26,288,1351.883719699923,None,None,1351.883719699923,None,,,,,,,,,,,,,,,,,,,,,,,,,,,,,,,,,NC23,001,2021_Nov_10_1614,ProdSingRedo,3.2.3,59.853359351463915,
80,0,80,0,,,,,,,,,,,,,,,,,,,,,,,,,,,,1356.4091386999935,None,session,sing,yellow,20,281,1354.4029233995825,None,None,1354.4029233995825,None,,,,,,,,,,,,,,,,,,,,,,,,,,,,,,,,,NC23,001,2021_Nov_10_1614,ProdSingRedo,3.2.3,59.853359351463915,
81,0,81,0,,,,,,,,,,,,,,,,,,,,,,,,,,,,1358.9252895996906,None,pretty,sing,yellow,23,233,1356.910851799883,None,None,1356.910851799883,None,,,,,,,,,,,,,,,,,,,,,,,,,,,,,,,,,NC23,001,2021_Nov_10_1614,ProdSingRedo,3.2.3,59.853359351463915,
82,0,82,0,,,,,,,,,,,,,,,,,,,,,,,,,,,,1361.4426509998739,None,public,silent,red,76,244,1359.43919299962,None,None,1359.43919299962,None,,,,,,,,,,,,,,,,,,,,,,,,,,,,,,,,,NC23,001,2021_Nov_10_1614,ProdSingRedo,3.2.3,59.853359351463915,
83,0,83,0,,,,,,,,,,,,,,,,,,,,,,,,,,,,1363.9594563995488,None,swift,sing,yellow,22,320,1361.9580506999046,None,None,1361.9580506999046,None,,,,,,,,,,,,,,,,,,,,,,,,,,,,,,,,,NC23,001,2021_Nov_10_1614,ProdSingRedo,3.2.3,59.853359351463915,
84,0,84,0,,,,,,,,,,,,,,,,,,,,,,,,,,,,1366.4762833998539,None,length,aloud,blue,36,169,1364.4737497000024,None,None,1364.4737497000024,None,,,,,,,,,,,,,,,,,,,,,,,,,,,,,,,,,NC23,001,2021_Nov_10_1614,ProdSingRedo,3.2.3,59.853359351463915,
85,0,85,0,,,,,,,,,,,,,,,,,,,,,,,,,,,,1368.992982099764,None,trash,silent,red,82,337,1366.9874860998243,None,None,1366.9874860998243,None,,,,,,,,,,,,,,,,,,,,,,,,,,,,,,,,,NC23,001,2021_Nov_10_1614,ProdSingRedo,3.2.3,59.853359351463915,
86,0,86,0,,,,,,,,,,,,,,,,,,,,,,,,,,,,1371.5098655996844,None,still,silent,red,62,304,1369.4943473995663,None,None,1369.4943473995663,None,,,,,,,,,,,,,,,,,,,,,,,,,,,,,,,,,NC23,001,2021_Nov_10_1614,ProdSingRedo,3.2.3,59.853359351463915,
87,0,87,0,,,,,,,,,,,,,,,,,,,,,,,,,,,,1374.0269985999912,None,community,aloud,blue,54,63,1372.0277116997167,None,None,1372.0277116997167,None,,,,,,,,,,,,,,,,,,,,,,,,,,,,,,,,,NC23,001,2021_Nov_10_1614,ProdSingRedo,3.2.3,59.853359351463915,
88,0,88,0,,,,,,,,,,,,,,,,,,,,,,,,,,,,1376.5432437998243,None,guide,silent,red,87,147,1374.539462399669,None,None,1374.539462399669,None,,,,,,,,,,,,,,,,,,,,,,,,,,,,,,,,,NC23,001,2021_Nov_10_1614,ProdSingRedo,3.2.3,59.853359351463915,
89,0,89,0,,,,,,,,,,,,,,,,,,,,,,,,,,,,1379.0595977995545,None,count,aloud,blue,34,72,1377.0442295996472,None,None,1377.0442295996472,None,,,,,,,,,,,,,,,,,,,,,,,,,,,,,,,,,NC23,001,2021_Nov_10_1614,ProdSingRedo,3.2.3,59.853359351463915,
,,,,,,,,,,,,,,,,,,,,,,,,,,,,,,,,,,,,,,,,,,,1379.5608858997002,None,k,217.0538592003286,1379.5608858997002,None,,,,,,,,,,,,,,,,,,,,,,,,,,,NC23,001,2021_Nov_10_1614,ProdSingRedo,3.2.3,59.853359351463915,
,,,,0,0,0,0,,,,,,,,,,,,,,,,,,,,,,,,1605.8692975998856,None,,,,,,,,,,,,,,,,,treatment,silent,white,0,85,339,1597.1636613998562,None,1597.1636613998562,None,6,4.844182299915701,1597.1636613998562,None,1602.0349126998335,None,1602.555551099591,None,1602.555551099591,None,f,3.276101099792868,1602.555551099591,None,,,NC23,001,2021_Nov_10_1614,ProdSingRedo,3.2.3,59.853359351463915,
,,,,1,0,1,0,,,,,,,,,,,,,,,,,,,,,,,,1619.7016681996174,None,,,,,,,,,,,,,,,,,provision,aloud,white,1,43,243,1606.395367199555,None,1606.395367199555,None,4,4.828732900321484,1606.395367199555,None,1611.2702731997706,None,1611.7908250996843,None,1611.7908250996843,None,n,7.87279099971056,1611.7908250996843,None,,,NC23,001,2021_Nov_10_1614,ProdSingRedo,3.2.3,59.853359351463915,
,,,,2,0,2,0,,,,,,,,,,,,,,,,,,,,,,,,1628.803767599631,None,,,,,,,,,,,,,,,,,front,sing,white,2,9,134,1620.2252013999969,None,1620.2252013999969,None,6,3.9103725999593735,1620.2252013999969,None,1624.1730382000096,None,1624.6876110997982,None,1624.6876110997982,None,f,4.079931899905205,1624.6876110997982,None,,,NC23,001,2021_Nov_10_1614,ProdSingRedo,3.2.3,59.853359351463915,
,,,,3,0,3,0,,,,,,,,,,,,,,,,,,,,,,,,1633.5699079995975,None,,,,,,,,,,,,,,,,,couch,new_a,white,3,107,70,1629.3291471996345,None,1629.3291471996345,None,6,2.6861627004109323,1629.3291471996345,None,1632.0509684998542,None,1632.560070999898,None,1632.560070999898,None,r,0.9755354998633265,1632.560070999898,None,,,NC23,001,2021_Nov_10_1614,ProdSingRedo,3.2.3,59.853359351463915,
,,,,4,0,4,0,,,,,,,,,,,,,,,,,,,,,,,,1642.619279799983,None,,,,,,,,,,,,,,,,,revolution,new_c,white,4,161,264,1634.0953150996938,None,1634.0953150996938,None,6,4.568462399765849,1634.0953150996938,None,1638.7172971996479,None,1639.2470482997596,None,1639.2470482997596,None,f,3.3366475999355316,1639.2470482997596,None,,,NC23,001,2021_Nov_10_1614,ProdSingRedo,3.2.3,59.853359351463915,
,,,,5,0,5,0,,,,,,,,,,,,,,,,,,,,,,,,1648.5387241998687,None,,,,,,,,,,,,,,,,,degree,aloud,white,5,37,89,1643.1454449999146,None,1643.1454449999146,None,6,1.6860929001122713,1643.1454449999146,None,1644.8704483998008,None,1645.3910888996907,None,1645.3910888996907,None,r,3.1206987998448312,1645.3910888996907,None,,,NC23,001,2021_Nov_10_1614,ProdSingRedo,3.2.3,59.853359351463915,
,,,,6,0,6,0,,,,,,,,,,,,,,,,,,,,,,,,1656.33796599973,None,,,,,,,,,,,,,,,,,literature,new_c,white,6,177,173,1649.0669470997527,None,1649.0669470997527,None,5,3.4686018000356853,1649.0669470997527,None,1652.5793701997027,None,1653.0963077996857,None,1653.0963077996857,None,f,3.215478700120002,1653.0963077996857,None,,,NC23,001,2021_Nov_10_1614,ProdSingRedo,3.2.3,59.853359351463915,
,,,,7,0,7,0,,,,,,,,,,,,,,,,,,,,,,,,1661.9291573995724,None,,,,,,,,,,,,,,,,,count,aloud,white,7,34,72,1656.8600081996992,None,1656.8600081996992,None,6,2.763660400174558,1656.8600081996992,None,1659.6714198999107,None,1660.1897268998437,None,1660.1897268998437,None,r,1.7136009000241756,1660.1897268998437,None,,,NC23,001,2021_Nov_10_1614,ProdSingRedo,3.2.3,59.853359351463915,
,,,,8,0,8,0,,,,,,,,,,,,,,,,,,,,,,,,1669.1129798996262,None,,,,,,,,,,,,,,,,,bicycle,silent,white,8,68,21,1662.4489523000084,None,1662.4489523000084,None,6,2.222842799965292,1662.4489523000084,None,1664.712388899643,None,1665.2278026998974,None,1665.2278026998974,None,r,3.867810399737209,1665.2278026998974,None,,,NC23,001,2021_Nov_10_1614,ProdSingRedo,3.2.3,59.853359351463915,
,,,,9,0,9,0,,,,,,,,,,,,,,,,,,,,,,,,1678.8565594996326,None,,,,,,,,,,,,,,,,,public,silent,white,9,76,244,1669.6234612995759,None,1669.6234612995759,None,6,3.864219999872148,1669.6234612995759,None,1673.5385331995785,None,1674.0633927998133,None,1674.0633927998133,None,n,4.760257799644023,1674.0633927998133,None,,,NC23,001,2021_Nov_10_1614,ProdSingRedo,3.2.3,59.853359351463915,
,,,,10,0,10,0,,,,,,,,,,,,,,,,,,,,,,,,1684.108807099983,None,,,,,,,,,,,,,,,,,light,new_b,white,10,129,171,1679.3816764997318,None,1679.3816764997318,None,6,3.1859940998256207,1679.3816764997318,None,1682.6213007997721,None,1683.141189799644,None,1683.141189799644,None,f,0.9305856004357338,1683.141189799644,None,,,NC23,001,2021_Nov_10_1614,ProdSingRedo,3.2.3,59.853359351463915,
,,,,11,0,11,0,,,,,,,,,,,,,,,,,,,,,,,,1691.090434699785,None,,,,,,,,,,,,,,,,,display,sing,white,11,8,98,1684.634997499641,None,1684.634997499641,None,5,2.876687799580395,1684.634997499641,None,1687.536560899578,None,1688.062030099798,None,1688.062030099798,None,n,2.9935904000885785,1688.062030099798,None,,,NC23,001,2021_Nov_10_1614,ProdSingRedo,3.2.3,59.853359351463915,
,,,,12,0,12,0,,,,,,,,,,,,,,,,,,,,,,,,1698.4409403996542,None,,,,,,,,,,,,,,,,,concern,silent,white,12,86,65,1691.6126736998558,None,1691.6126736998558,None,6,5.32301629986614,1691.6126736998558,None,1696.9885929999873,None,1697.506331099663,None,1697.506331099663,None,r,0.9095720001496375,1697.506331099663,None,,,NC23,001,2021_Nov_10_1614,ProdSingRedo,3.2.3,59.853359351463915,
,,,,13,0,13,0,,,,,,,,,,,,,,,,,,,,,,,,1705.8144942997023,None,,,,,,,,,,,,,,,,,close,new_c,white,13,159,53,1698.9626832995564,None,1698.9626832995564,None,6,2.333325000014156,1698.9626832995564,None,1701.334503899794,None,1701.8548596999608,None,1701.8548596999608,None,f,3.928850600030273,1701.8548596999608,None,,,NC23,001,2021_Nov_10_1614,ProdSingRedo,3.2.3,59.853359351463915,
,,,,14,0,14,0,,,,,,,,,,,,,,,,,,,,,,,,1714.6251709996723,None,,,,,,,,,,,,,,,,,mayor,new_a,white,14,112,183,1706.3328316998668,None,1706.3328316998668,None,5,4.4107884000986814,1706.3328316998668,None,1710.7926378999837,None,1711.3097889996134,None,1711.3097889996134,None,n,3.281947299838066,1711.3097889996134,None,,,NC23,001,2021_Nov_10_1614,ProdSingRedo,3.2.3,59.853359351463915,
,,,,15,0,15,0,,,,,,,,,,,,,,,,,,,,,,,,1721.1922923997045,None,,,,,,,,,,,,,,,,,rural,new_c,white,15,163,269,1715.1491950997151,None,1715.1491950997151,None,6,4.210644300095737,1715.1491950997151,None,1719.4096470996737,None,1719.9301188997924,None,1719.9301188997924,None,n,1.2295780000276864,1719.9301188997924,None,,,NC23,001,2021_Nov_10_1614,ProdSingRedo,3.2.3,59.853359351463915,
,,,,16,0,16,0,,,,,,,,,,,,,,,,,,,,,,,,1729.2783962995745,None,,,,,,,,,,,,,,,,,quarter,new_b,white,16,127,246,1721.7170172999613,None,1721.7170172999613,None,5,6.082927200011909,1721.7170172999613,None,1727.8401278997771,None,1728.35273839999,None,1728.35273839999,None,f,0.895584600046277,1728.35273839999,None,,,NC23,001,2021_Nov_10_1614,ProdSingRedo,3.2.3,59.853359351463915,
,,,,17,0,17,0,,,,,,,,,,,,,,,,,,,,,,,,1735.443533399608,None,,,,,,,,,,,,,,,,,taste,new_b,white,17,132,322,1729.803954300005,None,1729.803954300005,None,6,3.5876796999946237,1729.803954300005,None,1733.4406730998307,None,1733.9621031996794,None,1733.9621031996794,None,r,1.4539355002343655,1733.9621031996794,None,,,NC23,001,2021_Nov_10_1614,ProdSingRedo,3.2.3,59.853359351463915,
,,,,18,0,18,0,,,,,,,,,,,,,,,,,,,,,,,,1739.7432523998432,None,,,,,,,,,,,,,,,,,dream,new_c,white,18,155,104,1735.9676947998814,None,1735.9676947998814,None,6,2.264577599707991,1735.9676947998814,None,1738.2796096997336,None,1738.786223899573,None,1738.786223899573,None,f,0.9175622998736799,1738.786223899573,None,,,NC23,001,2021_Nov_10_1614,ProdSingRedo,3.2.3,59.853359351463915,
,,,,19,0,19,0,,,,,,,,,,,,,,,,,,,,,,,,1744.8600217998028,None,,,,,,,,,,,,,,,,,department,new_b,white,19,139,90,1740.272387499921,None,1740.272387499921,None,6,1.7834553997963667,1740.272387499921,None,1742.11016989965,None,1742.6292000999674,None,1742.6292000999674,None,f,2.194591199979186,1742.6292000999674,None,,,NC23,001,2021_Nov_10_1614,ProdSingRedo,3.2.3,59.853359351463915,
,,,,20,0,20,0,,,,,,,,,,,,,,,,,,,,,,,,1750.1270470996387,None,,,,,,,,,,,,,,,,,debate,new_a,white,20,108,87,1745.387291399762,None,1745.387291399762,None,5,2.5325156999751925,1745.387291399762,None,1747.9588640998118,None,1748.4658177997917,None,1748.4658177997917,None,n,1.6378844999708235,1748.4658177997917,None,,,NC23,001,2021_Nov_10_1614,ProdSingRedo,3.2.3,59.853359351463915,
,,,,21,0,21,0,,,,,,,,,,,,,,,,,,,,,,,,1754.777637299616,None,,,,,,,,,,,,,,,,,emergency,sing,white,21,3,110,1750.6583998999558,None,1750.6583998999558,None,6,2.693403899669647,1750.6583998999558,None,1753.398635499645,None,1753.9183576996438,None,1753.9183576996438,None,r,0.8252640999853611,1753.9183576996438,None,,,NC23,001,2021_Nov_10_1614,ProdSingRedo,3.2.3,59.853359351463915,
,,,,22,0,22,0,,,,,,,,,,,,,,,,,,,,,,,,1760.163602499757,None,,,,,,,,,,,,,,,,,question,new_a,white,22,105,247,1755.3068727999926,None,1755.3068727999926,None,6,3.140549700241536,1755.3068727999926,None,1758.471652999986,None,1758.9864175999537,None,1758.9864175999537,None,r,1.1412567999213934,1758.9864175999537,None,,,NC23,001,2021_Nov_10_1614,ProdSingRedo,3.2.3,59.853359351463915,
,,,,23,0,23,0,,,,,,,,,,,,,,,,,,,,,,,,1766.1812759996392,None,,,,,,,,,,,,,,,,,rapid,silent,white,23,75,252,1760.6857513999566,None,1760.6857513999566,None,4,3.4098022002726793,1760.6857513999566,None,1764.1268343999982,None,1764.6487992997281,None,1764.6487992997281,None,f,1.4949170001782477,1764.6487992997281,None,,,NC23,001,2021_Nov_10_1614,ProdSingRedo,3.2.3,59.853359351463915,
,,,,24,0,24,0,,,,,,,,,,,,,,,,,,,,,,,,1770.6954815997742,None,,,,,,,,,,,,,,,,,quick,new_b,white,24,141,248,1766.708117599599,None,1766.708117599599,None,6,2.443854999728501,1766.708117599599,None,1769.1900163996033,None,1769.71693889983,None,1769.71693889983,None,r,0.9388098996132612,1769.71693889983,None,,,NC23,001,2021_Nov_10_1614,ProdSingRedo,3.2.3,59.853359351463915,
,,,,25,0,25,0,,,,,,,,,,,,,,,,,,,,,,,,1777.5531161995605,None,,,,,,,,,,,,,,,,,patient,aloud,white,25,31,213,1771.2189458999783,None,1771.2189458999783,None,6,2.1967723998241127,1771.2189458999783,None,1773.4627695996314,None,1773.9840374998748,None,1773.9840374998748,None,r,3.551549300085753,1773.9840374998748,None,,,NC23,001,2021_Nov_10_1614,ProdSingRedo,3.2.3,59.853359351463915,
,,,,26,0,26,0,,,,,,,,,,,,,,,,,,,,,,,,1782.4374782997184,None,,,,,,,,,,,,,,,,,dozen,silent,white,26,89,102,1778.0716840997338,None,1778.0716840997338,None,5,2.73608689988032,1778.0716840997338,None,1780.86039969977,None,1781.3825582996942,None,1781.3825582996942,None,n,1.02481870027259,1781.3825582996942,None,,,NC23,001,2021_Nov_10_1614,ProdSingRedo,3.2.3,59.853359351463915,
,,,,27,0,27,0,,,,,,,,,,,,,,,,,,,,,,,,1786.0628531998955,None,,,,,,,,,,,,,,,,,profession,aloud,white,27,32,241,1782.9593520998023,None,1782.9593520998023,None,6,1.6483893999829888,1782.9593520998023,None,1784.6590140997432,None,1785.1872759996913,None,1785.1872759996913,None,r,0.8363968003541231,1785.1872759996913,None,,,NC23,001,2021_Nov_10_1614,ProdSingRedo,3.2.3,59.853359351463915,
,,,,28,0,28,0,,,,,,,,,,,,,,,,,,,,,,,,1793.4640630995855,None,,,,,,,,,,,,,,,,,institute,new_b,white,28,143,162,1786.5916179995984,None,1786.5916179995984,None,4,4.968045799992979,1786.5916179995984,None,1791.6148981996812,None,1792.1309100999497,None,1792.1309100999497,None,n,1.3008286003023386,1792.1309100999497,None,,,NC23,001,2021_Nov_10_1614,ProdSingRedo,3.2.3,59.853359351463915,
,,,,29,0,29,0,,,,,,,,,,,,,,,,,,,,,,,,1798.2142933998257,None,,,,,,,,,,,,,,,,,industry,new_c,white,29,160,161,1793.9894169997424,None,1793.9894169997424,None,6,1.9383641998283565,1793.9894169997424,None,1795.9795899000019,None,1796.5060518998653,None,1796.5060518998653,None,r,1.677830500062555,1796.5060518998653,None,,,NC23,001,2021_Nov_10_1614,ProdSingRedo,3.2.3,59.853359351463915,
,,,,30,0,30,0,,,,,,,,,,,,,,,,,,,,,,,,1804.632315499708,None,,,,,,,,,,,,,,,,,drama,new_b,white,30,142,103,1798.741391599644,None,1798.741391599644,None,6,3.826306799892336,1798.741391599644,None,1802.6140764998272,None,1803.1354750995524,None,1803.1354750995524,None,r,1.4722247999161482,1803.1354750995524,None,,,NC23,001,2021_Nov_10_1614,ProdSingRedo,3.2.3,59.853359351463915,
,,,,31,0,31,0,,,,,,,,,,,,,,,,,,,,,,,,1813.2990895998664,None,,,,,,,,,,,,,,,,,period,silent,white,31,64,217,1805.1528805997223,None,1805.1528805997223,None,5,5.278836499899626,1805.1528805997223,None,1810.4874034998938,None,1810.9956007995643,None,1810.9956007995643,None,f,2.2764924997463822,1810.9956007995643,None,,,NC23,001,2021_Nov_10_1614,ProdSingRedo,3.2.3,59.853359351463915,
,,,,32,0,32,0,,,,,,,,,,,,,,,,,,,,,,,,1819.6568012000062,None,,,,,,,,,,,,,,,,,agency,new_a,white,32,113,4,1813.82584209973,None,1813.82584209973,None,4,3.109980700071901,1813.82584209973,None,1816.985348999966,None,1817.504035699647,None,1817.504035699647,None,n,2.1274474998936057,1817.504035699647,None,,,NC23,001,2021_Nov_10_1614,ProdSingRedo,3.2.3,59.853359351463915,
,,,,33,0,33,0,,,,,,,,,,,,,,,,,,,,,,,,1825.5872014998458,None,,,,,,,,,,,,,,,,,under,aloud,white,33,42,343,1820.1780048999935,None,1820.1780048999935,None,6,4.00596689991653,1820.1780048999935,None,1824.2300128997304,None,1824.756039999891,None,1824.756039999891,None,f,0.787688999902457,1824.756039999891,None,,,NC23,001,2021_Nov_10_1614,ProdSingRedo,3.2.3,59.853359351463915,
,,,,34,0,34,0,,,,,,,,,,,,,,,,,,,,,,,,1834.285033899825,None,,,,,,,,,,,,,,,,,solution,sing,white,34,27,294,1826.11025769962,None,1826.11025769962,None,6,5.129641900304705,1826.11025769962,None,1831.2796637997963,None,1831.8068593996577,None,1831.8068593996577,None,r,2.4410856002941728,1831.8068593996577,None,,,NC23,001,2021_Nov_10_1614,ProdSingRedo,3.2.3,59.853359351463915,
,,,,35,0,35,0,,,,,,,,,,,,,,,,,,,,,,,,1838.509076999966,None,,,,,,,,,,,,,,,,,member,new_a,white,35,119,188,1834.816777299624,None,1834.816777299624,None,6,2.102743700146675,1834.816777299624,None,1836.9583124998026,None,1837.4580210996792,None,1837.4580210996792,None,r,1.0305034001357853,1837.4580210996792,None,,,NC23,001,2021_Nov_10_1614,ProdSingRedo,3.2.3,59.853359351463915,
,,,,36,0,36,0,,,,,,,,,,,,,,,,,,,,,,,,1846.284389899578,None,,,,,,,,,,,,,,,,,weather,sing,white,36,16,352,1839.0308825997636,None,1839.0308825997636,None,6,1.576751799788326,1839.0308825997636,None,1840.6374808996916,None,1841.1520040999167,None,1841.1520040999167,None,r,5.1046178000979125,1841.1520040999167,None,,,NC23,001,2021_Nov_10_1614,ProdSingRedo,3.2.3,59.853359351463915,
,,,,37,0,37,0,,,,,,,,,,,,,,,,,,,,,,,,1849.4340177997947,None,,,,,,,,,,,,,,,,,material,sing,white,37,29,182,1846.8138688998297,None,1846.8138688998297,None,6,1.6659214003011584,1846.8138688998297,None,1848.5362378996797,None,1849.064161699731,None,1849.064161699731,None,f,0.343709500040859,1849.064161699731,None,,,NC23,001,2021_Nov_10_1614,ProdSingRedo,3.2.3,59.853359351463915,
,,,,38,0,38,0,,,,,,,,,,,,,,,,,,,,,,,,1856.6375849996693,None,,,,,,,,,,,,,,,,,blind,sing,white,38,2,24,1849.9578789998777,None,1849.9578789998777,None,6,2.105996500235051,1849.9578789998777,None,1852.113775999751,None,1852.635518099647,None,1852.635518099647,None,r,3.9641867000609636,1852.635518099647,None,,,NC23,001,2021_Nov_10_1614,ProdSingRedo,3.2.3,59.853359351463915,
,,,,39,0,39,0,,,,,,,,,,,,,,,,,,,,,,,,1860.2353943996131,None,,,,,,,,,,,,,,,,,stand,new_b,white,39,136,302,1857.1624872996472,None,1857.1624872996472,None,6,1.8454741998575628,1857.1624872996472,None,1859.049893999938,None,1859.570018899627,None,1859.570018899627,None,f,0.6381190000101924,1859.570018899627,None,,,NC23,001,2021_Nov_10_1614,ProdSingRedo,3.2.3,59.853359351463915,
,,,,40,0,40,0,,,,,,,,,,,,,,,,,,,,,,,,1867.44323229976,None,,,,,,,,,,,,,,,,,balance,new_a,white,40,96,17,1860.7519659996033,None,1860.7519659996033,None,5,2.9677955000661314,1860.7519659996033,None,1863.7695169998333,None,1864.3013014998287,None,1864.3013014998287,None,r,3.122488799970597,1864.3013014998287,None,,,NC23,001,2021_Nov_10_1614,ProdSingRedo,3.2.3,59.853359351463915,
,,,,41,0,41,0,,,,,,,,,,,,,,,,,,,,,,,,1870.2855442999862,None,,,,,,,,,,,,,,,,,hunger,silent,white,41,63,155,1867.9645643997937,None,1867.9645643997937,None,6,1.4833521996624768,1867.9645643997937,None,1869.4988127998076,None,1870.024793899618,None,1870.024793899618,None,r,0.22309960005804896,1870.024793899618,None,,,NC23,001,2021_Nov_10_1614,ProdSingRedo,3.2.3,59.853359351463915,
,,,,42,0,42,0,,,,,,,,,,,,,,,,,,,,,,,,1875.1531497999094,None,,,,,,,,,,,,,,,,,thick,new_a,white,42,91,327,1870.8087673997506,None,1870.8087673997506,None,5,2.502909299917519,1870.8087673997506,None,1873.345009799581,None,1873.8545112996362,None,1873.8545112996362,None,f,1.2734928000718355,1873.8545112996362,None,,,NC23,001,2021_Nov_10_1614,ProdSingRedo,3.2.3,59.853359351463915,
,,,,43,0,43,0,,,,,,,,,,,,,,,,,,,,,,,,1879.1360957999714,None,,,,,,,,,,,,,,,,,spoke,aloud,white,43,45,300,1875.676342899911,None,1875.676342899911,None,6,1.7873956002295017,1875.676342899911,None,1877.5129036996514,None,1878.0380590995774,None,1878.0380590995774,None,r,1.073821000289172,1878.0380590995774,None,,,NC23,001,2021_Nov_10_1614,ProdSingRedo,3.2.3,59.853359351463915,
,,,,44,0,44,0,,,,,,,,,,,,,,,,,,,,,,,,1883.6346255997196,None,,,,,,,,,,,,,,,,,error,new_c,white,44,175,117,1879.6592306997627,None,1879.6592306997627,None,6,1.6603764002211392,1879.6592306997627,None,1881.3549937997013,None,1881.866591299884,None,1881.866591299884,None,f,1.7409744998440146,1881.866591299884,None,,,NC23,001,2021_Nov_10_1614,ProdSingRedo,3.2.3,59.853359351463915,
,,,,45,0,45,0,,,,,,,,,,,,,,,,,,,,,,,,1887.3095971997827,None,,,,,,,,,,,,,,,,,empty,aloud,white,45,48,112,1884.15738089988,None,1884.15738089988,None,6,1.8265138999558985,1884.15738089988,None,1886.0297496998683,None,1886.5473213996738,None,1886.5473213996738,None,r,0.7323954999446869,1886.5473213996738,None,,,NC23,001,2021_Nov_10_1614,ProdSingRedo,3.2.3,59.853359351463915,
,,,,46,0,46,0,,,,,,,,,,,,,,,,,,,,,,,,1892.4201687998138,None,,,,,,,,,,,,,,,,,smell,new_b,white,46,140,291,1887.8246403997764,None,1887.8246403997764,None,6,1.5752658997662365,1887.8246403997764,None,1889.44934559986,None,1889.971500299871,None,1889.971500299871,None,r,2.41233959980309,1889.971500299871,None,,,NC23,001,2021_Nov_10_1614,ProdSingRedo,3.2.3,59.853359351463915,
,,,,47,0,47,0,,,,,,,,,,,,,,,,,,,,,,,,1899.6215971997008,None,,,,,,,,,,,,,,,,,native,new_c,white,47,152,199,1892.9394562998787,None,1892.9394562998787,None,4,5.036336800083518,1892.9394562998787,None,1898.0040876995772,None,1898.5314729996026,None,1898.5314729996026,None,f,1.0524282003752887,1898.5314729996026,None,,,NC23,001,2021_Nov_10_1614,ProdSingRedo,3.2.3,59.853359351463915,
,,,,48,0,48,0,,,,,,,,,,,,,,,,,,,,,,,,1904.2705823997967,None,,,,,,,,,,,,,,,,,expansion,new_b,white,48,123,123,1900.1477859998122,None,1900.1477859998122,None,6,2.1399905998259783,1900.1477859998122,None,1902.3449826999567,None,1902.8469840995967,None,1902.8469840995967,None,f,1.384878700133413,1902.8469840995967,None,,,NC23,001,2021_Nov_10_1614,ProdSingRedo,3.2.3,59.853359351463915,
,,,,49,0,49,0,,,,,,,,,,,,,,,,,,,,,,,,1908.3050669999793,None,,,,,,,,,,,,,,,,,danger,silent,white,49,83,85,1904.8001623000018,None,1904.8001623000018,None,6,1.4634925001300871,1904.8001623000018,None,1906.30347529985,None,1906.8135973997414,None,1906.8135973997414,None,f,1.4664376000873744,1906.8135973997414,None,,,NC23,001,2021_Nov_10_1614,ProdSingRedo,3.2.3,59.853359351463915,
,,,,50,0,50,0,,,,,,,,,,,,,,,,,,,,,,,,1910.8807195997797,None,,,,,,,,,,,,,,,,,music,new_b,white,50,144,196,1908.8287898995914,None,1908.8287898995914,None,6,1.2829308998771012,1908.8287898995914,None,1910.1390181998722,None,1910.658162499778,None,1910.658162499778,None,r,0.2054656003601849,1910.658162499778,None,,,NC23,001,2021_Nov_10_1614,ProdSingRedo,3.2.3,59.853359351463915,
,,,,51,0,51,0,,,,,,,,,,,,,,,,,,,,,,,,1917.5552803999744,None,,,,,,,,,,,,,,,,,government,new_b,white,51,128,139,1911.4045781996101,None,1911.4045781996101,None,5,3.843339200131595,1911.4045781996101,None,1915.2935995999724,None,1915.8156802998856,None,1915.8156802998856,None,f,1.7041579000651836,1915.8156802998856,None,,,NC23,001,2021_Nov_10_1614,ProdSingRedo,3.2.3,59.853359351463915,
,,,,52,0,52,0,,,,,,,,,,,,,,,,,,,,,,,,1920.256013999693,None,,,,,,,,,,,,,,,,,skill,new_b,white,52,147,289,1918.0810769996606,None,1918.0810769996606,None,6,1.4707798999734223,1918.0810769996606,None,1919.6004126998596,None,1920.1264466997236,None,1920.1264466997236,None,r,0.10562520008534193,1920.1264466997236,None,,,NC23,001,2021_Nov_10_1614,ProdSingRedo,3.2.3,59.853359351463915,
,,,,53,0,53,0,,,,,,,,,,,,,,,,,,,,,,,,1923.822834899649,None,,,,,,,,,,,,,,,,,congress,new_a,white,53,95,67,1920.782622099854,None,1920.782622099854,None,5,1.6974165998399258,1920.782622099854,None,1922.5203705998138,None,1923.0474117998965,None,1923.0474117998965,None,f,0.7443911000154912,1923.0474117998965,None,,,NC23,001,2021_Nov_10_1614,ProdSingRedo,3.2.3,59.853359351463915,
,,,,54,0,54,0,,,,,,,,,,,,,,,,,,,,,,,,1932.6071083997376,None,,,,,,,,,,,,,,,,,mankind,silent,white,54,81,178,1924.3522686995566,None,1924.3522686995566,None,4,2.343815500382334,1924.3522686995566,None,1926.7458332995884,None,1927.24675259972,None,1927.24675259972,None,f,5.329171000048518,1927.24675259972,None,,,NC23,001,2021_Nov_10_1614,ProdSingRedo,3.2.3,59.853359351463915,
,,,,55,0,55,0,,,,,,,,,,,,,,,,,,,,,,,,1938.4912258996628,None,,,,,,,,,,,,,,,,,universal,new_b,white,55,122,345,1933.1398105998524,None,1933.1398105998524,None,6,1.9641181002371013,1933.1398105998524,None,1935.1676015998237,None,1935.6828195997514,None,1935.6828195997514,None,f,2.7729826997965574,1935.6828195997514,None,,,NC23,001,2021_Nov_10_1614,ProdSingRedo,3.2.3,59.853359351463915,
,,,,56,0,56,0,,,,,,,,,,,,,,,,,,,,,,,,1942.0062721995637,None,,,,,,,,,,,,,,,,,recall,new_a,white,56,104,255,1939.0161899998784,None,1939.0161899998784,None,6,1.6395534998737276,1939.0161899998784,None,1940.7073257998563,None,1941.2276692995802,None,1941.2276692995802,None,r,0.7401975998654962,1941.2276692995802,None,,,NC23,001,2021_Nov_10_1614,ProdSingRedo,3.2.3,59.853359351463915,
,,,,57,0,57,0,,,,,,,,,,,,,,,,,,,,,,,,1947.7213270999491,None,,,,,,,,,,,,,,,,,atmosphere,new_b,white,57,135,12,1942.5350782996975,None,1942.5350782996975,None,5,1.9128216998651624,1942.5350782996975,None,1944.4898913996294,None,1945.0086230998859,None,1945.0086230998859,None,f,2.6789978998713195,1945.0086230998859,None,,,NC23,001,2021_Nov_10_1614,ProdSingRedo,3.2.3,59.853359351463915,
,,,,58,0,58,0,,,,,,,,,,,,,,,,,,,,,,,,1953.5244106999598,None,,,,,,,,,,,,,,,,,comedy,sing,white,58,19,58,1948.2526812995784,None,1948.2526812995784,None,6,2.7710672998800874,1948.2526812995784,None,1951.0707614999264,None,1951.5933999996632,None,1951.5933999996632,None,r,1.8945342996157706,1951.5933999996632,None,,,NC23,001,2021_Nov_10_1614,ProdSingRedo,3.2.3,59.853359351463915,
,,,,59,0,59,0,,,,,,,,,,,,,,,,,,,,,,,,1959.4251364995725,None,,,,,,,,,,,,,,,,,detective,aloud,white,59,55,92,1954.0522121996619,None,1954.0522121996619,None,5,4.227618200238794,1954.0522121996619,None,1958.332775699906,None,1958.854530699551,None,1958.854530699551,None,f,0.5453622001223266,1958.854530699551,None,,,NC23,001,2021_Nov_10_1614,ProdSingRedo,3.2.3,59.853359351463915,
,,,,60,0,60,0,,,,,,,,,,,,,,,,,,,,,,,,1961.941502199974,None,,,,,,,,,,,,,,,,,education,new_c,white,60,174,108,1959.950055099558,None,1959.950055099558,None,6,1.3298124000430107,1959.950055099558,None,1961.3296765997075,None,1961.8489812999032,None,1961.8489812999032,None,r,0.05488430010154843,1961.8489812999032,None,,,NC23,001,2021_Nov_10_1614,ProdSingRedo,3.2.3,59.853359351463915,
,,,,61,0,61,0,,,,,,,,,,,,,,,,,,,,,,,,1966.2619877997786,None,,,,,,,,,,,,,,,,,guide,silent,white,61,87,147,1962.4651287999004,None,1962.4651287999004,None,5,2.3108310997486115,1962.4651287999004,None,1964.819304399658,None,1965.3285522996448,None,1965.3285522996448,None,f,0.903797599952668,1965.3285522996448,None,,,NC23,001,2021_Nov_10_1614,ProdSingRedo,3.2.3,59.853359351463915,
,,,,62,0,62,0,,,,,,,,,,,,,,,,,,,,,,,,1970.6588635998778,None,,,,,,,,,,,,,,,,,primary,new_a,white,62,115,234,1966.7898133997805,None,1966.7898133997805,None,4,1.8263924000784755,1966.7898133997805,None,1968.6622328995727,None,1969.1818764996715,None,1969.1818764996715,None,f,1.442178400233388,1969.1818764996715,None,,,NC23,001,2021_Nov_10_1614,ProdSingRedo,3.2.3,59.853359351463915,
,,,,63,0,63,0,,,,,,,,,,,,,,,,,,,,,,,,1973.8018528996035,None,,,,,,,,,,,,,,,,,agreement,new_a,white,63,103,5,1971.185593499802,None,1971.185593499802,None,6,1.534289799630642,1971.185593499802,None,1972.7743151998147,None,1973.296229999978,None,1973.296229999978,None,r,0.47944559995085,1973.296229999978,None,,,NC23,001,2021_Nov_10_1614,ProdSingRedo,3.2.3,59.853359351463915,
,,,,64,0,64,0,,,,,,,,,,,,,,,,,,,,,,,,1979.0420519998297,None,,,,,,,,,,,,,,,,,second,new_b,white,64,137,278,1974.3142749997787,None,1974.3142749997787,None,6,1.7576238000765443,1974.3142749997787,None,1976.1181778996252,None,1976.6255095996894,None,1976.6255095996894,None,f,2.3902644999325275,1976.6255095996894,None,,,NC23,001,2021_Nov_10_1614,ProdSingRedo,3.2.3,59.853359351463915,
,,,,65,0,65,0,,,,,,,,,,,,,,,,,,,,,,,,1989.9440923999064,None,,,,,,,,,,,,,,,,,fellow,new_c,white,65,171,126,1979.5708372998051,None,1979.5708372998051,None,4,8.821142899803817,1979.5708372998051,None,1988.4434245997109,None,1988.9531497997232,None,1988.9531497997232,None,f,0.9669172000139952,1988.9531497997232,None,,,NC23,001,2021_Nov_10_1614,ProdSingRedo,3.2.3,59.853359351463915,
,,,,66,0,66,0,,,,,,,,,,,,,,,,,,,,,,,,1994.5943157998845,None,,,,,,,,,,,,,,,,,portion,sing,white,66,1,228,1990.4656517999247,None,1990.4656517999247,None,6,3.190389699768275,1990.4656517999247,None,1993.708656199742,None,1994.2276087999344,None,1994.2276087999344,None,r,0.3405037997290492,1994.2276087999344,None,,,NC23,001,2021_Nov_10_1614,ProdSingRedo,3.2.3,59.853359351463915,
,,,,67,0,67,0,,,,,,,,,,,,,,,,,,,,,,,,1999.8461206997745,None,,,,,,,,,,,,,,,,,machinery,new_c,white,67,164,175,1995.130441099871,None,1995.130441099871,None,5,2.357604100368917,1995.130441099871,None,1997.5476149995811,None,1998.0599439996295,None,1998.0599439996295,None,r,1.7481129998341203,1998.0599439996295,None,,,NC23,001,2021_Nov_10_1614,ProdSingRedo,3.2.3,59.853359351463915,
,,,,68,0,68,0,,,,,,,,,,,,,,,,,,,,,,,,2004.5631844997406,None,,,,,,,,,,,,,,,,,sound,new_a,white,68,117,295,2000.371986599639,None,2000.371986599639,None,6,2.796132499817759,2000.371986599639,None,2003.2106418996118,None,2003.7310591996647,None,2003.7310591996647,None,r,0.7969404002651572,2003.7310591996647,None,,,NC23,001,2021_Nov_10_1614,ProdSingRedo,3.2.3,59.853359351463915,
,,,,69,0,69,0,,,,,,,,,,,,,,,,,,,,,,,,2009.604198299814,None,,,,,,,,,,,,,,,,,track,new_a,white,69,90,334,2005.0923970998265,None,2005.0923970998265,None,6,2.851419399958104,2005.0923970998265,None,2007.9943493995816,None,2008.505044999998,None,2008.505044999998,None,r,1.0706819002516568,2008.505044999998,None,,,NC23,001,2021_Nov_10_1614,ProdSingRedo,3.2.3,59.853359351463915,
,,,,70,0,70,0,,,,,,,,,,,,,,,,,,,,,,,,2014.4461499997415,None,,,,,,,,,,,,,,,,,candidate,aloud,white,70,47,39,2010.1189196999185,None,2010.1189196999185,None,6,2.409223100170493,2010.1189196999185,None,2012.574060399551,None,2013.1023058998398,None,2013.1023058998398,None,f,1.313568599987775,2013.1023058998398,None,,,NC23,001,2021_Nov_10_1614,ProdSingRedo,3.2.3,59.853359351463915,
,,,,71,0,71,0,,,,,,,,,,,,,,,,,,,,,,,,2018.1629348997958,None,,,,,,,,,,,,,,,,,marriage,new_c,white,71,172,179,2014.9701843997464,None,2014.9701843997464,None,6,2.069393899757415,2014.9701843997464,None,2017.0841409997083,None,2017.5873302998953,None,2017.5873302998953,None,f,0.5404213997535408,2017.5873302998953,None,,,NC23,001,2021_Nov_10_1614,ProdSingRedo,3.2.3,59.853359351463915,
,,,,72,0,72,0,,,,,,,,,,,,,,,,,,,,,,,,2021.946040299721,None,,,,,,,,,,,,,,,,,clean,new_a,white,72,116,51,2018.6865845997818,None,2018.6865845997818,None,5,1.665618299972266,2018.6865845997818,None,2020.393741699867,None,2020.9166778996587,None,2020.9166778996587,None,f,1.0033204997889698,2020.9166778996587,None,,,NC23,001,2021_Nov_10_1614,ProdSingRedo,3.2.3,59.853359351463915,
,,,,73,0,73,0,,,,,,,,,,,,,,,,,,,,,,,,2027.0487639997154,None,,,,,,,,,,,,,,,,,disease,aloud,white,73,41,97,2022.4694122998044,None,2022.4694122998044,None,6,3.674578200094402,2022.4694122998044,None,2026.191041499842,None,2026.7201520996168,None,2026.7201520996168,None,r,0.29599189991131425,2026.7201520996168,None,,,NC23,001,2021_Nov_10_1614,ProdSingRedo,3.2.3,59.853359351463915,
,,,,74,0,74,0,,,,,,,,,,,,,,,,,,,,,,,,2030.0462289997377,None,,,,,,,,,,,,,,,,,tragedy,new_a,white,74,111,335,2027.578752500005,None,2027.578752500005,None,6,1.7972333999350667,2027.578752500005,None,2029.429948200006,None,2029.9533035997301,None,2029.9533035997301,None,r,0.0626002000644803,2029.9533035997301,None,,,NC23,001,2021_Nov_10_1614,ProdSingRedo,3.2.3,59.853359351463915,
,,,,75,0,75,0,,,,,,,,,,,,,,,,,,,,,,,,2034.4586889999919,None,,,,,,,,,,,,,,,,,childhood,new_c,white,75,168,49,2030.5690574999899,None,2030.5690574999899,None,6,2.8947391002438962,2030.5690574999899,None,2033.507613599766,None,2034.030077399686,None,2034.030077399686,None,f,0.39370950032025576,2034.030077399686,None,,,NC23,001,2021_Nov_10_1614,ProdSingRedo,3.2.3,59.853359351463915,
,,,,76,0,76,0,,,,,,,,,,,,,,,,,,,,,,,,2058.949704099912,None,,,,,,,,,,,,,,,,,region,sing,white,76,18,256,2035.0006047999486,None,2035.0006047999486,None,5,22.343346999958158,2035.0006047999486,None,2057.395865599625,None,2057.9183891997673,None,2057.9183891997673,None,f,1.0019983001984656,2057.9183891997673,None,,,NC23,001,2021_Nov_10_1614,ProdSingRedo,3.2.3,59.853359351463915,
,,,,77,0,77,0,,,,,,,,,,,,,,,,,,,,,,,,2062.4655175996013,None,,,,,,,,,,,,,,,,,swift,sing,white,77,22,320,2059.4772644997574,None,2059.4772644997574,None,6,1.7705943998880684,2059.4772644997574,None,2061.293335999828,None,2061.8235693997703,None,2061.8235693997703,None,f,0.6165988999418914,2061.8235693997703,None,,,NC23,001,2021_Nov_10_1614,ProdSingRedo,3.2.3,59.853359351463915,
,,,,78,0,78,0,,,,,,,,,,,,,,,,,,,,,,,,2067.435905699618,None,,,,,,,,,,,,,,,,,prime,new_c,white,78,157,235,2062.9867009995505,None,2062.9867009995505,None,6,2.9251078995876014,2062.9867009995505,None,2065.9592375997454,None,2066.4828980998136,None,2066.4828980998136,None,f,0.9251307002268732,2066.4828980998136,None,,,NC23,001,2021_Nov_10_1614,ProdSingRedo,3.2.3,59.853359351463915,
,,,,79,0,79,0,,,,,,,,,,,,,,,,,,,,,,,,2070.99185449956,None,,,,,,,,,,,,,,,,,block,new_c,white,79,158,25,2067.9599715997465,None,2067.9599715997465,None,6,2.312243000138551,2067.9599715997465,None,2070.3148136995733,None,2070.8272356996313,None,2070.8272356996313,None,r,0.13273699954152107,2070.8272356996313,None,,,NC23,001,2021_Nov_10_1614,ProdSingRedo,3.2.3,59.853359351463915,
,,,,80,0,80,0,,,,,,,,,,,,,,,,,,,,,,,,2079.017037399579,None,,,,,,,,,,,,,,,,,charter,sing,white,80,12,47,2071.501615599729,None,2071.501615599729,None,3,5.314441400114447,2071.501615599729,None,2076.8561247996986,None,2077.357298199553,None,2077.357298199553,None,f,1.6347921998240054,2077.357298199553,None,,,NC23,001,2021_Nov_10_1614,ProdSingRedo,3.2.3,59.853359351463915,
,,,,81,0,81,0,,,,,,,,,,,,,,,,,,,,,,,,2083.284184999764,None,,,,,,,,,,,,,,,,,fight,new_b,white,81,125,127,2079.5433720997535,None,2079.5433720997535,None,6,1.7128666997887194,2079.5433720997535,None,2081.2993320999667,None,2081.8205057997257,None,2081.8205057997257,None,f,1.435781799722463,2081.8205057997257,None,,,NC23,001,2021_Nov_10_1614,ProdSingRedo,3.2.3,59.853359351463915,
,,,,82,0,82,0,,,,,,,,,,,,,,,,,,,,,,,,2087.4513294999488,None,,,,,,,,,,,,,,,,,right,new_b,white,82,131,265,2083.8100249995477,None,2083.8100249995477,None,6,1.7260052002966404,2083.8100249995477,None,2085.581607399974,None,2086.102500199806,None,2086.102500199806,None,f,1.3217003997415304,2086.102500199806,None,,,NC23,001,2021_Nov_10_1614,ProdSingRedo,3.2.3,59.853359351463915,
,,,,83,0,83,0,,,,,,,,,,,,,,,,,,,,,,,,2106.302518399898,None,,,,,,,,,,,,,,,,,conference,new_c,white,83,178,66,2087.9800610998645,None,2087.9800610998645,None,6,16.4919346999377,2087.9800610998645,None,2104.518629399594,None,2105.044019999914,None,2105.044019999914,None,f,1.2278979998081923,2105.044019999914,None,,,NC23,001,2021_Nov_10_1614,ProdSingRedo,3.2.3,59.853359351463915,
,,,,84,0,84,0,,,,,,,,,,,,,,,,,,,,,,,,2108.9535055998713,None,,,,,,,,,,,,,,,,,impact,new_b,white,84,148,157,2106.8310453998856,None,2106.8310453998856,None,6,1.3936609998345375,2106.8310453998856,None,2108.2662280998193,None,2108.789773499593,None,2108.789773499593,None,f,0.1301571000367403,2108.789773499593,None,,,NC23,001,2021_Nov_10_1614,ProdSingRedo,3.2.3,59.853359351463915,
,,,,85,0,85,0,,,,,,,,,,,,,,,,,,,,,,,,2114.192518899683,None,,,,,,,,,,,,,,,,,capital,aloud,white,85,35,40,2109.475087699946,None,2109.475087699946,None,5,2.3250552001409233,2109.475087699946,None,2111.8475931999274,None,2112.376974699553,None,2112.376974699553,None,n,1.78317050030455,2112.376974699553,None,,,NC23,001,2021_Nov_10_1614,ProdSingRedo,3.2.3,59.853359351463915,
,,,,86,0,86,0,,,,,,,,,,,,,,,,,,,,,,,,2118.6029405998997,None,,,,,,,,,,,,,,,,,comfort,sing,white,86,17,59,2114.7122750999406,None,2114.7122750999406,None,6,2.431711600162089,2114.7122750999406,None,2117.1801092997193,None,2117.7151142996736,None,2117.7151142996736,None,r,0.8610271997749805,2117.7151142996736,None,,,NC23,001,2021_Nov_10_1614,ProdSingRedo,3.2.3,59.853359351463915,
,,,,87,0,87,0,,,,,,,,,,,,,,,,,,,,,,,,2122.069582199678,None,,,,,,,,,,,,,,,,,staff,silent,white,87,74,301,2119.126249499619,None,2119.126249499619,None,5,1.9697493999265134,2119.126249499619,None,2121.1380300996825,None,2121.6652568997815,None,2121.6652568997815,None,n,0.36683520022779703,2121.6652568997815,None,,,NC23,001,2021_Nov_10_1614,ProdSingRedo,3.2.3,59.853359351463915,
,,,,88,0,88,0,,,,,,,,,,,,,,,,,,,,,,,,2127.2035959996283,None,,,,,,,,,,,,,,,,,shock,silent,white,88,73,284,2122.5928764999844,None,2122.5928764999844,None,6,2.7508672000840306,2122.5928764999844,None,2125.3716424996965,None,2125.890628399793,None,2125.890628399793,None,r,1.2859958000481129,2125.890628399793,None,,,NC23,001,2021_Nov_10_1614,ProdSingRedo,3.2.3,59.853359351463915,
,,,,89,0,89,0,,,,,,,,,,,,,,,,,,,,,,,,2130.587104999926,None,,,,,,,,,,,,,,,,,incident,silent,white,89,69,158,2127.726012900006,None,2127.726012900006,None,6,1.8099064002744853,2127.726012900006,None,2129.5886269998737,None,2130.103447399568,None,2130.103447399568,None,r,0.4567807000130415,2130.103447399568,None,,,NC23,001,2021_Nov_10_1614,ProdSingRedo,3.2.3,59.853359351463915,
,,,,90,0,90,0,,,,,,,,,,,,,,,,,,,,,,,,2134.897715799976,None,,,,,,,,,,,,,,,,,position,new_b,white,90,146,229,2131.108400899917,None,2131.108400899917,None,5,2.331730299629271,2131.108400899917,None,2133.483584799804,None,2134.0067117996514,None,2134.0067117996514,None,f,0.8730083000846207,2134.0067117996514,None,,,NC23,001,2021_Nov_10_1614,ProdSingRedo,3.2.3,59.853359351463915,
,,,,91,0,91,0,,,,,,,,,,,,,,,,,,,,,,,,2138.4702626997605,None,,,,,,,,,,,,,,,,,sleep,new_b,white,91,149,290,2135.411229599733,None,2135.411229599733,None,6,1.3807578003033996,2135.411229599733,None,2136.813621299807,None,2137.3275281996466,None,2137.3275281996466,None,r,1.1045010001398623,2137.3275281996466,None,,,NC23,001,2021_Nov_10_1614,ProdSingRedo,3.2.3,59.853359351463915,
,,,,92,0,92,0,,,,,,,,,,,,,,,,,,,,,,,,2143.273093799595,None,,,,,,,,,,,,,,,,,quantity,silent,white,92,79,245,2138.994417699985,None,2138.994417699985,None,5,2.2774645001627505,2138.994417699985,None,2141.3236636999063,None,2141.8402158999816,None,2141.8402158999816,None,f,1.391752399969846,2141.8402158999816,None,,,NC23,001,2021_Nov_10_1614,ProdSingRedo,3.2.3,59.853359351463915,
,,,,93,0,93,0,,,,,,,,,,,,,,,,,,,,,,,,2147.5698751998134,None,,,,,,,,,,,,,,,,,report,new_a,white,93,92,259,2143.7846527998336,None,2143.7846527998336,None,6,1.8395500001497567,2143.7846527998336,None,2145.665755599737,None,2146.187773099635,None,2146.187773099635,None,f,1.348297200165689,2146.187773099635,None,,,NC23,001,2021_Nov_10_1614,ProdSingRedo,3.2.3,59.853359351463915,
,,,,94,0,94,0,,,,,,,,,,,,,,,,,,,,,,,,2152.5582041000016,None,,,,,,,,,,,,,,,,,opening,sing,white,94,28,205,2148.1047153999098,None,2148.1047153999098,None,6,2.3990119001828134,2148.1047153999098,None,2150.5328638995998,None,2151.045304799918,None,2151.045304799918,None,n,1.4829716999083757,2151.045304799918,None,,,NC23,001,2021_Nov_10_1614,ProdSingRedo,3.2.3,59.853359351463915,
,,,,95,0,95,0,,,,,,,,,,,,,,,,,,,,,,,,2179.3971898998134,None,,,,,,,,,,,,,,,,,produce,new_b,white,95,145,239,2153.0814927998,None,2153.0814927998,None,6,25.31818709988147,2153.0814927998,None,2178.4328600997105,None,2178.946962899994,None,2178.946962899994,None,f,0.42872870014980435,2178.946962899994,None,,,NC23,001,2021_Nov_10_1614,ProdSingRedo,3.2.3,59.853359351463915,
,,,,96,0,96,0,,,,,,,,,,,,,,,,,,,,,,,,2183.147699299734,None,,,,,,,,,,,,,,,,,article,sing,white,96,14,11,2179.898192399647,None,2179.898192399647,None,5,1.7495108000002801,2179.898192399647,None,2181.670276599936,None,2182.1809011995792,None,2182.1809011995792,None,f,0.9471236001700163,2182.1809011995792,None,,,NC23,001,2021_Nov_10_1614,ProdSingRedo,3.2.3,59.853359351463915,
,,,,97,0,97,0,,,,,,,,,,,,,,,,,,,,,,,,2187.7143013998866,None,,,,,,,,,,,,,,,,,murder,aloud,white,97,52,195,2183.650301199872,None,2183.650301199872,None,6,2.5174185996875167,2183.650301199872,None,2186.199580199551,None,2186.714175199624,None,2186.714175199624,None,n,0.9736028001643717,2186.714175199624,None,,,NC23,001,2021_Nov_10_1614,ProdSingRedo,3.2.3,59.853359351463915,
,,,,98,0,98,0,,,,,,,,,,,,,,,,,,,,,,,,2194.628947199788,None,,,,,,,,,,,,,,,,,still,silent,white,98,62,304,2188.215069099795,None,2188.215069099795,None,6,4.417070399969816,2188.215069099795,None,2192.6691439999267,None,2193.1895719999447,None,2193.1895719999447,None,f,1.410733399912715,2193.1895719999447,None,,,NC23,001,2021_Nov_10_1614,ProdSingRedo,3.2.3,59.853359351463915,
,,,,99,0,99,0,,,,,,,,,,,,,,,,,,,,,,,,2205.4009650996886,None,,,,,,,,,,,,,,,,,damage,new_c,white,99,173,83,2195.1495989998803,None,2195.1495989998803,None,6,9.482501500286162,2195.1495989998803,None,2204.678316099569,None,2205.19637999963,None,2205.19637999963,None,f,0.1874812999740243,2205.19637999963,None,,,NC23,001,2021_Nov_10_1614,ProdSingRedo,3.2.3,59.853359351463915,
,,,,100,0,100,0,,,,,,,,,,,,,,,,,,,,,,,,2208.63615319971,None,,,,,,,,,,,,,,,,,platform,silent,white,100,77,224,2205.919155899901,None,2205.919155899901,None,6,2.10483910003677,2205.919155899901,None,2208.064142599702,None,2208.578156599775,None,2208.578156599775,None,f,0.02162789972499013,2208.578156599775,None,,,NC23,001,2021_Nov_10_1614,ProdSingRedo,3.2.3,59.853359351463915,
,,,,101,0,101,0,,,,,,,,,,,,,,,,,,,,,,,,2211.892720599659,None,,,,,,,,,,,,,,,,,country,new_a,white,101,102,73,2209.1713915998116,None,2209.1713915998116,None,6,2.077170600183308,2209.1713915998116,None,2211.290202199947,None,2211.819441099651,None,2211.819441099651,None,r,0.04514029994606972,2211.819441099651,None,,,NC23,001,2021_Nov_10_1614,ProdSingRedo,3.2.3,59.853359351463915,
,,,,102,0,102,0,,,,,,,,,,,,,,,,,,,,,,,,2217.225784499664,None,,,,,,,,,,,,,,,,,community,aloud,white,102,54,63,2212.4230349999852,None,2212.4230349999852,None,5,3.121069500222802,2212.4230349999852,None,2215.5973027995788,None,2216.105170799885,None,2216.105170799885,None,f,1.0949794999323785,2216.105170799885,None,,,NC23,001,2021_Nov_10_1614,ProdSingRedo,3.2.3,59.853359351463915,
,,,,103,0,103,0,,,,,,,,,,,,,,,,,,,,,,,,2219.960337799974,None,,,,,,,,,,,,,,,,,trash,silent,white,103,82,337,2217.7529305997305,None,2217.7529305997305,None,6,1.3270733999088407,2217.7529305997305,None,2219.1122258999385,None,2219.6307549998164,None,2219.6307549998164,None,r,0.2892446997575462,2219.6307549998164,None,,,NC23,001,2021_Nov_10_1614,ProdSingRedo,3.2.3,59.853359351463915,
,,,,104,0,104,0,,,,,,,,,,,,,,,,,,,,,,,,2222.7761288997717,None,,,,,,,,,,,,,,,,,month,aloud,white,104,39,193,2220.48048369959,None,2220.48048369959,None,6,1.1995200999081135,2220.48048369959,None,2221.721407099627,None,2222.2430543997325,None,2222.2430543997325,None,r,0.5089159999042749,2222.2430543997325,None,,,NC23,001,2021_Nov_10_1614,ProdSingRedo,3.2.3,59.853359351463915,
,,,,105,0,105,0,,,,,,,,,,,,,,,,,,,,,,,,2227.518715599552,None,,,,,,,,,,,,,,,,,birth,sing,white,105,6,22,2223.3009773995727,None,2223.3009773995727,None,6,2.2109095002524555,2223.3009773995727,None,2225.5443732999265,None,2226.0620661997236,None,2226.0620661997236,None,n,1.4338042000308633,2226.0620661997236,None,,,NC23,001,2021_Nov_10_1614,ProdSingRedo,3.2.3,59.853359351463915,
,,,,106,0,106,0,,,,,,,,,,,,,,,,,,,,,,,,2232.2875175997615,None,,,,,,,,,,,,,,,,,height,sing,white,106,11,152,2228.0388988996856,None,2228.0388988996856,None,6,3.425131299998611,2228.0388988996856,None,2231.507876599673,None,2232.0327650997788,None,2232.0327650997788,None,f,0.23105799965560436,2232.0327650997788,None,,,NC23,001,2021_Nov_10_1614,ProdSingRedo,3.2.3,59.853359351463915,
,,,,107,0,107,0,,,,,,,,,,,,,,,,,,,,,,,,2236.310891199857,None,,,,,,,,,,,,,,,,,theme,new_c,white,107,166,326,2232.8235328998417,None,2232.8235328998417,None,5,1.9205420999787748,2232.8235328998417,None,2234.789637999609,None,2235.308781999629,None,2235.308781999629,None,n,0.9712070999667048,2235.308781999629,None,,,NC23,001,2021_Nov_10_1614,ProdSingRedo,3.2.3,59.853359351463915,
,,,,108,0,108,0,,,,,,,,,,,,,,,,,,,,,,,,2245.212083199993,None,,,,,,,,,,,,,,,,,bright,aloud,white,108,59,29,2236.839332799893,None,2236.839332799893,None,6,4.561254600062966,2236.839332799893,None,2241.441517399624,None,2241.9678737996146,None,2241.9678737996146,None,f,3.2165073002688587,2241.9678737996146,None,,,NC23,001,2021_Nov_10_1614,ProdSingRedo,3.2.3,59.853359351463915,
,,,,109,0,109,0,,,,,,,,,,,,,,,,,,,,,,,,2250.7790100998245,None,,,,,,,,,,,,,,,,,frank,aloud,white,109,57,133,2245.740203599911,None,2245.740203599911,None,6,4.419825999997556,2245.740203599911,None,2250.2058559996076,None,2250.7355693997815,None,2250.7355693997815,None,r,0.00851239962503314,2250.7355693997815,None,,,NC23,001,2021_Nov_10_1614,ProdSingRedo,3.2.3,59.853359351463915,
,,,,110,0,110,0,,,,,,,,,,,,,,,,,,,,,,,,2256.795613499824,None,,,,,,,,,,,,,,,,,threat,new_c,white,110,153,329,2251.304454599973,None,2251.304454599973,None,5,3.9997847001068294,2251.304454599973,None,2255.3454947997816,None,2255.8668043999933,None,2255.8668043999933,None,n,0.9016398997046053,2255.8668043999933,None,,,NC23,001,2021_Nov_10_1614,ProdSingRedo,3.2.3,59.853359351463915,
,,,,111,0,111,0,,,,,,,,,,,,,,,,,,,,,,,,2262.2698174999095,None,,,,,,,,,,,,,,,,,write,aloud,white,111,38,358,2257.3027700996026,None,2257.3027700996026,None,6,3.64100919989869,2257.3027700996026,None,2260.981788299978,None,2261.502763599623,None,2261.502763599623,None,f,0.7369960001669824,2261.502763599623,None,,,NC23,001,2021_Nov_10_1614,ProdSingRedo,3.2.3,59.853359351463915,
,,,,112,0,112,0,,,,,,,,,,,,,,,,,,,,,,,,2266.1302427998744,None,,,,,,,,,,,,,,,,,entrance,aloud,white,112,46,115,2262.8019162998535,None,2262.8019162998535,None,6,2.406181199941784,2262.8019162998535,None,2265.259726399556,None,2265.783499999903,None,2265.783499999903,None,r,0.32062310026958585,2265.783499999903,None,,,NC23,001,2021_Nov_10_1614,ProdSingRedo,3.2.3,59.853359351463915,
,,,,113,0,113,0,,,,,,,,,,,,,,,,,,,,,,,,2269.6454330999404,None,,,,,,,,,,,,,,,,,rough,new_b,white,113,134,266,2266.654926699586,None,2266.654926699586,None,6,2.137105300091207,2266.654926699586,None,2268.83880689973,None,2269.352008499671,None,2269.352008499671,None,r,0.2560461997054517,2269.352008499671,None,,,NC23,001,2021_Nov_10_1614,ProdSingRedo,3.2.3,59.853359351463915,
,,,,114,0,114,0,,,,,,,,,,,,,,,,,,,,,,,,2272.341789299622,None,,,,,,,,,,,,,,,,,answer,aloud,white,114,56,8,2270.1741018998437,None,2270.1741018998437,None,6,1.545938900206238,2270.1741018998437,None,2271.7639517998323,None,2272.280653399881,None,2272.280653399881,None,r,0.0313443997874856,2272.280653399881,None,,,NC23,001,2021_Nov_10_1614,ProdSingRedo,3.2.3,59.853359351463915,
,,,,115,0,115,0,,,,,,,,,,,,,,,,,,,,,,,,2275.932319799904,None,,,,,,,,,,,,,,,,,sight,new_c,white,115,176,286,2272.87049809983,None,2272.87049809983,None,6,2.3216188000515103,2272.87049809983,None,2275.245037299581,None,2275.768977499567,None,2275.768977499567,None,r,0.13518030010163784,2275.768977499567,None,,,NC23,001,2021_Nov_10_1614,ProdSingRedo,3.2.3,59.853359351463915,
,,,,116,0,116,0,,,,,,,,,,,,,,,,,,,,,,,,2280.0806640000083,None,,,,,,,,,,,,,,,,,power,new_a,white,116,100,230,2276.456741999835,None,2276.456741999835,None,5,1.7753642001189291,2276.456741999835,None,2278.27737709973,None,2278.792211699765,None,2278.792211699765,None,f,1.2638415000401437,2278.792211699765,None,,,NC23,001,2021_Nov_10_1614,ProdSingRedo,3.2.3,59.853359351463915,
,,,,117,0,117,0,,,,,,,,,,,,,,,,,,,,,,,,2283.4310119999573,None,,,,,,,,,,,,,,,,,contract,silent,white,117,67,68,2280.607984100003,None,2280.607984100003,None,6,2.0160916997119784,2280.607984100003,None,2282.68146179989,None,2283.2003269996494,None,2283.2003269996494,None,r,0.19992030039429665,2283.2003269996494,None,,,NC23,001,2021_Nov_10_1614,ProdSingRedo,3.2.3,59.853359351463915,
,,,,118,0,118,0,,,,,,,,,,,,,,,,,,,,,,,,2296.4309727000073,None,,,,,,,,,,,,,,,,,general,aloud,white,118,49,135,2283.9563796999864,None,2283.9563796999864,None,6,10.403735700063407,2283.9563796999864,None,2294.414355799556,None,2294.9256250998005,None,2294.9256250998005,None,f,1.4664591997861862,2294.9256250998005,None,,,NC23,001,2021_Nov_10_1614,ProdSingRedo,3.2.3,59.853359351463915,
,,,,119,0,119,0,,,,,,,,,,,,,,,,,,,,,,,,2299.7483108998276,None,,,,,,,,,,,,,,,,,junior,new_a,white,119,99,167,2296.9649469996803,None,2296.9649469996803,None,6,1.9072414999827743,2296.9649469996803,None,2298.914054499939,None,2299.436181299854,None,2299.436181299854,None,r,0.28465310018509626,2299.436181299854,None,,,NC23,001,2021_Nov_10_1614,ProdSingRedo,3.2.3,59.853359351463915,
,,,,120,0,120,0,,,,,,,,,,,,,,,,,,,,,,,,2303.098770199809,None,,,,,,,,,,,,,,,,,working,aloud,white,120,50,357,2300.2725631999783,None,2300.2725631999783,None,6,1.2793966000899673,2300.2725631999783,None,2301.5924061997794,None,2302.1039118999615,None,2302.1039118999615,None,r,0.9684556000865996,2302.1039118999615,None,,,NC23,001,2021_Nov_10_1614,ProdSingRedo,3.2.3,59.853359351463915,
,,,,121,0,121,0,,,,,,,,,,,,,,,,,,,,,,,,2308.1984739997424,None,,,,,,,,,,,,,,,,,cover,new_b,white,121,120,77,2303.623958399985,None,2303.623958399985,None,5,2.7363037997856736,2303.623958399985,None,2306.4140424998477,None,2306.937164200004,None,2306.937164200004,None,n,1.2230591997504234,2306.937164200004,None,,,NC23,001,2021_Nov_10_1614,ProdSingRedo,3.2.3,59.853359351463915,
,,,,122,0,122,0,,,,,,,,,,,,,,,,,,,,,,,,2315.167036699597,None,,,,,,,,,,,,,,,,,throw,new_a,white,122,101,330,2308.7239053999074,None,2308.7239053999074,None,6,5.124155800323933,2308.7239053999074,None,2313.8920464999974,None,2314.4028451996855,None,2314.4028451996855,None,f,0.7332620001398027,2314.4028451996855,None,,,NC23,001,2021_Nov_10_1614,ProdSingRedo,3.2.3,59.853359351463915,
,,,,123,0,123,0,,,,,,,,,,,,,,,,,,,,,,,,2322.1760429996066,None,,,,,,,,,,,,,,,,,turkey,sing,white,123,21,342,2315.695981599856,None,2315.695981599856,None,6,4.06427859980613,2315.695981599856,None,2319.820459699724,None,2320.33933889959,None,2320.33933889959,None,n,1.8128812001086771,2320.33933889959,None,,,NC23,001,2021_Nov_10_1614,ProdSingRedo,3.2.3,59.853359351463915,
,,,,124,0,124,0,,,,,,,,,,,,,,,,,,,,,,,,2327.201044899877,None,,,,,,,,,,,,,,,,,course,aloud,white,124,51,74,2322.710895399563,None,2322.710895399563,None,6,3.7530215000733733,2322.710895399563,None,2326.5007817996666,None,2327.0073392996565,None,2327.0073392996565,None,r,0.16078840009868145,2327.0073392996565,None,,,NC23,001,2021_Nov_10_1614,ProdSingRedo,3.2.3,59.853359351463915,
,,,,125,0,125,0,,,,,,,,,,,,,,,,,,,,,,,,2330.368376999628,None,,,,,,,,,,,,,,,,,pretty,sing,white,125,23,233,2327.725234699901,None,2327.725234699901,None,6,1.9549604998901486,2327.725234699901,None,2329.7308017998002,None,2330.2518245996907,None,2330.2518245996907,None,f,0.08428010018542409,2330.2518245996907,None,,,NC23,001,2021_Nov_10_1614,ProdSingRedo,3.2.3,59.853359351463915,
,,,,126,0,126,0,,,,,,,,,,,,,,,,,,,,,,,,2334.401649300009,None,,,,,,,,,,,,,,,,,breath,new_b,white,126,133,27,2330.8978834999725,None,2330.8978834999725,None,6,2.3503990001045167,2330.8978834999725,None,2333.299204699695,None,2333.826981399674,None,2333.826981399674,None,r,0.5492654000408947,2333.826981399674,None,,,NC23,001,2021_Nov_10_1614,ProdSingRedo,3.2.3,59.853359351463915,
,,,,127,0,127,0,,,,,,,,,,,,,,,,,,,,,,,,2339.8839690997265,None,,,,,,,,,,,,,,,,,bitter,new_a,white,127,97,23,2334.9289842997678,None,2334.9289842997678,None,6,3.679218600038439,2334.9289842997678,None,2338.6423119995743,None,2339.1556607997045,None,2339.1556607997045,None,f,0.6925182999111712,2339.1556607997045,None,,,NC23,001,2021_Nov_10_1614,ProdSingRedo,3.2.3,59.853359351463915,
,,,,128,0,128,0,,,,,,,,,,,,,,,,,,,,,,,,2343.7678215997294,None,,,,,,,,,,,,,,,,,minor,silent,white,128,84,191,2340.3956182999536,None,2340.3956182999536,None,6,2.1806227997876704,2340.3956182999536,None,2342.6122355000116,None,2343.1340305996127,None,2343.1340305996127,None,f,0.6021138001233339,2343.1340305996127,None,,,NC23,001,2021_Nov_10_1614,ProdSingRedo,3.2.3,59.853359351463915,
,,,,129,0,129,0,,,,,,,,,,,,,,,,,,,,,,,,2349.018087799661,None,,,,,,,,,,,,,,,,,drink,silent,white,129,72,105,2344.293686899822,None,2344.293686899822,None,6,3.6101591996848583,2344.293686899822,None,2347.9301436999813,None,2348.4446571995504,None,2348.4446571995504,None,f,0.5475314999930561,2348.4446571995504,None,,,NC23,001,2021_Nov_10_1614,ProdSingRedo,3.2.3,59.853359351463915,
,,,,130,0,130,0,,,,,,,,,,,,,,,,,,,,,,,,2357.4298940999433,None,,,,,,,,,,,,,,,,,strain,aloud,white,130,40,308,2349.5452980999835,None,2349.5452980999835,None,6,3.3989041997119784,2349.5452980999835,None,2352.9794910997152,None,2353.507856299635,None,2353.507856299635,None,n,3.900653500109911,2353.507856299635,None,,,NC23,001,2021_Nov_10_1614,ProdSingRedo,3.2.3,59.853359351463915,
,,,,131,0,131,0,,,,,,,,,,,,,,,,,,,,,,,,2362.903599999845,None,,,,,,,,,,,,,,,,,silence,sing,white,131,26,288,2357.9556179000065,None,2357.9556179000065,None,6,4.172512999735773,2357.9556179000065,None,2362.1687942999415,None,2362.6895221997984,None,2362.6895221997984,None,f,0.18278029980137944,2362.6895221997984,None,,,NC23,001,2021_Nov_10_1614,ProdSingRedo,3.2.3,59.853359351463915,
,,,,132,0,132,0,,,,,,,,,,,,,,,,,,,,,,,,2366.6543187997304,None,,,,,,,,,,,,,,,,,surface,new_a,white,132,109,316,2363.431215999648,None,2363.431215999648,None,5,1.9690371002070606,2363.431215999648,None,2365.4544347999617,None,2365.9748331997544,None,2365.9748331997544,None,f,0.6413310002535582,2365.9748331997544,None,,,NC23,001,2021_Nov_10_1614,ProdSingRedo,3.2.3,59.853359351463915,
,,,,133,0,133,0,,,,,,,,,,,,,,,,,,,,,,,,2371.420110499952,None,,,,,,,,,,,,,,,,,orchestra,new_c,white,133,151,206,2367.1793959997594,None,2367.1793959997594,None,6,3.052923500072211,2367.1793959997594,None,2370.2858099997975,None,2370.8086386998184,None,2370.8086386998184,None,n,0.575751599855721,2370.8086386998184,None,,,NC23,001,2021_Nov_10_1614,ProdSingRedo,3.2.3,59.853359351463915,
,,,,134,0,134,0,,,,,,,,,,,,,,,,,,,,,,,,2374.9703328995965,None,,,,,,,,,,,,,,,,,angle,sing,white,134,24,7,2371.947698999662,None,2371.947698999662,None,5,1.5405143001116812,2371.947698999662,None,2373.5313836997375,None,2374.0592894,None,2374.0592894,None,f,0.8768182001076639,2374.0592894,None,,,NC23,001,2021_Nov_10_1614,ProdSingRedo,3.2.3,59.853359351463915,
,,,,135,0,135,0,,,,,,,,,,,,,,,,,,,,,,,,2377.812870199792,None,,,,,,,,,,,,,,,,,listen,silent,white,135,78,172,2375.484311499633,None,2375.484311499633,None,6,1.5555205000564456,2375.484311499633,None,2377.070791799575,None,2377.577501899563,None,2377.577501899563,None,r,0.21457829978317022,2377.577501899563,None,,,NC23,001,2021_Nov_10_1614,ProdSingRedo,3.2.3,59.853359351463915,
,,,,136,0,136,0,,,,,,,,,,,,,,,,,,,,,,,,2385.9383191997185,None,,,,,,,,,,,,,,,,,bureau,new_c,white,136,150,37,2378.329006199725,None,2378.329006199725,None,2,2.9431870002299547,2378.329006199725,None,2381.326891799923,None,2381.8413112997077,None,2381.8413112997077,None,f,4.071086700074375,2381.8413112997077,None,,,NC23,001,2021_Nov_10_1614,ProdSingRedo,3.2.3,59.853359351463915,
,,,,137,0,137,0,,,,,,,,,,,,,,,,,,,,,,,,2392.687454399653,None,,,,,,,,,,,,,,,,,interior,new_b,white,137,138,164,2386.458985199686,None,2386.458985199686,None,6,1.476920099928975,2386.458985199686,None,2387.9640719997697,None,2388.498288199771,None,2388.498288199771,None,f,4.150080299936235,2388.498288199771,None,,,NC23,001,2021_Nov_10_1614,ProdSingRedo,3.2.3,59.853359351463915,
,,,,138,0,138,0,,,,,,,,,,,,,,,,,,,,,,,,2396.6897791000083,None,,,,,,,,,,,,,,,,,citizen,new_a,white,138,106,50,2393.2113586999476,None,2393.2113586999476,None,6,1.692734899930656,2393.2113586999476,None,2394.9373905998655,None,2395.460927099921,None,2395.460927099921,None,f,1.2032293998636305,2395.460927099921,None,,,NC23,001,2021_Nov_10_1614,ProdSingRedo,3.2.3,59.853359351463915,
,,,,139,0,139,0,,,,,,,,,,,,,,,,,,,,,,,,2399.604811599944,None,,,,,,,,,,,,,,,,,growth,silent,white,139,71,144,2397.217109499965,None,2397.217109499965,None,6,1.6070746001787484,2397.217109499965,None,2398.8727760999463,None,2399.390050399583,None,2399.390050399583,None,r,0.17822990007698536,2399.390050399583,None,,,NC23,001,2021_Nov_10_1614,ProdSingRedo,3.2.3,59.853359351463915,
,,,,140,0,140,0,,,,,,,,,,,,,,,,,,,,,,,,2406.8217189996503,None,,,,,,,,,,,,,,,,,crisis,aloud,white,140,33,79,2400.1277306997217,None,2400.1277306997217,None,6,4.2565835998393595,2400.1277306997217,None,2404.433872099966,None,2404.953793599736,None,2404.953793599736,None,n,1.830413700081408,2404.953793599736,None,,,NC23,001,2021_Nov_10_1614,ProdSingRedo,3.2.3,59.853359351463915,
,,,,141,0,141,0,,,,,,,,,,,,,,,,,,,,,,,,2411.9563715998083,None,,,,,,,,,,,,,,,,,dance,new_c,white,141,169,84,2407.3324510999955,None,2407.3324510999955,None,6,3.3716907002963126,2407.3324510999955,None,2410.754503699951,None,2411.27837169962,None,2411.27837169962,None,r,0.6502971998415887,2411.27837169962,None,,,NC23,001,2021_Nov_10_1614,ProdSingRedo,3.2.3,59.853359351463915,
,,,,142,0,142,0,,,,,,,,,,,,,,,,,,,,,,,,2426.957429899834,None,,,,,,,,,,,,,,,,,style,new_a,white,142,93,311,2412.4718428999186,None,2412.4718428999186,None,6,12.81615460012108,2412.4718428999186,None,2425.335921499878,None,2425.86628669966,None,2425.86628669966,None,f,1.0540444003418088,2425.86628669966,None,,,NC23,001,2021_Nov_10_1614,ProdSingRedo,3.2.3,59.853359351463915,
,,,,143,0,143,0,,,,,,,,,,,,,,,,,,,,,,,,2432.5279104998335,None,,,,,,,,,,,,,,,,,instrument,new_b,white,143,130,163,2427.4856819999404,None,2427.4856819999404,None,6,3.0984680000692606,2427.4856819999404,None,2430.6407747999765,None,2431.16026519984,None,2431.16026519984,None,r,1.328119299840182,2431.16026519984,None,,,NC23,001,2021_Nov_10_1614,ProdSingRedo,3.2.3,59.853359351463915,
,,,,144,0,144,0,,,,,,,,,,,,,,,,,,,,,,,,2436.873827799689,None,,,,,,,,,,,,,,,,,trail,aloud,white,144,30,336,2433.05357479956,None,2433.05357479956,None,6,2.5948173999786377,2433.05357479956,None,2435.692469399888,None,2436.218511399813,None,2436.218511399813,None,n,0.6215022997930646,2436.218511399813,None,,,NC23,001,2021_Nov_10_1614,ProdSingRedo,3.2.3,59.853359351463915,
,,,,145,0,145,0,,,,,,,,,,,,,,,,,,,,,,,,2442.943566299975,None,,,,,,,,,,,,,,,,,owner,sing,white,145,0,208,2437.386276199948,None,2437.386276199948,None,6,4.1581035000272095,2437.386276199948,None,2441.5896253995597,None,2442.1098181996495,None,2442.1098181996495,None,n,0.8024138999171555,2442.1098181996495,None,,,NC23,001,2021_Nov_10_1614,ProdSingRedo,3.2.3,59.853359351463915,
,,,,146,0,146,0,,,,,,,,,,,,,,,,,,,,,,,,2449.4587440998293,None,,,,,,,,,,,,,,,,,search,new_c,white,146,162,276,2443.461209899746,None,2443.461209899746,None,6,3.427101000212133,2443.461209899746,None,2446.938157099765,None,2447.466070499737,None,2447.466070499737,None,r,1.958165599964559,2447.466070499737,None,,,NC23,001,2021_Nov_10_1614,ProdSingRedo,3.2.3,59.853359351463915,
,,,,147,0,147,0,,,,,,,,,,,,,,,,,,,,,,,,2453.3393207998015,None,,,,,,,,,,,,,,,,,volume,new_a,white,147,98,349,2449.9834304996766,None,2449.9834304996766,None,6,1.8884342997334898,2449.9834304996766,None,2451.9138843999244,None,2452.4377969997004,None,2452.4377969997004,None,r,0.8665096997283399,2452.4377969997004,None,,,NC23,001,2021_Nov_10_1614,ProdSingRedo,3.2.3,59.853359351463915,
,,,,148,0,148,0,,,,,,,,,,,,,,,,,,,,,,,,2456.8927579997107,None,,,,,,,,,,,,,,,,,reach,silent,white,148,80,253,2453.869291299954,None,2453.869291299954,None,6,1.7631870000623167,2453.869291299954,None,2455.6702269995585,None,2456.1953212996013,None,2456.1953212996013,None,f,0.6697561000473797,2456.1953212996013,None,,,NC23,001,2021_Nov_10_1614,ProdSingRedo,3.2.3,59.853359351463915,
,,,,149,0,149,0,,,,,,,,,,,,,,,,,,,,,,,,2463.3775518997572,None,,,,,,,,,,,,,,,,,oxygen,sing,white,149,7,209,2457.421932599973,None,2457.421932599973,None,6,2.4582548001781106,2457.421932599973,None,2459.9290482997894,None,2460.450384499971,None,2460.450384499971,None,n,2.901765899732709,2460.450384499971,None,,,NC23,001,2021_Nov_10_1614,ProdSingRedo,3.2.3,59.853359351463915,
,,,,150,0,150,0,,,,,,,,,,,,,,,,,,,,,,,,2473.2774749998935,None,,,,,,,,,,,,,,,,,short,silent,white,150,61,285,2463.897628699895,None,2463.897628699895,None,5,7.294547099620104,2463.897628699895,None,2471.236593300011,None,2471.7628820999525,None,2471.7628820999525,None,f,1.4853524998761714,2471.7628820999525,None,,,NC23,001,2021_Nov_10_1614,ProdSingRedo,3.2.3,59.853359351463915,
,,,,151,0,151,0,,,,,,,,,,,,,,,,,,,,,,,,2478.7456849999726,None,,,,,,,,,,,,,,,,,audience,new_c,white,151,156,14,2473.7905073999427,None,2473.7905073999427,None,6,3.289823599625379,2473.7905073999427,None,2477.121490799822,None,2477.64892449975,None,2477.64892449975,None,r,1.063400000333786,2477.64892449975,None,,,NC23,001,2021_Nov_10_1614,ProdSingRedo,3.2.3,59.853359351463915,
,,,,152,0,152,0,,,,,,,,,,,,,,,,,,,,,,,,2482.5270821996965,None,,,,,,,,,,,,,,,,,religion,new_a,white,152,110,258,2479.2704997998662,None,2479.2704997998662,None,6,2.44973020022735,2479.2704997998662,None,2481.762077599764,None,2482.2806401997805,None,2482.2806401997805,None,f,0.20763309998437762,2482.2806401997805,None,,,NC23,001,2021_Nov_10_1614,ProdSingRedo,3.2.3,59.853359351463915,
,,,,153,0,153,0,,,,,,,,,,,,,,,,,,,,,,,,2487.6766407997347,None,,,,,,,,,,,,,,,,,business,silent,white,153,60,38,2483.0550898998044,None,2483.0550898998044,None,6,2.496827700175345,2483.0550898998044,None,2485.5757827996276,None,2486.0857214997523,None,2486.0857214997523,None,f,1.5547694000415504,2486.0857214997523,None,,,NC23,001,2021_Nov_10_1614,ProdSingRedo,3.2.3,59.853359351463915,
,,,,154,0,154,0,,,,,,,,,,,,,,,,,,,,,,,,2494.7954179998487,None,,,,,,,,,,,,,,,,,ground,sing,white,154,13,142,2488.2058239998296,None,2488.2058239998296,None,6,5.538457199931145,2488.2058239998296,None,2493.7936029997654,None,2494.317065799609,None,2494.317065799609,None,f,0.4513892000541091,2494.317065799609,None,,,NC23,001,2021_Nov_10_1614,ProdSingRedo,3.2.3,59.853359351463915,
,,,,155,0,155,0,,,,,,,,,,,,,,,,,,,,,,,,2500.4995440999046,None,,,,,,,,,,,,,,,,,commercial,new_c,white,155,154,61,2495.323547599837,None,2495.323547599837,None,6,1.572630699723959,2495.323547599837,None,2496.9475995996036,None,2497.4520975998603,None,2497.4520975998603,None,f,3.012190700042993,2497.4520975998603,None,,,NC23,001,2021_Nov_10_1614,ProdSingRedo,3.2.3,59.853359351463915,
,,,,156,0,156,0,,,,,,,,,,,,,,,,,,,,,,,,2503.6618049996905,None,,,,,,,,,,,,,,,,,engineer,sing,white,156,4,114,2501.0105534996837,None,2501.0105534996837,None,6,1.6537357000634074,2501.0105534996837,None,2502.7104042996652,None,2503.2407029997557,None,2503.2407029997557,None,n,0.383587000425905,2503.2407029997557,None,,,NC23,001,2021_Nov_10_1614,ProdSingRedo,3.2.3,59.853359351463915,
,,,,157,0,157,0,,,,,,,,,,,,,,,,,,,,,,,,2512.1631114999764,None,,,,,,,,,,,,,,,,,personnel,new_b,white,157,121,219,2504.186694099568,None,2504.186694099568,None,4,5.565813600085676,2504.186694099568,None,2509.793876799755,None,2510.314537399914,None,2510.314537399914,None,f,1.8218475002795458,2510.314537399914,None,,,NC23,001,2021_Nov_10_1614,ProdSingRedo,3.2.3,59.853359351463915,
,,,,158,0,158,0,,,,,,,,,,,,,,,,,,,,,,,,2515.0586982998066,None,,,,,,,,,,,,,,,,,session,sing,white,158,20,281,2512.6865509999916,None,2512.6865509999916,None,6,1.5453698001801968,2512.6865509999916,None,2514.2557408995926,None,2514.7702432996593,None,2514.7702432996593,None,r,0.25368040008470416,2514.7702432996593,None,,,NC23,001,2021_Nov_10_1614,ProdSingRedo,3.2.3,59.853359351463915,
,,,,159,0,159,0,,,,,,,,,,,,,,,,,,,,,,,,2518.412926599849,None,,,,,,,,,,,,,,,,,drove,new_a,white,159,94,106,2515.5719213997945,None,2515.5719213997945,None,6,2.0763869998045266,2515.5719213997945,None,2517.6958786998875,None,2518.21839659987,None,2518.21839659987,None,r,0.15793300000950694,2518.21839659987,None,,,NC23,001,2021_Nov_10_1614,ProdSingRedo,3.2.3,59.853359351463915,
,,,,160,0,160,0,,,,,,,,,,,,,,,,,,,,,,,,2523.930838099681,None,,,,,,,,,,,,,,,,,season,new_c,white,160,170,277,2518.9394085998647,None,2518.9394085998647,None,5,3.0689273001626134,2518.9394085998647,None,2522.063006699551,None,2522.584033299703,None,2522.584033299703,None,f,1.3202376998960972,2522.584033299703,None,,,NC23,001,2021_Nov_10_1614,ProdSingRedo,3.2.3,59.853359351463915,
,,,,161,0,161,0,,,,,,,,,,,,,,,,,,,,,,,,2530.9642341998406,None,,,,,,,,,,,,,,,,,collection,new_b,white,161,124,54,2524.452433799859,None,2524.452433799859,None,6,4.908061499707401,2524.452433799859,None,2529.4081377997063,None,2529.9340938995592,None,2529.9340938995592,None,r,1.0027414998039603,2529.9340938995592,None,,,NC23,001,2021_Nov_10_1614,ProdSingRedo,3.2.3,59.853359351463915,
,,,,162,0,162,0,,,,,,,,,,,,,,,,,,,,,,,,2543.424490300007,None,,,,,,,,,,,,,,,,,discussion,new_c,white,162,179,96,2531.49191269977,None,2531.49191269977,None,6,10.356394699774683,2531.49191269977,None,2541.883454799652,None,2542.3894075998105,None,2542.3894075998105,None,r,1.0028877002187073,2542.3894075998105,None,,,NC23,001,2021_Nov_10_1614,ProdSingRedo,3.2.3,59.853359351463915,
,,,,163,0,163,0,,,,,,,,,,,,,,,,,,,,,,,,2546.748015199788,None,,,,,,,,,,,,,,,,,health,silent,white,163,65,149,2543.9626169996336,None,2543.9626169996336,None,6,2.117674699984491,2543.9626169996336,None,2546.1263785995543,None,2546.6536401999183,None,2546.6536401999183,None,r,0.058648800011724234,2546.6536401999183,None,,,NC23,001,2021_Nov_10_1614,ProdSingRedo,3.2.3,59.853359351463915,
,,,,164,0,164,0,,,,,,,,,,,,,,,,,,,,,,,,2559.3672334998846,None,,,,,,,,,,,,,,,,,addition,sing,white,164,10,2,2547.274876399897,None,2547.274876399897,None,5,6.261399500072002,2547.274876399897,None,2553.5841101999395,None,2554.100603599567,None,2554.100603599567,None,f,5.2356338002718985,2554.100603599567,None,,,NC23,001,2021_Nov_10_1614,ProdSingRedo,3.2.3,59.853359351463915,
,,,,165,0,165,0,,,,,,,,,,,,,,,,,,,,,,,,2562.7344476999715,None,,,,,,,,,,,,,,,,,novel,sing,white,165,5,202,2559.8895166995935,None,2559.8895166995935,None,6,1.5830528996884823,2559.8895166995935,None,2561.5138295996003,None,2562.037936899811,None,2562.037936899811,None,r,0.65842550015077,2562.037936899811,None,,,NC23,001,2021_Nov_10_1614,ProdSingRedo,3.2.3,59.853359351463915,
,,,,166,0,166,0,,,,,,,,,,,,,,,,,,,,,,,,2566.900187099818,None,,,,,,,,,,,,,,,,,strength,new_a,white,166,118,310,2563.259413599968,None,2563.259413599968,None,6,1.8132791998796165,2563.259413599968,None,2565.112305799965,None,2565.6366124995984,None,2565.6366124995984,None,r,1.2361673000268638,2565.6366124995984,None,,,NC23,001,2021_Nov_10_1614,ProdSingRedo,3.2.3,59.853359351463915,
,,,,167,0,167,0,,,,,,,,,,,,,,,,,,,,,,,,2584.5168781997636,None,,,,,,,,,,,,,,,,,present,sing,white,167,25,231,2567.419997399673,None,2567.419997399673,None,6,16.420690400060266,2567.419997399673,None,2583.8808908998035,None,2584.4024737998843,None,2584.4024737998843,None,r,0.07785909995436668,2584.4024737998843,None,,,NC23,001,2021_Nov_10_1614,ProdSingRedo,3.2.3,59.853359351463915,
,,,,168,0,168,0,,,,,,,,,,,,,,,,,,,,,,,,2591.183877099771,None,,,,,,,,,,,,,,,,,narrow,silent,white,168,70,197,2585.044511199929,None,2585.044511199929,None,5,4.539785400032997,2585.044511199929,None,2589.635014999658,None,2590.1571844997816,None,2590.1571844997816,None,f,1.0033446000888944,2590.1571844997816,None,,,NC23,001,2021_Nov_10_1614,ProdSingRedo,3.2.3,59.853359351463915,
,,,,169,0,169,0,,,,,,,,,,,,,,,,,,,,,,,,2595.1684045996517,None,,,,,,,,,,,,,,,,,length,aloud,white,169,36,169,2591.7133559999056,None,2591.7133559999056,None,6,2.471118099987507,2591.7133559999056,None,2594.2342170998454,None,2594.755961999763,None,2594.755961999763,None,r,0.3803783003240824,2594.755961999763,None,,,NC23,001,2021_Nov_10_1614,ProdSingRedo,3.2.3,59.853359351463915,
,,,,170,0,170,0,,,,,,,,,,,,,,,,,,,,,,,,2599.2857798999175,None,,,,,,,,,,,,,,,,,gesture,new_c,white,170,167,137,2595.697386399843,None,2595.697386399843,None,6,2.070918200071901,2595.697386399843,None,2597.8209777995944,None,2598.3442706996575,None,2598.3442706996575,None,r,0.9120414000935853,2598.3442706996575,None,,,NC23,001,2021_Nov_10_1614,ProdSingRedo,3.2.3,59.853359351463915,
,,,,171,0,171,0,,,,,,,,,,,,,,,,,,,,,,,,2602.186083199922,None,,,,,,,,,,,,,,,,,bucket,silent,white,171,66,33,2599.8147855997086,None,2599.8147855997086,None,6,1.6895457999780774,2599.8147855997086,None,2601.554567199666,None,2602.071619599592,None,2602.071619599592,None,f,0.08095359988510609,2602.071619599592,None,,,NC23,001,2021_Nov_10_1614,ProdSingRedo,3.2.3,59.853359351463915,
,,,,172,0,172,0,,,,,,,,,,,,,,,,,,,,,,,,2605.6702056997456,None,,,,,,,,,,,,,,,,,review,new_b,white,172,126,263,2602.7166402000003,None,2602.7166402000003,None,6,1.7236436000093818,2602.7166402000003,None,2604.488719599787,None,2605.008439499885,None,2605.008439499885,None,r,0.631901899818331,2605.008439499885,None,,,NC23,001,2021_Nov_10_1614,ProdSingRedo,3.2.3,59.853359351463915,
,,,,173,0,173,0,,,,,,,,,,,,,,,,,,,,,,,,2610.3363616997376,None,,,,,,,,,,,,,,,,,nation,aloud,white,173,53,198,2606.195973099675,None,2606.195973099675,None,6,2.924370300024748,2606.195973099675,None,2609.1683323998004,None,2609.691445999779,None,2609.691445999779,None,n,0.6128297997638583,2609.691445999779,None,,,NC23,001,2021_Nov_10_1614,ProdSingRedo,3.2.3,59.853359351463915,
,,,,174,0,174,0,,,,,,,,,,,,,,,,,,,,,,,,2614.3539327997714,None,,,,,,,,,,,,,,,,,passage,silent,white,174,88,212,2610.853332299739,None,2610.853332299739,None,6,1.8191662998870015,2610.853332299739,None,2612.7188515998423,None,2613.23749259999,None,2613.23749259999,None,f,1.0913336002267897,2613.23749259999,None,,,NC23,001,2021_Nov_10_1614,ProdSingRedo,3.2.3,59.853359351463915,
,,,,175,0,175,0,,,,,,,,,,,,,,,,,,,,,,,,2621.872006899677,None,,,,,,,,,,,,,,,,,service,aloud,white,175,44,280,2614.881342999637,None,2614.881342999637,None,6,5.246999599970877,2614.881342999637,None,2620.1638472997583,None,2620.690637799911,None,2620.690637799911,None,r,1.1496914001181722,2620.690637799911,None,,,NC23,001,2021_Nov_10_1614,ProdSingRedo,3.2.3,59.853359351463915,
,,,,176,0,176,0,,,,,,,,,,,,,,,,,,,,,,,,2633.8040206995793,None,,,,,,,,,,,,,,,,,leader,new_c,white,176,165,168,2622.3844004999846,None,2622.3844004999846,None,6,10.455956899560988,2622.3844004999846,None,2632.8718653996475,None,2633.392138299998,None,2633.392138299998,None,r,0.37620909977704287,2633.392138299998,None,,,NC23,001,2021_Nov_10_1614,ProdSingRedo,3.2.3,59.853359351463915,
,,,,177,0,177,0,,,,,,,,,,,,,,,,,,,,,,,,2637.147406499833,None,,,,,,,,,,,,,,,,,trial,aloud,white,177,58,341,2634.3304869998246,None,2634.3304869998246,None,6,1.9578346000052989,2634.3304869998246,None,2636.3338436996564,None,2636.8571065999568,None,2636.8571065999568,None,r,0.2630838002078235,2636.8571065999568,None,,,NC23,001,2021_Nov_10_1614,ProdSingRedo,3.2.3,59.853359351463915,
,,,,178,0,178,0,,,,,,,,,,,,,,,,,,,,,,,,2640.1636533997953,None,,,,,,,,,,,,,,,,,travel,sing,white,178,15,338,2637.684819399845,None,2637.684819399845,None,6,1.7792519996874034,2637.684819399845,None,2639.5111854998395,None,2640.0390414996073,None,2640.0390414996073,None,r,0.09698339970782399,2640.0390414996073,None,,,NC23,001,2021_Nov_10_1614,ProdSingRedo,3.2.3,59.853359351463915,
,,,,179,0,179,0,,,,,,,,,,,,,,,,,,,,,,,,2646.6548893,None,,,,,,,,,,,,,,,,,burden,new_a,white,179,114,36,2640.665597899817,None,2640.665597899817,None,6,4.190814800094813,2640.665597899817,None,2644.904341599904,None,2645.4275208995678,None,2645.4275208995678,None,n,1.1888431999832392,2645.4275208995678,None,,,NC23,001,2021_Nov_10_1614,ProdSingRedo,3.2.3,59.853359351463915,
,,,,,,,,,,,,,,,,,,,,,,,,,,,,,,,,,,,,,,,,,,,,,,,,,,,,,,,,,,,,,,,,,,,,,,,,,2647.162737199571,None,,,,,,,
