StudyLoop.thisRepN,StudyLoop.thisTrialN,StudyLoop.thisN,StudyLoop.thisIndex,TestLoop.thisRepN,TestLoop.thisTrialN,TestLoop.thisN,TestLoop.thisIndex,textCondition.started,textCondition.stopped,keyCondition.keys,keyCondition.rt,keyCondition.started,keyCondition.stopped,Condition,stim_colors,color_sing,color_aloud,color_silent,textWelcome.started,textWelcome.stopped,keyWelcome.keys,keyWelcome.rt,keyWelcome.started,keyWelcome.stopped,textAloud.started,textAloud.stopped,textSilent.started,textSilent.stopped,textSing.started,textSing.stopped,textBlank500.started,textBlank500.stopped,study_word,study_type,study_color,study_num,study_word_num,textStudy.started,textStudy.stopped,keyStudy.keys,keyStudy.started,keyStudy.stopped,textTestInstructions.started,textTestInstructions.stopped,key_resp_3.keys,key_resp_3.rt,key_resp_3.started,key_resp_3.stopped,testWord,testType,testColor,testN,test_num,test_word_num,textConf.started,textConf.stopped,textConfScale.started,textConfScale.stopped,keyConf.keys,keyConf.rt,keyConf.started,keyConf.stopped,textTestBlank.started,textTestBlank.stopped,textRKN.started,textRKN.stopped,textRKNScale.started,textRKNScale.stopped,keyRKN.keys,keyRKN.rt,keyRKN.started,keyRKN.stopped,textEnd.started,textEnd.stopped,participant,session,date,expName,psychopyVersion,frameRate,
,,,,,,,,11.636610300280154,None,n,2.542943499982357,11.636610300280154,None,,,,,,,,,,,,,,,,,,,,,,,,,,,,,,,,,,,,,,,,,,,,,,,,,,,,,,,,,,,,,,nc24,001,2021_Nov_10_1659,ProdSingRedo,3.2.3,59.93382105927242,
,,,,,,,,,,,,,,NeutralTest,"['red', 'blue', 'yellow']",red,blue,yellow,14.246371200308204,None,space,273.2610464999452,14.246371200308204,None,,,,,,,,,,,,,,,,,,,,,,,,,,,,,,,,,,,,,,,,,,,,,,,,,,,nc24,001,2021_Nov_10_1659,ProdSingRedo,3.2.3,59.93382105927242,
0,0,0,0,,,,,,,,,,,,,,,,,,,,,,14.246371200308204,None,14.246371200308204,None,14.246371200308204,None,290.04447680013254,None,search,silent,yellow,72,276,288.0469749001786,None,None,288.0469749001786,None,,,,,,,,,,,,,,,,,,,,,,,,,,,,,,,,,nc24,001,2021_Nov_10_1659,ProdSingRedo,3.2.3,59.93382105927242,
1,0,1,0,,,,,,,,,,,,,,,,,,,,,,,,,,,,292.5622724001296,None,goose,aloud,blue,41,138,290.56227700039744,None,None,290.56227700039744,None,,,,,,,,,,,,,,,,,,,,,,,,,,,,,,,,,nc24,001,2021_Nov_10_1659,ProdSingRedo,3.2.3,59.93382105927242,
2,0,2,0,,,,,,,,,,,,,,,,,,,,,,,,,,,,295.0791704002768,None,rapid,aloud,blue,53,252,293.0746348001994,None,None,293.0746348001994,None,,,,,,,,,,,,,,,,,,,,,,,,,,,,,,,,,nc24,001,2021_Nov_10_1659,ProdSingRedo,3.2.3,59.93382105927242,
3,0,3,0,,,,,,,,,,,,,,,,,,,,,,,,,,,,297.5950718000531,None,sunset,sing,red,2,315,295.59577270038426,None,None,295.59577270038426,None,,,,,,,,,,,,,,,,,,,,,,,,,,,,,,,,,nc24,001,2021_Nov_10_1659,ProdSingRedo,3.2.3,59.93382105927242,
4,0,4,0,,,,,,,,,,,,,,,,,,,,,,,,,,,,300.1129054003395,None,character,silent,yellow,74,46,298.1074686003849,None,None,298.1074686003849,None,,,,,,,,,,,,,,,,,,,,,,,,,,,,,,,,,nc24,001,2021_Nov_10_1659,ProdSingRedo,3.2.3,59.93382105927242,
5,0,5,0,,,,,,,,,,,,,,,,,,,,,,,,,,,,302.6298794001341,None,broad,aloud,blue,48,31,300.6360512999818,None,None,300.6360512999818,None,,,,,,,,,,,,,,,,,,,,,,,,,,,,,,,,,nc24,001,2021_Nov_10_1659,ProdSingRedo,3.2.3,59.93382105927242,
6,0,6,0,,,,,,,,,,,,,,,,,,,,,,,,,,,,305.1465386003256,None,poetry,aloud,blue,58,225,303.14925320027396,None,None,303.14925320027396,None,,,,,,,,,,,,,,,,,,,,,,,,,,,,,,,,,nc24,001,2021_Nov_10_1659,ProdSingRedo,3.2.3,59.93382105927242,
7,0,7,0,,,,,,,,,,,,,,,,,,,,,,,,,,,,307.66249220026657,None,dispute,silent,yellow,85,99,305.6600816003047,None,None,305.6600816003047,None,,,,,,,,,,,,,,,,,,,,,,,,,,,,,,,,,nc24,001,2021_Nov_10_1659,ProdSingRedo,3.2.3,59.93382105927242,
8,0,8,0,,,,,,,,,,,,,,,,,,,,,,,,,,,,310.17928750021383,None,quiet,silent,yellow,75,249,308.16405380005017,None,None,308.16405380005017,None,,,,,,,,,,,,,,,,,,,,,,,,,,,,,,,,,nc24,001,2021_Nov_10_1659,ProdSingRedo,3.2.3,59.93382105927242,
9,0,9,0,,,,,,,,,,,,,,,,,,,,,,,,,,,,312.69713300000876,None,native,sing,red,25,199,310.7069824002683,None,None,310.7069824002683,None,,,,,,,,,,,,,,,,,,,,,,,,,,,,,,,,,nc24,001,2021_Nov_10_1659,ProdSingRedo,3.2.3,59.93382105927242,
10,0,10,0,,,,,,,,,,,,,,,,,,,,,,,,,,,,315.213820300065,None,thick,silent,yellow,61,327,313.2018044004217,None,None,313.2018044004217,None,,,,,,,,,,,,,,,,,,,,,,,,,,,,,,,,,nc24,001,2021_Nov_10_1659,ProdSingRedo,3.2.3,59.93382105927242,
11,0,11,0,,,,,,,,,,,,,,,,,,,,,,,,,,,,317.7298360001296,None,curve,silent,yellow,64,82,315.7331990003586,None,None,315.7331990003586,None,,,,,,,,,,,,,,,,,,,,,,,,,,,,,,,,,nc24,001,2021_Nov_10_1659,ProdSingRedo,3.2.3,59.93382105927242,
12,0,12,0,,,,,,,,,,,,,,,,,,,,,,,,,,,,320.2470068000257,None,bucket,aloud,blue,46,33,318.24734000023454,None,None,318.24734000023454,None,,,,,,,,,,,,,,,,,,,,,,,,,,,,,,,,,nc24,001,2021_Nov_10_1659,ProdSingRedo,3.2.3,59.93382105927242,
13,0,13,0,,,,,,,,,,,,,,,,,,,,,,,,,,,,322.76335210027173,None,colonel,silent,yellow,79,55,320.74845560034737,None,None,320.74845560034737,None,,,,,,,,,,,,,,,,,,,,,,,,,,,,,,,,,nc24,001,2021_Nov_10_1659,ProdSingRedo,3.2.3,59.93382105927242,
14,0,14,0,,,,,,,,,,,,,,,,,,,,,,,,,,,,325.2821996002458,None,message,sing,red,6,189,323.2777340002358,None,None,323.2777340002358,None,,,,,,,,,,,,,,,,,,,,,,,,,,,,,,,,,nc24,001,2021_Nov_10_1659,ProdSingRedo,3.2.3,59.93382105927242,
15,0,15,0,,,,,,,,,,,,,,,,,,,,,,,,,,,,327.79819190036505,None,bright,silent,yellow,63,29,325.7934434004128,None,None,325.7934434004128,None,,,,,,,,,,,,,,,,,,,,,,,,,,,,,,,,,nc24,001,2021_Nov_10_1659,ProdSingRedo,3.2.3,59.93382105927242,
16,0,16,0,,,,,,,,,,,,,,,,,,,,,,,,,,,,330.3149260999635,None,signal,sing,red,15,287,328.31868600007147,None,None,328.31868600007147,None,,,,,,,,,,,,,,,,,,,,,,,,,,,,,,,,,nc24,001,2021_Nov_10_1659,ProdSingRedo,3.2.3,59.93382105927242,
17,0,17,0,,,,,,,,,,,,,,,,,,,,,,,,,,,,332.8317967001349,None,dance,silent,yellow,76,84,330.81841260008514,None,None,330.81841260008514,None,,,,,,,,,,,,,,,,,,,,,,,,,,,,,,,,,nc24,001,2021_Nov_10_1659,ProdSingRedo,3.2.3,59.93382105927242,
18,0,18,0,,,,,,,,,,,,,,,,,,,,,,,,,,,,335.3485447000712,None,permit,silent,yellow,77,218,333.3437705002725,None,None,333.3437705002725,None,,,,,,,,,,,,,,,,,,,,,,,,,,,,,,,,,nc24,001,2021_Nov_10_1659,ProdSingRedo,3.2.3,59.93382105927242,
19,0,19,0,,,,,,,,,,,,,,,,,,,,,,,,,,,,337.864318900276,None,benefit,sing,red,26,20,335.86453730007634,None,None,335.86453730007634,None,,,,,,,,,,,,,,,,,,,,,,,,,,,,,,,,,nc24,001,2021_Nov_10_1659,ProdSingRedo,3.2.3,59.93382105927242,
20,0,20,0,,,,,,,,,,,,,,,,,,,,,,,,,,,,340.3656496000476,None,instrument,sing,red,1,163,338.36551300017163,None,None,338.36551300017163,None,,,,,,,,,,,,,,,,,,,,,,,,,,,,,,,,,nc24,001,2021_Nov_10_1659,ProdSingRedo,3.2.3,59.93382105927242,
21,0,21,0,,,,,,,,,,,,,,,,,,,,,,,,,,,,342.88236770033836,None,weather,sing,red,11,352,340.88166940025985,None,None,340.88166940025985,None,,,,,,,,,,,,,,,,,,,,,,,,,,,,,,,,,nc24,001,2021_Nov_10_1659,ProdSingRedo,3.2.3,59.93382105927242,
22,0,22,0,,,,,,,,,,,,,,,,,,,,,,,,,,,,345.39954250026494,None,shear,aloud,blue,36,283,343.39562029996887,None,None,343.39562029996887,None,,,,,,,,,,,,,,,,,,,,,,,,,,,,,,,,,nc24,001,2021_Nov_10_1659,ProdSingRedo,3.2.3,59.93382105927242,
23,0,23,0,,,,,,,,,,,,,,,,,,,,,,,,,,,,347.9162362003699,None,agency,sing,red,7,4,345.91720640007406,None,None,345.91720640007406,None,,,,,,,,,,,,,,,,,,,,,,,,,,,,,,,,,nc24,001,2021_Nov_10_1659,ProdSingRedo,3.2.3,59.93382105927242,
24,0,24,0,,,,,,,,,,,,,,,,,,,,,,,,,,,,350.43306950014085,None,answer,silent,yellow,73,8,348.4329409003258,None,None,348.4329409003258,None,,,,,,,,,,,,,,,,,,,,,,,,,,,,,,,,,nc24,001,2021_Nov_10_1659,ProdSingRedo,3.2.3,59.93382105927242,
25,0,25,0,,,,,,,,,,,,,,,,,,,,,,,,,,,,352.94979850016534,None,drama,sing,red,22,103,350.9485865002498,None,None,350.9485865002498,None,,,,,,,,,,,,,,,,,,,,,,,,,,,,,,,,,nc24,001,2021_Nov_10_1659,ProdSingRedo,3.2.3,59.93382105927242,
26,0,26,0,,,,,,,,,,,,,,,,,,,,,,,,,,,,355.4667163002305,None,point,sing,red,9,226,353.45953590003774,None,None,353.45953590003774,None,,,,,,,,,,,,,,,,,,,,,,,,,,,,,,,,,nc24,001,2021_Nov_10_1659,ProdSingRedo,3.2.3,59.93382105927242,
27,0,27,0,,,,,,,,,,,,,,,,,,,,,,,,,,,,357.9845142001286,None,session,aloud,blue,42,281,355.9774943999946,None,None,355.9774943999946,None,,,,,,,,,,,,,,,,,,,,,,,,,,,,,,,,,nc24,001,2021_Nov_10_1659,ProdSingRedo,3.2.3,59.93382105927242,
28,0,28,0,,,,,,,,,,,,,,,,,,,,,,,,,,,,360.50044390000403,None,union,silent,yellow,83,344,358.4953446001746,None,None,358.4953446001746,None,,,,,,,,,,,,,,,,,,,,,,,,,,,,,,,,,nc24,001,2021_Nov_10_1659,ProdSingRedo,3.2.3,59.93382105927242,
29,0,29,0,,,,,,,,,,,,,,,,,,,,,,,,,,,,363.0170705001801,None,evidence,aloud,blue,38,120,361.0135244000703,None,None,361.0135244000703,None,,,,,,,,,,,,,,,,,,,,,,,,,,,,,,,,,nc24,001,2021_Nov_10_1659,ProdSingRedo,3.2.3,59.93382105927242,
30,0,30,0,,,,,,,,,,,,,,,,,,,,,,,,,,,,365.5339359003119,None,theme,silent,yellow,80,326,363.527280700393,None,None,363.527280700393,None,,,,,,,,,,,,,,,,,,,,,,,,,,,,,,,,,nc24,001,2021_Nov_10_1659,ProdSingRedo,3.2.3,59.93382105927242,
31,0,31,0,,,,,,,,,,,,,,,,,,,,,,,,,,,,368.0496194004081,None,quarter,silent,yellow,78,246,366.0487899002619,None,None,366.0487899002619,None,,,,,,,,,,,,,,,,,,,,,,,,,,,,,,,,,nc24,001,2021_Nov_10_1659,ProdSingRedo,3.2.3,59.93382105927242,
32,0,32,0,,,,,,,,,,,,,,,,,,,,,,,,,,,,370.56835260009393,None,number,silent,yellow,68,203,368.56841230019927,None,None,368.56841230019927,None,,,,,,,,,,,,,,,,,,,,,,,,,,,,,,,,,nc24,001,2021_Nov_10_1659,ProdSingRedo,3.2.3,59.93382105927242,
33,0,33,0,,,,,,,,,,,,,,,,,,,,,,,,,,,,373.0845607002266,None,range,sing,red,19,251,371.082695200108,None,None,371.082695200108,None,,,,,,,,,,,,,,,,,,,,,,,,,,,,,,,,,nc24,001,2021_Nov_10_1659,ProdSingRedo,3.2.3,59.93382105927242,
34,0,34,0,,,,,,,,,,,,,,,,,,,,,,,,,,,,375.60139680001885,None,meeting,aloud,blue,56,187,373.59794210037217,None,None,373.59794210037217,None,,,,,,,,,,,,,,,,,,,,,,,,,,,,,,,,,nc24,001,2021_Nov_10_1659,ProdSingRedo,3.2.3,59.93382105927242,
35,0,35,0,,,,,,,,,,,,,,,,,,,,,,,,,,,,378.11835630005226,None,figure,aloud,blue,50,128,376.1173610002734,None,None,376.1173610002734,None,,,,,,,,,,,,,,,,,,,,,,,,,,,,,,,,,nc24,001,2021_Nov_10_1659,ProdSingRedo,3.2.3,59.93382105927242,
36,0,36,0,,,,,,,,,,,,,,,,,,,,,,,,,,,,380.63419770030305,None,worker,sing,red,17,356,378.63485680008307,None,None,378.63485680008307,None,,,,,,,,,,,,,,,,,,,,,,,,,,,,,,,,,nc24,001,2021_Nov_10_1659,ProdSingRedo,3.2.3,59.93382105927242,
37,0,37,0,,,,,,,,,,,,,,,,,,,,,,,,,,,,383.1514705000445,None,trail,silent,yellow,66,336,381.1542147002183,None,None,381.1542147002183,None,,,,,,,,,,,,,,,,,,,,,,,,,,,,,,,,,nc24,001,2021_Nov_10_1659,ProdSingRedo,3.2.3,59.93382105927242,
38,0,38,0,,,,,,,,,,,,,,,,,,,,,,,,,,,,385.66763200005516,None,expansion,silent,yellow,84,123,383.6628227001056,None,None,383.6628227001056,None,,,,,,,,,,,,,,,,,,,,,,,,,,,,,,,,,nc24,001,2021_Nov_10_1659,ProdSingRedo,3.2.3,59.93382105927242,
39,0,39,0,,,,,,,,,,,,,,,,,,,,,,,,,,,,388.1854408001527,None,leader,aloud,blue,54,168,386.17992140026763,None,None,386.17992140026763,None,,,,,,,,,,,,,,,,,,,,,,,,,,,,,,,,,nc24,001,2021_Nov_10_1659,ProdSingRedo,3.2.3,59.93382105927242,
40,0,40,0,,,,,,,,,,,,,,,,,,,,,,,,,,,,390.70148520031944,None,harmony,sing,red,3,148,388.7018058001995,None,None,388.7018058001995,None,,,,,,,,,,,,,,,,,,,,,,,,,,,,,,,,,nc24,001,2021_Nov_10_1659,ProdSingRedo,3.2.3,59.93382105927242,
41,0,41,0,,,,,,,,,,,,,,,,,,,,,,,,,,,,393.21913780039176,None,captain,silent,yellow,89,41,391.22265310026705,None,None,391.22265310026705,None,,,,,,,,,,,,,,,,,,,,,,,,,,,,,,,,,nc24,001,2021_Nov_10_1659,ProdSingRedo,3.2.3,59.93382105927242,
42,0,42,0,,,,,,,,,,,,,,,,,,,,,,,,,,,,395.7359653003514,None,discovery,silent,yellow,82,95,393.73450250038877,None,None,393.73450250038877,None,,,,,,,,,,,,,,,,,,,,,,,,,,,,,,,,,nc24,001,2021_Nov_10_1659,ProdSingRedo,3.2.3,59.93382105927242,
43,0,43,0,,,,,,,,,,,,,,,,,,,,,,,,,,,,398.25205990020186,None,education,silent,yellow,88,108,396.2535833003931,None,None,396.2535833003931,None,,,,,,,,,,,,,,,,,,,,,,,,,,,,,,,,,nc24,001,2021_Nov_10_1659,ProdSingRedo,3.2.3,59.93382105927242,
44,0,44,0,,,,,,,,,,,,,,,,,,,,,,,,,,,,400.76877780025825,None,blind,sing,red,8,24,398.7615201002918,None,None,398.7615201002918,None,,,,,,,,,,,,,,,,,,,,,,,,,,,,,,,,,nc24,001,2021_Nov_10_1659,ProdSingRedo,3.2.3,59.93382105927242,
45,0,45,0,,,,,,,,,,,,,,,,,,,,,,,,,,,,403.28655280033126,None,strength,sing,red,21,310,401.2778150001541,None,None,401.2778150001541,None,,,,,,,,,,,,,,,,,,,,,,,,,,,,,,,,,nc24,001,2021_Nov_10_1659,ProdSingRedo,3.2.3,59.93382105927242,
46,0,46,0,,,,,,,,,,,,,,,,,,,,,,,,,,,,405.80338710034266,None,impact,aloud,blue,30,157,403.803713100031,None,None,403.803713100031,None,,,,,,,,,,,,,,,,,,,,,,,,,,,,,,,,,nc24,001,2021_Nov_10_1659,ProdSingRedo,3.2.3,59.93382105927242,
47,0,47,0,,,,,,,,,,,,,,,,,,,,,,,,,,,,408.3189459000714,None,private,aloud,blue,37,237,406.31487270025536,None,None,406.31487270025536,None,,,,,,,,,,,,,,,,,,,,,,,,,,,,,,,,,nc24,001,2021_Nov_10_1659,ProdSingRedo,3.2.3,59.93382105927242,
48,0,48,0,,,,,,,,,,,,,,,,,,,,,,,,,,,,410.83637970034033,None,clear,silent,yellow,65,52,408.83109700027853,None,None,408.83109700027853,None,,,,,,,,,,,,,,,,,,,,,,,,,,,,,,,,,nc24,001,2021_Nov_10_1659,ProdSingRedo,3.2.3,59.93382105927242,
49,0,49,0,,,,,,,,,,,,,,,,,,,,,,,,,,,,413.3540256000124,None,heavy,sing,red,12,151,411.3535317000933,None,None,411.3535317000933,None,,,,,,,,,,,,,,,,,,,,,,,,,,,,,,,,,nc24,001,2021_Nov_10_1659,ProdSingRedo,3.2.3,59.93382105927242,
50,0,50,0,,,,,,,,,,,,,,,,,,,,,,,,,,,,415.8712572003715,None,society,aloud,blue,33,293,413.86724720010534,None,None,413.86724720010534,None,,,,,,,,,,,,,,,,,,,,,,,,,,,,,,,,,nc24,001,2021_Nov_10_1659,ProdSingRedo,3.2.3,59.93382105927242,
51,0,51,0,,,,,,,,,,,,,,,,,,,,,,,,,,,,418.3876467002556,None,scale,aloud,blue,43,272,416.38507040031254,None,None,416.38507040031254,None,,,,,,,,,,,,,,,,,,,,,,,,,,,,,,,,,nc24,001,2021_Nov_10_1659,ProdSingRedo,3.2.3,59.93382105927242,
52,0,52,0,,,,,,,,,,,,,,,,,,,,,,,,,,,,420.90330000035465,None,shock,aloud,blue,44,284,418.8991320002824,None,None,418.8991320002824,None,,,,,,,,,,,,,,,,,,,,,,,,,,,,,,,,,nc24,001,2021_Nov_10_1659,ProdSingRedo,3.2.3,59.93382105927242,
53,0,53,0,,,,,,,,,,,,,,,,,,,,,,,,,,,,423.42217030003667,None,store,silent,yellow,67,305,421.41770090023056,None,None,421.41770090023056,None,,,,,,,,,,,,,,,,,,,,,,,,,,,,,,,,,nc24,001,2021_Nov_10_1659,ProdSingRedo,3.2.3,59.93382105927242,
54,0,54,0,,,,,,,,,,,,,,,,,,,,,,,,,,,,425.93803820014,None,couch,silent,yellow,81,70,423.93847280042246,None,None,423.93847280042246,None,,,,,,,,,,,,,,,,,,,,,,,,,,,,,,,,,nc24,001,2021_Nov_10_1659,ProdSingRedo,3.2.3,59.93382105927242,
55,0,55,0,,,,,,,,,,,,,,,,,,,,,,,,,,,,428.4551446000114,None,addition,sing,red,16,2,426.4526301003061,None,None,426.4526301003061,None,,,,,,,,,,,,,,,,,,,,,,,,,,,,,,,,,nc24,001,2021_Nov_10_1659,ProdSingRedo,3.2.3,59.93382105927242,
56,0,56,0,,,,,,,,,,,,,,,,,,,,,,,,,,,,430.9709640000947,None,enemy,sing,red,0,113,428.9663789002225,None,None,428.9663789002225,None,,,,,,,,,,,,,,,,,,,,,,,,,,,,,,,,,nc24,001,2021_Nov_10_1659,ProdSingRedo,3.2.3,59.93382105927242,
57,0,57,0,,,,,,,,,,,,,,,,,,,,,,,,,,,,433.4888981003314,None,entrance,aloud,blue,51,115,431.48607250023633,None,None,431.48607250023633,None,,,,,,,,,,,,,,,,,,,,,,,,,,,,,,,,,nc24,001,2021_Nov_10_1659,ProdSingRedo,3.2.3,59.93382105927242,
58,0,58,0,,,,,,,,,,,,,,,,,,,,,,,,,,,,436.00546760018915,None,display,aloud,blue,59,98,434.00417470000684,None,None,434.00417470000684,None,,,,,,,,,,,,,,,,,,,,,,,,,,,,,,,,,nc24,001,2021_Nov_10_1659,ProdSingRedo,3.2.3,59.93382105927242,
59,0,59,0,,,,,,,,,,,,,,,,,,,,,,,,,,,,438.5223787003197,None,owner,silent,yellow,60,208,436.5192814003676,None,None,436.5192814003676,None,,,,,,,,,,,,,,,,,,,,,,,,,,,,,,,,,nc24,001,2021_Nov_10_1659,ProdSingRedo,3.2.3,59.93382105927242,
60,0,60,0,,,,,,,,,,,,,,,,,,,,,,,,,,,,441.0390600999817,None,thing,sing,red,14,328,439.0344995004125,None,None,439.0344995004125,None,,,,,,,,,,,,,,,,,,,,,,,,,,,,,,,,,nc24,001,2021_Nov_10_1659,ProdSingRedo,3.2.3,59.93382105927242,
61,0,61,0,,,,,,,,,,,,,,,,,,,,,,,,,,,,443.5550669999793,None,reach,silent,yellow,86,253,441.55039030034095,None,None,441.55039030034095,None,,,,,,,,,,,,,,,,,,,,,,,,,,,,,,,,,nc24,001,2021_Nov_10_1659,ProdSingRedo,3.2.3,59.93382105927242,
62,0,62,0,,,,,,,,,,,,,,,,,,,,,,,,,,,,446.0727798002772,None,cover,sing,red,4,77,444.0704125002958,None,None,444.0704125002958,None,,,,,,,,,,,,,,,,,,,,,,,,,,,,,,,,,nc24,001,2021_Nov_10_1659,ProdSingRedo,3.2.3,59.93382105927242,
63,0,63,0,,,,,,,,,,,,,,,,,,,,,,,,,,,,448.5884210001677,None,beginning,aloud,blue,35,19,446.5734243001789,None,None,446.5734243001789,None,,,,,,,,,,,,,,,,,,,,,,,,,,,,,,,,,nc24,001,2021_Nov_10_1659,ProdSingRedo,3.2.3,59.93382105927242,
64,0,64,0,,,,,,,,,,,,,,,,,,,,,,,,,,,,451.0904037002474,None,broke,sing,red,28,32,449.08886640006676,None,None,449.08886640006676,None,,,,,,,,,,,,,,,,,,,,,,,,,,,,,,,,,nc24,001,2021_Nov_10_1659,ProdSingRedo,3.2.3,59.93382105927242,
65,0,65,0,,,,,,,,,,,,,,,,,,,,,,,,,,,,453.6068184999749,None,sweet,sing,red,27,319,451.6114198002033,None,None,451.6114198002033,None,,,,,,,,,,,,,,,,,,,,,,,,,,,,,,,,,nc24,001,2021_Nov_10_1659,ProdSingRedo,3.2.3,59.93382105927242,
66,0,66,0,,,,,,,,,,,,,,,,,,,,,,,,,,,,456.12350010033697,None,youth,aloud,blue,52,359,454.1248932001181,None,None,454.1248932001181,None,,,,,,,,,,,,,,,,,,,,,,,,,,,,,,,,,nc24,001,2021_Nov_10_1659,ProdSingRedo,3.2.3,59.93382105927242,
67,0,67,0,,,,,,,,,,,,,,,,,,,,,,,,,,,,458.63922830019146,None,principal,aloud,blue,39,236,456.6407963000238,None,None,456.6407963000238,None,,,,,,,,,,,,,,,,,,,,,,,,,,,,,,,,,nc24,001,2021_Nov_10_1659,ProdSingRedo,3.2.3,59.93382105927242,
68,0,68,0,,,,,,,,,,,,,,,,,,,,,,,,,,,,461.1563063003123,None,tennis,sing,red,13,323,459.1532018003054,None,None,459.1532018003054,None,,,,,,,,,,,,,,,,,,,,,,,,,,,,,,,,,nc24,001,2021_Nov_10_1659,ProdSingRedo,3.2.3,59.93382105927242,
69,0,69,0,,,,,,,,,,,,,,,,,,,,,,,,,,,,463.6738915001042,None,employment,aloud,blue,31,111,461.67358950013295,None,None,461.67358950013295,None,,,,,,,,,,,,,,,,,,,,,,,,,,,,,,,,,nc24,001,2021_Nov_10_1659,ProdSingRedo,3.2.3,59.93382105927242,
70,0,70,0,,,,,,,,,,,,,,,,,,,,,,,,,,,,466.19095010031015,None,scene,silent,yellow,70,273,464.182241700124,None,None,464.182241700124,None,,,,,,,,,,,,,,,,,,,,,,,,,,,,,,,,,nc24,001,2021_Nov_10_1659,ProdSingRedo,3.2.3,59.93382105927242,
71,0,71,0,,,,,,,,,,,,,,,,,,,,,,,,,,,,468.7063367003575,None,substance,aloud,blue,40,313,466.703808600083,None,None,466.703808600083,None,,,,,,,,,,,,,,,,,,,,,,,,,,,,,,,,,nc24,001,2021_Nov_10_1659,ProdSingRedo,3.2.3,59.93382105927242,
72,0,72,0,,,,,,,,,,,,,,,,,,,,,,,,,,,,471.2233880003914,None,present,silent,yellow,71,231,469.21941820019856,None,None,469.21941820019856,None,,,,,,,,,,,,,,,,,,,,,,,,,,,,,,,,,nc24,001,2021_Nov_10_1659,ProdSingRedo,3.2.3,59.93382105927242,
73,0,73,0,,,,,,,,,,,,,,,,,,,,,,,,,,,,473.74136550026014,None,level,aloud,blue,32,170,471.74006510013714,None,None,471.74006510013714,None,,,,,,,,,,,,,,,,,,,,,,,,,,,,,,,,,nc24,001,2021_Nov_10_1659,ProdSingRedo,3.2.3,59.93382105927242,
74,0,74,0,,,,,,,,,,,,,,,,,,,,,,,,,,,,476.25821450026706,None,property,sing,red,29,242,474.25567740015686,None,None,474.25567740015686,None,,,,,,,,,,,,,,,,,,,,,,,,,,,,,,,,,nc24,001,2021_Nov_10_1659,ProdSingRedo,3.2.3,59.93382105927242,
75,0,75,0,,,,,,,,,,,,,,,,,,,,,,,,,,,,478.77514970023185,None,member,aloud,blue,45,188,476.77174500003457,None,None,476.77174500003457,None,,,,,,,,,,,,,,,,,,,,,,,,,,,,,,,,,nc24,001,2021_Nov_10_1659,ProdSingRedo,3.2.3,59.93382105927242,
76,0,76,0,,,,,,,,,,,,,,,,,,,,,,,,,,,,481.29256480000913,None,opening,sing,red,20,205,479.2893463000655,None,None,479.2893463000655,None,,,,,,,,,,,,,,,,,,,,,,,,,,,,,,,,,nc24,001,2021_Nov_10_1659,ProdSingRedo,3.2.3,59.93382105927242,
77,0,77,0,,,,,,,,,,,,,,,,,,,,,,,,,,,,483.8086933000013,None,count,sing,red,10,72,481.8056573001668,None,None,481.8056573001668,None,,,,,,,,,,,,,,,,,,,,,,,,,,,,,,,,,nc24,001,2021_Nov_10_1659,ProdSingRedo,3.2.3,59.93382105927242,
78,0,78,0,,,,,,,,,,,,,,,,,,,,,,,,,,,,486.3256241003983,None,plane,silent,yellow,62,223,484.322574400343,None,None,484.322574400343,None,,,,,,,,,,,,,,,,,,,,,,,,,,,,,,,,,nc24,001,2021_Nov_10_1659,ProdSingRedo,3.2.3,59.93382105927242,
79,0,79,0,,,,,,,,,,,,,,,,,,,,,,,,,,,,488.8418171000667,None,edition,aloud,blue,57,107,486.83688409999013,None,None,486.83688409999013,None,,,,,,,,,,,,,,,,,,,,,,,,,,,,,,,,,nc24,001,2021_Nov_10_1659,ProdSingRedo,3.2.3,59.93382105927242,
80,0,80,0,,,,,,,,,,,,,,,,,,,,,,,,,,,,491.35853080032393,None,close,aloud,blue,47,53,489.3518916000612,None,None,489.3518916000612,None,,,,,,,,,,,,,,,,,,,,,,,,,,,,,,,,,nc24,001,2021_Nov_10_1659,ProdSingRedo,3.2.3,59.93382105927242,
81,0,81,0,,,,,,,,,,,,,,,,,,,,,,,,,,,,493.8760715001263,None,military,silent,yellow,69,190,491.8753972002305,None,None,491.8753972002305,None,,,,,,,,,,,,,,,,,,,,,,,,,,,,,,,,,nc24,001,2021_Nov_10_1659,ProdSingRedo,3.2.3,59.93382105927242,
82,0,82,0,,,,,,,,,,,,,,,,,,,,,,,,,,,,496.3929427000694,None,group,sing,red,5,143,494.3918892000802,None,None,494.3918892000802,None,,,,,,,,,,,,,,,,,,,,,,,,,,,,,,,,,nc24,001,2021_Nov_10_1659,ProdSingRedo,3.2.3,59.93382105927242,
83,0,83,0,,,,,,,,,,,,,,,,,,,,,,,,,,,,498.909853100311,None,surprise,silent,yellow,87,317,496.90876610018313,None,None,496.90876610018313,None,,,,,,,,,,,,,,,,,,,,,,,,,,,,,,,,,nc24,001,2021_Nov_10_1659,ProdSingRedo,3.2.3,59.93382105927242,
84,0,84,0,,,,,,,,,,,,,,,,,,,,,,,,,,,,501.4266007002443,None,comedy,aloud,blue,55,58,499.4238938000053,None,None,499.4238938000053,None,,,,,,,,,,,,,,,,,,,,,,,,,,,,,,,,,nc24,001,2021_Nov_10_1659,ProdSingRedo,3.2.3,59.93382105927242,
85,0,85,0,,,,,,,,,,,,,,,,,,,,,,,,,,,,503.9435017001815,None,symbol,aloud,blue,49,321,501.94717520009726,None,None,501.94717520009726,None,,,,,,,,,,,,,,,,,,,,,,,,,,,,,,,,,nc24,001,2021_Nov_10_1659,ProdSingRedo,3.2.3,59.93382105927242,
86,0,86,0,,,,,,,,,,,,,,,,,,,,,,,,,,,,506.4602360003628,None,little,sing,red,23,174,504.4528875001706,None,None,504.4528875001706,None,,,,,,,,,,,,,,,,,,,,,,,,,,,,,,,,,nc24,001,2021_Nov_10_1659,ProdSingRedo,3.2.3,59.93382105927242,
87,0,87,0,,,,,,,,,,,,,,,,,,,,,,,,,,,,508.9773877002299,None,incident,sing,red,24,158,506.9698235001415,None,None,506.9698235001415,None,,,,,,,,,,,,,,,,,,,,,,,,,,,,,,,,,nc24,001,2021_Nov_10_1659,ProdSingRedo,3.2.3,59.93382105927242,
88,0,88,0,,,,,,,,,,,,,,,,,,,,,,,,,,,,511.4939410001971,None,prime,aloud,blue,34,235,509.48729750001803,None,None,509.48729750001803,None,,,,,,,,,,,,,,,,,,,,,,,,,,,,,,,,,nc24,001,2021_Nov_10_1659,ProdSingRedo,3.2.3,59.93382105927242,
89,0,89,0,,,,,,,,,,,,,,,,,,,,,,,,,,,,514.011070500128,None,collection,sing,red,18,54,512.0027700001374,None,None,512.0027700001374,None,,,,,,,,,,,,,,,,,,,,,,,,,,,,,,,,,nc24,001,2021_Nov_10_1659,ProdSingRedo,3.2.3,59.93382105927242,
,,,,,,,,,,,,,,,,,,,,,,,,,,,,,,,,,,,,,,,,,,,514.5109073002823,None,k,209.15236910013482,514.5109073002823,None,,,,,,,,,,,,,,,,,,,,,,,,,,,nc24,001,2021_Nov_10_1659,ProdSingRedo,3.2.3,59.93382105927242,
,,,,0,0,0,0,,,,,,,,,,,,,,,,,,,,,,,,739.2552899001166,None,,,,,,,,,,,,,,,,,dream,new_a,white,0,114,104,724.2149021001533,None,724.2149021001533,None,2,7.2369101997464895,724.2149021001533,None,731.4833753001876,None,731.9957624003291,None,731.9957624003291,None,f,7.2243125000968575,731.9957624003291,None,,,nc24,001,2021_Nov_10_1659,ProdSingRedo,3.2.3,59.93382105927242,
,,,,1,0,1,0,,,,,,,,,,,,,,,,,,,,,,,,748.3357685999945,None,,,,,,,,,,,,,,,,,enemy,sing,white,1,0,113,739.776685600169,None,739.776685600169,None,5,3.947364100255072,739.776685600169,None,743.7523750001565,None,744.267377300188,None,744.267377300188,None,r,4.0407118001021445,744.267377300188,None,,,nc24,001,2021_Nov_10_1659,ProdSingRedo,3.2.3,59.93382105927242,
,,,,2,0,2,0,,,,,,,,,,,,,,,,,,,,,,,,758.7516136001796,None,,,,,,,,,,,,,,,,,military,silent,white,2,69,190,748.854115200229,None,748.854115200229,None,3,5.4057748997583985,748.854115200229,None,754.2938414001837,None,754.8085152003914,None,754.8085152003914,None,f,3.9163083997555077,754.8085152003914,None,,,nc24,001,2021_Nov_10_1659,ProdSingRedo,3.2.3,59.93382105927242,
,,,,3,0,3,0,,,,,,,,,,,,,,,,,,,,,,,,764.1438950002193,None,,,,,,,,,,,,,,,,,childhood,new_b,white,3,138,49,759.2785042002797,None,759.2785042002797,None,2,2.853300599846989,759.2785042002797,None,762.1631275000982,None,762.6857181000523,None,762.6857181000523,None,f,1.4384278999641538,762.6857181000523,None,,,nc24,001,2021_Nov_10_1659,ProdSingRedo,3.2.3,59.93382105927242,
,,,,4,0,4,0,,,,,,,,,,,,,,,,,,,,,,,,769.2365573002025,None,,,,,,,,,,,,,,,,,group,sing,white,4,5,143,764.6644276999868,None,764.6644276999868,None,1,2.667572199832648,764.6644276999868,None,767.3858166001737,None,767.9099120004103,None,767.9099120004103,None,n,1.3021921999752522,767.9099120004103,None,,,nc24,001,2021_Nov_10_1659,ProdSingRedo,3.2.3,59.93382105927242,
,,,,5,0,5,0,,,,,,,,,,,,,,,,,,,,,,,,775.0049983002245,None,,,,,,,,,,,,,,,,,incident,sing,white,5,24,158,769.7594517003745,None,769.7594517003745,None,6,3.5086193000897765,769.7594517003745,None,773.3164352001622,None,773.8439041003585,None,773.8439041003585,None,r,1.1361964996904135,773.8439041003585,None,,,nc24,001,2021_Nov_10_1659,ProdSingRedo,3.2.3,59.93382105927242,
,,,,6,0,6,0,,,,,,,,,,,,,,,,,,,,,,,,781.5525170001201,None,,,,,,,,,,,,,,,,,harmony,sing,white,6,3,148,775.5279965000227,None,775.5279965000227,None,6,4.316471700090915,775.5279965000227,None,779.8998751002364,None,780.4117562002502,None,780.4117562002502,None,r,1.1042488003149629,780.4117562002502,None,,,nc24,001,2021_Nov_10_1659,ProdSingRedo,3.2.3,59.93382105927242,
,,,,7,0,7,0,,,,,,,,,,,,,,,,,,,,,,,,786.3409891002811,None,,,,,,,,,,,,,,,,,turkey,new_c,white,7,167,342,782.0780401001684,None,782.0780401001684,None,1,1.6939599998295307,782.0780401001684,None,783.8252368001267,None,784.3454831000417,None,784.3454831000417,None,n,1.9625490000471473,784.3454831000417,None,,,nc24,001,2021_Nov_10_1659,ProdSingRedo,3.2.3,59.93382105927242,
,,,,8,0,8,0,,,,,,,,,,,,,,,,,,,,,,,,793.3232480003498,None,,,,,,,,,,,,,,,,,opening,sing,white,8,20,205,786.8619617000222,None,786.8619617000222,None,6,3.798734299838543,786.8619617000222,None,790.7014008001424,None,791.2263433001935,None,791.2263433001935,None,r,2.0657613002695143,791.2263433001935,None,,,nc24,001,2021_Nov_10_1659,ProdSingRedo,3.2.3,59.93382105927242,
,,,,9,0,9,0,,,,,,,,,,,,,,,,,,,,,,,,797.3934572003782,None,,,,,,,,,,,,,,,,,store,silent,white,9,67,305,793.8437821003608,None,793.8437821003608,None,3,2.0244045997969806,793.8437821003608,None,795.9225312001072,None,796.4337376002222,None,796.4337376002222,None,f,0.9223062000237405,796.4337376002222,None,,,nc24,001,2021_Nov_10_1659,ProdSingRedo,3.2.3,59.93382105927242,
,,,,10,0,10,0,,,,,,,,,,,,,,,,,,,,,,,,801.5556308003142,None,,,,,,,,,,,,,,,,,interior,new_b,white,10,134,164,797.9161475002766,None,797.9161475002766,None,2,2.071843999903649,797.9161475002766,None,800.0329288002104,None,800.5596503000706,None,800.5596503000706,None,f,0.9645076999440789,800.5596503000706,None,,,nc24,001,2021_Nov_10_1659,ProdSingRedo,3.2.3,59.93382105927242,
,,,,11,0,11,0,,,,,,,,,,,,,,,,,,,,,,,,811.0230231001042,None,,,,,,,,,,,,,,,,,foundation,new_a,white,11,93,132,802.0886159003712,None,802.0886159003712,None,3,5.275642099790275,802.0886159003712,None,807.4095507999882,None,807.9280202002265,None,807.9280202002265,None,n,3.0682657002471387,807.9280202002265,None,,,nc24,001,2021_Nov_10_1659,ProdSingRedo,3.2.3,59.93382105927242,
,,,,12,0,12,0,,,,,,,,,,,,,,,,,,,,,,,,817.6176782003604,None,,,,,,,,,,,,,,,,,couch,silent,white,12,81,70,811.550913900137,None,811.550913900137,None,4,3.893185700289905,811.550913900137,None,815.4842332000844,None,816.0012457002886,None,816.0012457002886,None,r,1.586499100085348,816.0012457002886,None,,,nc24,001,2021_Nov_10_1659,ProdSingRedo,3.2.3,59.93382105927242,
,,,,13,0,13,0,,,,,,,,,,,,,,,,,,,,,,,,823.8455215999857,None,,,,,,,,,,,,,,,,,surprise,silent,white,13,87,317,818.1325868000276,None,818.1325868000276,None,2,3.167626400012523,818.1325868000276,None,821.3561960002407,None,821.8748260000721,None,821.8748260000721,None,n,1.9382310998626053,821.8748260000721,None,,,nc24,001,2021_Nov_10_1659,ProdSingRedo,3.2.3,59.93382105927242,
,,,,14,0,14,0,,,,,,,,,,,,,,,,,,,,,,,,830.2322857002728,None,,,,,,,,,,,,,,,,,benefit,sing,white,14,26,20,824.3682033000514,None,824.3682033000514,None,2,3.3479893999174237,824.3682033000514,None,827.7547417003661,None,828.2820469001308,None,828.2820469001308,None,f,1.9216875000856817,828.2820469001308,None,,,nc24,001,2021_Nov_10_1659,ProdSingRedo,3.2.3,59.93382105927242,
,,,,15,0,15,0,,,,,,,,,,,,,,,,,,,,,,,,836.6573140001856,None,,,,,,,,,,,,,,,,,count,sing,white,15,10,72,830.7498306999914,None,830.7498306999914,None,4,3.1823871000669897,830.7498306999914,None,833.9673892999999,None,834.4835539003834,None,834.4835539003834,None,r,2.1366173001006246,834.4835539003834,None,,,nc24,001,2021_Nov_10_1659,ProdSingRedo,3.2.3,59.93382105927242,
,,,,16,0,16,0,,,,,,,,,,,,,,,,,,,,,,,,840.6519407001324,None,,,,,,,,,,,,,,,,,crisis,new_a,white,16,92,79,837.1849533002824,None,837.1849533002824,None,1,1.515201499685645,837.1849533002824,None,838.7335854000412,None,839.242618100252,None,839.242618100252,None,n,1.3773733996786177,839.242618100252,None,,,nc24,001,2021_Nov_10_1659,ProdSingRedo,3.2.3,59.93382105927242,
,,,,17,0,17,0,,,,,,,,,,,,,,,,,,,,,,,,844.8237011004239,None,,,,,,,,,,,,,,,,,brilliant,new_b,white,17,121,30,841.1860941001214,None,841.1860941001214,None,2,1.8660769001580775,841.1860941001214,None,843.1131379003637,None,843.6226115999743,None,843.6226115999743,None,n,1.173482900019735,843.6226115999743,None,,,nc24,001,2021_Nov_10_1659,ProdSingRedo,3.2.3,59.93382105927242,
,,,,18,0,18,0,,,,,,,,,,,,,,,,,,,,,,,,849.3013160000555,None,,,,,,,,,,,,,,,,,quarter,silent,white,18,78,246,845.3536424003541,None,845.3536424003541,None,2,2.1380634997040033,845.3536424003541,None,847.5290097002871,None,848.0347890001722,None,848.0347890001722,None,n,1.249169500079006,848.0347890001722,None,,,nc24,001,2021_Nov_10_1659,ProdSingRedo,3.2.3,59.93382105927242,
,,,,19,0,19,0,,,,,,,,,,,,,,,,,,,,,,,,854.4849078003317,None,,,,,,,,,,,,,,,,,discovery,silent,white,19,82,95,849.8222358003259,None,849.8222358003259,None,3,2.9659425001591444,849.8222358003259,None,852.8377126003616,None,853.3670286000706,None,853.3670286000706,None,f,1.0850696000270545,853.3670286000706,None,,,nc24,001,2021_Nov_10_1659,ProdSingRedo,3.2.3,59.93382105927242,
,,,,20,0,20,0,,,,,,,,,,,,,,,,,,,,,,,,858.427591000218,None,,,,,,,,,,,,,,,,,owner,silent,white,20,60,208,854.9973267000169,None,854.9973267000169,None,2,2.1670698998495936,854.9973267000169,None,857.1958480002359,None,857.7142191003077,None,857.7142191003077,None,f,0.6821380001492798,857.7142191003077,None,,,nc24,001,2021_Nov_10_1659,ProdSingRedo,3.2.3,59.93382105927242,
,,,,21,0,21,0,,,,,,,,,,,,,,,,,,,,,,,,865.0771872000769,None,,,,,,,,,,,,,,,,,weather,sing,white,21,11,352,858.9546607001685,None,858.9546607001685,None,4,4.21756670018658,858.9546607001685,None,863.2197850001976,None,863.7489170003682,None,863.7489170003682,None,f,1.2952741999179125,863.7489170003682,None,,,nc24,001,2021_Nov_10_1659,ProdSingRedo,3.2.3,59.93382105927242,
,,,,22,0,22,0,,,,,,,,,,,,,,,,,,,,,,,,868.4107997003011,None,,,,,,,,,,,,,,,,,court,new_a,white,22,90,75,865.6058684000745,None,865.6058684000745,None,4,1.8062894004397094,865.6058684000745,None,867.457725699991,None,867.9808094003238,None,867.9808094003238,None,f,0.39927300019189715,867.9808094003238,None,,,nc24,001,2021_Nov_10_1659,ProdSingRedo,3.2.3,59.93382105927242,
,,,,23,0,23,0,,,,,,,,,,,,,,,,,,,,,,,,873.569431300275,None,,,,,,,,,,,,,,,,,sunset,sing,white,23,2,315,868.9277339000255,None,868.9277339000255,None,3,3.1485592001117766,868.9277339000255,None,872.1231679003686,None,872.6468554004095,None,872.6468554004095,None,f,0.8932477999478579,872.6468554004095,None,,,nc24,001,2021_Nov_10_1659,ProdSingRedo,3.2.3,59.93382105927242,
,,,,24,0,24,0,,,,,,,,,,,,,,,,,,,,,,,,877.686495100148,None,,,,,,,,,,,,,,,,,addition,sing,white,24,16,2,874.0922822002321,None,874.0922822002321,None,6,2.183768999762833,874.0922822002321,None,876.3237364003435,None,876.852131200023,None,876.852131200023,None,r,0.8076058998703957,876.852131200023,None,,,nc24,001,2021_Nov_10_1659,ProdSingRedo,3.2.3,59.93382105927242,
,,,,25,0,25,0,,,,,,,,,,,,,,,,,,,,,,,,881.2274242001586,None,,,,,,,,,,,,,,,,,generation,new_c,white,25,156,136,878.2026372002438,None,878.2026372002438,None,3,1.8815736002288759,878.2026372002438,None,880.1281628003344,None,880.6345024001785,None,880.6345024001785,None,f,0.553753400221467,880.6345024001785,None,,,nc24,001,2021_Nov_10_1659,ProdSingRedo,3.2.3,59.93382105927242,
,,,,26,0,26,0,,,,,,,,,,,,,,,,,,,,,,,,885.8275669002905,None,,,,,,,,,,,,,,,,,education,silent,white,26,88,108,881.7560805999674,None,881.7560805999674,None,4,1.6962295998819172,881.7560805999674,None,883.494171900209,None,884.0086108003743,None,884.0086108003743,None,f,1.7796535999514163,884.0086108003743,None,,,nc24,001,2021_Nov_10_1659,ProdSingRedo,3.2.3,59.93382105927242,
,,,,27,0,27,0,,,,,,,,,,,,,,,,,,,,,,,,890.7233708002605,None,,,,,,,,,,,,,,,,,range,sing,white,27,19,251,886.3564254003577,None,886.3564254003577,None,3,2.607556900009513,886.3564254003577,None,889.0133895999752,None,889.5191093003377,None,889.5191093003377,None,n,1.172921400051564,889.5191093003377,None,,,nc24,001,2021_Nov_10_1659,ProdSingRedo,3.2.3,59.93382105927242,
,,,,28,0,28,0,,,,,,,,,,,,,,,,,,,,,,,,894.2627635002136,None,,,,,,,,,,,,,,,,,solution,new_b,white,28,124,294,891.2565314001404,None,891.2565314001404,None,4,1.7316187000833452,891.2565314001404,None,893.0284494003281,None,893.5470605003648,None,893.5470605003648,None,f,0.6892606001347303,893.5470605003648,None,,,nc24,001,2021_Nov_10_1659,ProdSingRedo,3.2.3,59.93382105927242,
,,,,29,0,29,0,,,,,,,,,,,,,,,,,,,,,,,,897.5790589000098,None,,,,,,,,,,,,,,,,,little,sing,white,29,23,174,894.7846612003632,None,894.7846612003632,None,2,1.5394955002702773,894.7846612003632,None,896.3672167002223,None,896.8795917001553,None,896.8795917001553,None,n,0.6686042998917401,896.8795917001553,None,,,nc24,001,2021_Nov_10_1659,ProdSingRedo,3.2.3,59.93382105927242,
,,,,30,0,30,0,,,,,,,,,,,,,,,,,,,,,,,,902.6312520001084,None,,,,,,,,,,,,,,,,,relation,new_b,white,30,149,257,898.0998821002431,None,898.0998821002431,None,1,2.1527889003045857,898.0998821002431,None,900.2933185002767,None,900.819316400215,None,900.819316400215,None,n,1.7768655000254512,900.819316400215,None,,,nc24,001,2021_Nov_10_1659,ProdSingRedo,3.2.3,59.93382105927242,
,,,,31,0,31,0,,,,,,,,,,,,,,,,,,,,,,,,906.0796902002767,None,,,,,,,,,,,,,,,,,weight,new_a,white,31,119,353,903.156730200164,None,903.156730200164,None,2,1.7280095000751317,903.156730200164,None,904.9209926002659,None,905.442185500171,None,905.442185500171,None,n,0.6019120998680592,905.442185500171,None,,,nc24,001,2021_Nov_10_1659,ProdSingRedo,3.2.3,59.93382105927242,
,,,,32,0,32,0,,,,,,,,,,,,,,,,,,,,,,,,913.2127287001349,None,,,,,,,,,,,,,,,,,suggestion,new_a,white,32,91,314,906.6078147999942,None,906.6078147999942,None,3,5.148258899804205,906.6078147999942,None,911.7990232002921,None,912.3195369001478,None,912.3195369001478,None,n,0.8605973003432155,912.3195369001478,None,,,nc24,001,2021_Nov_10_1659,ProdSingRedo,3.2.3,59.93382105927242,
,,,,33,0,33,0,,,,,,,,,,,,,,,,,,,,,,,,918.2796304002404,None,,,,,,,,,,,,,,,,,bright,silent,white,33,63,29,913.7364407000132,None,913.7364407000132,None,4,2.9716840996406972,913.7364407000132,None,916.7624761001207,None,917.2838296000846,None,917.2838296000846,None,f,0.9602629002183676,917.2838296000846,None,,,nc24,001,2021_Nov_10_1659,ProdSingRedo,3.2.3,59.93382105927242,
,,,,34,0,34,0,,,,,,,,,,,,,,,,,,,,,,,,926.2153056999668,None,,,,,,,,,,,,,,,,,meeting,aloud,white,34,56,187,918.8053862000816,None,918.8053862000816,None,2,1.2707827999256551,918.8053862000816,None,920.1278266003355,None,920.6423102002591,None,920.6423102002591,None,n,5.545965299941599,920.6423102002591,None,,,nc24,001,2021_Nov_10_1659,ProdSingRedo,3.2.3,59.93382105927242,
,,,,35,0,35,0,,,,,,,,,,,,,,,,,,,,,,,,929.8966832002625,None,,,,,,,,,,,,,,,,,century,new_a,white,35,113,45,926.7459119004197,None,926.7459119004197,None,4,1.986221400089562,926.7459119004197,None,928.781084400136,None,929.2921922001988,None,929.2921922001988,None,n,0.5758623001165688,929.2921922001988,None,,,nc24,001,2021_Nov_10_1659,ProdSingRedo,3.2.3,59.93382105927242,
,,,,36,0,36,0,,,,,,,,,,,,,,,,,,,,,,,,933.4657090003602,None,,,,,,,,,,,,,,,,,question,new_c,white,36,154,247,930.4278406002559,None,930.4278406002559,None,3,2.144685100298375,930.4278406002559,None,932.6100107003003,None,933.1378128002398,None,933.1378128002398,None,n,0.2986166998744011,933.1378128002398,None,,,nc24,001,2021_Nov_10_1659,ProdSingRedo,3.2.3,59.93382105927242,
,,,,37,0,37,0,,,,,,,,,,,,,,,,,,,,,,,,936.3484200001694,None,,,,,,,,,,,,,,,,,territory,new_a,white,37,98,324,933.9908296000212,None,933.9908296000212,None,1,1.293544199783355,933.9908296000212,None,935.3295003003441,None,935.8499695002101,None,935.8499695002101,None,n,0.46624370012432337,935.8499695002101,None,,,nc24,001,2021_Nov_10_1659,ProdSingRedo,3.2.3,59.93382105927242,
,,,,38,0,38,0,,,,,,,,,,,,,,,,,,,,,,,,939.709596700035,None,,,,,,,,,,,,,,,,,write,new_a,white,38,116,358,936.8728483002633,None,936.8728483002633,None,2,1.9391395999118686,936.8728483002633,None,938.8567001000047,None,939.3612594003789,None,939.3612594003789,None,f,0.31493830028921366,939.3612594003789,None,,,nc24,001,2021_Nov_10_1659,ProdSingRedo,3.2.3,59.93382105927242,
,,,,39,0,39,0,,,,,,,,,,,,,,,,,,,,,,,,944.8478641002439,None,,,,,,,,,,,,,,,,,touch,new_c,white,39,152,332,940.2319990000688,None,940.2319990000688,None,3,2.108131800312549,940.2319990000688,None,942.3799174004234,None,942.8910433002748,None,942.8910433002748,None,f,1.9210846000351012,942.8910433002748,None,,,nc24,001,2021_Nov_10_1659,ProdSingRedo,3.2.3,59.93382105927242,
,,,,40,0,40,0,,,,,,,,,,,,,,,,,,,,,,,,949.1842604000121,None,,,,,,,,,,,,,,,,,sweet,sing,white,40,27,319,945.3742696000263,None,945.3742696000263,None,3,1.5979440999217331,945.3742696000263,None,947.0037903003395,None,947.5105309002101,None,947.5105309002101,None,r,1.6375597002916038,947.5105309002101,None,,,nc24,001,2021_Nov_10_1659,ProdSingRedo,3.2.3,59.93382105927242,
,,,,41,0,41,0,,,,,,,,,,,,,,,,,,,,,,,,952.5925425002351,None,,,,,,,,,,,,,,,,,number,silent,white,41,68,203,949.709452799987,None,949.709452799987,None,3,1.4063856001012027,949.709452799987,None,951.1434607002884,None,951.6714630001225,None,951.6714630001225,None,f,0.8924982999451458,951.6714630001225,None,,,nc24,001,2021_Nov_10_1659,ProdSingRedo,3.2.3,59.93382105927242,
,,,,42,0,42,0,,,,,,,,,,,,,,,,,,,,,,,,955.6750984000973,None,,,,,,,,,,,,,,,,,member,aloud,white,42,45,188,953.1088980999775,None,953.1088980999775,None,4,1.311216900125146,953.1088980999775,None,954.4695562999696,None,954.9841233002953,None,954.9841233002953,None,f,0.6678646998479962,954.9841233002953,None,,,nc24,001,2021_Nov_10_1659,ProdSingRedo,3.2.3,59.93382105927242,
,,,,43,0,43,0,,,,,,,,,,,,,,,,,,,,,,,,958.8989721001126,None,,,,,,,,,,,,,,,,,author,new_c,white,43,178,15,956.1931846002117,None,956.1931846002117,None,3,1.587038000114262,956.1931846002117,None,957.8297608001158,None,958.351329300087,None,958.351329300087,None,f,0.508827299810946,958.351329300087,None,,,nc24,001,2021_Nov_10_1659,ProdSingRedo,3.2.3,59.93382105927242,
,,,,44,0,44,0,,,,,,,,,,,,,,,,,,,,,,,,962.4005989003927,None,,,,,,,,,,,,,,,,,atmosphere,new_c,white,44,151,12,959.424851400312,None,959.424851400312,None,3,1.9642819999717176,959.424851400312,None,961.4345790003426,None,961.9552337001078,None,961.9552337001078,None,n,0.41731079993769526,961.9552337001078,None,,,nc24,001,2021_Nov_10_1659,ProdSingRedo,3.2.3,59.93382105927242,
,,,,45,0,45,0,,,,,,,,,,,,,,,,,,,,,,,,969.232335800305,None,,,,,,,,,,,,,,,,,right,new_a,white,45,106,265,962.9175933999941,None,962.9175933999941,None,2,4.870465199928731,962.9175933999941,None,967.8149125003256,None,968.3238796000369,None,968.3238796000369,None,f,0.8723535002209246,968.3238796000369,None,,,nc24,001,2021_Nov_10_1659,ProdSingRedo,3.2.3,59.93382105927242,
,,,,46,0,46,0,,,,,,,,,,,,,,,,,,,,,,,,973.8702732003294,None,,,,,,,,,,,,,,,,,agency,sing,white,46,7,4,969.7627783003263,None,969.7627783003263,None,4,2.745502700097859,969.7627783003263,None,972.5516485003754,None,973.0699194003828,None,973.0699194003828,None,r,0.7580770999193192,973.0699194003828,None,,,nc24,001,2021_Nov_10_1659,ProdSingRedo,3.2.3,59.93382105927242,
,,,,47,0,47,0,,,,,,,,,,,,,,,,,,,,,,,,977.2099534003064,None,,,,,,,,,,,,,,,,,fellow,new_a,white,47,117,126,974.3918944001198,None,974.3918944001198,None,1,1.5323624000884593,974.3918944001198,None,975.9590392000973,None,976.4723559003323,None,976.4723559003323,None,n,0.7159004998393357,976.4723559003323,None,,,nc24,001,2021_Nov_10_1659,ProdSingRedo,3.2.3,59.93382105927242,
,,,,48,0,48,0,,,,,,,,,,,,,,,,,,,,,,,,980.6324398000725,None,,,,,,,,,,,,,,,,,dispute,silent,white,48,85,99,977.729678499978,None,977.729678499978,None,2,1.7383884000591934,977.729678499978,None,979.5039862003177,None,980.0204679002054,None,980.0204679002054,None,n,0.5756610003300011,980.0204679002054,None,,,nc24,001,2021_Nov_10_1659,ProdSingRedo,3.2.3,59.93382105927242,
,,,,49,0,49,0,,,,,,,,,,,,,,,,,,,,,,,,985.356932700146,None,,,,,,,,,,,,,,,,,quick,new_b,white,49,123,248,981.1621568002738,None,981.1621568002738,None,2,2.6020618001930416,981.1621568002738,None,983.8171547004022,None,984.3419851004146,None,984.3419851004146,None,f,0.9825341999530792,984.3419851004146,None,,,nc24,001,2021_Nov_10_1659,ProdSingRedo,3.2.3,59.93382105927242,
,,,,50,0,50,0,,,,,,,,,,,,,,,,,,,,,,,,988.7241441002116,None,,,,,,,,,,,,,,,,,level,aloud,white,50,32,170,985.8806190001778,None,985.8806190001778,None,2,1.2278436003252864,985.8806190001778,None,987.1493236003444,None,987.6737394002266,None,987.6737394002266,None,f,1.0103882001712918,987.6737394002266,None,,,nc24,001,2021_Nov_10_1659,ProdSingRedo,3.2.3,59.93382105927242,
,,,,51,0,51,0,,,,,,,,,,,,,,,,,,,,,,,,991.852388500236,None,,,,,,,,,,,,,,,,,error,new_c,white,51,159,117,989.2401812002063,None,989.2401812002063,None,4,1.475986999925226,989.2401812002063,None,990.762071700301,None,991.2829779000022,None,991.2829779000022,None,r,0.53727289987728,991.2829779000022,None,,,nc24,001,2021_Nov_10_1659,ProdSingRedo,3.2.3,59.93382105927242,
,,,,52,0,52,0,,,,,,,,,,,,,,,,,,,,,,,,995.2351457001641,None,,,,,,,,,,,,,,,,,provision,new_b,white,52,122,243,992.3790444000624,None,992.3790444000624,None,3,1.6093329996801913,992.3790444000624,None,994.0418217000552,None,994.5578505001031,None,994.5578505001031,None,f,0.6383414999581873,994.5578505001031,None,,,nc24,001,2021_Nov_10_1659,ProdSingRedo,3.2.3,59.93382105927242,
,,,,53,0,53,0,,,,,,,,,,,,,,,,,,,,,,,,999.6328647001646,None,,,,,,,,,,,,,,,,,search,silent,white,53,72,276,995.7574791000225,None,995.7574791000225,None,3,2.8226357996463776,995.7574791000225,None,998.6319997999817,None,999.1478134002537,None,999.1478134002537,None,f,0.4482030002400279,999.1478134002537,None,,,nc24,001,2021_Nov_10_1659,ProdSingRedo,3.2.3,59.93382105927242,
,,,,54,0,54,0,,,,,,,,,,,,,,,,,,,,,,,,1005.3994941003621,None,,,,,,,,,,,,,,,,,degree,new_c,white,54,155,89,1000.1604385003448,None,1000.1604385003448,None,4,4.1237111003138125,1000.1604385003448,None,1004.3333394001238,None,1004.8477333001792,None,1004.8477333001792,None,r,0.5244159996509552,1004.8477333001792,None,,,nc24,001,2021_Nov_10_1659,ProdSingRedo,3.2.3,59.93382105927242,
,,,,55,0,55,0,,,,,,,,,,,,,,,,,,,,,,,,1009.1041775001213,None,,,,,,,,,,,,,,,,,distance,new_c,white,55,163,100,1005.9254086003639,None,1005.9254086003639,None,5,1.8947856999002397,1005.9254086003639,None,1007.8746267003007,None,1008.3946581003256,None,1008.3946581003256,None,r,0.6735116997733712,1008.3946581003256,None,,,nc24,001,2021_Nov_10_1659,ProdSingRedo,3.2.3,59.93382105927242,
,,,,56,0,56,0,,,,,,,,,,,,,,,,,,,,,,,,1012.7867163000628,None,,,,,,,,,,,,,,,,,leader,aloud,white,56,54,168,1009.6289517004043,None,1009.6289517004043,None,4,2.2231653998605907,1009.6289517004043,None,1011.8968611001037,None,1012.4251631000079,None,1012.4251631000079,None,f,0.33115569967776537,1012.4251631000079,None,,,nc24,001,2021_Nov_10_1659,ProdSingRedo,3.2.3,59.93382105927242,
,,,,57,0,57,0,,,,,,,,,,,,,,,,,,,,,,,,1017.4135311003774,None,,,,,,,,,,,,,,,,,household,new_a,white,57,107,154,1013.308738599997,None,1013.308738599997,None,3,3.055156399961561,1013.308738599997,None,1016.3972414000891,None,1016.9257833003066,None,1016.9257833003066,None,f,0.46229990012943745,1016.9257833003066,None,,,nc24,001,2021_Nov_10_1659,ProdSingRedo,3.2.3,59.93382105927242,
,,,,58,0,58,0,,,,,,,,,,,,,,,,,,,,,,,,1022.1916906000115,None,,,,,,,,,,,,,,,,,beauty,new_b,white,58,148,18,1017.9390736003406,None,1017.9390736003406,None,4,1.4895055000670254,1017.9390736003406,None,1019.4745518001728,None,1019.9926758999936,None,1019.9926758999936,None,r,2.155580500140786,1019.9926758999936,None,,,nc24,001,2021_Nov_10_1659,ProdSingRedo,3.2.3,59.93382105927242,
,,,,59,0,59,0,,,,,,,,,,,,,,,,,,,,,,,,1027.8458827002905,None,,,,,,,,,,,,,,,,,revolution,new_a,white,59,111,264,1022.7030601999722,None,1022.7030601999722,None,2,3.901454799808562,1022.7030601999722,None,1026.6548610003665,None,1027.1817650003359,None,1027.1817650003359,None,n,0.6381383999250829,1027.1817650003359,None,,,nc24,001,2021_Nov_10_1659,ProdSingRedo,3.2.3,59.93382105927242,
,,,,60,0,60,0,,,,,,,,,,,,,,,,,,,,,,,,1031.9372168001719,None,,,,,,,,,,,,,,,,,agreement,new_b,white,60,129,5,1028.3648920003325,None,1028.3648920003325,None,4,1.5833986001089215,1028.3648920003325,None,1030.002734400332,None,1030.5245590000413,None,1030.5245590000413,None,r,1.3757528001442552,1030.5245590000413,None,,,nc24,001,2021_Nov_10_1659,ProdSingRedo,3.2.3,59.93382105927242,
,,,,61,0,61,0,,,,,,,,,,,,,,,,,,,,,,,,1036.4738858002238,None,,,,,,,,,,,,,,,,,scale,aloud,white,61,43,272,1032.4643537001684,None,1032.4643537001684,None,3,1.5318868001922965,1032.4643537001684,None,1034.0388333001174,None,1034.5581363001838,None,1034.5581363001838,None,f,1.877983400132507,1034.5581363001838,None,,,nc24,001,2021_Nov_10_1659,ProdSingRedo,3.2.3,59.93382105927242,
,,,,62,0,62,0,,,,,,,,,,,,,,,,,,,,,,,,1040.443188900128,None,,,,,,,,,,,,,,,,,quiet,silent,white,62,75,249,1036.9899724000134,None,1036.9899724000134,None,6,1.8942285999655724,1036.9899724000134,None,1038.9400425003842,None,1039.460036800243,None,1039.460036800243,None,r,0.9441397003829479,1039.460036800243,None,,,nc24,001,2021_Nov_10_1659,ProdSingRedo,3.2.3,59.93382105927242,
,,,,63,0,63,0,,,,,,,,,,,,,,,,,,,,,,,,1043.697675500065,None,,,,,,,,,,,,,,,,,smooth,new_b,white,63,145,292,1040.958630300127,None,1040.958630300127,None,4,1.4059284999966621,1040.958630300127,None,1042.4037792002782,None,1042.9196619000286,None,1042.9196619000286,None,f,0.7567643001675606,1042.9196619000286,None,,,nc24,001,2021_Nov_10_1659,ProdSingRedo,3.2.3,59.93382105927242,
,,,,64,0,64,0,,,,,,,,,,,,,,,,,,,,,,,,1047.3724092002958,None,,,,,,,,,,,,,,,,,instrument,sing,white,64,1,163,1044.2113063000143,None,1044.2113063000143,None,6,2.13688510004431,1044.2113063000143,None,1046.3962385002524,None,1046.909343500156,None,1046.909343500156,None,r,0.4390255999751389,1046.909343500156,None,,,nc24,001,2021_Nov_10_1659,ProdSingRedo,3.2.3,59.93382105927242,
,,,,65,0,65,0,,,,,,,,,,,,,,,,,,,,,,,,1050.6822918001562,None,,,,,,,,,,,,,,,,,close,aloud,white,65,47,53,1047.8925105002709,None,1047.8925105002709,None,6,1.8158589997328818,1047.8925105002709,None,1049.7493793000467,None,1050.2704577003606,None,1050.2704577003606,None,r,0.3815742996521294,1050.2704577003606,None,,,nc24,001,2021_Nov_10_1659,ProdSingRedo,3.2.3,59.93382105927242,
,,,,66,0,66,0,,,,,,,,,,,,,,,,,,,,,,,,1054.039811000228,None,,,,,,,,,,,,,,,,,piece,new_a,white,66,95,221,1051.210876500234,None,1051.210876500234,None,4,1.6572900000028312,1051.210876500234,None,1052.9060507002287,None,1053.420368600171,None,1053.420368600171,None,r,0.5921495999209583,1053.420368600171,None,,,nc24,001,2021_Nov_10_1659,ProdSingRedo,3.2.3,59.93382105927242,
,,,,67,0,67,0,,,,,,,,,,,,,,,,,,,,,,,,1057.3045800002292,None,,,,,,,,,,,,,,,,,citizen,new_b,white,67,146,50,1054.5734113999642,None,1054.5734113999642,None,5,1.8945939000695944,1054.5734113999642,None,1056.5072699002922,None,1057.0149962003343,None,1057.0149962003343,None,f,0.25325540034100413,1057.0149962003343,None,,,nc24,001,2021_Nov_10_1659,ProdSingRedo,3.2.3,59.93382105927242,
,,,,68,0,68,0,,,,,,,,,,,,,,,,,,,,,,,,1060.6788514000364,None,,,,,,,,,,,,,,,,,novel,new_b,white,68,140,202,1057.8150800000876,None,1057.8150800000876,None,4,2.117109699640423,1057.8150800000876,None,1059.9662155001424,None,1060.4911245000549,None,1060.4911245000549,None,f,0.15319620026275516,1060.4911245000549,None,,,nc24,001,2021_Nov_10_1659,ProdSingRedo,3.2.3,59.93382105927242,
,,,,69,0,69,0,,,,,,,,,,,,,,,,,,,,,,,,1064.0408785999753,None,,,,,,,,,,,,,,,,,property,sing,white,69,29,242,1061.20050980011,None,1061.20050980011,None,6,2.0356986997649074,1061.20050980011,None,1063.2888068002649,None,1063.8157425001264,None,1063.8157425001264,None,f,0.1969360001385212,1063.8157425001264,None,,,nc24,001,2021_Nov_10_1659,ProdSingRedo,3.2.3,59.93382105927242,
,,,,70,0,70,0,,,,,,,,,,,,,,,,,,,,,,,,1068.8077189000323,None,,,,,,,,,,,,,,,,,chief,new_a,white,70,105,48,1064.5650583002716,None,1064.5650583002716,None,3,3.4391391999088228,1064.5650583002716,None,1068.0518084000796,None,1068.5751244002022,None,1068.5751244002022,None,f,0.2055939002893865,1068.5751244002022,None,,,nc24,001,2021_Nov_10_1659,ProdSingRedo,3.2.3,59.93382105927242,
,,,,71,0,71,0,,,,,,,,,,,,,,,,,,,,,,,,1071.9918700000271,None,,,,,,,,,,,,,,,,,thing,sing,white,71,14,328,1069.3335015000775,None,1069.3335015000775,None,6,1.89469760004431,1069.3335015000775,None,1071.2602589000016,None,1071.7773747001775,None,1071.7773747001775,None,r,0.17886299965903163,1071.7773747001775,None,,,nc24,001,2021_Nov_10_1659,ProdSingRedo,3.2.3,59.93382105927242,
,,,,72,0,72,0,,,,,,,,,,,,,,,,,,,,,,,,1077.4497077004053,None,,,,,,,,,,,,,,,,,accident,new_b,white,72,125,0,1072.5161282001063,None,1072.5161282001063,None,5,2.4241180000826716,1072.5161282001063,None,1074.9856744999997,None,1075.5012543001212,None,1075.5012543001212,None,r,1.9114994001574814,1075.5012543001212,None,,,nc24,001,2021_Nov_10_1659,ProdSingRedo,3.2.3,59.93382105927242,
,,,,73,0,73,0,,,,,,,,,,,,,,,,,,,,,,,,1086.8907620999962,None,,,,,,,,,,,,,,,,,point,sing,white,73,9,226,1077.9596297000535,None,1077.9596297000535,None,3,3.540503399912268,1077.9596297000535,None,1081.5366736003198,None,1082.055968000088,None,1082.055968000088,None,n,4.796278600115329,1082.055968000088,None,,,nc24,001,2021_Nov_10_1659,ProdSingRedo,3.2.3,59.93382105927242,
,,,,74,0,74,0,,,,,,,,,,,,,,,,,,,,,,,,1090.8920734003186,None,,,,,,,,,,,,,,,,,institute,new_a,white,74,96,162,1087.4201385001652,None,1087.4201385001652,None,2,1.8320229998789728,1087.4201385001652,None,1089.2994958003983,None,1089.8145677000284,None,1089.8145677000284,None,n,1.0537211000919342,1089.8145677000284,None,,,nc24,001,2021_Nov_10_1659,ProdSingRedo,3.2.3,59.93382105927242,
,,,,75,0,75,0,,,,,,,,,,,,,,,,,,,,,,,,1094.8925171000883,None,,,,,,,,,,,,,,,,,attack,new_c,white,75,158,13,1091.424059800338,None,1091.424059800338,None,3,2.4042306998744607,1091.424059800338,None,1093.8784451000392,None,1094.3969636000693,None,1094.3969636000693,None,f,0.4633623999543488,1094.3969636000693,None,,,nc24,001,2021_Nov_10_1659,ProdSingRedo,3.2.3,59.93382105927242,
,,,,76,0,76,0,,,,,,,,,,,,,,,,,,,,,,,,1099.4921636004,None,,,,,,,,,,,,,,,,,worker,sing,white,76,17,356,1095.4178303000517,None,1095.4178303000517,None,2,1.9704704000614583,1095.4178303000517,None,1097.4486294002272,None,1097.9627646002918,None,1097.9627646002918,None,f,1.4975026999600232,1097.9627646002918,None,,,nc24,001,2021_Nov_10_1659,ProdSingRedo,3.2.3,59.93382105927242,
,,,,77,0,77,0,,,,,,,,,,,,,,,,,,,,,,,,1103.8453158000484,None,,,,,,,,,,,,,,,,,community,new_b,white,77,141,63,1100.023674200289,None,1100.023674200289,None,5,2.3249984001740813,1100.023674200289,None,1102.3965046000667,None,1102.9150032000616,None,1102.9150032000616,None,r,0.8973132995888591,1102.9150032000616,None,,,nc24,001,2021_Nov_10_1659,ProdSingRedo,3.2.3,59.93382105927242,
,,,,78,0,78,0,,,,,,,,,,,,,,,,,,,,,,,,1108.4764304002747,None,,,,,,,,,,,,,,,,,balance,new_a,white,78,104,17,1104.3715731003322,None,1104.3715731003322,None,4,3.4488260000944138,1104.3715731003322,None,1107.8678557001986,None,1108.3819594001397,None,1108.3819594001397,None,r,0.06236060010269284,1108.3819594001397,None,,,nc24,001,2021_Nov_10_1659,ProdSingRedo,3.2.3,59.93382105927242,
,,,,79,0,79,0,,,,,,,,,,,,,,,,,,,,,,,,1112.1450771000236,None,,,,,,,,,,,,,,,,,master,new_b,white,79,139,180,1109.005707200151,None,1109.005707200151,None,3,1.782606199849397,1109.005707200151,None,1110.8421604000032,None,1111.3684756001458,None,1111.3684756001458,None,f,0.7482487000524998,1111.3684756001458,None,,,nc24,001,2021_Nov_10_1659,ProdSingRedo,3.2.3,59.93382105927242,
,,,,80,0,80,0,,,,,,,,,,,,,,,,,,,,,,,,1116.0441268002614,None,,,,,,,,,,,,,,,,,goose,aloud,white,80,41,138,1112.6647330000997,None,1112.6647330000997,None,1,1.5475630997680128,1112.6647330000997,None,1114.2542396001518,None,1114.780785500072,None,1114.780785500072,None,n,1.239391699898988,1114.780785500072,None,,,nc24,001,2021_Nov_10_1659,ProdSingRedo,3.2.3,59.93382105927242,
,,,,81,0,81,0,,,,,,,,,,,,,,,,,,,,,,,,1119.5379852000624,None,,,,,,,,,,,,,,,,,mankind,new_c,white,81,162,178,1116.5735997003503,None,1116.5735997003503,None,1,1.5907422001473606,1116.5735997003503,None,1118.1865910002962,None,1118.7070657000877,None,1118.7070657000877,None,n,0.8092326000332832,1118.7070657000877,None,,,nc24,001,2021_Nov_10_1659,ProdSingRedo,3.2.3,59.93382105927242,
,,,,82,0,82,0,,,,,,,,,,,,,,,,,,,,,,,,1123.759953700006,None,,,,,,,,,,,,,,,,,symbol,aloud,white,82,49,321,1120.068977800198,None,1120.068977800198,None,2,1.895144899841398,1120.068977800198,None,1122.000120300334,None,1122.5107671003789,None,1122.5107671003789,None,f,1.2134845997206867,1122.5107671003789,None,,,nc24,001,2021_Nov_10_1659,ProdSingRedo,3.2.3,59.93382105927242,
,,,,83,0,83,0,,,,,,,,,,,,,,,,,,,,,,,,1128.9291399000213,None,,,,,,,,,,,,,,,,,finance,new_c,white,83,177,129,1124.293043400161,None,1124.293043400161,None,4,2.6872366997413337,1124.293043400161,None,1127.028400900308,None,1127.5462733004242,None,1127.5462733004242,None,f,1.346028400119394,1127.5462733004242,None,,,nc24,001,2021_Nov_10_1659,ProdSingRedo,3.2.3,59.93382105927242,
,,,,84,0,84,0,,,,,,,,,,,,,,,,,,,,,,,,1132.4773115003482,None,,,,,,,,,,,,,,,,,heavy,sing,white,84,12,151,1129.455545600038,None,1129.455545600038,None,2,1.5327038001269102,1129.455545600038,None,1131.0282954000868,None,1131.5363934002817,None,1131.5363934002817,None,n,0.9160384996794164,1131.5363934002817,None,,,nc24,001,2021_Nov_10_1659,ProdSingRedo,3.2.3,59.93382105927242,
,,,,85,0,85,0,,,,,,,,,,,,,,,,,,,,,,,,1140.0864579002373,None,,,,,,,,,,,,,,,,,growth,new_b,white,85,127,144,1133.0046831001528,None,1133.0046831001528,None,2,2.7514778999611735,1133.0046831001528,None,1135.795981200412,None,1136.3168495004065,None,1136.3168495004065,None,f,3.7431374001316726,1136.3168495004065,None,,,nc24,001,2021_Nov_10_1659,ProdSingRedo,3.2.3,59.93382105927242,
,,,,86,0,86,0,,,,,,,,,,,,,,,,,,,,,,,,1144.829162900336,None,,,,,,,,,,,,,,,,,reach,silent,white,86,86,253,1140.611262100283,None,1140.611262100283,None,2,2.9850122001953423,1140.611262100283,None,1143.6282692002133,None,1144.1473565003835,None,1144.1473565003835,None,n,0.6490082000382245,1144.1473565003835,None,,,nc24,001,2021_Nov_10_1659,ProdSingRedo,3.2.3,59.93382105927242,
,,,,87,0,87,0,,,,,,,,,,,,,,,,,,,,,,,,1148.169459900353,None,,,,,,,,,,,,,,,,,answer,silent,white,87,73,8,1145.361921200063,None,1145.361921200063,None,4,1.5784665001556277,1145.361921200063,None,1146.9953208002262,None,1147.5053969002329,None,1147.5053969002329,None,f,0.6347206002101302,1147.5053969002329,None,,,nc24,001,2021_Nov_10_1659,ProdSingRedo,3.2.3,59.93382105927242,
,,,,88,0,88,0,,,,,,,,,,,,,,,,,,,,,,,,1151.378748500254,None,,,,,,,,,,,,,,,,,collection,sing,white,88,18,54,1148.687420700211,None,1148.687420700211,None,5,1.7885830998420715,1148.687420700211,None,1150.5227203001268,None,1151.0462349001318,None,1151.0462349001318,None,r,0.29410209972411394,1151.0462349001318,None,,,nc24,001,2021_Nov_10_1659,ProdSingRedo,3.2.3,59.93382105927242,
,,,,89,0,89,0,,,,,,,,,,,,,,,,,,,,,,,,1154.7962338002399,None,,,,,,,,,,,,,,,,,society,aloud,white,89,33,293,1151.9035122999921,None,1151.9035122999921,None,3,2.1008918997831643,1151.9035122999921,None,1154.0387330004014,None,1154.5518904002383,None,1154.5518904002383,None,f,0.22037510015070438,1154.5518904002383,None,,,nc24,001,2021_Nov_10_1659,ProdSingRedo,3.2.3,59.93382105927242,
,,,,90,0,90,0,,,,,,,,,,,,,,,,,,,,,,,,1158.1976411002688,None,,,,,,,,,,,,,,,,,income,new_c,white,90,169,159,1155.3202814003453,None,1155.3202814003453,None,1,1.724116800352931,1155.3202814003453,None,1157.0917521002702,None,1157.61115900008,None,1157.61115900008,None,n,0.5611362000927329,1157.61115900008,None,,,nc24,001,2021_Nov_10_1659,ProdSingRedo,3.2.3,59.93382105927242,
,,,,91,0,91,0,,,,,,,,,,,,,,,,,,,,,,,,1162.112700900063,None,,,,,,,,,,,,,,,,,dance,silent,white,91,76,84,1158.7113630003296,None,1158.7113630003296,None,2,2.4369974001310766,1158.7113630003296,None,1161.1956998002715,None,1161.7150032999925,None,1161.7150032999925,None,n,0.36134609999135137,1161.7150032999925,None,,,nc24,001,2021_Nov_10_1659,ProdSingRedo,3.2.3,59.93382105927242,
,,,,92,0,92,0,,,,,,,,,,,,,,,,,,,,,,,,1165.3003402003087,None,,,,,,,,,,,,,,,,,poetry,aloud,white,92,58,225,1162.6459722002037,None,1162.6459722002037,None,6,1.5502834999933839,1162.6459722002037,None,1164.2402492002584,None,1164.7685468001291,None,1164.7685468001291,None,r,0.4917553998529911,1164.7685468001291,None,,,nc24,001,2021_Nov_10_1659,ProdSingRedo,3.2.3,59.93382105927242,
,,,,93,0,93,0,,,,,,,,,,,,,,,,,,,,,,,,1168.230503000319,None,,,,,,,,,,,,,,,,,impact,aloud,white,93,30,157,1165.827476900071,None,1165.827476900071,None,5,1.4808575003407896,1165.827476900071,None,1167.3568858001381,None,1167.8842894001864,None,1167.8842894001864,None,r,0.32012320030480623,1167.8842894001864,None,,,nc24,001,2021_Nov_10_1659,ProdSingRedo,3.2.3,59.93382105927242,
,,,,94,0,94,0,,,,,,,,,,,,,,,,,,,,,,,,1171.214939800091,None,,,,,,,,,,,,,,,,,employment,aloud,white,94,31,111,1168.7581271003,None,1168.7581271003,None,6,1.5261411000974476,1168.7581271003,None,1170.3263325002044,None,1170.8569097002037,None,1170.8569097002037,None,r,0.32349999994039536,1170.8569097002037,None,,,nc24,001,2021_Nov_10_1659,ProdSingRedo,3.2.3,59.93382105927242,
,,,,95,0,95,0,,,,,,,,,,,,,,,,,,,,,,,,1178.2047618003562,None,,,,,,,,,,,,,,,,,principal,aloud,white,95,39,236,1171.7388756000437,None,1171.7388756000437,None,1,3.8414280000142753,1171.7388756000437,None,1175.6306212004274,None,1176.1534943003207,None,1176.1534943003207,None,n,2.0265697999857366,1176.1534943003207,None,,,nc24,001,2021_Nov_10_1659,ProdSingRedo,3.2.3,59.93382105927242,
,,,,96,0,96,0,,,,,,,,,,,,,,,,,,,,,,,,1181.0819072001614,None,,,,,,,,,,,,,,,,,damage,new_b,white,96,136,83,1178.726733200252,None,1178.726733200252,None,2,1.333657399751246,1178.726733200252,None,1180.112436900381,None,1180.6393108000048,None,1180.6393108000048,None,n,0.4050828004255891,1180.6393108000048,None,,,nc24,001,2021_Nov_10_1659,ProdSingRedo,3.2.3,59.93382105927242,
,,,,97,0,97,0,,,,,,,,,,,,,,,,,,,,,,,,1185.8332290002145,None,,,,,,,,,,,,,,,,,title,new_b,white,97,126,331,1181.6018354003318,None,1181.6018354003318,None,4,2.970545799937099,1181.6018354003318,None,1184.6059853001498,None,1185.1131196999922,None,1185.1131196999922,None,f,0.6919185998849571,1185.1131196999922,None,,,nc24,001,2021_Nov_10_1659,ProdSingRedo,3.2.3,59.93382105927242,
,,,,98,0,98,0,,,,,,,,,,,,,,,,,,,,,,,,1188.6820835000835,None,,,,,,,,,,,,,,,,,express,new_a,white,98,102,124,1186.3550042002462,None,1186.3550042002462,None,6,1.4413660001009703,1186.3550042002462,None,1187.841259300243,None,1188.3662774004042,None,1188.3662774004042,None,r,0.2860260000452399,1188.3662774004042,None,,,nc24,001,2021_Nov_10_1659,ProdSingRedo,3.2.3,59.93382105927242,
,,,,99,0,99,0,,,,,,,,,,,,,,,,,,,,,,,,1191.650103900116,None,,,,,,,,,,,,,,,,,session,aloud,white,99,42,281,1189.2067634002306,None,1189.2067634002306,None,6,1.6775743998587132,1189.2067634002306,None,1190.9274598001502,None,1191.4503117003478,None,1191.4503117003478,None,r,0.15441680001094937,1191.4503117003478,None,,,nc24,001,2021_Nov_10_1659,ProdSingRedo,3.2.3,59.93382105927242,
,,,,100,0,100,0,,,,,,,,,,,,,,,,,,,,,,,,1194.9261831003241,None,,,,,,,,,,,,,,,,,skill,new_c,white,100,165,289,1192.176783300005,None,1192.176783300005,None,3,1.867618900258094,1192.176783300005,None,1194.0996155003086,None,1194.6175279002637,None,1194.6175279002637,None,f,0.2667135000228882,1194.6175279002637,None,,,nc24,001,2021_Nov_10_1659,ProdSingRedo,3.2.3,59.93382105927242,
,,,,101,0,101,0,,,,,,,,,,,,,,,,,,,,,,,,1197.8491640002467,None,,,,,,,,,,,,,,,,,guide,new_b,white,101,132,147,1195.4631688003428,None,1195.4631688003428,None,3,1.4530977997928858,1195.4631688003428,None,1196.965325600002,None,1197.4856493002735,None,1197.4856493002735,None,f,0.3346599000506103,1197.4856493002735,None,,,nc24,001,2021_Nov_10_1659,ProdSingRedo,3.2.3,59.93382105927242,
,,,,102,0,102,0,,,,,,,,,,,,,,,,,,,,,,,,1201.025202800054,None,,,,,,,,,,,,,,,,,signal,sing,white,102,15,287,1198.3739310000092,None,1198.3739310000092,None,6,1.7665078998543322,1198.3739310000092,None,1200.1777729000896,None,1200.7068591001444,None,1200.7068591001444,None,r,0.2975208996795118,1200.7068591001444,None,,,nc24,001,2021_Nov_10_1659,ProdSingRedo,3.2.3,59.93382105927242,
,,,,103,0,103,0,,,,,,,,,,,,,,,,,,,,,,,,1204.908447000198,None,,,,,,,,,,,,,,,,,light,new_c,white,103,174,171,1201.542675900273,None,1201.542675900273,None,4,2.4776912997476757,1201.542675900273,None,1204.0526787000708,None,1204.5627340003848,None,1204.5627340003848,None,f,0.32136559998616576,1204.5627340003848,None,,,nc24,001,2021_Nov_10_1659,ProdSingRedo,3.2.3,59.93382105927242,
,,,,104,0,104,0,,,,,,,,,,,,,,,,,,,,,,,,1208.817525499966,None,,,,,,,,,,,,,,,,,trail,silent,white,104,66,336,1205.4514087000862,None,1205.4514087000862,None,5,2.1927072000689805,1205.4514087000862,None,1207.6928587001748,None,1208.2085481001996,None,1208.2085481001996,None,f,0.5717901000753045,1208.2085481001996,None,,,nc24,001,2021_Nov_10_1659,ProdSingRedo,3.2.3,59.93382105927242,
,,,,105,0,105,0,,,,,,,,,,,,,,,,,,,,,,,,1214.783246200066,None,,,,,,,,,,,,,,,,,throw,new_c,white,105,166,330,1209.342626400292,None,1209.342626400292,None,4,2.1737568001262844,1209.342626400292,None,1211.563965999987,None,1212.0830757999793,None,1212.0830757999793,None,r,2.665605400223285,1212.0830757999793,None,,,nc24,001,2021_Nov_10_1659,ProdSingRedo,3.2.3,59.93382105927242,
,,,,106,0,106,0,,,,,,,,,,,,,,,,,,,,,,,,1220.6011968003586,None,,,,,,,,,,,,,,,,,shock,aloud,white,106,44,284,1215.311110300012,None,1215.311110300012,None,4,3.581322400365025,1215.311110300012,None,1218.9295156002045,None,1219.4527500001714,None,1219.4527500001714,None,r,1.1196956997737288,1219.4527500001714,None,,,nc24,001,2021_Nov_10_1659,ProdSingRedo,3.2.3,59.93382105927242,
,,,,107,0,107,0,,,,,,,,,,,,,,,,,,,,,,,,1225.7012414000928,None,,,,,,,,,,,,,,,,,entrance,aloud,white,107,51,115,1221.1310254000127,None,1221.1310254000127,None,2,3.473063599783927,1221.1310254000127,None,1224.634672400076,None,1225.1542563000694,None,1225.1542563000694,None,n,0.5140464003197849,1225.1542563000694,None,,,nc24,001,2021_Nov_10_1659,ProdSingRedo,3.2.3,59.93382105927242,
,,,,108,0,108,0,,,,,,,,,,,,,,,,,,,,,,,,1229.1520136003383,None,,,,,,,,,,,,,,,,,shape,new_a,white,108,118,282,1226.22666220041,None,1226.22666220041,None,3,1.881802000105381,1226.22666220041,None,1228.1481464002281,None,1228.6703769001178,None,1228.6703769001178,None,f,0.4542984999716282,1228.6703769001178,None,,,nc24,001,2021_Nov_10_1659,ProdSingRedo,3.2.3,59.93382105927242,
,,,,109,0,109,0,,,,,,,,,,,,,,,,,,,,,,,,1233.803577600047,None,,,,,,,,,,,,,,,,,hunger,new_a,white,109,103,155,1229.681979500223,None,1229.681979500223,None,1,3.154369099996984,1229.681979500223,None,1232.8793753003702,None,1233.4074848000892,None,1233.4074848000892,None,n,0.3569102003239095,1233.4074848000892,None,,,nc24,001,2021_Nov_10_1659,ProdSingRedo,3.2.3,59.93382105927242,
,,,,110,0,110,0,,,,,,,,,,,,,,,,,,,,,,,,1236.9353277999908,None,,,,,,,,,,,,,,,,,murder,new_a,white,110,110,195,1234.3407613001764,None,1234.3407613001764,None,1,1.5116150001995265,1234.3407613001764,None,1235.9030985003337,None,1236.4180638999678,None,1236.4180638999678,None,n,0.482258299831301,1236.4180638999678,None,,,nc24,001,2021_Nov_10_1659,ProdSingRedo,3.2.3,59.93382105927242,
,,,,111,0,111,0,,,,,,,,,,,,,,,,,,,,,,,,1240.2032401002944,None,,,,,,,,,,,,,,,,,match,new_c,white,111,160,181,1237.465199700091,None,1237.465199700091,None,2,1.9151842999272048,1237.465199700091,None,1239.4328263001516,None,1239.9536703000776,None,1239.9536703000776,None,n,0.21866549970582128,1239.9536703000776,None,,,nc24,001,2021_Nov_10_1659,ProdSingRedo,3.2.3,59.93382105927242,
,,,,112,0,112,0,,,,,,,,,,,,,,,,,,,,,,,,1245.302594800014,None,,,,,,,,,,,,,,,,,private,aloud,white,112,37,237,1240.733187600039,None,1240.733187600039,None,1,3.4391477000899613,1240.733187600039,None,1244.216396200005,None,1244.7448289003223,None,1244.7448289003223,None,n,0.5239951997064054,1244.7448289003223,None,,,nc24,001,2021_Nov_10_1659,ProdSingRedo,3.2.3,59.93382105927242,
,,,,113,0,113,0,,,,,,,,,,,,,,,,,,,,,,,,1250.3534292001277,None,,,,,,,,,,,,,,,,,division,new_b,white,113,130,101,1245.8321248004213,None,1245.8321248004213,None,4,2.4041706998832524,1245.8321248004213,None,1248.2899519000202,None,1248.805196000263,None,1248.805196000263,None,f,1.5111553999595344,1248.805196000263,None,,,nc24,001,2021_Nov_10_1659,ProdSingRedo,3.2.3,59.93382105927242,
,,,,114,0,114,0,,,,,,,,,,,,,,,,,,,,,,,,1254.3713646000251,None,,,,,,,,,,,,,,,,,music,new_c,white,114,175,196,1250.8753021000884,None,1250.8753021000884,None,4,2.201205600053072,1250.8753021000884,None,1253.1254380000755,None,1253.639834200032,None,1253.639834200032,None,n,0.7005060003139079,1253.639834200032,None,,,nc24,001,2021_Nov_10_1659,ProdSingRedo,3.2.3,59.93382105927242,
,,,,115,0,115,0,,,,,,,,,,,,,,,,,,,,,,,,1257.3956932001747,None,,,,,,,,,,,,,,,,,alert,new_c,white,115,176,6,1254.8944840002805,None,1254.8944840002805,None,6,1.734108000062406,1254.8944840002805,None,1256.6642035003752,None,1257.189592699986,None,1257.189592699986,None,r,0.17501579970121384,1257.189592699986,None,,,nc24,001,2021_Nov_10_1659,ProdSingRedo,3.2.3,59.93382105927242,
,,,,116,0,116,0,,,,,,,,,,,,,,,,,,,,,,,,1261.8772801002488,None,,,,,,,,,,,,,,,,,evidence,aloud,white,116,38,120,1257.9086644002236,None,1257.9086644002236,None,6,3.3516833996400237,1257.9086644002236,None,1261.2885130001232,None,1261.8103876002133,None,1261.8103876002133,None,r,0.02596599981188774,1261.8103876002133,None,,,nc24,001,2021_Nov_10_1659,ProdSingRedo,3.2.3,59.93382105927242,
,,,,117,0,117,0,,,,,,,,,,,,,,,,,,,,,,,,1264.851068700198,None,,,,,,,,,,,,,,,,,scene,silent,white,117,70,273,1262.3928286000155,None,1262.3928286000155,None,3,1.5716584003530443,1262.3928286000155,None,1264.011266299989,None,1264.5203839000314,None,1264.5203839000314,None,f,0.30791900027543306,1264.5203839000314,None,,,nc24,001,2021_Nov_10_1659,ProdSingRedo,3.2.3,59.93382105927242,
,,,,118,0,118,0,,,,,,,,,,,,,,,,,,,,,,,,1269.621267599985,None,,,,,,,,,,,,,,,,,defeat,new_b,white,118,120,88,1265.372670000419,None,1265.372670000419,None,3,3.39936440018937,1265.372670000419,None,1268.8166033001617,None,1269.3472895002924,None,1269.3472895002924,None,f,0.24115139991044998,1269.3472895002924,None,,,nc24,001,2021_Nov_10_1659,ProdSingRedo,3.2.3,59.93382105927242,
,,,,119,0,119,0,,,,,,,,,,,,,,,,,,,,,,,,1272.880025899969,None,,,,,,,,,,,,,,,,,tennis,sing,white,119,13,323,1270.14406590024,None,1270.14406590024,None,5,2.0042554000392556,1270.14406590024,None,1272.1978310002014,None,1272.721063700039,None,1272.721063700039,None,f,0.13920170022174716,1272.721063700039,None,,,nc24,001,2021_Nov_10_1659,ProdSingRedo,3.2.3,59.93382105927242,
,,,,120,0,120,0,,,,,,,,,,,,,,,,,,,,,,,,1278.339243600145,None,,,,,,,,,,,,,,,,,strength,sing,white,120,21,310,1273.3880750001408,None,1273.3880750001408,None,6,3.288961899932474,1273.3880750001408,None,1276.729230100289,None,1277.2431701002643,None,1277.2431701002643,None,f,1.065211699809879,1277.2431701002643,None,,,nc24,001,2021_Nov_10_1659,ProdSingRedo,3.2.3,59.93382105927242,
,,,,121,0,121,0,,,,,,,,,,,,,,,,,,,,,,,,1281.771120400168,None,,,,,,,,,,,,,,,,,stand,new_a,white,121,99,302,1278.8629074003547,None,1278.8629074003547,None,1,1.7414695997722447,1278.8629074003547,None,1280.6539350003004,None,1281.1717175003141,None,1281.1717175003141,None,n,0.5687943999655545,1281.1717175003141,None,,,nc24,001,2021_Nov_10_1659,ProdSingRedo,3.2.3,59.93382105927242,
,,,,122,0,122,0,,,,,,,,,,,,,,,,,,,,,,,,1287.1717893001623,None,,,,,,,,,,,,,,,,,character,silent,white,122,74,46,1282.3068927000277,None,1282.3068927000277,None,5,3.8974430998787284,1282.3068927000277,None,1286.2506797001697,None,1286.7705938001163,None,1286.7705938001163,None,r,0.3618586999364197,1286.7705938001163,None,,,nc24,001,2021_Nov_10_1659,ProdSingRedo,3.2.3,59.93382105927242,
,,,,123,0,123,0,,,,,,,,,,,,,,,,,,,,,,,,1290.6055344003253,None,,,,,,,,,,,,,,,,,blind,sing,white,123,8,24,1287.7043461999856,None,1287.7043461999856,None,6,1.876167300157249,1287.7043461999856,None,1289.6120017003268,None,1290.1248196000233,None,1290.1248196000233,None,r,0.45561130018904805,1290.1248196000233,None,,,nc24,001,2021_Nov_10_1659,ProdSingRedo,3.2.3,59.93382105927242,
,,,,124,0,124,0,,,,,,,,,,,,,,,,,,,,,,,,1293.9051840002649,None,,,,,,,,,,,,,,,,,order,new_a,white,124,100,207,1291.127213400323,None,1291.127213400323,None,4,1.8051841999404132,1291.127213400323,None,1292.9678633003496,None,1293.4863538001664,None,1293.4863538001664,None,f,0.3820528001524508,1293.4863538001664,None,,,nc24,001,2021_Nov_10_1659,ProdSingRedo,3.2.3,59.93382105927242,
,,,,125,0,125,0,,,,,,,,,,,,,,,,,,,,,,,,1297.1384359002113,None,,,,,,,,,,,,,,,,,theme,silent,white,125,80,326,1294.4277843004093,None,1294.4277843004093,None,2,1.664601099677384,1294.4277843004093,None,1296.1340860002674,None,1296.654806600418,None,1296.654806600418,None,n,0.44566950015723705,1296.654806600418,None,,,nc24,001,2021_Nov_10_1659,ProdSingRedo,3.2.3,59.93382105927242,
,,,,126,0,126,0,,,,,,,,,,,,,,,,,,,,,,,,1300.23641890008,None,,,,,,,,,,,,,,,,,plane,silent,white,126,62,223,1297.664725100156,None,1297.664725100156,None,2,1.5876837000250816,1297.664725100156,None,1299.2985284002498,None,1299.8122209003195,None,1299.8122209003195,None,n,0.3920375001616776,1299.8122209003195,None,,,nc24,001,2021_Nov_10_1659,ProdSingRedo,3.2.3,59.93382105927242,
,,,,127,0,127,0,,,,,,,,,,,,,,,,,,,,,,,,1304.5418647001497,None,,,,,,,,,,,,,,,,,trash,new_c,white,127,173,337,1300.7615081002004,None,1300.7615081002004,None,2,1.5310041001066566,1300.7615081002004,None,1302.339597800281,None,1302.8598431004211,None,1302.8598431004211,None,f,1.6407386995851994,1302.8598431004211,None,,,nc24,001,2021_Nov_10_1659,ProdSingRedo,3.2.3,59.93382105927242,
,,,,128,0,128,0,,,,,,,,,,,,,,,,,,,,,,,,1307.8903843001463,None,,,,,,,,,,,,,,,,,drama,sing,white,128,22,103,1305.0708681000397,None,1305.0708681000397,None,4,1.8936982997693121,1305.0708681000397,None,1307.0042833001353,None,1307.5301101002842,None,1307.5301101002842,None,f,0.3302723001688719,1307.5301101002842,None,,,nc24,001,2021_Nov_10_1659,ProdSingRedo,3.2.3,59.93382105927242,
,,,,129,0,129,0,,,,,,,,,,,,,,,,,,,,,,,,1312.1009984002449,None,,,,,,,,,,,,,,,,,clear,silent,white,129,65,52,1308.4179786001332,None,1308.4179786001332,None,4,1.8264307999052107,1308.4179786001332,None,1310.2851211000234,None,1310.8095141001977,None,1310.8095141001977,None,f,1.2668932997621596,1310.8095141001977,None,,,nc24,001,2021_Nov_10_1659,ProdSingRedo,3.2.3,59.93382105927242,
,,,,130,0,130,0,,,,,,,,,,,,,,,,,,,,,,,,1316.0233539002948,None,,,,,,,,,,,,,,,,,captain,silent,white,130,89,41,1312.6422501001507,None,1312.6422501001507,None,5,2.362152200192213,1312.6422501001507,None,1315.0578836002387,None,1315.5826726001687,None,1315.5826726001687,None,r,0.405774500221014,1315.5826726001687,None,,,nc24,001,2021_Nov_10_1659,ProdSingRedo,3.2.3,59.93382105927242,
,,,,131,0,131,0,,,,,,,,,,,,,,,,,,,,,,,,1322.9082507002167,None,,,,,,,,,,,,,,,,,broad,aloud,white,131,48,31,1316.5512247001752,None,1316.5512247001752,None,5,5.637118800077587,1316.5512247001752,None,1322.2289550001733,None,1322.745294000022,None,1322.745294000022,None,f,0.1311773001216352,1322.745294000022,None,,,nc24,001,2021_Nov_10_1659,ProdSingRedo,3.2.3,59.93382105927242,
,,,,132,0,132,0,,,,,,,,,,,,,,,,,,,,,,,,1330.3154923999682,None,,,,,,,,,,,,,,,,,pressure,new_b,white,132,128,232,1323.435026100371,None,1323.435026100371,None,3,5.1854425999335945,1323.435026100371,None,1328.6721576000564,None,1329.1911104000174,None,1329.1911104000174,None,n,1.0929996999911964,1329.1911104000174,None,,,nc24,001,2021_Nov_10_1659,ProdSingRedo,3.2.3,59.93382105927242,
,,,,133,0,133,0,,,,,,,,,,,,,,,,,,,,,,,,1333.150772199966,None,,,,,,,,,,,,,,,,,fight,new_a,white,133,101,127,1330.827602500096,None,1330.827602500096,None,3,1.5127997999079525,1330.827602500096,None,1332.3959023002535,None,1332.914881600067,None,1332.914881600067,None,n,0.21750060003250837,1332.914881600067,None,,,nc24,001,2021_Nov_10_1659,ProdSingRedo,3.2.3,59.93382105927242,
,,,,134,0,134,0,,,,,,,,,,,,,,,,,,,,,,,,1337.010259500239,None,,,,,,,,,,,,,,,,,curve,silent,white,134,64,82,1333.6702171000652,None,1333.6702171000652,None,2,2.158244699705392,1333.6702171000652,None,1335.8706902000122,None,1336.3992088004015,None,1336.3992088004015,None,n,0.5823078001849353,1336.3992088004015,None,,,nc24,001,2021_Nov_10_1659,ProdSingRedo,3.2.3,59.93382105927242,
,,,,135,0,135,0,,,,,,,,,,,,,,,,,,,,,,,,1340.6621664999984,None,,,,,,,,,,,,,,,,,display,aloud,white,135,59,98,1337.538259900175,None,1337.538259900175,None,1,1.5063730999827385,1337.538259900175,None,1339.0935690002516,None,1339.6114891003817,None,1339.6114891003817,None,n,1.0170311997644603,1339.6114891003817,None,,,nc24,001,2021_Nov_10_1659,ProdSingRedo,3.2.3,59.93382105927242,
,,,,136,0,136,0,,,,,,,,,,,,,,,,,,,,,,,,1344.098540800158,None,,,,,,,,,,,,,,,,,permit,silent,white,136,77,218,1341.181076799985,None,1341.181076799985,None,1,1.3677191999740899,1341.181076799985,None,1342.5833451002836,None,1343.0923112002201,None,1343.0923112002201,None,n,0.9762069997377694,1343.0923112002201,None,,,nc24,001,2021_Nov_10_1659,ProdSingRedo,3.2.3,59.93382105927242,
,,,,137,0,137,0,,,,,,,,,,,,,,,,,,,,,,,,1347.19550300017,None,,,,,,,,,,,,,,,,,comedy,aloud,white,137,55,58,1344.6185697000474,None,1344.6185697000474,None,1,1.6738707995973527,1344.6185697000474,None,1346.32535260031,None,1346.8434383003041,None,1346.8434383003041,None,n,0.3130232999101281,1346.8434383003041,None,,,nc24,001,2021_Nov_10_1659,ProdSingRedo,3.2.3,59.93382105927242,
,,,,138,0,138,0,,,,,,,,,,,,,,,,,,,,,,,,1349.976482400205,None,,,,,,,,,,,,,,,,,oxygen,new_a,white,138,109,209,1347.7162548000924,None,1347.7162548000924,None,2,1.2242048000916839,1347.7162548000924,None,1348.9863303001039,None,1349.4965087003075,None,1349.4965087003075,None,n,0.4523816001601517,1349.4965087003075,None,,,nc24,001,2021_Nov_10_1659,ProdSingRedo,3.2.3,59.93382105927242,
,,,,139,0,139,0,,,,,,,,,,,,,,,,,,,,,,,,1352.4527333001606,None,,,,,,,,,,,,,,,,,interview,new_b,white,139,147,165,1350.503440800123,None,1350.503440800123,None,4,1.0773302000015974,1350.503440800123,None,1351.6096453000791,None,1352.1344512002543,None,1352.1344512002543,None,f,0.2859223000705242,1352.1344512002543,None,,,nc24,001,2021_Nov_10_1659,ProdSingRedo,3.2.3,59.93382105927242,
,,,,140,0,140,0,,,,,,,,,,,,,,,,,,,,,,,,1354.9433432002552,None,,,,,,,,,,,,,,,,,figure,aloud,white,140,50,128,1352.9876291002147,None,1352.9876291002147,None,3,1.24082800000906,1352.9876291002147,None,1354.2805536002852,None,1354.795848000329,None,1354.795848000329,None,f,0.12075590016320348,1354.795848000329,None,,,nc24,001,2021_Nov_10_1659,ProdSingRedo,3.2.3,59.93382105927242,
,,,,141,0,141,0,,,,,,,,,,,,,,,,,,,,,,,,1357.7523898002692,None,,,,,,,,,,,,,,,,,notice,new_b,white,141,137,201,1355.4696603002958,None,1355.4696603002958,None,5,1.279678300023079,1355.4696603002958,None,1356.7892017001286,None,1357.3111317004077,None,1357.3111317004077,None,r,0.41297700023278594,1357.3111317004077,None,,,nc24,001,2021_Nov_10_1659,ProdSingRedo,3.2.3,59.93382105927242,
,,,,142,0,142,0,,,,,,,,,,,,,,,,,,,,,,,,1361.5924654002301,None,,,,,,,,,,,,,,,,,thick,silent,white,142,61,327,1358.2695733001456,None,1358.2695733001456,None,1,1.966833499725908,1358.2695733001456,None,1360.2794774002396,None,1360.7936551002786,None,1360.7936551002786,None,n,0.7468101000413299,1360.7936551002786,None,,,nc24,001,2021_Nov_10_1659,ProdSingRedo,3.2.3,59.93382105927242,
,,,,143,0,143,0,,,,,,,,,,,,,,,,,,,,,,,,1365.626764500048,None,,,,,,,,,,,,,,,,,union,silent,white,143,83,344,1362.1149926004,None,1362.1149926004,None,2,2.601553099695593,1362.1149926004,None,1364.754271000158,None,1365.280321400147,None,1365.280321400147,None,n,0.30810120003297925,1365.280321400147,None,,,nc24,001,2021_Nov_10_1659,ProdSingRedo,3.2.3,59.93382105927242,
,,,,144,0,144,0,,,,,,,,,,,,,,,,,,,,,,,,1375.7953367000446,None,,,,,,,,,,,,,,,,,threat,new_c,white,144,172,329,1366.15367410006,None,1366.15367410006,None,2,6.658826500177383,1366.15367410006,None,1372.8562413002364,None,1373.3808918003924,None,1373.3808918003924,None,f,2.383591199759394,1373.3808918003924,None,,,nc24,001,2021_Nov_10_1659,ProdSingRedo,3.2.3,59.93382105927242,
,,,,145,0,145,0,,,,,,,,,,,,,,,,,,,,,,,,1379.5440679001622,None,,,,,,,,,,,,,,,,,taste,new_c,white,145,164,322,1376.3223052001558,None,1376.3223052001558,None,4,2.282080300152302,1376.3223052001558,None,1378.6414260002784,None,1379.1668811002746,None,1379.1668811002746,None,r,0.341531400103122,1379.1668811002746,None,,,nc24,001,2021_Nov_10_1659,ProdSingRedo,3.2.3,59.93382105927242,
,,,,146,0,146,0,,,,,,,,,,,,,,,,,,,,,,,,1384.1440522000194,None,,,,,,,,,,,,,,,,,cover,sing,white,146,4,77,1380.0706525002606,None,1380.0706525002606,None,3,2.477762899827212,1380.0706525002606,None,1382.5948049002327,None,1383.1122539001517,None,1383.1122539001517,None,f,0.9962410000152886,1383.1122539001517,None,,,nc24,001,2021_Nov_10_1659,ProdSingRedo,3.2.3,59.93382105927242,
,,,,147,0,147,0,,,,,,,,,,,,,,,,,,,,,,,,1389.6644833004102,None,,,,,,,,,,,,,,,,,account,new_c,white,147,153,1,1384.6747929002158,None,1384.6747929002158,None,6,2.794151899870485,1384.6747929002158,None,1387.5252983001992,None,1388.023230700288,None,1388.023230700288,None,r,1.605100399814546,1388.023230700288,None,,,nc24,001,2021_Nov_10_1659,ProdSingRedo,3.2.3,59.93382105927242,
,,,,148,0,148,0,,,,,,,,,,,,,,,,,,,,,,,,1393.136965200305,None,,,,,,,,,,,,,,,,,marriage,new_c,white,148,161,179,1390.1925249001943,None,1390.1925249001943,None,1,1.931716499850154,1390.1925249001943,None,1392.1602289001457,None,1392.6703538000584,None,1392.6703538000584,None,n,0.4378705001436174,1392.6703538000584,None,,,nc24,001,2021_Nov_10_1659,ProdSingRedo,3.2.3,59.93382105927242,
,,,,149,0,149,0,,,,,,,,,,,,,,,,,,,,,,,,1397.2832487002015,None,,,,,,,,,,,,,,,,,beginning,aloud,white,149,35,19,1393.667551100254,None,1393.667551100254,None,2,1.3532832995988429,1393.667551100254,None,1395.0626485003158,None,1395.5894010001794,None,1395.5894010001794,None,n,1.6553362999111414,1395.5894010001794,None,,,nc24,001,2021_Nov_10_1659,ProdSingRedo,3.2.3,59.93382105927242,
,,,,150,0,150,0,,,,,,,,,,,,,,,,,,,,,,,,1400.2644657003693,None,,,,,,,,,,,,,,,,,space,new_a,white,150,115,297,1397.8057887000032,None,1397.8057887000032,None,4,1.2546640001237392,1397.8057887000032,None,1399.107714700047,None,1399.6390065001324,None,1399.6390065001324,None,n,0.5978673999197781,1399.6390065001324,None,,,nc24,001,2021_Nov_10_1659,ProdSingRedo,3.2.3,59.93382105927242,
,,,,151,0,151,0,,,,,,,,,,,,,,,,,,,,,,,,1404.896904299967,None,,,,,,,,,,,,,,,,,broke,sing,white,151,28,32,1400.7931906003505,None,1400.7931906003505,None,3,3.0352385002188385,1400.7931906003505,None,1403.8773372001015,None,1404.4097235002555,None,1404.4097235002555,None,n,0.45919690001755953,1404.4097235002555,None,,,nc24,001,2021_Nov_10_1659,ProdSingRedo,3.2.3,59.93382105927242,
,,,,152,0,152,0,,,,,,,,,,,,,,,,,,,,,,,,1408.6585654001683,None,,,,,,,,,,,,,,,,,listen,new_c,white,152,171,172,1405.421030400321,None,1405.421030400321,None,3,2.111590899992734,1405.421030400321,None,1407.574417500291,None,1408.0992024000734,None,1408.0992024000734,None,n,0.5292989001609385,1408.0992024000734,None,,,nc24,001,2021_Nov_10_1659,ProdSingRedo,3.2.3,59.93382105927242,
,,,,153,0,153,0,,,,,,,,,,,,,,,,,,,,,,,,1412.3629637002014,None,,,,,,,,,,,,,,,,,running,new_b,white,153,143,268,1409.186889700126,None,1409.186889700126,None,3,2.2896640999242663,1409.186889700126,None,1411.5305592003278,None,1412.0527755003422,None,1412.0527755003422,None,n,0.28765439987182617,1412.0527755003422,None,,,nc24,001,2021_Nov_10_1659,ProdSingRedo,3.2.3,59.93382105927242,
,,,,154,0,154,0,,,,,,,,,,,,,,,,,,,,,,,,1414.931133300066,None,,,,,,,,,,,,,,,,,smell,new_a,white,154,108,291,1412.8884383002296,None,1412.8884383002296,None,5,1.3484422001056373,1412.8884383002296,None,1414.2755472999997,None,1414.7961829002015,None,1414.7961829002015,None,f,0.09633200010284781,1414.7961829002015,None,,,nc24,001,2021_Nov_10_1659,ProdSingRedo,3.2.3,59.93382105927242,
,,,,155,0,155,0,,,,,,,,,,,,,,,,,,,,,,,,1419.0732373003848,None,,,,,,,,,,,,,,,,,voice,new_c,white,155,168,348,1415.454830700066,None,1415.454830700066,None,4,3.013729200232774,1415.454830700066,None,1418.4904551003128,None,1419.0090797003359,None,1419.0090797003359,None,f,0.04334670025855303,1419.0090797003359,None,,,nc24,001,2021_Nov_10_1659,ProdSingRedo,3.2.3,59.93382105927242,
,,,,156,0,156,0,,,,,,,,,,,,,,,,,,,,,,,,1422.3140362002887,None,,,,,,,,,,,,,,,,,bucket,aloud,white,156,46,33,1419.5932188001461,None,1419.5932188001461,None,5,1.2513143001124263,1419.5932188001461,None,1420.8937377003022,None,1421.4204455004074,None,1421.4204455004074,None,f,0.8560956995934248,1421.4204455004074,None,,,nc24,001,2021_Nov_10_1659,ProdSingRedo,3.2.3,59.93382105927242,
,,,,157,0,157,0,,,,,,,,,,,,,,,,,,,,,,,,1427.8278821003623,None,,,,,,,,,,,,,,,,,junior,new_c,white,157,157,167,1422.8488994999789,None,1422.8488994999789,None,2,2.611673899926245,1422.8488994999789,None,1425.5083437003195,None,1426.0375911002047,None,1426.0375911002047,None,n,1.7512111999094486,1426.0375911002047,None,,,nc24,001,2021_Nov_10_1659,ProdSingRedo,3.2.3,59.93382105927242,
,,,,158,0,158,0,,,,,,,,,,,,,,,,,,,,,,,,1432.5313147003762,None,,,,,,,,,,,,,,,,,edition,aloud,white,158,57,107,1428.3520837002434,None,1428.3520837002434,None,6,1.5804220996797085,1428.3520837002434,None,1429.9749830001965,None,1430.4982410003431,None,1430.4982410003431,None,r,1.9943669000640512,1430.4982410003431,None,,,nc24,001,2021_Nov_10_1659,ProdSingRedo,3.2.3,59.93382105927242,
,,,,159,0,159,0,,,,,,,,,,,,,,,,,,,,,,,,1436.6166542000137,None,,,,,,,,,,,,,,,,,minor,new_b,white,159,131,191,1433.057398200035,None,1433.057398200035,None,3,2.8669940000399947,1433.057398200035,None,1435.9531803000718,None,1436.4674806003459,None,1436.4674806003459,None,f,0.11299859965220094,1436.4674806003459,None,,,nc24,001,2021_Nov_10_1659,ProdSingRedo,3.2.3,59.93382105927242,
,,,,160,0,160,0,,,,,,,,,,,,,,,,,,,,,,,,1439.0585793000646,None,,,,,,,,,,,,,,,,,substance,aloud,white,160,40,313,1437.1488394001499,None,1437.1488394001499,None,3,1.1516546998172998,1437.1488394001499,None,1438.3468150002882,None,1438.8714479003102,None,1438.8714479003102,None,f,0.15683430014178157,1438.8714479003102,None,,,nc24,001,2021_Nov_10_1659,ProdSingRedo,3.2.3,59.93382105927242,
,,,,161,0,161,0,,,,,,,,,,,,,,,,,,,,,,,,1442.2664750004187,None,,,,,,,,,,,,,,,,,month,new_c,white,161,150,193,1439.5858814003877,None,1439.5858814003877,None,1,1.8031418002210557,1439.5858814003877,None,1441.4296591002494,None,1441.9455458000302,None,1441.9455458000302,None,n,0.29092950001358986,1441.9455458000302,None,,,nc24,001,2021_Nov_10_1659,ProdSingRedo,3.2.3,59.93382105927242,
,,,,162,0,162,0,,,,,,,,,,,,,,,,,,,,,,,,1445.7164744003676,None,,,,,,,,,,,,,,,,,message,sing,white,162,6,189,1442.7887682002038,None,1442.7887682002038,None,5,1.9679028000682592,1442.7887682002038,None,1444.7948795002885,None,1445.3214910002425,None,1445.3214910002425,None,r,0.35525380028411746,1445.3214910002425,None,,,nc24,001,2021_Nov_10_1659,ProdSingRedo,3.2.3,59.93382105927242,
,,,,163,0,163,0,,,,,,,,,,,,,,,,,,,,,,,,1449.1719920001924,None,,,,,,,,,,,,,,,,,track,new_c,white,163,179,334,1446.2357889004052,None,1446.2357889004052,None,3,1.7444184999912977,1446.2357889004052,None,1448.0124524002895,None,1448.5303756003268,None,1448.5303756003268,None,n,0.6103457999415696,1448.5303756003268,None,,,nc24,001,2021_Nov_10_1659,ProdSingRedo,3.2.3,59.93382105927242,
,,,,164,0,164,0,,,,,,,,,,,,,,,,,,,,,,,,1452.2669721003622,None,,,,,,,,,,,,,,,,,industry,new_b,white,164,144,161,1449.6961902002804,None,1449.6961902002804,None,1,1.5323756001889706,1449.6961902002804,None,1451.2785320002586,None,1451.8092579999939,None,1451.8092579999939,None,n,0.41932150023058057,1451.8092579999939,None,,,nc24,001,2021_Nov_10_1659,ProdSingRedo,3.2.3,59.93382105927242,
,,,,165,0,165,0,,,,,,,,,,,,,,,,,,,,,,,,1456.791137699969,None,,,,,,,,,,,,,,,,,shear,aloud,white,165,36,283,1452.7921470003203,None,1452.7921470003203,None,4,2.1721129999496043,1452.7921470003203,None,1454.994287200272,None,1455.507545400411,None,1455.507545400411,None,f,1.2649209997616708,1455.507545400411,None,,,nc24,001,2021_Nov_10_1659,ProdSingRedo,3.2.3,59.93382105927242,
,,,,166,0,166,0,,,,,,,,,,,,,,,,,,,,,,,,1460.5171172004193,None,,,,,,,,,,,,,,,,,expansion,silent,white,166,84,123,1457.293371600099,None,1457.293371600099,None,3,1.5749705000780523,1457.293371600099,None,1458.898115500342,None,1459.4218036001548,None,1459.4218036001548,None,f,1.0627907998859882,1459.4218036001548,None,,,nc24,001,2021_Nov_10_1659,ProdSingRedo,3.2.3,59.93382105927242,
,,,,167,0,167,0,,,,,,,,,,,,,,,,,,,,,,,,1464.2510677999817,None,,,,,,,,,,,,,,,,,breath,new_a,white,167,112,27,1461.048144200351,None,1461.048144200351,None,1,2.260438600089401,1461.048144200351,None,1463.3502342002466,None,1463.8703298000619,None,1463.8703298000619,None,n,0.35021759988740087,1463.8703298000619,None,,,nc24,001,2021_Nov_10_1659,ProdSingRedo,3.2.3,59.93382105927242,
,,,,168,0,168,0,,,,,,,,,,,,,,,,,,,,,,,,1467.7269235001877,None,,,,,,,,,,,,,,,,,gesture,new_c,white,168,170,137,1464.777050900273,None,1464.777050900273,None,4,2.115574499592185,1464.777050900273,None,1466.933549000416,None,1467.445966300089,None,1467.445966300089,None,f,0.2545440997928381,1467.445966300089,None,,,nc24,001,2021_Nov_10_1659,ProdSingRedo,3.2.3,59.93382105927242,
,,,,169,0,169,0,,,,,,,,,,,,,,,,,,,,,,,,1471.895041699987,None,,,,,,,,,,,,,,,,,population,new_a,white,169,97,227,1468.2509808000177,None,1468.2509808000177,None,4,2.6256601996719837,1468.2509808000177,None,1470.9211009000428,None,1471.439830600284,None,1471.439830600284,None,f,0.43659070041030645,1471.439830600284,None,,,nc24,001,2021_Nov_10_1659,ProdSingRedo,3.2.3,59.93382105927242,
,,,,170,0,170,0,,,,,,,,,,,,,,,,,,,,,,,,1476.076291100122,None,,,,,,,,,,,,,,,,,block,new_b,white,170,133,25,1472.4290188001469,None,1472.4290188001469,None,4,2.44761969987303,1472.4290188001469,None,1474.9156280001625,None,1475.4414444002323,None,1475.4414444002323,None,n,0.6107243997976184,1475.4414444002323,None,,,nc24,001,2021_Nov_10_1659,ProdSingRedo,3.2.3,59.93382105927242,
,,,,171,0,171,0,,,,,,,,,,,,,,,,,,,,,,,,1482.6842804001644,None,,,,,,,,,,,,,,,,,split,new_a,white,171,94,299,1476.584990200121,None,1476.584990200121,None,3,5.067539100069553,1476.584990200121,None,1481.7003725999966,None,1482.2160449000075,None,1482.2160449000075,None,f,0.4365079002454877,1482.2160449000075,None,,,nc24,001,2021_Nov_10_1659,ProdSingRedo,3.2.3,59.93382105927242,
,,,,172,0,172,0,,,,,,,,,,,,,,,,,,,,,,,,1487.73620400019,None,,,,,,,,,,,,,,,,,youth,aloud,white,172,52,359,1483.2092237002216,None,1483.2092237002216,None,6,1.7322309999726713,1483.2092237002216,None,1484.9893176001497,None,1485.5034349001944,None,1485.5034349001944,None,r,2.205340299755335,1485.5034349001944,None,,,nc24,001,2021_Nov_10_1659,ProdSingRedo,3.2.3,59.93382105927242,
,,,,173,0,173,0,,,,,,,,,,,,,,,,,,,,,,,,1494.0559805002995,None,,,,,,,,,,,,,,,,,present,silent,white,173,71,231,1488.260732800234,None,1488.260732800234,None,3,2.4398288000375032,1488.260732800234,None,1490.7493521003053,None,1491.2693972000852,None,1491.2693972000852,None,n,2.7432240997441113,1491.2693972000852,None,,,nc24,001,2021_Nov_10_1659,ProdSingRedo,3.2.3,59.93382105927242,
,,,,174,0,174,0,,,,,,,,,,,,,,,,,,,,,,,,1502.4196111001074,None,,,,,,,,,,,,,,,,,personnel,new_b,white,174,135,219,1494.5805408000015,None,1494.5805408000015,None,2,6.73602780001238,1494.5805408000015,None,1501.3676415001974,None,1501.88568160031,None,1501.88568160031,None,n,0.49513329984620214,1501.88568160031,None,,,nc24,001,2021_Nov_10_1659,ProdSingRedo,3.2.3,59.93382105927242,
,,,,175,0,175,0,,,,,,,,,,,,,,,,,,,,,,,,1506.8871707003564,None,,,,,,,,,,,,,,,,,native,sing,white,175,25,199,1502.9498359002173,None,1502.9498359002173,None,6,1.4226769995875657,1502.9498359002173,None,1504.4112786003388,None,1504.9255901002325,None,1504.9255901002325,None,f,1.926897999830544,1504.9255901002325,None,,,nc24,001,2021_Nov_10_1659,ProdSingRedo,3.2.3,59.93382105927242,
,,,,176,0,176,0,,,,,,,,,,,,,,,,,,,,,,,,1515.3378863004036,None,,,,,,,,,,,,,,,,,prime,aloud,white,176,34,235,1507.4088012999855,None,1507.4088012999855,None,5,3.347641299944371,1507.4088012999855,None,1510.7946260003373,None,1511.297343400307,None,1511.297343400307,None,r,4.003262999933213,1511.297343400307,None,,,nc24,001,2021_Nov_10_1659,ProdSingRedo,3.2.3,59.93382105927242,
,,,,177,0,177,0,,,,,,,,,,,,,,,,,,,,,,,,1518.1122409002855,None,,,,,,,,,,,,,,,,,report,new_b,white,177,142,259,1515.8620568001643,None,1515.8620568001643,None,4,1.5185051998123527,1515.8620568001643,None,1517.4153292002156,None,1517.9284526002593,None,1517.9284526002593,None,f,0.15577779989689589,1517.9284526002593,None,,,nc24,001,2021_Nov_10_1659,ProdSingRedo,3.2.3,59.93382105927242,
,,,,178,0,178,0,,,,,,,,,,,,,,,,,,,,,,,,1520.6658536000177,None,,,,,,,,,,,,,,,,,rapid,aloud,white,178,53,252,1518.6129138004035,None,1518.6129138004035,None,3,1.1916423998773098,1518.6129138004035,None,1519.8521273001097,None,1520.3619125001132,None,1520.3619125001132,None,f,0.2586896000429988,1520.3619125001132,None,,,nc24,001,2021_Nov_10_1659,ProdSingRedo,3.2.3,59.93382105927242,
,,,,179,0,179,0,,,,,,,,,,,,,,,,,,,,,,,,1524.9454096001573,None,,,,,,,,,,,,,,,,,colonel,silent,white,179,79,55,1521.1827702000737,None,1521.1827702000737,None,6,1.80549669964239,1521.1827702000737,None,1523.013878900092,None,1523.5286006000824,None,1523.5286006000824,None,r,1.3876562002114952,1523.5286006000824,None,,,nc24,001,2021_Nov_10_1659,ProdSingRedo,3.2.3,59.93382105927242,
,,,,,,,,,,,,,,,,,,,,,,,,,,,,,,,,,,,,,,,,,,,,,,,,,,,,,,,,,,,,,,,,,,,,,,,,,1525.447265200317,None,,,,,,,
