StudyLoop.thisRepN,StudyLoop.thisTrialN,StudyLoop.thisN,StudyLoop.thisIndex,TestLoop.thisRepN,TestLoop.thisTrialN,TestLoop.thisN,TestLoop.thisIndex,textCondition.started,textCondition.stopped,keyCondition.keys,keyCondition.rt,keyCondition.started,keyCondition.stopped,Condition,stim_colors,color_sing,color_aloud,color_silent,textWelcome.started,textWelcome.stopped,keyWelcome.keys,keyWelcome.rt,keyWelcome.started,keyWelcome.stopped,textAloud.started,textAloud.stopped,textSilent.started,textSilent.stopped,textSing.started,textSing.stopped,textBlank500.started,textBlank500.stopped,study_word,study_type,study_color,study_num,study_word_num,textStudy.started,textStudy.stopped,keyStudy.keys,keyStudy.started,keyStudy.stopped,textTestInstructions.started,textTestInstructions.stopped,key_resp_3.keys,key_resp_3.rt,key_resp_3.started,key_resp_3.stopped,testWord,testType,testColor,testN,test_num,test_word_num,textConf.started,textConf.stopped,textConfScale.started,textConfScale.stopped,keyConf.keys,keyConf.rt,keyConf.started,keyConf.stopped,textTestBlank.started,textTestBlank.stopped,textRKN.started,textRKN.stopped,textRKNScale.started,textRKNScale.stopped,keyRKN.keys,keyRKN.rt,keyRKN.started,keyRKN.stopped,textEnd.started,textEnd.stopped,participant,session,date,expName,psychopyVersion,frameRate,
,,,,,,,,23.810883100144565,None,n,5.948958799242973,23.810883100144565,None,,,,,,,,,,,,,,,,,,,,,,,,,,,,,,,,,,,,,,,,,,,,,,,,,,,,,,,,,,,,,,NC29,001,2022_Feb_17_1650,ProdSingRedo,3.2.3,59.894370348741404,
,,,,,,,,,,,,,,NeutralTest,"['blue', 'red', 'yellow']",blue,red,yellow,29.7995990999043,None,space,285.58386209979653,29.7995990999043,None,,,,,,,,,,,,,,,,,,,,,,,,,,,,,,,,,,,,,,,,,,,,,,,,,,,NC29,001,2022_Feb_17_1650,ProdSingRedo,3.2.3,59.894370348741404,
0,0,0,0,,,,,,,,,,,,,,,,,,,,,,29.7995990999043,None,29.7995990999043,None,29.7995990999043,None,317.93043479975313,None,solution,aloud,red,53,294,315.92800249997526,None,None,315.92800249997526,None,,,,,,,,,,,,,,,,,,,,,,,,,,,,,,,,,NC29,001,2022_Feb_17_1650,ProdSingRedo,3.2.3,59.894370348741404,
1,0,1,0,,,,,,,,,,,,,,,,,,,,,,,,,,,,320.4496002001688,None,emergency,sing,blue,13,110,318.45229199994355,None,None,318.45229199994355,None,,,,,,,,,,,,,,,,,,,,,,,,,,,,,,,,,NC29,001,2022_Feb_17_1650,ProdSingRedo,3.2.3,59.894370348741404,
2,0,2,0,,,,,,,,,,,,,,,,,,,,,,,,,,,,322.968462199904,None,partner,aloud,red,42,211,320.9607887994498,None,None,320.9607887994498,None,,,,,,,,,,,,,,,,,,,,,,,,,,,,,,,,,NC29,001,2022_Feb_17_1650,ProdSingRedo,3.2.3,59.894370348741404,
3,0,3,0,,,,,,,,,,,,,,,,,,,,,,,,,,,,325.4712600996718,None,conference,aloud,red,41,66,323.46924200002104,None,None,323.46924200002104,None,,,,,,,,,,,,,,,,,,,,,,,,,,,,,,,,,NC29,001,2022_Feb_17_1650,ProdSingRedo,3.2.3,59.894370348741404,
4,0,4,0,,,,,,,,,,,,,,,,,,,,,,,,,,,,327.99051500018686,None,crisis,silent,yellow,69,79,325.9798791995272,None,None,325.9798791995272,None,,,,,,,,,,,,,,,,,,,,,,,,,,,,,,,,,NC29,001,2022_Feb_17_1650,ProdSingRedo,3.2.3,59.894370348741404,
5,0,5,0,,,,,,,,,,,,,,,,,,,,,,,,,,,,330.5096076996997,None,expansion,sing,blue,15,123,328.50224329996854,None,None,328.50224329996854,None,,,,,,,,,,,,,,,,,,,,,,,,,,,,,,,,,NC29,001,2022_Feb_17_1650,ProdSingRedo,3.2.3,59.894370348741404,
6,0,6,0,,,,,,,,,,,,,,,,,,,,,,,,,,,,333.0287339994684,None,present,silent,yellow,80,231,331.0178510993719,None,None,331.0178510993719,None,,,,,,,,,,,,,,,,,,,,,,,,,,,,,,,,,NC29,001,2022_Feb_17_1650,ProdSingRedo,3.2.3,59.894370348741404,
7,0,7,0,,,,,,,,,,,,,,,,,,,,,,,,,,,,335.5312737999484,None,goose,aloud,red,58,138,333.5289568994194,None,None,333.5289568994194,None,,,,,,,,,,,,,,,,,,,,,,,,,,,,,,,,,NC29,001,2022_Feb_17_1650,ProdSingRedo,3.2.3,59.894370348741404,
8,0,8,0,,,,,,,,,,,,,,,,,,,,,,,,,,,,338.05045899935067,None,benefit,sing,blue,19,20,336.0571037000045,None,None,336.0571037000045,None,,,,,,,,,,,,,,,,,,,,,,,,,,,,,,,,,NC29,001,2022_Feb_17_1650,ProdSingRedo,3.2.3,59.894370348741404,
9,0,9,0,,,,,,,,,,,,,,,,,,,,,,,,,,,,340.56965759955347,None,native,aloud,red,32,199,338.57348569948226,None,None,338.57348569948226,None,,,,,,,,,,,,,,,,,,,,,,,,,,,,,,,,,NC29,001,2022_Feb_17_1650,ProdSingRedo,3.2.3,59.894370348741404,
10,0,10,0,,,,,,,,,,,,,,,,,,,,,,,,,,,,343.0888237999752,None,industry,sing,blue,10,161,341.0826300997287,None,None,341.0826300997287,None,,,,,,,,,,,,,,,,,,,,,,,,,,,,,,,,,NC29,001,2022_Feb_17_1650,ProdSingRedo,3.2.3,59.894370348741404,
11,0,11,0,,,,,,,,,,,,,,,,,,,,,,,,,,,,345.60801349952817,None,instrument,sing,blue,29,163,343.6035591000691,None,None,343.6035591000691,None,,,,,,,,,,,,,,,,,,,,,,,,,,,,,,,,,NC29,001,2022_Feb_17_1650,ProdSingRedo,3.2.3,59.894370348741404,
12,0,12,0,,,,,,,,,,,,,,,,,,,,,,,,,,,,348.1271803993732,None,brilliant,aloud,red,55,30,346.12485979963094,None,None,346.12485979963094,None,,,,,,,,,,,,,,,,,,,,,,,,,,,,,,,,,NC29,001,2022_Feb_17_1650,ProdSingRedo,3.2.3,59.894370348741404,
13,0,13,0,,,,,,,,,,,,,,,,,,,,,,,,,,,,350.6464048996568,None,estate,sing,blue,16,119,348.63986479956657,None,None,348.63986479956657,None,,,,,,,,,,,,,,,,,,,,,,,,,,,,,,,,,NC29,001,2022_Feb_17_1650,ProdSingRedo,3.2.3,59.894370348741404,
14,0,14,0,,,,,,,,,,,,,,,,,,,,,,,,,,,,353.1651956997812,None,colonel,aloud,red,50,55,351.15464350022376,None,None,351.15464350022376,None,,,,,,,,,,,,,,,,,,,,,,,,,,,,,,,,,NC29,001,2022_Feb_17_1650,ProdSingRedo,3.2.3,59.894370348741404,
15,0,15,0,,,,,,,,,,,,,,,,,,,,,,,,,,,,355.6681212997064,None,evidence,sing,blue,20,120,353.6659792996943,None,None,353.6659792996943,None,,,,,,,,,,,,,,,,,,,,,,,,,,,,,,,,,NC29,001,2022_Feb_17_1650,ProdSingRedo,3.2.3,59.894370348741404,
16,0,16,0,,,,,,,,,,,,,,,,,,,,,,,,,,,,358.1871954994276,None,sunset,sing,blue,12,315,356.18178999982774,None,None,356.18178999982774,None,,,,,,,,,,,,,,,,,,,,,,,,,,,,,,,,,NC29,001,2022_Feb_17_1650,ProdSingRedo,3.2.3,59.894370348741404,
17,0,17,0,,,,,,,,,,,,,,,,,,,,,,,,,,,,360.706371399574,None,sound,aloud,red,35,295,358.69721020013094,None,None,358.69721020013094,None,,,,,,,,,,,,,,,,,,,,,,,,,,,,,,,,,NC29,001,2022_Feb_17_1650,ProdSingRedo,3.2.3,59.894370348741404,
18,0,18,0,,,,,,,,,,,,,,,,,,,,,,,,,,,,363.2255809996277,None,fight,silent,yellow,67,127,361.21803029999137,None,None,361.21803029999137,None,,,,,,,,,,,,,,,,,,,,,,,,,,,,,,,,,NC29,001,2022_Feb_17_1650,ProdSingRedo,3.2.3,59.894370348741404,
19,0,19,0,,,,,,,,,,,,,,,,,,,,,,,,,,,,365.74474009964615,None,brief,sing,blue,4,28,363.73727029934525,None,None,363.73727029934525,None,,,,,,,,,,,,,,,,,,,,,,,,,,,,,,,,,NC29,001,2022_Feb_17_1650,ProdSingRedo,3.2.3,59.894370348741404,
20,0,20,0,,,,,,,,,,,,,,,,,,,,,,,,,,,,368.2639672001824,None,theme,silent,yellow,63,326,366.2526797996834,None,None,366.2526797996834,None,,,,,,,,,,,,,,,,,,,,,,,,,,,,,,,,,NC29,001,2022_Feb_17_1650,ProdSingRedo,3.2.3,59.894370348741404,
21,0,21,0,,,,,,,,,,,,,,,,,,,,,,,,,,,,370.78313819970936,None,universal,sing,blue,2,345,368.785294899717,None,None,368.785294899717,None,,,,,,,,,,,,,,,,,,,,,,,,,,,,,,,,,NC29,001,2022_Feb_17_1650,ProdSingRedo,3.2.3,59.894370348741404,
22,0,22,0,,,,,,,,,,,,,,,,,,,,,,,,,,,,373.30229259934276,None,pretty,sing,blue,1,233,371.2938847001642,None,None,371.2938847001642,None,,,,,,,,,,,,,,,,,,,,,,,,,,,,,,,,,NC29,001,2022_Feb_17_1650,ProdSingRedo,3.2.3,59.894370348741404,
23,0,23,0,,,,,,,,,,,,,,,,,,,,,,,,,,,,375.821438299492,None,private,silent,yellow,84,237,373.81541579961777,None,None,373.81541579961777,None,,,,,,,,,,,,,,,,,,,,,,,,,,,,,,,,,NC29,001,2022_Feb_17_1650,ProdSingRedo,3.2.3,59.894370348741404,
24,0,24,0,,,,,,,,,,,,,,,,,,,,,,,,,,,,378.3406783994287,None,little,silent,yellow,88,174,376.32756059989333,None,None,376.32756059989333,None,,,,,,,,,,,,,,,,,,,,,,,,,,,,,,,,,NC29,001,2022_Feb_17_1650,ProdSingRedo,3.2.3,59.894370348741404,
25,0,25,0,,,,,,,,,,,,,,,,,,,,,,,,,,,,380.8598972996697,None,pressure,aloud,red,48,232,378.8535624993965,None,None,378.8535624993965,None,,,,,,,,,,,,,,,,,,,,,,,,,,,,,,,,,NC29,001,2022_Feb_17_1650,ProdSingRedo,3.2.3,59.894370348741404,
26,0,26,0,,,,,,,,,,,,,,,,,,,,,,,,,,,,383.3789146002382,None,stranger,aloud,red,56,309,381.37674270011485,None,None,381.37674270011485,None,,,,,,,,,,,,,,,,,,,,,,,,,,,,,,,,,NC29,001,2022_Feb_17_1650,ProdSingRedo,3.2.3,59.894370348741404,
27,0,27,0,,,,,,,,,,,,,,,,,,,,,,,,,,,,385.89822169952095,None,answer,silent,yellow,61,8,383.88997509982437,None,None,383.88997509982437,None,,,,,,,,,,,,,,,,,,,,,,,,,,,,,,,,,NC29,001,2022_Feb_17_1650,ProdSingRedo,3.2.3,59.894370348741404,
28,0,28,0,,,,,,,,,,,,,,,,,,,,,,,,,,,,388.4174125995487,None,management,aloud,red,39,177,386.4146959995851,None,None,386.4146959995851,None,,,,,,,,,,,,,,,,,,,,,,,,,,,,,,,,,NC29,001,2022_Feb_17_1650,ProdSingRedo,3.2.3,59.894370348741404,
29,0,29,0,,,,,,,,,,,,,,,,,,,,,,,,,,,,390.93652119953185,None,degree,silent,yellow,85,89,388.92922309972346,None,None,388.92922309972346,None,,,,,,,,,,,,,,,,,,,,,,,,,,,,,,,,,NC29,001,2022_Feb_17_1650,ProdSingRedo,3.2.3,59.894370348741404,
30,0,30,0,,,,,,,,,,,,,,,,,,,,,,,,,,,,393.4556920994073,None,design,aloud,red,45,91,391.44738959986717,None,None,391.44738959986717,None,,,,,,,,,,,,,,,,,,,,,,,,,,,,,,,,,NC29,001,2022_Feb_17_1650,ProdSingRedo,3.2.3,59.894370348741404,
31,0,31,0,,,,,,,,,,,,,,,,,,,,,,,,,,,,395.97487629950047,None,match,silent,yellow,73,181,393.9716015001759,None,None,393.9716015001759,None,,,,,,,,,,,,,,,,,,,,,,,,,,,,,,,,,NC29,001,2022_Feb_17_1650,ProdSingRedo,3.2.3,59.894370348741404,
32,0,32,0,,,,,,,,,,,,,,,,,,,,,,,,,,,,398.49414419941604,None,watch,aloud,red,33,351,396.48373460024595,None,None,396.48373460024595,None,,,,,,,,,,,,,,,,,,,,,,,,,,,,,,,,,NC29,001,2022_Feb_17_1650,ProdSingRedo,3.2.3,59.894370348741404,
33,0,33,0,,,,,,,,,,,,,,,,,,,,,,,,,,,,401.0133763002232,None,platform,aloud,red,30,224,399.0106164999306,None,None,399.0106164999306,None,,,,,,,,,,,,,,,,,,,,,,,,,,,,,,,,,NC29,001,2022_Feb_17_1650,ProdSingRedo,3.2.3,59.894370348741404,
34,0,34,0,,,,,,,,,,,,,,,,,,,,,,,,,,,,403.53242530021816,None,junior,aloud,red,47,167,401.534889199771,None,None,401.534889199771,None,,,,,,,,,,,,,,,,,,,,,,,,,,,,,,,,,NC29,001,2022_Feb_17_1650,ProdSingRedo,3.2.3,59.894370348741404,
35,0,35,0,,,,,,,,,,,,,,,,,,,,,,,,,,,,406.05159469973296,None,block,silent,yellow,65,25,404.0472944993526,None,None,404.0472944993526,None,,,,,,,,,,,,,,,,,,,,,,,,,,,,,,,,,NC29,001,2022_Feb_17_1650,ProdSingRedo,3.2.3,59.894370348741404,
36,0,36,0,,,,,,,,,,,,,,,,,,,,,,,,,,,,408.5738050993532,None,session,sing,blue,21,281,406.5608100993559,None,None,406.5608100993559,None,,,,,,,,,,,,,,,,,,,,,,,,,,,,,,,,,NC29,001,2022_Feb_17_1650,ProdSingRedo,3.2.3,59.894370348741404,
37,0,37,0,,,,,,,,,,,,,,,,,,,,,,,,,,,,411.0899457996711,None,engineer,silent,yellow,66,114,409.0867131995037,None,None,409.0867131995037,None,,,,,,,,,,,,,,,,,,,,,,,,,,,,,,,,,NC29,001,2022_Feb_17_1650,ProdSingRedo,3.2.3,59.894370348741404,
38,0,38,0,,,,,,,,,,,,,,,,,,,,,,,,,,,,413.6091812001541,None,patient,sing,blue,28,213,411.60225269943476,None,None,411.60225269943476,None,,,,,,,,,,,,,,,,,,,,,,,,,,,,,,,,,NC29,001,2022_Feb_17_1650,ProdSingRedo,3.2.3,59.894370348741404,
39,0,39,0,,,,,,,,,,,,,,,,,,,,,,,,,,,,416.12836279999465,None,problem,aloud,red,59,238,414.1210043998435,None,None,414.1210043998435,None,,,,,,,,,,,,,,,,,,,,,,,,,,,,,,,,,NC29,001,2022_Feb_17_1650,ProdSingRedo,3.2.3,59.894370348741404,
40,0,40,0,,,,,,,,,,,,,,,,,,,,,,,,,,,,418.6478768000379,None,broke,silent,yellow,71,32,416.6422876995057,None,None,416.6422876995057,None,,,,,,,,,,,,,,,,,,,,,,,,,,,,,,,,,NC29,001,2022_Feb_17_1650,ProdSingRedo,3.2.3,59.894370348741404,
41,0,41,0,,,,,,,,,,,,,,,,,,,,,,,,,,,,421.1665893001482,None,blind,sing,blue,26,24,419.1592197995633,None,None,419.1592197995633,None,,,,,,,,,,,,,,,,,,,,,,,,,,,,,,,,,NC29,001,2022_Feb_17_1650,ProdSingRedo,3.2.3,59.894370348741404,
42,0,42,0,,,,,,,,,,,,,,,,,,,,,,,,,,,,423.6858703000471,None,under,silent,yellow,62,343,421.67646269965917,None,None,421.67646269965917,None,,,,,,,,,,,,,,,,,,,,,,,,,,,,,,,,,NC29,001,2022_Feb_17_1650,ProdSingRedo,3.2.3,59.894370348741404,
43,0,43,0,,,,,,,,,,,,,,,,,,,,,,,,,,,,426.2050171997398,None,smooth,silent,yellow,60,292,424.19232279993594,None,None,424.19232279993594,None,,,,,,,,,,,,,,,,,,,,,,,,,,,,,,,,,NC29,001,2022_Feb_17_1650,ProdSingRedo,3.2.3,59.894370348741404,
44,0,44,0,,,,,,,,,,,,,,,,,,,,,,,,,,,,428.7243039999157,None,company,sing,blue,11,64,426.7179649993777,None,None,426.7179649993777,None,,,,,,,,,,,,,,,,,,,,,,,,,,,,,,,,,NC29,001,2022_Feb_17_1650,ProdSingRedo,3.2.3,59.894370348741404,
45,0,45,0,,,,,,,,,,,,,,,,,,,,,,,,,,,,431.2434767000377,None,strength,silent,yellow,79,310,429.2369774999097,None,None,429.2369774999097,None,,,,,,,,,,,,,,,,,,,,,,,,,,,,,,,,,NC29,001,2022_Feb_17_1650,ProdSingRedo,3.2.3,59.894370348741404,
46,0,46,0,,,,,,,,,,,,,,,,,,,,,,,,,,,,433.76254840008914,None,empty,silent,yellow,68,112,431.75367879960686,None,None,431.75367879960686,None,,,,,,,,,,,,,,,,,,,,,,,,,,,,,,,,,NC29,001,2022_Feb_17_1650,ProdSingRedo,3.2.3,59.894370348741404,
47,0,47,0,,,,,,,,,,,,,,,,,,,,,,,,,,,,436.28172369953245,None,profession,silent,yellow,74,241,434.2754988996312,None,None,434.2754988996312,None,,,,,,,,,,,,,,,,,,,,,,,,,,,,,,,,,NC29,001,2022_Feb_17_1650,ProdSingRedo,3.2.3,59.894370348741404,
48,0,48,0,,,,,,,,,,,,,,,,,,,,,,,,,,,,438.8009195001796,None,article,sing,blue,8,11,436.79189960006624,None,None,436.79189960006624,None,,,,,,,,,,,,,,,,,,,,,,,,,,,,,,,,,NC29,001,2022_Feb_17_1650,ProdSingRedo,3.2.3,59.894370348741404,
49,0,49,0,,,,,,,,,,,,,,,,,,,,,,,,,,,,441.3202227996662,None,drama,aloud,red,46,103,439.31294229999185,None,None,439.31294229999185,None,,,,,,,,,,,,,,,,,,,,,,,,,,,,,,,,,NC29,001,2022_Feb_17_1650,ProdSingRedo,3.2.3,59.894370348741404,
50,0,50,0,,,,,,,,,,,,,,,,,,,,,,,,,,,,443.8392500001937,None,medicine,aloud,red,40,186,441.82815369963646,None,None,441.82815369963646,None,,,,,,,,,,,,,,,,,,,,,,,,,,,,,,,,,NC29,001,2022_Feb_17_1650,ProdSingRedo,3.2.3,59.894370348741404,
51,0,51,0,,,,,,,,,,,,,,,,,,,,,,,,,,,,446.3585292994976,None,material,sing,blue,7,182,444.3515491001308,None,None,444.3515491001308,None,,,,,,,,,,,,,,,,,,,,,,,,,,,,,,,,,NC29,001,2022_Feb_17_1650,ProdSingRedo,3.2.3,59.894370348741404,
52,0,52,0,,,,,,,,,,,,,,,,,,,,,,,,,,,,448.8776976997033,None,staff,sing,blue,18,301,446.8674532994628,None,None,446.8674532994628,None,,,,,,,,,,,,,,,,,,,,,,,,,,,,,,,,,NC29,001,2022_Feb_17_1650,ProdSingRedo,3.2.3,59.894370348741404,
53,0,53,0,,,,,,,,,,,,,,,,,,,,,,,,,,,,451.39692750014365,None,people,silent,yellow,87,216,449.3848931994289,None,None,449.3848931994289,None,,,,,,,,,,,,,,,,,,,,,,,,,,,,,,,,,NC29,001,2022_Feb_17_1650,ProdSingRedo,3.2.3,59.894370348741404,
54,0,54,0,,,,,,,,,,,,,,,,,,,,,,,,,,,,453.91597069986165,None,agency,aloud,red,38,4,451.90983000025153,None,None,451.90983000025153,None,,,,,,,,,,,,,,,,,,,,,,,,,,,,,,,,,NC29,001,2022_Feb_17_1650,ProdSingRedo,3.2.3,59.894370348741404,
55,0,55,0,,,,,,,,,,,,,,,,,,,,,,,,,,,,456.43500339984894,None,population,sing,blue,24,227,454.4290757002309,None,None,454.4290757002309,None,,,,,,,,,,,,,,,,,,,,,,,,,,,,,,,,,NC29,001,2022_Feb_17_1650,ProdSingRedo,3.2.3,59.894370348741404,
56,0,56,0,,,,,,,,,,,,,,,,,,,,,,,,,,,,458.93771080020815,None,right,silent,yellow,70,265,456.93531479965895,None,None,456.93531479965895,None,,,,,,,,,,,,,,,,,,,,,,,,,,,,,,,,,NC29,001,2022_Feb_17_1650,ProdSingRedo,3.2.3,59.894370348741404,
57,0,57,0,,,,,,,,,,,,,,,,,,,,,,,,,,,,461.4568282002583,None,research,sing,blue,22,261,459.45315109938383,None,None,459.45315109938383,None,,,,,,,,,,,,,,,,,,,,,,,,,,,,,,,,,NC29,001,2022_Feb_17_1650,ProdSingRedo,3.2.3,59.894370348741404,
58,0,58,0,,,,,,,,,,,,,,,,,,,,,,,,,,,,463.9798905001953,None,budget,silent,yellow,78,34,461.9725116994232,None,None,461.9725116994232,None,,,,,,,,,,,,,,,,,,,,,,,,,,,,,,,,,NC29,001,2022_Feb_17_1650,ProdSingRedo,3.2.3,59.894370348741404,
59,0,59,0,,,,,,,,,,,,,,,,,,,,,,,,,,,,466.49519609939307,None,public,silent,yellow,72,244,464.4904395993799,None,None,464.4904395993799,None,,,,,,,,,,,,,,,,,,,,,,,,,,,,,,,,,NC29,001,2022_Feb_17_1650,ProdSingRedo,3.2.3,59.894370348741404,
60,0,60,0,,,,,,,,,,,,,,,,,,,,,,,,,,,,469.0142610995099,None,candidate,sing,blue,5,39,467.01105619966984,None,None,467.01105619966984,None,,,,,,,,,,,,,,,,,,,,,,,,,,,,,,,,,NC29,001,2022_Feb_17_1650,ProdSingRedo,3.2.3,59.894370348741404,
61,0,61,0,,,,,,,,,,,,,,,,,,,,,,,,,,,,471.53349830023944,None,cross,silent,yellow,89,80,469.5202569998801,None,None,469.5202569998801,None,,,,,,,,,,,,,,,,,,,,,,,,,,,,,,,,,NC29,001,2022_Feb_17_1650,ProdSingRedo,3.2.3,59.894370348741404,
62,0,62,0,,,,,,,,,,,,,,,,,,,,,,,,,,,,474.0528368996456,None,ground,aloud,red,54,142,472.0428337994963,None,None,472.0428337994963,None,,,,,,,,,,,,,,,,,,,,,,,,,,,,,,,,,NC29,001,2022_Feb_17_1650,ProdSingRedo,3.2.3,59.894370348741404,
63,0,63,0,,,,,,,,,,,,,,,,,,,,,,,,,,,,476.5723396996036,None,household,silent,yellow,77,154,474.5718069002032,None,None,474.5718069002032,None,,,,,,,,,,,,,,,,,,,,,,,,,,,,,,,,,NC29,001,2022_Feb_17_1650,ProdSingRedo,3.2.3,59.894370348741404,
64,0,64,0,,,,,,,,,,,,,,,,,,,,,,,,,,,,479.0911269001663,None,committee,aloud,red,57,62,477.0821281000972,None,None,477.0821281000972,None,,,,,,,,,,,,,,,,,,,,,,,,,,,,,,,,,NC29,001,2022_Feb_17_1650,ProdSingRedo,3.2.3,59.894370348741404,
65,0,65,0,,,,,,,,,,,,,,,,,,,,,,,,,,,,481.6102538993582,None,trend,aloud,red,52,340,479.59830870013684,None,None,479.59830870013684,None,,,,,,,,,,,,,,,,,,,,,,,,,,,,,,,,,NC29,001,2022_Feb_17_1650,ProdSingRedo,3.2.3,59.894370348741404,
66,0,66,0,,,,,,,,,,,,,,,,,,,,,,,,,,,,484.1294027995318,None,beginning,sing,blue,17,19,482.12687809951603,None,None,482.12687809951603,None,,,,,,,,,,,,,,,,,,,,,,,,,,,,,,,,,NC29,001,2022_Feb_17_1650,ProdSingRedo,3.2.3,59.894370348741404,
67,0,67,0,,,,,,,,,,,,,,,,,,,,,,,,,,,,486.6486112996936,None,raise,aloud,red,37,250,484.6404699999839,None,None,484.6404699999839,None,,,,,,,,,,,,,,,,,,,,,,,,,,,,,,,,,NC29,001,2022_Feb_17_1650,ProdSingRedo,3.2.3,59.894370348741404,
68,0,68,0,,,,,,,,,,,,,,,,,,,,,,,,,,,,489.1677158996463,None,dozen,aloud,red,51,102,487.1685558995232,None,None,487.1685558995232,None,,,,,,,,,,,,,,,,,,,,,,,,,,,,,,,,,NC29,001,2022_Feb_17_1650,ProdSingRedo,3.2.3,59.894370348741404,
69,0,69,0,,,,,,,,,,,,,,,,,,,,,,,,,,,,491.6870285002515,None,surprise,silent,yellow,76,317,489.68089579977095,None,None,489.68089579977095,None,,,,,,,,,,,,,,,,,,,,,,,,,,,,,,,,,NC29,001,2022_Feb_17_1650,ProdSingRedo,3.2.3,59.894370348741404,
70,0,70,0,,,,,,,,,,,,,,,,,,,,,,,,,,,,494.20614519994706,None,majority,silent,yellow,86,176,492.20237259939313,None,None,492.20237259939313,None,,,,,,,,,,,,,,,,,,,,,,,,,,,,,,,,,NC29,001,2022_Feb_17_1650,ProdSingRedo,3.2.3,59.894370348741404,
71,0,71,0,,,,,,,,,,,,,,,,,,,,,,,,,,,,496.7253879997879,None,court,sing,blue,14,75,494.7153492998332,None,None,494.7153492998332,None,,,,,,,,,,,,,,,,,,,,,,,,,,,,,,,,,NC29,001,2022_Feb_17_1650,ProdSingRedo,3.2.3,59.894370348741404,
72,0,72,0,,,,,,,,,,,,,,,,,,,,,,,,,,,,499.24452899955213,None,reading,silent,yellow,64,254,497.2371760997921,None,None,497.2371760997921,None,,,,,,,,,,,,,,,,,,,,,,,,,,,,,,,,,NC29,001,2022_Feb_17_1650,ProdSingRedo,3.2.3,59.894370348741404,
73,0,73,0,,,,,,,,,,,,,,,,,,,,,,,,,,,,501.76371920015663,None,couch,sing,blue,27,70,499.7540988996625,None,None,499.7540988996625,None,,,,,,,,,,,,,,,,,,,,,,,,,,,,,,,,,NC29,001,2022_Feb_17_1650,ProdSingRedo,3.2.3,59.894370348741404,
74,0,74,0,,,,,,,,,,,,,,,,,,,,,,,,,,,,504.2828601002693,None,frank,sing,blue,25,133,502.2783329002559,None,None,502.2783329002559,None,,,,,,,,,,,,,,,,,,,,,,,,,,,,,,,,,NC29,001,2022_Feb_17_1650,ProdSingRedo,3.2.3,59.894370348741404,
75,0,75,0,,,,,,,,,,,,,,,,,,,,,,,,,,,,506.80204140022397,None,guest,sing,blue,6,146,504.79240329936147,None,None,504.79240329936147,None,,,,,,,,,,,,,,,,,,,,,,,,,,,,,,,,,NC29,001,2022_Feb_17_1650,ProdSingRedo,3.2.3,59.894370348741404,
76,0,76,0,,,,,,,,,,,,,,,,,,,,,,,,,,,,509.3213387997821,None,column,aloud,red,31,57,507.31372450012714,None,None,507.31372450012714,None,,,,,,,,,,,,,,,,,,,,,,,,,,,,,,,,,NC29,001,2022_Feb_17_1650,ProdSingRedo,3.2.3,59.894370348741404,
77,0,77,0,,,,,,,,,,,,,,,,,,,,,,,,,,,,511.8404701994732,None,entrance,silent,yellow,83,115,509.83305810019374,None,None,509.83305810019374,None,,,,,,,,,,,,,,,,,,,,,,,,,,,,,,,,,NC29,001,2022_Feb_17_1650,ProdSingRedo,3.2.3,59.894370348741404,
78,0,78,0,,,,,,,,,,,,,,,,,,,,,,,,,,,,514.3596660997719,None,express,aloud,red,43,124,512.3474621996284,None,None,512.3474621996284,None,,,,,,,,,,,,,,,,,,,,,,,,,,,,,,,,,NC29,001,2022_Feb_17_1650,ProdSingRedo,3.2.3,59.894370348741404,
79,0,79,0,,,,,,,,,,,,,,,,,,,,,,,,,,,,516.8788065994158,None,school,sing,blue,23,274,514.8667901996523,None,None,514.8667901996523,None,,,,,,,,,,,,,,,,,,,,,,,,,,,,,,,,,NC29,001,2022_Feb_17_1650,ProdSingRedo,3.2.3,59.894370348741404,
80,0,80,0,,,,,,,,,,,,,,,,,,,,,,,,,,,,519.3979294002056,None,force,aloud,red,36,131,517.3896841993555,None,None,517.3896841993555,None,,,,,,,,,,,,,,,,,,,,,,,,,,,,,,,,,NC29,001,2022_Feb_17_1650,ProdSingRedo,3.2.3,59.894370348741404,
81,0,81,0,,,,,,,,,,,,,,,,,,,,,,,,,,,,521.9171092994511,None,marriage,aloud,red,49,179,519.9126762002707,None,None,519.9126762002707,None,,,,,,,,,,,,,,,,,,,,,,,,,,,,,,,,,NC29,001,2022_Feb_17_1650,ProdSingRedo,3.2.3,59.894370348741404,
82,0,82,0,,,,,,,,,,,,,,,,,,,,,,,,,,,,524.4362867996097,None,range,sing,blue,0,251,522.432274799794,None,None,522.432274799794,None,,,,,,,,,,,,,,,,,,,,,,,,,,,,,,,,,NC29,001,2022_Feb_17_1650,ProdSingRedo,3.2.3,59.894370348741404,
83,0,83,0,,,,,,,,,,,,,,,,,,,,,,,,,,,,526.9554813001305,None,appeal,sing,blue,9,9,524.9514382993802,None,None,524.9514382993802,None,,,,,,,,,,,,,,,,,,,,,,,,,,,,,,,,,NC29,001,2022_Feb_17_1650,ProdSingRedo,3.2.3,59.894370348741404,
84,0,84,0,,,,,,,,,,,,,,,,,,,,,,,,,,,,529.4747054995969,None,position,aloud,red,44,229,527.464302400127,None,None,527.464302400127,None,,,,,,,,,,,,,,,,,,,,,,,,,,,,,,,,,NC29,001,2022_Feb_17_1650,ProdSingRedo,3.2.3,59.894370348741404,
85,0,85,0,,,,,,,,,,,,,,,,,,,,,,,,,,,,531.9938340000808,None,measure,silent,yellow,75,184,529.9883762998506,None,None,529.9883762998506,None,,,,,,,,,,,,,,,,,,,,,,,,,,,,,,,,,NC29,001,2022_Feb_17_1650,ProdSingRedo,3.2.3,59.894370348741404,
86,0,86,0,,,,,,,,,,,,,,,,,,,,,,,,,,,,534.5130567001179,None,mayor,sing,blue,3,183,532.5048783998936,None,None,532.5048783998936,None,,,,,,,,,,,,,,,,,,,,,,,,,,,,,,,,,NC29,001,2022_Feb_17_1650,ProdSingRedo,3.2.3,59.894370348741404,
87,0,87,0,,,,,,,,,,,,,,,,,,,,,,,,,,,,537.0322150001302,None,beauty,aloud,red,34,18,535.027347699739,None,None,535.027347699739,None,,,,,,,,,,,,,,,,,,,,,,,,,,,,,,,,,NC29,001,2022_Feb_17_1650,ProdSingRedo,3.2.3,59.894370348741404,
88,0,88,0,,,,,,,,,,,,,,,,,,,,,,,,,,,,539.5513595994562,None,government,silent,yellow,82,139,537.5529065998271,None,None,537.5529065998271,None,,,,,,,,,,,,,,,,,,,,,,,,,,,,,,,,,NC29,001,2022_Feb_17_1650,ProdSingRedo,3.2.3,59.894370348741404,
89,0,89,0,,,,,,,,,,,,,,,,,,,,,,,,,,,,542.0705586001277,None,danger,silent,yellow,81,85,540.0652596997097,None,None,540.0652596997097,None,,,,,,,,,,,,,,,,,,,,,,,,,,,,,,,,,NC29,001,2022_Feb_17_1650,ProdSingRedo,3.2.3,59.894370348741404,
,,,,,,,,,,,,,,,,,,,,,,,,,,,,,,,,,,,,,,,,,,,542.5713067995384,None,k,132.97138539981097,542.5713067995384,None,,,,,,,,,,,,,,,,,,,,,,,,,,,NC29,001,2022_Feb_17_1650,ProdSingRedo,3.2.3,59.894370348741404,
,,,,0,0,0,0,,,,,,,,,,,,,,,,,,,,,,,,685.2398336995393,None,,,,,,,,,,,,,,,,,under,silent,white,0,62,343,676.0936909001321,None,676.0936909001321,None,3,3.7448976999148726,676.0936909001321,None,679.8815062996,None,680.4001417001709,None,680.4001417001709,None,f,4.814538000151515,680.4001417001709,None,,,NC29,001,2022_Feb_17_1650,ProdSingRedo,3.2.3,59.894370348741404,
,,,,1,0,1,0,,,,,,,,,,,,,,,,,,,,,,,,696.1807952001691,None,,,,,,,,,,,,,,,,,staff,sing,white,1,18,301,685.7638906994835,None,685.7638906994835,None,1,1.594713700003922,685.7638906994835,None,687.4027843000367,None,687.9248136999086,None,687.9248136999086,None,r,8.225716699846089,687.9248136999086,None,,,NC29,001,2022_Feb_17_1650,ProdSingRedo,3.2.3,59.894370348741404,
,,,,2,0,2,0,,,,,,,,,,,,,,,,,,,,,,,,704.3729718001559,None,,,,,,,,,,,,,,,,,mankind,new_c,white,2,164,178,696.7091747997329,None,696.7091747997329,None,1,2.529485499486327,696.7091747997329,None,699.2932641999796,None,699.8082072995603,None,699.8082072995603,None,n,4.534582199528813,699.8082072995603,None,,,NC29,001,2022_Feb_17_1650,ProdSingRedo,3.2.3,59.894370348741404,
,,,,3,0,3,0,,,,,,,,,,,,,,,,,,,,,,,,713.2745353002101,None,,,,,,,,,,,,,,,,,household,silent,white,3,77,154,704.8988183001056,None,704.8988183001056,None,5,6.643662999384105,704.8988183001056,None,711.6010844996199,None,712.1176138995215,None,712.1176138995215,None,f,1.136587900109589,712.1176138995215,None,,,NC29,001,2022_Feb_17_1650,ProdSingRedo,3.2.3,59.894370348741404,
,,,,4,0,4,0,,,,,,,,,,,,,,,,,,,,,,,,720.4003954995424,None,,,,,,,,,,,,,,,,,carry,new_a,white,4,109,43,713.7750830994919,None,713.7750830994919,None,1,1.3194821001961827,713.7750830994919,None,715.1298647997901,None,715.6555596999824,None,715.6555596999824,None,r,4.718911699950695,715.6555596999824,None,,,NC29,001,2022_Feb_17_1650,ProdSingRedo,3.2.3,59.894370348741404,
,,,,5,0,5,0,,,,,,,,,,,,,,,,,,,,,,,,727.7622590996325,None,,,,,,,,,,,,,,,,,crisis,silent,white,5,69,79,720.9257929995656,None,720.9257929995656,None,4,5.2006492000073195,720.9257929995656,None,726.1706949993968,None,726.6777547001839,None,726.6777547001839,None,f,1.0567143000662327,726.6777547001839,None,,,NC29,001,2022_Feb_17_1650,ProdSingRedo,3.2.3,59.894370348741404,
,,,,6,0,6,0,,,,,,,,,,,,,,,,,,,,,,,,733.4509046999738,None,,,,,,,,,,,,,,,,,appearance,new_b,white,6,123,10,728.2728246999905,None,728.2728246999905,None,6,2.78172430023551,728.2728246999905,None,731.0968533996493,None,731.6239219000563,None,731.6239219000563,None,f,1.798675799742341,731.6239219000563,None,,,NC29,001,2022_Feb_17_1650,ProdSingRedo,3.2.3,59.894370348741404,
,,,,7,0,7,0,,,,,,,,,,,,,,,,,,,,,,,,741.3596561001614,None,,,,,,,,,,,,,,,,,sleep,new_c,white,7,161,290,733.9639118993655,None,733.9639118993655,None,2,4.826838999986649,733.9639118993655,None,738.8312115995213,None,739.3383277002722,None,739.3383277002722,None,n,1.9880922008305788,739.3383277002722,None,,,NC29,001,2022_Feb_17_1650,ProdSingRedo,3.2.3,59.894370348741404,
,,,,8,0,8,0,,,,,,,,,,,,,,,,,,,,,,,,745.1649359995499,None,,,,,,,,,,,,,,,,,trash,new_b,white,8,146,337,741.8831486999989,None,741.8831486999989,None,1,1.267000099644065,741.8831486999989,None,743.1706622997299,None,743.6712349997833,None,743.6712349997833,None,r,1.4553274000063539,743.6712349997833,None,,,NC29,001,2022_Feb_17_1650,ProdSingRedo,3.2.3,59.894370348741404,
,,,,9,0,9,0,,,,,,,,,,,,,,,,,,,,,,,,753.4733365001157,None,,,,,,,,,,,,,,,,,scale,new_b,white,9,130,272,745.6899258997291,None,745.6899258997291,None,4,6.332654799334705,745.6899258997291,None,752.0637962995097,None,752.574830699712,None,752.574830699712,None,f,0.8636392001062632,752.574830699712,None,,,NC29,001,2022_Feb_17_1650,ProdSingRedo,3.2.3,59.894370348741404,
,,,,10,0,10,0,,,,,,,,,,,,,,,,,,,,,,,,757.1414660001174,None,,,,,,,,,,,,,,,,,frank,sing,white,10,25,133,754.0015759998932,None,754.0015759998932,None,6,1.868916000239551,754.0015759998932,None,755.924816600047,None,756.4462225995958,None,756.4462225995958,None,f,0.6722381003201008,756.4462225995958,None,,,NC29,001,2022_Feb_17_1650,ProdSingRedo,3.2.3,59.894370348741404,
,,,,11,0,11,0,,,,,,,,,,,,,,,,,,,,,,,,763.1972741000354,None,,,,,,,,,,,,,,,,,master,new_b,white,11,129,180,757.6685811998323,None,757.6685811998323,None,4,4.057887700386345,757.6685811998323,None,761.7772835996002,None,762.283539599739,None,762.283539599739,None,f,0.8828873001039028,762.283539599739,None,,,NC29,001,2022_Feb_17_1650,ProdSingRedo,3.2.3,59.894370348741404,
,,,,12,0,12,0,,,,,,,,,,,,,,,,,,,,,,,,767.0673548001796,None,,,,,,,,,,,,,,,,,report,new_c,white,12,154,259,763.7186961993575,None,763.7186961993575,None,6,2.2717284001410007,763.7186961993575,None,766.0330384001136,None,766.5322206998244,None,766.5322206998244,None,f,0.49838840030133724,766.5322206998244,None,,,NC29,001,2022_Feb_17_1650,ProdSingRedo,3.2.3,59.894370348741404,
,,,,13,0,13,0,,,,,,,,,,,,,,,,,,,,,,,,772.774543300271,None,,,,,,,,,,,,,,,,,south,new_c,white,13,158,296,767.5940501997247,None,767.5940501997247,None,2,2.5164378006011248,767.5940501997247,None,770.152378199622,None,770.6576287001371,None,770.6576287001371,None,n,2.092989799566567,770.6576287001371,None,,,NC29,001,2022_Feb_17_1650,ProdSingRedo,3.2.3,59.894370348741404,
,,,,14,0,14,0,,,,,,,,,,,,,,,,,,,,,,,,776.7282680999488,None,,,,,,,,,,,,,,,,,beginning,sing,white,14,17,19,773.2879651002586,None,773.2879651002586,None,6,1.8224726002663374,773.2879651002586,None,775.1611171998084,None,775.6834733998403,None,775.6834733998403,None,f,1.0190073000267148,775.6834733998403,None,,,NC29,001,2022_Feb_17_1650,ProdSingRedo,3.2.3,59.894370348741404,
,,,,15,0,15,0,,,,,,,,,,,,,,,,,,,,,,,,782.866955799982,None,,,,,,,,,,,,,,,,,production,new_c,white,15,150,240,777.2547375997528,None,777.2547375997528,None,2,2.6716863997280598,777.2547375997528,None,779.9816352995113,None,780.5029815994203,None,780.5029815994203,None,n,2.32741229981184,780.5029815994203,None,,,NC29,001,2022_Feb_17_1650,ProdSingRedo,3.2.3,59.894370348741404,
,,,,16,0,16,0,,,,,,,,,,,,,,,,,,,,,,,,789.3230353994295,None,,,,,,,,,,,,,,,,,bitter,new_a,white,16,94,23,783.3934468999505,None,783.3934468999505,None,3,3.940988000482321,783.3934468999505,None,787.3855542000383,None,787.9074395000935,None,787.9074395000935,None,f,1.3789863996207714,787.9074395000935,None,,,NC29,001,2022_Feb_17_1650,ProdSingRedo,3.2.3,59.894370348741404,
,,,,17,0,17,0,,,,,,,,,,,,,,,,,,,,,,,,794.078497399576,None,,,,,,,,,,,,,,,,,trend,aloud,white,17,52,340,789.8400034997612,None,789.8400034997612,None,4,2.7743734000250697,789.8400034997612,None,792.6515942001715,None,793.16193700023,None,793.16193700023,None,f,0.8843996999785304,793.16193700023,None,,,NC29,001,2022_Feb_17_1650,ProdSingRedo,3.2.3,59.894370348741404,
,,,,18,0,18,0,,,,,,,,,,,,,,,,,,,,,,,,800.5346724996343,None,,,,,,,,,,,,,,,,,position,aloud,white,18,44,229,794.5974059998989,None,794.5974059998989,None,5,5.153144599869847,794.5974059998989,None,799.7931113000959,None,800.3043614001945,None,800.3043614001945,None,f,0.20593549963086843,800.3043614001945,None,,,NC29,001,2022_Feb_17_1650,ProdSingRedo,3.2.3,59.894370348741404,
,,,,19,0,19,0,,,,,,,,,,,,,,,,,,,,,,,,803.4808995993808,None,,,,,,,,,,,,,,,,,beauty,aloud,white,19,34,18,801.0635917996988,None,801.0635917996988,None,6,1.73473499994725,801.0635917996988,None,802.8397538000718,None,803.3308541001752,None,803.3308541001752,None,f,0.13114009983837605,803.3308541001752,None,,,NC29,001,2022_Feb_17_1650,ProdSingRedo,3.2.3,59.894370348741404,
,,,,20,0,20,0,,,,,,,,,,,,,,,,,,,,,,,,809.6591777000576,None,,,,,,,,,,,,,,,,,strength,silent,white,20,79,310,803.998075899668,None,803.998075899668,None,3,4.688399099744856,803.998075899668,None,808.7251530997455,None,809.2299665994942,None,809.2299665994942,None,f,0.40041489992290735,809.2299665994942,None,,,NC29,001,2022_Feb_17_1650,ProdSingRedo,3.2.3,59.894370348741404,
,,,,21,0,21,0,,,,,,,,,,,,,,,,,,,,,,,,813.2485956000164,None,,,,,,,,,,,,,,,,,pretty,sing,white,21,1,233,810.1842542998493,None,810.1842542998493,None,6,1.7102936003357172,810.1842542998493,None,811.943494499661,None,812.4640815993771,None,812.4640815993771,None,f,0.7502194000408053,812.4640815993771,None,,,NC29,001,2022_Feb_17_1650,ProdSingRedo,3.2.3,59.894370348741404,
,,,,22,0,22,0,,,,,,,,,,,,,,,,,,,,,,,,818.4520988995209,None,,,,,,,,,,,,,,,,,majority,silent,white,22,86,176,813.778487900272,None,813.778487900272,None,5,3.051792100071907,813.778487900272,None,816.8746344996616,None,817.3837307002395,None,817.3837307002395,None,f,1.0385667001828551,817.3837307002395,None,,,NC29,001,2022_Feb_17_1650,ProdSingRedo,3.2.3,59.894370348741404,
,,,,23,0,23,0,,,,,,,,,,,,,,,,,,,,,,,,821.739787099883,None,,,,,,,,,,,,,,,,,school,sing,white,23,23,274,818.9722232995555,None,818.9722232995555,None,6,1.4980919994413853,818.9722232995555,None,820.5026771994308,None,821.0204019993544,None,821.0204019993544,None,f,0.6819796999916434,821.0204019993544,None,,,NC29,001,2022_Feb_17_1650,ProdSingRedo,3.2.3,59.894370348741404,
,,,,24,0,24,0,,,,,,,,,,,,,,,,,,,,,,,,824.6789467995986,None,,,,,,,,,,,,,,,,,dozen,aloud,white,24,51,102,822.2667386000976,None,822.2667386000976,None,6,1.267319300211966,822.2667386000976,None,823.5579615002498,None,824.0767818996683,None,824.0767818996683,None,f,0.5695274006575346,824.0767818996683,None,,,NC29,001,2022_Feb_17_1650,ProdSingRedo,3.2.3,59.894370348741404,
,,,,25,0,25,0,,,,,,,,,,,,,,,,,,,,,,,,829.2312402995303,None,,,,,,,,,,,,,,,,,object,new_b,white,25,140,204,825.20162829943,None,825.20162829943,None,5,3.005109299905598,825.20162829943,None,828.246569099836,None,828.764594799839,None,828.764594799839,None,f,0.4337569000199437,828.764594799839,None,,,NC29,001,2022_Feb_17_1650,ProdSingRedo,3.2.3,59.894370348741404,
,,,,26,0,26,0,,,,,,,,,,,,,,,,,,,,,,,,832.3671858999878,None,,,,,,,,,,,,,,,,,express,aloud,white,26,43,124,829.7532561998814,None,829.7532561998814,None,6,1.5810040002688766,829.7532561998814,None,831.3761390997097,None,831.8836907995865,None,831.8836907995865,None,f,0.45061440020799637,831.8836907995865,None,,,NC29,001,2022_Feb_17_1650,ProdSingRedo,3.2.3,59.894370348741404,
,,,,27,0,27,0,,,,,,,,,,,,,,,,,,,,,,,,836.4544387999922,None,,,,,,,,,,,,,,,,,colonel,aloud,white,27,50,55,832.8960357997566,None,832.8960357997566,None,6,2.934706900268793,832.8960357997566,None,835.8654875997454,None,836.3695228993893,None,836.3695228993893,None,f,0.05284400004893541,836.3695228993893,None,,,NC29,001,2022_Feb_17_1650,ProdSingRedo,3.2.3,59.894370348741404,
,,,,28,0,28,0,,,,,,,,,,,,,,,,,,,,,,,,840.9594959001988,None,,,,,,,,,,,,,,,,,patient,sing,white,28,28,213,836.9809583993629,None,836.9809583993629,None,5,3.0974028008058667,836.9809583993629,None,840.1242365995422,None,840.6275476999581,None,840.6275476999581,None,f,0.30675340071320534,840.6275476999581,None,,,NC29,001,2022_Feb_17_1650,ProdSingRedo,3.2.3,59.894370348741404,
,,,,29,0,29,0,,,,,,,,,,,,,,,,,,,,,,,,847.3493099994957,None,,,,,,,,,,,,,,,,,emergency,sing,white,29,13,110,841.4870611000806,None,841.4870611000806,None,4,4.719239400699735,841.4870611000806,None,846.2490183999762,None,846.7538029998541,None,846.7538029998541,None,f,0.5645821001380682,846.7538029998541,None,,,NC29,001,2022_Feb_17_1650,ProdSingRedo,3.2.3,59.894370348741404,
,,,,30,0,30,0,,,,,,,,,,,,,,,,,,,,,,,,850.5858496995643,None,,,,,,,,,,,,,,,,,government,silent,white,30,82,139,847.8801143001765,None,847.8801143001765,None,6,1.8541005002334714,847.8801143001765,None,849.786726099439,None,850.2913558995351,None,850.2913558995351,None,f,0.26695349998772144,850.2913558995351,None,,,NC29,001,2022_Feb_17_1650,ProdSingRedo,3.2.3,59.894370348741404,
,,,,31,0,31,0,,,,,,,,,,,,,,,,,,,,,,,,855.4396532000974,None,,,,,,,,,,,,,,,,,pressure,aloud,white,31,48,232,851.1139473998919,None,851.1139473998919,None,5,3.4842733992263675,851.1139473998919,None,854.6336529999971,None,855.1505204997957,None,855.1505204997957,None,f,0.2555965995416045,855.1505204997957,None,,,NC29,001,2022_Feb_17_1650,ProdSingRedo,3.2.3,59.894370348741404,
,,,,32,0,32,0,,,,,,,,,,,,,,,,,,,,,,,,859.3612963994965,None,,,,,,,,,,,,,,,,,platform,aloud,white,32,30,224,855.9687604997307,None,855.9687604997307,None,4,2.101595500484109,855.9687604997307,None,858.1108480999246,None,858.6348072998226,None,858.6348072998226,None,f,0.6994429007172585,858.6348072998226,None,,,NC29,001,2022_Feb_17_1650,ProdSingRedo,3.2.3,59.894370348741404,
,,,,33,0,33,0,,,,,,,,,,,,,,,,,,,,,,,,862.7138705002144,None,,,,,,,,,,,,,,,,,appeal,sing,white,33,9,9,859.8876800993457,None,859.8876800993457,None,6,1.894604000262916,859.8876800993457,None,861.8291723001748,None,862.3501360993832,None,862.3501360993832,None,f,0.336124399676919,862.3501360993832,None,,,NC29,001,2022_Feb_17_1650,ProdSingRedo,3.2.3,59.894370348741404,
,,,,34,0,34,0,,,,,,,,,,,,,,,,,,,,,,,,867.1011488996446,None,,,,,,,,,,,,,,,,,expansion,sing,white,34,15,123,863.2238213000819,None,863.2238213000819,None,3,2.710160099901259,863.2238213000819,None,865.9707062998787,None,866.4866137001663,None,866.4866137001663,None,n,0.5835819002240896,866.4866137001663,None,,,NC29,001,2022_Feb_17_1650,ProdSingRedo,3.2.3,59.894370348741404,
,,,,35,0,35,0,,,,,,,,,,,,,,,,,,,,,,,,872.5401042001322,None,,,,,,,,,,,,,,,,,solution,aloud,white,35,53,294,867.6282262001187,None,867.6282262001187,None,3,3.9620425002649426,867.6282262001187,None,871.6374976998195,None,872.1607074001804,None,872.1607074001804,None,n,0.3576657995581627,872.1607074001804,None,,,NC29,001,2022_Feb_17_1650,ProdSingRedo,3.2.3,59.894370348741404,
,,,,36,0,36,0,,,,,,,,,,,,,,,,,,,,,,,,875.199959599413,None,,,,,,,,,,,,,,,,,mayor,sing,white,36,3,183,873.0669749993831,None,873.0669749993831,None,6,1.2754137003794312,873.0669749993831,None,874.3903414001688,None,874.9094428000972,None,874.9094428000972,None,f,0.2488573994487524,874.9094428000972,None,,,NC29,001,2022_Feb_17_1650,ProdSingRedo,3.2.3,59.894370348741404,
,,,,37,0,37,0,,,,,,,,,,,,,,,,,,,,,,,,877.8615728002042,None,,,,,,,,,,,,,,,,,management,aloud,white,37,39,177,875.7208263995126,None,875.7208263995126,None,6,1.301278599537909,875.7208263995126,None,877.064482299611,None,877.5826105000451,None,877.5826105000451,None,f,0.2554508000612259,877.5826105000451,None,,,NC29,001,2022_Feb_17_1650,ProdSingRedo,3.2.3,59.894370348741404,
,,,,38,0,38,0,,,,,,,,,,,,,,,,,,,,,,,,880.4638746995479,None,,,,,,,,,,,,,,,,,column,aloud,white,38,31,57,878.3849216001108,None,878.3849216001108,None,6,1.2212290996685624,878.3849216001108,None,879.6448232997209,None,880.1681162994355,None,880.1681162994355,None,f,0.2620847998186946,880.1681162994355,None,,,NC29,001,2022_Feb_17_1650,ProdSingRedo,3.2.3,59.894370348741404,
,,,,39,0,39,0,,,,,,,,,,,,,,,,,,,,,,,,884.3846939001232,None,,,,,,,,,,,,,,,,,guide,new_c,white,39,170,147,880.9873155998066,None,880.9873155998066,None,1,1.6189176999032497,880.9873155998066,None,882.6464678002521,None,883.1680383998901,None,883.1680383998901,None,r,1.190182600170374,883.1680383998901,None,,,NC29,001,2022_Feb_17_1650,ProdSingRedo,3.2.3,59.894370348741404,
,,,,40,0,40,0,,,,,,,,,,,,,,,,,,,,,,,,889.1064916998148,None,,,,,,,,,,,,,,,,,empty,silent,white,40,68,112,884.9079831000417,None,884.9079831000417,None,4,2.530378800816834,884.9079831000417,None,887.481679899618,None,887.9927391996607,None,887.9927391996607,None,f,1.085554599761963,887.9927391996607,None,,,NC29,001,2022_Feb_17_1650,ProdSingRedo,3.2.3,59.894370348741404,
,,,,41,0,41,0,,,,,,,,,,,,,,,,,,,,,,,,894.0624968996271,None,,,,,,,,,,,,,,,,,poetry,new_a,white,41,102,225,889.6325204996392,None,889.6325204996392,None,2,2.0459583001211286,889.6325204996392,None,891.7243718001992,None,892.2438741996884,None,892.2438741996884,None,r,1.7864354001358151,892.2438741996884,None,,,NC29,001,2022_Feb_17_1650,ProdSingRedo,3.2.3,59.894370348741404,
,,,,42,0,42,0,,,,,,,,,,,,,,,,,,,,,,,,897.5994092002511,None,,,,,,,,,,,,,,,,,review,new_b,white,42,120,263,894.5930466996506,None,894.5930466996506,None,3,2.205260000191629,894.5930466996506,None,896.8429144993424,None,897.3700995994732,None,897.3700995994732,None,r,0.19604970049113035,897.3700995994732,None,,,NC29,001,2022_Feb_17_1650,ProdSingRedo,3.2.3,59.894370348741404,
,,,,43,0,43,0,,,,,,,,,,,,,,,,,,,,,,,,902.5541888000444,None,,,,,,,,,,,,,,,,,republic,new_b,white,43,143,260,898.1270762002096,None,898.1270762002096,None,2,2.735415400005877,898.1270762002096,None,900.9048766996711,None,901.4243652001023,None,901.4243652001023,None,r,1.1019941000267863,901.4243652001023,None,,,NC29,001,2022_Feb_17_1650,ProdSingRedo,3.2.3,59.894370348741404,
,,,,44,0,44,0,,,,,,,,,,,,,,,,,,,,,,,,905.472859499976,None,,,,,,,,,,,,,,,,,grade,new_a,white,44,91,140,903.0787022998556,None,903.0787022998556,None,1,1.727480599656701,903.0787022998556,None,904.8507634000853,None,905.376668700017,None,905.376668700017,None,n,0.06970909982919693,905.376668700017,None,,,NC29,001,2022_Feb_17_1650,ProdSingRedo,3.2.3,59.894370348741404,
,,,,45,0,45,0,,,,,,,,,,,,,,,,,,,,,,,,909.0466134995222,None,,,,,,,,,,,,,,,,,crowd,new_b,white,45,126,81,905.9970017997548,None,905.9970017997548,None,1,1.5771689005196095,905.9970017997548,None,907.622054300271,None,908.1431291000918,None,908.1431291000918,None,n,0.8630587998777628,908.1431291000918,None,,,NC29,001,2022_Feb_17_1650,ProdSingRedo,3.2.3,59.894370348741404,
,,,,46,0,46,0,,,,,,,,,,,,,,,,,,,,,,,,911.9629004001617,None,,,,,,,,,,,,,,,,,marriage,aloud,white,46,49,179,909.5820245994255,None,909.5820245994255,None,6,1.328184299170971,909.5820245994255,None,910.9625321002677,None,911.48202569969,None,911.48202569969,None,f,0.44423280004411936,911.48202569969,None,,,NC29,001,2022_Feb_17_1650,ProdSingRedo,3.2.3,59.894370348741404,
,,,,47,0,47,0,,,,,,,,,,,,,,,,,,,,,,,,916.1495845997706,None,,,,,,,,,,,,,,,,,substance,new_b,white,47,137,313,912.4946390995756,None,912.4946390995756,None,5,2.7677240995690227,912.4946390995756,None,915.3195008998737,None,915.8419468998909,None,915.8419468998909,None,f,0.2762278998270631,915.8419468998909,None,,,NC29,001,2022_Feb_17_1650,ProdSingRedo,3.2.3,59.894370348741404,
,,,,48,0,48,0,,,,,,,,,,,,,,,,,,,,,,,,919.7874269001186,None,,,,,,,,,,,,,,,,,narrow,new_c,white,48,162,197,916.6794226998463,None,916.6794226998463,None,2,1.5348314000293612,916.6794226998463,None,918.2701805001125,None,918.7894495995715,None,918.7894495995715,None,r,0.968767000362277,918.7894495995715,None,,,NC29,001,2022_Feb_17_1650,ProdSingRedo,3.2.3,59.894370348741404,
,,,,49,0,49,0,,,,,,,,,,,,,,,,,,,,,,,,922.9783477000892,None,,,,,,,,,,,,,,,,,medicine,aloud,white,49,40,186,920.3116787998006,None,920.3116787998006,None,6,1.462479599751532,920.3116787998006,None,921.81877349969,None,922.3386556999758,None,922.3386556999758,None,f,0.603478099219501,922.3386556999758,None,,,NC29,001,2022_Feb_17_1650,ProdSingRedo,3.2.3,59.894370348741404,
,,,,50,0,50,0,,,,,,,,,,,,,,,,,,,,,,,,927.828495499678,None,,,,,,,,,,,,,,,,,curve,new_c,white,50,169,82,923.4840067997575,None,923.4840067997575,None,3,2.6981581998988986,923.4840067997575,None,926.2355824001133,None,926.7477853996679,None,926.7477853996679,None,r,1.0581881999969482,926.7477853996679,None,,,NC29,001,2022_Feb_17_1650,ProdSingRedo,3.2.3,59.894370348741404,
,,,,51,0,51,0,,,,,,,,,,,,,,,,,,,,,,,,933.9689597999677,None,,,,,,,,,,,,,,,,,little,silent,white,51,88,174,928.3501573000103,None,928.3501573000103,None,3,4.719949600286782,928.3501573000103,None,933.1094041001052,None,933.6200000997633,None,933.6200000997633,None,n,0.32219829969108105,933.6200000997633,None,,,NC29,001,2022_Feb_17_1650,ProdSingRedo,3.2.3,59.894370348741404,
,,,,52,0,52,0,,,,,,,,,,,,,,,,,,,,,,,,937.0863851998001,None,,,,,,,,,,,,,,,,,problem,aloud,white,52,59,238,934.497566900216,None,934.497566900216,None,5,1.684570400044322,934.497566900216,None,936.2375478995964,None,936.7577146999538,None,936.7577146999538,None,f,0.29653089959174395,936.7577146999538,None,,,NC29,001,2022_Feb_17_1650,ProdSingRedo,3.2.3,59.894370348741404,
,,,,53,0,53,0,,,,,,,,,,,,,,,,,,,,,,,,940.0583990998566,None,,,,,,,,,,,,,,,,,fashion,new_b,white,53,138,125,937.613926699385,None,937.613926699385,None,2,1.5441982001066208,937.613926699385,None,939.2057726001367,None,939.7263481002301,None,939.7263481002301,None,n,0.30373109970241785,939.7263481002301,None,,,NC29,001,2022_Feb_17_1650,ProdSingRedo,3.2.3,59.894370348741404,
,,,,54,0,54,0,,,,,,,,,,,,,,,,,,,,,,,,946.213036599569,None,,,,,,,,,,,,,,,,,watch,aloud,white,54,33,351,940.5801929999143,None,940.5801929999143,None,6,3.921901300549507,940.5801929999143,None,944.5384320002049,None,945.0477125002071,None,945.0477125002071,None,f,1.142455100081861,945.0477125002071,None,,,NC29,001,2022_Feb_17_1650,ProdSingRedo,3.2.3,59.894370348741404,
,,,,55,0,55,0,,,,,,,,,,,,,,,,,,,,,,,,949.3176595997065,None,,,,,,,,,,,,,,,,,drama,aloud,white,55,46,103,946.7408146001399,None,946.7408146001399,None,3,1.4894123002886772,946.7408146001399,None,948.2836461002007,None,948.8035375000909,None,948.8035375000909,None,n,0.48256910033524036,948.8035375000909,None,,,NC29,001,2022_Feb_17_1650,ProdSingRedo,3.2.3,59.894370348741404,
,,,,56,0,56,0,,,,,,,,,,,,,,,,,,,,,,,,954.5929875001311,None,,,,,,,,,,,,,,,,,company,sing,white,56,11,64,949.8445832999423,None,949.8445832999423,None,5,2.481268100440502,949.8445832999423,None,952.3698988994583,None,952.87457370013,None,952.87457370013,None,f,1.6916230004280806,952.87457370013,None,,,NC29,001,2022_Feb_17_1650,ProdSingRedo,3.2.3,59.894370348741404,
,,,,57,0,57,0,,,,,,,,,,,,,,,,,,,,,,,,959.9430774999782,None,,,,,,,,,,,,,,,,,force,aloud,white,57,36,131,955.1151951998472,None,955.1151951998472,None,4,3.402778400108218,955.1151951998472,None,958.5547166997567,None,959.076599500142,None,959.076599500142,None,n,0.8335157996043563,959.076599500142,None,,,NC29,001,2022_Feb_17_1650,ProdSingRedo,3.2.3,59.894370348741404,
,,,,58,0,58,0,,,,,,,,,,,,,,,,,,,,,,,,963.0313360001892,None,,,,,,,,,,,,,,,,,quarter,new_b,white,58,135,246,960.4711811002344,None,960.4711811002344,None,1,1.2870607003569603,960.4711811002344,None,961.812222099863,None,962.3338642995805,None,962.3338642995805,None,f,0.6721731005236506,962.3338642995805,None,,,NC29,001,2022_Feb_17_1650,ProdSingRedo,3.2.3,59.894370348741404,
,,,,59,0,59,0,,,,,,,,,,,,,,,,,,,,,,,,965.869034299627,None,,,,,,,,,,,,,,,,,heavy,new_b,white,59,127,151,963.5599221000448,None,963.5599221000448,None,1,1.2141840998083353,963.5599221000448,None,964.8207411002368,None,965.3420091997832,None,965.3420091997832,None,n,0.49600099958479404,965.3420091997832,None,,,NC29,001,2022_Feb_17_1650,ProdSingRedo,3.2.3,59.894370348741404,
,,,,60,0,60,0,,,,,,,,,,,,,,,,,,,,,,,,970.4553672997281,None,,,,,,,,,,,,,,,,,education,new_b,white,60,144,108,966.4032638994977,None,966.4032638994977,None,4,3.1387742003425956,966.4032638994977,None,969.5878778994083,None,970.0928867999464,None,970.0928867999464,None,n,0.3291799006983638,970.0928867999464,None,,,NC29,001,2022_Feb_17_1650,ProdSingRedo,3.2.3,59.894370348741404,
,,,,61,0,61,0,,,,,,,,,,,,,,,,,,,,,,,,974.3436008999124,None,,,,,,,,,,,,,,,,,testimony,new_c,white,61,160,325,970.9846585998312,None,970.9846585998312,None,1,1.3574508000165224,970.9846585998312,None,972.3888972997665,None,972.9092076001689,None,972.9092076001689,None,n,1.4008457995951176,972.9092076001689,None,,,NC29,001,2022_Feb_17_1650,ProdSingRedo,3.2.3,59.894370348741404,
,,,,62,0,62,0,,,,,,,,,,,,,,,,,,,,,,,,978.6473001996055,None,,,,,,,,,,,,,,,,,discovery,new_a,white,62,103,95,974.8681688001379,None,974.8681688001379,None,1,1.8578660991042852,974.8681688001379,None,976.7809458002448,None,977.2851726999506,None,977.2851726999506,None,n,1.329194100573659,977.2851726999506,None,,,NC29,001,2022_Feb_17_1650,ProdSingRedo,3.2.3,59.894370348741404,
,,,,63,0,63,0,,,,,,,,,,,,,,,,,,,,,,,,984.3445175001398,None,,,,,,,,,,,,,,,,,guest,sing,white,63,6,146,979.1710069999099,None,979.1710069999099,None,6,3.4990257993340492,979.1710069999099,None,982.7141592996195,None,983.2269334997982,None,983.2269334997982,None,f,1.09868870023638,983.2269334997982,None,,,NC29,001,2022_Feb_17_1650,ProdSingRedo,3.2.3,59.894370348741404,
,,,,64,0,64,0,,,,,,,,,,,,,,,,,,,,,,,,988.7058649994433,None,,,,,,,,,,,,,,,,,close,new_a,white,64,119,53,984.855990299955,None,984.855990299955,None,4,2.3260328993201256,984.855990299955,None,987.2246358999982,None,987.7352209994569,None,987.7352209994569,None,n,0.9428135994821787,987.7352209994569,None,,,NC29,001,2022_Feb_17_1650,ProdSingRedo,3.2.3,59.894370348741404,
,,,,65,0,65,0,,,,,,,,,,,,,,,,,,,,,,,,997.5985040999949,None,,,,,,,,,,,,,,,,,present,silent,white,65,80,231,989.2278081998229,None,989.2278081998229,None,4,6.810217899270356,989.2278081998229,None,996.0804702993482,None,996.6005799993873,None,996.6005799993873,None,n,0.9735670993104577,996.6005799993873,None,,,NC29,001,2022_Feb_17_1650,ProdSingRedo,3.2.3,59.894370348741404,
,,,,66,0,66,0,,,,,,,,,,,,,,,,,,,,,,,,1001.4039129996672,None,,,,,,,,,,,,,,,,,sound,aloud,white,66,35,295,998.1223015999421,None,998.1223015999421,None,6,1.2596388002857566,998.1223015999421,None,999.4300413001329,None,999.9364173999056,None,999.9364173999056,None,f,1.4376889001578093,999.9364173999056,None,,,NC29,001,2022_Feb_17_1650,ProdSingRedo,3.2.3,59.894370348741404,
,,,,67,0,67,0,,,,,,,,,,,,,,,,,,,,,,,,1006.1403193995357,None,,,,,,,,,,,,,,,,,finish,new_a,white,67,114,130,1001.9254406001419,None,1001.9254406001419,None,5,2.9368508998304605,1001.9254406001419,None,1004.9030574001372,None,1005.4249406997114,None,1005.4249406997114,None,f,0.6933327000588179,1005.4249406997114,None,,,NC29,001,2022_Feb_17_1650,ProdSingRedo,3.2.3,59.894370348741404,
,,,,68,0,68,0,,,,,,,,,,,,,,,,,,,,,,,,1010.1623668996617,None,,,,,,,,,,,,,,,,,command,new_a,white,68,90,60,1006.667544499971,None,1006.667544499971,None,4,2.546441299840808,1006.667544499971,None,1009.2557191001251,None,1009.78133459948,None,1009.78133459948,None,f,0.34467059932649136,1009.78133459948,None,,,NC29,001,2022_Feb_17_1650,ProdSingRedo,3.2.3,59.894370348741404,
,,,,69,0,69,0,,,,,,,,,,,,,,,,,,,,,,,,1014.213879100047,None,,,,,,,,,,,,,,,,,personnel,new_a,white,69,113,219,1010.6852623997256,None,1010.6852623997256,None,1,2.128739600069821,1010.6852623997256,None,1012.8586620995775,None,1013.3739678999409,None,1013.3739678999409,None,n,0.8159932000562549,1013.3739678999409,None,,,NC29,001,2022_Feb_17_1650,ProdSingRedo,3.2.3,59.894370348741404,
,,,,70,0,70,0,,,,,,,,,,,,,,,,,,,,,,,,1019.2538907993585,None,,,,,,,,,,,,,,,,,worker,new_a,white,70,99,356,1014.7423262000084,None,1014.7423262000084,None,3,3.2156786005944014,1014.7423262000084,None,1018.0033975001425,None,1018.5240217000246,None,1018.5240217000246,None,r,0.7059758994728327,1018.5240217000246,None,,,NC29,001,2022_Feb_17_1650,ProdSingRedo,3.2.3,59.894370348741404,
,,,,71,0,71,0,,,,,,,,,,,,,,,,,,,,,,,,1022.089524500072,None,,,,,,,,,,,,,,,,,month,new_b,white,71,148,193,1019.775220499374,None,1019.775220499374,None,1,1.5507319997996092,1019.775220499374,None,1021.3671725001186,None,1021.8872287999839,None,1021.8872287999839,None,r,0.16678390000015497,1021.8872287999839,None,,,NC29,001,2022_Feb_17_1650,ProdSingRedo,3.2.3,59.894370348741404,
,,,,72,0,72,0,,,,,,,,,,,,,,,,,,,,,,,,1024.7360344994813,None,,,,,,,,,,,,,,,,,generation,new_a,white,72,110,136,1022.6208180999383,None,1022.6208180999383,None,1,1.1531325997784734,1022.6208180999383,None,1023.8255137996748,None,1024.3469936000183,None,1024.3469936000183,None,r,0.3631247002631426,1024.3469936000183,None,,,NC29,001,2022_Feb_17_1650,ProdSingRedo,3.2.3,59.894370348741404,
,,,,73,0,73,0,,,,,,,,,,,,,,,,,,,,,,,,1027.2102373000234,None,,,,,,,,,,,,,,,,,religion,new_c,white,73,173,258,1025.2610820997506,None,1025.2610820997506,None,1,1.2006711000576615,1025.2610820997506,None,1026.4959538998082,None,1027.0146070001647,None,1027.0146070001647,None,r,0.15953109972178936,1027.0146070001647,None,,,NC29,001,2022_Feb_17_1650,ProdSingRedo,3.2.3,59.894370348741404,
,,,,74,0,74,0,,,,,,,,,,,,,,,,,,,,,,,,1031.9000113001093,None,,,,,,,,,,,,,,,,,partner,aloud,white,74,42,211,1027.738229200244,None,1027.738229200244,None,4,2.1157636996358633,1027.738229200244,None,1029.8921895995736,None,1030.4174325000495,None,1030.4174325000495,None,n,1.4525529006496072,1030.4174325000495,None,,,NC29,001,2022_Feb_17_1650,ProdSingRedo,3.2.3,59.894370348741404,
,,,,75,0,75,0,,,,,,,,,,,,,,,,,,,,,,,,1035.0363521995023,None,,,,,,,,,,,,,,,,,height,new_c,white,75,174,152,1032.427583899349,None,1032.427583899349,None,1,1.1622991999611259,1032.427583899349,None,1033.6337965996936,None,1034.1537304995582,None,1034.1537304995582,None,r,0.8602026998996735,1034.1537304995582,None,,,NC29,001,2022_Feb_17_1650,ProdSingRedo,3.2.3,59.894370348741404,
,,,,76,0,76,0,,,,,,,,,,,,,,,,,,,,,,,,1037.4436093000695,None,,,,,,,,,,,,,,,,,theme,silent,white,76,63,326,1035.562067899853,None,1035.562067899853,None,1,0.9559792000800371,1035.562067899853,None,1036.5639838995412,None,1037.07277029939,None,1037.07277029939,None,r,0.3410256002098322,1037.07277029939,None,,,NC29,001,2022_Feb_17_1650,ProdSingRedo,3.2.3,59.894370348741404,
,,,,77,0,77,0,,,,,,,,,,,,,,,,,,,,,,,,1043.9108648002148,None,,,,,,,,,,,,,,,,,material,sing,white,77,7,182,1037.9715858995914,None,1037.9715858995914,None,4,4.314354700036347,1037.9715858995914,None,1042.3293038001284,None,1042.8495389996096,None,1042.8495389996096,None,n,1.0283330008387566,1042.8495389996096,None,,,NC29,001,2022_Feb_17_1650,ProdSingRedo,3.2.3,59.894370348741404,
,,,,78,0,78,0,,,,,,,,,,,,,,,,,,,,,,,,1047.8145955996588,None,,,,,,,,,,,,,,,,,concern,new_a,white,78,101,65,1044.4331650994718,None,1044.4331650994718,None,5,2.420749899931252,1044.4331650994718,None,1046.8926355000585,None,1047.414283500053,None,1047.414283500053,None,f,0.3674792004749179,1047.414283500053,None,,,NC29,001,2022_Feb_17_1650,ProdSingRedo,3.2.3,59.894370348741404,
,,,,79,0,79,0,,,,,,,,,,,,,,,,,,,,,,,,1051.2879178998992,None,,,,,,,,,,,,,,,,,death,new_c,white,79,165,86,1048.3385434001684,None,1048.3385434001684,None,1,1.043410699814558,1048.3385434001684,None,1049.436509899795,None,1049.9536397000775,None,1049.9536397000775,None,r,1.308431200683117,1049.9536397000775,None,,,NC29,001,2022_Feb_17_1650,ProdSingRedo,3.2.3,59.894370348741404,
,,,,80,0,80,0,,,,,,,,,,,,,,,,,,,,,,,,1054.7553760996088,None,,,,,,,,,,,,,,,,,estate,sing,white,80,16,119,1051.8120363997295,None,1051.8120363997295,None,6,1.8338661007583141,1051.8120363997295,None,1053.6864502001554,None,1054.2081135995686,None,1054.2081135995686,None,f,0.5097386008128524,1054.2081135995686,None,,,NC29,001,2022_Feb_17_1650,ProdSingRedo,3.2.3,59.894370348741404,
,,,,81,0,81,0,,,,,,,,,,,,,,,,,,,,,,,,1057.5242494000122,None,,,,,,,,,,,,,,,,,bucket,new_c,white,81,175,33,1055.2858886001632,None,1055.2858886001632,None,1,1.008079900406301,1055.2858886001632,None,1056.3436856996268,None,1056.86130699981,None,1056.86130699981,None,r,0.632570100016892,1056.86130699981,None,,,NC29,001,2022_Feb_17_1650,ProdSingRedo,3.2.3,59.894370348741404,
,,,,82,0,82,0,,,,,,,,,,,,,,,,,,,,,,,,1061.9619135996327,None,,,,,,,,,,,,,,,,,youth,new_a,white,82,100,359,1058.0524583999068,None,1058.0524583999068,None,1,1.1535684997215867,1058.0524583999068,None,1059.2574493000284,None,1059.7717046001926,None,1059.7717046001926,None,r,2.1541084004566073,1059.7717046001926,None,,,NC29,001,2022_Feb_17_1650,ProdSingRedo,3.2.3,59.894370348741404,
,,,,83,0,83,0,,,,,,,,,,,,,,,,,,,,,,,,1067.1665067002177,None,,,,,,,,,,,,,,,,,property,new_c,white,83,179,242,1062.4894292997196,None,1062.4894292997196,None,4,2.8124382998794317,1062.4894292997196,None,1065.3498834995553,None,1065.8636515000835,None,1065.8636515000835,None,f,1.2702890997752547,1065.8636515000835,None,,,NC29,001,2022_Feb_17_1650,ProdSingRedo,3.2.3,59.894370348741404,
,,,,84,0,84,0,,,,,,,,,,,,,,,,,,,,,,,,1069.5963286999613,None,,,,,,,,,,,,,,,,,angle,new_a,white,84,92,7,1067.6898787999526,None,1067.6898787999526,None,1,0.9480066997930408,1067.6898787999526,None,1068.6865929998457,None,1069.2058611996472,None,1069.2058611996472,None,r,0.3599291006103158,1069.2058611996472,None,,,NC29,001,2022_Feb_17_1650,ProdSingRedo,3.2.3,59.894370348741404,
,,,,85,0,85,0,,,,,,,,,,,,,,,,,,,,,,,,1075.007906800136,None,,,,,,,,,,,,,,,,,raise,aloud,white,85,37,250,1070.1123307999223,None,1070.1123307999223,None,6,3.309099399484694,1070.1123307999223,None,1073.4527666997164,None,1073.9766183998436,None,1073.9766183998436,None,f,0.9971580002456903,1073.9766183998436,None,,,NC29,001,2022_Feb_17_1650,ProdSingRedo,3.2.3,59.894370348741404,
,,,,86,0,86,0,,,,,,,,,,,,,,,,,,,,,,,,1078.9959595995024,None,,,,,,,,,,,,,,,,,answer,silent,white,86,61,8,1075.5351569000632,None,1075.5351569000632,None,6,2.6067121997475624,1075.5351569000632,None,1078.1901131998748,None,1078.715912499465,None,1078.715912499465,None,f,0.2500160001218319,1078.715912499465,None,,,NC29,001,2022_Feb_17_1650,ProdSingRedo,3.2.3,59.894370348741404,
,,,,87,0,87,0,,,,,,,,,,,,,,,,,,,,,,,,1082.3164646001533,None,,,,,,,,,,,,,,,,,health,new_a,white,87,104,149,1079.5216715997085,None,1079.5216715997085,None,4,1.9322295002639294,1079.5216715997085,None,1081.4974071001634,None,1082.0181941995397,None,1082.0181941995397,None,f,0.26763520017266273,1082.0181941995397,None,,,NC29,001,2022_Feb_17_1650,ProdSingRedo,3.2.3,59.894370348741404,
,,,,88,0,88,0,,,,,,,,,,,,,,,,,,,,,,,,1089.2748074000701,None,,,,,,,,,,,,,,,,,trail,new_a,white,88,96,336,1082.840719299391,None,1082.840719299391,None,3,5.541164999827743,1082.840719299391,None,1088.4208643995225,None,1088.94193849992,None,1088.94193849992,None,n,0.3038966991007328,1088.94193849992,None,,,NC29,001,2022_Feb_17_1650,ProdSingRedo,3.2.3,59.894370348741404,
,,,,89,0,89,0,,,,,,,,,,,,,,,,,,,,,,,,1093.4612344997004,None,,,,,,,,,,,,,,,,,cross,silent,white,89,89,80,1089.7946232995018,None,1089.7946232995018,None,4,2.9313814993947744,1089.7946232995018,None,1092.7679532002658,None,1093.2827004995197,None,1093.2827004995197,None,n,0.15510230045765638,1093.2827004995197,None,,,NC29,001,2022_Feb_17_1650,ProdSingRedo,3.2.3,59.894370348741404,
,,,,90,0,90,0,,,,,,,,,,,,,,,,,,,,,,,,1098.5998120000586,None,,,,,,,,,,,,,,,,,degree,silent,white,90,85,89,1093.9860042994842,None,1093.9860042994842,None,1,3.5716787995770574,1093.9860042994842,None,1097.5950595997274,None,1098.1009021000937,None,1098.1009021000937,None,r,0.4649136997759342,1098.1009021000937,None,,,NC29,001,2022_Feb_17_1650,ProdSingRedo,3.2.3,59.894370348741404,
,,,,91,0,91,0,,,,,,,,,,,,,,,,,,,,,,,,1101.467101099901,None,,,,,,,,,,,,,,,,,entrance,silent,white,91,83,115,1099.1119582997635,None,1099.1119582997635,None,5,1.6858624005690217,1099.1119582997635,None,1100.8501921994612,None,1101.3728780001402,None,1101.3728780001402,None,f,0.07293810043483973,1101.3728780001402,None,,,NC29,001,2022_Feb_17_1650,ProdSingRedo,3.2.3,59.894370348741404,
,,,,92,0,92,0,,,,,,,,,,,,,,,,,,,,,,,,1106.3728268994018,None,,,,,,,,,,,,,,,,,error,new_a,white,92,95,117,1101.9884177995846,None,1101.9884177995846,None,3,3.2173307994380593,1101.9884177995846,None,1105.239105699584,None,1105.7537454999983,None,1105.7537454999983,None,f,0.5959022995084524,1105.7537454999983,None,,,NC29,001,2022_Feb_17_1650,ProdSingRedo,3.2.3,59.894370348741404,
,,,,93,0,93,0,,,,,,,,,,,,,,,,,,,,,,,,1110.1617529997602,None,,,,,,,,,,,,,,,,,candidate,sing,white,93,5,39,1106.8982228999957,None,1106.8982228999957,None,6,1.2517856992781162,1106.8982228999957,None,1108.191146899946,None,1108.714270199649,None,1108.714270199649,None,f,1.4195555001497269,1108.714270199649,None,,,NC29,001,2022_Feb_17_1650,ProdSingRedo,3.2.3,59.894370348741404,
,,,,94,0,94,0,,,,,,,,,,,,,,,,,,,,,,,,1115.0494035994634,None,,,,,,,,,,,,,,,,,weight,new_c,white,94,152,353,1110.6877314997837,None,1110.6877314997837,None,4,3.5181271005421877,1110.6877314997837,None,1114.2463477002457,None,1114.7684717001393,None,1114.7684717001393,None,f,0.2533112997189164,1114.7684717001393,None,,,NC29,001,2022_Feb_17_1650,ProdSingRedo,3.2.3,59.894370348741404,
,,,,95,0,95,0,,,,,,,,,,,,,,,,,,,,,,,,1117.7506340993568,None,,,,,,,,,,,,,,,,,match,silent,white,95,73,181,1115.572258000262,None,1115.572258000262,None,6,1.5534530999138951,1115.572258000262,None,1117.1659445995465,None,1117.6871064994484,None,1117.6871064994484,None,f,0.03864319995045662,1117.6871064994484,None,,,NC29,001,2022_Feb_17_1650,ProdSingRedo,3.2.3,59.894370348741404,
,,,,96,0,96,0,,,,,,,,,,,,,,,,,,,,,,,,1120.3479313999414,None,,,,,,,,,,,,,,,,,benefit,sing,white,96,19,20,1118.2801323002204,None,1118.2801323002204,None,6,1.2373783998191357,1118.2801323002204,None,1119.5609892001376,None,1120.0682985000312,None,1120.0682985000312,None,f,0.25723870005458593,1120.0682985000312,None,,,NC29,001,2022_Feb_17_1650,ProdSingRedo,3.2.3,59.894370348741404,
,,,,97,0,97,0,,,,,,,,,,,,,,,,,,,,,,,,1123.6914826994762,None,,,,,,,,,,,,,,,,,budget,silent,white,97,78,34,1120.868178599514,None,1120.868178599514,None,6,1.7535923002287745,1120.868178599514,None,1122.6757328994572,None,1123.1983814993873,None,1123.1983814993873,None,f,0.4637527000159025,1123.1983814993873,None,,,NC29,001,2022_Feb_17_1650,ProdSingRedo,3.2.3,59.894370348741404,
,,,,98,0,98,0,,,,,,,,,,,,,,,,,,,,,,,,1127.0602187002078,None,,,,,,,,,,,,,,,,,court,sing,white,98,14,75,1124.2173577994108,None,1124.2173577994108,None,6,1.9964306997135282,1124.2173577994108,None,1126.2575391000137,None,1126.7795329997316,None,1126.7795329997316,None,f,0.25840579997748137,1126.7795329997316,None,,,NC29,001,2022_Feb_17_1650,ProdSingRedo,3.2.3,59.894370348741404,
,,,,99,0,99,0,,,,,,,,,,,,,,,,,,,,,,,,1130.3980927001685,None,,,,,,,,,,,,,,,,,department,new_b,white,99,139,90,1127.5895357998088,None,1127.5895357998088,None,3,1.920215600170195,1127.5895357998088,None,1129.5557591002434,None,1130.0697705997154,None,1130.0697705997154,None,f,0.2960705002769828,1130.0697705997154,None,,,NC29,001,2022_Feb_17_1650,ProdSingRedo,3.2.3,59.894370348741404,
,,,,100,0,100,0,,,,,,,,,,,,,,,,,,,,,,,,1133.883006799966,None,,,,,,,,,,,,,,,,,goose,aloud,white,100,58,138,1130.9218132998794,None,1130.9218132998794,None,6,1.6598741002380848,1130.9218132998794,None,1132.628056500107,None,1133.1431428994983,None,1133.1431428994983,None,f,0.7189656998962164,1133.1431428994983,None,,,NC29,001,2022_Feb_17_1650,ProdSingRedo,3.2.3,59.894370348741404,
,,,,101,0,101,0,,,,,,,,,,,,,,,,,,,,,,,,1136.337204599753,None,,,,,,,,,,,,,,,,,universal,sing,white,101,2,345,1134.416293299757,None,1134.416293299757,None,6,1.1894765999168158,1134.416293299757,None,1135.649076799862,None,1136.1625159997493,None,1136.1625159997493,None,f,0.1472094999626279,1136.1625159997493,None,,,NC29,001,2022_Feb_17_1650,ProdSingRedo,3.2.3,59.894370348741404,
,,,,102,0,102,0,,,,,,,,,,,,,,,,,,,,,,,,1139.7251439997926,None,,,,,,,,,,,,,,,,,payment,new_b,white,102,132,215,1136.8637258000672,None,1136.8637258000672,None,6,2.006041300483048,1136.8637258000672,None,1138.923195399344,None,1139.4427034994587,None,1139.4427034994587,None,f,0.2590444004163146,1139.4427034994587,None,,,NC29,001,2022_Feb_17_1650,ProdSingRedo,3.2.3,59.894370348741404,
,,,,103,0,103,0,,,,,,,,,,,,,,,,,,,,,,,,1143.54172619991,None,,,,,,,,,,,,,,,,,danger,silent,white,103,81,85,1140.2510693995282,None,1140.2510693995282,None,4,2.1865654001012444,1140.2510693995282,None,1142.4940308993682,None,1143.0156061993912,None,1143.0156061993912,None,f,0.49417709931731224,1143.0156061993912,None,,,NC29,001,2022_Feb_17_1650,ProdSingRedo,3.2.3,59.894370348741404,
,,,,104,0,104,0,,,,,,,,,,,,,,,,,,,,,,,,1146.3473004996777,None,,,,,,,,,,,,,,,,,individual,new_b,white,104,147,160,1144.0686029996723,None,1144.0686029996723,None,5,1.3848348995670676,1144.0686029996723,None,1145.4831261001527,None,1146.0044912993908,None,1146.0044912993908,None,n,0.30520099960267544,1146.0044912993908,None,,,NC29,001,2022_Feb_17_1650,ProdSingRedo,3.2.3,59.894370348741404,
,,,,105,0,105,0,,,,,,,,,,,,,,,,,,,,,,,,1150.6995588000864,None,,,,,,,,,,,,,,,,,range,sing,white,105,0,251,1146.8756369994953,None,1146.8756369994953,None,6,2.9700693003833294,1146.8756369994953,None,1149.8951538000256,None,1150.4218851001933,None,1150.4218851001933,None,f,0.25604220014065504,1150.4218851001933,None,,,NC29,001,2022_Feb_17_1650,ProdSingRedo,3.2.3,59.894370348741404,
,,,,106,0,106,0,,,,,,,,,,,,,,,,,,,,,,,,1154.1218398995697,None,,,,,,,,,,,,,,,,,profession,silent,white,106,74,241,1151.226924199611,None,1151.226924199611,None,1,1.8026527995243669,1151.226924199611,None,1153.0685847997665,None,1153.5914738997817,None,1153.5914738997817,None,n,0.5022812001407146,1153.5914738997817,None,,,NC29,001,2022_Feb_17_1650,ProdSingRedo,3.2.3,59.894370348741404,
,,,,107,0,107,0,,,,,,,,,,,,,,,,,,,,,,,,1159.8764186995104,None,,,,,,,,,,,,,,,,,fight,silent,white,107,67,127,1154.648669200018,None,1154.648669200018,None,2,3.14113790076226,1154.648669200018,None,1157.8402429996058,None,1158.3684339001775,None,1158.3684339001775,None,f,1.4854087000712752,1158.3684339001775,None,,,NC29,001,2022_Feb_17_1650,ProdSingRedo,3.2.3,59.894370348741404,
,,,,108,0,108,0,,,,,,,,,,,,,,,,,,,,,,,,1168.8286303998902,None,,,,,,,,,,,,,,,,,ground,aloud,white,108,54,142,1160.403449899517,None,1160.403449899517,None,3,6.282282000407577,1160.403449899517,None,1166.733825800009,None,1167.2562889996916,None,1167.2562889996916,None,f,1.5414620004594326,1167.2562889996916,None,,,NC29,001,2022_Feb_17_1650,ProdSingRedo,3.2.3,59.894370348741404,
,,,,109,0,109,0,,,,,,,,,,,,,,,,,,,,,,,,1171.7558233998716,None,,,,,,,,,,,,,,,,,right,silent,white,109,70,265,1169.3444957993925,None,1169.3444957993925,None,1,1.5413413997739553,1169.3444957993925,None,1170.9378683995456,None,1171.4553519999608,None,1171.4553519999608,None,r,0.2703461004421115,1171.4553519999608,None,,,NC29,001,2022_Feb_17_1650,ProdSingRedo,3.2.3,59.894370348741404,
,,,,110,0,110,0,,,,,,,,,,,,,,,,,,,,,,,,1175.6425588000566,None,,,,,,,,,,,,,,,,,victory,new_c,white,110,168,346,1172.2835860997438,None,1172.2835860997438,None,1,1.6340522998943925,1172.2835860997438,None,1173.9530139993876,None,1174.4785086000338,None,1174.4785086000338,None,r,1.127221300266683,1174.4785086000338,None,,,NC29,001,2022_Feb_17_1650,ProdSingRedo,3.2.3,59.894370348741404,
,,,,111,0,111,0,,,,,,,,,,,,,,,,,,,,,,,,1179.6928958995268,None,,,,,,,,,,,,,,,,,discussion,new_a,white,111,98,96,1176.1694089993834,None,1176.1694089993834,None,3,1.5482507003471255,1176.1694089993834,None,1177.7592244995758,None,1178.2824919996783,None,1178.2824919996783,None,r,1.379067100584507,1178.2824919996783,None,,,NC29,001,2022_Feb_17_1650,ProdSingRedo,3.2.3,59.894370348741404,
,,,,112,0,112,0,,,,,,,,,,,,,,,,,,,,,,,,1186.4529257994145,None,,,,,,,,,,,,,,,,,debate,new_b,white,112,133,87,1180.2196790995076,None,1180.2196790995076,None,3,3.289883599616587,1180.2196790995076,None,1183.5487779993564,None,1184.071433399804,None,1184.071433399804,None,f,2.350191700272262,1184.071433399804,None,,,NC29,001,2022_Feb_17_1650,ProdSingRedo,3.2.3,59.894370348741404,
,,,,113,0,113,0,,,,,,,,,,,,,,,,,,,,,,,,1192.6089592995122,None,,,,,,,,,,,,,,,,,broad,new_c,white,113,166,31,1186.9864817000926,None,1186.9864817000926,None,4,2.8113314993679523,1186.9864817000926,None,1189.8436249000952,None,1190.34613860026,None,1190.34613860026,None,r,2.227572599425912,1190.34613860026,None,,,NC29,001,2022_Feb_17_1650,ProdSingRedo,3.2.3,59.894370348741404,
,,,,114,0,114,0,,,,,,,,,,,,,,,,,,,,,,,,1196.7977272998542,None,,,,,,,,,,,,,,,,,husband,new_b,white,114,131,156,1193.1253027999774,None,1193.1253027999774,None,1,2.7204946000128984,1193.1253027999774,None,1195.9017342999578,None,1196.4217889001593,None,1196.4217889001593,None,r,0.3437620000913739,1196.4217889001593,None,,,NC29,001,2022_Feb_17_1650,ProdSingRedo,3.2.3,59.894370348741404,
,,,,115,0,115,0,,,,,,,,,,,,,,,,,,,,,,,,1200.718309099786,None,,,,,,,,,,,,,,,,,article,sing,white,115,8,11,1197.3191521000117,None,1197.3191521000117,None,1,2.2144595002755523,1197.3191521000117,None,1199.5832677995786,None,1200.1026547001675,None,1200.1026547001675,None,f,0.5909535000100732,1200.1026547001675,None,,,NC29,001,2022_Feb_17_1650,ProdSingRedo,3.2.3,59.894370348741404,
,,,,116,0,116,0,,,,,,,,,,,,,,,,,,,,,,,,1205.4881966002285,None,,,,,,,,,,,,,,,,,century,new_b,white,116,128,45,1201.245222499594,None,1201.245222499594,None,3,3.240472199395299,1201.245222499594,None,1204.5406868997961,None,1205.0581908002496,None,1205.0581908002496,None,f,0.3953609000891447,1205.0581908002496,None,,,NC29,001,2022_Feb_17_1650,ProdSingRedo,3.2.3,59.894370348741404,
,,,,117,0,117,0,,,,,,,,,,,,,,,,,,,,,,,,1209.224980900064,None,,,,,,,,,,,,,,,,,reading,silent,white,117,64,254,1206.0168849993497,None,1206.0168849993497,None,2,1.908716700039804,1206.0168849993497,None,1207.9763358999044,None,1208.496554799378,None,1208.496554799378,None,f,0.6930435001850128,1208.496554799378,None,,,NC29,001,2022_Feb_17_1650,ProdSingRedo,3.2.3,59.894370348741404,
,,,,118,0,118,0,,,,,,,,,,,,,,,,,,,,,,,,1219.9207494994625,None,,,,,,,,,,,,,,,,,private,silent,white,118,84,237,1209.7532131001353,None,1209.7532131001353,None,4,8.788286900147796,1209.7532131001353,None,1218.5855280999094,None,1219.091143200174,None,1219.091143200174,None,f,0.8026920994743705,1219.091143200174,None,,,NC29,001,2022_Feb_17_1650,ProdSingRedo,3.2.3,59.894370348741404,
,,,,119,0,119,0,,,,,,,,,,,,,,,,,,,,,,,,1228.4950216999277,None,,,,,,,,,,,,,,,,,atmosphere,new_c,white,119,153,12,1220.4444675995037,None,1220.4444675995037,None,1,1.8486975999549031,1220.4444675995037,None,1222.3151463000104,None,1222.8198402002454,None,1222.8198402002454,None,n,5.641725200228393,1222.8198402002454,None,,,NC29,001,2022_Feb_17_1650,ProdSingRedo,3.2.3,59.894370348741404,
,,,,120,0,120,0,,,,,,,,,,,,,,,,,,,,,,,,1231.5991017995402,None,,,,,,,,,,,,,,,,,member,new_b,white,120,122,188,1229.0219427002594,None,1229.0219427002594,None,5,1.7275647995993495,1229.0219427002594,None,1230.7948121996596,None,1231.3001747000962,None,1231.3001747000962,None,f,0.26527190022170544,1231.3001747000962,None,,,NC29,001,2022_Feb_17_1650,ProdSingRedo,3.2.3,59.894370348741404,
,,,,121,0,121,0,,,,,,,,,,,,,,,,,,,,,,,,1235.0345003996044,None,,,,,,,,,,,,,,,,,strain,new_a,white,121,97,308,1232.1214164001867,None,1232.1214164001867,None,4,2.196369799785316,1232.1214164001867,None,1234.3662620000541,None,1234.8889867002144,None,1234.8889867002144,None,f,0.11667419970035553,1234.8889867002144,None,,,NC29,001,2022_Feb_17_1650,ProdSingRedo,3.2.3,59.894370348741404,
,,,,122,0,122,0,,,,,,,,,,,,,,,,,,,,,,,,1238.1888283994049,None,,,,,,,,,,,,,,,,,dance,new_c,white,122,177,84,1235.5611237995327,None,1235.5611237995327,None,1,1.5167052000761032,1235.5611237995327,None,1237.118193499744,None,1237.624411699362,None,1237.624411699362,None,n,0.5331154996529222,1237.624411699362,None,,,NC29,001,2022_Feb_17_1650,ProdSingRedo,3.2.3,59.894370348741404,
,,,,123,0,123,0,,,,,,,,,,,,,,,,,,,,,,,,1246.49653499946,None,,,,,,,,,,,,,,,,,couch,sing,white,123,27,70,1238.7144256997854,None,1238.7144256997854,None,4,7.003079200163484,1238.7144256997854,None,1245.7606809996068,None,1246.2794739995152,None,1246.2794739995152,None,f,0.18205010052770376,1246.2794739995152,None,,,NC29,001,2022_Feb_17_1650,ProdSingRedo,3.2.3,59.894370348741404,
,,,,124,0,124,0,,,,,,,,,,,,,,,,,,,,,,,,1249.7502405997366,None,,,,,,,,,,,,,,,,,rapid,new_c,white,124,156,252,1247.0221052002162,None,1247.0221052002162,None,1,1.4074691999703646,1247.0221052002162,None,1248.4798475997522,None,1249.0025298995897,None,1249.0025298995897,None,n,0.7229077992960811,1249.0025298995897,None,,,NC29,001,2022_Feb_17_1650,ProdSingRedo,3.2.3,59.894370348741404,
,,,,125,0,125,0,,,,,,,,,,,,,,,,,,,,,,,,1252.9187878994271,None,,,,,,,,,,,,,,,,,design,aloud,white,125,45,91,1250.2763000000268,None,1250.2763000000268,None,6,1.7931449003517628,1250.2763000000268,None,1252.123785099946,None,1252.621803799644,None,1252.621803799644,None,f,0.27186170034110546,1252.621803799644,None,,,NC29,001,2022_Feb_17_1650,ProdSingRedo,3.2.3,59.894370348741404,
,,,,126,0,126,0,,,,,,,,,,,,,,,,,,,,,,,,1256.07060000021,None,,,,,,,,,,,,,,,,,research,sing,white,126,22,261,1253.4327374994755,None,1253.4327374994755,None,6,1.7566953003406525,1253.4327374994755,None,1255.2392758997157,None,1255.756612399593,None,1255.756612399593,None,f,0.2809348003938794,1255.756612399593,None,,,NC29,001,2022_Feb_17_1650,ProdSingRedo,3.2.3,59.894370348741404,
,,,,127,0,127,0,,,,,,,,,,,,,,,,,,,,,,,,1259.476137300022,None,,,,,,,,,,,,,,,,,captain,new_a,white,127,116,41,1256.5986075000837,None,1256.5986075000837,None,1,1.3508969992399216,1256.5986075000837,None,1257.9942400995642,None,1258.513509299606,None,1258.513509299606,None,n,0.9398657996207476,1258.513509299606,None,,,NC29,001,2022_Feb_17_1650,ProdSingRedo,3.2.3,59.894370348741404,
,,,,128,0,128,0,,,,,,,,,,,,,,,,,,,,,,,,1267.6839089998975,None,,,,,,,,,,,,,,,,,people,silent,white,128,87,216,1259.9967610994354,None,1259.9967610994354,None,3,6.328623699955642,1259.9967610994354,None,1266.361369099468,None,1266.8820656994358,None,1266.8820656994358,None,n,0.779717399738729,1266.8820656994358,None,,,NC29,001,2022_Feb_17_1650,ProdSingRedo,3.2.3,59.894370348741404,
,,,,129,0,129,0,,,,,,,,,,,,,,,,,,,,,,,,1273.4899477995932,None,,,,,,,,,,,,,,,,,audience,new_b,white,129,125,14,1268.212245799601,None,1268.212245799601,None,1,3.745429399423301,1268.212245799601,None,1272.004955499433,None,1272.5237314002588,None,1272.5237314002588,None,n,0.9297457002103329,1272.5237314002588,None,,,NC29,001,2022_Feb_17_1650,ProdSingRedo,3.2.3,59.894370348741404,
,,,,130,0,130,0,,,,,,,,,,,,,,,,,,,,,,,,1282.8658112995327,None,,,,,,,,,,,,,,,,,society,new_b,white,130,149,293,1274.0161009002477,None,1274.0161009002477,None,5,8.189315299503505,1274.0161009002477,None,1282.2444866998121,None,1282.7518545994535,None,1282.7518545994535,None,n,0.085423500277102,1282.7518545994535,None,,,NC29,001,2022_Feb_17_1650,ProdSingRedo,3.2.3,59.894370348741404,
,,,,131,0,131,0,,,,,,,,,,,,,,,,,,,,,,,,1285.368554700166,None,,,,,,,,,,,,,,,,,salary,new_c,white,131,167,271,1283.3873865995556,None,1283.3873865995556,None,1,1.2020145002752542,1283.3873865995556,None,1284.6515779001638,None,1285.1573369996622,None,1285.1573369996622,None,n,0.17636479996144772,1285.1573369996622,None,,,NC29,001,2022_Feb_17_1650,ProdSingRedo,3.2.3,59.894370348741404,
,,,,132,0,132,0,,,,,,,,,,,,,,,,,,,,,,,,1288.8059939993545,None,,,,,,,,,,,,,,,,,distance,new_a,white,132,115,100,1285.8972418997437,None,1285.8972418997437,None,4,2.188254499807954,1285.8972418997437,None,1288.1326216999441,None,1288.6419182000682,None,1288.6419182000682,None,n,0.13148090057075024,1288.6419182000682,None,,,NC29,001,2022_Feb_17_1650,ProdSingRedo,3.2.3,59.894370348741404,
,,,,133,0,133,0,,,,,,,,,,,,,,,,,,,,,,,,1292.6585786994547,None,,,,,,,,,,,,,,,,,season,new_b,white,133,142,277,1289.3318443996832,None,1289.3318443996832,None,5,2.585589399561286,1289.3318443996832,None,1291.9583091000095,None,1292.4769815001637,None,1292.4769815001637,None,f,0.15235650073736906,1292.4769815001637,None,,,NC29,001,2022_Feb_17_1650,ProdSingRedo,3.2.3,59.894370348741404,
,,,,134,0,134,0,,,,,,,,,,,,,,,,,,,,,,,,1295.7787450999022,None,,,,,,,,,,,,,,,,,murder,new_c,white,134,171,195,1293.1845402000472,None,1293.1845402000472,None,1,1.5408971002325416,1293.1845402000472,None,1294.7744573000818,None,1295.280746099539,None,1295.280746099539,None,r,0.4686046000570059,1295.280746099539,None,,,NC29,001,2022_Feb_17_1650,ProdSingRedo,3.2.3,59.894370348741404,
,,,,135,0,135,0,,,,,,,,,,,,,,,,,,,,,,,,1300.1332890000194,None,,,,,,,,,,,,,,,,,disease,new_a,white,135,105,97,1296.2973703993484,None,1296.2973703993484,None,3,2.8520657001063228,1296.2973703993484,None,1299.19695999939,None,1299.7043456993997,None,1299.7043456993997,None,r,0.40497579984366894,1299.7043456993997,None,,,NC29,001,2022_Feb_17_1650,ProdSingRedo,3.2.3,59.894370348741404,
,,,,136,0,136,0,,,,,,,,,,,,,,,,,,,,,,,,1304.0795093998313,None,,,,,,,,,,,,,,,,,population,sing,white,136,24,227,1300.6639209995046,None,1300.6639209995046,None,6,2.261520800180733,1300.6639209995046,None,1302.9720724998042,None,1303.4815186997876,None,1303.4815186997876,None,f,0.5560576999559999,1303.4815186997876,None,,,NC29,001,2022_Feb_17_1650,ProdSingRedo,3.2.3,59.894370348741404,
,,,,137,0,137,0,,,,,,,,,,,,,,,,,,,,,,,,1310.845445100218,None,,,,,,,,,,,,,,,,,place,new_c,white,137,159,222,1304.5992077998817,None,1304.5992077998817,None,3,5.598123800009489,1304.5992077998817,None,1310.2383997999132,None,1310.7629233999178,None,1310.7629233999178,None,n,0.05844589974731207,1310.7629233999178,None,,,NC29,001,2022_Feb_17_1650,ProdSingRedo,3.2.3,59.894370348741404,
,,,,138,0,138,0,,,,,,,,,,,,,,,,,,,,,,,,1313.5562196997926,None,,,,,,,,,,,,,,,,,sweet,new_b,white,138,141,319,1311.3739395001903,None,1311.3739395001903,None,1,1.223467600531876,1311.3739395001903,None,1312.6403807997704,None,1313.1559720002115,None,1313.1559720002115,None,f,0.36903980001807213,1313.1559720002115,None,,,NC29,001,2022_Feb_17_1650,ProdSingRedo,3.2.3,59.894370348741404,
,,,,139,0,139,0,,,,,,,,,,,,,,,,,,,,,,,,1322.671205099672,None,,,,,,,,,,,,,,,,,brilliant,aloud,white,139,55,30,1314.075444799848,None,1314.075444799848,None,6,7.714165699668229,1314.075444799848,None,1321.844967099838,None,1322.35876119975,None,1322.35876119975,None,f,0.2785529000684619,1322.35876119975,None,,,NC29,001,2022_Feb_17_1650,ProdSingRedo,3.2.3,59.894370348741404,
,,,,140,0,140,0,,,,,,,,,,,,,,,,,,,,,,,,1325.8758117994294,None,,,,,,,,,,,,,,,,,principal,new_a,white,140,112,236,1323.197349799797,None,1323.197349799797,None,6,1.9120125994086266,1323.197349799797,None,1325.159860899672,None,1325.6787909995764,None,1325.6787909995764,None,f,0.1586518995463848,1325.6787909995764,None,,,NC29,001,2022_Feb_17_1650,ProdSingRedo,3.2.3,59.894370348741404,
,,,,141,0,141,0,,,,,,,,,,,,,,,,,,,,,,,,1333.3161221994087,None,,,,,,,,,,,,,,,,,working,new_c,white,141,163,357,1326.4049618002027,None,1326.4049618002027,None,3,6.064413099549711,1326.4049618002027,None,1332.5176283996552,None,1333.0234588999301,None,1333.0234588999301,None,f,0.26996459998190403,1333.0234588999301,None,,,NC29,001,2022_Feb_17_1650,ProdSingRedo,3.2.3,59.894370348741404,
,,,,142,0,142,0,,,,,,,,,,,,,,,,,,,,,,,,1336.2367623997852,None,,,,,,,,,,,,,,,,,blind,sing,white,142,26,24,1333.8408234994859,None,1333.8408234994859,None,6,1.6687082005664706,1333.8408234994859,None,1335.5500342994928,None,1336.0679185995832,None,1336.0679185995832,None,f,0.1374345999211073,1336.0679185995832,None,,,NC29,001,2022_Feb_17_1650,ProdSingRedo,3.2.3,59.894370348741404,
,,,,143,0,143,0,,,,,,,,,,,,,,,,,,,,,,,,1339.3563259001821,None,,,,,,,,,,,,,,,,,employment,new_a,white,143,117,111,1336.7617774000391,None,1336.7617774000391,None,6,1.883589300327003,1336.7617774000391,None,1338.6887104995549,None,1339.211273400113,None,1339.211273400113,None,f,0.1140126995742321,1339.211273400113,None,,,NC29,001,2022_Feb_17_1650,ProdSingRedo,3.2.3,59.894370348741404,
,,,,144,0,144,0,,,,,,,,,,,,,,,,,,,,,,,,1343.7030799994245,None,,,,,,,,,,,,,,,,,block,silent,white,144,65,25,1339.8790287999436,None,1339.8790287999436,None,1,2.1984050003811717,1339.8790287999436,None,1342.125320499763,None,1342.6338529000059,None,1342.6338529000059,None,n,1.0511850994080305,1342.6338529000059,None,,,NC29,001,2022_Feb_17_1650,ProdSingRedo,3.2.3,59.894370348741404,
,,,,145,0,145,0,,,,,,,,,,,,,,,,,,,,,,,,1346.6890671998262,None,,,,,,,,,,,,,,,,,thing,new_b,white,145,136,328,1344.2191826002672,None,1344.2191826002672,None,1,1.8017974998801947,1344.2191826002672,None,1346.0384423993528,None,1346.5442167995498,None,1346.5442167995498,None,r,0.11673329956829548,1346.5442167995498,None,,,NC29,001,2022_Feb_17_1650,ProdSingRedo,3.2.3,59.894370348741404,
,,,,146,0,146,0,,,,,,,,,,,,,,,,,,,,,,,,1349.932198099792,None,,,,,,,,,,,,,,,,,chief,new_c,white,146,151,48,1347.2058498002589,None,1347.2058498002589,None,1,1.6474826000630856,1347.2058498002589,None,1348.8945188000798,None,1349.4050985993817,None,1349.4050985993817,None,r,0.504305200651288,1349.4050985993817,None,,,NC29,001,2022_Feb_17_1650,ProdSingRedo,3.2.3,59.894370348741404,
,,,,147,0,147,0,,,,,,,,,,,,,,,,,,,,,,,,1353.2203265000135,None,,,,,,,,,,,,,,,,,smooth,silent,white,147,60,292,1350.4604124994949,None,1350.4604124994949,None,5,2.096887399442494,1350.4604124994949,None,1352.5958143994212,None,1353.102226600051,None,1353.102226600051,None,f,0.08710059989243746,1353.102226600051,None,,,NC29,001,2022_Feb_17_1650,ProdSingRedo,3.2.3,59.894370348741404,
,,,,148,0,148,0,,,,,,,,,,,,,,,,,,,,,,,,1358.2903044996783,None,,,,,,,,,,,,,,,,,still,new_a,white,148,111,304,1353.7413062993437,None,1353.7413062993437,None,1,2.671975899487734,1353.7413062993437,None,1356.4516877001151,None,1356.9744041999802,None,1356.9744041999802,None,r,1.2788295997306705,1356.9744041999802,None,,,NC29,001,2022_Feb_17_1650,ProdSingRedo,3.2.3,59.894370348741404,
,,,,149,0,149,0,,,,,,,,,,,,,,,,,,,,,,,,1361.061452999711,None,,,,,,,,,,,,,,,,,instrument,sing,white,149,29,163,1358.8179155997932,None,1358.8179155997932,None,6,1.3394066002219915,1358.8179155997932,None,1360.2100601000711,None,1360.7292697997764,None,1360.7292697997764,None,f,0.30004149954766035,1360.7292697997764,None,,,NC29,001,2022_Feb_17_1650,ProdSingRedo,3.2.3,59.894370348741404,
,,,,150,0,150,0,,,,,,,,,,,,,,,,,,,,,,,,1368.1341667994857,None,,,,,,,,,,,,,,,,,territory,new_c,white,150,176,324,1361.5873393993825,None,1361.5873393993825,None,1,2.5380174005404115,1361.5873393993825,None,1364.1584336999804,None,1364.6821437999606,None,1364.6821437999606,None,r,3.4193245004862547,1364.6821437999606,None,,,NC29,001,2022_Feb_17_1650,ProdSingRedo,3.2.3,59.894370348741404,
,,,,151,0,151,0,,,,,,,,,,,,,,,,,,,,,,,,1372.254905300215,None,,,,,,,,,,,,,,,,,skill,new_a,white,151,118,289,1368.6600618995726,None,1368.6600618995726,None,1,1.617425300180912,1368.6600618995726,None,1370.317475600168,None,1370.8379550995305,None,1370.8379550995305,None,r,1.3834408996626735,1370.8379550995305,None,,,NC29,001,2022_Feb_17_1650,ProdSingRedo,3.2.3,59.894370348741404,
,,,,152,0,152,0,,,,,,,,,,,,,,,,,,,,,,,,1375.343427799642,None,,,,,,,,,,,,,,,,,surprise,silent,white,152,76,317,1372.7842824999243,None,1372.7842824999243,None,6,1.3729637991636992,1372.7842824999243,None,1374.2019720999524,None,1374.7283381000161,None,1374.7283381000161,None,f,0.5808816999197006,1374.7283381000161,None,,,NC29,001,2022_Feb_17_1650,ProdSingRedo,3.2.3,59.894370348741404,
,,,,153,0,153,0,,,,,,,,,,,,,,,,,,,,,,,,1380.8149779997766,None,,,,,,,,,,,,,,,,,voice,new_b,white,153,145,348,1375.8675680998713,None,1375.8675680998713,None,6,4.0256133005023,1375.8675680998713,None,1379.9483805997297,None,1380.4638280998915,None,1380.4638280998915,None,f,0.31749030016362667,1380.4638280998915,None,,,NC29,001,2022_Feb_17_1650,ProdSingRedo,3.2.3,59.894370348741404,
,,,,154,0,154,0,,,,,,,,,,,,,,,,,,,,,,,,1383.8842327995226,None,,,,,,,,,,,,,,,,,pancakes,new_b,white,154,121,210,1381.3425532002002,None,1381.3425532002002,None,1,1.4309033993631601,1381.3425532002002,None,1382.813202499412,None,1383.342039800249,None,1383.342039800249,None,r,0.5112334992736578,1383.342039800249,None,,,NC29,001,2022_Feb_17_1650,ProdSingRedo,3.2.3,59.894370348741404,
,,,,155,0,155,0,,,,,,,,,,,,,,,,,,,,,,,,1388.7723337002099,None,,,,,,,,,,,,,,,,,measure,silent,white,155,75,184,1384.4131811000407,None,1384.4131811000407,None,4,3.5120518999174237,1384.4131811000407,None,1387.9702396001667,None,1388.4862134000286,None,1388.4862134000286,None,f,0.26303229946643114,1388.4862134000286,None,,,NC29,001,2022_Feb_17_1650,ProdSingRedo,3.2.3,59.894370348741404,
,,,,156,0,156,0,,,,,,,,,,,,,,,,,,,,,,,,1393.6609180998057,None,,,,,,,,,,,,,,,,,agency,aloud,white,156,38,4,1389.2994013996795,None,1389.2994013996795,None,6,1.8019556002691388,1389.2994013996795,None,1391.1395466001704,None,1391.6593284001574,None,1391.6593284001574,None,f,1.969871200621128,1391.6593284001574,None,,,NC29,001,2022_Feb_17_1650,ProdSingRedo,3.2.3,59.894370348741404,
,,,,157,0,157,0,,,,,,,,,,,,,,,,,,,,,,,,1396.179223199375,None,,,,,,,,,,,,,,,,,session,sing,white,157,21,281,1394.1812312994152,None,1394.1812312994152,None,6,1.1520028002560139,1394.1812312994152,None,1395.374235299416,None,1395.8938931999728,None,1395.8938931999728,None,f,0.2552935993298888,1395.8938931999728,None,,,NC29,001,2022_Feb_17_1650,ProdSingRedo,3.2.3,59.894370348741404,
,,,,158,0,158,0,,,,,,,,,,,,,,,,,,,,,,,,1406.472712399438,None,,,,,,,,,,,,,,,,,period,new_a,white,158,108,217,1396.701745099388,None,1396.701745099388,None,4,8.935330799780786,1396.701745099388,None,1405.6842420995235,None,1406.198749099858,None,1406.198749099858,None,f,0.23848519939929247,1406.198749099858,None,,,NC29,001,2022_Feb_17_1650,ProdSingRedo,3.2.3,59.894370348741404,
,,,,159,0,159,0,,,,,,,,,,,,,,,,,,,,,,,,1410.5476738000289,None,,,,,,,,,,,,,,,,,quantity,new_c,white,159,178,245,1406.9826815994456,None,1406.9826815994456,None,6,2.974560900591314,1406.9826815994456,None,1410.0115174995735,None,1410.5292007001117,None,1410.5292007001117,None,f,0.0037557007744908333,1410.5292007001117,None,,,NC29,001,2022_Feb_17_1650,ProdSingRedo,3.2.3,59.894370348741404,
,,,,160,0,160,0,,,,,,,,,,,,,,,,,,,,,,,,1413.9624849995598,None,,,,,,,,,,,,,,,,,brief,sing,white,160,4,28,1411.0705094002187,None,1411.0705094002187,None,4,2.246665400452912,1411.0705094002187,None,1413.3609162997454,None,1413.8830926995724,None,1413.8830926995724,None,f,0.04978189989924431,1413.8830926995724,None,,,NC29,001,2022_Feb_17_1650,ProdSingRedo,3.2.3,59.894370348741404,
,,,,161,0,161,0,,,,,,,,,,,,,,,,,,,,,,,,1416.2671219995245,None,,,,,,,,,,,,,,,,,committee,aloud,white,161,57,62,1414.4841828998178,None,1414.4841828998178,None,4,1.2009944003075361,1414.4841828998178,None,1415.7241289997473,None,1416.2330476995558,None,1416.2330476995558,None,f,0.004118800163269043,1416.2330476995558,None,,,NC29,001,2022_Feb_17_1650,ProdSingRedo,3.2.3,59.894370348741404,
,,,,162,0,162,0,,,,,,,,,,,,,,,,,,,,,,,,1419.5481000998989,None,,,,,,,,,,,,,,,,,bright,new_a,white,162,106,29,1416.7939524995163,None,1416.7939524995163,None,6,2.1632286002859473,1416.7939524995163,None,1418.9978839997202,None,1419.524123299867,None,1419.524123299867,None,f,0.008736700750887394,1419.524123299867,None,,,NC29,001,2022_Feb_17_1650,ProdSingRedo,3.2.3,59.894370348741404,
,,,,163,0,163,0,,,,,,,,,,,,,,,,,,,,,,,,1422.505109399557,None,,,,,,,,,,,,,,,,,conference,aloud,white,163,41,66,1420.079869300127,None,1420.079869300127,None,6,1.7812247993424535,1420.079869300127,None,1421.9042481994256,None,1422.4082776997238,None,1422.4082776997238,None,f,0.06893830001354218,1422.4082776997238,None,,,NC29,001,2022_Feb_17_1650,ProdSingRedo,3.2.3,59.894370348741404,
,,,,164,0,164,0,,,,,,,,,,,,,,,,,,,,,,,,1428.3790112994611,None,,,,,,,,,,,,,,,,,native,aloud,white,164,32,199,1423.0385774997994,None,1423.0385774997994,None,6,4.67859369982034,1423.0385774997994,None,1427.7565380996093,None,1428.2677317000926,None,1428.2677317000926,None,f,0.08141189999878407,1428.2677317000926,None,,,NC29,001,2022_Feb_17_1650,ProdSingRedo,3.2.3,59.894370348741404,
,,,,165,0,165,0,,,,,,,,,,,,,,,,,,,,,,,,1432.4258829001337,None,,,,,,,,,,,,,,,,,citizen,new_a,white,165,93,50,1428.9078505001962,None,1428.9078505001962,None,5,2.912894300185144,1428.9078505001962,None,1431.8409671001136,None,1432.3415137995034,None,1432.3415137995034,None,f,0.047395600005984306,1432.3415137995034,None,,,NC29,001,2022_Feb_17_1650,ProdSingRedo,3.2.3,59.894370348741404,
,,,,166,0,166,0,,,,,,,,,,,,,,,,,,,,,,,,1435.4396591996774,None,,,,,,,,,,,,,,,,,engineer,silent,white,166,66,114,1432.9395773001015,None,1432.9395773001015,None,1,1.6419174000620842,1432.9395773001015,None,1434.625592599623,None,1435.1400335999206,None,1435.1400335999206,None,f,0.2730117002502084,1435.1400335999206,None,,,NC29,001,2022_Feb_17_1650,ProdSingRedo,3.2.3,59.894370348741404,
,,,,167,0,167,0,,,,,,,,,,,,,,,,,,,,,,,,1438.336283300072,None,,,,,,,,,,,,,,,,,evidence,sing,white,167,20,120,1435.9612221997231,None,1435.9612221997231,None,5,1.6360157001763582,1435.9612221997231,None,1437.6377528002486,None,1438.1409630002454,None,1438.1409630002454,None,f,0.16017329972237349,1438.1409630002454,None,,,NC29,001,2022_Feb_17_1650,ProdSingRedo,3.2.3,59.894370348741404,
,,,,168,0,168,0,,,,,,,,,,,,,,,,,,,,,,,,1442.2239961996675,None,,,,,,,,,,,,,,,,,junior,aloud,white,168,47,167,1438.8663718001917,None,1438.8663718001917,None,6,2.4827044997364283,1438.8663718001917,None,1441.3909497996792,None,1441.9110123999417,None,1441.9110123999417,None,f,0.2781480997800827,1441.9110123999417,None,,,NC29,001,2022_Feb_17_1650,ProdSingRedo,3.2.3,59.894370348741404,
,,,,169,0,169,0,,,,,,,,,,,,,,,,,,,,,,,,1445.3266170993447,None,,,,,,,,,,,,,,,,,sunset,sing,white,169,12,315,1442.748997299932,None,1442.748997299932,None,1,1.280095899477601,1442.748997299932,None,1444.071086799726,None,1444.5721247997135,None,1444.5721247997135,None,r,0.7209990993142128,1444.5721247997135,None,,,NC29,001,2022_Feb_17_1650,ProdSingRedo,3.2.3,59.894370348741404,
,,,,170,0,170,0,,,,,,,,,,,,,,,,,,,,,,,,1448.9302289001644,None,,,,,,,,,,,,,,,,,bureau,new_b,white,170,124,37,1445.8542762994766,None,1445.8542762994766,None,1,1.2308914000168443,1445.8542762994766,None,1447.1320438999683,None,1447.6512508001179,None,1447.6512508001179,None,r,1.2579944003373384,1447.6512508001179,None,,,NC29,001,2022_Feb_17_1650,ProdSingRedo,3.2.3,59.894370348741404,
,,,,171,0,171,0,,,,,,,,,,,,,,,,,,,,,,,,1452.6027127001435,None,,,,,,,,,,,,,,,,,interior,new_b,white,171,134,164,1449.4530969997868,None,1449.4530969997868,None,2,2.167978400364518,1449.4530969997868,None,1451.662515499629,None,1452.184478899464,None,1452.184478899464,None,r,0.3885745005682111,1452.184478899464,None,,,NC29,001,2022_Feb_17_1650,ProdSingRedo,3.2.3,59.894370348741404,
,,,,172,0,172,0,,,,,,,,,,,,,,,,,,,,,,,,1459.3096373993903,None,,,,,,,,,,,,,,,,,stranger,aloud,white,172,56,309,1453.12886099983,None,1453.12886099983,None,4,5.340177400037646,1453.12886099983,None,1458.5253421999514,None,1459.0314400000498,None,1459.0314400000498,None,f,0.2538363002240658,1459.0314400000498,None,,,NC29,001,2022_Feb_17_1650,ProdSingRedo,3.2.3,59.894370348741404,
,,,,173,0,173,0,,,,,,,,,,,,,,,,,,,,,,,,1465.774646899663,None,,,,,,,,,,,,,,,,,industry,sing,white,173,10,161,1459.8445927994326,None,1459.8445927994326,None,4,4.82449690066278,1459.8445927994326,None,1464.709038999863,None,1465.2188130002469,None,1465.2188130002469,None,f,0.5301598003134131,1465.2188130002469,None,,,NC29,001,2022_Feb_17_1650,ProdSingRedo,3.2.3,59.894370348741404,
,,,,174,0,174,0,,,,,,,,,,,,,,,,,,,,,,,,1469.1457102997229,None,,,,,,,,,,,,,,,,,literature,new_c,white,174,172,173,1466.28024620004,None,1466.28024620004,None,1,1.3646536003798246,1466.28024620004,None,1467.6806622995064,None,1468.1879789000377,None,1468.1879789000377,None,r,0.9367682998999953,1468.1879789000377,None,,,NC29,001,2022_Feb_17_1650,ProdSingRedo,3.2.3,59.894370348741404,
,,,,175,0,175,0,,,,,,,,,,,,,,,,,,,,,,,,1473.3215538999066,None,,,,,,,,,,,,,,,,,public,silent,white,175,72,244,1469.6771341999993,None,1469.6771341999993,None,4,2.7438877997919917,1469.6771341999993,None,1472.476189499721,None,1472.976625399664,None,1472.976625399664,None,f,0.3083963003009558,1472.976625399664,None,,,NC29,001,2022_Feb_17_1650,ProdSingRedo,3.2.3,59.894370348741404,
,,,,176,0,176,0,,,,,,,,,,,,,,,,,,,,,,,,1476.6416483996436,None,,,,,,,,,,,,,,,,,broke,silent,white,176,71,32,1473.8483363995329,None,1473.8483363995329,None,1,1.9087177002802491,1473.8483363995329,None,1475.8068833993748,None,1476.312312799506,None,1476.312312799506,None,r,0.2927506994456053,1476.312312799506,None,,,NC29,001,2022_Feb_17_1650,ProdSingRedo,3.2.3,59.894370348741404,
,,,,177,0,177,0,,,,,,,,,,,,,,,,,,,,,,,,1479.4627845995128,None,,,,,,,,,,,,,,,,,minute,new_a,white,177,107,192,1477.1676765000448,None,1477.1676765000448,None,1,1.157379699870944,1477.1676765000448,None,1478.3758405996487,None,1478.8967833993956,None,1478.8967833993956,None,r,0.5401912992820144,1478.8967833993956,None,,,NC29,001,2022_Feb_17_1650,ProdSingRedo,3.2.3,59.894370348741404,
,,,,178,0,178,0,,,,,,,,,,,,,,,,,,,,,,,,1482.249378199689,None,,,,,,,,,,,,,,,,,dispute,new_c,white,178,155,99,1479.9901265995577,None,1479.9901265995577,None,1,1.4068954000249505,1479.9901265995577,None,1481.4460319001228,None,1481.9681225996464,None,1481.9681225996464,None,r,0.2449095007032156,1481.9681225996464,None,,,NC29,001,2022_Feb_17_1650,ProdSingRedo,3.2.3,59.894370348741404,
,,,,179,0,179,0,,,,,,,,,,,,,,,,,,,,,,,,1484.7324727000669,None,,,,,,,,,,,,,,,,,color,new_c,white,179,157,56,1482.7706818999723,None,1482.7706818999723,None,1,1.0984720000997186,1482.7706818999723,None,1483.9123836001381,None,1484.432156600058,None,1484.432156600058,None,r,0.26887219958007336,1484.432156600058,None,,,NC29,001,2022_Feb_17_1650,ProdSingRedo,3.2.3,59.894370348741404,
,,,,,,,,,,,,,,,,,,,,,,,,,,,,,,,,,,,,,,,,,,,,,,,,,,,,,,,,,,,,,,,,,,,,,,,,,1485.244800399989,None,,,,,,,
