StudyLoop.thisRepN,StudyLoop.thisTrialN,StudyLoop.thisN,StudyLoop.thisIndex,TestLoop.thisRepN,TestLoop.thisTrialN,TestLoop.thisN,TestLoop.thisIndex,textCondition.started,textCondition.stopped,keyCondition.keys,keyCondition.rt,keyCondition.started,keyCondition.stopped,Condition,stim_colors,color_sing,color_aloud,color_silent,textWelcome.started,textWelcome.stopped,keyWelcome.keys,keyWelcome.rt,keyWelcome.started,keyWelcome.stopped,textAloud.started,textAloud.stopped,textSilent.started,textSilent.stopped,textSing.started,textSing.stopped,textBlank500.started,textBlank500.stopped,study_word,study_type,study_color,study_num,study_word_num,textStudy.started,textStudy.stopped,keyStudy.keys,keyStudy.started,keyStudy.stopped,textTestInstructions.started,textTestInstructions.stopped,key_resp_3.keys,key_resp_3.rt,key_resp_3.started,key_resp_3.stopped,testWord,testType,testColor,testN,test_num,test_word_num,textConf.started,textConf.stopped,textConfScale.started,textConfScale.stopped,keyConf.keys,keyConf.rt,keyConf.started,keyConf.stopped,textTestBlank.started,textTestBlank.stopped,textRKN.started,textRKN.stopped,textRKNScale.started,textRKNScale.stopped,keyRKN.keys,keyRKN.rt,keyRKN.started,keyRKN.stopped,textEnd.started,textEnd.stopped,participant,session,date,expName,psychopyVersion,frameRate,
,,,,,,,,12.267872837372124,None,n,1.6324076866731048,12.267872837372124,None,,,,,,,,,,,,,,,,,,,,,,,,,,,,,,,,,,,,,,,,,,,,,,,,,,,,,,,,,,,,,,NC1,001,2019_Dec_02_1412,ProdSingRedo,3.2.4,59.98641849657351,
,,,,,,,,,,,,,,NeutralTest,"['blue', 'yellow', 'red']",blue,yellow,red,13.922813886776567,None,space,6228.637271141168,13.922813886776567,None,,,,,,,,,,,,,,,,,,,,,,,,,,,,,,,,,,,,,,,,,,,,,,,,,,,NC1,001,2019_Dec_02_1412,ProdSingRedo,3.2.4,59.98641849657351,
0,0,0,0,,,,,,,,,,,,,,,,,,,,,,13.922813886776567,None,13.922813886776567,None,13.922813886776567,None,6245.094843581319,None,cover,sing,blue,0,77,6243.099094672129,None,None,6243.099094672129,None,,,,,,,,,,,,,,,,,,,,,,,,,,,,,,,,,NC1,001,2019_Dec_02_1412,ProdSingRedo,3.2.4,59.98641849657351,
1,0,1,0,,,,,,,,,,,,,,,,,,,,,,,,,,,,6247.612357988488,None,shear,sing,blue,14,283,6245.611702084541,None,None,6245.611702084541,None,,,,,,,,,,,,,,,,,,,,,,,,,,,,,,,,,NC1,001,2019_Dec_02_1412,ProdSingRedo,3.2.4,59.98641849657351,
2,0,2,0,,,,,,,,,,,,,,,,,,,,,,,,,,,,6250.129760123789,None,stand,sing,blue,1,302,6248.129140607081,None,None,6248.129140607081,None,,,,,,,,,,,,,,,,,,,,,,,,,,,,,,,,,NC1,001,2019_Dec_02_1412,ProdSingRedo,3.2.4,59.98641849657351,
3,0,3,0,,,,,,,,,,,,,,,,,,,,,,,,,,,,6252.6472412538715,None,cousin,aloud,yellow,38,76,6250.6464827191085,None,None,6250.6464827191085,None,,,,,,,,,,,,,,,,,,,,,,,,,,,,,,,,,NC1,001,2019_Dec_02_1412,ProdSingRedo,3.2.4,59.98641849657351,
4,0,4,0,,,,,,,,,,,,,,,,,,,,,,,,,,,,6255.164688173449,None,permit,sing,blue,8,218,6253.164017652394,None,None,6253.164017652394,None,,,,,,,,,,,,,,,,,,,,,,,,,,,,,,,,,NC1,001,2019_Dec_02_1412,ProdSingRedo,3.2.4,59.98641849657351,
5,0,5,0,,,,,,,,,,,,,,,,,,,,,,,,,,,,6257.682127629174,None,plane,aloud,yellow,45,223,6255.681416055653,None,None,6255.681416055653,None,,,,,,,,,,,,,,,,,,,,,,,,,,,,,,,,,NC1,001,2019_Dec_02_1412,ProdSingRedo,3.2.4,59.98641849657351,
6,0,6,0,,,,,,,,,,,,,,,,,,,,,,,,,,,,6260.199563041562,None,answer,silent,red,80,8,6258.198897807626,None,None,6258.198897807626,None,,,,,,,,,,,,,,,,,,,,,,,,,,,,,,,,,NC1,001,2019_Dec_02_1412,ProdSingRedo,3.2.4,59.98641849657351,
7,0,7,0,,,,,,,,,,,,,,,,,,,,,,,,,,,,6262.71697295201,None,measure,silent,red,64,184,6260.7163198471535,None,None,6260.7163198471535,None,,,,,,,,,,,,,,,,,,,,,,,,,,,,,,,,,NC1,001,2019_Dec_02_1412,ProdSingRedo,3.2.4,59.98641849657351,
8,0,8,0,,,,,,,,,,,,,,,,,,,,,,,,,,,,6265.234410541598,None,resistance,sing,blue,11,262,6263.233780761948,None,None,6263.233780761948,None,,,,,,,,,,,,,,,,,,,,,,,,,,,,,,,,,NC1,001,2019_Dec_02_1412,ProdSingRedo,3.2.4,59.98641849657351,
9,0,9,0,,,,,,,,,,,,,,,,,,,,,,,,,,,,6267.751872700406,None,season,sing,blue,29,277,6265.75121679646,None,None,6265.75121679646,None,,,,,,,,,,,,,,,,,,,,,,,,,,,,,,,,,NC1,001,2019_Dec_02_1412,ProdSingRedo,3.2.4,59.98641849657351,
10,0,10,0,,,,,,,,,,,,,,,,,,,,,,,,,,,,6270.269303136971,None,strain,sing,blue,12,308,6268.268647233024,None,None,6268.268647233024,None,,,,,,,,,,,,,,,,,,,,,,,,,,,,,,,,,NC1,001,2019_Dec_02_1412,ProdSingRedo,3.2.4,59.98641849657351,
11,0,11,0,,,,,,,,,,,,,,,,,,,,,,,,,,,,6272.786751300795,None,length,aloud,yellow,34,169,6270.786087621702,None,None,6270.786087621702,None,,,,,,,,,,,,,,,,,,,,,,,,,,,,,,,,,NC1,001,2019_Dec_02_1412,ProdSingRedo,3.2.4,59.98641849657351,
12,0,12,0,,,,,,,,,,,,,,,,,,,,,,,,,,,,6275.304192622425,None,income,aloud,yellow,54,159,6273.3035152591765,None,None,6273.3035152591765,None,,,,,,,,,,,,,,,,,,,,,,,,,,,,,,,,,NC1,001,2019_Dec_02_1412,ProdSingRedo,3.2.4,59.98641849657351,
13,0,13,0,,,,,,,,,,,,,,,,,,,,,,,,,,,,6277.821611240739,None,attack,sing,blue,5,13,6275.821046771482,None,None,6275.821046771482,None,,,,,,,,,,,,,,,,,,,,,,,,,,,,,,,,,NC1,001,2019_Dec_02_1412,ProdSingRedo,3.2.4,59.98641849657351,
14,0,14,0,,,,,,,,,,,,,,,,,,,,,,,,,,,,6280.339068423491,None,short,sing,blue,10,285,6278.338399457512,None,None,6278.338399457512,None,,,,,,,,,,,,,,,,,,,,,,,,,,,,,,,,,NC1,001,2019_Dec_02_1412,ProdSingRedo,3.2.4,59.98641849657351,
15,0,15,0,,,,,,,,,,,,,,,,,,,,,,,,,,,,6282.856501659146,None,little,sing,blue,16,174,6280.855838291114,None,None,6280.855838291114,None,,,,,,,,,,,,,,,,,,,,,,,,,,,,,,,,,NC1,001,2019_Dec_02_1412,ProdSingRedo,3.2.4,59.98641849657351,
16,0,16,0,,,,,,,,,,,,,,,,,,,,,,,,,,,,6285.373943913728,None,express,aloud,yellow,51,124,6283.373136240756,None,None,6283.373136240756,None,,,,,,,,,,,,,,,,,,,,,,,,,,,,,,,,,NC1,001,2019_Dec_02_1412,ProdSingRedo,3.2.4,59.98641849657351,
17,0,17,0,,,,,,,,,,,,,,,,,,,,,,,,,,,,6287.891364709241,None,scale,sing,blue,22,272,6285.89072248945,None,None,6285.89072248945,None,,,,,,,,,,,,,,,,,,,,,,,,,,,,,,,,,NC1,001,2019_Dec_02_1412,ProdSingRedo,3.2.4,59.98641849657351,
18,0,18,0,,,,,,,,,,,,,,,,,,,,,,,,,,,,6290.408823136007,None,bicycle,aloud,yellow,33,21,6288.410489175469,None,None,6288.410489175469,None,,,,,,,,,,,,,,,,,,,,,,,,,,,,,,,,,NC1,001,2019_Dec_02_1412,ProdSingRedo,3.2.4,59.98641849657351,
19,0,19,0,,,,,,,,,,,,,,,,,,,,,,,,,,,,6292.926216252381,None,surface,silent,red,68,316,6290.925582118565,None,None,6290.925582118565,None,,,,,,,,,,,,,,,,,,,,,,,,,,,,,,,,,NC1,001,2019_Dec_02_1412,ProdSingRedo,3.2.4,59.98641849657351,
20,0,20,0,,,,,,,,,,,,,,,,,,,,,,,,,,,,6295.4436871190555,None,capital,silent,red,74,40,6293.443036813289,None,None,6293.443036813289,None,,,,,,,,,,,,,,,,,,,,,,,,,,,,,,,,,NC1,001,2019_Dec_02_1412,ProdSingRedo,3.2.4,59.98641849657351,
21,0,21,0,,,,,,,,,,,,,,,,,,,,,,,,,,,,6297.9611443018075,None,south,silent,red,60,296,6295.960496795131,None,None,6295.960496795131,None,,,,,,,,,,,,,,,,,,,,,,,,,,,,,,,,,NC1,001,2019_Dec_02_1412,ProdSingRedo,3.2.4,59.98641849657351,
22,0,22,0,,,,,,,,,,,,,,,,,,,,,,,,,,,,6300.478564786492,None,trail,aloud,yellow,36,336,6298.47791354754,None,None,6298.47791354754,None,,,,,,,,,,,,,,,,,,,,,,,,,,,,,,,,,NC1,001,2019_Dec_02_1412,ProdSingRedo,3.2.4,59.98641849657351,
23,0,23,0,,,,,,,,,,,,,,,,,,,,,,,,,,,,6302.9960098399315,None,figure,silent,red,77,128,6300.995338696986,None,None,6300.995338696986,None,,,,,,,,,,,,,,,,,,,,,,,,,,,,,,,,,NC1,001,2019_Dec_02_1412,ProdSingRedo,3.2.4,59.98641849657351,
24,0,24,0,,,,,,,,,,,,,,,,,,,,,,,,,,,,6305.513451472623,None,light,silent,red,69,171,6303.512783750659,None,None,6303.512783750659,None,,,,,,,,,,,,,,,,,,,,,,,,,,,,,,,,,NC1,001,2019_Dec_02_1412,ProdSingRedo,3.2.4,59.98641849657351,
25,0,25,0,,,,,,,,,,,,,,,,,,,,,,,,,,,,6308.030893105315,None,subject,sing,blue,20,312,6306.032944165636,None,None,6306.032944165636,None,,,,,,,,,,,,,,,,,,,,,,,,,,,,,,,,,NC1,001,2019_Dec_02_1412,ProdSingRedo,3.2.4,59.98641849657351,
26,0,26,0,,,,,,,,,,,,,,,,,,,,,,,,,,,,6310.548331317026,None,appeal,aloud,yellow,39,9,6308.547654264839,None,None,6308.547654264839,None,,,,,,,,,,,,,,,,,,,,,,,,,,,,,,,,,NC1,001,2019_Dec_02_1412,ProdSingRedo,3.2.4,59.98641849657351,
27,0,27,0,,,,,,,,,,,,,,,,,,,,,,,,,,,,6313.0657654854,None,watch,aloud,yellow,35,351,6311.06507132831,None,None,6311.06507132831,None,,,,,,,,,,,,,,,,,,,,,,,,,,,,,,,,,NC1,001,2019_Dec_02_1412,ProdSingRedo,3.2.4,59.98641849657351,
28,0,28,0,,,,,,,,,,,,,,,,,,,,,,,,,,,,6315.583180371905,None,region,silent,red,73,256,6313.5825512141455,None,None,6313.5825512141455,None,,,,,,,,,,,,,,,,,,,,,,,,,,,,,,,,,NC1,001,2019_Dec_02_1412,ProdSingRedo,3.2.4,59.98641849657351,
29,0,29,0,,,,,,,,,,,,,,,,,,,,,,,,,,,,6318.10063817678,None,century,sing,blue,2,45,6316.0998404556885,None,None,6316.0998404556885,None,,,,,,,,,,,,,,,,,,,,,,,,,,,,,,,,,NC1,001,2019_Dec_02_1412,ProdSingRedo,3.2.4,59.98641849657351,
30,0,30,0,,,,,,,,,,,,,,,,,,,,,,,,,,,,6320.618068613345,None,author,aloud,yellow,55,15,6318.61742297234,None,None,6318.61742297234,None,,,,,,,,,,,,,,,,,,,,,,,,,,,,,,,,,NC1,001,2019_Dec_02_1412,ProdSingRedo,3.2.4,59.98641849657351,
31,0,31,0,,,,,,,,,,,,,,,,,,,,,,,,,,,,6323.135500604752,None,youth,sing,blue,21,359,6321.13473274,None,None,6321.13473274,None,,,,,,,,,,,,,,,,,,,,,,,,,,,,,,,,,NC1,001,2019_Dec_02_1412,ProdSingRedo,3.2.4,59.98641849657351,
32,0,32,0,,,,,,,,,,,,,,,,,,,,,,,,,,,,6325.65298982081,None,grade,aloud,yellow,31,140,6323.652393629309,None,None,6323.652393629309,None,,,,,,,,,,,,,,,,,,,,,,,,,,,,,,,,,NC1,001,2019_Dec_02_1412,ProdSingRedo,3.2.4,59.98641849657351,
33,0,33,0,,,,,,,,,,,,,,,,,,,,,,,,,,,,6328.170406573219,None,gesture,silent,red,85,137,6326.169755645329,None,None,6326.169755645329,None,,,,,,,,,,,,,,,,,,,,,,,,,,,,,,,,,NC1,001,2019_Dec_02_1412,ProdSingRedo,3.2.4,59.98641849657351,
34,0,34,0,,,,,,,,,,,,,,,,,,,,,,,,,,,,6330.6878404307645,None,symbol,silent,red,67,321,6328.6888729585335,None,None,6328.6888729585335,None,,,,,,,,,,,,,,,,,,,,,,,,,,,,,,,,,NC1,001,2019_Dec_02_1412,ProdSingRedo,3.2.4,59.98641849657351,
35,0,35,0,,,,,,,,,,,,,,,,,,,,,,,,,,,,6333.205261848401,None,group,aloud,yellow,53,143,6331.204618073534,None,None,6331.204618073534,None,,,,,,,,,,,,,,,,,,,,,,,,,,,,,,,,,NC1,001,2019_Dec_02_1412,ProdSingRedo,3.2.4,59.98641849657351,
36,0,36,0,,,,,,,,,,,,,,,,,,,,,,,,,,,,6335.722716854187,None,dance,silent,red,62,84,6333.722012744751,None,None,6333.722012744751,None,,,,,,,,,,,,,,,,,,,,,,,,,,,,,,,,,NC1,001,2019_Dec_02_1412,ProdSingRedo,3.2.4,59.98641849657351,
37,0,37,0,,,,,,,,,,,,,,,,,,,,,,,,,,,,6338.240132362582,None,sound,aloud,yellow,30,295,6336.239478635602,None,None,6336.239478635602,None,,,,,,,,,,,,,,,,,,,,,,,,,,,,,,,,,NC1,001,2019_Dec_02_1412,ProdSingRedo,3.2.4,59.98641849657351,
38,0,38,0,,,,,,,,,,,,,,,,,,,,,,,,,,,,6340.757590789348,None,power,aloud,yellow,43,230,6338.756921823369,None,None,6338.756921823369,None,,,,,,,,,,,,,,,,,,,,,,,,,,,,,,,,,NC1,001,2019_Dec_02_1412,ProdSingRedo,3.2.4,59.98641849657351,
39,0,39,0,,,,,,,,,,,,,,,,,,,,,,,,,,,,6343.274986704579,None,research,aloud,yellow,49,261,6341.274401398143,None,None,6341.274401398143,None,,,,,,,,,,,,,,,,,,,,,,,,,,,,,,,,,NC1,001,2019_Dec_02_1412,ProdSingRedo,3.2.4,59.98641849657351,
40,0,40,0,,,,,,,,,,,,,,,,,,,,,,,,,,,,6345.7924553945195,None,design,sing,blue,25,91,6343.791697481647,None,None,6343.791697481647,None,,,,,,,,,,,,,,,,,,,,,,,,,,,,,,,,,NC1,001,2019_Dec_02_1412,ProdSingRedo,3.2.4,59.98641849657351,
41,0,41,0,,,,,,,,,,,,,,,,,,,,,,,,,,,,6348.309907912044,None,clear,sing,blue,4,52,6346.309275333304,None,None,6346.309275333304,None,,,,,,,,,,,,,,,,,,,,,,,,,,,,,,,,,NC1,001,2019_Dec_02_1412,ProdSingRedo,3.2.4,59.98641849657351,
42,0,42,0,,,,,,,,,,,,,,,,,,,,,,,,,,,,6350.827332128538,None,dispute,silent,red,79,99,6348.8266843107995,None,None,6348.8266843107995,None,,,,,,,,,,,,,,,,,,,,,,,,,,,,,,,,,NC1,001,2019_Dec_02_1412,ProdSingRedo,3.2.4,59.98641849657351,
43,0,43,0,,,,,,,,,,,,,,,,,,,,,,,,,,,,6353.344786512433,None,government,sing,blue,9,139,6351.344011183595,None,None,6351.344011183595,None,,,,,,,,,,,,,,,,,,,,,,,,,,,,,,,,,NC1,001,2019_Dec_02_1412,ProdSingRedo,3.2.4,59.98641849657351,
44,0,44,0,,,,,,,,,,,,,,,,,,,,,,,,,,,,6355.862210106803,None,build,sing,blue,6,35,6353.861449395074,None,None,6353.861449395074,None,,,,,,,,,,,,,,,,,,,,,,,,,,,,,,,,,NC1,001,2019_Dec_02_1412,ProdSingRedo,3.2.4,59.98641849657351,
45,0,45,0,,,,,,,,,,,,,,,,,,,,,,,,,,,,6358.379656093661,None,appearance,sing,blue,15,10,6356.378977486398,None,None,6356.378977486398,None,,,,,,,,,,,,,,,,,,,,,,,,,,,,,,,,,NC1,001,2019_Dec_02_1412,ProdSingRedo,3.2.4,59.98641849657351,
46,0,46,0,,,,,,,,,,,,,,,,,,,,,,,,,,,,6360.897096171277,None,private,sing,blue,18,237,6358.896346033551,None,None,6358.896346033551,None,,,,,,,,,,,,,,,,,,,,,,,,,,,,,,,,,NC1,001,2019_Dec_02_1412,ProdSingRedo,3.2.4,59.98641849657351,
47,0,47,0,,,,,,,,,,,,,,,,,,,,,,,,,,,,6363.414544023806,None,clean,silent,red,61,51,6361.413831828628,None,None,6361.413831828628,None,,,,,,,,,,,,,,,,,,,,,,,,,,,,,,,,,NC1,001,2019_Dec_02_1412,ProdSingRedo,3.2.4,59.98641849657351,
48,0,48,0,,,,,,,,,,,,,,,,,,,,,,,,,,,,6365.931946159108,None,angle,aloud,yellow,46,7,6363.931307049468,None,None,6363.931307049468,None,,,,,,,,,,,,,,,,,,,,,,,,,,,,,,,,,NC1,001,2019_Dec_02_1412,ProdSingRedo,3.2.4,59.98641849657351,
49,0,49,0,,,,,,,,,,,,,,,,,,,,,,,,,,,,6368.449397743912,None,drink,silent,red,83,105,6366.448754280107,None,None,6366.448754280107,None,,,,,,,,,,,,,,,,,,,,,,,,,,,,,,,,,NC1,001,2019_Dec_02_1412,ProdSingRedo,3.2.4,59.98641849657351,
50,0,50,0,,,,,,,,,,,,,,,,,,,,,,,,,,,,6370.966825692449,None,candidate,silent,red,89,39,6368.966180673568,None,None,6368.966180673568,None,,,,,,,,,,,,,,,,,,,,,,,,,,,,,,,,,NC1,001,2019_Dec_02_1412,ProdSingRedo,3.2.4,59.98641849657351,
51,0,51,0,,,,,,,,,,,,,,,,,,,,,,,,,,,,6373.484282875201,None,search,silent,red,86,276,6371.4836207511835,None,None,6371.4836207511835,None,,,,,,,,,,,,,,,,,,,,,,,,,,,,,,,,,NC1,001,2019_Dec_02_1412,ProdSingRedo,3.2.4,59.98641849657351,
52,0,52,0,,,,,,,,,,,,,,,,,,,,,,,,,,,,6376.001723263878,None,volume,aloud,yellow,40,349,6374.001056474866,None,None,6374.001056474866,None,,,,,,,,,,,,,,,,,,,,,,,,,,,,,,,,,NC1,001,2019_Dec_02_1412,ProdSingRedo,3.2.4,59.98641849657351,
53,0,53,0,,,,,,,,,,,,,,,,,,,,,,,,,,,,6378.519141882192,None,conference,aloud,yellow,32,66,6376.518388323719,None,None,6376.518388323719,None,,,,,,,,,,,,,,,,,,,,,,,,,,,,,,,,,NC1,001,2019_Dec_02_1412,ProdSingRedo,3.2.4,59.98641849657351,
54,0,54,0,,,,,,,,,,,,,,,,,,,,,,,,,,,,6381.036609017057,None,raise,aloud,yellow,47,250,6379.035919836024,None,None,6379.035919836024,None,,,,,,,,,,,,,,,,,,,,,,,,,,,,,,,,,NC1,001,2019_Dec_02_1412,ProdSingRedo,3.2.4,59.98641849657351,
55,0,55,0,,,,,,,,,,,,,,,,,,,,,,,,,,,,6383.554039453622,None,write,silent,red,66,358,6381.553374219686,None,None,6381.553374219686,None,,,,,,,,,,,,,,,,,,,,,,,,,,,,,,,,,NC1,001,2019_Dec_02_1412,ProdSingRedo,3.2.4,59.98641849657351,
56,0,56,0,,,,,,,,,,,,,,,,,,,,,,,,,,,,6386.0714885503985,None,captain,silent,red,71,41,6384.070793460123,None,None,6384.070793460123,None,,,,,,,,,,,,,,,,,,,,,,,,,,,,,,,,,NC1,001,2019_Dec_02_1412,ProdSingRedo,3.2.4,59.98641849657351,
57,0,57,0,,,,,,,,,,,,,,,,,,,,,,,,,,,,6388.588905924931,None,drove,silent,red,72,106,6386.588101361878,None,None,6386.588101361878,None,,,,,,,,,,,,,,,,,,,,,,,,,,,,,,,,,NC1,001,2019_Dec_02_1412,ProdSingRedo,3.2.4,59.98641849657351,
58,0,58,0,,,,,,,,,,,,,,,,,,,,,,,,,,,,6391.106350045418,None,shock,sing,blue,26,284,6389.105692275567,None,None,6389.105692275567,None,,,,,,,,,,,,,,,,,,,,,,,,,,,,,,,,,NC1,001,2019_Dec_02_1412,ProdSingRedo,3.2.4,59.98641849657351,
59,0,59,0,,,,,,,,,,,,,,,,,,,,,,,,,,,,6393.623754357919,None,growth,silent,red,63,144,6391.623106228886,None,None,6391.623106228886,None,,,,,,,,,,,,,,,,,,,,,,,,,,,,,,,,,NC1,001,2019_Dec_02_1412,ProdSingRedo,3.2.4,59.98641849657351,
60,0,60,0,,,,,,,,,,,,,,,,,,,,,,,,,,,,6396.141212473623,None,broke,silent,red,84,32,6394.140572430799,None,None,6394.140572430799,None,,,,,,,,,,,,,,,,,,,,,,,,,,,,,,,,,NC1,001,2019_Dec_02_1412,ProdSingRedo,3.2.4,59.98641849657351,
61,0,61,0,,,,,,,,,,,,,,,,,,,,,,,,,,,,6398.658671211451,None,charter,silent,red,82,47,6396.6580227715895,None,None,6396.6580227715895,None,,,,,,,,,,,,,,,,,,,,,,,,,,,,,,,,,NC1,001,2019_Dec_02_1412,ProdSingRedo,3.2.4,59.98641849657351,
62,0,62,0,,,,,,,,,,,,,,,,,,,,,,,,,,,,6401.176096049836,None,still,aloud,yellow,58,304,6399.175462227082,None,None,6399.175462227082,None,,,,,,,,,,,,,,,,,,,,,,,,,,,,,,,,,NC1,001,2019_Dec_02_1412,ProdSingRedo,3.2.4,59.98641849657351,
63,0,63,0,,,,,,,,,,,,,,,,,,,,,,,,,,,,6403.693549189717,None,poetry,aloud,yellow,42,225,6401.692880845629,None,None,6401.692880845629,None,,,,,,,,,,,,,,,,,,,,,,,,,,,,,,,,,NC1,001,2019_Dec_02_1412,ProdSingRedo,3.2.4,59.98641849657351,
64,0,64,0,,,,,,,,,,,,,,,,,,,,,,,,,,,,6406.210986779304,None,piece,sing,blue,13,221,6404.2103296313435,None,None,6404.2103296313435,None,,,,,,,,,,,,,,,,,,,,,,,,,,,,,,,,,NC1,001,2019_Dec_02_1412,ProdSingRedo,3.2.4,59.98641849657351,
65,0,65,0,,,,,,,,,,,,,,,,,,,,,,,,,,,,6408.7284305889625,None,brilliant,aloud,yellow,56,30,6406.727663346101,None,None,6406.727663346101,None,,,,,,,,,,,,,,,,,,,,,,,,,,,,,,,,,NC1,001,2019_Dec_02_1412,ProdSingRedo,3.2.4,59.98641849657351,
66,0,66,0,,,,,,,,,,,,,,,,,,,,,,,,,,,,6411.245848585386,None,disease,sing,blue,24,97,6409.245124571957,None,None,6409.245124571957,None,,,,,,,,,,,,,,,,,,,,,,,,,,,,,,,,,NC1,001,2019_Dec_02_1412,ProdSingRedo,3.2.4,59.98641849657351,
67,0,67,0,,,,,,,,,,,,,,,,,,,,,,,,,,,,6413.763299548067,None,career,sing,blue,3,42,6411.76260974491,None,None,6411.76260974491,None,,,,,,,,,,,,,,,,,,,,,,,,,,,,,,,,,NC1,001,2019_Dec_02_1412,ProdSingRedo,3.2.4,59.98641849657351,
68,0,68,0,,,,,,,,,,,,,,,,,,,,,,,,,,,,6416.280706348363,None,store,silent,red,65,305,6414.280074391747,None,None,6414.280074391747,None,,,,,,,,,,,,,,,,,,,,,,,,,,,,,,,,,NC1,001,2019_Dec_02_1412,ProdSingRedo,3.2.4,59.98641849657351,
69,0,69,0,,,,,,,,,,,,,,,,,,,,,,,,,,,,6418.798180636251,None,judge,sing,blue,17,166,6416.797389135463,None,None,6416.797389135463,None,,,,,,,,,,,,,,,,,,,,,,,,,,,,,,,,,NC1,001,2019_Dec_02_1412,ProdSingRedo,3.2.4,59.98641849657351,
70,0,70,0,,,,,,,,,,,,,,,,,,,,,,,,,,,,6421.315603608731,None,throw,silent,red,81,330,6419.314955168869,None,None,6419.314955168869,None,,,,,,,,,,,,,,,,,,,,,,,,,,,,,,,,,NC1,001,2019_Dec_02_1412,ProdSingRedo,3.2.4,59.98641849657351,
71,0,71,0,,,,,,,,,,,,,,,,,,,,,,,,,,,,6423.833053327398,None,question,sing,blue,19,247,6421.835502159782,None,None,6421.835502159782,None,,,,,,,,,,,,,,,,,,,,,,,,,,,,,,,,,NC1,001,2019_Dec_02_1412,ProdSingRedo,3.2.4,59.98641849657351,
72,0,72,0,,,,,,,,,,,,,,,,,,,,,,,,,,,,6426.350506778341,None,treatment,aloud,yellow,41,339,6424.349843099248,None,None,6424.349843099248,None,,,,,,,,,,,,,,,,,,,,,,,,,,,,,,,,,NC1,001,2019_Dec_02_1412,ProdSingRedo,3.2.4,59.98641849657351,
73,0,73,0,,,,,,,,,,,,,,,,,,,,,,,,,,,,6428.867907980457,None,patient,sing,blue,23,213,6426.867271980736,None,None,6426.867271980736,None,,,,,,,,,,,,,,,,,,,,,,,,,,,,,,,,,NC1,001,2019_Dec_02_1412,ProdSingRedo,3.2.4,59.98641849657351,
74,0,74,0,,,,,,,,,,,,,,,,,,,,,,,,,,,,6431.385372005403,None,reading,sing,blue,27,254,6429.384702417301,None,None,6429.384702417301,None,,,,,,,,,,,,,,,,,,,,,,,,,,,,,,,,,NC1,001,2019_Dec_02_1412,ProdSingRedo,3.2.4,59.98641849657351,
75,0,75,0,,,,,,,,,,,,,,,,,,,,,,,,,,,,6433.902799953939,None,music,silent,red,75,196,6431.902145294007,None,None,6431.902145294007,None,,,,,,,,,,,,,,,,,,,,,,,,,,,,,,,,,NC1,001,2019_Dec_02_1412,ProdSingRedo,3.2.4,59.98641849657351,
76,0,76,0,,,,,,,,,,,,,,,,,,,,,,,,,,,,6436.4202611797955,None,mankind,aloud,yellow,44,178,6434.41947776475,None,None,6434.41947776475,None,,,,,,,,,,,,,,,,,,,,,,,,,,,,,,,,,NC1,001,2019_Dec_02_1412,ProdSingRedo,3.2.4,59.98641849657351,
77,0,77,0,,,,,,,,,,,,,,,,,,,,,,,,,,,,6438.937668601982,None,guide,aloud,yellow,59,147,6436.937025449239,None,None,6436.937025449239,None,,,,,,,,,,,,,,,,,,,,,,,,,,,,,,,,,NC1,001,2019_Dec_02_1412,ProdSingRedo,3.2.4,59.98641849657351,
78,0,78,0,,,,,,,,,,,,,,,,,,,,,,,,,,,,6441.455112411641,None,testimony,silent,red,88,325,6439.454328063875,None,None,6439.454328063875,None,,,,,,,,,,,,,,,,,,,,,,,,,,,,,,,,,NC1,001,2019_Dec_02_1412,ProdSingRedo,3.2.4,59.98641849657351,
79,0,79,0,,,,,,,,,,,,,,,,,,,,,,,,,,,,6443.972557776375,None,display,silent,red,70,98,6441.971754146274,None,None,6441.971754146274,None,,,,,,,,,,,,,,,,,,,,,,,,,,,,,,,,,NC1,001,2019_Dec_02_1412,ProdSingRedo,3.2.4,59.98641849657351,
80,0,80,0,,,,,,,,,,,,,,,,,,,,,,,,,,,,6446.489999720128,None,finance,silent,red,76,129,6444.489354390185,None,None,6444.489354390185,None,,,,,,,,,,,,,,,,,,,,,,,,,,,,,,,,,NC1,001,2019_Dec_02_1412,ProdSingRedo,3.2.4,59.98641849657351,
81,0,81,0,,,,,,,,,,,,,,,,,,,,,,,,,,,,6449.007442596601,None,background,sing,blue,28,16,6447.008029769175,None,None,6447.008029769175,None,,,,,,,,,,,,,,,,,,,,,,,,,,,,,,,,,NC1,001,2019_Dec_02_1412,ProdSingRedo,3.2.4,59.98641849657351,
82,0,82,0,,,,,,,,,,,,,,,,,,,,,,,,,,,,6451.524847842054,None,straight,aloud,yellow,48,307,6449.524227081332,None,None,6449.524227081332,None,,,,,,,,,,,,,,,,,,,,,,,,,,,,,,,,,NC1,001,2019_Dec_02_1412,ProdSingRedo,3.2.4,59.98641849657351,
83,0,83,0,,,,,,,,,,,,,,,,,,,,,,,,,,,,6454.042320885928,None,balance,aloud,yellow,37,17,6452.031960776309,None,None,6452.031960776309,None,,,,,,,,,,,,,,,,,,,,,,,,,,,,,,,,,NC1,001,2019_Dec_02_1412,ProdSingRedo,3.2.4,59.98641849657351,
84,0,84,0,,,,,,,,,,,,,,,,,,,,,,,,,,,,6456.559743858408,None,generation,aloud,yellow,57,136,6454.559110035654,None,None,6454.559110035654,None,,,,,,,,,,,,,,,,,,,,,,,,,,,,,,,,,NC1,001,2019_Dec_02_1412,ProdSingRedo,3.2.4,59.98641849657351,
85,0,85,0,,,,,,,,,,,,,,,,,,,,,,,,,,,,6459.077186424052,None,principal,aloud,yellow,52,236,6457.076514037093,None,None,6457.076514037093,None,,,,,,,,,,,,,,,,,,,,,,,,,,,,,,,,,NC1,001,2019_Dec_02_1412,ProdSingRedo,3.2.4,59.98641849657351,
86,0,86,0,,,,,,,,,,,,,,,,,,,,,,,,,,,,6461.594620281598,None,trend,sing,blue,7,340,6459.59395753569,None,None,6459.59395753569,None,,,,,,,,,,,,,,,,,,,,,,,,,,,,,,,,,NC1,001,2019_Dec_02_1412,ProdSingRedo,3.2.4,59.98641849657351,
87,0,87,0,,,,,,,,,,,,,,,,,,,,,,,,,,,,6464.112075598445,None,waste,aloud,yellow,50,350,6462.111381441122,None,None,6462.111381441122,None,,,,,,,,,,,,,,,,,,,,,,,,,,,,,,,,,NC1,001,2019_Dec_02_1412,ProdSingRedo,3.2.4,59.98641849657351,
88,0,88,0,,,,,,,,,,,,,,,,,,,,,,,,,,,,6466.629461250501,None,company,silent,red,78,64,6464.628757452359,None,None,6464.628757452359,None,,,,,,,,,,,,,,,,,,,,,,,,,,,,,,,,,NC1,001,2019_Dec_02_1412,ProdSingRedo,3.2.4,59.98641849657351,
89,0,89,0,,,,,,,,,,,,,,,,,,,,,,,,,,,,6469.146946112625,None,institute,silent,red,87,162,6467.146291141631,None,None,6467.146291141631,None,,,,,,,,,,,,,,,,,,,,,,,,,,,,,,,,,NC1,001,2019_Dec_02_1412,ProdSingRedo,3.2.4,59.98641849657351,
,,,,,,,,,,,,,,,,,,,,,,,,,,,,,,,,,,,,,,,,,,,6469.647098192712,None,k,81.03026767983101,6469.647098192712,None,,,,,,,,,,,,,,,,,,,,,,,,,,,NC1,001,2019_Dec_02_1412,ProdSingRedo,3.2.4,59.98641849657351,
,,,,0,0,0,0,,,,,,,,,,,,,,,,,,,,,,,,6561.54174739751,None,,,,,,,,,,,,,,,,,suspect,new_a,white,0,92,318,6551.222532118671,None,6551.222532118671,None,2,5.646046693902463,6551.222532118671,None,6556.91229889798,None,6557.44059824408,None,6557.44059824408,None,f,4.067826808895916,6557.44059824408,None,,,NC1,001,2019_Dec_02_1412,ProdSingRedo,3.2.4,59.98641849657351,
,,,,1,0,1,0,,,,,,,,,,,,,,,,,,,,,,,,6569.427633489948,None,,,,,,,,,,,,,,,,,household,new_a,white,1,100,154,6562.058794679353,None,6562.058794679353,None,1,2.5772871889639646,6562.058794679353,None,6564.680358336773,None,6565.1929987154435,None,6565.1929987154435,None,n,4.194847002392635,6565.1929987154435,None,,,NC1,001,2019_Dec_02_1412,ProdSingRedo,3.2.4,59.98641849657351,
,,,,2,0,2,0,,,,,,,,,,,,,,,,,,,,,,,,6577.06331665325,None,,,,,,,,,,,,,,,,,shear,sing,white,2,14,283,6569.944320319919,None,6569.944320319919,None,3,4.595169201027602,6569.944320319919,None,6574.581223856192,None,6575.09604187333,None,6575.09604187333,None,f,1.9312893224414438,6575.09604187333,None,,,NC1,001,2019_Dec_02_1412,ProdSingRedo,3.2.4,59.98641849657351,
,,,,3,0,3,0,,,,,,,,,,,,,,,,,,,,,,,,6584.165487138322,None,,,,,,,,,,,,,,,,,society,new_a,white,3,104,293,6577.584303401411,None,6577.584303401411,None,6,4.882771092932671,6577.584303401411,None,6582.514819883043,None,6583.031784127001,None,6583.031784127001,None,r,1.0991910831071436,6583.031784127001,None,,,NC1,001,2019_Dec_02_1412,ProdSingRedo,3.2.4,59.98641849657351,
,,,,4,0,4,0,,,,,,,,,,,,,,,,,,,,,,,,6590.167325784219,None,,,,,,,,,,,,,,,,,short,sing,white,4,10,285,6584.682340976782,None,6584.682340976782,None,1,2.9043048941530287,6584.682340976782,None,6587.635778640863,None,6588.150050226832,None,6588.150050226832,None,n,1.9805250342469662,6588.150050226832,None,,,NC1,001,2019_Dec_02_1412,ProdSingRedo,3.2.4,59.98641849657351,
,,,,5,0,5,0,,,,,,,,,,,,,,,,,,,,,,,,6596.402592204278,None,,,,,,,,,,,,,,,,,judge,sing,white,5,17,166,6590.68451083987,None,6590.68451083987,None,2,2.6138193886727095,6590.68451083987,None,6593.339868010487,None,6593.851637271699,None,6593.851637271699,None,f,2.5025810084771365,6593.851637271699,None,,,NC1,001,2019_Dec_02_1412,ProdSingRedo,3.2.4,59.98641849657351,
,,,,6,0,6,0,,,,,,,,,,,,,,,,,,,,,,,,6601.954278925434,None,,,,,,,,,,,,,,,,,pancakes,new_b,white,6,123,210,6596.9211102160625,None,6596.9211102160625,None,1,1.968843475682661,6596.9211102160625,None,6598.9532768758945,None,6599.453453525202,None,6599.453453525202,None,n,2.4684401056729257,6599.453453525202,None,,,NC1,001,2019_Dec_02_1412,ProdSingRedo,3.2.4,59.98641849657351,
,,,,7,0,7,0,,,,,,,,,,,,,,,,,,,,,,,,6607.9560416867025,None,,,,,,,,,,,,,,,,,waste,aloud,white,7,50,350,6602.47106807516,None,6602.47106807516,None,3,3.33846850018017,6602.47106807516,None,6605.855386715848,None,6606.372299333569,None,6606.372299333569,None,f,1.5491094449535012,6606.372299333569,None,,,NC1,001,2019_Dec_02_1412,ProdSingRedo,3.2.4,59.98641849657351,
,,,,8,0,8,0,,,,,,,,,,,,,,,,,,,,,,,,6614.458110163221,None,,,,,,,,,,,,,,,,,dozen,new_b,white,8,124,102,6608.479124901583,None,6608.479124901583,None,1,4.362092236988246,6608.479124901583,None,6612.875669043744,None,6613.391103156377,None,6613.391103156377,None,n,1.0340062386821955,6613.391103156377,None,,,NC1,001,2019_Dec_02_1412,ProdSingRedo,3.2.4,59.98641849657351,
,,,,9,0,9,0,,,,,,,,,,,,,,,,,,,,,,,,6620.960096223978,None,,,,,,,,,,,,,,,,,surface,silent,white,9,68,316,6614.974813165376,None,6614.974813165376,None,6,3.8262181184254587,6614.974813165376,None,6618.8426312662195,None,6619.359621323412,None,6619.359621323412,None,r,1.5529916870873421,6619.359621323412,None,,,NC1,001,2019_Dec_02_1412,ProdSingRedo,3.2.4,59.98641849657351,
,,,,10,0,10,0,,,,,,,,,,,,,,,,,,,,,,,,6626.145012922119,None,,,,,,,,,,,,,,,,,private,sing,white,10,18,237,6621.478083354887,None,6621.478083354887,None,5,2.986337356735021,6621.478083354887,None,6624.514376704581,None,6625.027990209637,None,6625.027990209637,None,f,1.0683032646775246,6625.027990209637,None,,,NC1,001,2019_Dec_02_1412,ProdSingRedo,3.2.4,59.98641849657351,
,,,,11,0,11,0,,,,,,,,,,,,,,,,,,,,,,,,6630.896486606682,None,,,,,,,,,,,,,,,,,mankind,aloud,white,11,44,178,6626.664362553973,None,6626.664362553973,None,6,2.272190793650225,6626.664362553973,None,6628.982556501171,None,6629.496016993187,None,6629.496016993187,None,r,1.3520760962273926,6629.496016993187,None,,,NC1,001,2019_Dec_02_1412,ProdSingRedo,3.2.4,59.98641849657351,
,,,,12,0,12,0,,,,,,,,,,,,,,,,,,,,,,,,6634.497413393576,None,,,,,,,,,,,,,,,,,discovery,new_a,white,12,112,95,6631.413100661943,None,6631.413100661943,None,1,1.562916393391788,6631.413100661943,None,6633.030385238584,None,6633.530572150834,None,6633.530572150834,None,n,0.9333481576759368,6633.530572150834,None,,,NC1,001,2019_Dec_02_1412,ProdSingRedo,3.2.4,59.98641849657351,
,,,,13,0,13,0,,,,,,,,,,,,,,,,,,,,,,,,6638.498835296137,None,,,,,,,,,,,,,,,,,pressure,new_c,white,13,152,232,6635.014328188263,None,6635.014328188263,None,1,1.8014197256416082,6635.014328188263,None,6636.851998034399,None,6637.365126686636,None,6637.365126686636,None,n,1.098495681770146,6637.365126686636,None,,,NC1,001,2019_Dec_02_1412,ProdSingRedo,3.2.4,59.98641849657351,
,,,,14,0,14,0,,,,,,,,,,,,,,,,,,,,,,,,6642.049904677784,None,,,,,,,,,,,,,,,,,degree,new_c,white,14,160,89,6639.015614804812,None,6639.015614804812,None,1,1.62425009557046,6639.015614804812,None,6640.682900780812,None,6641.199590098811,None,6641.199590098811,None,n,0.8080428312532604,6641.199590098811,None,,,NC1,001,2019_Dec_02_1412,ProdSingRedo,3.2.4,59.98641849657351,
,,,,15,0,15,0,,,,,,,,,,,,,,,,,,,,,,,,6647.168140299385,None,,,,,,,,,,,,,,,,,literature,new_b,white,15,145,173,6642.566588708665,None,6642.566588708665,None,3,2.760844806674868,6642.566588708665,None,6645.37201601034,None,6645.8844234482385,None,6645.8844234482385,None,f,1.2505904380232096,6645.8844234482385,None,,,NC1,001,2019_Dec_02_1412,ProdSingRedo,3.2.4,59.98641849657351,
,,,,16,0,16,0,,,,,,,,,,,,,,,,,,,,,,,,6650.452471379889,None,,,,,,,,,,,,,,,,,swift,new_c,white,16,165,320,6647.684954640223,None,6647.684954640223,None,1,1.6660696459002793,6647.684954640223,None,6649.387789737433,None,6649.902318833396,None,6649.902318833396,None,n,0.5049116597510874,6649.902318833396,None,,,NC1,001,2019_Dec_02_1412,ProdSingRedo,3.2.4,59.98641849657351,
,,,,17,0,17,0,,,,,,,,,,,,,,,,,,,,,,,,6655.420654597692,None,,,,,,,,,,,,,,,,,management,new_c,white,17,171,177,6650.969158520922,None,6650.969158520922,None,4,2.877486852230504,6650.969158520922,None,6653.891849872889,None,6654.40368631063,None,6654.40368631063,None,f,0.970807766309008,6654.40368631063,None,,,NC1,001,2019_Dec_02_1412,ProdSingRedo,3.2.4,59.98641849657351,
,,,,18,0,18,0,,,,,,,,,,,,,,,,,,,,,,,,6659.638614671072,None,,,,,,,,,,,,,,,,,pattern,new_c,white,18,169,214,6655.937438149238,None,6655.937438149238,None,2,2.196976746432483,6655.937438149238,None,6658.17180297384,None,6658.6768639145885,None,6658.6768639145885,None,f,0.9215720547363162,6658.6768639145885,None,,,NC1,001,2019_Dec_02_1412,ProdSingRedo,3.2.4,59.98641849657351,
,,,,19,0,19,0,,,,,,,,,,,,,,,,,,,,,,,,6664.706827123184,None,,,,,,,,,,,,,,,,,solution,new_b,white,19,144,294,6660.155433677137,None,6660.155433677137,None,3,2.7466341773979366,6660.155433677137,None,6662.939535859972,None,6663.456423286581,None,6663.456423286581,None,f,1.2135637444444,6663.456423286581,None,,,NC1,001,2019_Dec_02_1412,ProdSingRedo,3.2.4,59.98641849657351,
,,,,20,0,20,0,,,,,,,,,,,,,,,,,,,,,,,,6669.6416985702235,None,,,,,,,,,,,,,,,,,break,new_a,white,20,101,26,6665.225017027231,None,6665.225017027231,None,1,2.5249784630723298,6665.225017027231,None,6667.790804594057,None,6668.30781922047,None,6668.30781922047,None,n,1.2902774452231824,6668.30781922047,None,,,NC1,001,2019_Dec_02_1412,ProdSingRedo,3.2.4,59.98641849657351,
,,,,21,0,21,0,,,,,,,,,,,,,,,,,,,,,,,,6674.726580436109,None,,,,,,,,,,,,,,,,,testimony,silent,white,21,88,325,6670.158799033379,None,6670.158799033379,None,6,2.470660662278533,6670.158799033379,None,6672.692541231168,None,6673.192639507819,None,6673.192639507819,None,r,1.4929825433064252,6673.192639507819,None,,,NC1,001,2019_Dec_02_1412,ProdSingRedo,3.2.4,59.98641849657351,
,,,,22,0,22,0,,,,,,,,,,,,,,,,,,,,,,,,6677.944239459233,None,,,,,,,,,,,,,,,,,principal,aloud,white,22,52,236,6675.243357145693,None,6675.243357145693,None,6,1.6421187345404178,6675.243357145693,None,6676.931740897708,None,6677.444080537185,None,6677.444080537185,None,r,0.46513197384774685,6677.444080537185,None,,,NC1,001,2019_Dec_02_1412,ProdSingRedo,3.2.4,59.98641849657351,
,,,,23,0,23,0,,,,,,,,,,,,,,,,,,,,,,,,6682.328928192612,None,,,,,,,,,,,,,,,,,disease,sing,white,23,24,97,6678.461077436339,None,6678.461077436339,None,2,2.5198702497873455,6678.461077436339,None,6681.028311786009,None,6681.545326723484,None,6681.545326723484,None,f,0.7475699833594263,6681.545326723484,None,,,NC1,001,2019_Dec_02_1412,ProdSingRedo,3.2.4,59.98641849657351,
,,,,24,0,24,0,,,,,,,,,,,,,,,,,,,,,,,,6685.880016856361,None,,,,,,,,,,,,,,,,,drove,silent,white,24,72,106,6682.846901328303,None,6682.846901328303,None,1,1.56598847405985,6682.846901328303,None,6684.449268989032,None,6684.963062564377,None,6684.963062564377,None,n,0.8816657906863838,6684.963062564377,None,,,NC1,001,2019_Dec_02_1412,ProdSingRedo,3.2.4,59.98641849657351,
,,,,25,0,25,0,,,,,,,,,,,,,,,,,,,,,,,,6690.03128248034,None,,,,,,,,,,,,,,,,,route,new_a,white,25,94,267,6686.3967120833695,None,6686.3967120833695,None,2,2.1678678612224758,6686.3967120833695,None,6688.614036779152,None,6689.114284958923,None,6689.114284958923,None,f,0.8822162649594247,6689.114284958923,None,,,NC1,001,2019_Dec_02_1412,ProdSingRedo,3.2.4,59.98641849657351,
,,,,26,0,26,0,,,,,,,,,,,,,,,,,,,,,,,,6694.199234312167,None,,,,,,,,,,,,,,,,,death,new_c,white,26,153,86,6690.548099931097,None,6690.548099931097,None,5,2.1201277596410364,6690.548099931097,None,6692.717387829209,None,6693.232271156739,None,6693.232271156739,None,f,0.9241580388043076,6693.232271156739,None,,,NC1,001,2019_Dec_02_1412,ProdSingRedo,3.2.4,59.98641849657351,
,,,,27,0,27,0,,,,,,,,,,,,,,,,,,,,,,,,6697.43351423298,None,,,,,,,,,,,,,,,,,audience,new_c,white,27,172,14,6694.716052074218,None,6694.716052074218,None,1,1.6563816124107689,6694.716052074218,None,6696.417233261047,None,6696.933404760202,None,6696.933404760202,None,n,0.46261689788661897,6696.933404760202,None,,,NC1,001,2019_Dec_02_1412,ProdSingRedo,3.2.4,59.98641849657351,
,,,,28,0,28,0,,,,,,,,,,,,,,,,,,,,,,,,6702.251693252008,None,,,,,,,,,,,,,,,,,scale,sing,white,28,22,272,6697.950234340271,None,6697.950234340271,None,4,2.845530740916729,6697.950234340271,None,6700.837694104295,None,6701.351399976993,None,6701.351399976993,None,f,0.8602778494823724,6701.351399976993,None,,,NC1,001,2019_Dec_02_1412,ProdSingRedo,3.2.4,59.98641849657351,
,,,,29,0,29,0,,,,,,,,,,,,,,,,,,,,,,,,6706.086202692706,None,,,,,,,,,,,,,,,,,angle,aloud,white,29,46,7,6702.768393144244,None,6702.768393144244,None,4,2.2351983105763793,6702.768393144244,None,6705.053238000721,None,6705.56935631833,None,6705.56935631833,None,f,0.47433391073718667,6705.56935631833,None,,,NC1,001,2019_Dec_02_1412,ProdSingRedo,3.2.4,59.98641849657351,
,,,,30,0,30,0,,,,,,,,,,,,,,,,,,,,,,,,6713.205060940934,None,,,,,,,,,,,,,,,,,rough,new_a,white,30,110,266,6706.603045023745,None,6706.603045023745,None,2,3.656607710989192,6706.603045023745,None,6710.304138196865,None,6710.820986748207,None,6710.820986748207,None,f,2.3501584557816386,6710.820986748207,None,,,NC1,001,2019_Dec_02_1412,ProdSingRedo,3.2.4,59.98641849657351,
,,,,31,0,31,0,,,,,,,,,,,,,,,,,,,,,,,,6716.9061743291095,None,,,,,,,,,,,,,,,,,cover,sing,white,31,0,77,6713.722514391644,None,6713.722514391644,None,3,2.1284032207913697,6713.722514391644,None,6715.891949393554,None,6716.40603064606,None,6716.40603064606,None,f,0.45275439228862524,6716.40603064606,None,,,NC1,001,2019_Dec_02_1412,ProdSingRedo,3.2.4,59.98641849657351,
,,,,32,0,32,0,,,,,,,,,,,,,,,,,,,,,,,,6720.323906126898,None,,,,,,,,,,,,,,,,,travel,new_c,white,32,156,338,6717.424584422959,None,6717.424584422959,None,3,1.9141272807028145,6717.424584422959,None,6719.390260651009,None,6719.89044165425,None,6719.89044165425,None,f,0.38420792389661074,6719.89044165425,None,,,NC1,001,2019_Dec_02_1412,ProdSingRedo,3.2.4,59.98641849657351,
,,,,33,0,33,0,,,,,,,,,,,,,,,,,,,,,,,,6725.125374679919,None,,,,,,,,,,,,,,,,,emergency,new_b,white,33,127,110,6720.841667158995,None,6720.841667158995,None,2,2.128790107788518,6720.841667158995,None,6723.024638848379,None,6723.5248447321355,None,6723.5248447321355,None,f,1.5655353439506143,6723.5248447321355,None,,,NC1,001,2019_Dec_02_1412,ProdSingRedo,3.2.4,59.98641849657351,
,,,,34,0,34,0,,,,,,,,,,,,,,,,,,,,,,,,6728.4763887031,None,,,,,,,,,,,,,,,,,straight,aloud,white,34,48,307,6725.642139260657,None,6725.642139260657,None,2,1.648072563111782,6725.642139260657,None,6727.329690148355,None,6727.842868250096,None,6727.842868250096,None,f,0.5993391200900078,6727.842868250096,None,,,NC1,001,2019_Dec_02_1412,ProdSingRedo,3.2.4,59.98641849657351,
,,,,35,0,35,0,,,,,,,,,,,,,,,,,,,,,,,,6731.744078360032,None,,,,,,,,,,,,,,,,,committee,new_b,white,35,148,62,6728.993036035681,None,6728.993036035681,None,1,1.7129516918212175,6728.993036035681,None,6730.74765333184,None,6731.260584808653,None,6731.260584808653,None,n,0.43724501715041697,6731.260584808653,None,,,NC1,001,2019_Dec_02_1412,ProdSingRedo,3.2.4,59.98641849657351,
,,,,36,0,36,0,,,,,,,,,,,,,,,,,,,,,,,,6735.378535552183,None,,,,,,,,,,,,,,,,,resistance,sing,white,36,11,262,6732.260851959698,None,6732.260851959698,None,4,2.068860891740769,6732.260851959698,None,6734.382116744062,None,6734.895035780733,None,6734.895035780733,None,f,0.450606610160321,6734.895035780733,None,,,NC1,001,2019_Dec_02_1412,ProdSingRedo,3.2.4,59.98641849657351,
,,,,37,0,37,0,,,,,,,,,,,,,,,,,,,,,,,,6738.379424085841,None,,,,,,,,,,,,,,,,,budget,new_b,white,37,143,34,6735.895188171882,None,6735.895188171882,None,1,1.458715062821284,6735.895188171882,None,6737.396958708065,None,6737.912590307184,None,6737.912590307184,None,n,0.4329976581502706,6737.912590307184,None,,,NC1,001,2019_Dec_02_1412,ProdSingRedo,3.2.4,59.98641849657351,
,,,,38,0,38,0,,,,,,,,,,,,,,,,,,,,,,,,6744.114525985671,None,,,,,,,,,,,,,,,,,poetry,aloud,white,38,42,225,6738.896115891868,None,6738.896115891868,None,6,3.7050702709238976,6738.896115891868,None,6742.648218112066,None,6743.164221047889,None,6743.164221047889,None,r,0.909146889578551,6743.164221047889,None,,,NC1,001,2019_Dec_02_1412,ProdSingRedo,3.2.4,59.98641849657351,
,,,,39,0,39,0,,,,,,,,,,,,,,,,,,,,,,,,6748.3158209994435,None,,,,,,,,,,,,,,,,,express,aloud,white,39,51,124,6744.631352144759,None,6744.631352144759,None,3,2.6336946142837405,6744.631352144759,None,6747.302617706591,None,6747.8156462160405,None,6747.8156462160405,None,f,0.4653120441362262,6747.8156462160405,None,,,NC1,001,2019_Dec_02_1412,ProdSingRedo,3.2.4,59.98641849657351,
,,,,40,0,40,0,,,,,,,,,,,,,,,,,,,,,,,,6751.833550309297,None,,,,,,,,,,,,,,,,,material,new_b,white,40,134,182,6748.832643115427,None,6748.832643115427,None,1,1.61624054168351,6748.832643115427,None,6750.486539819045,None,6750.9999894257635,None,6750.9999894257635,None,n,0.7846318199299276,6750.9999894257635,None,,,NC1,001,2019_Dec_02_1412,ProdSingRedo,3.2.4,59.98641849657351,
,,,,41,0,41,0,,,,,,,,,,,,,,,,,,,,,,,,6755.618005479686,None,,,,,,,,,,,,,,,,,council,new_a,white,41,96,71,6752.35039730533,None,6752.35039730533,None,3,2.1300857432652265,6752.35039730533,None,6754.5203936665785,None,6755.034532454563,None,6755.034532454563,None,f,0.5421056724153459,6755.034532454563,None,,,NC1,001,2019_Dec_02_1412,ProdSingRedo,3.2.4,59.98641849657351,
,,,,42,0,42,0,,,,,,,,,,,,,,,,,,,,,,,,6758.935740698595,None,,,,,,,,,,,,,,,,,colonel,new_b,white,42,121,55,6756.134736472042,None,6756.134736472042,None,1,1.6976273630280048,6756.134736472042,None,6757.87257861346,None,6758.385575400898,None,6758.385575400898,None,n,0.502618950791657,6758.385575400898,None,,,NC1,001,2019_Dec_02_1412,ProdSingRedo,3.2.4,59.98641849657351,
,,,,43,0,43,0,,,,,,,,,,,,,,,,,,,,,,,,6762.886961538345,None,,,,,,,,,,,,,,,,,military,new_c,white,43,151,190,6759.453277186956,None,6759.453277186956,None,3,2.467049303231761,6759.453277186956,None,6761.9698663621675,None,6762.470001337351,None,6762.470001337351,None,f,0.3699553089682013,6762.470001337351,None,,,NC1,001,2019_Dec_02_1412,ProdSingRedo,3.2.4,59.98641849657351,
,,,,44,0,44,0,,,,,,,,,,,,,,,,,,,,,,,,6766.187947415747,None,,,,,,,,,,,,,,,,,oxygen,new_b,white,44,138,209,6763.403627842199,None,6763.403627842199,None,1,1.5962928521912545,6763.403627842199,None,6765.054147993447,None,6765.554292298621,None,6765.554292298621,None,n,0.5975377943832427,6765.554292298621,None,,,NC1,001,2019_Dec_02_1412,ProdSingRedo,3.2.4,59.98641849657351,
,,,,45,0,45,0,,,,,,,,,,,,,,,,,,,,,,,,6769.438942467561,None,,,,,,,,,,,,,,,,,brief,new_b,white,45,132,28,6766.704637044575,None,6766.704637044575,None,1,1.7349914941005409,6766.704637044575,None,6768.495931156445,None,6769.005367589183,None,6769.005367589183,None,n,0.3861824774648994,6769.005367589183,None,,,NC1,001,2019_Dec_02_1412,ProdSingRedo,3.2.4,59.98641849657351,
,,,,46,0,46,0,,,,,,,,,,,,,,,,,,,,,,,,6772.789940940682,None,,,,,,,,,,,,,,,,,symbol,silent,white,46,67,321,6769.9583676732145,None,6769.9583676732145,None,2,1.8972389213740826,6769.9583676732145,None,6771.894717003452,None,6772.406422509113,None,6772.406422509113,None,f,0.3369321485515684,6772.406422509113,None,,,NC1,001,2019_Dec_02_1412,ProdSingRedo,3.2.4,59.98641849657351,
,,,,47,0,47,0,,,,,,,,,,,,,,,,,,,,,,,,6776.34106319258,None,,,,,,,,,,,,,,,,,stand,sing,white,47,1,302,6773.3068193478975,None,6773.3068193478975,None,1,1.7888076482340693,6773.3068193478975,None,6775.143470661482,None,6775.657525789691,None,6775.657525789691,None,n,0.6375914737582207,6775.657525789691,None,,,NC1,001,2019_Dec_02_1412,ProdSingRedo,3.2.4,59.98641849657351,
,,,,48,0,48,0,,,,,,,,,,,,,,,,,,,,,,,,6781.976100714877,None,,,,,,,,,,,,,,,,,native,new_b,white,48,129,199,6776.858276549494,None,6776.858276549494,None,3,4.108854858437553,6776.858276549494,None,6781.012764468556,None,6781.526313595939,None,6781.526313595939,None,f,0.40871739527210593,6781.526313595939,None,,,NC1,001,2019_Dec_02_1412,ProdSingRedo,3.2.4,59.98641849657351,
,,,,49,0,49,0,,,,,,,,,,,,,,,,,,,,,,,,6785.910680130823,None,,,,,,,,,,,,,,,,,character,new_a,white,49,90,46,6782.492898883764,None,6782.492898883764,None,1,2.4579552840441465,6782.492898883764,None,6784.997811476467,None,6785.510564749129,None,6785.510564749129,None,n,0.3599976364057511,6785.510564749129,None,,,NC1,001,2019_Dec_02_1412,ProdSingRedo,3.2.4,59.98641849657351,
,,,,50,0,50,0,,,,,,,,,,,,,,,,,,,,,,,,6789.678488279926,None,,,,,,,,,,,,,,,,,throw,silent,white,50,81,330,6786.427492605755,None,6786.427492605755,None,1,1.8830783632583916,6786.427492605755,None,6788.344660867471,None,6788.861605829326,None,6788.861605829326,None,n,0.7766953513491899,6788.861605829326,None,,,NC1,001,2019_Dec_02_1412,ProdSingRedo,3.2.4,59.98641849657351,
,,,,51,0,51,0,,,,,,,,,,,,,,,,,,,,,,,,6793.212885448476,None,,,,,,,,,,,,,,,,,phrase,new_c,white,51,158,220,6790.195316615747,None,6790.195316615747,None,1,1.7708360676188022,6790.195316615747,None,6792.01516167447,None,6792.529370437842,None,6792.529370437842,None,n,0.6448042397387326,6792.529370437842,None,,,NC1,001,2019_Dec_02_1412,ProdSingRedo,3.2.4,59.98641849657351,
,,,,52,0,52,0,,,,,,,,,,,,,,,,,,,,,,,,6799.13620875706,None,,,,,,,,,,,,,,,,,broke,silent,white,52,84,32,6793.7295162980445,None,6793.7295162980445,None,1,4.452373414300382,6793.7295162980445,None,6798.231011286145,None,6798.7311338211875,None,6798.7311338211875,None,n,0.37868856522254646,6798.7311338211875,None,,,NC1,001,2019_Dec_02_1412,ProdSingRedo,3.2.4,59.98641849657351,
,,,,53,0,53,0,,,,,,,,,,,,,,,,,,,,,,,,6802.699151274515,None,,,,,,,,,,,,,,,,,volume,aloud,white,53,40,349,6799.664751617936,None,6799.664751617936,None,3,1.9649183151777834,6799.664751617936,None,6801.66690468695,None,6802.182210355764,None,6802.182210355764,None,f,0.47134362324140966,6802.182210355764,None,,,NC1,001,2019_Dec_02_1412,ProdSingRedo,3.2.4,59.98641849657351,
,,,,54,0,54,0,,,,,,,,,,,,,,,,,,,,,,,,6805.7834437908605,None,,,,,,,,,,,,,,,,,rural,new_b,white,54,125,269,6803.215962505434,None,6803.215962505434,None,1,1.55771052534692,6803.215962505434,None,6804.819243891165,None,6805.333314258372,None,6805.333314258372,None,n,0.40829443209804595,6805.333314258372,None,,,NC1,001,2019_Dec_02_1412,ProdSingRedo,3.2.4,59.98641849657351,
,,,,55,0,55,0,,,,,,,,,,,,,,,,,,,,,,,,6809.768004702171,None,,,,,,,,,,,,,,,,,estate,new_c,white,55,177,119,6806.30012097978,None,6806.30012097978,None,1,2.041375749744475,6806.30012097978,None,6808.386992949527,None,6808.901050876826,None,6808.901050876826,None,n,0.8321411577053368,6808.901050876826,None,,,NC1,001,2019_Dec_02_1412,ProdSingRedo,3.2.4,59.98641849657351,
,,,,56,0,56,0,,,,,,,,,,,,,,,,,,,,,,,,6813.252381189261,None,,,,,,,,,,,,,,,,,cousin,aloud,white,56,38,76,6810.284637728939,None,6810.284637728939,None,4,2.0726793785579503,6810.284637728939,None,6812.404176450102,None,6812.918956213864,None,6812.918956213864,None,f,0.285911594517529,6812.918956213864,None,,,NC1,001,2019_Dec_02_1412,ProdSingRedo,3.2.4,59.98641849657351,
,,,,57,0,57,0,,,,,,,,,,,,,,,,,,,,,,,,6817.4703512147535,None,,,,,,,,,,,,,,,,,institute,silent,white,57,87,162,6813.769082325278,None,6813.769082325278,None,3,2.7556398718152195,6813.769082325278,None,6816.574220705777,None,6817.086885964731,None,6817.086885964731,None,f,0.34198220423422754,6817.086885964731,None,,,NC1,001,2019_Dec_02_1412,ProdSingRedo,3.2.4,59.98641849657351,
,,,,58,0,58,0,,,,,,,,,,,,,,,,,,,,,,,,6821.504876205465,None,,,,,,,,,,,,,,,,,capital,silent,white,58,74,40,6817.987168043852,None,6817.987168043852,None,5,2.4973300450947136,6817.987168043852,None,6820.5211164359935,None,6821.038080058061,None,6821.038080058061,None,f,0.42272525117732584,6821.038080058061,None,,,NC1,001,2019_Dec_02_1412,ProdSingRedo,3.2.4,59.98641849657351,
,,,,59,0,59,0,,,,,,,,,,,,,,,,,,,,,,,,6825.222712188959,None,,,,,,,,,,,,,,,,,service,new_c,white,59,168,280,6822.021542820381,None,6822.021542820381,None,3,2.182756475871429,6822.021542820381,None,6824.242648993386,None,6824.755911687622,None,6824.755911687622,None,f,0.4245399497449398,6824.755911687622,None,,,NC1,001,2019_Dec_02_1412,ProdSingRedo,3.2.4,59.98641849657351,
,,,,60,0,60,0,,,,,,,,,,,,,,,,,,,,,,,,6828.423658569111,None,,,,,,,,,,,,,,,,,weight,new_a,white,60,102,353,6825.739406794077,None,6825.739406794077,None,1,1.5206113683525473,6825.739406794077,None,6827.308713352308,None,6827.823523905128,None,6827.823523905128,None,n,0.5569392396137118,6827.823523905128,None,,,NC1,001,2019_Dec_02_1412,ProdSingRedo,3.2.4,59.98641849657351,
,,,,61,0,61,0,,,,,,,,,,,,,,,,,,,,,,,,6834.942366603296,None,,,,,,,,,,,,,,,,,display,silent,white,61,70,98,6828.9403929824475,None,6828.9403929824475,None,3,4.0552862621843815,6828.9403929824475,None,6833.048025912605,None,6833.558632957982,None,6833.558632957982,None,f,1.3412081196438521,6833.558632957982,None,,,NC1,001,2019_Dec_02_1412,ProdSingRedo,3.2.4,59.98641849657351,
,,,,62,0,62,0,,,,,,,,,,,,,,,,,,,,,,,,6840.544085513102,None,,,,,,,,,,,,,,,,,mayor,new_b,white,62,133,183,6835.459046902135,None,6835.459046902135,None,6,3.584501509787515,6835.459046902135,None,6839.093538304558,None,6839.5936306722,None,6839.5936306722,None,r,0.9139297942165285,6839.5936306722,None,,,NC1,001,2019_Dec_02_1412,ProdSingRedo,3.2.4,59.98641849657351,
,,,,63,0,63,0,,,,,,,,,,,,,,,,,,,,,,,,6844.561967835994,None,,,,,,,,,,,,,,,,,election,new_c,white,63,166,109,6841.060773587087,None,6841.060773587087,None,3,2.438237736467272,6841.060773587087,None,6843.548695500707,None,6844.061834727181,None,6844.061834727181,None,f,0.46120277023874223,6844.061834727181,None,,,NC1,001,2019_Dec_02_1412,ProdSingRedo,3.2.4,59.98641849657351,
,,,,64,0,64,0,,,,,,,,,,,,,,,,,,,,,,,,6849.713552237488,None,,,,,,,,,,,,,,,,,weather,new_a,white,64,116,352,6845.078656843165,None,6845.078656843165,None,6,3.5161441310774535,6845.078656843165,None,6848.629772252869,None,6849.146717214957,None,6849.146717214957,None,r,0.5280063818208873,6849.146717214957,None,,,NC1,001,2019_Dec_02_1412,ProdSingRedo,3.2.4,59.98641849657351,
,,,,65,0,65,0,,,,,,,,,,,,,,,,,,,,,,,,6857.332524623489,None,,,,,,,,,,,,,,,,,region,silent,white,65,73,256,6850.2303983005695,None,6850.2303983005695,None,6,5.979922933736816,6850.2303983005695,None,6856.248751481064,None,6856.76568773482,None,6856.76568773482,None,r,0.5247564073652029,6856.76568773482,None,,,NC1,001,2019_Dec_02_1412,ProdSingRedo,3.2.4,59.98641849657351,
,,,,66,0,66,0,,,,,,,,,,,,,,,,,,,,,,,,6862.200731788529,None,,,,,,,,,,,,,,,,,heavy,new_c,white,66,159,151,6857.8493986770045,None,6857.8493986770045,None,1,3.0730000217445195,6857.8493986770045,None,6860.973734298255,None,6861.483844050905,None,6861.483844050905,None,n,0.6781175651121885,6861.483844050905,None,,,NC1,001,2019_Dec_02_1412,ProdSingRedo,3.2.4,59.98641849657351,
,,,,67,0,67,0,,,,,,,,,,,,,,,,,,,,,,,,6866.452022292651,None,,,,,,,,,,,,,,,,,background,sing,white,67,28,16,6862.722039180109,None,6862.722039180109,None,6,2.7277815269771963,6862.722039180109,None,6865.489330443088,None,6866.001853884896,None,6866.001853884896,None,r,0.415963749634102,6866.001853884896,None,,,NC1,001,2019_Dec_02_1412,ProdSingRedo,3.2.4,59.98641849657351,
,,,,68,0,68,0,,,,,,,,,,,,,,,,,,,,,,,,6870.1864763747435,None,,,,,,,,,,,,,,,,,impact,new_a,white,68,99,157,6866.968854360748,None,6866.968854360748,None,2,2.0410053462255746,6866.968854360748,None,6869.053618667647,None,6869.56962160347,None,6869.56962160347,None,f,0.5759974622633308,6869.56962160347,None,,,NC1,001,2019_Dec_02_1412,ProdSingRedo,3.2.4,59.98641849657351,
,,,,69,0,69,0,,,,,,,,,,,,,,,,,,,,,,,,6874.504472213332,None,,,,,,,,,,,,,,,,,spoke,new_b,white,69,128,300,6870.7032179411035,None,6870.7032179411035,None,3,2.953976320102811,6870.7032179411035,None,6873.70736702322,None,6874.221075694775,None,6874.221075694775,None,f,0.24403668567538261,6874.221075694775,None,,,NC1,001,2019_Dec_02_1412,ProdSingRedo,3.2.4,59.98641849657351,
,,,,70,0,70,0,,,,,,,,,,,,,,,,,,,,,,,,6877.272009479348,None,,,,,,,,,,,,,,,,,relation,new_a,white,70,113,257,6875.021188277518,None,6875.021188277518,None,1,1.2921120477840304,6875.021188277518,None,6876.359888163395,None,6876.871858643135,None,6876.871858643135,None,n,0.3530952506698668,6876.871858643135,None,,,NC1,001,2019_Dec_02_1412,ProdSingRedo,3.2.4,59.98641849657351,
,,,,71,0,71,0,,,,,,,,,,,,,,,,,,,,,,,,6880.172895213822,None,,,,,,,,,,,,,,,,,permit,sing,white,71,8,218,6877.788716524374,None,6877.788716524374,None,1,1.4522054730914533,6877.788716524374,None,6879.289137310581,None,6879.806136386935,None,6879.806136386935,None,n,0.3233043374493718,6879.806136386935,None,,,NC1,001,2019_Dec_02_1412,ProdSingRedo,3.2.4,59.98641849657351,
,,,,72,0,72,0,,,,,,,,,,,,,,,,,,,,,,,,6883.707325037802,None,,,,,,,,,,,,,,,,,guide,aloud,white,72,59,147,6880.689582043793,None,6880.689582043793,None,3,1.6151706934906542,6880.689582043793,None,6882.344358884264,None,6882.8570533772,None,6882.8570533772,None,f,0.8078157994896173,6882.8570533772,None,,,NC1,001,2019_Dec_02_1412,ProdSingRedo,3.2.4,59.98641849657351,
,,,,73,0,73,0,,,,,,,,,,,,,,,,,,,,,,,,6890.109258850338,None,,,,,,,,,,,,,,,,,whole,new_c,white,73,179,355,6884.224155861884,None,6884.224155861884,None,2,5.016103700501844,6884.224155861884,None,6889.275534379762,None,6889.792502355762,None,6889.792502355762,None,f,0.27975281537510455,6889.792502355762,None,,,NC1,001,2019_Dec_02_1412,ProdSingRedo,3.2.4,59.98641849657351,
,,,,74,0,74,0,,,,,,,,,,,,,,,,,,,,,,,,6893.293582466897,None,,,,,,,,,,,,,,,,,second,new_c,white,74,157,278,6890.625969627406,None,6890.625969627406,None,1,1.4064523654524237,6890.625969627406,None,6892.076445305487,None,6892.58258915646,None,6892.58258915646,None,n,0.6734892285894603,6892.58258915646,None,,,NC1,001,2019_Dec_02_1412,ProdSingRedo,3.2.4,59.98641849657351,
,,,,75,0,75,0,,,,,,,,,,,,,,,,,,,,,,,,6896.477924743667,None,,,,,,,,,,,,,,,,,reach,new_a,white,75,108,253,6893.810371927684,None,6893.810371927684,None,1,1.7814804331865162,6893.810371927684,None,6895.630838369019,None,6896.144452184904,None,6896.144452184904,None,n,0.2953897013794631,6896.144452184904,None,,,NC1,001,2019_Dec_02_1412,ProdSingRedo,3.2.4,59.98641849657351,
,,,,76,0,76,0,,,,,,,,,,,,,,,,,,,,,,,,6900.129016206367,None,,,,,,,,,,,,,,,,,treatment,aloud,white,76,41,339,6896.994720735354,None,6896.994720735354,None,6,1.9572455766610801,6896.994720735354,None,6898.995317237917,None,6899.512136554811,None,6899.512136554811,None,r,0.583538957638666,6899.512136554811,None,,,NC1,001,2019_Dec_02_1412,ProdSingRedo,3.2.4,59.98641849657351,
,,,,77,0,77,0,,,,,,,,,,,,,,,,,,,,,,,,6903.98020532378,None,,,,,,,,,,,,,,,,,little,sing,white,77,16,174,6900.645698682172,None,6900.645698682172,None,1,2.4581036323215812,6900.645698682172,None,6903.1486323671415,None,6903.652432504576,None,6903.652432504576,None,n,0.28332498809322715,6903.652432504576,None,,,NC1,001,2019_Dec_02_1412,ProdSingRedo,3.2.4,59.98641849657351,
,,,,78,0,78,0,,,,,,,,,,,,,,,,,,,,,,,,6907.331224322785,None,,,,,,,,,,,,,,,,,bitter,new_b,white,78,131,23,6904.49702681764,None,6904.49702681764,None,1,1.750325463945046,6904.49702681764,None,6906.2841407470405,None,6906.79761772207,None,6906.79761772207,None,n,0.49004419334232807,6906.79761772207,None,,,NC1,001,2019_Dec_02_1412,ProdSingRedo,3.2.4,59.98641849657351,
,,,,79,0,79,0,,,,,,,,,,,,,,,,,,,,,,,,6910.58217303548,None,,,,,,,,,,,,,,,,,country,new_a,white,79,95,73,6907.8486933235545,None,6907.8486933235545,None,3,1.9022852452471852,6907.8486933235545,None,6909.799199479865,None,6910.315418562386,None,6910.315418562386,None,f,0.21950513310730457,6910.315418562386,None,,,NC1,001,2019_Dec_02_1412,ProdSingRedo,3.2.4,59.98641849657351,
,,,,80,0,80,0,,,,,,,,,,,,,,,,,,,,,,,,6915.066933299182,None,,,,,,,,,,,,,,,,,trail,aloud,white,80,36,336,6911.099051131867,None,6911.099051131867,None,1,2.867851378163323,6911.099051131867,None,6914.002826389158,None,6914.516750585288,None,6914.516750585288,None,n,0.5139705357141793,6914.516750585288,None,,,NC1,001,2019_Dec_02_1412,ProdSingRedo,3.2.4,59.98641849657351,
,,,,81,0,81,0,,,,,,,,,,,,,,,,,,,,,,,,6920.902059768327,None,,,,,,,,,,,,,,,,,clean,silent,white,81,61,51,6915.583614220144,None,6915.583614220144,None,2,4.494740639580414,6915.583614220144,None,6920.120753807481,None,6920.635283214273,None,6920.635283214273,None,f,0.21900721825659275,6920.635283214273,None,,,NC1,001,2019_Dec_02_1412,ProdSingRedo,3.2.4,59.98641849657351,
,,,,82,0,82,0,,,,,,,,,,,,,,,,,,,,,,,,6925.38676156383,None,,,,,,,,,,,,,,,,,patient,sing,white,82,23,213,6921.4188803292345,None,6921.4188803292345,None,3,3.131269418168813,6921.4188803292345,None,6924.586393336998,None,6925.103321815841,None,6925.103321815841,None,f,0.24676884128712118,6925.103321815841,None,,,NC1,001,2019_Dec_02_1412,ProdSingRedo,3.2.4,59.98641849657351,
,,,,83,0,83,0,,,,,,,,,,,,,,,,,,,,,,,,6929.371289819945,None,,,,,,,,,,,,,,,,,company,silent,white,83,78,64,6925.903446216835,None,6925.903446216835,None,2,2.614472804358229,6925.903446216835,None,6928.570937143173,None,6929.071200562175,None,6929.071200562175,None,f,0.26261223293840885,6929.071200562175,None,,,NC1,001,2019_Dec_02_1412,ProdSingRedo,3.2.4,59.98641849657351,
,,,,84,0,84,0,,,,,,,,,,,,,,,,,,,,,,,,6934.306114616804,None,,,,,,,,,,,,,,,,,benefit,new_a,white,84,115,20,6929.88801179314,None,6929.88801179314,None,3,3.4856363574508578,6929.88801179314,None,6933.428326092195,None,6933.939230144722,None,6933.939230144722,None,f,0.3226244864054024,6933.939230144722,None,,,NC1,001,2019_Dec_02_1412,ProdSingRedo,3.2.4,59.98641849657351,
,,,,85,0,85,0,,,,,,,,,,,,,,,,,,,,,,,,6938.324097704375,None,,,,,,,,,,,,,,,,,power,aloud,white,85,43,230,6934.822963790037,None,6934.822963790037,None,1,2.4543215327430516,6934.822963790037,None,6937.326417781878,None,6937.8405590576585,None,6937.8405590576585,None,n,0.43666437547653913,6937.8405590576585,None,,,NC1,001,2019_Dec_02_1412,ProdSingRedo,3.2.4,59.98641849657351,
,,,,86,0,86,0,,,,,,,,,,,,,,,,,,,,,,,,6942.008517420618,None,,,,,,,,,,,,,,,,,balance,aloud,white,86,37,17,6938.840809725691,None,6938.840809725691,None,2,2.364330210024491,6938.840809725691,None,6941.258174229646,None,6941.758451332804,None,6941.758451332804,None,f,0.2146457217168063,6941.758451332804,None,,,NC1,001,2019_Dec_02_1412,ProdSingRedo,3.2.4,59.98641849657351,
,,,,87,0,87,0,,,,,,,,,,,,,,,,,,,,,,,,6947.126729406184,None,,,,,,,,,,,,,,,,,worker,new_a,white,87,103,356,6942.525235973066,None,6942.525235973066,None,3,3.6956139341928065,6942.525235973066,None,6946.276385904057,None,6946.776514969999,None,6946.776514969999,None,f,0.30845366534776986,6946.776514969999,None,,,NC1,001,2019_Dec_02_1412,ProdSingRedo,3.2.4,59.98641849657351,
,,,,88,0,88,0,,,,,,,,,,,,,,,,,,,,,,,,6950.881705909967,None,,,,,,,,,,,,,,,,,store,silent,white,88,65,305,6947.6434495134745,None,6947.6434495134745,None,1,2.257658276706934,6947.6434495134745,None,6949.946606497979,None,6950.461095785489,None,6950.461095785489,None,n,0.38345467601902783,6950.461095785489,None,,,NC1,001,2019_Dec_02_1412,ProdSingRedo,3.2.4,59.98641849657351,
,,,,89,0,89,0,,,,,,,,,,,,,,,,,,,,,,,,6954.278967223363,None,,,,,,,,,,,,,,,,,candidate,silent,white,89,89,39,6951.411395125324,None,6951.411395125324,None,2,1.8810011788737029,6951.411395125324,None,6953.333794757025,None,6953.845459521515,None,6953.845459521515,None,f,0.39109942433424294,6953.845459521515,None,,,NC1,001,2019_Dec_02_1412,ProdSingRedo,3.2.4,59.98641849657351,
,,,,90,0,90,0,,,,,,,,,,,,,,,,,,,,,,,,6957.663317586295,None,,,,,,,,,,,,,,,,,south,silent,white,90,60,296,6954.795790894423,None,6954.795790894423,None,1,1.6804149392992258,6954.795790894423,None,6956.51566891931,None,6957.0297623008955,None,6957.0297623008955,None,n,0.5983622616622597,6957.0297623008955,None,,,NC1,001,2019_Dec_02_1412,ProdSingRedo,3.2.4,59.98641849657351,
,,,,91,0,91,0,,,,,,,,,,,,,,,,,,,,,,,,6960.814286825014,None,,,,,,,,,,,,,,,,,subject,sing,white,91,20,312,6958.179984200979,None,6958.179984200979,None,3,1.696015127003193,6958.179984200979,None,6959.916310517117,None,6960.430698728887,None,6960.430698728887,None,f,0.3493526487145573,6960.430698728887,None,,,NC1,001,2019_Dec_02_1412,ProdSingRedo,3.2.4,59.98641849657351,
,,,,92,0,92,0,,,,,,,,,,,,,,,,,,,,,,,,6964.0319564223755,None,,,,,,,,,,,,,,,,,public,new_a,white,92,106,244,6961.330961214844,None,6961.330961214844,None,1,1.7128490612376481,6961.330961214844,None,6963.098164464114,None,6963.598409845028,None,6963.598409845028,None,n,0.3898224486038089,6963.598409845028,None,,,NC1,001,2019_Dec_02_1412,ProdSingRedo,3.2.4,59.98641849657351,
,,,,93,0,93,0,,,,,,,,,,,,,,,,,,,,,,,,6967.099515147274,None,,,,,,,,,,,,,,,,,primary,new_b,white,93,135,234,6964.548759256024,None,6964.548759256024,None,1,1.6467815923970193,6964.548759256024,None,6966.249133702833,None,6966.749422002118,None,6966.749422002118,None,n,0.3020896245725453,6966.749422002118,None,,,NC1,001,2019_Dec_02_1412,ProdSingRedo,3.2.4,59.98641849657351,
,,,,94,0,94,0,,,,,,,,,,,,,,,,,,,,,,,,6970.617295772536,None,,,,,,,,,,,,,,,,,still,aloud,white,94,58,304,6967.616366186412,None,6967.616366186412,None,3,2.154914614278823,6967.616366186412,None,6969.817774716066,None,6970.333882770734,None,6970.333882770734,None,f,0.24545330135151744,6970.333882770734,None,,,NC1,001,2019_Dec_02_1412,ProdSingRedo,3.2.4,59.98641849657351,
,,,,95,0,95,0,,,,,,,,,,,,,,,,,,,,,,,,6974.15173399332,None,,,,,,,,,,,,,,,,,childhood,new_a,white,95,118,49,6971.133958344348,None,6971.133958344348,None,4,2.1013416640926152,6971.133958344348,None,6973.270005691331,None,6973.784942511236,None,6973.784942511236,None,f,0.33018122101202607,6973.784942511236,None,,,NC1,001,2019_Dec_02_1412,ProdSingRedo,3.2.4,59.98641849657351,
,,,,96,0,96,0,,,,,,,,,,,,,,,,,,,,,,,,6977.469347610371,None,,,,,,,,,,,,,,,,,attack,sing,white,96,5,13,6974.6735511177685,None,6974.6735511177685,None,1,1.7536597200669348,6974.6735511177685,None,6976.475079072174,None,6976.985809896607,None,6976.985809896607,None,n,0.4413166595622897,6976.985809896607,None,,,NC1,001,2019_Dec_02_1412,ProdSingRedo,3.2.4,59.98641849657351,
,,,,97,0,97,0,,,,,,,,,,,,,,,,,,,,,,,,6980.953806201927,None,,,,,,,,,,,,,,,,,republic,new_b,white,97,146,260,6977.988246599911,None,6977.988246599911,None,1,2.0389561515767127,6977.988246599911,None,6980.086787998909,None,6980.58679981716,None,6980.58679981716,None,n,0.31983635062351823,6980.58679981716,None,,,NC1,001,2019_Dec_02_1412,ProdSingRedo,3.2.4,59.98641849657351,
,,,,98,0,98,0,,,,,,,,,,,,,,,,,,,,,,,,6984.004722881364,None,,,,,,,,,,,,,,,,,quarter,new_c,white,98,173,246,6981.470582600683,None,6981.470582600683,None,1,1.5479102197568864,6981.470582600683,None,6983.071105084615,None,6983.571283599827,None,6983.571283599827,None,n,0.3993447180837393,6983.571283599827,None,,,NC1,001,2019_Dec_02_1412,ProdSingRedo,3.2.4,59.98641849657351,
,,,,99,0,99,0,,,,,,,,,,,,,,,,,,,,,,,,6987.005652467255,None,,,,,,,,,,,,,,,,,sunset,new_b,white,99,120,315,6984.521437701536,None,6984.521437701536,None,1,1.5689737857319415,6984.521437701536,None,6986.138631465379,None,6986.655550302938,None,6986.655550302938,None,n,0.31476639048196375,6986.655550302938,None,,,NC1,001,2019_Dec_02_1412,ProdSingRedo,3.2.4,59.98641849657351,
,,,,100,0,100,0,,,,,,,,,,,,,,,,,,,,,,,,6990.089873142075,None,,,,,,,,,,,,,,,,,master,new_c,white,100,161,180,6987.522467119154,None,6987.522467119154,None,1,1.5599276607390493,6987.522467119154,None,6989.125434703426,None,6989.639804877108,None,6989.639804877108,None,n,0.4023421586025506,6989.639804877108,None,,,NC1,001,2019_Dec_02_1412,ProdSingRedo,3.2.4,59.98641849657351,
,,,,101,0,101,0,,,,,,,,,,,,,,,,,,,,,,,,6993.224122895626,None,,,,,,,,,,,,,,,,,owner,new_c,white,101,170,208,6990.606621239567,None,6990.606621239567,None,2,1.651434498373419,6990.606621239567,None,6992.2904491184745,None,6992.807380396174,None,6992.807380396174,None,f,0.3785759825259447,6992.807380396174,None,,,NC1,001,2019_Dec_02_1412,ProdSingRedo,3.2.4,59.98641849657351,
,,,,102,0,102,0,,,,,,,,,,,,,,,,,,,,,,,,6996.658610565821,None,,,,,,,,,,,,,,,,,build,sing,white,102,6,35,6993.740991350962,None,6993.740991350962,None,5,1.836749279173091,6993.740991350962,None,6995.624994946178,None,6996.141788760899,None,6996.141788760899,None,f,0.4761246619746089,6996.141788760899,None,,,NC1,001,2019_Dec_02_1412,ProdSingRedo,3.2.4,59.98641849657351,
,,,,103,0,103,0,,,,,,,,,,,,,,,,,,,,,,,,7000.609841046622,None,,,,,,,,,,,,,,,,,clear,sing,white,103,4,52,6997.175289309816,None,6997.175289309816,None,6,2.466207108926028,6997.175289309816,None,6999.6794710471295,None,7000.19302141876,None,7000.19302141876,None,r,0.3684062063694,7000.19302141876,None,,,NC1,001,2019_Dec_02_1412,ProdSingRedo,3.2.4,59.98641849657351,
,,,,104,0,104,0,,,,,,,,,,,,,,,,,,,,,,,,7003.710749795428,None,,,,,,,,,,,,,,,,,science,new_b,white,104,141,275,7001.126659119502,None,7001.126659119502,None,1,1.5072345363441855,7001.126659119502,None,7002.680415250128,None,7003.193926124368,None,7003.193926124368,None,n,0.4717345533426851,7003.193926124368,None,,,NC1,001,2019_Dec_02_1412,ProdSingRedo,3.2.4,59.98641849657351,
,,,,105,0,105,0,,,,,,,,,,,,,,,,,,,,,,,,7006.828392335679,None,,,,,,,,,,,,,,,,,atmosphere,new_c,white,105,174,12,7004.227465548553,None,7004.227465548553,None,1,1.6137279537506402,7004.227465548553,None,7005.8779614418745,None,7006.394901738735,None,7006.394901738735,None,n,0.3904836396686733,7006.394901738735,None,,,NC1,001,2019_Dec_02_1412,ProdSingRedo,3.2.4,59.98641849657351,
,,,,106,0,106,0,,,,,,,,,,,,,,,,,,,,,,,,7010.4795176975895,None,,,,,,,,,,,,,,,,,question,sing,white,106,19,247,7007.345133902039,None,7007.345133902039,None,6,1.9438864716794342,7007.345133902039,None,7009.330627198331,None,7009.845982938306,None,7009.845982938306,None,r,0.5868321612942964,7009.845982938306,None,,,NC1,001,2019_Dec_02_1412,ProdSingRedo,3.2.4,59.98641849657351,
,,,,107,0,107,0,,,,,,,,,,,,,,,,,,,,,,,,7015.164287291467,None,,,,,,,,,,,,,,,,,opening,new_a,white,107,105,205,7010.9962950292975,None,7010.9962950292975,None,1,3.156783116282895,7010.9962950292975,None,7014.20145331393,None,7014.71413629991,None,7014.71413629991,None,n,0.41447560326196253,7014.71413629991,None,,,NC1,001,2019_Dec_02_1412,ProdSingRedo,3.2.4,59.98641849657351,
,,,,108,0,108,0,,,,,,,,,,,,,,,,,,,,,,,,7024.5004969816655,None,,,,,,,,,,,,,,,,,vision,new_a,white,108,119,347,7015.682681524195,None,7015.682681524195,None,2,4.101611303165555,7015.682681524195,None,7019.839979038341,None,7020.349178176373,None,7020.349178176373,None,n,4.114892968675122,7020.349178176373,None,,,NC1,001,2019_Dec_02_1412,ProdSingRedo,3.2.4,59.98641849657351,
,,,,109,0,109,0,,,,,,,,,,,,,,,,,,,,,,,,7027.9014847250655,None,,,,,,,,,,,,,,,,,range,new_a,white,109,117,251,7025.017167328624,None,7025.017167328624,None,1,1.9107019011862576,7025.017167328624,None,7026.967754967511,None,7027.48471610155,None,7027.48471610155,None,n,0.3791037534829229,7027.48471610155,None,,,NC1,001,2019_Dec_02_1412,ProdSingRedo,3.2.4,59.98641849657351,
,,,,110,0,110,0,,,,,,,,,,,,,,,,,,,,,,,,7032.769671052694,None,,,,,,,,,,,,,,,,,bicycle,aloud,white,110,33,21,7028.422251283657,None,7028.422251283657,None,3,3.521526648197323,7028.422251283657,None,7032.002659691963,None,7032.502889522584,None,7032.502889522584,None,f,0.23271899996325374,7032.502889522584,None,,,NC1,001,2019_Dec_02_1412,ProdSingRedo,3.2.4,59.98641849657351,
,,,,111,0,111,0,,,,,,,,,,,,,,,,,,,,,,,,7035.820627851412,None,,,,,,,,,,,,,,,,,finance,silent,white,111,76,129,7033.286449006526,None,7033.286449006526,None,2,1.6969667940866202,7033.286449006526,None,7035.0229218045715,None,7035.537193079479,None,7035.537193079479,None,f,0.23856770992279053,7035.537193079479,None,,,NC1,001,2019_Dec_02_1412,ProdSingRedo,3.2.4,59.98641849657351,
,,,,112,0,112,0,,,,,,,,,,,,,,,,,,,,,,,,7040.822150518885,None,,,,,,,,,,,,,,,,,growth,silent,white,112,63,144,7036.337449656334,None,7036.337449656334,None,6,3.5899956768844277,7036.337449656334,None,7039.975334405201,None,7040.488700974267,None,7040.488700974267,None,r,0.2862692470662296,7040.488700974267,None,,,NC1,001,2019_Dec_02_1412,ProdSingRedo,3.2.4,59.98641849657351,
,,,,113,0,113,0,,,,,,,,,,,,,,,,,,,,,,,,7043.806400427828,None,,,,,,,,,,,,,,,,,figure,silent,white,113,77,128,7041.338990361895,None,7041.338990361895,None,6,1.5000466501805931,7041.338990361895,None,7042.874994168524,None,7043.389609412057,None,7043.389609412057,None,r,0.36917313816957176,7043.389609412057,None,,,NC1,001,2019_Dec_02_1412,ProdSingRedo,3.2.4,59.98641849657351,
,,,,114,0,114,0,,,,,,,,,,,,,,,,,,,,,,,,7047.007379463175,None,,,,,,,,,,,,,,,,,track,new_c,white,114,155,334,7044.323217256926,None,7044.323217256926,None,2,1.8515004308428615,7044.323217256926,None,7046.213815345429,None,7046.723963662516,None,7046.723963662516,None,f,0.2427450930699706,7046.723963662516,None,,,NC1,001,2019_Dec_02_1412,ProdSingRedo,3.2.4,59.98641849657351,
,,,,115,0,115,0,,,,,,,,,,,,,,,,,,,,,,,,7050.141642900882,None,,,,,,,,,,,,,,,,,working,new_b,white,115,122,357,7047.526208477328,None,7047.526208477328,None,1,1.6644378167111427,7047.526208477328,None,7049.22754951939,None,7049.741551155224,None,7049.741551155224,None,n,0.35285204695537686,7049.741551155224,None,,,NC1,001,2019_Dec_02_1412,ProdSingRedo,3.2.4,59.98641849657351,
,,,,116,0,116,0,,,,,,,,,,,,,,,,,,,,,,,,7053.159282953013,None,,,,,,,,,,,,,,,,,crime,new_b,white,116,139,78,7050.658391620265,None,7050.658391620265,None,1,1.595833812840283,7050.658391620265,None,7052.292606541654,None,7052.809162750607,None,7052.809162750607,None,n,0.3172002949286252,7052.809162750607,None,,,NC1,001,2019_Dec_02_1412,ProdSingRedo,3.2.4,59.98641849657351,
,,,,117,0,117,0,,,,,,,,,,,,,,,,,,,,,,,,7057.327206794638,None,,,,,,,,,,,,,,,,,reading,sing,white,117,27,254,7053.676089829765,None,7053.676089829765,None,2,2.7699223428498954,7053.676089829765,None,7056.496353186667,None,7057.010450922186,None,7057.010450922186,None,f,0.2757570573594421,7057.010450922186,None,,,NC1,001,2019_Dec_02_1412,ProdSingRedo,3.2.4,59.98641849657351,
,,,,118,0,118,0,,,,,,,,,,,,,,,,,,,,,,,,7062.095325634815,None,,,,,,,,,,,,,,,,,income,aloud,white,118,54,159,7057.844040417811,None,7057.844040417811,None,3,3.3936822987161577,7057.844040417811,None,7061.280568574322,None,7061.795246329391,None,7061.795246329391,None,f,0.26666925847530365,7061.795246329391,None,,,NC1,001,2019_Dec_02_1412,ProdSingRedo,3.2.4,59.98641849657351,
,,,,119,0,119,0,,,,,,,,,,,,,,,,,,,,,,,,7068.1471924264915,None,,,,,,,,,,,,,,,,,appeal,aloud,white,119,39,9,7062.612164545106,None,7062.612164545106,None,2,4.113310899818316,7062.612164545106,None,7066.766290146392,None,7067.280114199966,None,7067.280114199966,None,f,0.8292727833613753,7067.280114199966,None,,,NC1,001,2019_Dec_02_1412,ProdSingRedo,3.2.4,59.98641849657351,
,,,,120,0,120,0,,,,,,,,,,,,,,,,,,,,,,,,7071.8816598816775,None,,,,,,,,,,,,,,,,,shock,sing,white,120,26,284,7068.663871792378,None,7068.663871792378,None,6,2.269284165930003,7068.663871792378,None,7070.986104104901,None,7071.498232884798,None,7071.498232884798,None,r,0.33925626892596483,7071.498232884798,None,,,NC1,001,2019_Dec_02_1412,ProdSingRedo,3.2.4,59.98641849657351,
,,,,121,0,121,0,,,,,,,,,,,,,,,,,,,,,,,,7075.616158436984,None,,,,,,,,,,,,,,,,,entrance,new_a,white,121,109,115,7072.398509676801,None,7072.398509676801,None,1,2.3104219988454133,7072.398509676801,None,7074.751595597481,None,7075.266046631616,None,7075.266046631616,None,n,0.3071182214189321,7075.266046631616,None,,,NC1,001,2019_Dec_02_1412,ProdSingRedo,3.2.4,59.98641849657351,
,,,,122,0,122,0,,,,,,,,,,,,,,,,,,,,,,,,7079.183898165356,None,,,,,,,,,,,,,,,,,century,sing,white,122,2,45,7076.132896271301,None,7076.132896271301,None,2,2.16777300555259,7076.132896271301,None,7078.340800395468,None,7078.850476300111,None,7078.850476300111,None,f,0.2982247988693416,7078.850476300111,None,,,NC1,001,2019_Dec_02_1412,ProdSingRedo,3.2.4,59.98641849657351,
,,,,123,0,123,0,,,,,,,,,,,,,,,,,,,,,,,,7083.65194765199,None,,,,,,,,,,,,,,,,,piece,sing,white,123,13,221,7079.700576287229,None,7079.700576287229,None,6,2.0479892145376652,7079.700576287229,None,7081.786811635131,None,7082.301489079138,None,7082.301489079138,None,r,1.3109255118761212,7082.301489079138,None,,,NC1,001,2019_Dec_02_1412,ProdSingRedo,3.2.4,59.98641849657351,
,,,,124,0,124,0,,,,,,,,,,,,,,,,,,,,,,,,7087.153033983195,None,,,,,,,,,,,,,,,,,group,aloud,white,124,53,143,7084.168640702032,None,7084.168640702032,None,4,2.140058033168316,7084.168640702032,None,7086.352783004288,None,7086.86959827831,None,7086.86959827831,None,f,0.2466136512812227,7086.86959827831,None,,,NC1,001,2019_Dec_02_1412,ProdSingRedo,3.2.4,59.98641849657351,
,,,,125,0,125,0,,,,,,,,,,,,,,,,,,,,,,,,7092.854765955126,None,,,,,,,,,,,,,,,,,research,aloud,white,125,49,261,7087.669834017986,None,7087.669834017986,None,2,4.406462939456105,7087.669834017986,None,7092.122336809291,None,7092.63803900592,None,7092.63803900592,None,f,0.17413051519542933,7092.63803900592,None,,,NC1,001,2019_Dec_02_1412,ProdSingRedo,3.2.4,59.98641849657351,
,,,,126,0,126,0,,,,,,,,,,,,,,,,,,,,,,,,7096.722617644351,None,,,,,,,,,,,,,,,,,season,sing,white,126,29,277,7093.371547640767,None,7093.371547640767,None,1,2.4244130610022694,7093.371547640767,None,7095.840527335415,None,7096.355811233865,None,7096.355811233865,None,n,0.31974273873493075,7096.355811233865,None,,,NC1,001,2019_Dec_02_1412,ProdSingRedo,3.2.4,59.98641849657351,
,,,,127,0,127,0,,,,,,,,,,,,,,,,,,,,,,,,7101.607429223601,None,,,,,,,,,,,,,,,,,appearance,sing,white,127,15,10,7097.239422033308,None,7097.239422033308,None,6,2.3800352052785456,7097.239422033308,None,7099.6617355174385,None,7100.17369511188,None,7100.17369511188,None,r,1.3976363823749125,7100.17369511188,None,,,NC1,001,2019_Dec_02_1412,ProdSingRedo,3.2.4,59.98641849657351,
,,,,128,0,128,0,,,,,,,,,,,,,,,,,,,,,,,,7104.891773055308,None,,,,,,,,,,,,,,,,,raise,aloud,white,128,47,250,7102.124283994781,None,7102.124283994781,None,6,1.8629017763305455,7102.124283994781,None,7104.0275756435,None,7104.541690484155,None,7104.541690484155,None,r,0.30961432587355375,7104.541690484155,None,,,NC1,001,2019_Dec_02_1412,ProdSingRedo,3.2.4,59.98641849657351,
,,,,129,0,129,0,,,,,,,,,,,,,,,,,,,,,,,,7108.159408286912,None,,,,,,,,,,,,,,,,,drink,silent,white,129,83,105,7105.408510889625,None,7105.408510889625,None,3,1.8426632995251566,7105.408510889625,None,7107.297207199037,None,7107.8092299271375,None,7107.8092299271375,None,f,0.31370804971084,7107.8092299271375,None,,,NC1,001,2019_Dec_02_1412,ProdSingRedo,3.2.4,59.98641849657351,
,,,,130,0,130,0,,,,,,,,,,,,,,,,,,,,,,,,7112.410747929476,None,,,,,,,,,,,,,,,,,search,silent,white,130,86,276,7108.6761582503095,None,7108.6761582503095,None,3,2.878594020847231,7108.6761582503095,None,7111.593788972357,None,7112.110675776843,None,7112.110675776843,None,f,0.2599385459907353,7112.110675776843,None,,,NC1,001,2019_Dec_02_1412,ProdSingRedo,3.2.4,59.98641849657351,
,,,,131,0,131,0,,,,,,,,,,,,,,,,,,,,,,,,7115.2783026113175,None,,,,,,,,,,,,,,,,,bucket,new_b,white,131,126,33,7112.9300502890255,None,7112.9300502890255,None,1,1.4405565697234124,7112.9300502890255,None,7114.414548377972,None,7114.928224083269,None,7114.928224083269,None,n,0.30664985184557736,7114.928224083269,None,,,NC1,001,2019_Dec_02_1412,ProdSingRedo,3.2.4,59.98641849657351,
,,,,132,0,132,0,,,,,,,,,,,,,,,,,,,,,,,,7121.1634264369495,None,,,,,,,,,,,,,,,,,education,new_b,white,132,149,108,7115.79514556448,None,7115.79514556448,None,4,4.4234253175091,7115.79514556448,None,7120.263678348856,None,7120.77995621087,None,7120.77995621087,None,f,0.3423874406144023,7120.77995621087,None,,,NC1,001,2019_Dec_02_1412,ProdSingRedo,3.2.4,59.98641849657351,
,,,,133,0,133,0,,,,,,,,,,,,,,,,,,,,,,,,7125.097954848548,None,,,,,,,,,,,,,,,,,split,new_a,white,133,91,299,7121.680264103226,None,7121.680264103226,None,4,2.6497224303893745,7121.680264103226,None,7124.3680519745685,None,7124.881258688634,None,7124.881258688634,None,f,0.17657810356467962,7124.881258688634,None,,,NC1,001,2019_Dec_02_1412,ProdSingRedo,3.2.4,59.98641849657351,
,,,,134,0,134,0,,,,,,,,,,,,,,,,,,,,,,,,7128.515695976559,None,,,,,,,,,,,,,,,,,light,silent,white,134,69,171,7125.614807442762,None,7125.614807442762,None,6,2.0349342697300017,7125.614807442762,None,7127.698820368154,None,7128.215563178528,None,7128.215563178528,None,r,0.26624536234885454,7128.215563178528,None,,,NC1,001,2019_Dec_02_1412,ProdSingRedo,3.2.4,59.98641849657351,
,,,,135,0,135,0,,,,,,,,,,,,,,,,,,,,,,,,7131.566621674923,None,,,,,,,,,,,,,,,,,answer,silent,white,135,80,8,7129.032502231421,None,7129.032502231421,None,6,1.689327955013141,7129.032502231421,None,7130.768695749575,None,7131.283216137206,None,7131.283216137206,None,r,0.24627590272575617,7131.283216137206,None,,,NC1,001,2019_Dec_02_1412,ProdSingRedo,3.2.4,59.98641849657351,
,,,,136,0,136,0,,,,,,,,,,,,,,,,,,,,,,,,7134.73421896412,None,,,,,,,,,,,,,,,,,produce,new_c,white,136,178,239,7132.083455919987,None,7132.083455919987,None,2,1.8298929217271507,7132.083455919987,None,7133.954889734043,None,7134.467518916586,None,7134.467518916586,None,f,0.22979371203109622,7134.467518916586,None,,,NC1,001,2019_Dec_02_1412,ProdSingRedo,3.2.4,59.98641849657351,
,,,,137,0,137,0,,,,,,,,,,,,,,,,,,,,,,,,7137.501776756253,None,,,,,,,,,,,,,,,,,contract,new_a,white,137,97,68,7135.250948401634,None,7135.250948401634,None,1,1.2861893195658922,7135.250948401634,None,7136.58470397233,None,7137.101629341021,None,7137.101629341021,None,n,0.35591106582432985,7137.101629341021,None,,,NC1,001,2019_Dec_02_1412,ProdSingRedo,3.2.4,59.98641849657351,
,,,,138,0,138,0,,,,,,,,,,,,,,,,,,,,,,,,7140.619395349175,None,,,,,,,,,,,,,,,,,measure,silent,white,138,64,184,7138.0184704281855,None,7138.0184704281855,None,1,1.6785476813092828,7138.0184704281855,None,7139.739684519125,None,7140.252566857729,None,7140.252566857729,None,n,0.3245772700756788,7140.252566857729,None,,,NC1,001,2019_Dec_02_1412,ProdSingRedo,3.2.4,59.98641849657351,
,,,,139,0,139,0,,,,,,,,,,,,,,,,,,,,,,,,7149.305115055293,None,,,,,,,,,,,,,,,,,author,aloud,white,139,55,15,7141.136068806052,None,7141.136068806052,None,3,7.040732597233728,7141.136068806052,None,7148.221707340563,None,7148.738566465909,None,7148.738566465909,None,f,0.549802047200501,7148.738566465909,None,,,NC1,001,2019_Dec_02_1412,ProdSingRedo,3.2.4,59.98641849657351,
,,,,140,0,140,0,,,,,,,,,,,,,,,,,,,,,,,,7151.889531039633,None,,,,,,,,,,,,,,,,,write,silent,white,140,66,358,7149.8221999681555,None,7149.8221999681555,None,3,1.210038222372532,7149.8221999681555,None,7151.075665622717,None,7151.589444580954,None,7151.589444580954,None,f,0.2590061610098928,7151.589444580954,None,,,NC1,001,2019_Dec_02_1412,ProdSingRedo,3.2.4,59.98641849657351,
,,,,141,0,141,0,,,,,,,,,,,,,,,,,,,,,,,,7155.540656401543,None,,,,,,,,,,,,,,,,,block,new_b,white,141,137,25,7152.4066846841015,None,7152.4066846841015,None,6,2.2738605653867126,7152.4066846841015,None,7154.727736120578,None,7155.240384896519,None,7155.240384896519,None,r,0.2560905141290277,7155.240384896519,None,,,NC1,001,2019_Dec_02_1412,ProdSingRedo,3.2.4,59.98641849657351,
,,,,142,0,142,0,,,,,,,,,,,,,,,,,,,,,,,,7158.6749537382275,None,,,,,,,,,,,,,,,,,minute,new_a,white,142,111,192,7156.057476962451,None,7156.057476962451,None,2,1.8068936776835471,7156.057476962451,None,7157.908019195078,None,7158.424833846977,None,7158.424833846977,None,f,0.20722862728871405,7158.424833846977,None,,,NC1,001,2019_Dec_02_1412,ProdSingRedo,3.2.4,59.98641849657351,
,,,,143,0,143,0,,,,,,,,,,,,,,,,,,,,,,,,7162.542767485371,None,,,,,,,,,,,,,,,,,broad,new_c,white,143,176,31,7159.1915833437815,None,7159.1915833437815,None,4,2.4320273310877383,7159.1915833437815,None,7161.660148472525,None,7162.176002749242,None,7162.176002749242,None,f,0.3195433863438666,7162.176002749242,None,,,NC1,001,2019_Dec_02_1412,ProdSingRedo,3.2.4,59.98641849657351,
,,,,144,0,144,0,,,,,,,,,,,,,,,,,,,,,,,,7165.627062489744,None,,,,,,,,,,,,,,,,,music,silent,white,144,75,196,7163.061118488666,None,7163.061118488666,None,3,1.6263680215924978,7163.061118488666,None,7164.729596225545,None,7165.243626784766,None,7165.243626784766,None,f,0.3402253524400294,7165.243626784766,None,,,NC1,001,2019_Dec_02_1412,ProdSingRedo,3.2.4,59.98641849657351,
,,,,145,0,145,0,,,,,,,,,,,,,,,,,,,,,,,,7168.561308511067,None,,,,,,,,,,,,,,,,,length,aloud,white,145,34,169,7166.14390046685,None,7166.14390046685,None,1,1.5514012209605426,7166.14390046685,None,7167.731634845957,None,7168.24455077271,None,7168.24455077271,None,n,0.27491361927241087,7168.24455077271,None,,,NC1,001,2019_Dec_02_1412,ProdSingRedo,3.2.4,59.98641849657351,
,,,,146,0,146,0,,,,,,,,,,,,,,,,,,,,,,,,7171.612236075569,None,,,,,,,,,,,,,,,,,harmony,new_c,white,146,164,148,7169.078055053484,None,7169.078055053484,None,1,1.6092566733714193,7169.078055053484,None,7170.74517122237,None,7171.245418469189,None,7171.245418469189,None,n,0.3296391440089792,7171.245418469189,None,,,NC1,001,2019_Dec_02_1412,ProdSingRedo,3.2.4,59.98641849657351,
,,,,147,0,147,0,,,,,,,,,,,,,,,,,,,,,,,,7175.013282598462,None,,,,,,,,,,,,,,,,,watch,aloud,white,147,35,351,7172.1289008243475,None,7172.1289008243475,None,3,2.0699354046955705,7172.1289008243475,None,7174.248262274312,None,7174.763205003226,None,7174.763205003226,None,f,0.21164206112734973,7174.763205003226,None,,,NC1,001,2019_Dec_02_1412,ProdSingRedo,3.2.4,59.98641849657351,
,,,,148,0,148,0,,,,,,,,,,,,,,,,,,,,,,,,7177.847483835649,None,,,,,,,,,,,,,,,,,dispute,silent,white,148,79,99,7175.530097250361,None,7175.530097250361,None,1,1.4925384321250021,7175.530097250361,None,7177.063880500384,None,7177.580736515578,None,7177.580736515578,None,n,0.22611579857766628,7177.580736515578,None,,,NC1,001,2019_Dec_02_1412,ProdSingRedo,3.2.4,59.98641849657351,
,,,,149,0,149,0,,,,,,,,,,,,,,,,,,,,,,,,7181.231874939753,None,,,,,,,,,,,,,,,,,smell,new_c,white,149,167,291,7178.364160402445,None,7178.364160402445,None,2,1.7543625852558762,7178.364160402445,None,7180.165080969455,None,7180.681693469873,None,7180.681693469873,None,f,0.5168118528090417,7180.681693469873,None,,,NC1,001,2019_Dec_02_1412,ProdSingRedo,3.2.4,59.98641849657351,
,,,,150,0,150,0,,,,,,,,,,,,,,,,,,,,,,,,7185.149732693331,None,,,,,,,,,,,,,,,,,plane,aloud,white,150,45,223,7181.748547774507,None,7181.748547774507,None,2,2.3617675504647195,7181.748547774507,None,7184.15246422682,None,7184.666234788019,None,7184.666234788019,None,f,0.4440002986229956,7184.666234788019,None,,,NC1,001,2019_Dec_02_1412,ProdSingRedo,3.2.4,59.98641849657351,
,,,,151,0,151,0,,,,,,,,,,,,,,,,,,,,,,,,7188.700821668142,None,,,,,,,,,,,,,,,,,sound,aloud,white,151,30,295,7185.66656507249,None,7185.66656507249,None,4,2.1795111666433513,7185.66656507249,None,7187.886526446091,None,7188.4007218363695,None,7188.4007218363695,None,f,0.25320876645855606,7188.4007218363695,None,,,NC1,001,2019_Dec_02_1412,ProdSingRedo,3.2.4,59.98641849657351,
,,,,152,0,152,0,,,,,,,,,,,,,,,,,,,,,,,,7193.5689445512835,None,,,,,,,,,,,,,,,,,brilliant,aloud,white,152,56,30,7189.218559375033,None,7189.218559375033,None,4,3.5152873194310814,7189.218559375033,None,7192.7713585514575,None,7193.2855187985115,None,7193.2855187985115,None,f,0.24044709699228406,7193.2855187985115,None,,,NC1,001,2019_Dec_02_1412,ProdSingRedo,3.2.4,59.98641849657351,
,,,,153,0,153,0,,,,,,,,,,,,,,,,,,,,,,,,7196.753280919045,None,,,,,,,,,,,,,,,,,captain,silent,white,153,71,41,7194.085661859484,None,7194.085661859484,None,6,1.8081569692585617,7194.085661859484,None,7195.940656090388,None,7196.453187307343,None,7196.453187307343,None,r,0.2642624112777412,7196.453187307343,None,,,NC1,001,2019_Dec_02_1412,ProdSingRedo,3.2.4,59.98641849657351,
,,,,154,0,154,0,,,,,,,,,,,,,,,,,,,,,,,,7199.804227143526,None,,,,,,,,,,,,,,,,,youth,sing,white,154,21,359,7197.270095570944,None,7197.270095570944,None,6,1.6397569826804101,7197.270095570944,None,7198.959969335003,None,7199.470785374055,None,7199.470785374055,None,r,0.2945608801674098,7199.470785374055,None,,,NC1,001,2019_Dec_02_1412,ProdSingRedo,3.2.4,59.98641849657351,
,,,,155,0,155,0,,,,,,,,,,,,,,,,,,,,,,,,7202.688430402195,None,,,,,,,,,,,,,,,,,defeat,new_a,white,155,107,88,7200.320888471324,None,7200.320888471324,None,1,1.460311748785898,7200.320888471324,None,7201.823986676522,None,7202.338322950993,None,7202.338322950993,None,n,0.3070986282546073,7202.338322950993,None,,,NC1,001,2019_Dec_02_1412,ProdSingRedo,3.2.4,59.98641849657351,
,,,,156,0,156,0,,,,,,,,,,,,,,,,,,,,,,,,7206.306219113525,None,,,,,,,,,,,,,,,,,gesture,silent,white,156,85,137,7203.205107902177,None,7203.205107902177,None,6,2.0798936993815005,7203.205107902177,None,7205.326484647347,None,7205.839392487891,None,7205.839392487891,None,r,0.42151576303876936,7205.839392487891,None,,,NC1,001,2019_Dec_02_1412,ProdSingRedo,3.2.4,59.98641849657351,
,,,,157,0,157,0,,,,,,,,,,,,,,,,,,,,,,,,7210.624201579252,None,,,,,,,,,,,,,,,,,dream,new_a,white,157,114,104,7206.823022569297,None,7206.823022569297,None,3,3.01368752354756,7206.823022569297,None,7209.876260570018,None,7210.390816412168,None,7210.390816412168,None,f,0.19785906001925468,7210.390816412168,None,,,NC1,001,2019_Dec_02_1412,ProdSingRedo,3.2.4,59.98641849657351,
,,,,158,0,158,0,,,,,,,,,,,,,,,,,,,,,,,,7213.625115615083,None,,,,,,,,,,,,,,,,,sweet,new_c,white,158,175,319,7211.141014676075,None,7211.141014676075,None,1,1.5996336392126977,7211.141014676075,None,7212.774724840652,None,7213.291704945732,None,7213.291704945732,None,n,0.28909097146242857,7213.291704945732,None,,,NC1,001,2019_Dec_02_1412,ProdSingRedo,3.2.4,59.98641849657351,
,,,,159,0,159,0,,,,,,,,,,,,,,,,,,,,,,,,7216.759436899098,None,,,,,,,,,,,,,,,,,breath,new_a,white,159,93,27,7214.142360383179,None,7214.142360383179,None,3,1.782028108369559,7214.142360383179,None,7215.97583263088,None,7216.47597911302,None,7216.47597911302,None,f,0.24059917707927525,7216.47597911302,None,,,NC1,001,2019_Dec_02_1412,ProdSingRedo,3.2.4,59.98641849657351,
,,,,160,0,160,0,,,,,,,,,,,,,,,,,,,,,,,,7220.510576256085,None,,,,,,,,,,,,,,,,,charter,silent,white,160,82,47,7217.2761212410405,None,7217.2761212410405,None,6,2.410743886604905,7217.2761212410405,None,7219.730213876348,None,7220.2438199170865,None,7220.2438199170865,None,r,0.2244789933320135,7220.2438199170865,None,,,NC1,001,2019_Dec_02_1412,ProdSingRedo,3.2.4,59.98641849657351,
,,,,161,0,161,0,,,,,,,,,,,,,,,,,,,,,,,,7226.128955560736,None,,,,,,,,,,,,,,,,,object,new_c,white,161,154,204,7221.027229497908,None,7221.027229497908,None,6,2.936571697006002,7221.027229497908,None,7224.0282508295495,None,7224.528328580083,None,7224.528328580083,None,r,1.5553313575219363,7224.528328580083,None,,,NC1,001,2019_Dec_02_1412,ProdSingRedo,3.2.4,59.98641849657351,
,,,,162,0,162,0,,,,,,,,,,,,,,,,,,,,,,,,7229.563350863522,None,,,,,,,,,,,,,,,,,ground,new_b,white,162,140,142,7226.645783585962,None,7226.645783585962,None,2,1.8377021902706474,7226.645783585962,None,7228.532276754733,None,7229.046527814353,None,7229.046527814353,None,f,0.4769410432782024,7229.046527814353,None,,,NC1,001,2019_Dec_02_1412,ProdSingRedo,3.2.4,59.98641849657351,
,,,,163,0,163,0,,,,,,,,,,,,,,,,,,,,,,,,7233.181108163437,None,,,,,,,,,,,,,,,,,article,new_c,white,163,150,11,7230.080011569196,None,7230.080011569196,None,6,2.131274705287069,7230.080011569196,None,7232.251282418147,None,7232.764340783935,None,7232.764340783935,None,r,0.3751456269528717,7232.764340783935,None,,,NC1,001,2019_Dec_02_1412,ProdSingRedo,3.2.4,59.98641849657351,
,,,,164,0,164,0,,,,,,,,,,,,,,,,,,,,,,,,7236.332083000336,None,,,,,,,,,,,,,,,,,executive,new_c,white,164,162,122,7233.699877154082,None,7233.699877154082,None,1,1.6074836489278823,7233.699877154082,None,7235.365010371897,None,7235.865138815716,None,7235.865138815716,None,n,0.4338631776627153,7235.865138815716,None,,,NC1,001,2019_Dec_02_1412,ProdSingRedo,3.2.4,59.98641849657351,
,,,,165,0,165,0,,,,,,,,,,,,,,,,,,,,,,,,7239.366350169992,None,,,,,,,,,,,,,,,,,government,sing,white,165,9,139,7236.852160066599,None,7236.852160066599,None,6,1.5827511888928711,7236.852160066599,None,7238.486546039116,None,7238.99952945346,None,7238.99952945346,None,r,0.3314040822442621,7238.99952945346,None,,,NC1,001,2019_Dec_02_1412,ProdSingRedo,3.2.4,59.98641849657351,
,,,,166,0,166,0,,,,,,,,,,,,,,,,,,,,,,,,7242.283902830444,None,,,,,,,,,,,,,,,,,nation,new_b,white,166,136,198,7239.883120659506,None,7239.883120659506,None,1,1.583763812435791,7239.883120659506,None,7241.504391041817,None,7242.017141204327,None,7242.017141204327,None,n,0.22579826531000435,7242.017141204327,None,,,NC1,001,2019_Dec_02_1412,ProdSingRedo,3.2.4,59.98641849657351,
,,,,167,0,167,0,,,,,,,,,,,,,,,,,,,,,,,,7245.28481220128,None,,,,,,,,,,,,,,,,,generation,aloud,white,167,57,136,7242.800562292105,None,7242.800562292105,None,6,1.6501453935634345,7242.800562292105,None,7244.484601341654,None,7245.001373075182,None,7245.001373075182,None,r,0.24138850113376975,7245.001373075182,None,,,NC1,001,2019_Dec_02_1412,ProdSingRedo,3.2.4,59.98641849657351,
,,,,168,0,168,0,,,,,,,,,,,,,,,,,,,,,,,,7248.402446344262,None,,,,,,,,,,,,,,,,,business,new_b,white,168,130,38,7245.80158424587,None,7245.80158424587,None,2,1.8169605119619519,7245.80158424587,None,7247.668787495233,None,7248.168893857859,None,7248.168893857859,None,f,0.19341639173217118,7248.168893857859,None,,,NC1,001,2019_Dec_02_1412,ProdSingRedo,3.2.4,59.98641849657351,
,,,,169,0,169,0,,,,,,,,,,,,,,,,,,,,,,,,7251.670094637899,None,,,,,,,,,,,,,,,,,story,new_b,white,169,147,306,7248.919175159652,None,7248.919175159652,None,3,1.931022482458502,7248.919175159652,None,7250.893083930016,None,7251.403374686139,None,7251.403374686139,None,f,0.2307817665860057,7251.403374686139,None,,,NC1,001,2019_Dec_02_1412,ProdSingRedo,3.2.4,59.98641849657351,
,,,,170,0,170,0,,,,,,,,,,,,,,,,,,,,,,,,7254.971138361841,None,,,,,,,,,,,,,,,,,dance,silent,white,170,62,84,7252.186786132865,None,7252.186786132865,None,1,1.9992927806451917,7252.186786132865,None,7254.223213835852,None,7254.737690061331,None,7254.737690061331,None,n,0.19243300217203796,7254.737690061331,None,,,NC1,001,2019_Dec_02_1412,ProdSingRedo,3.2.4,59.98641849657351,
,,,,171,0,171,0,,,,,,,,,,,,,,,,,,,,,,,,7257.955395423807,None,,,,,,,,,,,,,,,,,conference,aloud,white,171,32,66,7255.487806531601,None,7255.487806531601,None,6,1.6020404861774296,7255.487806531601,None,7257.140485972166,None,7257.655177100096,None,7257.655177100096,None,r,0.26672617183066905,7257.655177100096,None,,,NC1,001,2019_Dec_02_1412,ProdSingRedo,3.2.4,59.98641849657351,
,,,,172,0,172,0,,,,,,,,,,,,,,,,,,,,,,,,7260.9396114335395,None,,,,,,,,,,,,,,,,,hunger,new_c,white,172,163,155,7258.47221131972,None,7258.47221131972,None,2,1.817614550003782,7258.47221131972,None,7260.322656519711,None,7260.839598060586,None,7260.839598060586,None,f,0.06610230100341141,7260.839598060586,None,,,NC1,001,2019_Dec_02_1412,ProdSingRedo,3.2.4,59.98641849657351,
,,,,173,0,173,0,,,,,,,,,,,,,,,,,,,,,,,,7265.274306542473,None,,,,,,,,,,,,,,,,,strain,sing,white,173,12,308,7261.45631319168,None,7261.45631319168,None,6,3.0734562622383237,7261.45631319168,None,7264.577687448822,None,7265.09090722492,None,7265.09090722492,None,r,0.14260140992701054,7265.09090722492,None,,,NC1,001,2019_Dec_02_1412,ProdSingRedo,3.2.4,59.98641849657351,
,,,,174,0,174,0,,,,,,,,,,,,,,,,,,,,,,,,7267.958414012566,None,,,,,,,,,,,,,,,,,trend,sing,white,174,7,340,7265.791112486273,None,7265.791112486273,None,1,1.3620546057354659,7265.791112486273,None,7267.191410426516,None,7267.708315891214,None,7267.708315891214,None,n,0.20517507870681584,7267.708315891214,None,,,NC1,001,2019_Dec_02_1412,ProdSingRedo,3.2.4,59.98641849657351,
,,,,175,0,175,0,,,,,,,,,,,,,,,,,,,,,,,,7271.226068526274,None,,,,,,,,,,,,,,,,,grade,aloud,white,175,31,140,7268.475130698644,None,7268.475130698644,None,4,1.9178232324775308,7268.475130698644,None,7270.4281258066185,None,7270.942667031428,None,7270.942667031428,None,f,0.2424794971011579,7270.942667031428,None,,,NC1,001,2019_Dec_02_1412,ProdSingRedo,3.2.4,59.98641849657351,
,,,,176,0,176,0,,,,,,,,,,,,,,,,,,,,,,,,7273.976839967538,None,,,,,,,,,,,,,,,,,design,sing,white,176,25,91,7271.742779925466,None,7271.742779925466,None,1,1.4820937297772616,7271.742779925466,None,7273.264099756954,None,7273.776916474104,None,7273.776916474104,None,n,0.15996062709018588,7273.776916474104,None,,,NC1,001,2019_Dec_02_1412,ProdSingRedo,3.2.4,59.98641849657351,
,,,,177,0,177,0,,,,,,,,,,,,,,,,,,,,,,,,7277.227941071149,None,,,,,,,,,,,,,,,,,course,new_a,white,177,98,74,7274.493743255036,None,7274.493743255036,None,1,2.0109199138823897,7274.493743255036,None,7276.546818601666,None,7277.0612348036375,None,7277.0612348036375,None,n,0.12377830501645803,7277.0612348036375,None,,,NC1,001,2019_Dec_02_1412,ProdSingRedo,3.2.4,59.98641849657351,
,,,,178,0,178,0,,,,,,,,,,,,,,,,,,,,,,,,7280.083496661391,None,,,,,,,,,,,,,,,,,career,sing,white,178,3,42,7277.744631322334,None,7277.744631322334,None,3,1.6080810844432563,7277.744631322334,None,7279.397530641407,None,7279.912121626781,None,7279.912121626781,None,f,0.13623208249919116,7279.912121626781,None,,,NC1,001,2019_Dec_02_1412,ProdSingRedo,3.2.4,59.98641849657351,
,,,,179,0,179,0,,,,,,,,,,,,,,,,,,,,,,,,7283.579892766429,None,,,,,,,,,,,,,,,,,enemy,new_b,white,179,142,113,7280.612275883788,None,7280.612275883788,None,1,2.1244960986077785,7280.612275883788,None,7282.785839130869,None,7283.296381798806,None,7283.296381798806,None,n,0.24786108126863837,7283.296381798806,None,,,NC1,001,2019_Dec_02_1412,ProdSingRedo,3.2.4,59.98641849657351,
,,,,,,,,,,,,,,,,,,,,,,,,,,,,,,,,,,,,,,,,,,,,,,,,,,,,,,,,,,,,,,,,,,,,,,,,,7284.080097094877,None,,,,,,,
