StudyLoop.thisRepN,StudyLoop.thisTrialN,StudyLoop.thisN,StudyLoop.thisIndex,TestLoop.thisRepN,TestLoop.thisTrialN,TestLoop.thisN,TestLoop.thisIndex,textCondition.started,textCondition.stopped,keyCondition.keys,keyCondition.rt,keyCondition.started,keyCondition.stopped,Condition,stim_colors,color_sing,color_aloud,color_silent,textWelcome.started,textWelcome.stopped,keyWelcome.keys,keyWelcome.rt,keyWelcome.started,keyWelcome.stopped,textAloud.started,textAloud.stopped,textSilent.started,textSilent.stopped,textSing.started,textSing.stopped,textBlank500.started,textBlank500.stopped,study_word,study_type,study_color,study_num,study_word_num,textStudy.started,textStudy.stopped,keyStudy.keys,keyStudy.started,keyStudy.stopped,textTestInstructions.started,textTestInstructions.stopped,key_resp_3.keys,key_resp_3.rt,key_resp_3.started,key_resp_3.stopped,testWord,testType,testColor,testN,test_num,test_word_num,textConf.started,textConf.stopped,textConfScale.started,textConfScale.stopped,keyConf.keys,keyConf.rt,keyConf.started,keyConf.stopped,textTestBlank.started,textTestBlank.stopped,textRKN.started,textRKN.stopped,textRKNScale.started,textRKNScale.stopped,keyRKN.keys,keyRKN.rt,keyRKN.started,keyRKN.stopped,textEnd.started,textEnd.stopped,participant,session,date,expName,psychopyVersion,frameRate,
,,,,,,,,19.889037000015378,None,n,224.4846604000777,19.889037000015378,None,,,,,,,,,,,,,,,,,,,,,,,,,,,,,,,,,,,,,,,,,,,,,,,,,,,,,,,,,,,,,,NC34,001,2022_Apr_06_1406,ProdSingRedo,3.2.3,59.99750453182274,
,,,,,,,,,,,,,,NeutralTest,"['red', 'blue', 'yellow']",red,blue,yellow,244.42979340068996,None,space,49.35149930045009,244.42979340068996,None,,,,,,,,,,,,,,,,,,,,,,,,,,,,,,,,,,,,,,,,,,,,,,,,,,,NC34,001,2022_Apr_06_1406,ProdSingRedo,3.2.3,59.99750453182274,
0,0,0,0,,,,,,,,,,,,,,,,,,,,,,244.42979340068996,None,244.42979340068996,None,244.42979340068996,None,296.3269356004894,None,literature,aloud,blue,38,173,294.3364674001932,None,None,294.3364674001932,None,,,,,,,,,,,,,,,,,,,,,,,,,,,,,,,,,NC34,001,2022_Apr_06_1406,ProdSingRedo,3.2.3,59.99750453182274,
1,0,1,0,,,,,,,,,,,,,,,,,,,,,,,,,,,,298.84626360051334,None,charter,aloud,blue,48,47,296.8384585008025,None,None,296.8384585008025,None,,,,,,,,,,,,,,,,,,,,,,,,,,,,,,,,,NC34,001,2022_Apr_06_1406,ProdSingRedo,3.2.3,59.99750453182274,
2,0,2,0,,,,,,,,,,,,,,,,,,,,,,,,,,,,301.36803179979324,None,bitter,aloud,blue,51,23,299.3611140009016,None,None,299.3611140009016,None,,,,,,,,,,,,,,,,,,,,,,,,,,,,,,,,,NC34,001,2022_Apr_06_1406,ProdSingRedo,3.2.3,59.99750453182274,
3,0,3,0,,,,,,,,,,,,,,,,,,,,,,,,,,,,303.8845789004117,None,account,sing,red,22,1,301.8793219998479,None,None,301.8793219998479,None,,,,,,,,,,,,,,,,,,,,,,,,,,,,,,,,,NC34,001,2022_Apr_06_1406,ProdSingRedo,3.2.3,59.99750453182274,
4,0,4,0,,,,,,,,,,,,,,,,,,,,,,,,,,,,306.4037858005613,None,position,silent,yellow,76,229,304.40237360075116,None,None,304.40237360075116,None,,,,,,,,,,,,,,,,,,,,,,,,,,,,,,,,,NC34,001,2022_Apr_06_1406,ProdSingRedo,3.2.3,59.99750453182274,
5,0,5,0,,,,,,,,,,,,,,,,,,,,,,,,,,,,308.92296719923615,None,service,aloud,blue,41,280,306.92578309960663,None,None,306.92578309960663,None,,,,,,,,,,,,,,,,,,,,,,,,,,,,,,,,,NC34,001,2022_Apr_06_1406,ProdSingRedo,3.2.3,59.99750453182274,
6,0,6,0,,,,,,,,,,,,,,,,,,,,,,,,,,,,311.44216730073094,None,worker,silent,yellow,63,356,309.43941530026495,None,None,309.43941530026495,None,,,,,,,,,,,,,,,,,,,,,,,,,,,,,,,,,NC34,001,2022_Apr_06_1406,ProdSingRedo,3.2.3,59.99750453182274,
7,0,7,0,,,,,,,,,,,,,,,,,,,,,,,,,,,,313.9613202996552,None,comfort,sing,red,10,59,311.95568970032036,None,None,311.95568970032036,None,,,,,,,,,,,,,,,,,,,,,,,,,,,,,,,,,NC34,001,2022_Apr_06_1406,ProdSingRedo,3.2.3,59.99750453182274,
8,0,8,0,,,,,,,,,,,,,,,,,,,,,,,,,,,,316.4804516006261,None,minor,sing,red,3,191,314.4694382008165,None,None,314.4694382008165,None,,,,,,,,,,,,,,,,,,,,,,,,,,,,,,,,,NC34,001,2022_Apr_06_1406,ProdSingRedo,3.2.3,59.99750453182274,
9,0,9,0,,,,,,,,,,,,,,,,,,,,,,,,,,,,318.9996850993484,None,space,silent,yellow,77,297,316.98589799925685,None,None,316.98589799925685,None,,,,,,,,,,,,,,,,,,,,,,,,,,,,,,,,,NC34,001,2022_Apr_06_1406,ProdSingRedo,3.2.3,59.99750453182274,
10,0,10,0,,,,,,,,,,,,,,,,,,,,,,,,,,,,321.518885999918,None,music,silent,yellow,86,196,319.51150999963284,None,None,319.51150999963284,None,,,,,,,,,,,,,,,,,,,,,,,,,,,,,,,,,NC34,001,2022_Apr_06_1406,ProdSingRedo,3.2.3,59.99750453182274,
11,0,11,0,,,,,,,,,,,,,,,,,,,,,,,,,,,,324.0381144993007,None,error,aloud,blue,32,117,322.02701250091195,None,None,322.02701250091195,None,,,,,,,,,,,,,,,,,,,,,,,,,,,,,,,,,NC34,001,2022_Apr_06_1406,ProdSingRedo,3.2.3,59.99750453182274,
12,0,12,0,,,,,,,,,,,,,,,,,,,,,,,,,,,,326.5571896005422,None,youth,silent,yellow,74,359,324.5579493008554,None,None,324.5579493008554,None,,,,,,,,,,,,,,,,,,,,,,,,,,,,,,,,,NC34,001,2022_Apr_06_1406,ProdSingRedo,3.2.3,59.99750453182274,
13,0,13,0,,,,,,,,,,,,,,,,,,,,,,,,,,,,329.0764914993197,None,suggestion,sing,red,18,314,327.07223610021174,None,None,327.07223610021174,None,,,,,,,,,,,,,,,,,,,,,,,,,,,,,,,,,NC34,001,2022_Apr_06_1406,ProdSingRedo,3.2.3,59.99750453182274,
14,0,14,0,,,,,,,,,,,,,,,,,,,,,,,,,,,,331.59555009938776,None,quiet,silent,yellow,87,249,329.5978995002806,None,None,329.5978995002806,None,,,,,,,,,,,,,,,,,,,,,,,,,,,,,,,,,NC34,001,2022_Apr_06_1406,ProdSingRedo,3.2.3,59.99750453182274,
15,0,15,0,,,,,,,,,,,,,,,,,,,,,,,,,,,,334.11472300067544,None,question,aloud,blue,58,247,332.11362629942596,None,None,332.11362629942596,None,,,,,,,,,,,,,,,,,,,,,,,,,,,,,,,,,NC34,001,2022_Apr_06_1406,ProdSingRedo,3.2.3,59.99750453182274,
16,0,16,0,,,,,,,,,,,,,,,,,,,,,,,,,,,,336.6339452993125,None,dance,sing,red,21,84,334.62775659933686,None,None,334.62775659933686,None,,,,,,,,,,,,,,,,,,,,,,,,,,,,,,,,,NC34,001,2022_Apr_06_1406,ProdSingRedo,3.2.3,59.99750453182274,
17,0,17,0,,,,,,,,,,,,,,,,,,,,,,,,,,,,339.1531154997647,None,nation,sing,red,8,198,337.14744820073247,None,None,337.14744820073247,None,,,,,,,,,,,,,,,,,,,,,,,,,,,,,,,,,NC34,001,2022_Apr_06_1406,ProdSingRedo,3.2.3,59.99750453182274,
18,0,18,0,,,,,,,,,,,,,,,,,,,,,,,,,,,,341.67223490029573,None,people,sing,red,11,216,339.661343799904,None,None,339.661343799904,None,,,,,,,,,,,,,,,,,,,,,,,,,,,,,,,,,NC34,001,2022_Apr_06_1406,ProdSingRedo,3.2.3,59.99750453182274,
19,0,19,0,,,,,,,,,,,,,,,,,,,,,,,,,,,,344.19146740064025,None,degree,sing,red,1,89,342.19907380081713,None,None,342.19907380081713,None,,,,,,,,,,,,,,,,,,,,,,,,,,,,,,,,,NC34,001,2022_Apr_06_1406,ProdSingRedo,3.2.3,59.99750453182274,
20,0,20,0,,,,,,,,,,,,,,,,,,,,,,,,,,,,346.71062649972737,None,provision,sing,red,14,243,344.7055936008692,None,None,344.7055936008692,None,,,,,,,,,,,,,,,,,,,,,,,,,,,,,,,,,NC34,001,2022_Apr_06_1406,ProdSingRedo,3.2.3,59.99750453182274,
21,0,21,0,,,,,,,,,,,,,,,,,,,,,,,,,,,,349.22986719943583,None,material,aloud,blue,55,182,347.22654969990253,None,None,347.22654969990253,None,,,,,,,,,,,,,,,,,,,,,,,,,,,,,,,,,NC34,001,2022_Apr_06_1406,ProdSingRedo,3.2.3,59.99750453182274,
22,0,22,0,,,,,,,,,,,,,,,,,,,,,,,,,,,,351.74900100007653,None,match,silent,yellow,64,181,349.7439680006355,None,None,349.7439680006355,None,,,,,,,,,,,,,,,,,,,,,,,,,,,,,,,,,NC34,001,2022_Apr_06_1406,ProdSingRedo,3.2.3,59.99750453182274,
23,0,23,0,,,,,,,,,,,,,,,,,,,,,,,,,,,,354.2682135999203,None,oxygen,sing,red,0,209,352.2638460993767,None,None,352.2638460993767,None,,,,,,,,,,,,,,,,,,,,,,,,,,,,,,,,,NC34,001,2022_Apr_06_1406,ProdSingRedo,3.2.3,59.99750453182274,
24,0,24,0,,,,,,,,,,,,,,,,,,,,,,,,,,,,356.78737499937415,None,volume,aloud,blue,57,349,354.7815921008587,None,None,354.7815921008587,None,,,,,,,,,,,,,,,,,,,,,,,,,,,,,,,,,NC34,001,2022_Apr_06_1406,ProdSingRedo,3.2.3,59.99750453182274,
25,0,25,0,,,,,,,,,,,,,,,,,,,,,,,,,,,,359.30648089945316,None,rapid,silent,yellow,78,252,357.30031099915504,None,None,357.30031099915504,None,,,,,,,,,,,,,,,,,,,,,,,,,,,,,,,,,NC34,001,2022_Apr_06_1406,ProdSingRedo,3.2.3,59.99750453182274,
26,0,26,0,,,,,,,,,,,,,,,,,,,,,,,,,,,,361.8257803991437,None,direction,sing,red,19,94,359.8167330008,None,None,359.8167330008,None,,,,,,,,,,,,,,,,,,,,,,,,,,,,,,,,,NC34,001,2022_Apr_06_1406,ProdSingRedo,3.2.3,59.99750453182274,
27,0,27,0,,,,,,,,,,,,,,,,,,,,,,,,,,,,364.34477810002863,None,judge,silent,yellow,60,166,362.3475723993033,None,None,362.3475723993033,None,,,,,,,,,,,,,,,,,,,,,,,,,,,,,,,,,NC34,001,2022_Apr_06_1406,ProdSingRedo,3.2.3,59.99750453182274,
28,0,28,0,,,,,,,,,,,,,,,,,,,,,,,,,,,,366.86408749967813,None,division,aloud,blue,37,101,364.85723100043833,None,None,364.85723100043833,None,,,,,,,,,,,,,,,,,,,,,,,,,,,,,,,,,NC34,001,2022_Apr_06_1406,ProdSingRedo,3.2.3,59.99750453182274,
29,0,29,0,,,,,,,,,,,,,,,,,,,,,,,,,,,,369.3831233996898,None,bucket,silent,yellow,85,33,367.3797897994518,None,None,367.3797897994518,None,,,,,,,,,,,,,,,,,,,,,,,,,,,,,,,,,NC34,001,2022_Apr_06_1406,ProdSingRedo,3.2.3,59.99750453182274,
30,0,30,0,,,,,,,,,,,,,,,,,,,,,,,,,,,,371.90242839977145,None,group,silent,yellow,88,143,369.8984620999545,None,None,369.8984620999545,None,,,,,,,,,,,,,,,,,,,,,,,,,,,,,,,,,NC34,001,2022_Apr_06_1406,ProdSingRedo,3.2.3,59.99750453182274,
31,0,31,0,,,,,,,,,,,,,,,,,,,,,,,,,,,,374.4216590002179,None,symbol,aloud,blue,50,321,372.4190418999642,None,None,372.4190418999642,None,,,,,,,,,,,,,,,,,,,,,,,,,,,,,,,,,NC34,001,2022_Apr_06_1406,ProdSingRedo,3.2.3,59.99750453182274,
32,0,32,0,,,,,,,,,,,,,,,,,,,,,,,,,,,,376.9408785998821,None,plane,sing,red,24,223,374.92576310038567,None,None,374.92576310038567,None,,,,,,,,,,,,,,,,,,,,,,,,,,,,,,,,,NC34,001,2022_Apr_06_1406,ProdSingRedo,3.2.3,59.99750453182274,
33,0,33,0,,,,,,,,,,,,,,,,,,,,,,,,,,,,379.4600026998669,None,novel,sing,red,13,202,377.4513403996825,None,None,377.4513403996825,None,,,,,,,,,,,,,,,,,,,,,,,,,,,,,,,,,NC34,001,2022_Apr_06_1406,ProdSingRedo,3.2.3,59.99750453182274,
34,0,34,0,,,,,,,,,,,,,,,,,,,,,,,,,,,,381.9791391007602,None,principal,silent,yellow,81,236,379.97212029993534,None,None,379.97212029993534,None,,,,,,,,,,,,,,,,,,,,,,,,,,,,,,,,,NC34,001,2022_Apr_06_1406,ProdSingRedo,3.2.3,59.99750453182274,
35,0,35,0,,,,,,,,,,,,,,,,,,,,,,,,,,,,384.49829390086234,None,quarter,aloud,blue,45,246,382.4906309992075,None,None,382.4906309992075,None,,,,,,,,,,,,,,,,,,,,,,,,,,,,,,,,,NC34,001,2022_Apr_06_1406,ProdSingRedo,3.2.3,59.99750453182274,
36,0,36,0,,,,,,,,,,,,,,,,,,,,,,,,,,,,387.0175203997642,None,track,silent,yellow,80,334,385.01150120049715,None,None,385.01150120049715,None,,,,,,,,,,,,,,,,,,,,,,,,,,,,,,,,,NC34,001,2022_Apr_06_1406,ProdSingRedo,3.2.3,59.99750453182274,
37,0,37,0,,,,,,,,,,,,,,,,,,,,,,,,,,,,389.53664319962263,None,production,aloud,blue,59,240,387.5324923992157,None,None,387.5324923992157,None,,,,,,,,,,,,,,,,,,,,,,,,,,,,,,,,,NC34,001,2022_Apr_06_1406,ProdSingRedo,3.2.3,59.99750453182274,
38,0,38,0,,,,,,,,,,,,,,,,,,,,,,,,,,,,392.0558784995228,None,weight,sing,red,28,353,390.04847720079124,None,None,390.04847720079124,None,,,,,,,,,,,,,,,,,,,,,,,,,,,,,,,,,NC34,001,2022_Apr_06_1406,ProdSingRedo,3.2.3,59.99750453182274,
39,0,39,0,,,,,,,,,,,,,,,,,,,,,,,,,,,,394.5749533008784,None,business,silent,yellow,68,38,392.56873489916325,None,None,392.56873489916325,None,,,,,,,,,,,,,,,,,,,,,,,,,,,,,,,,,NC34,001,2022_Apr_06_1406,ProdSingRedo,3.2.3,59.99750453182274,
40,0,40,0,,,,,,,,,,,,,,,,,,,,,,,,,,,,397.094260500744,None,cross,aloud,blue,39,80,395.08238070085645,None,None,395.08238070085645,None,,,,,,,,,,,,,,,,,,,,,,,,,,,,,,,,,NC34,001,2022_Apr_06_1406,ProdSingRedo,3.2.3,59.99750453182274,
41,0,41,0,,,,,,,,,,,,,,,,,,,,,,,,,,,,399.6134070008993,None,interview,aloud,blue,56,165,397.60968340002,None,None,397.60968340002,None,,,,,,,,,,,,,,,,,,,,,,,,,,,,,,,,,NC34,001,2022_Apr_06_1406,ProdSingRedo,3.2.3,59.99750453182274,
42,0,42,0,,,,,,,,,,,,,,,,,,,,,,,,,,,,402.13265090063214,None,spoke,silent,yellow,82,300,400.1266869995743,None,None,400.1266869995743,None,,,,,,,,,,,,,,,,,,,,,,,,,,,,,,,,,NC34,001,2022_Apr_06_1406,ProdSingRedo,3.2.3,59.99750453182274,
43,0,43,0,,,,,,,,,,,,,,,,,,,,,,,,,,,,404.6514126993716,None,education,sing,red,17,108,402.6483877003193,None,None,402.6483877003193,None,,,,,,,,,,,,,,,,,,,,,,,,,,,,,,,,,NC34,001,2022_Apr_06_1406,ProdSingRedo,3.2.3,59.99750453182274,
44,0,44,0,,,,,,,,,,,,,,,,,,,,,,,,,,,,407.17094209976494,None,shape,silent,yellow,62,282,405.1725201997906,None,None,405.1725201997906,None,,,,,,,,,,,,,,,,,,,,,,,,,,,,,,,,,NC34,001,2022_Apr_06_1406,ProdSingRedo,3.2.3,59.99750453182274,
45,0,45,0,,,,,,,,,,,,,,,,,,,,,,,,,,,,409.673415299505,None,count,sing,red,15,72,407.67111009918153,None,None,407.67111009918153,None,,,,,,,,,,,,,,,,,,,,,,,,,,,,,,,,,NC34,001,2022_Apr_06_1406,ProdSingRedo,3.2.3,59.99750453182274,
46,0,46,0,,,,,,,,,,,,,,,,,,,,,,,,,,,,412.19247570075095,None,background,sing,red,26,16,410.194701500237,None,None,410.194701500237,None,,,,,,,,,,,,,,,,,,,,,,,,,,,,,,,,,NC34,001,2022_Apr_06_1406,ProdSingRedo,3.2.3,59.99750453182274,
47,0,47,0,,,,,,,,,,,,,,,,,,,,,,,,,,,,414.71173750050366,None,employment,sing,red,16,111,412.70666009932756,None,None,412.70666009932756,None,,,,,,,,,,,,,,,,,,,,,,,,,,,,,,,,,NC34,001,2022_Apr_06_1406,ProdSingRedo,3.2.3,59.99750453182274,
48,0,48,0,,,,,,,,,,,,,,,,,,,,,,,,,,,,417.23102140054107,None,device,aloud,blue,34,93,415.2246324997395,None,None,415.2246324997395,None,,,,,,,,,,,,,,,,,,,,,,,,,,,,,,,,,NC34,001,2022_Apr_06_1406,ProdSingRedo,3.2.3,59.99750453182274,
49,0,49,0,,,,,,,,,,,,,,,,,,,,,,,,,,,,419.7500643990934,None,surprise,silent,yellow,61,317,417.7421339992434,None,None,417.7421339992434,None,,,,,,,,,,,,,,,,,,,,,,,,,,,,,,,,,NC34,001,2022_Apr_06_1406,ProdSingRedo,3.2.3,59.99750453182274,
50,0,50,0,,,,,,,,,,,,,,,,,,,,,,,,,,,,422.2693540994078,None,fight,aloud,blue,35,127,420.26421730034053,None,None,420.26421730034053,None,,,,,,,,,,,,,,,,,,,,,,,,,,,,,,,,,NC34,001,2022_Apr_06_1406,ProdSingRedo,3.2.3,59.99750453182274,
51,0,51,0,,,,,,,,,,,,,,,,,,,,,,,,,,,,424.78846519999206,None,industry,aloud,blue,33,161,422.7827573996037,None,None,422.7827573996037,None,,,,,,,,,,,,,,,,,,,,,,,,,,,,,,,,,NC34,001,2022_Apr_06_1406,ProdSingRedo,3.2.3,59.99750453182274,
52,0,52,0,,,,,,,,,,,,,,,,,,,,,,,,,,,,427.3077041003853,None,science,silent,yellow,73,275,425.296741399914,None,None,425.296741399914,None,,,,,,,,,,,,,,,,,,,,,,,,,,,,,,,,,NC34,001,2022_Apr_06_1406,ProdSingRedo,3.2.3,59.99750453182274,
53,0,53,0,,,,,,,,,,,,,,,,,,,,,,,,,,,,429.8268918991089,None,motion,aloud,blue,30,194,427.81682389974594,None,None,427.81682389974594,None,,,,,,,,,,,,,,,,,,,,,,,,,,,,,,,,,NC34,001,2022_Apr_06_1406,ProdSingRedo,3.2.3,59.99750453182274,
54,0,54,0,,,,,,,,,,,,,,,,,,,,,,,,,,,,432.34604890085757,None,finance,sing,red,4,129,430.3416322991252,None,None,430.3416322991252,None,,,,,,,,,,,,,,,,,,,,,,,,,,,,,,,,,NC34,001,2022_Apr_06_1406,ProdSingRedo,3.2.3,59.99750453182274,
55,0,55,0,,,,,,,,,,,,,,,,,,,,,,,,,,,,434.8648131005466,None,budget,silent,yellow,69,34,432.85974040068686,None,None,432.85974040068686,None,,,,,,,,,,,,,,,,,,,,,,,,,,,,,,,,,NC34,001,2022_Apr_06_1406,ProdSingRedo,3.2.3,59.99750453182274,
56,0,56,0,,,,,,,,,,,,,,,,,,,,,,,,,,,,437.3844367992133,None,south,silent,yellow,67,296,435.37647820077837,None,None,435.37647820077837,None,,,,,,,,,,,,,,,,,,,,,,,,,,,,,,,,,NC34,001,2022_Apr_06_1406,ProdSingRedo,3.2.3,59.99750453182274,
57,0,57,0,,,,,,,,,,,,,,,,,,,,,,,,,,,,439.8868487998843,None,institute,sing,red,29,162,437.8846093993634,None,None,437.8846093993634,None,,,,,,,,,,,,,,,,,,,,,,,,,,,,,,,,,NC34,001,2022_Apr_06_1406,ProdSingRedo,3.2.3,59.99750453182274,
58,0,58,0,,,,,,,,,,,,,,,,,,,,,,,,,,,,442.40612149983644,None,detective,aloud,blue,54,92,440.4071321003139,None,None,440.4071321003139,None,,,,,,,,,,,,,,,,,,,,,,,,,,,,,,,,,NC34,001,2022_Apr_06_1406,ProdSingRedo,3.2.3,59.99750453182274,
59,0,59,0,,,,,,,,,,,,,,,,,,,,,,,,,,,,444.92522949911654,None,disease,sing,red,5,97,442.91997439973056,None,None,442.91997439973056,None,,,,,,,,,,,,,,,,,,,,,,,,,,,,,,,,,NC34,001,2022_Apr_06_1406,ProdSingRedo,3.2.3,59.99750453182274,
60,0,60,0,,,,,,,,,,,,,,,,,,,,,,,,,,,,447.44444149918854,None,afternoon,silent,yellow,79,3,445.4384209997952,None,None,445.4384209997952,None,,,,,,,,,,,,,,,,,,,,,,,,,,,,,,,,,NC34,001,2022_Apr_06_1406,ProdSingRedo,3.2.3,59.99750453182274,
61,0,61,0,,,,,,,,,,,,,,,,,,,,,,,,,,,,449.96366849914193,None,substance,sing,red,12,313,447.96046889945865,None,None,447.96046889945865,None,,,,,,,,,,,,,,,,,,,,,,,,,,,,,,,,,NC34,001,2022_Apr_06_1406,ProdSingRedo,3.2.3,59.99750453182274,
62,0,62,0,,,,,,,,,,,,,,,,,,,,,,,,,,,,452.4827252998948,None,emergency,aloud,blue,46,110,450.4802256003022,None,None,450.4802256003022,None,,,,,,,,,,,,,,,,,,,,,,,,,,,,,,,,,NC34,001,2022_Apr_06_1406,ProdSingRedo,3.2.3,59.99750453182274,
63,0,63,0,,,,,,,,,,,,,,,,,,,,,,,,,,,,455.001974100247,None,portion,sing,red,7,228,452.99296629987657,None,None,452.99296629987657,None,,,,,,,,,,,,,,,,,,,,,,,,,,,,,,,,,NC34,001,2022_Apr_06_1406,ProdSingRedo,3.2.3,59.99750453182274,
64,0,64,0,,,,,,,,,,,,,,,,,,,,,,,,,,,,457.5211232993752,None,appearance,aloud,blue,31,10,455.52027449943125,None,None,455.52027449943125,None,,,,,,,,,,,,,,,,,,,,,,,,,,,,,,,,,NC34,001,2022_Apr_06_1406,ProdSingRedo,3.2.3,59.99750453182274,
65,0,65,0,,,,,,,,,,,,,,,,,,,,,,,,,,,,460.04032599925995,None,tragedy,sing,red,20,335,458.0335949007422,None,None,458.0335949007422,None,,,,,,,,,,,,,,,,,,,,,,,,,,,,,,,,,NC34,001,2022_Apr_06_1406,ProdSingRedo,3.2.3,59.99750453182274,
66,0,66,0,,,,,,,,,,,,,,,,,,,,,,,,,,,,462.5595018006861,None,estate,aloud,blue,52,119,460.55433079972863,None,None,460.55433079972863,None,,,,,,,,,,,,,,,,,,,,,,,,,,,,,,,,,NC34,001,2022_Apr_06_1406,ProdSingRedo,3.2.3,59.99750453182274,
67,0,67,0,,,,,,,,,,,,,,,,,,,,,,,,,,,,465.0786945000291,None,guide,silent,yellow,66,147,463.07035239972174,None,None,463.07035239972174,None,,,,,,,,,,,,,,,,,,,,,,,,,,,,,,,,,NC34,001,2022_Apr_06_1406,ProdSingRedo,3.2.3,59.99750453182274,
68,0,68,0,,,,,,,,,,,,,,,,,,,,,,,,,,,,467.58072189986706,None,session,silent,yellow,75,281,465.57924309931695,None,None,465.57924309931695,None,,,,,,,,,,,,,,,,,,,,,,,,,,,,,,,,,NC34,001,2022_Apr_06_1406,ProdSingRedo,3.2.3,59.99750453182274,
69,0,69,0,,,,,,,,,,,,,,,,,,,,,,,,,,,,470.08367419987917,None,republic,aloud,blue,40,260,468.08157760091126,None,None,468.08157760091126,None,,,,,,,,,,,,,,,,,,,,,,,,,,,,,,,,,NC34,001,2022_Apr_06_1406,ProdSingRedo,3.2.3,59.99750453182274,
70,0,70,0,,,,,,,,,,,,,,,,,,,,,,,,,,,,472.6028707008809,None,childhood,aloud,blue,36,49,470.59548150002956,None,None,470.59548150002956,None,,,,,,,,,,,,,,,,,,,,,,,,,,,,,,,,,NC34,001,2022_Apr_06_1406,ProdSingRedo,3.2.3,59.99750453182274,
71,0,71,0,,,,,,,,,,,,,,,,,,,,,,,,,,,,475.12197609990835,None,damage,sing,red,2,83,473.1163471993059,None,None,473.1163471993059,None,,,,,,,,,,,,,,,,,,,,,,,,,,,,,,,,,NC34,001,2022_Apr_06_1406,ProdSingRedo,3.2.3,59.99750453182274,
72,0,72,0,,,,,,,,,,,,,,,,,,,,,,,,,,,,477.6412755995989,None,height,silent,yellow,70,152,475.63607249967754,None,None,475.63607249967754,None,,,,,,,,,,,,,,,,,,,,,,,,,,,,,,,,,NC34,001,2022_Apr_06_1406,ProdSingRedo,3.2.3,59.99750453182274,
73,0,73,0,,,,,,,,,,,,,,,,,,,,,,,,,,,,480.16018700040877,None,design,aloud,blue,53,91,478.1551789008081,None,None,478.1551789008081,None,,,,,,,,,,,,,,,,,,,,,,,,,,,,,,,,,NC34,001,2022_Apr_06_1406,ProdSingRedo,3.2.3,59.99750453182274,
74,0,74,0,,,,,,,,,,,,,,,,,,,,,,,,,,,,482.679703399539,None,threat,silent,yellow,89,329,480.6763512995094,None,None,480.6763512995094,None,,,,,,,,,,,,,,,,,,,,,,,,,,,,,,,,,NC34,001,2022_Apr_06_1406,ProdSingRedo,3.2.3,59.99750453182274,
75,0,75,0,,,,,,,,,,,,,,,,,,,,,,,,,,,,485.18206370063126,None,court,sing,red,9,75,483.18209630064666,None,None,483.18209630064666,None,,,,,,,,,,,,,,,,,,,,,,,,,,,,,,,,,NC34,001,2022_Apr_06_1406,ProdSingRedo,3.2.3,59.99750453182274,
76,0,76,0,,,,,,,,,,,,,,,,,,,,,,,,,,,,487.7012939993292,None,breath,sing,red,25,27,485.7004193998873,None,None,485.7004193998873,None,,,,,,,,,,,,,,,,,,,,,,,,,,,,,,,,,NC34,001,2022_Apr_06_1406,ProdSingRedo,3.2.3,59.99750453182274,
77,0,77,0,,,,,,,,,,,,,,,,,,,,,,,,,,,,490.2204644996673,None,interior,silent,yellow,83,164,488.2091115992516,None,None,488.2091115992516,None,,,,,,,,,,,,,,,,,,,,,,,,,,,,,,,,,NC34,001,2022_Apr_06_1406,ProdSingRedo,3.2.3,59.99750453182274,
78,0,78,0,,,,,,,,,,,,,,,,,,,,,,,,,,,,492.73954929970205,None,salary,silent,yellow,71,271,490.7394334003329,None,None,490.7394334003329,None,,,,,,,,,,,,,,,,,,,,,,,,,,,,,,,,,NC34,001,2022_Apr_06_1406,ProdSingRedo,3.2.3,59.99750453182274,
79,0,79,0,,,,,,,,,,,,,,,,,,,,,,,,,,,,495.25882690027356,None,little,silent,yellow,65,174,493.2470309007913,None,None,493.2470309007913,None,,,,,,,,,,,,,,,,,,,,,,,,,,,,,,,,,NC34,001,2022_Apr_06_1406,ProdSingRedo,3.2.3,59.99750453182274,
80,0,80,0,,,,,,,,,,,,,,,,,,,,,,,,,,,,497.7775506991893,None,subject,aloud,blue,49,312,495.7712005004287,None,None,495.7712005004287,None,,,,,,,,,,,,,,,,,,,,,,,,,,,,,,,,,NC34,001,2022_Apr_06_1406,ProdSingRedo,3.2.3,59.99750453182274,
81,0,81,0,,,,,,,,,,,,,,,,,,,,,,,,,,,,500.28049390017986,None,angle,aloud,blue,43,7,498.27837260067463,None,None,498.27837260067463,None,,,,,,,,,,,,,,,,,,,,,,,,,,,,,,,,,NC34,001,2022_Apr_06_1406,ProdSingRedo,3.2.3,59.99750453182274,
82,0,82,0,,,,,,,,,,,,,,,,,,,,,,,,,,,,502.79971880093217,None,gesture,sing,red,27,137,500.7987546995282,None,None,500.7987546995282,None,,,,,,,,,,,,,,,,,,,,,,,,,,,,,,,,,NC34,001,2022_Apr_06_1406,ProdSingRedo,3.2.3,59.99750453182274,
83,0,83,0,,,,,,,,,,,,,,,,,,,,,,,,,,,,505.3188080005348,None,accident,silent,yellow,72,0,503.3140207994729,None,None,503.3140207994729,None,,,,,,,,,,,,,,,,,,,,,,,,,,,,,,,,,NC34,001,2022_Apr_06_1406,ProdSingRedo,3.2.3,59.99750453182274,
84,0,84,0,,,,,,,,,,,,,,,,,,,,,,,,,,,,507.83801879920065,None,story,aloud,blue,42,306,505.8314014002681,None,None,505.8314014002681,None,,,,,,,,,,,,,,,,,,,,,,,,,,,,,,,,,NC34,001,2022_Apr_06_1406,ProdSingRedo,3.2.3,59.99750453182274,
85,0,85,0,,,,,,,,,,,,,,,,,,,,,,,,,,,,510.35717429965734,None,sound,aloud,blue,47,295,508.350413300097,None,None,508.350413300097,None,,,,,,,,,,,,,,,,,,,,,,,,,,,,,,,,,NC34,001,2022_Apr_06_1406,ProdSingRedo,3.2.3,59.99750453182274,
86,0,86,0,,,,,,,,,,,,,,,,,,,,,,,,,,,,512.8763546999544,None,conference,sing,red,6,66,510.8732076007873,None,None,510.8732076007873,None,,,,,,,,,,,,,,,,,,,,,,,,,,,,,,,,,NC34,001,2022_Apr_06_1406,ProdSingRedo,3.2.3,59.99750453182274,
87,0,87,0,,,,,,,,,,,,,,,,,,,,,,,,,,,,515.3955138009042,None,welcome,aloud,blue,44,354,513.3885299004614,None,None,513.3885299004614,None,,,,,,,,,,,,,,,,,,,,,,,,,,,,,,,,,NC34,001,2022_Apr_06_1406,ProdSingRedo,3.2.3,59.99750453182274,
88,0,88,0,,,,,,,,,,,,,,,,,,,,,,,,,,,,517.9147053994238,None,skill,sing,red,23,289,515.9103650990874,None,None,515.9103650990874,None,,,,,,,,,,,,,,,,,,,,,,,,,,,,,,,,,NC34,001,2022_Apr_06_1406,ProdSingRedo,3.2.3,59.99750453182274,
89,0,89,0,,,,,,,,,,,,,,,,,,,,,,,,,,,,520.4338297005743,None,couch,silent,yellow,84,70,518.4276528004557,None,None,518.4276528004557,None,,,,,,,,,,,,,,,,,,,,,,,,,,,,,,,,,NC34,001,2022_Apr_06_1406,ProdSingRedo,3.2.3,59.99750453182274,
,,,,,,,,,,,,,,,,,,,,,,,,,,,,,,,,,,,,,,,,,,,520.9345574006438,None,k,71.37412460148335,520.9345574006438,None,,,,,,,,,,,,,,,,,,,,,,,,,,,NC34,001,2022_Apr_06_1406,ProdSingRedo,3.2.3,59.99750453182274,
,,,,0,0,0,0,,,,,,,,,,,,,,,,,,,,,,,,602.7095857001841,None,,,,,,,,,,,,,,,,,space,silent,white,0,77,297,592.8598977997899,None,592.8598977997899,None,6,5.008858200162649,592.8598977997899,None,597.9193395990878,None,598.4399471990764,None,598.4399471990764,None,r,4.236711900681257,598.4399471990764,None,,,NC34,001,2022_Apr_06_1406,ProdSingRedo,3.2.3,59.99750453182274,
,,,,1,0,1,0,,,,,,,,,,,,,,,,,,,,,,,,609.1310827992857,None,,,,,,,,,,,,,,,,,series,new_b,white,1,120,279,603.2288271002471,None,603.2288271002471,None,6,3.3916884008795023,603.2288271002471,None,606.6527223996818,None,607.1612893994898,None,607.1612893994898,None,r,1.9393513016402721,607.1612893994898,None,,,NC34,001,2022_Apr_06_1406,ProdSingRedo,3.2.3,59.99750453182274,
,,,,2,0,2,0,,,,,,,,,,,,,,,,,,,,,,,,615.0007263999432,None,,,,,,,,,,,,,,,,,subject,aloud,white,2,49,312,609.6577474996448,None,609.6577474996448,None,6,3.922894800081849,609.6577474996448,None,613.637845499441,None,614.1568621005863,None,614.1568621005863,None,r,0.8157008998095989,614.1568621005863,None,,,NC34,001,2022_Apr_06_1406,ProdSingRedo,3.2.3,59.99750453182274,
,,,,3,0,3,0,,,,,,,,,,,,,,,,,,,,,,,,621.2955811992288,None,,,,,,,,,,,,,,,,,spoke,silent,white,3,82,300,615.5271936003119,None,615.5271936003119,None,6,3.717474000528455,615.5271936003119,None,619.2911657001823,None,619.8091062009335,None,619.8091062009335,None,r,1.4597025010734797,619.8091062009335,None,,,NC34,001,2022_Apr_06_1406,ProdSingRedo,3.2.3,59.99750453182274,
,,,,4,0,4,0,,,,,,,,,,,,,,,,,,,,,,,,628.4341579005122,None,,,,,,,,,,,,,,,,,split,new_c,white,4,160,299,621.8141502998769,None,621.8141502998769,None,2,2.566524399444461,621.8141502998769,None,624.4238881003112,None,624.9445992000401,None,624.9445992000401,None,n,3.460035800933838,624.9445992000401,None,,,NC34,001,2022_Apr_06_1406,ProdSingRedo,3.2.3,59.99750453182274,
,,,,5,0,5,0,,,,,,,,,,,,,,,,,,,,,,,,633.354919500649,None,,,,,,,,,,,,,,,,,listen,new_a,white,5,91,172,628.9555613994598,None,628.9555613994598,None,1,2.545041799545288,628.9555613994598,None,631.5466329995543,None,632.0679777003825,None,632.0679777003825,None,n,1.2485860008746386,632.0679777003825,None,,,NC34,001,2022_Apr_06_1406,ProdSingRedo,3.2.3,59.99750453182274,
,,,,6,0,6,0,,,,,,,,,,,,,,,,,,,,,,,,640.7255720999092,None,,,,,,,,,,,,,,,,,oxygen,sing,white,6,0,209,633.8846882004291,None,633.8846882004291,None,5,5.135897900909185,633.8846882004291,None,639.0567380003631,None,639.5832618009299,None,639.5832618009299,None,f,1.1017393991351128,639.5832618009299,None,,,NC34,001,2022_Apr_06_1406,ProdSingRedo,3.2.3,59.99750453182274,
,,,,7,0,7,0,,,,,,,,,,,,,,,,,,,,,,,,645.5437618996948,None,,,,,,,,,,,,,,,,,turkey,new_b,white,7,131,342,641.2595620993525,None,641.2595620993525,None,1,1.8650384992361069,641.2595620993525,None,643.1854382995516,None,643.7023281995207,None,643.7023281995207,None,n,1.77424450032413,643.7023281995207,None,,,NC34,001,2022_Apr_06_1406,ProdSingRedo,3.2.3,59.99750453182274,
,,,,8,0,8,0,,,,,,,,,,,,,,,,,,,,,,,,650.6102814991027,None,,,,,,,,,,,,,,,,,childhood,aloud,white,8,36,49,646.0909273996949,None,646.0909273996949,None,6,2.505670500919223,646.0909273996949,None,648.635330600664,None,649.153104800731,None,649.153104800731,None,r,1.4278332013636827,649.153104800731,None,,,NC34,001,2022_Apr_06_1406,ProdSingRedo,3.2.3,59.99750453182274,
,,,,9,0,9,0,,,,,,,,,,,,,,,,,,,,,,,,655.7105088997632,None,,,,,,,,,,,,,,,,,committee,new_b,white,9,133,62,651.1403615996242,None,651.1403615996242,None,1,3.336174100637436,651.1403615996242,None,654.5211494006217,None,655.0405525006354,None,655.0405525006354,None,n,0.6440038997679949,655.0405525006354,None,,,NC34,001,2022_Apr_06_1406,ProdSingRedo,3.2.3,59.99750453182274,
,,,,10,0,10,0,,,,,,,,,,,,,,,,,,,,,,,,661.0498179998249,None,,,,,,,,,,,,,,,,,motion,aloud,white,10,30,194,656.2330449000001,None,656.2330449000001,None,6,1.9153253994882107,656.2330449000001,None,658.1883453000337,None,658.695919400081,None,658.695919400081,None,r,2.316678600385785,658.695919400081,None,,,NC34,001,2022_Apr_06_1406,ProdSingRedo,3.2.3,59.99750453182274,
,,,,11,0,11,0,,,,,,,,,,,,,,,,,,,,,,,,667.9755888003856,None,,,,,,,,,,,,,,,,,question,aloud,white,11,58,247,661.5767589993775,None,661.5767589993775,None,6,4.843802599236369,661.5767589993775,None,666.4743397999555,None,666.9944209996611,None,666.9944209996611,None,r,0.9539868999272585,666.9944209996611,None,,,NC34,001,2022_Apr_06_1406,ProdSingRedo,3.2.3,59.99750453182274,
,,,,12,0,12,0,,,,,,,,,,,,,,,,,,,,,,,,673.3442193008959,None,,,,,,,,,,,,,,,,,executive,new_c,white,12,150,122,668.505191700533,None,668.505191700533,None,3,3.5953692998737097,668.505191700533,None,672.1442258991301,None,672.6711979005486,None,672.6711979005486,None,f,0.6372481994330883,672.6711979005486,None,,,NC34,001,2022_Apr_06_1406,ProdSingRedo,3.2.3,59.99750453182274,
,,,,13,0,13,0,,,,,,,,,,,,,,,,,,,,,,,,676.7658303994685,None,,,,,,,,,,,,,,,,,candidate,new_c,white,13,159,39,673.8747691009194,None,673.8747691009194,None,1,1.6337421983480453,673.8747691009194,None,675.5607360992581,None,676.086728900671,None,676.086728900671,None,n,0.6458004005253315,676.086728900671,None,,,NC34,001,2022_Apr_06_1406,ProdSingRedo,3.2.3,59.99750453182274,
,,,,14,0,14,0,,,,,,,,,,,,,,,,,,,,,,,,683.589333800599,None,,,,,,,,,,,,,,,,,service,aloud,white,14,41,280,677.2937176991254,None,677.2937176991254,None,6,5.519082399085164,677.2937176991254,None,682.850315399468,None,683.3733152002096,None,683.3733152002096,None,f,0.18321369960904121,683.3733152002096,None,,,NC34,001,2022_Apr_06_1406,ProdSingRedo,3.2.3,59.99750453182274,
,,,,15,0,15,0,,,,,,,,,,,,,,,,,,,,,,,,689.9311430007219,None,,,,,,,,,,,,,,,,,style,new_a,white,15,100,311,684.1111811995506,None,684.1111811995506,None,3,4.765305001288652,684.1111811995506,None,688.9305300991982,None,689.4456897005439,None,689.4456897005439,None,f,0.4550847001373768,689.4456897005439,None,,,NC34,001,2022_Apr_06_1406,ProdSingRedo,3.2.3,59.99750453182274,
,,,,16,0,16,0,,,,,,,,,,,,,,,,,,,,,,,,695.9865556005388,None,,,,,,,,,,,,,,,,,resistance,new_c,white,16,176,262,690.4562376998365,None,690.4562376998365,None,2,3.7325093001127243,690.4562376998365,None,694.226552400738,None,694.7542221993208,None,694.7542221993208,None,n,1.2024176996201277,694.7542221993208,None,,,NC34,001,2022_Apr_06_1406,ProdSingRedo,3.2.3,59.99750453182274,
,,,,17,0,17,0,,,,,,,,,,,,,,,,,,,,,,,,699.99375680089,None,,,,,,,,,,,,,,,,,interview,aloud,white,17,56,165,696.515578199178,None,696.515578199178,None,6,1.9689760003238916,696.515578199178,None,698.5391687005758,None,699.0588780008256,None,699.0588780008256,None,r,0.8976322989910841,699.0588780008256,None,,,NC34,001,2022_Apr_06_1406,ProdSingRedo,3.2.3,59.99750453182274,
,,,,18,0,18,0,,,,,,,,,,,,,,,,,,,,,,,,703.0559429004788,None,,,,,,,,,,,,,,,,,income,new_a,white,18,101,159,700.5102271009237,None,700.5102271009237,None,1,1.6303228996694088,700.5102271009237,None,702.1873774006963,None,702.7054875008762,None,702.7054875008762,None,n,0.31495949998497963,702.7054875008762,None,,,NC34,001,2022_Apr_06_1406,ProdSingRedo,3.2.3,59.99750453182274,
,,,,19,0,19,0,,,,,,,,,,,,,,,,,,,,,,,,709.1974177006632,None,,,,,,,,,,,,,,,,,graduate,new_b,white,19,135,141,703.5832605008036,None,703.5832605008036,None,5,4.692841600626707,703.5832605008036,None,708.3095954004675,None,708.8353161998093,None,708.8353161998093,None,f,0.3375220000743866,708.8353161998093,None,,,NC34,001,2022_Apr_06_1406,ProdSingRedo,3.2.3,59.99750453182274,
,,,,20,0,20,0,,,,,,,,,,,,,,,,,,,,,,,,711.7652524001896,None,,,,,,,,,,,,,,,,,rapid,silent,white,20,78,252,709.7232166994363,None,709.7232166994363,None,1,1.3212234005331993,709.7232166994363,None,711.0972985997796,None,711.6173390001059,None,711.6173390001059,None,n,0.11525199934840202,711.6173390001059,None,,,NC34,001,2022_Apr_06_1406,ProdSingRedo,3.2.3,59.99750453182274,
,,,,21,0,21,0,,,,,,,,,,,,,,,,,,,,,,,,714.8206932991743,None,,,,,,,,,,,,,,,,,silence,new_c,white,21,168,288,712.2902678009123,None,712.2902678009123,None,6,1.5781612992286682,712.2902678009123,None,713.906961100176,None,714.4182540997863,None,714.4182540997863,None,r,0.3701501991599798,714.4182540997863,None,,,NC34,001,2022_Apr_06_1406,ProdSingRedo,3.2.3,59.99750453182274,
,,,,22,0,22,0,,,,,,,,,,,,,,,,,,,,,,,,717.9560020007193,None,,,,,,,,,,,,,,,,,brilliant,new_b,white,22,146,30,715.3458112999797,None,715.3458112999797,None,1,1.5226767007261515,715.3458112999797,None,716.926784100011,None,717.4413341991603,None,717.4413341991603,None,n,0.4832495991140604,717.4413341991603,None,,,NC34,001,2022_Apr_06_1406,ProdSingRedo,3.2.3,59.99750453182274,
,,,,23,0,23,0,,,,,,,,,,,,,,,,,,,,,,,,720.7422509007156,None,,,,,,,,,,,,,,,,,crime,new_c,white,23,162,78,718.4792649000883,None,718.4792649000883,None,2,1.3732880987226963,718.4792649000883,None,719.9004250001162,None,720.4072099998593,None,720.4072099998593,None,n,0.30921420082449913,720.4072099998593,None,,,NC34,001,2022_Apr_06_1406,ProdSingRedo,3.2.3,59.99750453182274,
,,,,24,0,24,0,,,,,,,,,,,,,,,,,,,,,,,,723.9300124999136,None,,,,,,,,,,,,,,,,,agreement,new_b,white,24,144,5,721.2682547997683,None,721.2682547997683,None,4,1.8482022006064653,721.2682547997683,None,723.1615501008928,None,723.6806182004511,None,723.6806182004511,None,f,0.21179419942200184,723.6806182004511,None,,,NC34,001,2022_Apr_06_1406,ProdSingRedo,3.2.3,59.99750453182274,
,,,,25,0,25,0,,,,,,,,,,,,,,,,,,,,,,,,726.8828391991556,None,,,,,,,,,,,,,,,,,cross,aloud,white,25,39,80,724.4372419994324,None,724.4372419994324,None,6,1.607219798490405,724.4372419994324,None,726.0908525008708,None,726.6098832990974,None,726.6098832990974,None,f,0.2427459005266428,726.6098832990974,None,,,NC34,001,2022_Apr_06_1406,ProdSingRedo,3.2.3,59.99750453182274,
,,,,26,0,26,0,,,,,,,,,,,,,,,,,,,,,,,,732.3531475998461,None,,,,,,,,,,,,,,,,,substance,sing,white,26,12,313,727.4125858992338,None,727.4125858992338,None,6,2.3118067998439074,727.4125858992338,None,729.7715707998723,None,730.2929400000721,None,730.2929400000721,None,r,2.0235188007354736,730.2929400000721,None,,,NC34,001,2022_Apr_06_1406,ProdSingRedo,3.2.3,59.99750453182274,
,,,,27,0,27,0,,,,,,,,,,,,,,,,,,,,,,,,735.8935499992222,None,,,,,,,,,,,,,,,,,concern,new_b,white,27,140,65,732.8763430994004,None,732.8763430994004,None,2,1.6402401998639107,732.8763430994004,None,734.5685457997024,None,735.0887203998864,None,735.0887203998864,None,n,0.7717061005532742,735.0887203998864,None,,,NC34,001,2022_Apr_06_1406,ProdSingRedo,3.2.3,59.99750453182274,
,,,,28,0,28,0,,,,,,,,,,,,,,,,,,,,,,,,739.2949589993805,None,,,,,,,,,,,,,,,,,youth,silent,white,28,74,359,736.4206013008952,None,736.4206013008952,None,6,1.5113520994782448,736.4206013008952,None,737.9534818995744,None,738.4677370991558,None,738.4677370991558,None,r,0.8010928984731436,738.4677370991558,None,,,NC34,001,2022_Apr_06_1406,ProdSingRedo,3.2.3,59.99750453182274,
,,,,29,0,29,0,,,,,,,,,,,,,,,,,,,,,,,,742.4632974006236,None,,,,,,,,,,,,,,,,,emergency,aloud,white,29,46,110,739.8236398007721,None,739.8236398007721,None,5,1.5966593995690346,739.8236398007721,None,741.4659659992903,None,741.9835819993168,None,741.9835819993168,None,r,0.4449247997254133,741.9835819993168,None,,,NC34,001,2022_Apr_06_1406,ProdSingRedo,3.2.3,59.99750453182274,
,,,,30,0,30,0,,,,,,,,,,,,,,,,,,,,,,,,746.2506968993694,None,,,,,,,,,,,,,,,,,strength,new_b,white,30,127,310,742.9916903991252,None,742.9916903991252,None,3,2.2207933999598026,742.9916903991252,None,745.2684467993677,None,745.7861378993839,None,745.7861378993839,None,f,0.4262490998953581,745.7861378993839,None,,,NC34,001,2022_Apr_06_1406,ProdSingRedo,3.2.3,59.99750453182274,
,,,,31,0,31,0,,,,,,,,,,,,,,,,,,,,,,,,749.8037689998746,None,,,,,,,,,,,,,,,,,fight,aloud,white,31,35,127,746.7771124001592,None,746.7771124001592,None,3,1.915438799187541,746.7771124001592,None,748.7395092006773,None,749.2609742991626,None,749.2609742991626,None,f,0.519277298822999,749.2609742991626,None,,,NC34,001,2022_Apr_06_1406,ProdSingRedo,3.2.3,59.99750453182274,
,,,,32,0,32,0,,,,,,,,,,,,,,,,,,,,,,,,752.4896802008152,None,,,,,,,,,,,,,,,,,taste,new_a,white,32,92,322,750.3293727003038,None,750.3293727003038,None,1,1.4751078989356756,750.3293727003038,None,751.8513725996017,None,752.3747979998589,None,752.3747979998589,None,n,0.07756200060248375,752.3747979998589,None,,,NC34,001,2022_Apr_06_1406,ProdSingRedo,3.2.3,59.99750453182274,
,,,,33,0,33,0,,,,,,,,,,,,,,,,,,,,,,,,757.0283928997815,None,,,,,,,,,,,,,,,,,quiet,silent,white,33,87,249,753.0168551001698,None,753.0168551001698,None,6,2.787559000775218,753.0168551001698,None,755.8618516996503,None,756.3787053991109,None,756.3787053991109,None,r,0.6256946995854378,756.3787053991109,None,,,NC34,001,2022_Apr_06_1406,ProdSingRedo,3.2.3,59.99750453182274,
,,,,34,0,34,0,,,,,,,,,,,,,,,,,,,,,,,,760.081492299214,None,,,,,,,,,,,,,,,,,vision,new_c,white,34,172,347,757.5549452994019,None,757.5549452994019,None,4,1.353287698701024,757.5549452994019,None,758.9612441007048,None,759.4830777999014,None,759.4830777999014,None,f,0.5692996997386217,759.4830777999014,None,,,NC34,001,2022_Apr_06_1406,ProdSingRedo,3.2.3,59.99750453182274,
,,,,35,0,35,0,,,,,,,,,,,,,,,,,,,,,,,,763.2012795004994,None,,,,,,,,,,,,,,,,,mayor,new_c,white,35,152,183,760.607884099707,None,760.607884099707,None,1,1.7163900006562471,760.607884099707,None,762.3627519998699,None,762.8870544992387,None,762.8870544992387,None,n,0.2853100001811981,762.8870544992387,None,,,NC34,001,2022_Apr_06_1406,ProdSingRedo,3.2.3,59.99750453182274,
,,,,36,0,36,0,,,,,,,,,,,,,,,,,,,,,,,,766.8880781996995,None,,,,,,,,,,,,,,,,,poetry,new_c,white,36,157,225,763.7262062001973,None,763.7262062001973,None,1,1.277930999174714,763.7262062001973,None,765.0480326991528,None,765.5721498001367,None,765.5721498001367,None,n,1.280365800485015,765.5721498001367,None,,,NC34,001,2022_Apr_06_1406,ProdSingRedo,3.2.3,59.99750453182274,
,,,,37,0,37,0,,,,,,,,,,,,,,,,,,,,,,,,769.6743100006133,None,,,,,,,,,,,,,,,,,weight,sing,white,37,28,353,767.4152651000768,None,767.4152651000768,None,2,1.3649997990578413,767.4152651000768,None,768.8225721009076,None,769.3412615004927,None,769.3412615004927,None,n,0.3030827008187771,769.3412615004927,None,,,NC34,001,2022_Apr_06_1406,ProdSingRedo,3.2.3,59.99750453182274,
,,,,38,0,38,0,,,,,,,,,,,,,,,,,,,,,,,,772.843665599823,None,,,,,,,,,,,,,,,,,volume,aloud,white,38,57,349,770.2040277998894,None,770.2040277998894,None,6,1.504228699952364,770.2040277998894,None,771.7639058995992,None,772.280637299642,None,772.280637299642,None,r,0.523700300604105,772.280637299642,None,,,NC34,001,2022_Apr_06_1406,ProdSingRedo,3.2.3,59.99750453182274,
,,,,39,0,39,0,,,,,,,,,,,,,,,,,,,,,,,,776.3308722991496,None,,,,,,,,,,,,,,,,,stand,new_b,white,39,129,302,773.3702312000096,None,773.3702312000096,None,2,1.2576919998973608,773.3702312000096,None,774.6552492007613,None,775.1688231006265,None,775.1688231006265,None,f,1.131452901288867,775.1688231006265,None,,,NC34,001,2022_Apr_06_1406,ProdSingRedo,3.2.3,59.99750453182274,
,,,,40,0,40,0,,,,,,,,,,,,,,,,,,,,,,,,778.7746115997434,None,,,,,,,,,,,,,,,,,bucket,silent,white,40,85,33,776.8611631002277,None,776.8611631002277,None,1,1.2870710995048285,776.8611631002277,None,778.1937202997506,None,778.7201218996197,None,778.7201218996197,None,n,0.0279300007969141,778.7201218996197,None,,,NC34,001,2022_Apr_06_1406,ProdSingRedo,3.2.3,59.99750453182274,
,,,,41,0,41,0,,,,,,,,,,,,,,,,,,,,,,,,782.1870188005269,None,,,,,,,,,,,,,,,,,month,new_c,white,41,156,193,779.2875784002244,None,779.2875784002244,None,1,1.2767076008021832,779.2875784002244,None,780.6125325001776,None,781.1326499991119,None,781.1326499991119,None,n,1.01570950075984,781.1326499991119,None,,,NC34,001,2022_Apr_06_1406,ProdSingRedo,3.2.3,59.99750453182274,
,,,,42,0,42,0,,,,,,,,,,,,,,,,,,,,,,,,784.947162700817,None,,,,,,,,,,,,,,,,,bitter,aloud,white,42,51,23,782.7109178006649,None,782.7109178006649,None,3,1.3813802003860474,782.7109178006649,None,784.1388415005058,None,784.6469471007586,None,784.6469471007586,None,f,0.2693769000470638,784.6469471007586,None,,,NC34,001,2022_Apr_06_1406,ProdSingRedo,3.2.3,59.99750453182274,
,,,,43,0,43,0,,,,,,,,,,,,,,,,,,,,,,,,787.8422704003751,None,,,,,,,,,,,,,,,,,interior,silent,white,43,83,164,785.4688550997525,None,785.4688550997525,None,6,1.7114365994930267,785.4688550997525,None,787.2191007994115,None,787.740578500554,None,787.740578500554,None,r,0.06369410082697868,787.740578500554,None,,,NC34,001,2022_Apr_06_1406,ProdSingRedo,3.2.3,59.99750453182274,
,,,,44,0,44,0,,,,,,,,,,,,,,,,,,,,,,,,790.1045635994524,None,,,,,,,,,,,,,,,,,track,silent,white,44,80,334,788.3667549006641,None,788.3667549006641,None,6,1.1014112997800112,788.3667549006641,None,789.5057663992047,None,790.032609699294,None,790.032609699294,None,r,0.043470900505781174,790.032609699294,None,,,NC34,001,2022_Apr_06_1406,ProdSingRedo,3.2.3,59.99750453182274,
,,,,45,0,45,0,,,,,,,,,,,,,,,,,,,,,,,,792.6892675999552,None,,,,,,,,,,,,,,,,,passage,new_b,white,45,121,212,790.6361631993204,None,790.6361631993204,None,4,1.448131199926138,790.6361631993204,None,792.1320968996733,None,792.6504078991711,None,792.6504078991711,None,f,0.017680101096630096,792.6504078991711,None,,,NC34,001,2022_Apr_06_1406,ProdSingRedo,3.2.3,59.99750453182274,
,,,,46,0,46,0,,,,,,,,,,,,,,,,,,,,,,,,795.4911634996533,None,,,,,,,,,,,,,,,,,story,aloud,white,46,42,306,793.2065781001002,None,793.2065781001002,None,6,1.6373797003179789,793.2065781001002,None,794.8822514005005,None,795.3915950004011,None,795.3915950004011,None,r,0.08426499925553799,795.3915950004011,None,,,NC34,001,2022_Apr_06_1406,ProdSingRedo,3.2.3,59.99750453182274,
,,,,47,0,47,0,,,,,,,,,,,,,,,,,,,,,,,,798.7219092994928,None,,,,,,,,,,,,,,,,,conference,sing,white,47,6,66,796.0105639006943,None,796.0105639006943,None,6,1.0816811993718147,796.0105639006943,None,797.1360822003335,None,797.6432796008885,None,797.6432796008885,None,r,1.049304399639368,797.6432796008885,None,,,NC34,001,2022_Apr_06_1406,ProdSingRedo,3.2.3,59.99750453182274,
,,,,48,0,48,0,,,,,,,,,,,,,,,,,,,,,,,,801.4067445993423,None,,,,,,,,,,,,,,,,,portion,sing,white,48,7,228,799.2418102007359,None,799.2418102007359,None,4,1.4905545003712177,799.2418102007359,None,800.7801172994077,None,801.2910153996199,None,801.2910153996199,None,f,0.08919580094516277,801.2910153996199,None,,,NC34,001,2022_Apr_06_1406,ProdSingRedo,3.2.3,59.99750453182274,
,,,,49,0,49,0,,,,,,,,,,,,,,,,,,,,,,,,804.092280799523,None,,,,,,,,,,,,,,,,,people,sing,white,49,11,216,801.9286545999348,None,801.9286545999348,None,2,1.5476098004728556,801.9286545999348,None,803.5150175001472,None,804.0263017006218,None,804.0263017006218,None,n,0.03419259935617447,804.0263017006218,None,,,NC34,001,2022_Apr_06_1406,ProdSingRedo,3.2.3,59.99750453182274,
,,,,50,0,50,0,,,,,,,,,,,,,,,,,,,,,,,,808.205997299403,None,,,,,,,,,,,,,,,,,title,new_b,white,50,125,331,804.6121712997556,None,804.6121712997556,None,5,2.912077099084854,804.6121712997556,None,807.5724152997136,None,808.0936469007283,None,808.0936469007283,None,f,0.08657060004770756,808.0936469007283,None,,,NC34,001,2022_Apr_06_1406,ProdSingRedo,3.2.3,59.99750453182274,
,,,,51,0,51,0,,,,,,,,,,,,,,,,,,,,,,,,811.3340846002102,None,,,,,,,,,,,,,,,,,under,new_a,white,51,113,343,808.7366097997874,None,808.7366097997874,None,4,1.3396256007254124,808.7366097997874,None,810.1276639997959,None,810.6476051993668,None,810.6476051993668,None,n,0.6607220005244017,810.6476051993668,None,,,NC34,001,2022_Apr_06_1406,ProdSingRedo,3.2.3,59.99750453182274,
,,,,52,0,52,0,,,,,,,,,,,,,,,,,,,,,,,,815.0194113999605,None,,,,,,,,,,,,,,,,,couch,silent,white,52,84,70,811.85845579952,None,811.85845579952,None,4,1.8580259010195732,811.85845579952,None,813.7662821002305,None,814.2870710007846,None,814.2870710007846,None,n,0.7011772990226746,814.2870710007846,None,,,NC34,001,2022_Apr_06_1406,ProdSingRedo,3.2.3,59.99750453182274,
,,,,53,0,53,0,,,,,,,,,,,,,,,,,,,,,,,,818.4506573006511,None,,,,,,,,,,,,,,,,,welcome,aloud,white,53,44,354,815.5432459004223,None,815.5432459004223,None,5,2.316984800621867,815.5432459004223,None,817.9043665006757,None,818.4224455002695,None,818.4224455002695,None,f,0.005688400939106941,818.4224455002695,None,,,NC34,001,2022_Apr_06_1406,ProdSingRedo,3.2.3,59.99750453182274,
,,,,54,0,54,0,,,,,,,,,,,,,,,,,,,,,,,,824.1278632003814,None,,,,,,,,,,,,,,,,,figure,new_a,white,54,104,128,818.9811147991568,None,818.9811147991568,None,6,1.167153799906373,818.9811147991568,None,820.1894048992544,None,820.7111022993922,None,820.7111022993922,None,r,3.381047898903489,820.7111022993922,None,,,NC34,001,2022_Apr_06_1406,ProdSingRedo,3.2.3,59.99750453182274,
,,,,55,0,55,0,,,,,,,,,,,,,,,,,,,,,,,,828.2907974999398,None,,,,,,,,,,,,,,,,,threat,silent,white,55,89,329,824.6555118001997,None,824.6555118001997,None,5,2.9244277011603117,824.6555118001997,None,827.6276699006557,None,828.140599200502,None,828.140599200502,None,f,0.12740029953420162,828.140599200502,None,,,NC34,001,2022_Apr_06_1406,ProdSingRedo,3.2.3,59.99750453182274,
,,,,56,0,56,0,,,,,,,,,,,,,,,,,,,,,,,,831.968378899619,None,,,,,,,,,,,,,,,,,colonel,new_a,white,56,117,55,828.8036687001586,None,828.8036687001586,None,2,2.568544900044799,828.8036687001586,None,831.4101913999766,None,831.9185821991414,None,831.9185821991414,None,n,0.013754799962043762,831.9185821991414,None,,,NC34,001,2022_Apr_06_1406,ProdSingRedo,3.2.3,59.99750453182274,
,,,,57,0,57,0,,,,,,,,,,,,,,,,,,,,,,,,835.9149092007428,None,,,,,,,,,,,,,,,,,device,aloud,white,57,34,93,832.4922905992717,None,832.4922905992717,None,1,1.3039625007659197,832.4922905992717,None,833.838606800884,None,834.3580821994692,None,834.3580821994692,None,f,1.5336744002997875,834.3580821994692,None,,,NC34,001,2022_Apr_06_1406,ProdSingRedo,3.2.3,59.99750453182274,
,,,,58,0,58,0,,,,,,,,,,,,,,,,,,,,,,,,838.3594974000007,None,,,,,,,,,,,,,,,,,trail,new_a,white,58,109,336,836.4401296004653,None,836.4401296004653,None,5,1.2036808989942074,836.4401296004653,None,837.6742807999253,None,838.1908458992839,None,838.1908458992839,None,f,0.14162109978497028,838.1908458992839,None,,,NC34,001,2022_Apr_06_1406,ProdSingRedo,3.2.3,59.99750453182274,
,,,,59,0,59,0,,,,,,,,,,,,,,,,,,,,,,,,840.7945122998208,None,,,,,,,,,,,,,,,,,accident,silent,white,59,72,0,838.885486299172,None,838.885486299172,None,6,1.2467610985040665,838.885486299172,None,840.1779992002994,None,840.6932430993766,None,840.6932430993766,None,r,0.0708704013377428,840.6932430993766,None,,,NC34,001,2022_Apr_06_1406,ProdSingRedo,3.2.3,59.99750453182274,
,,,,60,0,60,0,,,,,,,,,,,,,,,,,,,,,,,,844.599377900362,None,,,,,,,,,,,,,,,,,skill,sing,white,60,23,289,841.3232300002128,None,841.3232300002128,None,5,2.384570699185133,841.3232300002128,None,843.7477634996176,None,844.2658897005022,None,844.2658897005022,None,f,0.3062562011182308,844.2658897005022,None,,,NC34,001,2022_Apr_06_1406,ProdSingRedo,3.2.3,59.99750453182274,
,,,,61,0,61,0,,,,,,,,,,,,,,,,,,,,,,,,848.2198840994388,None,,,,,,,,,,,,,,,,,birth,new_a,white,61,97,22,845.1206937991083,None,845.1206937991083,None,5,1.2755201999098063,845.1206937991083,None,846.4491470009089,None,846.9682759996504,None,846.9682759996504,None,f,1.211939299479127,846.9682759996504,None,,,NC34,001,2022_Apr_06_1406,ProdSingRedo,3.2.3,59.99750453182274,
,,,,62,0,62,0,,,,,,,,,,,,,,,,,,,,,,,,851.0546826999635,None,,,,,,,,,,,,,,,,,provision,sing,white,62,14,243,848.7464521992952,None,848.7464521992952,None,5,1.2257352992892265,848.7464521992952,None,850.0144494008273,None,850.5407705008984,None,850.5407705008984,None,f,0.48769439943134785,850.5407705008984,None,,,NC34,001,2022_Apr_06_1406,ProdSingRedo,3.2.3,59.99750453182274,
,,,,63,0,63,0,,,,,,,,,,,,,,,,,,,,,,,,854.343431500718,None,,,,,,,,,,,,,,,,,captain,new_a,white,63,108,41,851.5872328002006,None,851.5872328002006,None,5,1.40092490054667,851.5872328002006,None,853.041991699487,None,853.5653064008802,None,853.5653064008802,None,f,0.7428305000066757,853.5653064008802,None,,,NC34,001,2022_Apr_06_1406,ProdSingRedo,3.2.3,59.99750453182274,
,,,,64,0,64,0,,,,,,,,,,,,,,,,,,,,,,,,858.7799185998738,None,,,,,,,,,,,,,,,,,judge,silent,white,64,60,166,854.8602245002985,None,854.8602245002985,None,6,2.9916469994932413,854.8602245002985,None,857.8728807996958,None,858.3875179998577,None,858.3875179998577,None,r,0.3686335012316704,858.3875179998577,None,,,NC34,001,2022_Apr_06_1406,ProdSingRedo,3.2.3,59.99750453182274,
,,,,65,0,65,0,,,,,,,,,,,,,,,,,,,,,,,,861.2999872993678,None,,,,,,,,,,,,,,,,,sight,new_c,white,65,163,286,859.305044900626,None,859.305044900626,None,4,1.3151513990014791,859.305044900626,None,860.6650875993073,None,861.1822187993675,None,861.1822187993675,None,f,0.08603769913315773,861.1822187993675,None,,,NC34,001,2022_Apr_06_1406,ProdSingRedo,3.2.3,59.99750453182274,
,,,,66,0,66,0,,,,,,,,,,,,,,,,,,,,,,,,865.2359746005386,None,,,,,,,,,,,,,,,,,appeal,new_b,white,66,132,9,861.8249670006335,None,861.8249670006335,None,6,2.7072053011506796,861.8249670006335,None,864.5861085001379,None,865.1066785007715,None,865.1066785007715,None,r,0.09747019968926907,865.1066785007715,None,,,NC34,001,2022_Apr_06_1406,ProdSingRedo,3.2.3,59.99750453182274,
,,,,67,0,67,0,,,,,,,,,,,,,,,,,,,,,,,,868.8740485999733,None,,,,,,,,,,,,,,,,,shock,new_a,white,67,96,284,865.7589411996305,None,865.7589411996305,None,4,1.1652212999761105,865.7589411996305,None,866.971683299169,None,867.4901957008988,None,867.4901957008988,None,f,1.345974000170827,867.4901957008988,None,,,NC34,001,2022_Apr_06_1406,ProdSingRedo,3.2.3,59.99750453182274,
,,,,68,0,68,0,,,,,,,,,,,,,,,,,,,,,,,,871.9121096003801,None,,,,,,,,,,,,,,,,,report,new_c,white,68,165,259,869.392479699105,None,869.392479699105,None,4,1.2919024005532265,869.392479699105,None,870.7205046005547,None,871.2389126997441,None,871.2389126997441,None,f,0.637228699401021,871.2389126997441,None,,,NC34,001,2022_Apr_06_1406,ProdSingRedo,3.2.3,59.99750453182274,
,,,,69,0,69,0,,,,,,,,,,,,,,,,,,,,,,,,877.8647135999054,None,,,,,,,,,,,,,,,,,commercial,new_b,white,69,148,61,872.4379910994321,None,872.4379910994321,None,5,3.1660392992198467,872.4379910994321,None,875.6505951005965,None,876.1666819006205,None,876.1666819006205,None,f,1.661506500095129,876.1666819006205,None,,,NC34,001,2022_Apr_06_1406,ProdSingRedo,3.2.3,59.99750453182274,
,,,,70,0,70,0,,,,,,,,,,,,,,,,,,,,,,,,881.001144900918,None,,,,,,,,,,,,,,,,,century,new_a,white,70,110,45,878.392512999475,None,878.392512999475,None,5,1.3796244002878666,878.392512999475,None,879.8202007003129,None,880.3422795999795,None,880.3422795999795,None,n,0.6220175996422768,880.3422795999795,None,,,NC34,001,2022_Apr_06_1406,ProdSingRedo,3.2.3,59.99750453182274,
,,,,71,0,71,0,,,,,,,,,,,,,,,,,,,,,,,,884.1895681992173,None,,,,,,,,,,,,,,,,,store,new_c,white,71,170,305,881.5232859998941,None,881.5232859998941,None,5,2.024915300309658,881.5232859998941,None,883.5975241996348,None,884.1039774995297,None,884.1039774995297,None,f,0.052098099142313004,884.1039774995297,None,,,NC34,001,2022_Apr_06_1406,ProdSingRedo,3.2.3,59.99750453182274,
,,,,72,0,72,0,,,,,,,,,,,,,,,,,,,,,,,,889.8608238995075,None,,,,,,,,,,,,,,,,,detective,aloud,white,72,54,92,884.7153709996492,None,884.7153709996492,None,1,3.848709600046277,884.7153709996492,None,888.6012938991189,None,889.1165899001062,None,889.1165899001062,None,n,0.7197378985583782,889.1165899001062,None,,,NC34,001,2022_Apr_06_1406,ProdSingRedo,3.2.3,59.99750453182274,
,,,,73,0,73,0,,,,,,,,,,,,,,,,,,,,,,,,893.8147986996919,None,,,,,,,,,,,,,,,,,finance,sing,white,73,4,129,890.3894689008594,None,890.3894689008594,None,6,1.3025368005037308,890.3894689008594,None,891.74906880036,None,892.2659593001008,None,892.2659593001008,None,r,1.5144063998013735,892.2659593001008,None,,,NC34,001,2022_Apr_06_1406,ProdSingRedo,3.2.3,59.99750453182274,
,,,,74,0,74,0,,,,,,,,,,,,,,,,,,,,,,,,897.9531723000109,None,,,,,,,,,,,,,,,,,problem,new_b,white,74,145,238,894.3417786005884,None,894.3417786005884,None,3,1.8222394995391369,894.3417786005884,None,896.212157599628,None,896.725521100685,None,896.725521100685,None,f,1.198563201352954,896.725521100685,None,,,NC34,001,2022_Apr_06_1406,ProdSingRedo,3.2.3,59.99750453182274,
,,,,75,0,75,0,,,,,,,,,,,,,,,,,,,,,,,,901.1047384999692,None,,,,,,,,,,,,,,,,,degree,sing,white,75,1,89,898.4794654995203,None,898.4794654995203,None,6,1.196553099900484,898.4794654995203,None,899.7189467996359,None,900.2302845008671,None,900.2302845008671,None,r,0.837880801409483,900.2302845008671,None,,,NC34,001,2022_Apr_06_1406,ProdSingRedo,3.2.3,59.99750453182274,
,,,,76,0,76,0,,,,,,,,,,,,,,,,,,,,,,,,903.7235256005079,None,,,,,,,,,,,,,,,,,rural,new_a,white,76,112,269,901.6346093006432,None,901.6346093006432,None,2,1.4496708996593952,901.6346093006432,None,903.1395628005266,None,903.661111600697,None,903.661111600697,None,n,0.030951200053095818,903.661111600697,None,,,NC34,001,2022_Apr_06_1406,ProdSingRedo,3.2.3,59.99750453182274,
,,,,77,0,77,0,,,,,,,,,,,,,,,,,,,,,,,,906.509774999693,None,,,,,,,,,,,,,,,,,capital,new_a,white,77,102,40,904.2510694004595,None,904.2510694004595,None,2,1.272946098819375,904.2510694004595,None,905.572257200256,None,906.1026360001415,None,906.1026360001415,None,n,0.38134250044822693,906.1026360001415,None,,,NC34,001,2022_Apr_06_1406,ProdSingRedo,3.2.3,59.99750453182274,
,,,,78,0,78,0,,,,,,,,,,,,,,,,,,,,,,,,910.3578488007188,None,,,,,,,,,,,,,,,,,period,new_a,white,78,90,217,907.031809899956,None,907.031809899956,None,5,2.668241301551461,907.031809899956,None,909.7401004005224,None,910.2463165000081,None,910.2463165000081,None,f,0.09365190006792545,910.2463165000081,None,,,NC34,001,2022_Apr_06_1406,ProdSingRedo,3.2.3,59.99750453182274,
,,,,79,0,79,0,,,,,,,,,,,,,,,,,,,,,,,,913.2853503003716,None,,,,,,,,,,,,,,,,,symbol,aloud,white,79,50,321,910.8932707998902,None,910.8932707998902,None,6,1.2467996999621391,910.8932707998902,None,912.1796042993665,None,912.7055984009057,None,912.7055984009057,None,r,0.5383959002792835,912.7055984009057,None,,,NC34,001,2022_Apr_06_1406,ProdSingRedo,3.2.3,59.99750453182274,
,,,,80,0,80,0,,,,,,,,,,,,,,,,,,,,,,,,915.8028322998434,None,,,,,,,,,,,,,,,,,dispute,new_a,white,80,93,99,913.8098271004856,None,913.8098271004856,None,3,1.2824585996568203,913.8098271004856,None,915.1377342008054,None,915.6445041000843,None,915.6445041000843,None,n,0.11950580030679703,915.6445041000843,None,,,NC34,001,2022_Apr_06_1406,ProdSingRedo,3.2.3,59.99750453182274,
,,,,81,0,81,0,,,,,,,,,,,,,,,,,,,,,,,,921.4924206007272,None,,,,,,,,,,,,,,,,,music,silent,white,81,86,196,916.3296070005745,None,916.3296070005745,None,3,3.27445450052619,916.3296070005745,None,919.6484948005527,None,920.1605682000518,None,920.1605682000518,None,n,1.307634199038148,920.1605682000518,None,,,NC34,001,2022_Apr_06_1406,ProdSingRedo,3.2.3,59.99750453182274,
,,,,82,0,82,0,,,,,,,,,,,,,,,,,,,,,,,,926.0963928997517,None,,,,,,,,,,,,,,,,,heavy,new_b,white,82,124,151,922.0202109999955,None,922.0202109999955,None,2,2.8077891003340483,922.0202109999955,None,924.8795296996832,None,925.4000247009099,None,925.4000247009099,None,n,0.6600714009255171,925.4000247009099,None,,,NC34,001,2022_Apr_06_1406,ProdSingRedo,3.2.3,59.99750453182274,
,,,,83,0,83,0,,,,,,,,,,,,,,,,,,,,,,,,928.3169333003461,None,,,,,,,,,,,,,,,,,speech,new_a,white,83,119,298,926.6214607991278,None,926.6214607991278,None,6,1.0707568991929293,926.6214607991278,None,927.7404127009213,None,928.2484514005482,None,928.2484514005482,None,r,0.035558801144361496,928.2484514005482,None,,,NC34,001,2022_Apr_06_1406,ProdSingRedo,3.2.3,59.99750453182274,
,,,,84,0,84,0,,,,,,,,,,,,,,,,,,,,,,,,933.3880668003112,None,,,,,,,,,,,,,,,,,meeting,new_b,white,84,122,187,928.8453560005873,None,928.8453560005873,None,3,3.4066975004971027,928.8453560005873,None,932.2993739005178,None,932.8209549002349,None,932.8209549002349,None,f,0.5429816991090775,932.8209549002349,None,,,NC34,001,2022_Apr_06_1406,ProdSingRedo,3.2.3,59.99750453182274,
,,,,85,0,85,0,,,,,,,,,,,,,,,,,,,,,,,,937.5844669006765,None,,,,,,,,,,,,,,,,,front,new_c,white,85,158,134,933.9124835003167,None,933.9124835003167,None,6,2.979516400024295,933.9124835003167,None,936.9423539992422,None,937.4570528008044,None,937.4570528008044,None,r,0.08308979868888855,937.4570528008044,None,,,NC34,001,2022_Apr_06_1406,ProdSingRedo,3.2.3,59.99750453182274,
,,,,86,0,86,0,,,,,,,,,,,,,,,,,,,,,,,,945.0734999999404,None,,,,,,,,,,,,,,,,,evidence,new_b,white,86,130,120,938.1031532995403,None,938.1031532995403,None,4,6.372843099758029,938.1031532995403,None,944.5361189991236,None,945.0402565002441,None,945.0402565002441,None,f,0.011306500062346458,945.0402565002441,None,,,NC34,001,2022_Apr_06_1406,ProdSingRedo,3.2.3,59.99750453182274,
,,,,87,0,87,0,,,,,,,,,,,,,,,,,,,,,,,,949.520752299577,None,,,,,,,,,,,,,,,,,plane,sing,white,87,24,223,945.5886885002255,None,945.5886885002255,None,4,2.6870111990720034,945.5886885002255,None,948.2975551001728,None,948.8212924003601,None,948.8212924003601,None,f,0.6707000005990267,948.8212924003601,None,,,NC34,001,2022_Apr_06_1406,ProdSingRedo,3.2.3,59.99750453182274,
,,,,88,0,88,0,,,,,,,,,,,,,,,,,,,,,,,,952.6564240995795,None,,,,,,,,,,,,,,,,,quarter,aloud,white,88,45,246,950.0467575006187,None,950.0467575006187,None,6,1.1094551999121904,950.0467575006187,None,951.2071396000683,None,951.7278585992754,None,951.7278585992754,None,r,0.9002835005521774,951.7278585992754,None,,,NC34,001,2022_Apr_06_1406,ProdSingRedo,3.2.3,59.99750453182274,
,,,,89,0,89,0,,,,,,,,,,,,,,,,,,,,,,,,956.4432209003717,None,,,,,,,,,,,,,,,,,court,sing,white,89,9,75,953.1802427005023,None,953.1802427005023,None,6,1.1037256997078657,953.1802427005023,None,954.3204420991242,None,954.8429802004248,None,954.8429802004248,None,r,1.5608732998371124,954.8429802004248,None,,,NC34,001,2022_Apr_06_1406,ProdSingRedo,3.2.3,59.99750453182274,
,,,,90,0,90,0,,,,,,,,,,,,,,,,,,,,,,,,961.1833369992673,None,,,,,,,,,,,,,,,,,industry,aloud,white,90,33,161,956.982119999826,None,956.982119999826,None,6,1.9419185984879732,956.982119999826,None,958.9760298002511,None,959.4931821990758,None,959.4931821990758,None,r,1.6547321993857622,959.4931821990758,None,,,NC34,001,2022_Apr_06_1406,ProdSingRedo,3.2.3,59.99750453182274,
,,,,91,0,91,0,,,,,,,,,,,,,,,,,,,,,,,,963.7533982992172,None,,,,,,,,,,,,,,,,,mankind,new_c,white,91,175,178,961.709277799353,None,961.709277799353,None,2,1.3187381010502577,961.709277799353,None,963.0906664002687,None,963.6074916999787,None,963.6074916999787,None,n,0.1085750013589859,963.6074916999787,None,,,NC34,001,2022_Apr_06_1406,ProdSingRedo,3.2.3,59.99750453182274,
,,,,92,0,92,0,,,,,,,,,,,,,,,,,,,,,,,,967.4561445005238,None,,,,,,,,,,,,,,,,,sound,aloud,white,92,47,295,964.2762550003827,None,964.2762550003827,None,6,2.287770699709654,964.2762550003827,None,966.6171828992665,None,967.139550300315,None,967.139550300315,None,r,0.2804324012249708,967.139550300315,None,,,NC34,001,2022_Apr_06_1406,ProdSingRedo,3.2.3,59.99750453182274,
,,,,93,0,93,0,,,,,,,,,,,,,,,,,,,,,,,,969.7390646003187,None,,,,,,,,,,,,,,,,,account,sing,white,93,22,1,967.9843958001584,None,967.9843958001584,None,6,1.0675451010465622,967.9843958001584,None,969.106729099527,None,969.6260871998966,None,969.6260871998966,None,r,0.08184819854795933,969.6260871998966,None,,,NC34,001,2022_Apr_06_1406,ProdSingRedo,3.2.3,59.99750453182274,
,,,,94,0,94,0,,,,,,,,,,,,,,,,,,,,,,,,973.3770270999521,None,,,,,,,,,,,,,,,,,material,aloud,white,94,55,182,970.271364800632,None,970.271364800632,None,4,1.668563799932599,970.271364800632,None,971.9989634994417,None,972.5194761008024,None,972.5194761008024,None,f,0.8205200992524624,972.5194761008024,None,,,NC34,001,2022_Apr_06_1406,ProdSingRedo,3.2.3,59.99750453182274,
,,,,95,0,95,0,,,,,,,,,,,,,,,,,,,,,,,,976.5169044993818,None,,,,,,,,,,,,,,,,,benefit,new_a,white,95,103,20,973.9063827991486,None,973.9063827991486,None,6,1.753549499437213,973.9063827991486,None,975.7146618999541,None,976.234659999609,None,976.234659999609,None,r,0.2492755986750126,976.234659999609,None,,,NC34,001,2022_Apr_06_1406,ProdSingRedo,3.2.3,59.99750453182274,
,,,,96,0,96,0,,,,,,,,,,,,,,,,,,,,,,,,979.7166614998132,None,,,,,,,,,,,,,,,,,trend,new_b,white,96,137,340,977.0348873995245,None,977.0348873995245,None,2,1.665131000801921,977.0348873995245,None,978.7399403005838,None,979.2507524006069,None,979.2507524006069,None,f,0.4414696004241705,979.2507524006069,None,,,NC34,001,2022_Apr_06_1406,ProdSingRedo,3.2.3,59.99750453182274,
,,,,97,0,97,0,,,,,,,,,,,,,,,,,,,,,,,,982.1688017006963,None,,,,,,,,,,,,,,,,,height,silent,white,97,70,152,980.2414986994117,None,980.2414986994117,None,2,1.242467999458313,980.2414986994117,None,981.53656199947,None,982.0623700004071,None,982.0623700004071,None,n,0.06958610005676746,982.0623700004071,None,,,NC34,001,2022_Apr_06_1406,ProdSingRedo,3.2.3,59.99750453182274,
,,,,98,0,98,0,,,,,,,,,,,,,,,,,,,,,,,,987.2251050006598,None,,,,,,,,,,,,,,,,,level,new_b,white,98,143,170,982.6955146994442,None,982.6955146994442,None,5,2.508355898782611,982.6955146994442,None,985.2499433998019,None,985.7737725991756,None,985.7737725991756,None,f,1.422274300828576,985.7737725991756,None,,,NC34,001,2022_Apr_06_1406,ProdSingRedo,3.2.3,59.99750453182274,
,,,,99,0,99,0,,,,,,,,,,,,,,,,,,,,,,,,993.5976195000112,None,,,,,,,,,,,,,,,,,business,silent,white,99,68,38,987.7493906002492,None,987.7493906002492,None,6,3.0465022996068,987.7493906002492,None,990.8483006991446,None,991.3635750003159,None,991.3635750003159,None,r,2.2081915009766817,991.3635750003159,None,,,NC34,001,2022_Apr_06_1406,ProdSingRedo,3.2.3,59.99750453182274,
,,,,100,0,100,0,,,,,,,,,,,,,,,,,,,,,,,,998.4190980996937,None,,,,,,,,,,,,,,,,,minor,sing,white,100,3,191,994.1180719994009,None,994.1180719994009,None,6,3.0618014000356197,994.1180719994009,None,997.2251175995916,None,997.7351239006966,None,997.7351239006966,None,r,0.6527554001659155,997.7351239006966,None,,,NC34,001,2022_Apr_06_1406,ProdSingRedo,3.2.3,59.99750453182274,
,,,,101,0,101,0,,,,,,,,,,,,,,,,,,,,,,,,1000.925860600546,None,,,,,,,,,,,,,,,,,session,silent,white,101,75,281,998.9405179992318,None,998.9405179992318,None,6,1.3514166995882988,998.9405179992318,None,1000.3338485993445,None,1000.8554628994316,None,1000.8554628994316,None,r,0.028334299102425575,1000.8554628994316,None,,,NC34,001,2022_Apr_06_1406,ProdSingRedo,3.2.3,59.99750453182274,
,,,,102,0,102,0,,,,,,,,,,,,,,,,,,,,,,,,1004.7075447998941,None,,,,,,,,,,,,,,,,,estate,aloud,white,102,52,119,1001.4464638996869,None,1001.4464638996869,None,5,2.093403000384569,1001.4464638996869,None,1003.5833682008088,None,1004.0943880993873,None,1004.0943880993873,None,f,0.5896873008459806,1004.0943880993873,None,,,NC34,001,2022_Apr_06_1406,ProdSingRedo,3.2.3,59.99750453182274,
,,,,103,0,103,0,,,,,,,,,,,,,,,,,,,,,,,,1007.274816699326,None,,,,,,,,,,,,,,,,,discovery,new_a,white,103,99,95,1005.233151499182,None,1005.233151499182,None,2,1.2267316989600658,1005.233151499182,None,1006.5134605001658,None,1007.0299491994083,None,1007.0299491994083,None,n,0.21386229991912842,1007.0299491994083,None,,,NC34,001,2022_Apr_06_1406,ProdSingRedo,3.2.3,59.99750453182274,
,,,,104,0,104,0,,,,,,,,,,,,,,,,,,,,,,,,1011.614940399304,None,,,,,,,,,,,,,,,,,public,new_c,white,104,171,244,1007.787139300257,None,1007.787139300257,None,3,1.3207319006323814,1007.787139300257,None,1009.1630192995071,None,1009.6818746998906,None,1009.6818746998906,None,f,1.897994700819254,1009.6818746998906,None,,,NC34,001,2022_Apr_06_1406,ProdSingRedo,3.2.3,59.99750453182274,
,,,,105,0,105,0,,,,,,,,,,,,,,,,,,,,,,,,1014.7018387001008,None,,,,,,,,,,,,,,,,,society,new_b,white,105,139,293,1012.1412796992809,None,1012.1412796992809,None,2,1.5024573002010584,1012.1412796992809,None,1013.6834583003074,None,1014.2016442995518,None,1014.2016442995518,None,n,0.47418580017983913,1014.2016442995518,None,,,NC34,001,2022_Apr_06_1406,ProdSingRedo,3.2.3,59.99750453182274,
,,,,106,0,106,0,,,,,,,,,,,,,,,,,,,,,,,,1017.520783899352,None,,,,,,,,,,,,,,,,,throw,new_a,white,106,106,330,1015.2284471001476,None,1015.2284471001476,None,4,1.5353153999894857,1015.2284471001476,None,1016.8011704999954,None,1017.3220690004528,None,1017.3220690004528,None,n,0.16192809864878654,1017.3220690004528,None,,,NC34,001,2022_Apr_06_1406,ProdSingRedo,3.2.3,59.99750453182274,
,,,,107,0,107,0,,,,,,,,,,,,,,,,,,,,,,,,1020.9824836999178,None,,,,,,,,,,,,,,,,,design,aloud,white,107,53,91,1018.0440251994878,None,1018.0440251994878,None,5,1.639869200065732,1018.0440251994878,None,1019.7372735999525,None,1020.2574904002249,None,1020.2574904002249,None,f,0.7059709001332521,1020.2574904002249,None,,,NC34,001,2022_Apr_06_1406,ProdSingRedo,3.2.3,59.99750453182274,
,,,,108,0,108,0,,,,,,,,,,,,,,,,,,,,,,,,1024.4962082002312,None,,,,,,,,,,,,,,,,,edition,new_b,white,108,138,107,1021.4840846005827,None,1021.4840846005827,None,6,1.383677700534463,1021.4840846005827,None,1022.9013163000345,None,1023.4106923006475,None,1023.4106923006475,None,r,1.057388000190258,1023.4106923006475,None,,,NC34,001,2022_Apr_06_1406,ProdSingRedo,3.2.3,59.99750453182274,
,,,,109,0,109,0,,,,,,,,,,,,,,,,,,,,,,,,1027.8465663995594,None,,,,,,,,,,,,,,,,,mechanical,new_c,white,109,173,185,1025.0267402995378,None,1025.0267402995378,None,5,1.2570974007248878,1025.0267402995378,None,1026.3255653008819,None,1026.854137800634,None,1026.854137800634,None,n,0.9576794989407063,1026.854137800634,None,,,NC34,001,2022_Apr_06_1406,ProdSingRedo,3.2.3,59.99750453182274,
,,,,110,0,110,0,,,,,,,,,,,,,,,,,,,,,,,,1031.2576522994787,None,,,,,,,,,,,,,,,,,nation,sing,white,110,8,198,1028.3811872992665,None,1028.3811872992665,None,3,1.5906709004193544,1028.3811872992665,None,1030.0176544003189,None,1030.535781500861,None,1030.535781500861,None,n,0.676070298999548,1030.535781500861,None,,,NC34,001,2022_Apr_06_1406,ProdSingRedo,3.2.3,59.99750453182274,
,,,,111,0,111,0,,,,,,,,,,,,,,,,,,,,,,,,1034.2380375005305,None,,,,,,,,,,,,,,,,,suspect,new_c,white,111,167,318,1031.7768780998886,None,1031.7768780998886,None,5,1.5629479996860027,1031.7768780998886,None,1033.391143200919,None,1033.9067216999829,None,1033.9067216999829,None,f,0.29715720005333424,1033.9067216999829,None,,,NC34,001,2022_Apr_06_1406,ProdSingRedo,3.2.3,59.99750453182274,
,,,,112,0,112,0,,,,,,,,,,,,,,,,,,,,,,,,1036.649249099195,None,,,,,,,,,,,,,,,,,search,new_c,white,112,166,276,1034.7642256002873,None,1034.7642256002873,None,6,1.279568400233984,1034.7642256002873,None,1036.0896997004747,None,1036.6078191008419,None,1036.6078191008419,None,f,0.019792400300502777,1036.6078191008419,None,,,NC34,001,2022_Apr_06_1406,ProdSingRedo,3.2.3,59.99750453182274,
,,,,113,0,113,0,,,,,,,,,,,,,,,,,,,,,,,,1040.604684099555,None,,,,,,,,,,,,,,,,,division,aloud,white,113,37,101,1037.1681728009135,None,1037.1681728009135,None,6,1.7634976990520954,1037.1681728009135,None,1038.9755722992122,None,1039.4958461001515,None,1039.4958461001515,None,r,1.0838959012180567,1039.4958461001515,None,,,NC34,001,2022_Apr_06_1406,ProdSingRedo,3.2.3,59.99750453182274,
,,,,114,0,114,0,,,,,,,,,,,,,,,,,,,,,,,,1043.5812123995274,None,,,,,,,,,,,,,,,,,research,new_b,white,114,136,261,1041.1356204003096,None,1041.1356204003096,None,6,1.4123195987194777,1041.1356204003096,None,1042.6001791991293,None,1043.1194813996553,None,1043.1194813996553,None,r,0.4367052987217903,1043.1194813996553,None,,,NC34,001,2022_Apr_06_1406,ProdSingRedo,3.2.3,59.99750453182274,
,,,,115,0,115,0,,,,,,,,,,,,,,,,,,,,,,,,1046.2000370007008,None,,,,,,,,,,,,,,,,,drink,new_c,white,115,164,105,1044.1067155003548,None,1044.1067155003548,None,3,1.3131002001464367,1044.1067155003548,None,1045.466054700315,None,1045.9839443005621,None,1045.9839443005621,None,n,0.1878517996519804,1045.9839443005621,None,,,NC34,001,2022_Apr_06_1406,ProdSingRedo,3.2.3,59.99750453182274,
,,,,116,0,116,0,,,,,,,,,,,,,,,,,,,,,,,,1049.2358685005456,None,,,,,,,,,,,,,,,,,afternoon,silent,white,116,79,3,1046.7234415002167,None,1046.7234415002167,None,1,1.8244449999183416,1046.7234415002167,None,1048.6002335995436,None,1049.1222101002932,None,1049.1222101002932,None,n,0.0896832998842001,1049.1222101002932,None,,,NC34,001,2022_Apr_06_1406,ProdSingRedo,3.2.3,59.99750453182274,
,,,,117,0,117,0,,,,,,,,,,,,,,,,,,,,,,,,1051.6381570007652,None,,,,,,,,,,,,,,,,,fashion,new_b,white,117,149,125,1049.7619019001722,None,1049.7619019001722,None,1,1.2660109009593725,1049.7619019001722,None,1051.0733844004571,None,1051.5891724005342,None,1051.5891724005342,None,n,0.02263070084154606,1051.5891724005342,None,,,NC34,001,2022_Apr_06_1406,ProdSingRedo,3.2.3,59.99750453182274,
,,,,118,0,118,0,,,,,,,,,,,,,,,,,,,,,,,,1055.1266629993916,None,,,,,,,,,,,,,,,,,republic,aloud,white,118,40,260,1052.166070599109,None,1052.166070599109,None,6,1.5177404005080462,1052.166070599109,None,1053.7190016005188,None,1054.2438766993582,None,1054.2438766993582,None,r,0.8558303005993366,1054.2438766993582,None,,,NC34,001,2022_Apr_06_1406,ProdSingRedo,3.2.3,59.99750453182274,
,,,,119,0,119,0,,,,,,,,,,,,,,,,,,,,,,,,1057.9097891002893,None,,,,,,,,,,,,,,,,,route,new_b,white,119,123,267,1055.6503574997187,None,1055.6503574997187,None,4,1.257388100028038,1055.6503574997187,None,1056.9529969003052,None,1057.4658984001726,None,1057.4658984001726,None,f,0.4098643995821476,1057.4658984001726,None,,,NC34,001,2022_Apr_06_1406,ProdSingRedo,3.2.3,59.99750453182274,
,,,,120,0,120,0,,,,,,,,,,,,,,,,,,,,,,,,1060.5672999005765,None,,,,,,,,,,,,,,,,,position,silent,white,120,76,229,1058.4349093008786,None,1058.4349093008786,None,5,1.1607367992401123,1058.4349093008786,None,1059.6429914999753,None,1060.162320099771,None,1060.162320099771,None,f,0.3695951998233795,1060.162320099771,None,,,NC34,001,2022_Apr_06_1406,ProdSingRedo,3.2.3,59.99750453182274,
,,,,121,0,121,0,,,,,,,,,,,,,,,,,,,,,,,,1063.617484299466,None,,,,,,,,,,,,,,,,,bright,new_c,white,121,155,29,1061.0894937999547,None,1061.0894937999547,None,3,1.6341738998889923,1061.0894937999547,None,1062.7661841008812,None,1063.2878648992628,None,1063.2878648992628,None,n,0.299897700548172,1063.2878648992628,None,,,NC34,001,2022_Apr_06_1406,ProdSingRedo,3.2.3,59.99750453182274,
,,,,122,0,122,0,,,,,,,,,,,,,,,,,,,,,,,,1067.9961620997638,None,,,,,,,,,,,,,,,,,group,silent,white,122,88,143,1064.145394699648,None,1064.145394699648,None,6,3.258336501196027,1064.145394699648,None,1067.45193069987,None,1067.963096600026,None,1067.963096600026,None,r,0.008249200880527496,1067.963096600026,None,,,NC34,001,2022_Apr_06_1406,ProdSingRedo,3.2.3,59.99750453182274,
,,,,123,0,123,0,,,,,,,,,,,,,,,,,,,,,,,,1071.5419421996921,None,,,,,,,,,,,,,,,,,surface,new_b,white,123,134,316,1068.5165161006153,None,1068.5165161006153,None,5,1.647181799635291,1068.5165161006153,None,1070.2081486005336,None,1070.7362009994686,None,1070.7362009994686,None,f,0.7796058002859354,1070.7362009994686,None,,,NC34,001,2022_Apr_06_1406,ProdSingRedo,3.2.3,59.99750453182274,
,,,,124,0,124,0,,,,,,,,,,,,,,,,,,,,,,,,1074.9289411008358,None,,,,,,,,,,,,,,,,,breath,sing,white,124,25,27,1072.0721968002617,None,1072.0721968002617,None,6,1.6594655010849237,1072.0721968002617,None,1073.76323980093,None,1074.2806228995323,None,1074.2806228995323,None,f,0.6191076003015041,1074.2806228995323,None,,,NC34,001,2022_Apr_06_1406,ProdSingRedo,3.2.3,59.99750453182274,
,,,,125,0,125,0,,,,,,,,,,,,,,,,,,,,,,,,1077.781654400751,None,,,,,,,,,,,,,,,,,shape,silent,white,125,62,282,1075.4565690997988,None,1075.4565690997988,None,4,1.5950782001018524,1075.4565690997988,None,1077.0956571996212,None,1077.6147486008704,None,1077.6147486008704,None,n,0.14094389975070953,1077.6147486008704,None,,,NC34,001,2022_Apr_06_1406,ProdSingRedo,3.2.3,59.99750453182274,
,,,,126,0,126,0,,,,,,,,,,,,,,,,,,,,,,,,1080.3661224003881,None,,,,,,,,,,,,,,,,,election,new_c,white,126,174,109,1078.3076935000718,None,1078.3076935000718,None,6,1.4079624991863966,1078.3076935000718,None,1079.7642563004047,None,1080.282330699265,None,1080.282330699265,None,r,0.04960940033197403,1080.282330699265,None,,,NC34,001,2022_Apr_06_1406,ProdSingRedo,3.2.3,59.99750453182274,
,,,,127,0,127,0,,,,,,,,,,,,,,,,,,,,,,,,1085.0222714003175,None,,,,,,,,,,,,,,,,,match,silent,white,127,64,181,1080.8910172991455,None,1080.8910172991455,None,6,2.472572200000286,1080.8910172991455,None,1083.3923074007034,None,1083.9084198009223,None,1083.9084198009223,None,r,1.0873083993792534,1083.9084198009223,None,,,NC34,001,2022_Apr_06_1406,ProdSingRedo,3.2.3,59.99750453182274,
,,,,128,0,128,0,,,,,,,,,,,,,,,,,,,,,,,,1087.4909662008286,None,,,,,,,,,,,,,,,,,trash,new_b,white,128,141,337,1085.5482851993293,None,1085.5482851993293,None,5,1.1434209998697042,1085.5482851993293,None,1086.7401577997953,None,1087.2603223994374,None,1087.2603223994374,None,f,0.19939659908413887,1087.2603223994374,None,,,NC34,001,2022_Apr_06_1406,ProdSingRedo,3.2.3,59.99750453182274,
,,,,129,0,129,0,,,,,,,,,,,,,,,,,,,,,,,,1090.1210411004722,None,,,,,,,,,,,,,,,,,novel,sing,white,129,13,202,1088.0158321000636,None,1088.0158321000636,None,5,1.259883800521493,1088.0158321000636,None,1089.3218163996935,None,1089.8459370993078,None,1089.8459370993078,None,r,0.2537722997367382,1089.8459370993078,None,,,NC34,001,2022_Apr_06_1406,ProdSingRedo,3.2.3,59.99750453182274,
,,,,130,0,130,0,,,,,,,,,,,,,,,,,,,,,,,,1094.714247200638,None,,,,,,,,,,,,,,,,,institute,sing,white,130,29,162,1090.6591049004346,None,1090.6591049004346,None,5,1.3205958008766174,1090.6591049004346,None,1092.0331142991781,None,1092.5505043994635,None,1092.5505043994635,None,f,2.1251918002963066,1092.5505043994635,None,,,NC34,001,2022_Apr_06_1406,ProdSingRedo,3.2.3,59.99750453182274,
,,,,131,0,131,0,,,,,,,,,,,,,,,,,,,,,,,,1098.0761535000056,None,,,,,,,,,,,,,,,,,broad,new_c,white,131,161,31,1095.241545099765,None,1095.241545099765,None,4,1.690142098814249,1095.241545099765,None,1096.984274899587,None,1097.5046852007508,None,1097.5046852007508,None,n,0.5546239987015724,1097.5046852007508,None,,,NC34,001,2022_Apr_06_1406,ProdSingRedo,3.2.3,59.99750453182274,
,,,,132,0,132,0,,,,,,,,,,,,,,,,,,,,,,,,1100.9792662002146,None,,,,,,,,,,,,,,,,,principal,silent,white,132,81,236,1098.5931755006313,None,1098.5931755006313,None,6,1.2586120013147593,1098.5931755006313,None,1099.9043646994978,None,1100.421607999131,None,1100.421607999131,None,f,0.5102104004472494,1100.421607999131,None,,,NC34,001,2022_Apr_06_1406,ProdSingRedo,3.2.3,59.99750453182274,
,,,,133,0,133,0,,,,,,,,,,,,,,,,,,,,,,,,1104.1780964005738,None,,,,,,,,,,,,,,,,,damage,sing,white,133,2,83,1101.501510899514,None,1101.501510899514,None,5,1.5103093013167381,1101.501510899514,None,1103.061262499541,None,1103.580745499581,None,1103.580745499581,None,f,0.5669345986098051,1103.580745499581,None,,,NC34,001,2022_Apr_06_1406,ProdSingRedo,3.2.3,59.99750453182274,
,,,,134,0,134,0,,,,,,,,,,,,,,,,,,,,,,,,1108.0949729997665,None,,,,,,,,,,,,,,,,,dance,sing,white,134,21,84,1104.7005563993007,None,1104.7005563993007,None,3,2.2470666989684105,1104.7005563993007,None,1106.9935621991754,None,1107.5128026995808,None,1107.5128026995808,None,f,0.5551339015364647,1107.5128026995808,None,,,NC34,001,2022_Apr_06_1406,ProdSingRedo,3.2.3,59.99750453182274,
,,,,135,0,135,0,,,,,,,,,,,,,,,,,,,,,,,,1110.9305684007704,None,,,,,,,,,,,,,,,,,escape,new_c,white,135,169,118,1108.622469799593,None,1108.622469799593,None,4,1.429289299994707,1108.622469799593,None,1110.102047400549,None,1110.6158879995346,None,1110.6158879995346,None,r,0.2836917005479336,1110.6158879995346,None,,,NC34,001,2022_Apr_06_1406,ProdSingRedo,3.2.3,59.99750453182274,
,,,,136,0,136,0,,,,,,,,,,,,,,,,,,,,,,,,1113.6009177993983,None,,,,,,,,,,,,,,,,,little,silent,white,136,65,174,1111.453237099573,None,1111.453237099573,None,2,1.4305221009999514,1111.453237099573,None,1112.929577300325,None,1113.446718500927,None,1113.446718500927,None,n,0.11699819937348366,1113.446718500927,None,,,NC34,001,2022_Apr_06_1406,ProdSingRedo,3.2.3,59.99750453182274,
,,,,137,0,137,0,,,,,,,,,,,,,,,,,,,,,,,,1116.6205315999687,None,,,,,,,,,,,,,,,,,season,new_c,white,137,154,277,1114.1267539002001,None,1114.1267539002001,None,1,1.7650405000895262,1114.1267539002001,None,1115.9360217992216,None,1116.457794200629,None,1116.457794200629,None,n,0.12222550064325333,1116.457794200629,None,,,NC34,001,2022_Apr_06_1406,ProdSingRedo,3.2.3,59.99750453182274,
,,,,138,0,138,0,,,,,,,,,,,,,,,,,,,,,,,,1119.1727226004004,None,,,,,,,,,,,,,,,,,appearance,aloud,white,138,31,10,1117.1532143000513,None,1117.1532143000513,None,1,1.3384837992489338,1117.1532143000513,None,1118.542003499344,None,1119.0648423004895,None,1119.0648423004895,None,n,0.07481950148940086,1119.0648423004895,None,,,NC34,001,2022_Apr_06_1406,ProdSingRedo,3.2.3,59.99750453182274,
,,,,139,0,139,0,,,,,,,,,,,,,,,,,,,,,,,,1121.9249408002943,None,,,,,,,,,,,,,,,,,school,new_a,white,139,116,274,1119.6948119997978,None,1119.6948119997978,None,2,1.3970503006130457,1119.6948119997978,None,1121.1436826009303,None,1121.6554873995483,None,1121.6554873995483,None,f,0.23630420118570328,1121.6554873995483,None,,,NC34,001,2022_Apr_06_1406,ProdSingRedo,3.2.3,59.99750453182274,
,,,,140,0,140,0,,,,,,,,,,,,,,,,,,,,,,,,1124.5364347007126,None,,,,,,,,,,,,,,,,,stranger,new_c,white,140,153,309,1122.4398027006537,None,1122.4398027006537,None,1,1.491915199905634,1122.4398027006537,None,1123.976615600288,None,1124.501988299191,None,1124.501988299191,None,n,0.005566500127315521,1124.501988299191,None,,,NC34,001,2022_Apr_06_1406,ProdSingRedo,3.2.3,59.99750453182274,
,,,,141,0,141,0,,,,,,,,,,,,,,,,,,,,,,,,1130.7558178007603,None,,,,,,,,,,,,,,,,,production,aloud,white,141,59,240,1125.0478076003492,None,1125.0478076003492,None,5,4.9802097007632256,1125.0478076003492,None,1130.0855263993144,None,1130.6044414006174,None,1130.6044414006174,None,f,0.11126689985394478,1130.6044414006174,None,,,NC34,001,2022_Apr_06_1406,ProdSingRedo,3.2.3,59.99750453182274,
,,,,142,0,142,0,,,,,,,,,,,,,,,,,,,,,,,,1133.6381660997868,None,,,,,,,,,,,,,,,,,right,new_a,white,142,105,265,1131.2852698992938,None,1131.2852698992938,None,1,1.6304903998970985,1131.2852698992938,None,1132.9686441998929,None,1133.491125099361,None,1133.491125099361,None,n,0.11249230057001114,1133.491125099361,None,,,NC34,001,2022_Apr_06_1406,ProdSingRedo,3.2.3,59.99750453182274,
,,,,143,0,143,0,,,,,,,,,,,,,,,,,,,,,,,,1136.5901381000876,None,,,,,,,,,,,,,,,,,junior,new_a,white,143,94,167,1134.165070200339,None,1134.165070200339,None,1,1.3104764986783266,1134.165070200339,None,1135.519976200536,None,1136.0435400996357,None,1136.0435400996357,None,n,0.5120813008397818,1136.0435400996357,None,,,NC34,001,2022_Apr_06_1406,ProdSingRedo,3.2.3,59.99750453182274,
,,,,144,0,144,0,,,,,,,,,,,,,,,,,,,,,,,,1139.2605268005282,None,,,,,,,,,,,,,,,,,balance,new_a,white,144,95,17,1137.1166657004505,None,1137.1166657004505,None,3,1.4469294007867575,1137.1166657004505,None,1138.6113066002727,None,1139.1342888996005,None,1139.1342888996005,None,f,0.09333699941635132,1139.1342888996005,None,,,NC34,001,2022_Apr_06_1406,ProdSingRedo,3.2.3,59.99750453182274,
,,,,145,0,145,0,,,,,,,,,,,,,,,,,,,,,,,,1144.3298110999167,None,,,,,,,,,,,,,,,,,brief,new_a,white,145,115,28,1139.7821573000401,None,1139.7821573000401,None,4,3.349548600614071,1139.7821573000401,None,1143.1811791993678,None,1143.6883176993579,None,1143.6883176993579,None,f,0.6112764999270439,1143.6883176993579,None,,,NC34,001,2022_Apr_06_1406,ProdSingRedo,3.2.3,59.99750453182274,
,,,,146,0,146,0,,,,,,,,,,,,,,,,,,,,,,,,1148.820115700364,None,,,,,,,,,,,,,,,,,suggestion,sing,white,146,18,314,1144.8395975008607,None,1144.8395975008607,None,5,1.7480672001838684,1144.8395975008607,None,1146.636902000755,None,1147.1560508999974,None,1147.1560508999974,None,f,1.6315946001559496,1147.1560508999974,None,,,NC34,001,2022_Apr_06_1406,ProdSingRedo,3.2.3,59.99750453182274,
,,,,147,0,147,0,,,,,,,,,,,,,,,,,,,,,,,,1151.6051893997937,None,,,,,,,,,,,,,,,,,express,new_c,white,147,177,124,1149.339579699561,None,1149.339579699561,None,5,1.2645085994154215,1149.339579699561,None,1150.6497863996774,None,1151.1682610008866,None,1151.1682610008866,None,r,0.4112269002944231,1151.1682610008866,None,,,NC34,001,2022_Apr_06_1406,ProdSingRedo,3.2.3,59.99750453182274,
,,,,148,0,148,0,,,,,,,,,,,,,,,,,,,,,,,,1155.1248893998563,None,,,,,,,,,,,,,,,,,charter,aloud,white,148,48,47,1152.1321495007724,None,1152.1321495007724,None,6,1.359442301094532,1152.1321495007724,None,1153.5398494005203,None,1154.0588335003704,None,1154.0588335003704,None,r,1.0406570006161928,1154.0588335003704,None,,,NC34,001,2022_Apr_06_1406,ProdSingRedo,3.2.3,59.99750453182274,
,,,,149,0,149,0,,,,,,,,,,,,,,,,,,,,,,,,1157.9693739991635,None,,,,,,,,,,,,,,,,,running,new_b,white,149,142,268,1155.650346500799,None,1155.650346500799,None,2,1.5453337002545595,1155.650346500799,None,1157.244990600273,None,1157.7523804996163,None,1157.7523804996163,None,n,0.19482639990746975,1157.7523804996163,None,,,NC34,001,2022_Apr_06_1406,ProdSingRedo,3.2.3,59.99750453182274,
,,,,150,0,150,0,,,,,,,,,,,,,,,,,,,,,,,,1160.997915700078,None,,,,,,,,,,,,,,,,,revolution,new_a,white,150,118,264,1158.4717114996165,None,1158.4717114996165,None,2,1.7719318997114897,1158.4717114996165,None,1160.300123900175,None,1160.8263099007308,None,1160.8263099007308,None,n,0.1373445987701416,1160.8263099007308,None,,,NC34,001,2022_Apr_06_1406,ProdSingRedo,3.2.3,59.99750453182274,
,,,,151,0,151,0,,,,,,,,,,,,,,,,,,,,,,,,1164.451584700495,None,,,,,,,,,,,,,,,,,budget,silent,white,151,69,34,1161.5256064999849,None,1161.5256064999849,None,6,1.7420454006642103,1161.5256064999849,None,1163.3178831003606,None,1163.836161699146,None,1163.836161699146,None,r,0.5833906009793282,1163.836161699146,None,,,NC34,001,2022_Apr_06_1406,ProdSingRedo,3.2.3,59.99750453182274,
,,,,152,0,152,0,,,,,,,,,,,,,,,,,,,,,,,,1167.370377799496,None,,,,,,,,,,,,,,,,,present,new_a,white,152,111,231,1164.973307499662,None,1164.973307499662,None,6,1.1743293013423681,1164.973307499662,None,1166.1996561996639,None,1166.7174059990793,None,1166.7174059990793,None,r,0.6141194999217987,1166.7174059990793,None,,,NC34,001,2022_Apr_06_1406,ProdSingRedo,3.2.3,59.99750453182274,
,,,,153,0,153,0,,,,,,,,,,,,,,,,,,,,,,,,1170.1902577001601,None,,,,,,,,,,,,,,,,,tragedy,sing,white,153,20,335,1167.894828300923,None,1167.894828300923,None,6,1.1005413010716438,1167.894828300923,None,1169.0319458004087,None,1169.5411964002997,None,1169.5411964002997,None,r,0.6145342998206615,1169.5411964002997,None,,,NC34,001,2022_Apr_06_1406,ProdSingRedo,3.2.3,59.99750453182274,
,,,,154,0,154,0,,,,,,,,,,,,,,,,,,,,,,,,1172.8934108000249,None,,,,,,,,,,,,,,,,,trial,new_b,white,154,147,341,1170.712477400899,None,1170.712477400899,None,6,1.1550406012684107,1170.712477400899,None,1171.908522600308,None,1172.437423100695,None,1172.437423100695,None,r,0.43019540049135685,1172.437423100695,None,,,NC34,001,2022_Apr_06_1406,ProdSingRedo,3.2.3,59.99750453182274,
,,,,155,0,155,0,,,,,,,,,,,,,,,,,,,,,,,,1175.4795459993184,None,,,,,,,,,,,,,,,,,gesture,sing,white,155,27,137,1173.4220176003873,None,1173.4220176003873,None,3,1.1735019013285637,1173.4220176003873,None,1174.6411528997123,None,1175.1657129004598,None,1175.1657129004598,None,f,0.28607199899852276,1175.1657129004598,None,,,NC34,001,2022_Apr_06_1406,ProdSingRedo,3.2.3,59.99750453182274,
,,,,156,0,156,0,,,,,,,,,,,,,,,,,,,,,,,,1178.1060595996678,None,,,,,,,,,,,,,,,,,salary,silent,white,156,71,271,1176.0115856006742,None,1176.0115856006742,None,2,1.2398192007094622,1176.0115856006742,None,1177.2847699001431,None,1177.803124299273,None,1177.803124299273,None,n,0.2722597997635603,1177.803124299273,None,,,NC34,001,2022_Apr_06_1406,ProdSingRedo,3.2.3,59.99750453182274,
,,,,157,0,157,0,,,,,,,,,,,,,,,,,,,,,,,,1180.3662155997008,None,,,,,,,,,,,,,,,,,literature,aloud,white,157,38,173,1178.6260557994246,None,1178.6260557994246,None,2,1.0894847009330988,1178.6260557994246,None,1179.7696238998324,None,1180.2901758998632,None,1180.2901758998632,None,n,0.041389500722289085,1180.2901758998632,None,,,NC34,001,2022_Apr_06_1406,ProdSingRedo,3.2.3,59.99750453182274,
,,,,158,0,158,0,,,,,,,,,,,,,,,,,,,,,,,,1183.4535878002644,None,,,,,,,,,,,,,,,,,error,aloud,white,158,32,117,1180.8889536000788,None,1180.8889536000788,None,6,1.234696600586176,1180.8889536000788,None,1182.164009699598,None,1182.6851075999439,None,1182.6851075999439,None,r,0.734400799497962,1182.6851075999439,None,,,NC34,001,2022_Apr_06_1406,ProdSingRedo,3.2.3,59.99750453182274,
,,,,159,0,159,0,,,,,,,,,,,,,,,,,,,,,,,,1186.3719459008425,None,,,,,,,,,,,,,,,,,dozen,new_b,white,159,128,102,1183.9865741003305,None,1183.9865741003305,None,2,1.2329291999340057,1183.9865741003305,None,1185.2644008994102,None,1185.7753608003259,None,1185.7753608003259,None,n,0.5641103982925415,1185.7753608003259,None,,,NC34,001,2022_Apr_06_1406,ProdSingRedo,3.2.3,59.99750453182274,
,,,,160,0,160,0,,,,,,,,,,,,,,,,,,,,,,,,1188.7409786991775,None,,,,,,,,,,,,,,,,,carry,new_b,white,160,126,43,1186.9017586000264,None,1186.9017586000264,None,1,1.1573347002267838,1186.9017586000264,None,1188.0895592998713,None,1188.612901499495,None,1188.612901499495,None,n,0.09442800097167492,1188.612901499495,None,,,NC34,001,2022_Apr_06_1406,ProdSingRedo,3.2.3,59.99750453182274,
,,,,161,0,161,0,,,,,,,,,,,,,,,,,,,,,,,,1191.7608823999763,None,,,,,,,,,,,,,,,,,direction,sing,white,161,19,94,1189.2642157003284,None,1189.2642157003284,None,5,1.3714792001992464,1189.2642157003284,None,1190.6733426004648,None,1191.193756699562,None,1191.193756699562,None,f,0.5379109010100365,1191.193756699562,None,,,NC34,001,2022_Apr_06_1406,ProdSingRedo,3.2.3,59.99750453182274,
,,,,162,0,162,0,,,,,,,,,,,,,,,,,,,,,,,,1195.1512928009033,None,,,,,,,,,,,,,,,,,south,silent,white,162,67,296,1192.288885500282,None,1192.288885500282,None,6,1.378609100356698,1192.288885500282,None,1193.713789800182,None,1194.2308738008142,None,1194.2308738008142,None,r,0.892816299572587,1194.2308738008142,None,,,NC34,001,2022_Apr_06_1406,ProdSingRedo,3.2.3,59.99750453182274,
,,,,163,0,163,0,,,,,,,,,,,,,,,,,,,,,,,,1198.485214099288,None,,,,,,,,,,,,,,,,,surprise,silent,white,163,61,317,1195.6721103992313,None,1195.6721103992313,None,4,1.8515836000442505,1195.6721103992313,None,1197.5725270994008,None,1198.0881324000657,None,1198.0881324000657,None,f,0.3713623993098736,1198.0881324000657,None,,,NC34,001,2022_Apr_06_1406,ProdSingRedo,3.2.3,59.99750453182274,
,,,,164,0,164,0,,,,,,,,,,,,,,,,,,,,,,,,1201.020089700818,None,,,,,,,,,,,,,,,,,attack,new_c,white,164,179,13,1199.0166413001716,None,1199.0166413001716,None,3,1.1549558993428946,1199.0166413001716,None,1200.2282548993826,None,1200.747479800135,None,1200.747479800135,None,f,0.24002919904887676,1200.747479800135,None,,,NC34,001,2022_Apr_06_1406,ProdSingRedo,3.2.3,59.99750453182274,
,,,,165,0,165,0,,,,,,,,,,,,,,,,,,,,,,,,1203.9393738992512,None,,,,,,,,,,,,,,,,,native,new_a,white,165,107,199,1201.548389799893,None,1201.548389799893,None,6,1.2550921998918056,1201.548389799893,None,1202.8573720008135,None,1203.3822067994624,None,1203.3822067994624,None,r,0.5336252991110086,1203.3822067994624,None,,,NC34,001,2022_Apr_06_1406,ProdSingRedo,3.2.3,59.99750453182274,
,,,,166,0,166,0,,,,,,,,,,,,,,,,,,,,,,,,1207.032569900155,None,,,,,,,,,,,,,,,,,employment,sing,white,166,16,111,1204.4686031006277,None,1204.4686031006277,None,6,1.6784198991954327,1204.4686031006277,None,1206.178780399263,None,1206.6969984006137,None,1206.6969984006137,None,r,0.3066105004400015,1206.6969984006137,None,,,NC34,001,2022_Apr_06_1406,ProdSingRedo,3.2.3,59.99750453182274,
,,,,167,0,167,0,,,,,,,,,,,,,,,,,,,,,,,,1209.9290696997195,None,,,,,,,,,,,,,,,,,education,sing,white,167,17,108,1207.5541070997715,None,1207.5541070997715,None,5,1.4413597993552685,1207.5541070997715,None,1209.0474185999483,None,1209.5720933992416,None,1209.5720933992416,None,f,0.31943429820239544,1209.5720933992416,None,,,NC34,001,2022_Apr_06_1406,ProdSingRedo,3.2.3,59.99750453182274,
,,,,168,0,168,0,,,,,,,,,,,,,,,,,,,,,,,,1212.9158347006887,None,,,,,,,,,,,,,,,,,cover,new_a,white,168,98,77,1210.4548914004117,None,1210.4548914004117,None,4,1.5486122984439135,1210.4548914004117,None,1212.0468054991215,None,1212.5659026000649,None,1212.5659026000649,None,f,0.32584100030362606,1212.5659026000649,None,,,NC34,001,2022_Apr_06_1406,ProdSingRedo,3.2.3,59.99750453182274,
,,,,169,0,169,0,,,,,,,,,,,,,,,,,,,,,,,,1215.6768027991056,None,,,,,,,,,,,,,,,,,comfort,sing,white,169,10,59,1213.444675700739,None,1213.444675700739,None,6,1.606810500845313,1213.444675700739,None,1215.1056769993156,None,1215.6199053991586,None,1215.6199053991586,None,r,0.03928309865295887,1215.6199053991586,None,,,NC34,001,2022_Apr_06_1406,ProdSingRedo,3.2.3,59.99750453182274,
,,,,170,0,170,0,,,,,,,,,,,,,,,,,,,,,,,,1222.2248506005853,None,,,,,,,,,,,,,,,,,guide,silent,white,170,66,147,1216.1938281003386,None,1216.1938281003386,None,4,4.241645799949765,1216.1938281003386,None,1220.4827402997762,None,1220.9926955997944,None,1220.9926955997944,None,r,1.1947483997792006,1220.9926955997944,None,,,NC34,001,2022_Apr_06_1406,ProdSingRedo,3.2.3,59.99750453182274,
,,,,171,0,171,0,,,,,,,,,,,,,,,,,,,,,,,,1225.4068548996001,None,,,,,,,,,,,,,,,,,disease,sing,white,171,5,97,1222.7535290997475,None,1222.7535290997475,None,6,1.7059912011027336,1222.7535290997475,None,1224.505706500262,None,1225.0298938006163,None,1225.0298938006163,None,r,0.3576578013598919,1225.0298938006163,None,,,NC34,001,2022_Apr_06_1406,ProdSingRedo,3.2.3,59.99750453182274,
,,,,172,0,172,0,,,,,,,,,,,,,,,,,,,,,,,,1228.1812427993864,None,,,,,,,,,,,,,,,,,count,sing,white,172,15,72,1225.9355420991778,None,1225.9355420991778,None,5,1.2279399000108242,1225.9355420991778,None,1227.2096068002284,None,1227.7338893003762,None,1227.7338893003762,None,f,0.4134378004819155,1227.7338893003762,None,,,NC34,001,2022_Apr_06_1406,ProdSingRedo,3.2.3,59.99750453182274,
,,,,173,0,173,0,,,,,,,,,,,,,,,,,,,,,,,,1231.6344054993242,None,,,,,,,,,,,,,,,,,character,new_a,white,173,114,46,1228.713355800137,None,1228.713355800137,None,3,1.8501232992857695,1228.713355800137,None,1230.6183059997857,None,1231.1403937004507,None,1231.1403937004507,None,f,0.4550023004412651,1231.1403937004507,None,,,NC34,001,2022_Apr_06_1406,ProdSingRedo,3.2.3,59.99750453182274,
,,,,174,0,174,0,,,,,,,,,,,,,,,,,,,,,,,,1234.2879051994532,None,,,,,,,,,,,,,,,,,background,sing,white,174,26,16,1232.1704006996006,None,1232.1704006996006,None,3,1.217042699456215,1232.1704006996006,None,1233.4425182994455,None,1233.9575334005058,None,1233.9575334005058,None,f,0.29388360120356083,1233.9575334005058,None,,,NC34,001,2022_Apr_06_1406,ProdSingRedo,3.2.3,59.99750453182274,
,,,,175,0,175,0,,,,,,,,,,,,,,,,,,,,,,,,1237.567532800138,None,,,,,,,,,,,,,,,,,worker,silent,white,175,63,356,1234.8171574994922,None,1234.8171574994922,None,1,1.3461472000926733,1234.8171574994922,None,1236.2106127999723,None,1236.729950800538,None,1236.729950800538,None,n,0.8173753991723061,1236.729950800538,None,,,NC34,001,2022_Apr_06_1406,ProdSingRedo,3.2.3,59.99750453182274,
,,,,176,0,176,0,,,,,,,,,,,,,,,,,,,,,,,,1242.8126794006675,None,,,,,,,,,,,,,,,,,angle,aloud,white,176,43,7,1238.1014237999916,None,1238.1014237999916,None,6,3.2307518012821674,1238.1014237999916,None,1241.3822262994945,None,1241.8983006998897,None,1241.8983006998897,None,f,0.8811212982982397,1241.8983006998897,None,,,NC34,001,2022_Apr_06_1406,ProdSingRedo,3.2.3,59.99750453182274,
,,,,177,0,177,0,,,,,,,,,,,,,,,,,,,,,,,,1246.1644369997084,None,,,,,,,,,,,,,,,,,science,silent,white,177,73,275,1243.3349255993962,None,1243.3349255993962,None,2,1.612481800839305,1243.3349255993962,None,1244.9907568991184,None,1245.4981816001236,None,1245.4981816001236,None,n,0.6411949004977942,1245.4981816001236,None,,,NC34,001,2022_Apr_06_1406,ProdSingRedo,3.2.3,59.99750453182274,
,,,,178,0,178,0,,,,,,,,,,,,,,,,,,,,,,,,1248.9545379001647,None,,,,,,,,,,,,,,,,,growth,new_c,white,178,178,144,1246.693566000089,None,1246.693566000089,None,4,1.3574154004454613,1246.693566000089,None,1248.0783600993454,None,1248.6053197998554,None,1248.6053197998554,None,f,0.3101792000234127,1248.6053197998554,None,,,NC34,001,2022_Apr_06_1406,ProdSingRedo,3.2.3,59.99750453182274,
,,,,179,0,179,0,,,,,,,,,,,,,,,,,,,,,,,,1256.1087691001594,None,,,,,,,,,,,,,,,,,author,new_c,white,179,151,15,1249.4769621994346,None,1249.4769621994346,None,4,5.726412000134587,1249.4769621994346,None,1255.251292899251,None,1255.7592960000038,None,1255.7592960000038,None,f,0.316032100468874,1255.7592960000038,None,,,NC34,001,2022_Apr_06_1406,ProdSingRedo,3.2.3,59.99750453182274,
,,,,,,,,,,,,,,,,,,,,,,,,,,,,,,,,,,,,,,,,,,,,,,,,,,,,,,,,,,,,,,,,,,,,,,,,,1256.6184330005199,None,,,,,,,
