StudyLoop.thisRepN,StudyLoop.thisTrialN,StudyLoop.thisN,StudyLoop.thisIndex,TestLoop.thisRepN,TestLoop.thisTrialN,TestLoop.thisN,TestLoop.thisIndex,textCondition.started,textCondition.stopped,keyCondition.keys,keyCondition.rt,keyCondition.started,keyCondition.stopped,Condition,stim_colors,color_sing,color_aloud,color_silent,textWelcome.started,textWelcome.stopped,keyWelcome.keys,keyWelcome.rt,keyWelcome.started,keyWelcome.stopped,textAloud.started,textAloud.stopped,textSilent.started,textSilent.stopped,textSing.started,textSing.stopped,textBlank500.started,textBlank500.stopped,study_word,study_type,study_color,study_num,study_word_num,textStudy.started,textStudy.stopped,keyStudy.keys,keyStudy.started,keyStudy.stopped,textTestInstructions.started,textTestInstructions.stopped,key_resp_3.keys,key_resp_3.rt,key_resp_3.started,key_resp_3.stopped,testWord,testType,testColor,testN,test_num,test_word_num,textConf.started,textConf.stopped,textConfScale.started,textConfScale.stopped,keyConf.keys,keyConf.rt,keyConf.started,keyConf.stopped,textTestBlank.started,textTestBlank.stopped,textRKN.started,textRKN.stopped,textRKNScale.started,textRKNScale.stopped,keyRKN.keys,keyRKN.rt,keyRKN.started,keyRKN.stopped,textEnd.started,textEnd.stopped,participant,session,date,expName,psychopyVersion,frameRate,
,,,,,,,,23.456677300855517,None,n,3.1123003996908665,23.456677300855517,None,,,,,,,,,,,,,,,,,,,,,,,,,,,,,,,,,,,,,,,,,,,,,,,,,,,,,,,,,,,,,,NC36,001,2022_Apr_12_1050,ProdSingRedo,3.2.3,59.733124553138595,
,,,,,,,,,,,,,,NeutralTest,"['blue', 'yellow', 'red']",blue,yellow,red,26.597021801397204,None,space,258.1319502014667,26.597021801397204,None,,,,,,,,,,,,,,,,,,,,,,,,,,,,,,,,,,,,,,,,,,,,,,,,,,,NC36,001,2022_Apr_12_1050,ProdSingRedo,3.2.3,59.733124553138595,
0,0,0,0,,,,,,,,,,,,,,,,,,,,,,26.597021801397204,None,26.597021801397204,None,26.597021801397204,None,287.2880957014859,None,material,sing,blue,21,182,285.2784182000905,None,None,285.2784182000905,None,,,,,,,,,,,,,,,,,,,,,,,,,,,,,,,,,NC36,001,2022_Apr_12_1050,ProdSingRedo,3.2.3,59.733124553138595,
1,0,1,0,,,,,,,,,,,,,,,,,,,,,,,,,,,,289.8043209016323,None,taste,silent,red,83,322,287.8009311016649,None,None,287.8009311016649,None,,,,,,,,,,,,,,,,,,,,,,,,,,,,,,,,,NC36,001,2022_Apr_12_1050,ProdSingRedo,3.2.3,59.733124553138595,
2,0,2,0,,,,,,,,,,,,,,,,,,,,,,,,,,,,292.3234363012016,None,leader,silent,red,66,168,290.3182548005134,None,None,290.3182548005134,None,,,,,,,,,,,,,,,,,,,,,,,,,,,,,,,,,NC36,001,2022_Apr_12_1050,ProdSingRedo,3.2.3,59.733124553138595,
3,0,3,0,,,,,,,,,,,,,,,,,,,,,,,,,,,,294.84262520074844,None,close,sing,blue,18,53,292.8324382007122,None,None,292.8324382007122,None,,,,,,,,,,,,,,,,,,,,,,,,,,,,,,,,,NC36,001,2022_Apr_12_1050,ProdSingRedo,3.2.3,59.733124553138595,
4,0,4,0,,,,,,,,,,,,,,,,,,,,,,,,,,,,297.3617989011109,None,opening,silent,red,60,205,295.3555798009038,None,None,295.3555798009038,None,,,,,,,,,,,,,,,,,,,,,,,,,,,,,,,,,NC36,001,2022_Apr_12_1050,ProdSingRedo,3.2.3,59.733124553138595,
5,0,5,0,,,,,,,,,,,,,,,,,,,,,,,,,,,,299.8811334017664,None,generation,sing,blue,12,136,297.8774047009647,None,None,297.8774047009647,None,,,,,,,,,,,,,,,,,,,,,,,,,,,,,,,,,NC36,001,2022_Apr_12_1050,ProdSingRedo,3.2.3,59.733124553138595,
6,0,6,0,,,,,,,,,,,,,,,,,,,,,,,,,,,,302.40019530057907,None,afternoon,aloud,yellow,56,3,300.39376990124583,None,None,300.39376990124583,None,,,,,,,,,,,,,,,,,,,,,,,,,,,,,,,,,NC36,001,2022_Apr_12_1050,ProdSingRedo,3.2.3,59.733124553138595,
7,0,7,0,,,,,,,,,,,,,,,,,,,,,,,,,,,,304.9194637015462,None,income,aloud,yellow,37,159,302.9100734014064,None,None,302.9100734014064,None,,,,,,,,,,,,,,,,,,,,,,,,,,,,,,,,,NC36,001,2022_Apr_12_1050,ProdSingRedo,3.2.3,59.733124553138595,
8,0,8,0,,,,,,,,,,,,,,,,,,,,,,,,,,,,307.4386766012758,None,payment,silent,red,78,215,305.43818250112236,None,None,305.43818250112236,None,,,,,,,,,,,,,,,,,,,,,,,,,,,,,,,,,NC36,001,2022_Apr_12_1050,ProdSingRedo,3.2.3,59.733124553138595,
9,0,9,0,,,,,,,,,,,,,,,,,,,,,,,,,,,,309.9578315000981,None,production,sing,blue,0,240,307.95245280116796,None,None,307.95245280116796,None,,,,,,,,,,,,,,,,,,,,,,,,,,,,,,,,,NC36,001,2022_Apr_12_1050,ProdSingRedo,3.2.3,59.733124553138595,
10,0,10,0,,,,,,,,,,,,,,,,,,,,,,,,,,,,312.4769108016044,None,build,sing,blue,9,35,310.4770506005734,None,None,310.4770506005734,None,,,,,,,,,,,,,,,,,,,,,,,,,,,,,,,,,NC36,001,2022_Apr_12_1050,ProdSingRedo,3.2.3,59.733124553138595,
11,0,11,0,,,,,,,,,,,,,,,,,,,,,,,,,,,,314.99613230116665,None,industry,sing,blue,4,161,312.99604250118136,None,None,312.99604250118136,None,,,,,,,,,,,,,,,,,,,,,,,,,,,,,,,,,NC36,001,2022_Apr_12_1050,ProdSingRedo,3.2.3,59.733124553138595,
12,0,12,0,,,,,,,,,,,,,,,,,,,,,,,,,,,,317.5152636002749,None,signal,aloud,yellow,58,287,315.5159688014537,None,None,315.5159688014537,None,,,,,,,,,,,,,,,,,,,,,,,,,,,,,,,,,NC36,001,2022_Apr_12_1050,ProdSingRedo,3.2.3,59.733124553138595,
13,0,13,0,,,,,,,,,,,,,,,,,,,,,,,,,,,,320.0345219001174,None,spoke,silent,red,84,300,318.0335508007556,None,None,318.0335508007556,None,,,,,,,,,,,,,,,,,,,,,,,,,,,,,,,,,NC36,001,2022_Apr_12_1050,ProdSingRedo,3.2.3,59.733124553138595,
14,0,14,0,,,,,,,,,,,,,,,,,,,,,,,,,,,,322.55332910083234,None,territory,sing,blue,6,324,320.5437852013856,None,None,320.5437852013856,None,,,,,,,,,,,,,,,,,,,,,,,,,,,,,,,,,NC36,001,2022_Apr_12_1050,ProdSingRedo,3.2.3,59.733124553138595,
15,0,15,0,,,,,,,,,,,,,,,,,,,,,,,,,,,,325.0727866012603,None,search,silent,red,80,276,323.06861440092325,None,None,323.06861440092325,None,,,,,,,,,,,,,,,,,,,,,,,,,,,,,,,,,NC36,001,2022_Apr_12_1050,ProdSingRedo,3.2.3,59.733124553138595,
16,0,16,0,,,,,,,,,,,,,,,,,,,,,,,,,,,,327.5919422004372,None,review,aloud,yellow,52,263,325.59325960092247,None,None,325.59325960092247,None,,,,,,,,,,,,,,,,,,,,,,,,,,,,,,,,,NC36,001,2022_Apr_12_1050,ProdSingRedo,3.2.3,59.733124553138595,
17,0,17,0,,,,,,,,,,,,,,,,,,,,,,,,,,,,330.11090280115604,None,people,silent,red,89,216,328.10318060033023,None,None,328.10318060033023,None,,,,,,,,,,,,,,,,,,,,,,,,,,,,,,,,,NC36,001,2022_Apr_12_1050,ProdSingRedo,3.2.3,59.733124553138595,
18,0,18,0,,,,,,,,,,,,,,,,,,,,,,,,,,,,332.6300900001079,None,individual,silent,red,79,160,330.63387000001967,None,None,330.63387000001967,None,,,,,,,,,,,,,,,,,,,,,,,,,,,,,,,,,NC36,001,2022_Apr_12_1050,ProdSingRedo,3.2.3,59.733124553138595,
19,0,19,0,,,,,,,,,,,,,,,,,,,,,,,,,,,,335.14954590052366,None,turkey,sing,blue,24,342,333.1478429008275,None,None,333.1478429008275,None,,,,,,,,,,,,,,,,,,,,,,,,,,,,,,,,,NC36,001,2022_Apr_12_1050,ProdSingRedo,3.2.3,59.733124553138595,
20,0,20,0,,,,,,,,,,,,,,,,,,,,,,,,,,,,337.6687146015465,None,piece,sing,blue,15,221,335.66031480021775,None,None,335.66031480021775,None,,,,,,,,,,,,,,,,,,,,,,,,,,,,,,,,,NC36,001,2022_Apr_12_1050,ProdSingRedo,3.2.3,59.733124553138595,
21,0,21,0,,,,,,,,,,,,,,,,,,,,,,,,,,,,340.18783400021493,None,column,sing,blue,1,57,338.1838235016912,None,None,338.1838235016912,None,,,,,,,,,,,,,,,,,,,,,,,,,,,,,,,,,NC36,001,2022_Apr_12_1050,ProdSingRedo,3.2.3,59.733124553138595,
22,0,22,0,,,,,,,,,,,,,,,,,,,,,,,,,,,,342.7070983015001,None,debate,aloud,yellow,42,87,340.70650060102344,None,None,340.70650060102344,None,,,,,,,,,,,,,,,,,,,,,,,,,,,,,,,,,NC36,001,2022_Apr_12_1050,ProdSingRedo,3.2.3,59.733124553138595,
23,0,23,0,,,,,,,,,,,,,,,,,,,,,,,,,,,,345.2263076007366,None,evidence,silent,red,65,120,343.2229474000633,None,None,343.2229474000633,None,,,,,,,,,,,,,,,,,,,,,,,,,,,,,,,,,NC36,001,2022_Apr_12_1050,ProdSingRedo,3.2.3,59.733124553138595,
24,0,24,0,,,,,,,,,,,,,,,,,,,,,,,,,,,,347.74551020003855,None,measure,aloud,yellow,34,184,345.74462180025876,None,None,345.74462180025876,None,,,,,,,,,,,,,,,,,,,,,,,,,,,,,,,,,NC36,001,2022_Apr_12_1050,ProdSingRedo,3.2.3,59.733124553138595,
25,0,25,0,,,,,,,,,,,,,,,,,,,,,,,,,,,,350.2645505014807,None,murder,silent,red,71,195,348.25756190158427,None,None,348.25756190158427,None,,,,,,,,,,,,,,,,,,,,,,,,,,,,,,,,,NC36,001,2022_Apr_12_1050,ProdSingRedo,3.2.3,59.733124553138595,
26,0,26,0,,,,,,,,,,,,,,,,,,,,,,,,,,,,352.7837695013732,None,session,aloud,yellow,41,281,350.77582450024784,None,None,350.77582450024784,None,,,,,,,,,,,,,,,,,,,,,,,,,,,,,,,,,NC36,001,2022_Apr_12_1050,ProdSingRedo,3.2.3,59.733124553138595,
27,0,27,0,,,,,,,,,,,,,,,,,,,,,,,,,,,,355.30295390076935,None,degree,silent,red,85,89,353.3027839008719,None,None,353.3027839008719,None,,,,,,,,,,,,,,,,,,,,,,,,,,,,,,,,,NC36,001,2022_Apr_12_1050,ProdSingRedo,3.2.3,59.733124553138595,
28,0,28,0,,,,,,,,,,,,,,,,,,,,,,,,,,,,357.8222040012479,None,angle,aloud,yellow,50,7,355.8231580015272,None,None,355.8231580015272,None,,,,,,,,,,,,,,,,,,,,,,,,,,,,,,,,,NC36,001,2022_Apr_12_1050,ProdSingRedo,3.2.3,59.733124553138595,
29,0,29,0,,,,,,,,,,,,,,,,,,,,,,,,,,,,360.3413262013346,None,broke,silent,red,88,32,358.3375476002693,None,None,358.3375476002693,None,,,,,,,,,,,,,,,,,,,,,,,,,,,,,,,,,NC36,001,2022_Apr_12_1050,ProdSingRedo,3.2.3,59.733124553138595,
30,0,30,0,,,,,,,,,,,,,,,,,,,,,,,,,,,,362.8605295009911,None,reach,silent,red,74,253,360.8559580016881,None,None,360.8559580016881,None,,,,,,,,,,,,,,,,,,,,,,,,,,,,,,,,,NC36,001,2022_Apr_12_1050,ProdSingRedo,3.2.3,59.733124553138595,
31,0,31,0,,,,,,,,,,,,,,,,,,,,,,,,,,,,365.37963730096817,None,captain,aloud,yellow,43,41,363.3761963006109,None,None,363.3761963006109,None,,,,,,,,,,,,,,,,,,,,,,,,,,,,,,,,,NC36,001,2022_Apr_12_1050,ProdSingRedo,3.2.3,59.733124553138595,
32,0,32,0,,,,,,,,,,,,,,,,,,,,,,,,,,,,367.8988010007888,None,light,silent,red,87,171,365.8934348002076,None,None,365.8934348002076,None,,,,,,,,,,,,,,,,,,,,,,,,,,,,,,,,,NC36,001,2022_Apr_12_1050,ProdSingRedo,3.2.3,59.733124553138595,
33,0,33,0,,,,,,,,,,,,,,,,,,,,,,,,,,,,370.41795979999006,None,government,aloud,yellow,31,139,368.41985390149057,None,None,368.41985390149057,None,,,,,,,,,,,,,,,,,,,,,,,,,,,,,,,,,NC36,001,2022_Apr_12_1050,ProdSingRedo,3.2.3,59.733124553138595,
34,0,34,0,,,,,,,,,,,,,,,,,,,,,,,,,,,,372.93715620040894,None,death,sing,blue,22,86,370.9306176006794,None,None,370.9306176006794,None,,,,,,,,,,,,,,,,,,,,,,,,,,,,,,,,,NC36,001,2022_Apr_12_1050,ProdSingRedo,3.2.3,59.733124553138595,
35,0,35,0,,,,,,,,,,,,,,,,,,,,,,,,,,,,375.4564437009394,None,corner,silent,red,63,69,373.4458332005888,None,None,373.4458332005888,None,,,,,,,,,,,,,,,,,,,,,,,,,,,,,,,,,NC36,001,2022_Apr_12_1050,ProdSingRedo,3.2.3,59.733124553138595,
36,0,36,0,,,,,,,,,,,,,,,,,,,,,,,,,,,,377.9754815008491,None,surface,sing,blue,13,316,375.97060810029507,None,None,375.97060810029507,None,,,,,,,,,,,,,,,,,,,,,,,,,,,,,,,,,NC36,001,2022_Apr_12_1050,ProdSingRedo,3.2.3,59.733124553138595,
37,0,37,0,,,,,,,,,,,,,,,,,,,,,,,,,,,,380.4947940018028,None,grade,sing,blue,16,140,378.4893638007343,None,None,378.4893638007343,None,,,,,,,,,,,,,,,,,,,,,,,,,,,,,,,,,NC36,001,2022_Apr_12_1050,ProdSingRedo,3.2.3,59.733124553138595,
38,0,38,0,,,,,,,,,,,,,,,,,,,,,,,,,,,,383.0134553015232,None,treatment,aloud,yellow,45,339,381.00859980098903,None,None,381.00859980098903,None,,,,,,,,,,,,,,,,,,,,,,,,,,,,,,,,,NC36,001,2022_Apr_12_1050,ProdSingRedo,3.2.3,59.733124553138595,
39,0,39,0,,,,,,,,,,,,,,,,,,,,,,,,,,,,385.5330562014133,None,drove,aloud,yellow,55,106,383.53646640107036,None,None,383.53646640107036,None,,,,,,,,,,,,,,,,,,,,,,,,,,,,,,,,,NC36,001,2022_Apr_12_1050,ProdSingRedo,3.2.3,59.733124553138595,
40,0,40,0,,,,,,,,,,,,,,,,,,,,,,,,,,,,388.052290501073,None,brief,sing,blue,14,28,386.04645900055766,None,None,386.04645900055766,None,,,,,,,,,,,,,,,,,,,,,,,,,,,,,,,,,NC36,001,2022_Apr_12_1050,ProdSingRedo,3.2.3,59.733124553138595,
41,0,41,0,,,,,,,,,,,,,,,,,,,,,,,,,,,,390.57151440158486,None,quiet,silent,red,61,249,388.5759431011975,None,None,388.5759431011975,None,,,,,,,,,,,,,,,,,,,,,,,,,,,,,,,,,NC36,001,2022_Apr_12_1050,ProdSingRedo,3.2.3,59.733124553138595,
42,0,42,0,,,,,,,,,,,,,,,,,,,,,,,,,,,,393.09071980044246,None,partner,aloud,yellow,30,211,391.0854823011905,None,None,391.0854823011905,None,,,,,,,,,,,,,,,,,,,,,,,,,,,,,,,,,NC36,001,2022_Apr_12_1050,ProdSingRedo,3.2.3,59.733124553138595,
43,0,43,0,,,,,,,,,,,,,,,,,,,,,,,,,,,,395.60991920158267,None,community,sing,blue,7,63,393.6063523013145,None,None,393.6063523013145,None,,,,,,,,,,,,,,,,,,,,,,,,,,,,,,,,,NC36,001,2022_Apr_12_1050,ProdSingRedo,3.2.3,59.733124553138595,
44,0,44,0,,,,,,,,,,,,,,,,,,,,,,,,,,,,398.1288693007082,None,answer,silent,red,70,8,396.1255752015859,None,None,396.1255752015859,None,,,,,,,,,,,,,,,,,,,,,,,,,,,,,,,,,NC36,001,2022_Apr_12_1050,ProdSingRedo,3.2.3,59.733124553138595,
45,0,45,0,,,,,,,,,,,,,,,,,,,,,,,,,,,,400.64812589995563,None,military,sing,blue,29,190,398.64526230096817,None,None,398.64526230096817,None,,,,,,,,,,,,,,,,,,,,,,,,,,,,,,,,,NC36,001,2022_Apr_12_1050,ProdSingRedo,3.2.3,59.733124553138595,
46,0,46,0,,,,,,,,,,,,,,,,,,,,,,,,,,,,403.16730660013855,None,music,aloud,yellow,51,196,401.16297900117934,None,None,401.16297900117934,None,,,,,,,,,,,,,,,,,,,,,,,,,,,,,,,,,NC36,001,2022_Apr_12_1050,ProdSingRedo,3.2.3,59.733124553138595,
47,0,47,0,,,,,,,,,,,,,,,,,,,,,,,,,,,,405.6865187007934,None,guest,sing,blue,8,146,403.6795860007405,None,None,403.6795860007405,None,,,,,,,,,,,,,,,,,,,,,,,,,,,,,,,,,NC36,001,2022_Apr_12_1050,ProdSingRedo,3.2.3,59.733124553138595,
48,0,48,0,,,,,,,,,,,,,,,,,,,,,,,,,,,,408.2058307006955,None,voice,silent,red,68,348,406.19965390115976,None,None,406.19965390115976,None,,,,,,,,,,,,,,,,,,,,,,,,,,,,,,,,,NC36,001,2022_Apr_12_1050,ProdSingRedo,3.2.3,59.733124553138595,
49,0,49,0,,,,,,,,,,,,,,,,,,,,,,,,,,,,410.7249954007566,None,color,silent,red,62,56,408.71500520035625,None,None,408.71500520035625,None,,,,,,,,,,,,,,,,,,,,,,,,,,,,,,,,,NC36,001,2022_Apr_12_1050,ProdSingRedo,3.2.3,59.733124553138595,
50,0,50,0,,,,,,,,,,,,,,,,,,,,,,,,,,,,413.2441037017852,None,alert,aloud,yellow,57,6,411.2374713011086,None,None,411.2374713011086,None,,,,,,,,,,,,,,,,,,,,,,,,,,,,,,,,,NC36,001,2022_Apr_12_1050,ProdSingRedo,3.2.3,59.733124553138595,
51,0,51,0,,,,,,,,,,,,,,,,,,,,,,,,,,,,415.7632693015039,None,defeat,sing,blue,20,88,413.7610672004521,None,None,413.7610672004521,None,,,,,,,,,,,,,,,,,,,,,,,,,,,,,,,,,NC36,001,2022_Apr_12_1050,ProdSingRedo,3.2.3,59.733124553138595,
52,0,52,0,,,,,,,,,,,,,,,,,,,,,,,,,,,,418.28243190050125,None,candidate,aloud,yellow,59,39,416.2807776015252,None,None,416.2807776015252,None,,,,,,,,,,,,,,,,,,,,,,,,,,,,,,,,,NC36,001,2022_Apr_12_1050,ProdSingRedo,3.2.3,59.733124553138595,
53,0,53,0,,,,,,,,,,,,,,,,,,,,,,,,,,,,420.8016366008669,None,interview,silent,red,86,165,418.8029417004436,None,None,418.8029417004436,None,,,,,,,,,,,,,,,,,,,,,,,,,,,,,,,,,NC36,001,2022_Apr_12_1050,ProdSingRedo,3.2.3,59.733124553138595,
54,0,54,0,,,,,,,,,,,,,,,,,,,,,,,,,,,,423.32074470072985,None,discussion,aloud,yellow,33,96,421.31818520091474,None,None,421.31818520091474,None,,,,,,,,,,,,,,,,,,,,,,,,,,,,,,,,,NC36,001,2022_Apr_12_1050,ProdSingRedo,3.2.3,59.733124553138595,
55,0,55,0,,,,,,,,,,,,,,,,,,,,,,,,,,,,425.839930601418,None,substance,aloud,yellow,40,313,423.841997500509,None,None,423.841997500509,None,,,,,,,,,,,,,,,,,,,,,,,,,,,,,,,,,NC36,001,2022_Apr_12_1050,ProdSingRedo,3.2.3,59.733124553138595,
56,0,56,0,,,,,,,,,,,,,,,,,,,,,,,,,,,,428.35916090011597,None,listen,sing,blue,10,172,426.35087610036135,None,None,426.35087610036135,None,,,,,,,,,,,,,,,,,,,,,,,,,,,,,,,,,NC36,001,2022_Apr_12_1050,ProdSingRedo,3.2.3,59.733124553138595,
57,0,57,0,,,,,,,,,,,,,,,,,,,,,,,,,,,,430.87834920175374,None,pancakes,aloud,yellow,49,210,428.87883120030165,None,None,428.87883120030165,None,,,,,,,,,,,,,,,,,,,,,,,,,,,,,,,,,NC36,001,2022_Apr_12_1050,ProdSingRedo,3.2.3,59.733124553138595,
58,0,58,0,,,,,,,,,,,,,,,,,,,,,,,,,,,,433.3974935002625,None,device,silent,red,72,93,431.39433510042727,None,None,431.39433510042727,None,,,,,,,,,,,,,,,,,,,,,,,,,,,,,,,,,NC36,001,2022_Apr_12_1050,ProdSingRedo,3.2.3,59.733124553138595,
59,0,59,0,,,,,,,,,,,,,,,,,,,,,,,,,,,,435.9166146013886,None,split,sing,blue,3,299,433.9124630000442,None,None,433.9124630000442,None,,,,,,,,,,,,,,,,,,,,,,,,,,,,,,,,,NC36,001,2022_Apr_12_1050,ProdSingRedo,3.2.3,59.733124553138595,
60,0,60,0,,,,,,,,,,,,,,,,,,,,,,,,,,,,438.4358426015824,None,rough,silent,red,81,266,436.4308888018131,None,None,436.4308888018131,None,,,,,,,,,,,,,,,,,,,,,,,,,,,,,,,,,NC36,001,2022_Apr_12_1050,ProdSingRedo,3.2.3,59.733124553138595,
61,0,61,0,,,,,,,,,,,,,,,,,,,,,,,,,,,,440.9550078008324,None,season,sing,blue,2,277,438.951549500227,None,None,438.951549500227,None,,,,,,,,,,,,,,,,,,,,,,,,,,,,,,,,,NC36,001,2022_Apr_12_1050,ProdSingRedo,3.2.3,59.733124553138595,
62,0,62,0,,,,,,,,,,,,,,,,,,,,,,,,,,,,443.4741767011583,None,prime,sing,blue,11,235,441.4639510009438,None,None,441.4639510009438,None,,,,,,,,,,,,,,,,,,,,,,,,,,,,,,,,,NC36,001,2022_Apr_12_1050,ProdSingRedo,3.2.3,59.733124553138595,
63,0,63,0,,,,,,,,,,,,,,,,,,,,,,,,,,,,445.99304020032287,None,owner,aloud,yellow,46,208,443.9888984002173,None,None,443.9888984002173,None,,,,,,,,,,,,,,,,,,,,,,,,,,,,,,,,,NC36,001,2022_Apr_12_1050,ProdSingRedo,3.2.3,59.733124553138595,
64,0,64,0,,,,,,,,,,,,,,,,,,,,,,,,,,,,448.49586450122297,None,property,silent,red,75,242,446.49400490149856,None,None,446.49400490149856,None,,,,,,,,,,,,,,,,,,,,,,,,,,,,,,,,,NC36,001,2022_Apr_12_1050,ProdSingRedo,3.2.3,59.733124553138595,
65,0,65,0,,,,,,,,,,,,,,,,,,,,,,,,,,,,451.0150488000363,None,junior,aloud,yellow,44,167,449.0173905007541,None,None,449.0173905007541,None,,,,,,,,,,,,,,,,,,,,,,,,,,,,,,,,,NC36,001,2022_Apr_12_1050,ProdSingRedo,3.2.3,59.733124553138595,
66,0,66,0,,,,,,,,,,,,,,,,,,,,,,,,,,,,453.5343170017004,None,majority,aloud,yellow,54,176,451.5320383012295,None,None,451.5320383012295,None,,,,,,,,,,,,,,,,,,,,,,,,,,,,,,,,,NC36,001,2022_Apr_12_1050,ProdSingRedo,3.2.3,59.733124553138595,
67,0,67,0,,,,,,,,,,,,,,,,,,,,,,,,,,,,456.0534431003034,None,danger,aloud,yellow,35,85,454.0518658012152,None,None,454.0518658012152,None,,,,,,,,,,,,,,,,,,,,,,,,,,,,,,,,,NC36,001,2022_Apr_12_1050,ProdSingRedo,3.2.3,59.733124553138595,
68,0,68,0,,,,,,,,,,,,,,,,,,,,,,,,,,,,458.5725316014141,None,empty,sing,blue,25,112,456.5700145009905,None,None,456.5700145009905,None,,,,,,,,,,,,,,,,,,,,,,,,,,,,,,,,,NC36,001,2022_Apr_12_1050,ProdSingRedo,3.2.3,59.733124553138595,
69,0,69,0,,,,,,,,,,,,,,,,,,,,,,,,,,,,461.09171260148287,None,enemy,sing,blue,28,113,459.0856947004795,None,None,459.0856947004795,None,,,,,,,,,,,,,,,,,,,,,,,,,,,,,,,,,NC36,001,2022_Apr_12_1050,ProdSingRedo,3.2.3,59.733124553138595,
70,0,70,0,,,,,,,,,,,,,,,,,,,,,,,,,,,,463.6109453011304,None,addition,silent,red,67,2,461.608744001016,None,None,461.608744001016,None,,,,,,,,,,,,,,,,,,,,,,,,,,,,,,,,,NC36,001,2022_Apr_12_1050,ProdSingRedo,3.2.3,59.733124553138595,
71,0,71,0,,,,,,,,,,,,,,,,,,,,,,,,,,,,466.13015250116587,None,commercial,sing,blue,27,61,464.1275722011924,None,None,464.1275722011924,None,,,,,,,,,,,,,,,,,,,,,,,,,,,,,,,,,NC36,001,2022_Apr_12_1050,ProdSingRedo,3.2.3,59.733124553138595,
72,0,72,0,,,,,,,,,,,,,,,,,,,,,,,,,,,,468.6492568012327,None,division,aloud,yellow,47,101,466.64482330158353,None,None,466.64482330158353,None,,,,,,,,,,,,,,,,,,,,,,,,,,,,,,,,,NC36,001,2022_Apr_12_1050,ProdSingRedo,3.2.3,59.733124553138595,
73,0,73,0,,,,,,,,,,,,,,,,,,,,,,,,,,,,471.1685851011425,None,tennis,aloud,yellow,32,323,469.16144750081,None,None,469.16144750081,None,,,,,,,,,,,,,,,,,,,,,,,,,,,,,,,,,NC36,001,2022_Apr_12_1050,ProdSingRedo,3.2.3,59.733124553138595,
74,0,74,0,,,,,,,,,,,,,,,,,,,,,,,,,,,,473.68768810108304,None,raise,aloud,yellow,48,250,471.6832628007978,None,None,471.6832628007978,None,,,,,,,,,,,,,,,,,,,,,,,,,,,,,,,,,NC36,001,2022_Apr_12_1050,ProdSingRedo,3.2.3,59.733124553138595,
75,0,75,0,,,,,,,,,,,,,,,,,,,,,,,,,,,,476.2069033011794,None,direction,silent,red,73,94,474.1993568018079,None,None,474.1993568018079,None,,,,,,,,,,,,,,,,,,,,,,,,,,,,,,,,,NC36,001,2022_Apr_12_1050,ProdSingRedo,3.2.3,59.733124553138595,
76,0,76,0,,,,,,,,,,,,,,,,,,,,,,,,,,,,478.70932679995894,None,suggestion,silent,red,64,314,476.7072710003704,None,None,476.7072710003704,None,,,,,,,,,,,,,,,,,,,,,,,,,,,,,,,,,NC36,001,2022_Apr_12_1050,ProdSingRedo,3.2.3,59.733124553138595,
77,0,77,0,,,,,,,,,,,,,,,,,,,,,,,,,,,,481.22851110063493,None,court,sing,blue,23,75,479.22204670123756,None,None,479.22204670123756,None,,,,,,,,,,,,,,,,,,,,,,,,,,,,,,,,,NC36,001,2022_Apr_12_1050,ProdSingRedo,3.2.3,59.733124553138595,
78,0,78,0,,,,,,,,,,,,,,,,,,,,,,,,,,,,483.7477339003235,None,straight,aloud,yellow,38,307,481.746475700289,None,None,481.746475700289,None,,,,,,,,,,,,,,,,,,,,,,,,,,,,,,,,,NC36,001,2022_Apr_12_1050,ProdSingRedo,3.2.3,59.733124553138595,
79,0,79,0,,,,,,,,,,,,,,,,,,,,,,,,,,,,486.2669553011656,None,quarter,silent,red,69,246,484.2541125006974,None,None,484.2541125006974,None,,,,,,,,,,,,,,,,,,,,,,,,,,,,,,,,,NC36,001,2022_Apr_12_1050,ProdSingRedo,3.2.3,59.733124553138595,
80,0,80,0,,,,,,,,,,,,,,,,,,,,,,,,,,,,488.7860693000257,None,chief,sing,blue,5,48,486.77909590117633,None,None,486.77909590117633,None,,,,,,,,,,,,,,,,,,,,,,,,,,,,,,,,,NC36,001,2022_Apr_12_1050,ProdSingRedo,3.2.3,59.733124553138595,
81,0,81,0,,,,,,,,,,,,,,,,,,,,,,,,,,,,491.30516900122166,None,crowd,aloud,yellow,39,81,489.29871330037713,None,None,489.29871330037713,None,,,,,,,,,,,,,,,,,,,,,,,,,,,,,,,,,NC36,001,2022_Apr_12_1050,ProdSingRedo,3.2.3,59.733124553138595,
82,0,82,0,,,,,,,,,,,,,,,,,,,,,,,,,,,,493.8244188018143,None,clean,sing,blue,19,51,491.81787390075624,None,None,491.81787390075624,None,,,,,,,,,,,,,,,,,,,,,,,,,,,,,,,,,NC36,001,2022_Apr_12_1050,ProdSingRedo,3.2.3,59.733124553138595,
83,0,83,0,,,,,,,,,,,,,,,,,,,,,,,,,,,,496.3434063009918,None,quick,silent,red,77,248,494.33984810113907,None,None,494.33984810113907,None,,,,,,,,,,,,,,,,,,,,,,,,,,,,,,,,,NC36,001,2022_Apr_12_1050,ProdSingRedo,3.2.3,59.733124553138595,
84,0,84,0,,,,,,,,,,,,,,,,,,,,,,,,,,,,498.8627663012594,None,personnel,aloud,yellow,36,219,496.8549145013094,None,None,496.8549145013094,None,,,,,,,,,,,,,,,,,,,,,,,,,,,,,,,,,NC36,001,2022_Apr_12_1050,ProdSingRedo,3.2.3,59.733124553138595,
85,0,85,0,,,,,,,,,,,,,,,,,,,,,,,,,,,,501.38199410028756,None,thing,silent,red,82,328,499.38650900125504,None,None,499.38650900125504,None,,,,,,,,,,,,,,,,,,,,,,,,,,,,,,,,,NC36,001,2022_Apr_12_1050,ProdSingRedo,3.2.3,59.733124553138595,
86,0,86,0,,,,,,,,,,,,,,,,,,,,,,,,,,,,503.9011160004884,None,conference,silent,red,76,66,501.90322980098426,None,None,501.90322980098426,None,,,,,,,,,,,,,,,,,,,,,,,,,,,,,,,,,NC36,001,2022_Apr_12_1050,ProdSingRedo,3.2.3,59.733124553138595,
87,0,87,0,,,,,,,,,,,,,,,,,,,,,,,,,,,,506.41982540115714,None,foundation,sing,blue,26,132,504.41920999996364,None,None,504.41920999996364,None,,,,,,,,,,,,,,,,,,,,,,,,,,,,,,,,,NC36,001,2022_Apr_12_1050,ProdSingRedo,3.2.3,59.733124553138595,
88,0,88,0,,,,,,,,,,,,,,,,,,,,,,,,,,,,508.9228026010096,None,force,aloud,yellow,53,131,506.9203642010689,None,None,506.9203642010689,None,,,,,,,,,,,,,,,,,,,,,,,,,,,,,,,,,NC36,001,2022_Apr_12_1050,ProdSingRedo,3.2.3,59.733124553138595,
89,0,89,0,,,,,,,,,,,,,,,,,,,,,,,,,,,,511.4420029018074,None,crime,sing,blue,17,78,509.4328517001122,None,None,509.4328517001122,None,,,,,,,,,,,,,,,,,,,,,,,,,,,,,,,,,NC36,001,2022_Apr_12_1050,ProdSingRedo,3.2.3,59.733124553138595,
,,,,,,,,,,,,,,,,,,,,,,,,,,,,,,,,,,,,,,,,,,,511.94272670149803,None,k,185.47345250099897,511.94272670149803,None,,,,,,,,,,,,,,,,,,,,,,,,,,,NC36,001,2022_Apr_12_1050,ProdSingRedo,3.2.3,59.733124553138595,
,,,,0,0,0,0,,,,,,,,,,,,,,,,,,,,,,,,707.2313446011394,None,,,,,,,,,,,,,,,,,trail,new_b,white,0,142,336,697.9768689014018,None,697.9768689014018,None,5,4.599210098385811,697.9768689014018,None,702.6194294001907,None,703.1451475005597,None,703.1451475005597,None,f,4.047051899135113,703.1451475005597,None,,,NC36,001,2022_Apr_12_1050,ProdSingRedo,3.2.3,59.733124553138595,
,,,,1,0,1,0,,,,,,,,,,,,,,,,,,,,,,,,713.1700322013348,None,,,,,,,,,,,,,,,,,engineer,new_a,white,1,105,114,707.758794201538,None,707.758794201538,None,1,3.2572543993592262,707.758794201538,None,711.0665121003985,None,711.5886996015906,None,711.5886996015906,None,n,1.5474200006574392,711.5886996015906,None,,,NC36,001,2022_Apr_12_1050,ProdSingRedo,3.2.3,59.733124553138595,
,,,,2,0,2,0,,,,,,,,,,,,,,,,,,,,,,,,718.775307700038,None,,,,,,,,,,,,,,,,,second,new_c,white,2,156,278,713.6922412011772,None,713.6922412011772,None,2,3.5474379993975163,713.6922412011772,None,717.2635500002652,None,717.7720040008426,None,717.7720040008426,None,n,0.9720743987709284,717.7720040008426,None,,,NC36,001,2022_Apr_12_1050,ProdSingRedo,3.2.3,59.733124553138595,
,,,,3,0,3,0,,,,,,,,,,,,,,,,,,,,,,,,724.7649531010538,None,,,,,,,,,,,,,,,,,thing,silent,white,3,82,328,719.2999656014144,None,719.2999656014144,None,6,3.331938199698925,719.2999656014144,None,722.6735597010702,None,723.1969934999943,None,723.1969934999943,None,r,1.5394483003765345,723.1969934999943,None,,,NC36,001,2022_Apr_12_1050,ProdSingRedo,3.2.3,59.733124553138595,
,,,,4,0,4,0,,,,,,,,,,,,,,,,,,,,,,,,730.5536744017154,None,,,,,,,,,,,,,,,,,court,sing,white,4,23,75,725.2920850999653,None,725.2920850999653,None,2,3.260046999901533,725.2920850999653,None,728.5957109015435,None,729.120409000665,None,729.120409000665,None,n,1.3997163008898497,729.120409000665,None,,,NC36,001,2022_Apr_12_1050,ProdSingRedo,3.2.3,59.733124553138595,
,,,,5,0,5,0,,,,,,,,,,,,,,,,,,,,,,,,737.3270530011505,None,,,,,,,,,,,,,,,,,voice,silent,white,5,68,348,731.0772616006434,None,731.0772616006434,None,4,4.09895440004766,731.0772616006434,None,735.2189617007971,None,735.7432609014213,None,735.7432609014213,None,f,1.5527912005782127,735.7432609014213,None,,,NC36,001,2022_Apr_12_1050,ProdSingRedo,3.2.3,59.733124553138595,
,,,,6,0,6,0,,,,,,,,,,,,,,,,,,,,,,,,741.6962263006717,None,,,,,,,,,,,,,,,,,session,aloud,white,6,41,281,737.8481963016093,None,737.8481963016093,None,6,2.167925000190735,737.8481963016093,None,740.0564155001193,None,740.5797926001251,None,740.5797926001251,None,r,1.0845806989818811,740.5797926001251,None,,,NC36,001,2022_Apr_12_1050,ProdSingRedo,3.2.3,59.733124553138595,
,,,,7,0,7,0,,,,,,,,,,,,,,,,,,,,,,,,748.3378951009363,None,,,,,,,,,,,,,,,,,scene,new_c,white,7,152,273,742.2235883008689,None,742.2235883008689,None,3,2.9205019995570183,742.2235883008689,None,745.1958894003183,None,745.7161219008267,None,745.7161219008267,None,f,2.596229700371623,745.7161219008267,None,,,NC36,001,2022_Apr_12_1050,ProdSingRedo,3.2.3,59.733124553138595,
,,,,8,0,8,0,,,,,,,,,,,,,,,,,,,,,,,,753.5419668015093,None,,,,,,,,,,,,,,,,,committee,new_c,white,8,172,62,748.861907100305,None,748.861907100305,None,5,3.074228199198842,748.861907100305,None,751.9848507009447,None,752.5104470010847,None,752.5104470010847,None,f,0.9934618007391691,752.5104470010847,None,,,NC36,001,2022_Apr_12_1050,ProdSingRedo,3.2.3,59.733124553138595,
,,,,9,0,9,0,,,,,,,,,,,,,,,,,,,,,,,,758.513424500823,None,,,,,,,,,,,,,,,,,treatment,aloud,white,9,45,339,754.0718672014773,None,754.0718672014773,None,6,2.0960158985108137,754.0718672014773,None,756.2121879011393,None,756.7318009007722,None,756.7318009007722,None,r,1.7481776010245085,756.7318009007722,None,,,NC36,001,2022_Apr_12_1050,ProdSingRedo,3.2.3,59.733124553138595,
,,,,10,0,10,0,,,,,,,,,,,,,,,,,,,,,,,,762.2166338004172,None,,,,,,,,,,,,,,,,,clean,sing,white,10,19,51,759.037563001737,None,759.037563001737,None,1,2.250398701056838,759.037563001737,None,761.3331014011055,None,761.8531519006938,None,761.8531519006938,None,n,0.3307889997959137,761.8531519006938,None,,,NC36,001,2022_Apr_12_1050,ProdSingRedo,3.2.3,59.733124553138595,
,,,,11,0,11,0,,,,,,,,,,,,,,,,,,,,,,,,769.7434512004256,None,,,,,,,,,,,,,,,,,edition,new_b,white,11,132,107,762.7414241004735,None,762.7414241004735,None,3,4.058599499985576,762.7414241004735,None,766.8465578015894,None,767.3583800010383,None,767.3583800010383,None,n,2.35365810059011,767.3583800010383,None,,,NC36,001,2022_Apr_12_1050,ProdSingRedo,3.2.3,59.733124553138595,
,,,,12,0,12,0,,,,,,,,,,,,,,,,,,,,,,,,773.2789131011814,None,,,,,,,,,,,,,,,,,junior,aloud,white,12,44,167,770.2712383009493,None,770.2712383009493,None,6,2.2726709991693497,770.2712383009493,None,772.5961995013058,None,773.1147465016693,None,773.1147465016693,None,r,0.13328969851136208,773.1147465016693,None,,,NC36,001,2022_Apr_12_1050,ProdSingRedo,3.2.3,59.733124553138595,
,,,,13,0,13,0,,,,,,,,,,,,,,,,,,,,,,,,778.5480642002076,None,,,,,,,,,,,,,,,,,afternoon,aloud,white,13,56,3,773.8068181015551,None,773.8068181015551,None,2,3.6973266005516052,773.8068181015551,None,777.5445752013475,None,778.0709569007158,None,778.0709569007158,None,f,0.44893929921090603,778.0709569007158,None,,,NC36,001,2022_Apr_12_1050,ProdSingRedo,3.2.3,59.733124553138595,
,,,,14,0,14,0,,,,,,,,,,,,,,,,,,,,,,,,783.7736247014254,None,,,,,,,,,,,,,,,,,mechanical,new_b,white,14,149,185,779.0775343012065,None,779.0775343012065,None,1,2.938518999144435,779.0775343012065,None,782.0730787999928,None,782.5952735003084,None,782.5952735003084,None,n,1.148726999759674,782.5952735003084,None,,,NC36,001,2022_Apr_12_1050,ProdSingRedo,3.2.3,59.733124553138595,
,,,,15,0,15,0,,,,,,,,,,,,,,,,,,,,,,,,788.6614616010338,None,,,,,,,,,,,,,,,,,beginning,new_b,white,15,138,19,784.2999558001757,None,784.2999558001757,None,2,2.5241122003644705,784.2999558001757,None,786.8788614012301,None,787.4013408012688,None,787.4013408012688,None,n,1.230595599859953,787.4013408012688,None,,,NC36,001,2022_Apr_12_1050,ProdSingRedo,3.2.3,59.733124553138595,
,,,,16,0,16,0,,,,,,,,,,,,,,,,,,,,,,,,795.0534161999822,None,,,,,,,,,,,,,,,,,swift,new_c,white,16,157,320,789.1867970004678,None,789.1867970004678,None,1,4.677158500999212,789.1867970004678,None,793.9163144007325,None,794.4382500015199,None,794.4382500015199,None,n,0.5856464002281427,794.4382500015199,None,,,NC36,001,2022_Apr_12_1050,ProdSingRedo,3.2.3,59.733124553138595,
,,,,17,0,17,0,,,,,,,,,,,,,,,,,,,,,,,,798.7045699004084,None,,,,,,,,,,,,,,,,,individual,silent,white,17,79,160,795.5796295013279,None,795.5796295013279,None,6,2.18022090010345,795.5796295013279,None,797.8021076004952,None,798.3325785007328,None,798.3325785007328,None,r,0.34747339971363544,798.3325785007328,None,,,NC36,001,2022_Apr_12_1050,ProdSingRedo,3.2.3,59.733124553138595,
,,,,18,0,18,0,,,,,,,,,,,,,,,,,,,,,,,,803.3253746014088,None,,,,,,,,,,,,,,,,,grade,sing,white,18,16,140,799.232893301174,None,799.232893301174,None,4,2.583032401278615,799.232893301174,None,801.8526139017195,None,802.3787646014243,None,802.3787646014243,None,f,0.9093143008649349,802.3787646014243,None,,,NC36,001,2022_Apr_12_1050,ProdSingRedo,3.2.3,59.733124553138595,
,,,,19,0,19,0,,,,,,,,,,,,,,,,,,,,,,,,807.1532811000943,None,,,,,,,,,,,,,,,,,budget,new_c,white,19,176,34,803.8553069010377,None,803.8553069010377,None,6,2.2726786993443966,803.8553069010377,None,806.1840567011386,None,806.6860245000571,None,806.6860245000571,None,r,0.44139290042221546,806.6860245000571,None,,,NC36,001,2022_Apr_12_1050,ProdSingRedo,3.2.3,59.733124553138595,
,,,,20,0,20,0,,,,,,,,,,,,,,,,,,,,,,,,810.9194132015109,None,,,,,,,,,,,,,,,,,light,silent,white,20,87,171,807.6698015015572,None,807.6698015015572,None,1,2.3936852999031544,807.6698015015572,None,810.0966191012412,None,810.620789501816,None,810.620789501816,None,n,0.2671042997390032,810.620789501816,None,,,NC36,001,2022_Apr_12_1050,ProdSingRedo,3.2.3,59.733124553138595,
,,,,21,0,21,0,,,,,,,,,,,,,,,,,,,,,,,,816.5717214010656,None,,,,,,,,,,,,,,,,,review,aloud,white,21,52,263,811.4470710009336,None,811.4470710009336,None,3,2.9208770003169775,811.4470710009336,None,814.4177540000528,None,814.9428534004837,None,814.9428534004837,None,f,1.5930755995213985,814.9428534004837,None,,,NC36,001,2022_Apr_12_1050,ProdSingRedo,3.2.3,59.733124553138595,
,,,,22,0,22,0,,,,,,,,,,,,,,,,,,,,,,,,820.1623438000679,None,,,,,,,,,,,,,,,,,evidence,silent,white,22,65,120,817.1013232003897,None,817.1013232003897,None,6,2.1705197002738714,817.1013232003897,None,819.3254658002406,None,819.8465243000537,None,819.8465243000537,None,r,0.2812617998570204,819.8465243000537,None,,,NC36,001,2022_Apr_12_1050,ProdSingRedo,3.2.3,59.733124553138595,
,,,,23,0,23,0,,,,,,,,,,,,,,,,,,,,,,,,824.0802999008447,None,,,,,,,,,,,,,,,,,leader,silent,white,23,66,168,820.6847147010267,None,820.6847147010267,None,4,2.715183800086379,820.6847147010267,None,823.4439035002142,None,823.9562355000526,None,823.9562355000526,None,f,0.08372610062360764,823.9562355000526,None,,,NC36,001,2022_Apr_12_1050,ProdSingRedo,3.2.3,59.733124553138595,
,,,,24,0,24,0,,,,,,,,,,,,,,,,,,,,,,,,827.4958594013005,None,,,,,,,,,,,,,,,,,industry,sing,white,24,4,161,824.6117596011609,None,824.6117596011609,None,6,2.2840889003127813,824.6117596011609,None,826.943257201463,None,827.4682770017534,None,827.4682770017534,None,r,0.011291800066828728,827.4682770017534,None,,,NC36,001,2022_Apr_12_1050,ProdSingRedo,3.2.3,59.733124553138595,
,,,,25,0,25,0,,,,,,,,,,,,,,,,,,,,,,,,831.2874230016023,None,,,,,,,,,,,,,,,,,signal,aloud,white,25,58,287,828.0270145013928,None,828.0270145013928,None,3,2.460895299911499,828.0270145013928,None,830.5428698007017,None,831.0599963013083,None,831.0599963013083,None,n,0.19590120017528534,831.0599963013083,None,,,NC36,001,2022_Apr_12_1050,ProdSingRedo,3.2.3,59.733124553138595,
,,,,26,0,26,0,,,,,,,,,,,,,,,,,,,,,,,,834.9388495013118,None,,,,,,,,,,,,,,,,,point,new_b,white,26,124,226,831.8098036013544,None,831.8098036013544,None,1,2.358142299577594,831.8098036013544,None,834.220021000132,None,834.7411421015859,None,834.7411421015859,None,n,0.16272719949483871,834.7411421015859,None,,,NC36,001,2022_Apr_12_1050,ProdSingRedo,3.2.3,59.733124553138595,
,,,,27,0,27,0,,,,,,,,,,,,,,,,,,,,,,,,837.8669860009104,None,,,,,,,,,,,,,,,,,territory,sing,white,27,6,324,835.4684492014349,None,835.4684492014349,None,6,1.8114196993410587,835.4684492014349,None,837.3226648010314,None,837.8337696008384,None,837.8337696008384,None,r,0.013566501438617706,837.8337696008384,None,,,NC36,001,2022_Apr_12_1050,ProdSingRedo,3.2.3,59.733124553138595,
,,,,28,0,28,0,,,,,,,,,,,,,,,,,,,,,,,,842.7801639009267,None,,,,,,,,,,,,,,,,,throw,new_a,white,28,114,330,838.367856901139,None,838.367856901139,None,4,2.7999859005212784,838.367856901139,None,841.2069033011794,None,841.7308844011277,None,841.7308844011277,None,f,1.0130653996020555,841.7308844011277,None,,,NC36,001,2022_Apr_12_1050,ProdSingRedo,3.2.3,59.733124553138595,
,,,,29,0,29,0,,,,,,,,,,,,,,,,,,,,,,,,846.0339911002666,None,,,,,,,,,,,,,,,,,track,new_b,white,29,130,334,843.310714000836,None,843.310714000836,None,4,2.0969966016709805,843.310714000836,None,845.4471448007971,None,845.9731825012714,None,845.9731825012714,None,f,0.026308201253414154,845.9731825012714,None,,,NC36,001,2022_Apr_12_1050,ProdSingRedo,3.2.3,59.733124553138595,
,,,,30,0,30,0,,,,,,,,,,,,,,,,,,,,,,,,853.2435397002846,None,,,,,,,,,,,,,,,,,ground,new_c,white,30,178,142,846.5672668013722,None,846.5672668013722,None,5,4.672216599807143,846.5672668013722,None,851.2865861002356,None,851.8115562014282,None,851.8115562014282,None,f,1.4041399005800486,851.8115562014282,None,,,NC36,001,2022_Apr_12_1050,ProdSingRedo,3.2.3,59.733124553138595,
,,,,31,0,31,0,,,,,,,,,,,,,,,,,,,,,,,,858.9640646018088,None,,,,,,,,,,,,,,,,,debate,aloud,white,31,42,87,853.7736739013344,None,853.7736739013344,None,6,1.9941460993140936,853.7736739013344,None,855.8121225014329,None,856.3308199010789,None,856.3308199010789,None,r,2.597060300409794,856.3308199010789,None,,,NC36,001,2022_Apr_12_1050,ProdSingRedo,3.2.3,59.733124553138595,
,,,,32,0,32,0,,,,,,,,,,,,,,,,,,,,,,,,863.9186261016876,None,,,,,,,,,,,,,,,,,rough,silent,white,32,81,266,859.4924813006073,None,859.4924813006073,None,4,3.0433467011898756,859.4924813006073,None,862.5773381013423,None,863.1044413000345,None,863.1044413000345,None,f,0.7756249997764826,863.1044413000345,None,,,NC36,001,2022_Apr_12_1050,ProdSingRedo,3.2.3,59.733124553138595,
,,,,33,0,33,0,,,,,,,,,,,,,,,,,,,,,,,,869.1742541007698,None,,,,,,,,,,,,,,,,,report,new_b,white,33,123,259,864.4422305002809,None,864.4422305002809,None,2,2.925670498982072,864.4422305002809,None,867.4157296009362,None,867.9384475015104,None,867.9384475015104,None,f,1.1973618008196354,867.9384475015104,None,,,NC36,001,2022_Apr_12_1050,ProdSingRedo,3.2.3,59.733124553138595,
,,,,34,0,34,0,,,,,,,,,,,,,,,,,,,,,,,,874.0126753002405,None,,,,,,,,,,,,,,,,,short,new_a,white,34,110,285,869.6973511017859,None,869.6973511017859,None,3,2.5823730006814003,869.6973511017859,None,872.3223385009915,None,872.8423361014575,None,872.8423361014575,None,f,1.1415133997797966,872.8423361014575,None,,,NC36,001,2022_Apr_12_1050,ProdSingRedo,3.2.3,59.733124553138595,
,,,,35,0,35,0,,,,,,,,,,,,,,,,,,,,,,,,878.5479322001338,None,,,,,,,,,,,,,,,,,congress,new_a,white,35,106,67,874.5387551002204,None,874.5387551002204,None,1,3.149030400440097,874.5387551002204,None,877.7348734010011,None,878.2561131007969,None,878.2561131007969,None,n,0.25540100038051605,878.2561131007969,None,,,NC36,001,2022_Apr_12_1050,ProdSingRedo,3.2.3,59.733124553138595,
,,,,36,0,36,0,,,,,,,,,,,,,,,,,,,,,,,,882.0777201000601,None,,,,,,,,,,,,,,,,,patient,new_b,white,36,129,213,879.078264400363,None,879.078264400363,None,5,1.953533299267292,879.078264400363,None,881.0852217003703,None,881.6015899013728,None,881.6015899013728,None,f,0.44562890008091927,881.6015899013728,None,,,NC36,001,2022_Apr_12_1050,ProdSingRedo,3.2.3,59.733124553138595,
,,,,37,0,37,0,,,,,,,,,,,,,,,,,,,,,,,,885.8755218014121,None,,,,,,,,,,,,,,,,,brief,sing,white,37,14,28,882.578485801816,None,882.578485801816,None,6,2.5174886994063854,882.578485801816,None,885.1441541016102,None,885.6650333013386,None,885.6650333013386,None,r,0.1746899001300335,885.6650333013386,None,,,NC36,001,2022_Apr_12_1050,ProdSingRedo,3.2.3,59.733124553138595,
,,,,38,0,38,0,,,,,,,,,,,,,,,,,,,,,,,,889.4427853003144,None,,,,,,,,,,,,,,,,,series,new_b,white,38,127,279,886.3977838009596,None,886.3977838009596,None,3,2.2743846997618675,886.3977838009596,None,888.7224402017891,None,889.2435420006514,None,889.2435420006514,None,f,0.16417979821562767,889.2435420006514,None,,,NC36,001,2022_Apr_12_1050,ProdSingRedo,3.2.3,59.733124553138595,
,,,,39,0,39,0,,,,,,,,,,,,,,,,,,,,,,,,893.7506129015237,None,,,,,,,,,,,,,,,,,answer,silent,white,39,70,8,889.9722999017686,None,889.9722999017686,None,2,2.859869100153446,889.9722999017686,None,892.8749719001353,None,893.4008993003517,None,893.4008993003517,None,f,0.3188281003385782,893.4008993003517,None,,,NC36,001,2022_Apr_12_1050,ProdSingRedo,3.2.3,59.733124553138595,
,,,,40,0,40,0,,,,,,,,,,,,,,,,,,,,,,,,897.1428196001798,None,,,,,,,,,,,,,,,,,conference,silent,white,40,76,66,894.2754422016442,None,894.2754422016442,None,6,1.9563228003680706,894.2754422016442,None,896.2840865012258,None,896.79262740165,None,896.79262740165,None,r,0.33461569994688034,896.79262740165,None,,,NC36,001,2022_Apr_12_1050,ProdSingRedo,3.2.3,59.733124553138595,
,,,,41,0,41,0,,,,,,,,,,,,,,,,,,,,,,,,902.1413146015257,None,,,,,,,,,,,,,,,,,problem,new_c,white,41,168,238,897.6624349001795,None,897.6624349001795,None,6,2.8812971003353596,897.6624349001795,None,900.5889550000429,None,901.109918801114,None,901.109918801114,None,f,1.0017910990864038,901.109918801114,None,,,NC36,001,2022_Apr_12_1050,ProdSingRedo,3.2.3,59.733124553138595,
,,,,42,0,42,0,,,,,,,,,,,,,,,,,,,,,,,,906.1253046002239,None,,,,,,,,,,,,,,,,,government,aloud,white,42,31,139,902.6722784005105,None,902.6722784005105,None,6,2.7755832001566887,902.6722784005105,None,905.4941106010228,None,906.0137502010912,None,906.0137502010912,None,r,0.07380110025405884,906.0137502010912,None,,,NC36,001,2022_Apr_12_1050,ProdSingRedo,3.2.3,59.733124553138595,
,,,,43,0,43,0,,,,,,,,,,,,,,,,,,,,,,,,910.7824290003628,None,,,,,,,,,,,,,,,,,quarter,silent,white,43,69,246,906.6581147015095,None,906.6581147015095,None,4,2.3657967001199722,906.6581147015095,None,909.0841143000871,None,909.6008050013334,None,909.6008050013334,None,f,1.1429034005850554,909.6008050013334,None,,,NC36,001,2022_Apr_12_1050,ProdSingRedo,3.2.3,59.733124553138595,
,,,,44,0,44,0,,,,,,,,,,,,,,,,,,,,,,,,914.1690958011895,None,,,,,,,,,,,,,,,,,tennis,aloud,white,44,32,323,911.3058704007417,None,911.3058704007417,None,6,1.7499113995581865,911.3058704007417,None,913.1032230015844,None,913.6179546006024,None,913.6179546006024,None,r,0.5263528004288673,913.6179546006024,None,,,NC36,001,2022_Apr_12_1050,ProdSingRedo,3.2.3,59.733124553138595,
,,,,45,0,45,0,,,,,,,,,,,,,,,,,,,,,,,,919.5622269008309,None,,,,,,,,,,,,,,,,,platform,new_c,white,45,166,224,914.7038400005549,None,914.7038400005549,None,4,3.135811099782586,914.7038400005549,None,917.8973214011639,None,918.4121969006956,None,918.4121969006956,None,f,1.11552320048213,918.4121969006956,None,,,NC36,001,2022_Apr_12_1050,ProdSingRedo,3.2.3,59.733124553138595,
,,,,46,0,46,0,,,,,,,,,,,,,,,,,,,,,,,,923.1685441005975,None,,,,,,,,,,,,,,,,,listen,sing,white,46,10,172,920.0809750016779,None,920.0809750016779,None,6,2.0865106992423534,920.0809750016779,None,922.2035873010755,None,922.7277181018144,None,922.7277181018144,None,r,0.3999500013887882,922.7277181018144,None,,,NC36,001,2022_Apr_12_1050,ProdSingRedo,3.2.3,59.733124553138595,
,,,,47,0,47,0,,,,,,,,,,,,,,,,,,,,,,,,927.6329099014401,None,,,,,,,,,,,,,,,,,still,new_a,white,47,108,304,923.6833073999733,None,923.6833073999733,None,1,2.6124294009059668,923.6833073999733,None,926.3420881014317,None,926.8562545012683,None,926.8562545012683,None,n,0.7514217011630535,926.8562545012683,None,,,NC36,001,2022_Apr_12_1050,ProdSingRedo,3.2.3,59.733124553138595,
,,,,48,0,48,0,,,,,,,,,,,,,,,,,,,,,,,,931.7205552011728,None,,,,,,,,,,,,,,,,,quiet,silent,white,48,61,249,928.1614408008754,None,928.1614408008754,None,1,2.222368899732828,928.1614408008754,None,930.4310926999897,None,930.9546930007637,None,930.9546930007637,None,n,0.7411586008965969,930.9546930007637,None,,,NC36,001,2022_Apr_12_1050,ProdSingRedo,3.2.3,59.733124553138595,
,,,,49,0,49,0,,,,,,,,,,,,,,,,,,,,,,,,935.0390413999557,None,,,,,,,,,,,,,,,,,plane,new_a,white,49,116,223,932.2286480013281,None,932.2286480013281,None,3,2.091075699776411,932.2286480013281,None,934.3705995008349,None,934.891724999994,None,934.891724999994,None,f,0.10806179977953434,934.891724999994,None,,,NC36,001,2022_Apr_12_1050,ProdSingRedo,3.2.3,59.733124553138595,
,,,,50,0,50,0,,,,,,,,,,,,,,,,,,,,,,,,939.4610012006015,None,,,,,,,,,,,,,,,,,tough,new_c,white,50,160,333,935.5672625005245,None,935.5672625005245,None,3,3.016134198755026,935.5672625005245,None,938.6205197013915,None,939.1353584006429,None,939.1353584006429,None,f,0.2884183004498482,939.1353584006429,None,,,NC36,001,2022_Apr_12_1050,ProdSingRedo,3.2.3,59.733124553138595,
,,,,51,0,51,0,,,,,,,,,,,,,,,,,,,,,,,,947.069074600935,None,,,,,,,,,,,,,,,,,taste,silent,white,51,83,322,939.9888441003859,None,939.9888441003859,None,6,2.930781699717045,939.9888441003859,None,942.9629852008075,None,943.486327400431,None,943.486327400431,None,r,3.5537072010338306,943.486327400431,None,,,NC36,001,2022_Apr_12_1050,ProdSingRedo,3.2.3,59.733124553138595,
,,,,52,0,52,0,,,,,,,,,,,,,,,,,,,,,,,,950.8379332013428,None,,,,,,,,,,,,,,,,,husband,new_b,white,52,122,156,947.600429000333,None,947.600429000333,None,1,2.535171600058675,947.600429000333,None,950.1923969015479,None,950.7098451014608,None,950.7098451014608,None,n,0.09022380039095879,950.7098451014608,None,,,NC36,001,2022_Apr_12_1050,ProdSingRedo,3.2.3,59.733124553138595,
,,,,53,0,53,0,,,,,,,,,,,,,,,,,,,,,,,,954.7923034001142,None,,,,,,,,,,,,,,,,,dispute,new_c,white,53,162,99,951.3642175011337,None,951.3642175011337,None,3,2.803431199863553,951.3642175011337,None,954.2089206017554,None,954.7264807000756,None,954.7264807000756,None,f,0.033163201063871384,954.7264807000756,None,,,NC36,001,2022_Apr_12_1050,ProdSingRedo,3.2.3,59.733124553138595,
,,,,54,0,54,0,,,,,,,,,,,,,,,,,,,,,,,,957.8282077014446,None,,,,,,,,,,,,,,,,,group,new_b,white,54,147,143,955.3200974017382,None,955.3200974017382,None,4,1.8070154003798962,955.3200974017382,None,957.1566383000463,None,957.682026900351,None,957.682026900351,None,f,0.11760079860687256,957.682026900351,None,,,NC36,001,2022_Apr_12_1050,ProdSingRedo,3.2.3,59.733124553138595,
,,,,55,0,55,0,,,,,,,,,,,,,,,,,,,,,,,,961.3862138018012,None,,,,,,,,,,,,,,,,,search,silent,white,55,80,276,958.354595001787,None,958.354595001787,None,4,2.3490206003189087,958.354595001787,None,960.7490456011146,None,961.2681752014905,None,961.2681752014905,None,f,0.075390899553895,961.2681752014905,None,,,NC36,001,2022_Apr_12_1050,ProdSingRedo,3.2.3,59.733124553138595,
,,,,56,0,56,0,,,,,,,,,,,,,,,,,,,,,,,,966.2384797018021,None,,,,,,,,,,,,,,,,,interview,silent,white,56,86,165,961.9155213013291,None,961.9155213013291,None,6,2.7000911999493837,961.9155213013291,None,964.6702133007348,None,965.1943389009684,None,965.1943389009684,None,r,1.0052526015788317,965.1943389009684,None,,,NC36,001,2022_Apr_12_1050,ProdSingRedo,3.2.3,59.733124553138595,
,,,,57,0,57,0,,,,,,,,,,,,,,,,,,,,,,,,971.0263452008367,None,,,,,,,,,,,,,,,,,trash,new_a,white,57,104,337,966.7618309017271,None,966.7618309017271,None,3,2.4056940991431475,966.7618309017271,None,969.2114124000072,None,969.7246342003345,None,969.7246342003345,None,f,1.2749288007616997,969.7246342003345,None,,,NC36,001,2022_Apr_12_1050,ProdSingRedo,3.2.3,59.733124553138595,
,,,,58,0,58,0,,,,,,,,,,,,,,,,,,,,,,,,975.0610555000603,None,,,,,,,,,,,,,,,,,interior,new_a,white,58,95,164,971.552267100662,None,971.552267100662,None,3,2.895285999402404,971.552267100662,None,974.4921548999846,None,975.0157874003053,None,975.0157874003053,None,f,0.015725700184702873,975.0157874003053,None,,,NC36,001,2022_Apr_12_1050,ProdSingRedo,3.2.3,59.733124553138595,
,,,,59,0,59,0,,,,,,,,,,,,,,,,,,,,,,,,979.1490317005664,None,,,,,,,,,,,,,,,,,crowd,aloud,white,59,39,81,975.5894001014531,None,975.5894001014531,None,3,2.6663939990103245,975.5894001014531,None,978.303133001551,None,978.8186333011836,None,978.8186333011836,None,f,0.3009069003164768,978.8186333011836,None,,,NC36,001,2022_Apr_12_1050,ProdSingRedo,3.2.3,59.733124553138595,
,,,,60,0,60,0,,,,,,,,,,,,,,,,,,,,,,,,982.9719521012157,None,,,,,,,,,,,,,,,,,drove,aloud,white,60,55,106,979.6781104002148,None,979.6781104002148,None,6,1.8973102997988462,979.6781104002148,None,981.6078550014645,None,982.1211092006415,None,982.1211092006415,None,r,0.8224452007561922,982.1211092006415,None,,,NC36,001,2022_Apr_12_1050,ProdSingRedo,3.2.3,59.733124553138595,
,,,,61,0,61,0,,,,,,,,,,,,,,,,,,,,,,,,987.5408827010542,None,,,,,,,,,,,,,,,,,broke,silent,white,61,88,32,983.5026846006513,None,983.5026846006513,None,1,2.6005402989685535,983.5026846006513,None,986.1395187005401,None,986.6490268018097,None,986.6490268018097,None,n,0.8625129014253616,986.6490268018097,None,,,NC36,001,2022_Apr_12_1050,ProdSingRedo,3.2.3,59.733124553138595,
,,,,62,0,62,0,,,,,,,,,,,,,,,,,,,,,,,,991.4114911016077,None,,,,,,,,,,,,,,,,,institute,new_a,white,62,103,162,988.0717330016196,None,988.0717330016196,None,4,2.6074783001095057,988.0717330016196,None,990.7270332016051,None,991.2522866018116,None,991.2522866018116,None,f,0.12330569885671139,991.2522866018116,None,,,NC36,001,2022_Apr_12_1050,ProdSingRedo,3.2.3,59.733124553138595,
,,,,63,0,63,0,,,,,,,,,,,,,,,,,,,,,,,,994.8500936999917,None,,,,,,,,,,,,,,,,,music,aloud,white,63,51,196,991.9401070009917,None,991.9401070009917,None,4,1.955459799617529,991.9401070009917,None,993.9431047011167,None,994.4684455003589,None,994.4684455003589,None,f,0.3471670001745224,994.4684455003589,None,,,NC36,001,2022_Apr_12_1050,ProdSingRedo,3.2.3,59.733124553138595,
,,,,64,0,64,0,,,,,,,,,,,,,,,,,,,,,,,,998.6211728006601,None,,,,,,,,,,,,,,,,,quick,silent,white,64,77,248,995.3773341011256,None,995.3773341011256,None,1,2.446263099089265,995.3773341011256,None,997.8683629017323,None,998.3933229018003,None,998.3933229018003,None,n,0.19021910056471825,998.3933229018003,None,,,NC36,001,2022_Apr_12_1050,ProdSingRedo,3.2.3,59.733124553138595,
,,,,65,0,65,0,,,,,,,,,,,,,,,,,,,,,,,,1002.4240744002163,None,,,,,,,,,,,,,,,,,candidate,aloud,white,65,59,39,999.1548047009856,None,999.1548047009856,None,6,2.0208755005151033,999.1548047009856,None,1001.2265678010881,None,1001.7446937002242,None,1001.7446937002242,None,r,0.6548350993543863,1001.7446937002242,None,,,NC36,001,2022_Apr_12_1050,ProdSingRedo,3.2.3,59.733124553138595,
,,,,66,0,66,0,,,,,,,,,,,,,,,,,,,,,,,,1007.685629600659,None,,,,,,,,,,,,,,,,,split,sing,white,66,3,299,1002.9446702003479,None,1002.9446702003479,None,6,4.04628779925406,1002.9446702003479,None,1007.0190510004759,None,1007.5419112015516,None,1007.5419112015516,None,r,0.09750190004706383,1007.5419112015516,None,,,NC36,001,2022_Apr_12_1050,ProdSingRedo,3.2.3,59.733124553138595,
,,,,67,0,67,0,,,,,,,,,,,,,,,,,,,,,,,,1010.9989744015038,None,,,,,,,,,,,,,,,,,corner,silent,white,67,63,69,1008.2012056000531,None,1008.2012056000531,None,2,1.93413669988513,1008.2012056000531,None,1010.1746221017092,None,1010.6956764999777,None,1010.6956764999777,None,f,0.2637916002422571,1010.6956764999777,None,,,NC36,001,2022_Apr_12_1050,ProdSingRedo,3.2.3,59.733124553138595,
,,,,68,0,68,0,,,,,,,,,,,,,,,,,,,,,,,,1013.9506825003773,None,,,,,,,,,,,,,,,,,direction,silent,white,68,73,94,1011.5213011000305,None,1011.5213011000305,None,6,1.4781072996556759,1011.5213011000305,None,1013.0458089001477,None,1013.5671400018036,None,1013.5671400018036,None,r,0.36036909930408,1013.5671400018036,None,,,NC36,001,2022_Apr_12_1050,ProdSingRedo,3.2.3,59.733124553138595,
,,,,69,0,69,0,,,,,,,,,,,,,,,,,,,,,,,,1016.7455864008516,None,,,,,,,,,,,,,,,,,alert,aloud,white,69,57,6,1014.4776319004595,None,1014.4776319004595,None,6,1.6579973008483648,1014.4776319004595,None,1016.1846672017127,None,1016.6955284010619,None,1016.6955284010619,None,r,0.023519199341535568,1016.6955284010619,None,,,NC36,001,2022_Apr_12_1050,ProdSingRedo,3.2.3,59.733124553138595,
,,,,70,0,70,0,,,,,,,,,,,,,,,,,,,,,,,,1021.1922063007951,None,,,,,,,,,,,,,,,,,pancakes,aloud,white,70,49,210,1017.2461176011711,None,1017.2461176011711,None,6,3.025415100157261,1017.2461176011711,None,1020.3291458003223,None,1020.8492374010384,None,1020.8492374010384,None,r,0.3102454002946615,1020.8492374010384,None,,,NC36,001,2022_Apr_12_1050,ProdSingRedo,3.2.3,59.733124553138595,
,,,,71,0,71,0,,,,,,,,,,,,,,,,,,,,,,,,1024.0605405010283,None,,,,,,,,,,,,,,,,,owner,aloud,white,71,46,208,1021.7170344013721,None,1021.7170344013721,None,6,1.6824605017900467,1021.7170344013721,None,1023.4383745007217,None,1023.9613764006644,None,1023.9613764006644,None,r,0.07012080028653145,1023.9613764006644,None,,,NC36,001,2022_Apr_12_1050,ProdSingRedo,3.2.3,59.733124553138595,
,,,,72,0,72,0,,,,,,,,,,,,,,,,,,,,,,,,1028.1973328012973,None,,,,,,,,,,,,,,,,,piece,sing,white,72,15,221,1024.5838743001223,None,1024.5838743001223,None,4,2.4075774997472763,1024.5838743001223,None,1027.0368390008807,None,1027.549662001431,None,1027.549662001431,None,f,0.6098702996969223,1027.549662001431,None,,,NC36,001,2022_Apr_12_1050,ProdSingRedo,3.2.3,59.733124553138595,
,,,,73,0,73,0,,,,,,,,,,,,,,,,,,,,,,,,1031.4693128000945,None,,,,,,,,,,,,,,,,,guide,new_b,white,73,121,147,1028.724269701168,None,1028.724269701168,None,3,1.9152359012514353,1028.724269701168,None,1030.6828199010342,None,1031.2052034009248,None,1031.2052034009248,None,f,0.22638819925487041,1031.2052034009248,None,,,NC36,001,2022_Apr_12_1050,ProdSingRedo,3.2.3,59.733124553138595,
,,,,74,0,74,0,,,,,,,,,,,,,,,,,,,,,,,,1034.0470437016338,None,,,,,,,,,,,,,,,,,store,new_b,white,74,146,305,1031.9935318008065,None,1031.9935318008065,None,3,1.4698569998145103,1031.9935318008065,None,1033.5012811999768,None,1034.0157884005457,None,1034.0157884005457,None,f,0.015358099713921547,1034.0157884005457,None,,,NC36,001,2022_Apr_12_1050,ProdSingRedo,3.2.3,59.733124553138595,
,,,,75,0,75,0,,,,,,,,,,,,,,,,,,,,,,,,1037.325775301084,None,,,,,,,,,,,,,,,,,pretty,new_b,white,75,133,233,1034.56215230003,None,1034.56215230003,None,1,1.813408201560378,1034.56215230003,None,1036.4220708999783,None,1036.9446181003004,None,1036.9446181003004,None,n,0.3509160000830889,1036.9446181003004,None,,,NC36,001,2022_Apr_12_1050,ProdSingRedo,3.2.3,59.733124553138595,
,,,,76,0,76,0,,,,,,,,,,,,,,,,,,,,,,,,1040.100980501622,None,,,,,,,,,,,,,,,,,guest,sing,white,76,8,146,1037.8512152004987,None,1037.8512152004987,None,1,1.5642289984971285,1037.8512152004987,None,1039.4573859013617,None,1039.9821577016264,None,1039.9821577016264,None,n,0.07333349995315075,1039.9821577016264,None,,,NC36,001,2022_Apr_12_1050,ProdSingRedo,3.2.3,59.733124553138595,
,,,,77,0,77,0,,,,,,,,,,,,,,,,,,,,,,,,1043.9647096004337,None,,,,,,,,,,,,,,,,,damage,new_c,white,77,179,83,1040.621306201443,None,1040.621306201443,None,6,1.577853299677372,1040.621306201443,None,1042.2328609004617,None,1042.7499301005155,None,1042.7499301005155,None,r,1.185555700212717,1042.7499301005155,None,,,NC36,001,2022_Apr_12_1050,ProdSingRedo,3.2.3,59.733124553138595,
,,,,78,0,78,0,,,,,,,,,,,,,,,,,,,,,,,,1046.97590640001,None,,,,,,,,,,,,,,,,,personnel,aloud,white,78,36,219,1044.4882774017751,None,1044.4882774017751,None,6,1.5752422008663416,1044.4882774017751,None,1046.109362501651,None,1046.608555501327,None,1046.608555501327,None,r,0.35045489855110645,1046.608555501327,None,,,NC36,001,2022_Apr_12_1050,ProdSingRedo,3.2.3,59.733124553138595,
,,,,79,0,79,0,,,,,,,,,,,,,,,,,,,,,,,,1050.3781554009765,None,,,,,,,,,,,,,,,,,minor,new_a,white,79,93,191,1047.4902533013374,None,1047.4902533013374,None,4,2.1812315993010998,1047.4902533013374,None,1049.710730701685,None,1050.2226462010294,None,1050.2226462010294,None,f,0.12076829932630062,1050.2226462010294,None,,,NC36,001,2022_Apr_12_1050,ProdSingRedo,3.2.3,59.733124553138595,
,,,,80,0,80,0,,,,,,,,,,,,,,,,,,,,,,,,1054.4085816014558,None,,,,,,,,,,,,,,,,,bucket,new_b,white,80,126,33,1050.9018616005778,None,1050.9018616005778,None,4,1.5216247010976076,1050.9018616005778,None,1052.4712865017354,None,1052.997078800574,None,1052.997078800574,None,f,1.3783343993127346,1052.997078800574,None,,,NC36,001,2022_Apr_12_1050,ProdSingRedo,3.2.3,59.733124553138595,
,,,,81,0,81,0,,,,,,,,,,,,,,,,,,,,,,,,1057.3527820017189,None,,,,,,,,,,,,,,,,,majority,aloud,white,81,54,176,1054.936515700072,None,1054.936515700072,None,6,1.7509475983679295,1054.936515700072,None,1056.7422649003565,None,1057.2664000000805,None,1057.2664000000805,None,r,0.06865449994802475,1057.2664000000805,None,,,NC36,001,2022_Apr_12_1050,ProdSingRedo,3.2.3,59.733124553138595,
,,,,82,0,82,0,,,,,,,,,,,,,,,,,,,,,,,,1060.7820697017014,None,,,,,,,,,,,,,,,,,scale,new_c,white,82,165,272,1057.8748655002564,None,1057.8748655002564,None,4,2.1884470004588366,1057.8748655002564,None,1060.1137668006122,None,1060.630686800927,None,1060.630686800927,None,f,0.112839600071311,1060.630686800927,None,,,NC36,001,2022_Apr_12_1050,ProdSingRedo,3.2.3,59.733124553138595,
,,,,83,0,83,0,,,,,,,,,,,,,,,,,,,,,,,,1064.8181642014533,None,,,,,,,,,,,,,,,,,disease,new_c,white,83,155,97,1061.311678301543,None,1061.311678301543,None,6,2.4959546998143196,1061.311678301543,None,1063.8464286010712,None,1064.3728669006377,None,1064.3728669006377,None,r,0.41061910055577755,1064.3728669006377,None,,,NC36,001,2022_Apr_12_1050,ProdSingRedo,3.2.3,59.733124553138595,
,,,,84,0,84,0,,,,,,,,,,,,,,,,,,,,,,,,1067.7383326999843,None,,,,,,,,,,,,,,,,,degree,silent,white,84,85,89,1065.3470783010125,None,1065.3470783010125,None,6,1.636488700285554,1065.3470783010125,None,1067.03730600141,None,1067.5567288007587,None,1067.5567288007587,None,r,0.1549631990492344,1067.5567288007587,None,,,NC36,001,2022_Apr_12_1050,ProdSingRedo,3.2.3,59.733124553138595,
,,,,85,0,85,0,,,,,,,,,,,,,,,,,,,,,,,,1070.80942540057,None,,,,,,,,,,,,,,,,,youth,new_b,white,85,143,359,1068.2469617016613,None,1068.2469617016613,None,1,1.7685008011758327,1068.2469617016613,None,1070.0591630004346,None,1070.5763180013746,None,1070.5763180013746,None,n,0.1990801990032196,1070.5763180013746,None,,,NC36,001,2022_Apr_12_1050,ProdSingRedo,3.2.3,59.733124553138595,
,,,,86,0,86,0,,,,,,,,,,,,,,,,,,,,,,,,1073.7951252013445,None,,,,,,,,,,,,,,,,,cousin,new_b,white,86,125,76,1071.3350565005094,None,1071.3350565005094,None,1,1.552353199571371,1071.3350565005094,None,1072.9415880013257,None,1073.4616408012807,None,1073.4616408012807,None,n,0.30595639906823635,1073.4616408012807,None,,,NC36,001,2022_Apr_12_1050,ProdSingRedo,3.2.3,59.733124553138595,
,,,,87,0,87,0,,,,,,,,,,,,,,,,,,,,,,,,1077.6475170999765,None,,,,,,,,,,,,,,,,,level,new_a,white,87,100,170,1074.31875250116,None,1074.31875250116,None,2,1.9212065991014242,1074.31875250116,None,1076.2774868011475,None,1076.7889881003648,None,1076.7889881003648,None,f,0.8347733002156019,1076.7889881003648,None,,,NC36,001,2022_Apr_12_1050,ProdSingRedo,3.2.3,59.733124553138595,
,,,,88,0,88,0,,,,,,,,,,,,,,,,,,,,,,,,1081.303195901215,None,,,,,,,,,,,,,,,,,opening,silent,white,88,60,205,1078.1732956003398,None,1078.1732956003398,None,1,1.930077899247408,1078.1732956003398,None,1080.1523916013539,None,1080.6697706002742,None,1080.6697706002742,None,n,0.6016105003654957,1080.6697706002742,None,,,NC36,001,2022_Apr_12_1050,ProdSingRedo,3.2.3,59.733124553138595,
,,,,89,0,89,0,,,,,,,,,,,,,,,,,,,,,,,,1084.1708167009056,None,,,,,,,,,,,,,,,,,business,new_c,white,89,154,38,1081.8308038003743,None,1081.8308038003743,None,6,1.5044867005199194,1081.8308038003743,None,1083.3898574002087,None,1083.9129825010896,None,1083.9129825010896,None,r,0.22236539982259274,1083.9129825010896,None,,,NC36,001,2022_Apr_12_1050,ProdSingRedo,3.2.3,59.733124553138595,
,,,,90,0,90,0,,,,,,,,,,,,,,,,,,,,,,,,1087.8772757016122,None,,,,,,,,,,,,,,,,,sleep,new_b,white,90,144,290,1084.692916000262,None,1084.692916000262,None,4,2.5065087005496025,1084.692916000262,None,1087.2374590002,None,1087.7592137008905,None,1087.7592137008905,None,f,0.08826140128076077,1087.7592137008905,None,,,NC36,001,2022_Apr_12_1050,ProdSingRedo,3.2.3,59.733124553138595,
,,,,91,0,91,0,,,,,,,,,,,,,,,,,,,,,,,,1091.676579900086,None,,,,,,,,,,,,,,,,,angle,aloud,white,91,50,7,1088.4030007012188,None,1088.4030007012188,None,6,1.9243020005524158,1088.4030007012188,None,1090.3780828006566,None,1090.8971062004566,None,1090.8971062004566,None,r,0.7421853002160788,1090.8971062004566,None,,,NC36,001,2022_Apr_12_1050,ProdSingRedo,3.2.3,59.733124553138595,
,,,,92,0,92,0,,,,,,,,,,,,,,,,,,,,,,,,1094.5988461002707,None,,,,,,,,,,,,,,,,,generation,sing,white,92,12,136,1092.210302600637,None,1092.210302600637,None,6,1.3250458985567093,1092.210302600637,None,1093.5781370010227,None,1094.1023505013436,None,1094.1023505013436,None,r,0.45692310109734535,1094.1023505013436,None,,,NC36,001,2022_Apr_12_1050,ProdSingRedo,3.2.3,59.733124553138595,
,,,,93,0,93,0,,,,,,,,,,,,,,,,,,,,,,,,1097.351273700595,None,,,,,,,,,,,,,,,,,broad,new_a,white,93,101,31,1095.1268178001046,None,1095.1268178001046,None,1,1.5605832003057003,1095.1268178001046,None,1096.7427795007825,None,1097.256158100441,None,1097.256158100441,None,n,0.06328189931809902,1097.256158100441,None,,,NC36,001,2022_Apr_12_1050,ProdSingRedo,3.2.3,59.733124553138595,
,,,,94,0,94,0,,,,,,,,,,,,,,,,,,,,,,,,1100.8917195014656,None,,,,,,,,,,,,,,,,,production,sing,white,94,0,240,1097.8805102016777,None,1097.8805102016777,None,5,2.366721400991082,1097.8805102016777,None,1100.2866585012525,None,1100.8098230008036,None,1100.8098230008036,None,f,0.045678699389100075,1100.8098230008036,None,,,NC36,001,2022_Apr_12_1050,ProdSingRedo,3.2.3,59.733124553138595,
,,,,95,0,95,0,,,,,,,,,,,,,,,,,,,,,,,,1103.8086913004518,None,,,,,,,,,,,,,,,,,force,aloud,white,95,53,131,1101.4165838006884,None,1101.4165838006884,None,1,1.678778000175953,1101.4165838006884,None,1103.135945700109,None,1103.6607375014573,None,1103.6607375014573,None,n,0.11457889899611473,1103.6607375014573,None,,,NC36,001,2022_Apr_12_1050,ProdSingRedo,3.2.3,59.733124553138595,
,,,,96,0,96,0,,,,,,,,,,,,,,,,,,,,,,,,1107.7268433012068,None,,,,,,,,,,,,,,,,,employment,new_a,white,96,112,111,1104.334964601323,None,1104.334964601323,None,6,1.8083788007497787,1104.334964601323,None,1106.193656200543,None,1106.701853301376,None,1106.701853301376,None,r,0.993673600256443,1106.701853301376,None,,,NC36,001,2022_Apr_12_1050,ProdSingRedo,3.2.3,59.733124553138595,
,,,,97,0,97,0,,,,,,,,,,,,,,,,,,,,,,,,1110.9988611005247,None,,,,,,,,,,,,,,,,,column,sing,white,97,1,57,1108.2561333011836,None,1108.2561333011836,None,4,1.959111299365759,1108.2561333011836,None,1110.2713104002178,None,1110.784365400672,None,1110.784365400672,None,f,0.17496929876506329,1110.784365400672,None,,,NC36,001,2022_Apr_12_1050,ProdSingRedo,3.2.3,59.733124553138595,
,,,,98,0,98,0,,,,,,,,,,,,,,,,,,,,,,,,1113.7346605006605,None,,,,,,,,,,,,,,,,,military,sing,white,98,29,190,1111.5279508009553,None,1111.5279508009553,None,6,1.2868278995156288,1111.5279508009553,None,1112.849689701572,None,1113.374897601083,None,1113.374897601083,None,r,0.3203461989760399,1113.374897601083,None,,,NC36,001,2022_Apr_12_1050,ProdSingRedo,3.2.3,59.733124553138595,
,,,,99,0,99,0,,,,,,,,,,,,,,,,,,,,,,,,1116.9365712013096,None,,,,,,,,,,,,,,,,,equipment,new_c,white,99,169,116,1114.2642538007349,None,1114.2642538007349,None,4,2.02312389947474,1114.2642538007349,None,1116.33807490021,None,1116.8615849018097,None,1116.8615849018097,None,f,0.04960800148546696,1116.8615849018097,None,,,NC36,001,2022_Apr_12_1050,ProdSingRedo,3.2.3,59.733124553138595,
,,,,100,0,100,0,,,,,,,,,,,,,,,,,,,,,,,,1122.8593129999936,None,,,,,,,,,,,,,,,,,service,new_a,white,100,99,280,1117.4653317015618,None,1117.4653317015618,None,6,4.693881599232554,1117.4653317015618,None,1122.2127388007939,None,1122.730137400329,None,1122.730137400329,None,r,0.09327089972794056,1122.730137400329,None,,,NC36,001,2022_Apr_12_1050,ProdSingRedo,3.2.3,59.733124553138595,
,,,,101,0,101,0,,,,,,,,,,,,,,,,,,,,,,,,1125.1977446004748,None,,,,,,,,,,,,,,,,,material,sing,white,101,21,182,1123.3911366015673,None,1123.3911366015673,None,6,1.1041399016976357,1123.3911366015673,None,1124.5488356016576,None,1125.06666980125,None,1125.06666980125,None,r,0.10068230144679546,1125.06666980125,None,,,NC36,001,2022_Apr_12_1050,ProdSingRedo,3.2.3,59.733124553138595,
,,,,102,0,102,0,,,,,,,,,,,,,,,,,,,,,,,,1128.1658128015697,None,,,,,,,,,,,,,,,,,season,sing,white,102,2,277,1125.723444700241,None,1125.723444700241,None,4,1.3235087003558874,1125.723444700241,None,1127.0816360004246,None,1127.6029917001724,None,1127.6029917001724,None,f,0.5244637988507748,1127.6029917001724,None,,,NC36,001,2022_Apr_12_1050,ProdSingRedo,3.2.3,59.733124553138595,
,,,,103,0,103,0,,,,,,,,,,,,,,,,,,,,,,,,1131.2095199003816,None,,,,,,,,,,,,,,,,,surface,sing,white,103,13,316,1128.6945605017245,None,1128.6945605017245,None,3,1.7445756010711193,1128.6945605017245,None,1130.494285300374,None,1130.9927179012448,None,1130.9927179012448,None,f,0.19806999899446964,1130.9927179012448,None,,,NC36,001,2022_Apr_12_1050,ProdSingRedo,3.2.3,59.733124553138595,
,,,,104,0,104,0,,,,,,,,,,,,,,,,,,,,,,,,1135.509990600869,None,,,,,,,,,,,,,,,,,empty,sing,white,104,25,112,1131.7252626009285,None,1131.7252626009285,None,6,3.0098647996783257,1131.7252626009285,None,1134.782544400543,None,1135.308321500197,None,1135.308321500197,None,r,0.17108030058443546,1135.308321500197,None,,,NC36,001,2022_Apr_12_1050,ProdSingRedo,3.2.3,59.733124553138595,
,,,,105,0,105,0,,,,,,,,,,,,,,,,,,,,,,,,1140.261745000258,None,,,,,,,,,,,,,,,,,comedy,new_c,white,105,161,58,1136.0312216002494,None,1136.0312216002494,None,1,1.816066101193428,1136.0312216002494,None,1137.885116999969,None,1138.4119858015329,None,1138.4119858015329,None,n,1.8193228002637625,1138.4119858015329,None,,,NC36,001,2022_Apr_12_1050,ProdSingRedo,3.2.3,59.733124553138595,
,,,,106,0,106,0,,,,,,,,,,,,,,,,,,,,,,,,1143.5645914003253,None,,,,,,,,,,,,,,,,,suggestion,silent,white,106,64,314,1140.787439500913,None,1140.787439500913,None,4,1.8997508008033037,1140.787439500913,None,1142.7300851009786,None,1143.2502859011292,None,1143.2502859011292,None,f,0.27708519995212555,1143.2502859011292,None,,,NC36,001,2022_Apr_12_1050,ProdSingRedo,3.2.3,59.733124553138595,
,,,,107,0,107,0,,,,,,,,,,,,,,,,,,,,,,,,1147.1148675009608,None,,,,,,,,,,,,,,,,,solution,new_c,white,107,164,294,1144.0897428002208,None,1144.0897428002208,None,4,2.2294804994016886,1144.0897428002208,None,1146.3671431001276,None,1146.886976500973,None,1146.886976500973,None,f,0.19219829887151718,1146.886976500973,None,,,NC36,001,2022_Apr_12_1050,ProdSingRedo,3.2.3,59.733124553138595,
,,,,108,0,108,0,,,,,,,,,,,,,,,,,,,,,,,,1151.723528901115,None,,,,,,,,,,,,,,,,,couch,new_c,white,108,170,70,1147.6426429003477,None,1147.6426429003477,None,1,2.5805588997900486,1147.6426429003477,None,1150.2697254009545,None,1150.7890600003302,None,1150.7890600003302,None,n,0.9066291991621256,1150.7890600003302,None,,,NC36,001,2022_Apr_12_1050,ProdSingRedo,3.2.3,59.733124553138595,
,,,,109,0,109,0,,,,,,,,,,,,,,,,,,,,,,,,1154.2081784009933,None,,,,,,,,,,,,,,,,,gesture,new_c,white,109,158,137,1152.2522142007947,None,1152.2522142007947,None,1,1.2750097997486591,1152.2522142007947,None,1153.5756480004638,None,1154.0962822008878,None,1154.0962822008878,None,n,0.08712279982864857,1154.0962822008878,None,,,NC36,001,2022_Apr_12_1050,ProdSingRedo,3.2.3,59.733124553138595,
,,,,110,0,110,0,,,,,,,,,,,,,,,,,,,,,,,,1156.645085601136,None,,,,,,,,,,,,,,,,,measure,aloud,white,110,34,184,1154.7361190002412,None,1154.7361190002412,None,6,1.2071687001734972,1154.7361190002412,None,1155.993976701051,None,1156.5142450015992,None,1156.5142450015992,None,r,0.09307749941945076,1156.5142450015992,None,,,NC36,001,2022_Apr_12_1050,ProdSingRedo,3.2.3,59.733124553138595,
,,,,111,0,111,0,,,,,,,,,,,,,,,,,,,,,,,,1160.4573625009507,None,,,,,,,,,,,,,,,,,division,aloud,white,111,47,101,1157.1737270001322,None,1157.1737270001322,None,6,1.977538200095296,1157.1737270001322,None,1159.1965823005885,None,1159.7169412001967,None,1159.7169412001967,None,r,0.7221281006932259,1159.7169412001967,None,,,NC36,001,2022_Apr_12_1050,ProdSingRedo,3.2.3,59.733124553138595,
,,,,112,0,112,0,,,,,,,,,,,,,,,,,,,,,,,,1164.0189554002136,None,,,,,,,,,,,,,,,,,under,new_c,white,112,171,343,1160.9890270009637,None,1160.9890270009637,None,2,1.418299499899149,1160.9890270009637,None,1162.4493543002754,None,1162.9692297000438,None,1162.9692297000438,None,f,1.021866301074624,1162.9692297000438,None,,,NC36,001,2022_Apr_12_1050,ProdSingRedo,3.2.3,59.733124553138595,
,,,,113,0,113,0,,,,,,,,,,,,,,,,,,,,,,,,1169.3575216010213,None,,,,,,,,,,,,,,,,,block,new_c,white,113,174,25,1164.5446356013417,None,1164.5446356013417,None,2,3.390581799671054,1164.5446356013417,None,1167.986201301217,None,1168.507577901706,None,1168.507577901706,None,f,0.8197157997637987,1168.507577901706,None,,,NC36,001,2022_Apr_12_1050,ProdSingRedo,3.2.3,59.733124553138595,
,,,,114,0,114,0,,,,,,,,,,,,,,,,,,,,,,,,1173.6782605014741,None,,,,,,,,,,,,,,,,,course,new_c,white,114,173,74,1169.8856099005789,None,1169.8856099005789,None,6,2.20959459990263,1169.8856099005789,None,1172.137742901221,None,1172.665190000087,None,1172.665190000087,None,r,0.9820531997829676,1172.665190000087,None,,,NC36,001,2022_Apr_12_1050,ProdSingRedo,3.2.3,59.733124553138595,
,,,,115,0,115,0,,,,,,,,,,,,,,,,,,,,,,,,1176.5815973002464,None,,,,,,,,,,,,,,,,,instrument,new_a,white,115,115,163,1174.2080802004784,None,1174.2080802004784,None,6,1.6390231996774673,1174.2080802004784,None,1175.8933625016361,None,1176.4205413013697,None,1176.4205413013697,None,r,0.13063819892704487,1176.4205413013697,None,,,NC36,001,2022_Apr_12_1050,ProdSingRedo,3.2.3,59.733124553138595,
,,,,116,0,116,0,,,,,,,,,,,,,,,,,,,,,,,,1179.398736000061,None,,,,,,,,,,,,,,,,,death,sing,white,116,22,86,1177.1068378016353,None,1177.1068378016353,None,1,1.5884580984711647,1177.1068378016353,None,1178.7469171006233,None,1179.2692754007876,None,1179.2692754007876,None,n,0.10597990080714226,1179.2692754007876,None,,,NC36,001,2022_Apr_12_1050,ProdSingRedo,3.2.3,59.733124553138595,
,,,,117,0,117,0,,,,,,,,,,,,,,,,,,,,,,,,1183.635970601812,None,,,,,,,,,,,,,,,,,primary,new_b,white,117,137,234,1179.9300121013075,None,1179.9300121013075,None,5,3.021188799291849,1179.9300121013075,None,1183.0048702005297,None,1183.52621650137,None,1183.52621650137,None,f,0.07284020073711872,1183.52621650137,None,,,NC36,001,2022_Apr_12_1050,ProdSingRedo,3.2.3,59.733124553138595,
,,,,118,0,118,0,,,,,,,,,,,,,,,,,,,,,,,,1186.3909767009318,None,,,,,,,,,,,,,,,,,beauty,new_a,white,118,94,18,1184.1687977015972,None,1184.1687977015972,None,4,1.446169700473547,1184.1687977015972,None,1185.6661652009934,None,1186.1773858014494,None,1186.1773858014494,None,f,0.18179430067539215,1186.1773858014494,None,,,NC36,001,2022_Apr_12_1050,ProdSingRedo,3.2.3,59.733124553138595,
,,,,119,0,119,0,,,,,,,,,,,,,,,,,,,,,,,,1190.2764421012253,None,,,,,,,,,,,,,,,,,pressure,new_b,white,119,134,232,1186.9211316015571,None,1186.9211316015571,None,6,1.64610349945724,1186.9211316015571,None,1188.6067312005907,None,1189.1254049018025,None,1189.1254049018025,None,r,1.1216946989297867,1189.1254049018025,None,,,NC36,001,2022_Apr_12_1050,ProdSingRedo,3.2.3,59.733124553138595,
,,,,120,0,120,0,,,,,,,,,,,,,,,,,,,,,,,,1193.3288403004408,None,,,,,,,,,,,,,,,,,salary,new_c,white,120,167,271,1190.8043931014836,None,1190.8043931014836,None,1,1.562525000423193,1190.8043931014836,None,1192.4296586010605,None,1192.9258316010237,None,1192.9258316010237,None,n,0.3770356997847557,1192.9258316010237,None,,,NC36,001,2022_Apr_12_1050,ProdSingRedo,3.2.3,59.733124553138595,
,,,,121,0,121,0,,,,,,,,,,,,,,,,,,,,,,,,1198.4504971001297,None,,,,,,,,,,,,,,,,,trend,new_c,white,121,159,340,1193.8525260016322,None,1193.8525260016322,None,4,3.938959499821067,1193.8525260016322,None,1197.831014700234,None,1198.3503775000572,None,1198.3503775000572,None,f,0.06468510068953037,1198.3503775000572,None,,,NC36,001,2022_Apr_12_1050,ProdSingRedo,3.2.3,59.733124553138595,
,,,,122,0,122,0,,,,,,,,,,,,,,,,,,,,,,,,1201.222969001159,None,,,,,,,,,,,,,,,,,danger,aloud,white,122,35,85,1198.9807493016124,None,1198.9807493016124,None,4,1.3703653011471033,1198.9807493016124,None,1200.4047373011708,None,1200.9263440016657,None,1200.9263440016657,None,f,0.2568056993186474,1200.9263440016657,None,,,NC36,001,2022_Apr_12_1050,ProdSingRedo,3.2.3,59.733124553138595,
,,,,123,0,123,0,,,,,,,,,,,,,,,,,,,,,,,,1206.1918926015496,None,,,,,,,,,,,,,,,,,nation,new_b,white,123,141,198,1201.7466111015528,None,1201.7466111015528,None,1,3.3564235996454954,1201.7466111015528,None,1205.1485849004239,None,1205.6622796002775,None,1205.6622796002775,None,n,0.4966921005398035,1205.6622796002775,None,,,NC36,001,2022_Apr_12_1050,ProdSingRedo,3.2.3,59.733124553138595,
,,,,124,0,124,0,,,,,,,,,,,,,,,,,,,,,,,,1211.781738301739,None,,,,,,,,,,,,,,,,,sight,new_a,white,124,119,286,1206.7194124013186,None,1206.7194124013186,None,2,3.768002100288868,1206.7194124013186,None,1210.5322862006724,None,1211.0505118016154,None,1211.0505118016154,None,n,0.6925908997654915,1211.0505118016154,None,,,NC36,001,2022_Apr_12_1050,ProdSingRedo,3.2.3,59.733124553138595,
,,,,125,0,125,0,,,,,,,,,,,,,,,,,,,,,,,,1214.9505082014948,None,,,,,,,,,,,,,,,,,people,silent,white,125,89,216,1212.304734101519,None,1212.304734101519,None,3,1.494453201070428,1212.304734101519,None,1213.8417908009142,None,1214.3525629006326,None,1214.3525629006326,None,n,0.5743156000971794,1214.3525629006326,None,,,NC36,001,2022_Apr_12_1050,ProdSingRedo,3.2.3,59.733124553138595,
,,,,126,0,126,0,,,,,,,,,,,,,,,,,,,,,,,,1220.2570502012968,None,,,,,,,,,,,,,,,,,shear,new_a,white,126,96,283,1215.4793165009469,None,1215.4793165009469,None,1,4.007921598851681,1215.4793165009469,None,1219.5385271012783,None,1220.062979100272,None,1220.062979100272,None,n,0.1681071985512972,1220.062979100272,None,,,NC36,001,2022_Apr_12_1050,ProdSingRedo,3.2.3,59.733124553138595,
,,,,127,0,127,0,,,,,,,,,,,,,,,,,,,,,,,,1223.294063700363,None,,,,,,,,,,,,,,,,,partner,aloud,white,127,30,211,1220.784669900313,None,1220.784669900313,None,6,1.6863119006156921,1220.784669900313,None,1222.5243066009134,None,1223.0462169013917,None,1223.0462169013917,None,r,0.2089408002793789,1223.0462169013917,None,,,NC36,001,2022_Apr_12_1050,ProdSingRedo,3.2.3,59.733124553138595,
,,,,128,0,128,0,,,,,,,,,,,,,,,,,,,,,,,,1226.163233000785,None,,,,,,,,,,,,,,,,,turkey,sing,white,128,24,342,1223.8303442001343,None,1223.8303442001343,None,6,1.4007951002568007,1223.8303442001343,None,1225.280636901036,None,1225.8032641001046,None,1225.8032641001046,None,r,0.32387639954686165,1225.8032641001046,None,,,NC36,001,2022_Apr_12_1050,ProdSingRedo,3.2.3,59.733124553138595,
,,,,129,0,129,0,,,,,,,,,,,,,,,,,,,,,,,,1229.8003529012203,None,,,,,,,,,,,,,,,,,murder,silent,white,129,71,195,1226.6715219002217,None,1226.6715219002217,None,6,2.527571300044656,1226.6715219002217,None,1229.2489217016846,None,1229.770549301058,None,1229.770549301058,None,r,0.004326600581407547,1229.770549301058,None,,,NC36,001,2022_Apr_12_1050,ProdSingRedo,3.2.3,59.733124553138595,
,,,,130,0,130,0,,,,,,,,,,,,,,,,,,,,,,,,1232.2010334003717,None,,,,,,,,,,,,,,,,,message,new_c,white,130,153,189,1230.32863930054,None,1230.32863930054,None,1,1.2464891001582146,1230.32863930054,None,1231.6203198004514,None,1232.143765900284,None,1232.143765900284,None,n,0.02324490062892437,1232.143765900284,None,,,NC36,001,2022_Apr_12_1050,ProdSingRedo,3.2.3,59.733124553138595,
,,,,131,0,131,0,,,,,,,,,,,,,,,,,,,,,,,,1236.7744654007256,None,,,,,,,,,,,,,,,,,company,new_a,white,131,113,64,1232.7306094001979,None,1232.7306094001979,None,3,2.7647696007043123,1232.7306094001979,None,1235.5433420017362,None,1236.0612594000995,None,1236.0612594000995,None,f,0.6818113010376692,1236.0612594000995,None,,,NC36,001,2022_Apr_12_1050,ProdSingRedo,3.2.3,59.733124553138595,
,,,,132,0,132,0,,,,,,,,,,,,,,,,,,,,,,,,1239.5366001017392,None,,,,,,,,,,,,,,,,,goose,new_b,white,132,139,138,1237.2973008006811,None,1237.2973008006811,None,1,1.6458011008799076,1237.2973008006811,None,1238.9888934008777,None,1239.5104748010635,None,1239.5104748010635,None,n,0.008762199431657791,1239.5104748010635,None,,,NC36,001,2022_Apr_12_1050,ProdSingRedo,3.2.3,59.733124553138595,
,,,,133,0,133,0,,,,,,,,,,,,,,,,,,,,,,,,1243.4658630006015,None,,,,,,,,,,,,,,,,,agreement,new_c,white,133,151,5,1240.0707889012992,None,1240.0707889012992,None,2,2.512396600097418,1240.0707889012992,None,1242.6291287001222,None,1243.1502085011452,None,1243.1502085011452,None,f,0.28918679989874363,1243.1502085011452,None,,,NC36,001,2022_Apr_12_1050,ProdSingRedo,3.2.3,59.733124553138595,
,,,,134,0,134,0,,,,,,,,,,,,,,,,,,,,,,,,1246.366271801293,None,,,,,,,,,,,,,,,,,executive,new_c,white,134,177,122,1243.9967127013952,None,1243.9967127013952,None,1,1.5945658013224602,1243.9967127013952,None,1245.6359151005745,None,1246.1624295003712,None,1246.1624295003712,None,n,0.16483050025999546,1246.1624295003712,None,,,NC36,001,2022_Apr_12_1050,ProdSingRedo,3.2.3,59.733124553138595,
,,,,135,0,135,0,,,,,,,,,,,,,,,,,,,,,,,,1249.7011457011104,None,,,,,,,,,,,,,,,,,defeat,sing,white,135,20,88,1246.8962692003697,None,1246.8962692003697,None,6,2.158822000026703,1246.8962692003697,None,1249.0996261015534,None,1249.6245541013777,None,1249.6245541013777,None,r,0.054150599986314774,1249.6245541013777,None,,,NC36,001,2022_Apr_12_1050,ProdSingRedo,3.2.3,59.733124553138595,
,,,,136,0,136,0,,,,,,,,,,,,,,,,,,,,,,,,1255.3583011012524,None,,,,,,,,,,,,,,,,,birth,new_a,white,136,111,22,1250.225136300549,None,1250.225136300549,None,4,1.6378337014466524,1250.225136300549,None,1251.9019446000457,None,1252.4223999008536,None,1252.4223999008536,None,f,2.896500999107957,1252.4223999008536,None,,,NC36,001,2022_Apr_12_1050,ProdSingRedo,3.2.3,59.733124553138595,
,,,,137,0,137,0,,,,,,,,,,,,,,,,,,,,,,,,1258.7376345004886,None,,,,,,,,,,,,,,,,,sunset,new_a,white,137,118,315,1255.8873231001198,None,1255.8873231001198,None,2,2.2399487998336554,1255.8873231001198,None,1258.1755996011198,None,1258.696727000177,None,1258.696727000177,None,f,0.014035200700163841,1258.696727000177,None,,,NC36,001,2022_Apr_12_1050,ProdSingRedo,3.2.3,59.733124553138595,
,,,,138,0,138,0,,,,,,,,,,,,,,,,,,,,,,,,1261.278826000169,None,,,,,,,,,,,,,,,,,straight,aloud,white,138,38,307,1259.2585239000618,None,1259.2585239000618,None,6,1.3891346007585526,1259.2585239000618,None,1260.7138204015791,None,1261.2261962015182,None,1261.2261962015182,None,r,0.020533598959445953,1261.2261962015182,None,,,NC36,001,2022_Apr_12_1050,ProdSingRedo,3.2.3,59.733124553138595,
,,,,139,0,139,0,,,,,,,,,,,,,,,,,,,,,,,,1264.1844758000225,None,,,,,,,,,,,,,,,,,captain,aloud,white,139,43,41,1261.8090232014656,None,1261.8090232014656,None,6,1.1980185005813837,1261.8090232014656,None,1263.0519991014153,None,1263.5724719017744,None,1263.5724719017744,None,r,0.5786032993346453,1263.5724719017744,None,,,NC36,001,2022_Apr_12_1050,ProdSingRedo,3.2.3,59.733124553138595,
,,,,140,0,140,0,,,,,,,,,,,,,,,,,,,,,,,,1267.1215594001114,None,,,,,,,,,,,,,,,,,reach,silent,white,140,74,253,1264.709324600175,None,1264.709324600175,None,4,1.633830800652504,1264.709324600175,None,1266.387430401519,None,1266.904972601682,None,1266.904972601682,None,f,0.18187080137431622,1266.904972601682,None,,,NC36,001,2022_Apr_12_1050,ProdSingRedo,3.2.3,59.733124553138595,
,,,,141,0,141,0,,,,,,,,,,,,,,,,,,,,,,,,1270.3738587014377,None,,,,,,,,,,,,,,,,,enemy,sing,white,141,28,113,1267.648708101362,None,1267.648708101362,None,6,1.2946439012885094,1267.648708101362,None,1268.9891280010343,None,1269.5009255018085,None,1269.5009255018085,None,r,0.8420726004987955,1269.5009255018085,None,,,NC36,001,2022_Apr_12_1050,ProdSingRedo,3.2.3,59.733124553138595,
,,,,142,0,142,0,,,,,,,,,,,,,,,,,,,,,,,,1273.5763153005391,None,,,,,,,,,,,,,,,,,expansion,new_a,white,142,98,123,1270.899937801063,None,1270.899937801063,None,1,2.0110264997929335,1270.899937801063,None,1272.9607196003199,None,1273.4803210012615,None,1273.4803210012615,None,n,0.06262180022895336,1273.4803210012615,None,,,NC36,001,2022_Apr_12_1050,ProdSingRedo,3.2.3,59.733124553138595,
,,,,143,0,143,0,,,,,,,,,,,,,,,,,,,,,,,,1276.696614401415,None,,,,,,,,,,,,,,,,,principal,new_a,white,143,117,236,1274.1041896007955,None,1274.1041896007955,None,6,1.9108834005892277,1274.1041896007955,None,1276.0582143999636,None,1276.583687800914,None,1276.583687800914,None,f,0.08711769990622997,1276.583687800914,None,,,NC36,001,2022_Apr_12_1050,ProdSingRedo,3.2.3,59.733124553138595,
,,,,144,0,144,0,,,,,,,,,,,,,,,,,,,,,,,,1279.9667458999902,None,,,,,,,,,,,,,,,,,tragedy,new_b,white,144,131,335,1277.2237576004118,None,1277.2237576004118,None,1,2.095305699855089,1277.2237576004118,None,1279.3631139006466,None,1279.8885940015316,None,1279.8885940015316,None,n,0.04639909975230694,1279.8885940015316,None,,,NC36,001,2022_Apr_12_1050,ProdSingRedo,3.2.3,59.733124553138595,
,,,,145,0,145,0,,,,,,,,,,,,,,,,,,,,,,,,1283.085404600948,None,,,,,,,,,,,,,,,,,contract,new_c,white,145,175,68,1280.4933636002243,None,1280.4933636002243,None,3,1.8736613001674414,1280.4933636002243,None,1282.42075330019,None,1282.940233901143,None,1282.940233901143,None,f,0.11468850076198578,1282.940233901143,None,,,NC36,001,2022_Apr_12_1050,ProdSingRedo,3.2.3,59.733124553138595,
,,,,146,0,146,0,,,,,,,,,,,,,,,,,,,,,,,,1286.714683700353,None,,,,,,,,,,,,,,,,,substance,aloud,white,146,40,313,1283.6146268006414,None,1283.6146268006414,None,6,1.9206221997737885,1283.6146268006414,None,1285.592984000221,None,1286.1262793000787,None,1286.1262793000787,None,r,0.5601722002029419,1286.1262793000787,None,,,NC36,001,2022_Apr_12_1050,ProdSingRedo,3.2.3,59.733124553138595,
,,,,147,0,147,0,,,,,,,,,,,,,,,,,,,,,,,,1289.5262494999915,None,,,,,,,,,,,,,,,,,carry,new_b,white,147,120,43,1287.217021100223,None,1287.217021100223,None,1,1.3258781004697084,1287.217021100223,None,1288.5944968014956,None,1289.10923910141,None,1289.10923910141,None,n,0.3856819011271,1289.10923910141,None,,,NC36,001,2022_Apr_12_1050,ProdSingRedo,3.2.3,59.733124553138595,
,,,,148,0,148,0,,,,,,,,,,,,,,,,,,,,,,,,1292.7139269001782,None,,,,,,,,,,,,,,,,,atmosphere,new_b,white,148,140,12,1290.0639633014798,None,1290.0639633014798,None,1,1.8550044000148773,1290.0639633014798,None,1291.9578283000737,None,1292.4820685014129,None,1292.4820685014129,None,n,0.19679230079054832,1292.4820685014129,None,,,NC36,001,2022_Apr_12_1050,ProdSingRedo,3.2.3,59.733124553138595,
,,,,149,0,149,0,,,,,,,,,,,,,,,,,,,,,,,,1296.6178782004863,None,,,,,,,,,,,,,,,,,crime,sing,white,149,17,78,1293.2352138012648,None,1293.2352138012648,None,6,2.4757250007241964,1293.2352138012648,None,1295.7603432014585,None,1296.2841974012554,None,1296.2841974012554,None,r,0.29891440086066723,1296.2841974012554,None,,,NC36,001,2022_Apr_12_1050,ProdSingRedo,3.2.3,59.733124553138595,
,,,,150,0,150,0,,,,,,,,,,,,,,,,,,,,,,,,1299.218548901379,None,,,,,,,,,,,,,,,,,education,new_b,white,150,128,108,1297.1450245007873,None,1297.1450245007873,None,1,1.373795498162508,1297.1450245007873,None,1298.5646271016449,None,1299.0930114015937,None,1299.0930114015937,None,n,0.0898560993373394,1299.0930114015937,None,,,NC36,001,2022_Apr_12_1050,ProdSingRedo,3.2.3,59.733124553138595,
,,,,151,0,151,0,,,,,,,,,,,,,,,,,,,,,,,,1304.2549132015556,None,,,,,,,,,,,,,,,,,graduate,new_a,white,151,107,141,1299.7511221002787,None,1299.7511221002787,None,6,2.111715901643038,1299.7511221002787,None,1301.9103389009833,None,1302.4277472011745,None,1302.4277472011745,None,f,1.7952298000454903,1302.4277472011745,None,,,NC36,001,2022_Apr_12_1050,ProdSingRedo,3.2.3,59.733124553138595,
,,,,152,0,152,0,,,,,,,,,,,,,,,,,,,,,,,,1307.6442285999656,None,,,,,,,,,,,,,,,,,commercial,sing,white,152,27,61,1304.785807300359,None,1304.785807300359,None,6,2.101085899397731,1304.785807300359,None,1306.9439356010407,None,1307.4633395001292,None,1307.4633395001292,None,r,0.14359969832003117,1307.4633395001292,None,,,NC36,001,2022_Apr_12_1050,ProdSingRedo,3.2.3,59.733124553138595,
,,,,153,0,153,0,,,,,,,,,,,,,,,,,,,,,,,,1310.6816796008497,None,,,,,,,,,,,,,,,,,express,new_a,white,153,92,124,1308.1527553014457,None,1308.1527553014457,None,1,1.814147399738431,1308.1527553014457,None,1310.008906101808,None,1310.53089970164,None,1310.53089970164,None,n,0.1160128004848957,1310.53089970164,None,,,NC36,001,2022_Apr_12_1050,ProdSingRedo,3.2.3,59.733124553138595,
,,,,154,0,154,0,,,,,,,,,,,,,,,,,,,,,,,,1314.1080400012434,None,,,,,,,,,,,,,,,,,prime,sing,white,154,11,235,1311.207186801359,None,1311.207186801359,None,5,2.0797511003911495,1311.207186801359,None,1313.3286340013146,None,1313.8490644004196,None,1313.8490644004196,None,f,0.21383170038461685,1313.8490644004196,None,,,NC36,001,2022_Apr_12_1050,ProdSingRedo,3.2.3,59.733124553138595,
,,,,155,0,155,0,,,,,,,,,,,,,,,,,,,,,,,,1317.8376974016428,None,,,,,,,,,,,,,,,,,cross,new_a,white,155,109,80,1314.6290366016328,None,1314.6290366016328,None,4,2.009334499016404,1314.6290366016328,None,1316.6649428009987,None,1317.1787268016487,None,1317.1787268016487,None,f,0.6282116994261742,1317.1787268016487,None,,,NC36,001,2022_Apr_12_1050,ProdSingRedo,3.2.3,59.733124553138595,
,,,,156,0,156,0,,,,,,,,,,,,,,,,,,,,,,,,1320.3549943007529,None,,,,,,,,,,,,,,,,,health,new_c,white,156,150,149,1318.3664713017642,None,1318.3664713017642,None,3,1.3126093000173569,1318.3664713017642,None,1319.7147836014628,None,1320.2283211015165,None,1320.2283211015165,None,f,0.09042439982295036,1320.2283211015165,None,,,NC36,001,2022_Apr_12_1050,ProdSingRedo,3.2.3,59.733124553138595,
,,,,157,0,157,0,,,,,,,,,,,,,,,,,,,,,,,,1324.8451040014625,None,,,,,,,,,,,,,,,,,discussion,aloud,white,157,33,96,1320.883764700964,None,1320.883764700964,None,6,2.5391872990876436,1320.883764700964,None,1323.4734555017203,None,1323.9967539999634,None,1323.9967539999634,None,r,0.8101116009056568,1323.9967539999634,None,,,NC36,001,2022_Apr_12_1050,ProdSingRedo,3.2.3,59.733124553138595,
,,,,158,0,158,0,,,,,,,,,,,,,,,,,,,,,,,,1329.2324597015977,None,,,,,,,,,,,,,,,,,dream,new_a,white,158,90,104,1325.3735240008682,None,1325.3735240008682,None,1,2.721408899873495,1325.3735240008682,None,1328.150796500966,None,1328.6666273009032,None,1328.6666273009032,None,n,0.5401358995586634,1328.6666273009032,None,,,NC36,001,2022_Apr_12_1050,ProdSingRedo,3.2.3,59.733124553138595,
,,,,159,0,159,0,,,,,,,,,,,,,,,,,,,,,,,,1333.4701215010136,None,,,,,,,,,,,,,,,,,population,new_a,white,159,97,227,1329.7584733013064,None,1329.7584733013064,None,6,2.0964454002678394,1329.7584733013064,None,1331.9007290005684,None,1332.4264429006726,None,1332.4264429006726,None,r,1.0123666003346443,1332.4264429006726,None,,,NC36,001,2022_Apr_12_1050,ProdSingRedo,3.2.3,59.733124553138595,
,,,,160,0,160,0,,,,,,,,,,,,,,,,,,,,,,,,1338.7920575011522,None,,,,,,,,,,,,,,,,,device,silent,white,160,72,93,1333.9994097016752,None,1333.9994097016752,None,3,3.399481900036335,1333.9994097016752,None,1337.4382608011365,None,1337.9606367014349,None,1337.9606367014349,None,f,0.8064107000827789,1337.9606367014349,None,,,NC36,001,2022_Apr_12_1050,ProdSingRedo,3.2.3,59.733124553138595,
,,,,161,0,161,0,,,,,,,,,,,,,,,,,,,,,,,,1341.443589201197,None,,,,,,,,,,,,,,,,,symbol,new_a,white,161,91,321,1339.3229080010206,None,1339.3229080010206,None,1,1.3481277991086245,1339.3229080010206,None,1340.7311869002879,None,1341.2496116012335,None,1341.2496116012335,None,n,0.15716230124235153,1341.2496116012335,None,,,NC36,001,2022_Apr_12_1050,ProdSingRedo,3.2.3,59.733124553138595,
,,,,162,0,162,0,,,,,,,,,,,,,,,,,,,,,,,,1345.7313287016004,None,,,,,,,,,,,,,,,,,color,silent,white,162,62,56,1341.965115500614,None,1341.965115500614,None,6,3.0257486011832952,1341.965115500614,None,1345.0252066999674,None,1345.548065500334,None,1345.548065500334,None,r,0.14689689874649048,1345.548065500334,None,,,NC36,001,2022_Apr_12_1050,ProdSingRedo,3.2.3,59.733124553138595,
,,,,163,0,163,0,,,,,,,,,,,,,,,,,,,,,,,,1348.3988524004817,None,,,,,,,,,,,,,,,,,portion,new_c,white,163,163,228,1346.2561899013817,None,1346.2561899013817,None,1,1.3265742994844913,1346.2561899013817,None,1347.6289999000728,None,1348.1485249008983,None,1348.1485249008983,None,n,0.22596869990229607,1348.1485249008983,None,,,NC36,001,2022_Apr_12_1050,ProdSingRedo,3.2.3,59.733124553138595,
,,,,164,0,164,0,,,,,,,,,,,,,,,,,,,,,,,,1351.3191301003098,None,,,,,,,,,,,,,,,,,childhood,new_b,white,164,145,49,1348.924430301413,None,1348.924430301413,None,3,1.4984192997217178,1348.924430301413,None,1350.4608912002295,None,1350.970397401601,None,1350.970397401601,None,n,0.32425410114228725,1350.970397401601,None,,,NC36,001,2022_Apr_12_1050,ProdSingRedo,3.2.3,59.733124553138595,
,,,,165,0,165,0,,,,,,,,,,,,,,,,,,,,,,,,1355.8584329001606,None,,,,,,,,,,,,,,,,,addition,silent,white,165,67,2,1351.8489693012089,None,1351.8489693012089,None,1,2.405806500464678,1351.8489693012089,None,1354.3065344002098,None,1354.8258406016976,None,1354.8258406016976,None,n,0.9969541002064943,1354.8258406016976,None,,,NC36,001,2022_Apr_12_1050,ProdSingRedo,3.2.3,59.733124553138595,
,,,,166,0,166,0,,,,,,,,,,,,,,,,,,,,,,,,1359.0120755005628,None,,,,,,,,,,,,,,,,,income,aloud,white,166,37,159,1356.3822706006467,None,1356.3822706006467,None,6,1.5608542002737522,1356.3822706006467,None,1357.986305801198,None,1358.4952203016728,None,1358.4952203016728,None,r,0.48754830099642277,1358.4952203016728,None,,,NC36,001,2022_Apr_12_1050,ProdSingRedo,3.2.3,59.733124553138595,
,,,,167,0,167,0,,,,,,,,,,,,,,,,,,,,,,,,1362.0164831001312,None,,,,,,,,,,,,,,,,,close,sing,white,167,18,53,1359.5348672010005,None,1359.5348672010005,None,3,1.6881991010159254,1359.5348672010005,None,1361.2576478011906,None,1361.7799111008644,None,1361.7799111008644,None,f,0.20282560028135777,1361.7799111008644,None,,,NC36,001,2022_Apr_12_1050,ProdSingRedo,3.2.3,59.733124553138595,
,,,,168,0,168,0,,,,,,,,,,,,,,,,,,,,,,,,1367.4205195009708,None,,,,,,,,,,,,,,,,,raise,aloud,white,168,48,250,1362.5465453006327,None,1362.5465453006327,None,5,3.612525099888444,1362.5465453006327,None,1366.2025313004851,None,1366.7224628012627,None,1366.7224628012627,None,f,0.6683237999677658,1366.7224628012627,None,,,NC36,001,2022_Apr_12_1050,ProdSingRedo,3.2.3,59.733124553138595,
,,,,169,0,169,0,,,,,,,,,,,,,,,,,,,,,,,,1370.2055591009557,None,,,,,,,,,,,,,,,,,property,silent,white,169,75,242,1367.945673700422,None,1367.945673700422,None,6,1.3811841011047363,1367.945673700422,None,1369.3679068014026,None,1369.8934521004558,None,1369.8934521004558,None,r,0.28927130065858364,1369.8934521004558,None,,,NC36,001,2022_Apr_12_1050,ProdSingRedo,3.2.3,59.733124553138595,
,,,,170,0,170,0,,,,,,,,,,,,,,,,,,,,,,,,1372.8419458009303,None,,,,,,,,,,,,,,,,,chief,sing,white,170,5,48,1370.7319471016526,None,1370.7319471016526,None,6,1.3708910010755062,1370.7319471016526,None,1372.1563630010933,None,1372.675634700805,None,1372.675634700805,None,r,0.13122449815273285,1372.675634700805,None,,,NC36,001,2022_Apr_12_1050,ProdSingRedo,3.2.3,59.733124553138595,
,,,,171,0,171,0,,,,,,,,,,,,,,,,,,,,,,,,1375.9781092014164,None,,,,,,,,,,,,,,,,,build,sing,white,171,9,35,1373.3715677000582,None,1373.3715677000582,None,4,1.1631492003798485,1373.3715677000582,None,1374.577875200659,None,1375.098708000034,None,1375.098708000034,None,f,0.8520776014775038,1375.098708000034,None,,,NC36,001,2022_Apr_12_1050,ProdSingRedo,3.2.3,59.733124553138595,
,,,,172,0,172,0,,,,,,,,,,,,,,,,,,,,,,,,1379.765534600243,None,,,,,,,,,,,,,,,,,master,new_b,white,172,136,180,1376.4940352011472,None,1376.4940352011472,None,2,1.6487402990460396,1376.4940352011472,None,1378.1913918014616,None,1378.7145803011954,None,1378.7145803011954,None,f,1.020143199712038,1378.7145803011954,None,,,NC36,001,2022_Apr_12_1050,ProdSingRedo,3.2.3,59.733124553138595,
,,,,173,0,173,0,,,,,,,,,,,,,,,,,,,,,,,,1382.6840232014656,None,,,,,,,,,,,,,,,,,member,new_b,white,173,148,188,1380.296235801652,None,1380.296235801652,None,2,1.3901854995638132,1380.296235801652,None,1381.7172163017094,None,1382.2384130004793,None,1382.2384130004793,None,f,0.4084396995604038,1382.2384130004793,None,,,NC36,001,2022_Apr_12_1050,ProdSingRedo,3.2.3,59.733124553138595,
,,,,174,0,174,0,,,,,,,,,,,,,,,,,,,,,,,,1386.5916171018034,None,,,,,,,,,,,,,,,,,foundation,sing,white,174,26,132,1383.2163949012756,None,1383.2163949012756,None,6,2.046287700533867,1383.2163949012756,None,1385.3139500003308,None,1385.8277643006295,None,1385.8277643006295,None,f,0.7310290988534689,1385.8277643006295,None,,,NC36,001,2022_Apr_12_1050,ProdSingRedo,3.2.3,59.733124553138595,
,,,,175,0,175,0,,,,,,,,,,,,,,,,,,,,,,,,1389.7256466001272,None,,,,,,,,,,,,,,,,,smooth,new_b,white,175,135,292,1387.114185301587,None,1387.114185301587,None,1,1.2844229992479086,1387.114185301587,None,1388.4343104008585,None,1388.9422043003142,None,1388.9422043003142,None,n,0.7525488995015621,1388.9422043003142,None,,,NC36,001,2022_Apr_12_1050,ProdSingRedo,3.2.3,59.733124553138595,
,,,,176,0,176,0,,,,,,,,,,,,,,,,,,,,,,,,1392.812116600573,None,,,,,,,,,,,,,,,,,payment,silent,white,176,78,215,1390.259478200227,None,1390.259478200227,None,1,1.4992718994617462,1390.259478200227,None,1391.810884900391,None,1392.333011901006,None,1392.333011901006,None,n,0.44190779887139797,1392.333011901006,None,,,NC36,001,2022_Apr_12_1050,ProdSingRedo,3.2.3,59.733124553138595,
,,,,177,0,177,0,,,,,,,,,,,,,,,,,,,,,,,,1397.5029445011169,None,,,,,,,,,,,,,,,,,working,new_a,white,177,102,357,1393.3444563001394,None,1393.3444563001394,None,4,1.5743343997746706,1393.3444563001394,None,1394.9623168017715,None,1395.4868812002242,None,1395.4868812002242,None,f,1.9759034998714924,1395.4868812002242,None,,,NC36,001,2022_Apr_12_1050,ProdSingRedo,3.2.3,59.733124553138595,
,,,,178,0,178,0,,,,,,,,,,,,,,,,,,,,,,,,1404.1240306012332,None,,,,,,,,,,,,,,,,,community,sing,white,178,7,63,1398.0330743007362,None,1398.0330743007362,None,6,1.7096149995923042,1398.0330743007362,None,1399.7906578015536,None,1400.3098487015814,None,1400.3098487015814,None,n,3.784860799089074,1400.3098487015814,None,,,NC36,001,2022_Apr_12_1050,ProdSingRedo,3.2.3,59.733124553138595,
,,,,179,0,179,0,,,,,,,,,,,,,,,,,,,,,,,,1407.0513285007328,None,,,,,,,,,,,,,,,,,spoke,silent,white,179,84,300,1404.6514222007245,None,1404.6514222007245,None,1,1.619233200326562,1404.6514222007245,None,1406.3193014003336,None,1406.8345502000302,None,1406.8345502000302,None,n,0.18772630020976067,1406.8345502000302,None,,,NC36,001,2022_Apr_12_1050,ProdSingRedo,3.2.3,59.733124553138595,
,,,,,,,,,,,,,,,,,,,,,,,,,,,,,,,,,,,,,,,,,,,,,,,,,,,,,,,,,,,,,,,,,,,,,,,,,1407.5526019018143,None,,,,,,,
