StudyLoop.thisRepN,StudyLoop.thisTrialN,StudyLoop.thisN,StudyLoop.thisIndex,TestLoop.thisRepN,TestLoop.thisTrialN,TestLoop.thisN,TestLoop.thisIndex,textCondition.started,textCondition.stopped,keyCondition.keys,keyCondition.rt,keyCondition.started,keyCondition.stopped,Condition,stim_colors,color_sing,color_aloud,color_silent,textWelcome.started,textWelcome.stopped,keyWelcome.keys,keyWelcome.rt,keyWelcome.started,keyWelcome.stopped,textAloud.started,textAloud.stopped,textSilent.started,textSilent.stopped,textSing.started,textSing.stopped,textBlank500.started,textBlank500.stopped,study_word,study_type,study_color,study_num,study_word_num,textStudy.started,textStudy.stopped,keyStudy.keys,keyStudy.started,keyStudy.stopped,textTestInstructions.started,textTestInstructions.stopped,key_resp_3.keys,key_resp_3.rt,key_resp_3.started,key_resp_3.stopped,testWord,testType,testColor,testN,test_num,test_word_num,textConf.started,textConf.stopped,textConfScale.started,textConfScale.stopped,keyConf.keys,keyConf.rt,keyConf.started,keyConf.stopped,textTestBlank.started,textTestBlank.stopped,textRKN.started,textRKN.stopped,textRKNScale.started,textRKNScale.stopped,keyRKN.keys,keyRKN.rt,keyRKN.started,keyRKN.stopped,textEnd.started,textEnd.stopped,participant,session,date,expName,psychopyVersion,frameRate
,,,,,,,,11.92959001,None,n,3.790098619,11.92959001,None,,,,,,,,,,,,,,,,,,,,,,,,,,,,,,,,,,,,,,,,,,,,,,,,,,,,,,,,,,,,,,NC3a,1,2019_Dec_02_1656,ProdSingRedo,3.2.4,59.88876824
,,,,,,,,,,,,,,NeutralTest,"['red', 'yellow', 'blue']",red,yellow,blue,15.77538168,None,space,2224.592818,15.77538168,None,,,,,,,,,,,,,,,,,,,,,,,,,,,,,,,,,,,,,,,,,,,,,,,,,,,NC3a,1,2019_Dec_02_1656,ProdSingRedo,3.2.4,59.88876824
0,0,0,0,,,,,,,,,,,,,,,,,,,,,,15.77538168,None,15.77538168,None,15.77538168,None,2242.908427,None,display,sing,red,26,98,2240.914127,None,None,2240.914127,None,,,,,,,,,,,,,,,,,,,,,,,,,,,,,,,,,NC3a,1,2019_Dec_02_1656,ProdSingRedo,3.2.4,59.88876824
1,0,1,0,,,,,,,,,,,,,,,,,,,,,,,,,,,,2245.425805,None,running,silent,blue,61,268,2243.424987,None,None,2243.424987,None,,,,,,,,,,,,,,,,,,,,,,,,,,,,,,,,,NC3a,1,2019_Dec_02_1656,ProdSingRedo,3.2.4,59.88876824
2,0,2,0,,,,,,,,,,,,,,,,,,,,,,,,,,,,2247.943217,None,raise,aloud,yellow,36,250,2245.942576,None,None,2245.942576,None,,,,,,,,,,,,,,,,,,,,,,,,,,,,,,,,,NC3a,1,2019_Dec_02_1656,ProdSingRedo,3.2.4,59.88876824
3,0,3,0,,,,,,,,,,,,,,,,,,,,,,,,,,,,2250.460669,None,stranger,silent,blue,69,309,2248.459917,None,None,2248.459917,None,,,,,,,,,,,,,,,,,,,,,,,,,,,,,,,,,NC3a,1,2019_Dec_02_1656,ProdSingRedo,3.2.4,59.88876824
4,0,4,0,,,,,,,,,,,,,,,,,,,,,,,,,,,,2252.978088,None,tragedy,aloud,yellow,39,335,2250.977293,None,None,2250.977293,None,,,,,,,,,,,,,,,,,,,,,,,,,,,,,,,,,NC3a,1,2019_Dec_02_1656,ProdSingRedo,3.2.4,59.88876824
5,0,5,0,,,,,,,,,,,,,,,,,,,,,,,,,,,,2255.495566,None,bright,aloud,yellow,55,29,2253.496358,None,None,2253.496358,None,,,,,,,,,,,,,,,,,,,,,,,,,,,,,,,,,NC3a,1,2019_Dec_02_1656,ProdSingRedo,3.2.4,59.88876824
6,0,6,0,,,,,,,,,,,,,,,,,,,,,,,,,,,,2258.013006,None,government,sing,red,15,139,2256.017634,None,None,2256.017634,None,,,,,,,,,,,,,,,,,,,,,,,,,,,,,,,,,NC3a,1,2019_Dec_02_1656,ProdSingRedo,3.2.4,59.88876824
7,0,7,0,,,,,,,,,,,,,,,,,,,,,,,,,,,,2260.530388,None,order,aloud,yellow,48,207,2258.529783,None,None,2258.529783,None,,,,,,,,,,,,,,,,,,,,,,,,,,,,,,,,,NC3a,1,2019_Dec_02_1656,ProdSingRedo,3.2.4,59.88876824
8,0,8,0,,,,,,,,,,,,,,,,,,,,,,,,,,,,2263.04787,None,store,aloud,yellow,53,305,2261.047198,None,None,2261.047198,None,,,,,,,,,,,,,,,,,,,,,,,,,,,,,,,,,NC3a,1,2019_Dec_02_1656,ProdSingRedo,3.2.4,59.88876824
9,0,9,0,,,,,,,,,,,,,,,,,,,,,,,,,,,,2265.565322,None,service,silent,blue,82,280,2263.564595,None,None,2263.564595,None,,,,,,,,,,,,,,,,,,,,,,,,,,,,,,,,,NC3a,1,2019_Dec_02_1656,ProdSingRedo,3.2.4,59.88876824
10,0,10,0,,,,,,,,,,,,,,,,,,,,,,,,,,,,2268.082747,None,under,sing,red,22,343,2266.08209,None,None,2266.08209,None,,,,,,,,,,,,,,,,,,,,,,,,,,,,,,,,,NC3a,1,2019_Dec_02_1656,ProdSingRedo,3.2.4,59.88876824
11,0,11,0,,,,,,,,,,,,,,,,,,,,,,,,,,,,2270.600186,None,passage,aloud,yellow,47,212,2268.599539,None,None,2268.599539,None,,,,,,,,,,,,,,,,,,,,,,,,,,,,,,,,,NC3a,1,2019_Dec_02_1656,ProdSingRedo,3.2.4,59.88876824
12,0,12,0,,,,,,,,,,,,,,,,,,,,,,,,,,,,2273.11756,None,block,silent,blue,88,25,2271.117202,None,None,2271.117202,None,,,,,,,,,,,,,,,,,,,,,,,,,,,,,,,,,NC3a,1,2019_Dec_02_1656,ProdSingRedo,3.2.4,59.88876824
13,0,13,0,,,,,,,,,,,,,,,,,,,,,,,,,,,,2275.635002,None,sight,sing,red,23,286,2273.634393,None,None,2273.634393,None,,,,,,,,,,,,,,,,,,,,,,,,,,,,,,,,,NC3a,1,2019_Dec_02_1656,ProdSingRedo,3.2.4,59.88876824
14,0,14,0,,,,,,,,,,,,,,,,,,,,,,,,,,,,2278.15251,None,community,sing,red,1,63,2276.151705,None,None,2276.151705,None,,,,,,,,,,,,,,,,,,,,,,,,,,,,,,,,,NC3a,1,2019_Dec_02_1656,ProdSingRedo,3.2.4,59.88876824
15,0,15,0,,,,,,,,,,,,,,,,,,,,,,,,,,,,2280.669975,None,management,sing,red,14,177,2278.669173,None,None,2278.669173,None,,,,,,,,,,,,,,,,,,,,,,,,,,,,,,,,,NC3a,1,2019_Dec_02_1656,ProdSingRedo,3.2.4,59.88876824
16,0,16,0,,,,,,,,,,,,,,,,,,,,,,,,,,,,2283.187372,None,scale,aloud,yellow,40,272,2281.186726,None,None,2281.186726,None,,,,,,,,,,,,,,,,,,,,,,,,,,,,,,,,,NC3a,1,2019_Dec_02_1656,ProdSingRedo,3.2.4,59.88876824
17,0,17,0,,,,,,,,,,,,,,,,,,,,,,,,,,,,2285.704813,None,second,aloud,yellow,58,278,2283.704171,None,None,2283.704171,None,,,,,,,,,,,,,,,,,,,,,,,,,,,,,,,,,NC3a,1,2019_Dec_02_1656,ProdSingRedo,3.2.4,59.88876824
18,0,18,0,,,,,,,,,,,,,,,,,,,,,,,,,,,,2288.222251,None,south,aloud,yellow,56,296,2286.221593,None,None,2286.221593,None,,,,,,,,,,,,,,,,,,,,,,,,,,,,,,,,,NC3a,1,2019_Dec_02_1656,ProdSingRedo,3.2.4,59.88876824
19,0,19,0,,,,,,,,,,,,,,,,,,,,,,,,,,,,2290.739691,None,waste,aloud,yellow,37,350,2288.739025,None,None,2288.739025,None,,,,,,,,,,,,,,,,,,,,,,,,,,,,,,,,,NC3a,1,2019_Dec_02_1656,ProdSingRedo,3.2.4,59.88876824
20,0,20,0,,,,,,,,,,,,,,,,,,,,,,,,,,,,2293.25711,None,crowd,aloud,yellow,54,81,2291.256472,None,None,2291.256472,None,,,,,,,,,,,,,,,,,,,,,,,,,,,,,,,,,NC3a,1,2019_Dec_02_1656,ProdSingRedo,3.2.4,59.88876824
21,0,21,0,,,,,,,,,,,,,,,,,,,,,,,,,,,,2295.774562,None,state,silent,blue,77,303,2293.773877,None,None,2293.773877,None,,,,,,,,,,,,,,,,,,,,,,,,,,,,,,,,,NC3a,1,2019_Dec_02_1656,ProdSingRedo,3.2.4,59.88876824
22,0,22,0,,,,,,,,,,,,,,,,,,,,,,,,,,,,2298.29199,None,fight,silent,blue,60,127,2296.291339,None,None,2296.291339,None,,,,,,,,,,,,,,,,,,,,,,,,,,,,,,,,,NC3a,1,2019_Dec_02_1656,ProdSingRedo,3.2.4,59.88876824
23,0,23,0,,,,,,,,,,,,,,,,,,,,,,,,,,,,2300.809442,None,victory,sing,red,11,346,2298.808735,None,None,2298.808735,None,,,,,,,,,,,,,,,,,,,,,,,,,,,,,,,,,NC3a,1,2019_Dec_02_1656,ProdSingRedo,3.2.4,59.88876824
24,0,24,0,,,,,,,,,,,,,,,,,,,,,,,,,,,,2303.326855,None,build,aloud,yellow,31,35,2301.326196,None,None,2301.326196,None,,,,,,,,,,,,,,,,,,,,,,,,,,,,,,,,,NC3a,1,2019_Dec_02_1656,ProdSingRedo,3.2.4,59.88876824
25,0,25,0,,,,,,,,,,,,,,,,,,,,,,,,,,,,2305.844335,None,discovery,silent,blue,66,95,2303.846237,None,None,2303.846237,None,,,,,,,,,,,,,,,,,,,,,,,,,,,,,,,,,NC3a,1,2019_Dec_02_1656,ProdSingRedo,3.2.4,59.88876824
26,0,26,0,,,,,,,,,,,,,,,,,,,,,,,,,,,,2308.361783,None,empty,sing,red,17,112,2306.360985,None,None,2306.360985,None,,,,,,,,,,,,,,,,,,,,,,,,,,,,,,,,,NC3a,1,2019_Dec_02_1656,ProdSingRedo,3.2.4,59.88876824
27,0,27,0,,,,,,,,,,,,,,,,,,,,,,,,,,,,2310.879175,None,meeting,sing,red,10,187,2308.878556,None,None,2308.878556,None,,,,,,,,,,,,,,,,,,,,,,,,,,,,,,,,,NC3a,1,2019_Dec_02_1656,ProdSingRedo,3.2.4,59.88876824
28,0,28,0,,,,,,,,,,,,,,,,,,,,,,,,,,,,2313.396634,None,whole,silent,blue,75,355,2311.395973,None,None,2311.395973,None,,,,,,,,,,,,,,,,,,,,,,,,,,,,,,,,,NC3a,1,2019_Dec_02_1656,ProdSingRedo,3.2.4,59.88876824
29,0,29,0,,,,,,,,,,,,,,,,,,,,,,,,,,,,2315.91408,None,travel,aloud,yellow,44,338,2313.913206,None,None,2313.913206,None,,,,,,,,,,,,,,,,,,,,,,,,,,,,,,,,,NC3a,1,2019_Dec_02_1656,ProdSingRedo,3.2.4,59.88876824
30,0,30,0,,,,,,,,,,,,,,,,,,,,,,,,,,,,2318.43153,None,light,sing,red,13,171,2316.430841,None,None,2316.430841,None,,,,,,,,,,,,,,,,,,,,,,,,,,,,,,,,,NC3a,1,2019_Dec_02_1656,ProdSingRedo,3.2.4,59.88876824
31,0,31,0,,,,,,,,,,,,,,,,,,,,,,,,,,,,2320.948933,None,music,silent,blue,79,196,2318.948302,None,None,2318.948302,None,,,,,,,,,,,,,,,,,,,,,,,,,,,,,,,,,NC3a,1,2019_Dec_02_1656,ProdSingRedo,3.2.4,59.88876824
32,0,32,0,,,,,,,,,,,,,,,,,,,,,,,,,,,,2323.466392,None,nature,sing,red,28,200,2321.465727,None,None,2321.465727,None,,,,,,,,,,,,,,,,,,,,,,,,,,,,,,,,,NC3a,1,2019_Dec_02_1656,ProdSingRedo,3.2.4,59.88876824
33,0,33,0,,,,,,,,,,,,,,,,,,,,,,,,,,,,2325.983788,None,health,aloud,yellow,41,149,2323.983177,None,None,2323.983177,None,,,,,,,,,,,,,,,,,,,,,,,,,,,,,,,,,NC3a,1,2019_Dec_02_1656,ProdSingRedo,3.2.4,59.88876824
34,0,34,0,,,,,,,,,,,,,,,,,,,,,,,,,,,,2328.501254,None,phrase,sing,red,18,220,2326.500615,None,None,2326.500615,None,,,,,,,,,,,,,,,,,,,,,,,,,,,,,,,,,NC3a,1,2019_Dec_02_1656,ProdSingRedo,3.2.4,59.88876824
35,0,35,0,,,,,,,,,,,,,,,,,,,,,,,,,,,,2331.018669,None,pretty,silent,blue,73,233,2329.018081,None,None,2329.018081,None,,,,,,,,,,,,,,,,,,,,,,,,,,,,,,,,,NC3a,1,2019_Dec_02_1656,ProdSingRedo,3.2.4,59.88876824
36,0,36,0,,,,,,,,,,,,,,,,,,,,,,,,,,,,2333.536054,None,review,aloud,yellow,32,263,2331.535495,None,None,2331.535495,None,,,,,,,,,,,,,,,,,,,,,,,,,,,,,,,,,NC3a,1,2019_Dec_02_1656,ProdSingRedo,3.2.4,59.88876824
37,0,37,0,,,,,,,,,,,,,,,,,,,,,,,,,,,,2336.053599,None,agency,silent,blue,64,4,2334.05291,None,None,2334.05291,None,,,,,,,,,,,,,,,,,,,,,,,,,,,,,,,,,NC3a,1,2019_Dec_02_1656,ProdSingRedo,3.2.4,59.88876824
38,0,38,0,,,,,,,,,,,,,,,,,,,,,,,,,,,,2338.571003,None,collection,aloud,yellow,59,54,2336.570365,None,None,2336.570365,None,,,,,,,,,,,,,,,,,,,,,,,,,,,,,,,,,NC3a,1,2019_Dec_02_1656,ProdSingRedo,3.2.4,59.88876824
39,0,39,0,,,,,,,,,,,,,,,,,,,,,,,,,,,,2341.088457,None,space,sing,red,2,297,2339.087783,None,None,2339.087783,None,,,,,,,,,,,,,,,,,,,,,,,,,,,,,,,,,NC3a,1,2019_Dec_02_1656,ProdSingRedo,3.2.4,59.88876824
40,0,40,0,,,,,,,,,,,,,,,,,,,,,,,,,,,,2343.605916,None,background,silent,blue,68,16,2341.605723,None,None,2341.605723,None,,,,,,,,,,,,,,,,,,,,,,,,,,,,,,,,,NC3a,1,2019_Dec_02_1656,ProdSingRedo,3.2.4,59.88876824
41,0,41,0,,,,,,,,,,,,,,,,,,,,,,,,,,,,2346.123329,None,beauty,aloud,yellow,49,18,2344.122481,None,None,2344.122481,None,,,,,,,,,,,,,,,,,,,,,,,,,,,,,,,,,NC3a,1,2019_Dec_02_1656,ProdSingRedo,3.2.4,59.88876824
42,0,42,0,,,,,,,,,,,,,,,,,,,,,,,,,,,,2348.64076,None,trash,silent,blue,84,337,2346.640122,None,None,2346.640122,None,,,,,,,,,,,,,,,,,,,,,,,,,,,,,,,,,NC3a,1,2019_Dec_02_1656,ProdSingRedo,3.2.4,59.88876824
43,0,43,0,,,,,,,,,,,,,,,,,,,,,,,,,,,,2351.158229,None,pressure,aloud,yellow,52,232,2349.157432,None,None,2349.157432,None,,,,,,,,,,,,,,,,,,,,,,,,,,,,,,,,,NC3a,1,2019_Dec_02_1656,ProdSingRedo,3.2.4,59.88876824
44,0,44,0,,,,,,,,,,,,,,,,,,,,,,,,,,,,2353.675614,None,month,sing,red,27,193,2351.67498,None,None,2351.67498,None,,,,,,,,,,,,,,,,,,,,,,,,,,,,,,,,,NC3a,1,2019_Dec_02_1656,ProdSingRedo,3.2.4,59.88876824
45,0,45,0,,,,,,,,,,,,,,,,,,,,,,,,,,,,2356.193024,None,mechanical,silent,blue,74,185,2354.192446,None,None,2354.192446,None,,,,,,,,,,,,,,,,,,,,,,,,,,,,,,,,,NC3a,1,2019_Dec_02_1656,ProdSingRedo,3.2.4,59.88876824
46,0,46,0,,,,,,,,,,,,,,,,,,,,,,,,,,,,2358.71053,None,measure,sing,red,25,184,2356.709871,None,None,2356.709871,None,,,,,,,,,,,,,,,,,,,,,,,,,,,,,,,,,NC3a,1,2019_Dec_02_1656,ProdSingRedo,3.2.4,59.88876824
47,0,47,0,,,,,,,,,,,,,,,,,,,,,,,,,,,,2361.227931,None,region,sing,red,12,256,2359.22732,None,None,2359.22732,None,,,,,,,,,,,,,,,,,,,,,,,,,,,,,,,,,NC3a,1,2019_Dec_02_1656,ProdSingRedo,3.2.4,59.88876824
48,0,48,0,,,,,,,,,,,,,,,,,,,,,,,,,,,,2363.74542,None,accident,sing,red,7,0,2361.744749,None,None,2361.744749,None,,,,,,,,,,,,,,,,,,,,,,,,,,,,,,,,,NC3a,1,2019_Dec_02_1656,ProdSingRedo,3.2.4,59.88876824
49,0,49,0,,,,,,,,,,,,,,,,,,,,,,,,,,,,2366.262869,None,swift,silent,blue,76,320,2364.262205,None,None,2364.262205,None,,,,,,,,,,,,,,,,,,,,,,,,,,,,,,,,,NC3a,1,2019_Dec_02_1656,ProdSingRedo,3.2.4,59.88876824
50,0,50,0,,,,,,,,,,,,,,,,,,,,,,,,,,,,2368.78029,None,personnel,aloud,yellow,35,219,2366.779595,None,None,2366.779595,None,,,,,,,,,,,,,,,,,,,,,,,,,,,,,,,,,NC3a,1,2019_Dec_02_1656,ProdSingRedo,3.2.4,59.88876824
51,0,51,0,,,,,,,,,,,,,,,,,,,,,,,,,,,,2371.297729,None,problem,silent,blue,80,238,2369.296943,None,None,2369.296943,None,,,,,,,,,,,,,,,,,,,,,,,,,,,,,,,,,NC3a,1,2019_Dec_02_1656,ProdSingRedo,3.2.4,59.88876824
52,0,52,0,,,,,,,,,,,,,,,,,,,,,,,,,,,,2373.815164,None,danger,sing,red,4,85,2371.814497,None,None,2371.814497,None,,,,,,,,,,,,,,,,,,,,,,,,,,,,,,,,,NC3a,1,2019_Dec_02_1656,ProdSingRedo,3.2.4,59.88876824
53,0,53,0,,,,,,,,,,,,,,,,,,,,,,,,,,,,2376.332551,None,distance,silent,blue,86,100,2374.331835,None,None,2374.331835,None,,,,,,,,,,,,,,,,,,,,,,,,,,,,,,,,,NC3a,1,2019_Dec_02_1656,ProdSingRedo,3.2.4,59.88876824
54,0,54,0,,,,,,,,,,,,,,,,,,,,,,,,,,,,2378.850036,None,minute,silent,blue,72,192,2376.849391,None,None,2376.849391,None,,,,,,,,,,,,,,,,,,,,,,,,,,,,,,,,,NC3a,1,2019_Dec_02_1656,ProdSingRedo,3.2.4,59.88876824
55,0,55,0,,,,,,,,,,,,,,,,,,,,,,,,,,,,2381.367461,None,weight,silent,blue,65,353,2379.366796,None,None,2379.366796,None,,,,,,,,,,,,,,,,,,,,,,,,,,,,,,,,,NC3a,1,2019_Dec_02_1656,ProdSingRedo,3.2.4,59.88876824
56,0,56,0,,,,,,,,,,,,,,,,,,,,,,,,,,,,2383.884919,None,short,sing,red,16,285,2381.884265,None,None,2381.884265,None,,,,,,,,,,,,,,,,,,,,,,,,,,,,,,,,,NC3a,1,2019_Dec_02_1656,ProdSingRedo,3.2.4,59.88876824
57,0,57,0,,,,,,,,,,,,,,,,,,,,,,,,,,,,2386.402359,None,motion,silent,blue,62,194,2384.401716,None,None,2384.401716,None,,,,,,,,,,,,,,,,,,,,,,,,,,,,,,,,,NC3a,1,2019_Dec_02_1656,ProdSingRedo,3.2.4,59.88876824
58,0,58,0,,,,,,,,,,,,,,,,,,,,,,,,,,,,2388.919784,None,guest,sing,red,19,146,2386.919143,None,None,2386.919143,None,,,,,,,,,,,,,,,,,,,,,,,,,,,,,,,,,NC3a,1,2019_Dec_02_1656,ProdSingRedo,3.2.4,59.88876824
59,0,59,0,,,,,,,,,,,,,,,,,,,,,,,,,,,,2391.437247,None,resistance,sing,red,21,262,2389.436555,None,None,2389.436555,None,,,,,,,,,,,,,,,,,,,,,,,,,,,,,,,,,NC3a,1,2019_Dec_02_1656,ProdSingRedo,3.2.4,59.88876824
60,0,60,0,,,,,,,,,,,,,,,,,,,,,,,,,,,,2393.954677,None,bicycle,aloud,yellow,51,21,2391.954198,None,None,2391.954198,None,,,,,,,,,,,,,,,,,,,,,,,,,,,,,,,,,NC3a,1,2019_Dec_02_1656,ProdSingRedo,3.2.4,59.88876824
61,0,61,0,,,,,,,,,,,,,,,,,,,,,,,,,,,,2396.4721,None,broad,aloud,yellow,45,31,2394.471412,None,None,2394.471412,None,,,,,,,,,,,,,,,,,,,,,,,,,,,,,,,,,NC3a,1,2019_Dec_02_1656,ProdSingRedo,3.2.4,59.88876824
62,0,62,0,,,,,,,,,,,,,,,,,,,,,,,,,,,,2398.989529,None,population,silent,blue,85,227,2396.988871,None,None,2396.988871,None,,,,,,,,,,,,,,,,,,,,,,,,,,,,,,,,,NC3a,1,2019_Dec_02_1656,ProdSingRedo,3.2.4,59.88876824
63,0,63,0,,,,,,,,,,,,,,,,,,,,,,,,,,,,2401.506975,None,history,sing,red,0,153,2399.506216,None,None,2399.506216,None,,,,,,,,,,,,,,,,,,,,,,,,,,,,,,,,,NC3a,1,2019_Dec_02_1656,ProdSingRedo,3.2.4,59.88876824
64,0,64,0,,,,,,,,,,,,,,,,,,,,,,,,,,,,2404.007669,None,listen,sing,red,29,172,2402.007601,None,None,2402.007601,None,,,,,,,,,,,,,,,,,,,,,,,,,,,,,,,,,NC3a,1,2019_Dec_02_1656,ProdSingRedo,3.2.4,59.88876824
65,0,65,0,,,,,,,,,,,,,,,,,,,,,,,,,,,,2406.525205,None,reading,silent,blue,67,254,2404.524519,None,None,2404.524519,None,,,,,,,,,,,,,,,,,,,,,,,,,,,,,,,,,NC3a,1,2019_Dec_02_1656,ProdSingRedo,3.2.4,59.88876824
66,0,66,0,,,,,,,,,,,,,,,,,,,,,,,,,,,,2409.042636,None,working,aloud,yellow,50,357,2407.041885,None,None,2407.041885,None,,,,,,,,,,,,,,,,,,,,,,,,,,,,,,,,,NC3a,1,2019_Dec_02_1656,ProdSingRedo,3.2.4,59.88876824
67,0,67,0,,,,,,,,,,,,,,,,,,,,,,,,,,,,2411.560065,None,character,silent,blue,83,46,2409.559377,None,None,2409.559377,None,,,,,,,,,,,,,,,,,,,,,,,,,,,,,,,,,NC3a,1,2019_Dec_02_1656,ProdSingRedo,3.2.4,59.88876824
68,0,68,0,,,,,,,,,,,,,,,,,,,,,,,,,,,,2414.077483,None,brief,aloud,yellow,42,28,2412.076844,None,None,2412.076844,None,,,,,,,,,,,,,,,,,,,,,,,,,,,,,,,,,NC3a,1,2019_Dec_02_1656,ProdSingRedo,3.2.4,59.88876824
69,0,69,0,,,,,,,,,,,,,,,,,,,,,,,,,,,,2416.594933,None,court,sing,red,9,75,2414.594283,None,None,2414.594283,None,,,,,,,,,,,,,,,,,,,,,,,,,,,,,,,,,NC3a,1,2019_Dec_02_1656,ProdSingRedo,3.2.4,59.88876824
70,0,70,0,,,,,,,,,,,,,,,,,,,,,,,,,,,,2419.112339,None,count,aloud,yellow,30,72,2417.11171,None,None,2417.11171,None,,,,,,,,,,,,,,,,,,,,,,,,,,,,,,,,,NC3a,1,2019_Dec_02_1656,ProdSingRedo,3.2.4,59.88876824
71,0,71,0,,,,,,,,,,,,,,,,,,,,,,,,,,,,2421.629806,None,career,aloud,yellow,46,42,2419.629181,None,None,2419.629181,None,,,,,,,,,,,,,,,,,,,,,,,,,,,,,,,,,NC3a,1,2019_Dec_02_1656,ProdSingRedo,3.2.4,59.88876824
72,0,72,0,,,,,,,,,,,,,,,,,,,,,,,,,,,,2424.147268,None,turkey,aloud,yellow,43,342,2422.14665,None,None,2422.14665,None,,,,,,,,,,,,,,,,,,,,,,,,,,,,,,,,,NC3a,1,2019_Dec_02_1656,ProdSingRedo,3.2.4,59.88876824
73,0,73,0,,,,,,,,,,,,,,,,,,,,,,,,,,,,2426.664699,None,comfort,silent,blue,87,59,2424.664056,None,None,2424.664056,None,,,,,,,,,,,,,,,,,,,,,,,,,,,,,,,,,NC3a,1,2019_Dec_02_1656,ProdSingRedo,3.2.4,59.88876824
74,0,74,0,,,,,,,,,,,,,,,,,,,,,,,,,,,,2429.182138,None,cover,sing,red,8,77,2427.181298,None,None,2427.181298,None,,,,,,,,,,,,,,,,,,,,,,,,,,,,,,,,,NC3a,1,2019_Dec_02_1656,ProdSingRedo,3.2.4,59.88876824
75,0,75,0,,,,,,,,,,,,,,,,,,,,,,,,,,,,2431.699564,None,sunset,sing,red,20,315,2429.698917,None,None,2429.698917,None,,,,,,,,,,,,,,,,,,,,,,,,,,,,,,,,,NC3a,1,2019_Dec_02_1656,ProdSingRedo,3.2.4,59.88876824
76,0,76,0,,,,,,,,,,,,,,,,,,,,,,,,,,,,2434.217015,None,smooth,silent,blue,63,292,2432.216331,None,None,2432.216331,None,,,,,,,,,,,,,,,,,,,,,,,,,,,,,,,,,NC3a,1,2019_Dec_02_1656,ProdSingRedo,3.2.4,59.88876824
77,0,77,0,,,,,,,,,,,,,,,,,,,,,,,,,,,,2436.734439,None,junior,silent,blue,71,167,2434.736136,None,None,2434.736136,None,,,,,,,,,,,,,,,,,,,,,,,,,,,,,,,,,NC3a,1,2019_Dec_02_1656,ProdSingRedo,3.2.4,59.88876824
78,0,78,0,,,,,,,,,,,,,,,,,,,,,,,,,,,,2439.251902,None,cross,sing,red,3,80,2437.251183,None,None,2437.251183,None,,,,,,,,,,,,,,,,,,,,,,,,,,,,,,,,,NC3a,1,2019_Dec_02_1656,ProdSingRedo,3.2.4,59.88876824
79,0,79,0,,,,,,,,,,,,,,,,,,,,,,,,,,,,2441.769307,None,blind,sing,red,24,24,2439.768677,None,None,2439.768677,None,,,,,,,,,,,,,,,,,,,,,,,,,,,,,,,,,NC3a,1,2019_Dec_02_1656,ProdSingRedo,3.2.4,59.88876824
80,0,80,0,,,,,,,,,,,,,,,,,,,,,,,,,,,,2444.286795,None,society,silent,blue,81,293,2442.286131,None,None,2442.286131,None,,,,,,,,,,,,,,,,,,,,,,,,,,,,,,,,,NC3a,1,2019_Dec_02_1656,ProdSingRedo,3.2.4,59.88876824
81,0,81,0,,,,,,,,,,,,,,,,,,,,,,,,,,,,2446.804202,None,graduate,silent,blue,70,141,2444.803514,None,None,2444.803514,None,,,,,,,,,,,,,,,,,,,,,,,,,,,,,,,,,NC3a,1,2019_Dec_02_1656,ProdSingRedo,3.2.4,59.88876824
82,0,82,0,,,,,,,,,,,,,,,,,,,,,,,,,,,,2449.321594,None,length,aloud,yellow,57,169,2447.32098,None,None,2447.32098,None,,,,,,,,,,,,,,,,,,,,,,,,,,,,,,,,,NC3a,1,2019_Dec_02_1656,ProdSingRedo,3.2.4,59.88876824
83,0,83,0,,,,,,,,,,,,,,,,,,,,,,,,,,,,2451.839101,None,finance,aloud,yellow,34,129,2449.838416,None,None,2449.838416,None,,,,,,,,,,,,,,,,,,,,,,,,,,,,,,,,,NC3a,1,2019_Dec_02_1656,ProdSingRedo,3.2.4,59.88876824
84,0,84,0,,,,,,,,,,,,,,,,,,,,,,,,,,,,2454.356504,None,patient,sing,red,5,213,2452.355872,None,None,2452.355872,None,,,,,,,,,,,,,,,,,,,,,,,,,,,,,,,,,NC3a,1,2019_Dec_02_1656,ProdSingRedo,3.2.4,59.88876824
85,0,85,0,,,,,,,,,,,,,,,,,,,,,,,,,,,,2456.87398,None,permit,silent,blue,89,218,2454.873181,None,None,2454.873181,None,,,,,,,,,,,,,,,,,,,,,,,,,,,,,,,,,NC3a,1,2019_Dec_02_1656,ProdSingRedo,3.2.4,59.88876824
86,0,86,0,,,,,,,,,,,,,,,,,,,,,,,,,,,,2459.391396,None,drink,aloud,yellow,33,105,2457.390651,None,None,2457.390651,None,,,,,,,,,,,,,,,,,,,,,,,,,,,,,,,,,NC3a,1,2019_Dec_02_1656,ProdSingRedo,3.2.4,59.88876824
87,0,87,0,,,,,,,,,,,,,,,,,,,,,,,,,,,,2461.908845,None,subject,aloud,yellow,38,312,2459.908219,None,None,2459.908219,None,,,,,,,,,,,,,,,,,,,,,,,,,,,,,,,,,NC3a,1,2019_Dec_02_1656,ProdSingRedo,3.2.4,59.88876824
88,0,88,0,,,,,,,,,,,,,,,,,,,,,,,,,,,,2464.409584,None,mayor,silent,blue,78,183,2462.408677,None,None,2462.408677,None,,,,,,,,,,,,,,,,,,,,,,,,,,,,,,,,,NC3a,1,2019_Dec_02_1656,ProdSingRedo,3.2.4,59.88876824
89,0,89,0,,,,,,,,,,,,,,,,,,,,,,,,,,,,2466.927035,None,debate,sing,red,6,87,2464.926171,None,None,2464.926171,None,,,,,,,,,,,,,,,,,,,,,,,,,,,,,,,,,NC3a,1,2019_Dec_02_1656,ProdSingRedo,3.2.4,59.88876824
,,,,,,,,,,,,,,,,,,,,,,,,,,,,,,,,,,,,,,,,,,,2467.427171,None,k,95.52905415,2467.427171,None,,,,,,,,,,,,,,,,,,,,,,,,,,,NC3a,1,2019_Dec_02_1656,ProdSingRedo,3.2.4,59.88876824
,,,,0,0,0,0,,,,,,,,,,,,,,,,,,,,,,,,2575.27687,None,,,,,,,,,,,,,,,,,center,new_c,white,0,165,44,2563.492321,None,2563.492321,None,2,5.983361376,2563.492321,None,2569.515535,None,2570.041825,None,2570.041825,None,n,5.193876986,2570.041825,None,,,NC3a,1,2019_Dec_02_1656,ProdSingRedo,3.2.4,59.88876824
,,,,1,0,1,0,,,,,,,,,,,,,,,,,,,,,,,,2582.195647,None,,,,,,,,,,,,,,,,,raise,aloud,white,1,36,250,2575.79354,None,2575.79354,None,6,3.601518935,2575.79354,None,2579.431036,None,2579.944966,None,2579.944966,None,f,2.201989482,2579.944966,None,,,NC3a,1,2019_Dec_02_1656,ProdSingRedo,3.2.4,59.88876824
,,,,2,0,2,0,,,,,,,,,,,,,,,,,,,,,,,,2589.981395,None,,,,,,,,,,,,,,,,,trend,new_a,white,2,103,340,2582.695642,None,2582.695642,None,3,3.627366339,2582.695642,None,2586.364268,None,2586.880394,None,2586.880394,None,n,3.066121583,2586.880394,None,,,NC3a,1,2019_Dec_02_1656,ProdSingRedo,3.2.4,59.88876824
,,,,3,0,3,0,,,,,,,,,,,,,,,,,,,,,,,,2597.216934,None,,,,,,,,,,,,,,,,,enemy,new_c,white,3,151,113,2590.498769,None,2590.498769,None,4,3.831472503,2590.498769,None,2594.370577,None,2594.882736,None,2594.882736,None,f,2.295286449,2594.882736,None,,,NC3a,1,2019_Dec_02_1656,ProdSingRedo,3.2.4,59.88876824
,,,,4,0,4,0,,,,,,,,,,,,,,,,,,,,,,,,2603.818962,None,,,,,,,,,,,,,,,,,swift,silent,white,4,76,320,2597.733767,None,2597.733767,None,1,3.267916689,2597.733767,None,2601.055057,None,2601.568282,None,2601.568282,None,n,2.209609661,2601.568282,None,,,NC3a,1,2019_Dec_02_1656,ProdSingRedo,3.2.4,59.88876824
,,,,5,0,5,0,,,,,,,,,,,,,,,,,,,,,,,,2610.871136,None,,,,,,,,,,,,,,,,,store,aloud,white,5,53,305,2604.335769,None,2604.335769,None,4,4.097584134,2604.335769,None,2608.470667,None,2608.987208,None,2608.987208,None,f,1.845976718,2608.987208,None,,,NC3a,1,2019_Dec_02_1656,ProdSingRedo,3.2.4,59.88876824
,,,,6,0,6,0,,,,,,,,,,,,,,,,,,,,,,,,2618.523446,None,,,,,,,,,,,,,,,,,block,silent,white,6,88,25,2611.390453,None,2611.390453,None,3,4.034421116,2611.390453,None,2615.48033,None,2615.989283,None,2615.989283,None,n,2.499401009,2615.989283,None,,,NC3a,1,2019_Dec_02_1656,ProdSingRedo,3.2.4,59.88876824
,,,,7,0,7,0,,,,,,,,,,,,,,,,,,,,,,,,2624.225219,None,,,,,,,,,,,,,,,,,track,new_c,white,7,152,334,2619.041262,None,2619.041262,None,6,3.031277193,2619.041262,None,2622.115935,None,2622.624597,None,2622.624597,None,f,1.560011009,2622.624597,None,,,NC3a,1,2019_Dec_02_1656,ProdSingRedo,3.2.4,59.88876824
,,,,8,0,8,0,,,,,,,,,,,,,,,,,,,,,,,,2631.027287,None,,,,,,,,,,,,,,,,,clear,new_c,white,8,150,52,2624.742037,None,2624.742037,None,1,1.882241145,2624.742037,None,2626.66344,None,2627.17612,None,2627.17612,None,f,3.808490986,2627.17612,None,,,NC3a,1,2019_Dec_02_1656,ProdSingRedo,3.2.4,59.88876824
,,,,9,0,9,0,,,,,,,,,,,,,,,,,,,,,,,,2640.880302,None,,,,,,,,,,,,,,,,,passage,aloud,white,9,47,212,2631.544133,None,2631.544133,None,1,4.191830591,2631.544133,None,2635.784214,None,2636.295597,None,2636.295597,None,n,4.544057834,2636.295597,None,,,NC3a,1,2019_Dec_02_1656,ProdSingRedo,3.2.4,59.88876824
,,,,10,0,10,0,,,,,,,,,,,,,,,,,,,,,,,,2647.899143,None,,,,,,,,,,,,,,,,,close,new_c,white,10,175,53,2641.397154,None,2641.397154,None,2,3.57817168,2641.397154,None,2645.016509,None,2645.531708,None,2645.531708,None,n,2.323885912,2645.531708,None,,,NC3a,1,2019_Dec_02_1656,ProdSingRedo,3.2.4,59.88876824
,,,,11,0,11,0,,,,,,,,,,,,,,,,,,,,,,,,2655.301404,None,,,,,,,,,,,,,,,,,angle,new_c,white,11,155,7,2648.415973,None,2648.415973,None,2,3.998709651,2648.415973,None,2652.452333,None,2652.967338,None,2652.967338,None,n,2.287074121,2652.967338,None,,,NC3a,1,2019_Dec_02_1656,ProdSingRedo,3.2.4,59.88876824
,,,,12,0,12,0,,,,,,,,,,,,,,,,,,,,,,,,2661.036497,None,,,,,,,,,,,,,,,,,commercial,new_c,white,12,156,61,2655.818164,None,2655.818164,None,6,2.396165341,2655.818164,None,2658.258208,None,2658.769057,None,2658.769057,None,r,2.229019316,2658.769057,None,,,NC3a,1,2019_Dec_02_1656,ProdSingRedo,3.2.4,59.88876824
,,,,13,0,13,0,,,,,,,,,,,,,,,,,,,,,,,,2667.588513,None,,,,,,,,,,,,,,,,,beauty,aloud,white,13,49,18,2661.556115,None,2661.556115,None,6,2.825736687,2661.556115,None,2664.423949,None,2664.937696,None,2664.937696,None,r,2.603944754,2664.937696,None,,,NC3a,1,2019_Dec_02_1656,ProdSingRedo,3.2.4,59.88876824
,,,,14,0,14,0,,,,,,,,,,,,,,,,,,,,,,,,2672.273263,None,,,,,,,,,,,,,,,,,congress,new_c,white,14,164,67,2668.105215,None,2668.105215,None,1,1.924699805,2668.105215,None,2670.078039,None,2670.589332,None,2670.589332,None,n,1.640954342,2670.589332,None,,,NC3a,1,2019_Dec_02_1656,ProdSingRedo,3.2.4,59.88876824
,,,,15,0,15,0,,,,,,,,,,,,,,,,,,,,,,,,2677.191431,None,,,,,,,,,,,,,,,,,finance,aloud,white,15,34,129,2672.790078,None,2672.790078,None,6,2.1112135,2672.790078,None,2674.944106,None,2675.457583,None,2675.457583,None,r,1.692015015,2675.457583,None,,,NC3a,1,2019_Dec_02_1656,ProdSingRedo,3.2.4,59.88876824
,,,,16,0,16,0,,,,,,,,,,,,,,,,,,,,,,,,2683.076586,None,,,,,,,,,,,,,,,,,piece,new_c,white,16,162,221,2677.708167,None,2677.708167,None,3,2.912724038,2677.708167,None,2680.662986,None,2681.176015,None,2681.176015,None,n,1.86094215,2681.176015,None,,,NC3a,1,2019_Dec_02_1656,ProdSingRedo,3.2.4,59.88876824
,,,,17,0,17,0,,,,,,,,,,,,,,,,,,,,,,,,2688.494967,None,,,,,,,,,,,,,,,,,turkey,aloud,white,17,43,342,2683.595706,None,2683.595706,None,6,2.07316081,2683.595706,None,2685.717161,None,2686.227404,None,2686.227404,None,r,2.225307504,2686.227404,None,,,NC3a,1,2019_Dec_02_1656,ProdSingRedo,3.2.4,59.88876824
,,,,18,0,18,0,,,,,,,,,,,,,,,,,,,,,,,,2695.113622,None,,,,,,,,,,,,,,,,,clean,new_c,white,18,157,51,2689.011604,None,2689.011604,None,4,3.304557428,2689.011604,None,2692.366644,None,2692.879594,None,2692.879594,None,f,2.188624779,2692.879594,None,,,NC3a,1,2019_Dec_02_1656,ProdSingRedo,3.2.4,59.88876824
,,,,19,0,19,0,,,,,,,,,,,,,,,,,,,,,,,,2701.982388,None,,,,,,,,,,,,,,,,,weight,silent,white,19,65,353,2695.630403,None,2695.630403,None,6,2.637383724,2695.630403,None,2698.31483,None,2698.831374,None,2698.831374,None,r,3.11618114,2698.831374,None,,,NC3a,1,2019_Dec_02_1656,ProdSingRedo,3.2.4,59.88876824
,,,,20,0,20,0,,,,,,,,,,,,,,,,,,,,,,,,2708.534389,None,,,,,,,,,,,,,,,,,express,new_b,white,20,122,124,2702.499212,None,2702.499212,None,3,3.440890275,2702.499212,None,2705.988044,None,2706.500425,None,2706.500425,None,f,1.998864531,2706.500425,None,,,NC3a,1,2019_Dec_02_1656,ProdSingRedo,3.2.4,59.88876824
,,,,21,0,21,0,,,,,,,,,,,,,,,,,,,,,,,,2713.269179,None,,,,,,,,,,,,,,,,,health,aloud,white,21,41,149,2709.051073,None,2709.051073,None,6,2.144208359,2709.051073,None,2711.23995,None,2711.752035,None,2711.752035,None,r,1.475191655,2711.752035,None,,,NC3a,1,2019_Dec_02_1656,ProdSingRedo,3.2.4,59.88876824
,,,,22,0,22,0,,,,,,,,,,,,,,,,,,,,,,,,2718.404079,None,,,,,,,,,,,,,,,,,running,silent,white,22,61,268,2713.785812,None,2713.785812,None,3,2.720862347,2713.785812,None,2716.553655,None,2717.070331,None,2717.070331,None,f,1.29260903,2717.070331,None,,,NC3a,1,2019_Dec_02_1656,ProdSingRedo,3.2.4,59.88876824
,,,,23,0,23,0,,,,,,,,,,,,,,,,,,,,,,,,2723.222217,None,,,,,,,,,,,,,,,,,instrument,new_b,white,23,133,163,2718.920808,None,2718.920808,None,1,1.881643709,2718.920808,None,2720.842285,None,2721.354863,None,2721.354863,None,n,1.831474369,2721.354863,None,,,NC3a,1,2019_Dec_02_1656,ProdSingRedo,3.2.4,59.88876824
,,,,24,0,24,0,,,,,,,,,,,,,,,,,,,,,,,,2728.590537,None,,,,,,,,,,,,,,,,,government,sing,white,24,15,139,2723.742655,None,2723.742655,None,6,2.171798931,2723.742655,None,2725.973005,None,2726.47302,None,2726.47302,None,r,2.073898819,2726.47302,None,,,NC3a,1,2019_Dec_02_1656,ProdSingRedo,3.2.4,59.88876824
,,,,25,0,25,0,,,,,,,,,,,,,,,,,,,,,,,,2732.841793,None,,,,,,,,,,,,,,,,,comedy,new_b,white,25,144,58,2729.09046,None,2729.09046,None,1,1.799330101,2729.09046,None,2730.930656,None,2731.441384,None,2731.441384,None,n,1.352371859,2731.441384,None,,,NC3a,1,2019_Dec_02_1656,ProdSingRedo,3.2.4,59.88876824
,,,,26,0,26,0,,,,,,,,,,,,,,,,,,,,,,,,2738.010112,None,,,,,,,,,,,,,,,,,employment,new_c,white,26,167,111,2733.362682,None,2733.362682,None,5,2.623111205,2733.362682,None,2736.030832,None,2736.542925,None,2736.542925,None,f,1.418437462,2736.542925,None,,,NC3a,1,2019_Dec_02_1656,ProdSingRedo,3.2.4,59.88876824
,,,,27,0,27,0,,,,,,,,,,,,,,,,,,,,,,,,2742.328093,None,,,,,,,,,,,,,,,,,answer,new_a,white,27,118,8,2738.526904,None,2738.526904,None,1,1.746341835,2738.526904,None,2740.312122,None,2740.82765,None,2740.82765,None,n,1.453438286,2740.82765,None,,,NC3a,1,2019_Dec_02_1656,ProdSingRedo,3.2.4,59.88876824
,,,,28,0,28,0,,,,,,,,,,,,,,,,,,,,,,,,2747.362956,None,,,,,,,,,,,,,,,,,smooth,silent,white,28,63,292,2742.844902,None,2742.844902,None,3,1.852111551,2742.844902,None,2744.749029,None,2745.262318,None,2745.262318,None,f,2.058846306,2745.262318,None,,,NC3a,1,2019_Dec_02_1656,ProdSingRedo,3.2.4,59.88876824
,,,,29,0,29,0,,,,,,,,,,,,,,,,,,,,,,,,2752.481212,None,,,,,,,,,,,,,,,,,public,new_c,white,29,158,244,2747.881324,None,2747.881324,None,2,1.903312486,2747.881324,None,2749.84689,None,2750.34721,None,2750.34721,None,n,2.093565984,2750.34721,None,,,NC3a,1,2019_Dec_02_1656,ProdSingRedo,3.2.4,59.88876824
,,,,30,0,30,0,,,,,,,,,,,,,,,,,,,,,,,,2757.666118,None,,,,,,,,,,,,,,,,,count,aloud,white,30,30,72,2752.997867,None,2752.997867,None,4,2.74648925,2752.997867,None,2755.78675,None,2756.299019,None,2756.299019,None,f,1.333286579,2756.299019,None,,,NC3a,1,2019_Dec_02_1656,ProdSingRedo,3.2.4,59.88876824
,,,,31,0,31,0,,,,,,,,,,,,,,,,,,,,,,,,2762.100796,None,,,,,,,,,,,,,,,,,travel,aloud,white,31,44,338,2758.187316,None,2758.187316,None,5,2.07678181,2758.187316,None,2760.316779,None,2760.817098,None,2760.817098,None,f,1.246863386,2760.817098,None,,,NC3a,1,2019_Dec_02_1656,ProdSingRedo,3.2.4,59.88876824
,,,,32,0,32,0,,,,,,,,,,,,,,,,,,,,,,,,2766.552175,None,,,,,,,,,,,,,,,,,citizen,new_a,white,32,106,50,2762.62593,None,2762.62593,None,1,2.253832948,2762.62593,None,2764.924166,None,2765.435108,None,2765.435108,None,n,1.068596851,2765.435108,None,,,NC3a,1,2019_Dec_02_1656,ProdSingRedo,3.2.4,59.88876824
,,,,33,0,33,0,,,,,,,,,,,,,,,,,,,,,,,,2770.8702,None,,,,,,,,,,,,,,,,,cover,sing,white,33,8,77,2767.069286,None,2767.069286,None,3,1.946262841,2767.069286,None,2769.056686,None,2769.569744,None,2769.569744,None,f,1.253596897,2769.569744,None,,,NC3a,1,2019_Dec_02_1656,ProdSingRedo,3.2.4,59.88876824
,,,,34,0,34,0,,,,,,,,,,,,,,,,,,,,,,,,2774.587997,None,,,,,,,,,,,,,,,,,suggestion,new_a,white,34,113,314,2771.386754,None,2771.386754,None,1,1.46847867,2771.386754,None,2772.909935,None,2773.42084,None,2773.42084,None,n,1.130288206,2773.42084,None,,,NC3a,1,2019_Dec_02_1656,ProdSingRedo,3.2.4,59.88876824
,,,,35,0,35,0,,,,,,,,,,,,,,,,,,,,,,,,2779.822912,None,,,,,,,,,,,,,,,,,people,new_c,white,35,168,216,2775.104643,None,2775.104643,None,2,2.182474708,2775.104643,None,2777.32641,None,2777.838966,None,2777.838966,None,n,1.944084891,2777.838966,None,,,NC3a,1,2019_Dec_02_1656,ProdSingRedo,3.2.4,59.88876824
,,,,36,0,36,0,,,,,,,,,,,,,,,,,,,,,,,,2784.841126,None,,,,,,,,,,,,,,,,,accident,sing,white,36,7,0,2780.339693,None,2780.339693,None,4,2.475338759,2780.339693,None,2782.862338,None,2783.373982,None,2783.373982,None,f,1.424945497,2783.373982,None,,,NC3a,1,2019_Dec_02_1656,ProdSingRedo,3.2.4,59.88876824
,,,,37,0,37,0,,,,,,,,,,,,,,,,,,,,,,,,2788.608911,None,,,,,,,,,,,,,,,,,device,new_a,white,37,107,93,2785.361378,None,2785.361378,None,1,1.341316038,2785.361378,None,2786.744743,None,2787.258399,None,2787.258399,None,n,1.31599485,2787.258399,None,,,NC3a,1,2019_Dec_02_1656,ProdSingRedo,3.2.4,59.88876824
,,,,38,0,38,0,,,,,,,,,,,,,,,,,,,,,,,,2793.193666,None,,,,,,,,,,,,,,,,,month,sing,white,38,27,193,2789.12576,None,2789.12576,None,3,2.31235239,2789.12576,None,2791.480659,None,2791.993319,None,2791.993319,None,f,1.164683197,2791.993319,None,,,NC3a,1,2019_Dec_02_1656,ProdSingRedo,3.2.4,59.88876824
,,,,39,0,39,0,,,,,,,,,,,,,,,,,,,,,,,,2797.645047,None,,,,,,,,,,,,,,,,,space,sing,white,39,2,297,2793.710393,None,2793.710393,None,1,2.063513829,2793.710393,None,2795.812446,None,2796.328,None,2796.328,None,n,1.277851658,2796.328,None,,,NC3a,1,2019_Dec_02_1656,ProdSingRedo,3.2.4,59.88876824
,,,,40,0,40,0,,,,,,,,,,,,,,,,,,,,,,,,2801.929643,None,,,,,,,,,,,,,,,,,patient,sing,white,40,5,213,2798.161861,None,2798.161861,None,5,1.963727487,2798.161861,None,2800.162379,None,2800.679325,None,2800.679325,None,f,1.207028653,2800.679325,None,,,NC3a,1,2019_Dec_02_1656,ProdSingRedo,3.2.4,59.88876824
,,,,41,0,41,0,,,,,,,,,,,,,,,,,,,,,,,,2806.097623,None,,,,,,,,,,,,,,,,,dispute,new_b,white,41,126,99,2802.446472,None,2802.446472,None,1,2.070807455,2802.446472,None,2804.566705,None,2805.080661,None,2805.080661,None,n,0.980623933,2805.080661,None,,,NC3a,1,2019_Dec_02_1656,ProdSingRedo,3.2.4,59.88876824
,,,,42,0,42,0,,,,,,,,,,,,,,,,,,,,,,,,2812.016127,None,,,,,,,,,,,,,,,,,problem,silent,white,42,80,238,2806.61711,None,2806.61711,None,2,3.243888649,2806.61711,None,2809.915359,None,2810.415466,None,2810.415466,None,n,1.55775562,2810.415466,None,,,NC3a,1,2019_Dec_02_1656,ProdSingRedo,3.2.4,59.88876824
,,,,43,0,43,0,,,,,,,,,,,,,,,,,,,,,,,,2817.434422,None,,,,,,,,,,,,,,,,,message,new_c,white,43,163,189,2812.532945,None,2812.532945,None,2,2.879725447,2812.532945,None,2815.454893,None,2815.967344,None,2815.967344,None,n,1.421152201,2815.967344,None,,,NC3a,1,2019_Dec_02_1656,ProdSingRedo,3.2.4,59.88876824
,,,,44,0,44,0,,,,,,,,,,,,,,,,,,,,,,,,2822.452644,None,,,,,,,,,,,,,,,,,pressure,aloud,white,44,52,232,2817.951268,None,2817.951268,None,1,2.741453812,2817.951268,None,2820.737011,None,2821.252281,None,2821.252281,None,n,1.152007365,2821.252281,None,,,NC3a,1,2019_Dec_02_1656,ProdSingRedo,3.2.4,59.88876824
,,,,45,0,45,0,,,,,,,,,,,,,,,,,,,,,,,,2827.087376,None,,,,,,,,,,,,,,,,,error,new_b,white,45,131,117,2822.969433,None,2822.969433,None,1,2.307154919,2822.969433,None,2825.323727,None,2825.837031,None,2825.837031,None,n,1.214899811,2825.837031,None,,,NC3a,1,2019_Dec_02_1656,ProdSingRedo,3.2.4,59.88876824
,,,,46,0,46,0,,,,,,,,,,,,,,,,,,,,,,,,2831.03862,None,,,,,,,,,,,,,,,,,personnel,aloud,white,46,35,219,2827.604083,None,2827.604083,None,6,1.75176696,2827.604083,None,2829.407337,None,2829.921611,None,2829.921611,None,r,1.074447115,2829.921611,None,,,NC3a,1,2019_Dec_02_1656,ProdSingRedo,3.2.4,59.88876824
,,,,47,0,47,0,,,,,,,,,,,,,,,,,,,,,,,,2835.389938,None,,,,,,,,,,,,,,,,,short,sing,white,47,16,285,2831.555373,None,2831.555373,None,3,2.057004239,2831.555373,None,2833.660371,None,2834.17291,None,2834.17291,None,f,1.174862615,2834.17291,None,,,NC3a,1,2019_Dec_02_1656,ProdSingRedo,3.2.4,59.88876824
,,,,48,0,48,0,,,,,,,,,,,,,,,,,,,,,,,,2840.008041,None,,,,,,,,,,,,,,,,,trial,new_c,white,48,153,341,2835.906692,None,2835.906692,None,3,2.200800831,2835.906692,None,2838.145455,None,2838.657629,None,2838.657629,None,f,1.306374615,2838.657629,None,,,NC3a,1,2019_Dec_02_1656,ProdSingRedo,3.2.4,59.88876824
,,,,49,0,49,0,,,,,,,,,,,,,,,,,,,,,,,,2844.759495,None,,,,,,,,,,,,,,,,,safety,new_c,white,49,160,270,2840.525923,None,2840.525923,None,2,2.693295723,2840.525923,None,2843.264338,None,2843.775708,None,2843.775708,None,n,0.940065186,2843.775708,None,,,NC3a,1,2019_Dec_02_1656,ProdSingRedo,3.2.4,59.88876824
,,,,50,0,50,0,,,,,,,,,,,,,,,,,,,,,,,,2848.877395,None,,,,,,,,,,,,,,,,,mechanical,silent,white,50,74,185,2845.276141,None,2845.276141,None,3,2.142889087,2845.276141,None,2847.464378,None,2847.977043,None,2847.977043,None,f,0.865581994,2847.977043,None,,,NC3a,1,2019_Dec_02_1656,ProdSingRedo,3.2.4,59.88876824
,,,,51,0,51,0,,,,,,,,,,,,,,,,,,,,,,,,2853.395462,None,,,,,,,,,,,,,,,,,music,silent,white,51,79,196,2849.394242,None,2849.394242,None,3,2.360425886,2849.394242,None,2851.799184,None,2852.311806,None,2852.311806,None,f,1.042877269,2852.311806,None,,,NC3a,1,2019_Dec_02_1656,ProdSingRedo,3.2.4,59.88876824
,,,,52,0,52,0,,,,,,,,,,,,,,,,,,,,,,,,2857.313308,None,,,,,,,,,,,,,,,,,quantity,new_c,white,52,154,245,2853.91588,None,2853.91588,None,1,1.59838963,2853.91588,None,2855.567181,None,2856.079569,None,2856.079569,None,n,1.186500944,2856.079569,None,,,NC3a,1,2019_Dec_02_1656,ProdSingRedo,3.2.4,59.88876824
,,,,53,0,53,0,,,,,,,,,,,,,,,,,,,,,,,,2861.814717,None,,,,,,,,,,,,,,,,,company,new_c,white,53,177,64,2857.832148,None,2857.832148,None,5,2.393758805,2857.832148,None,2860.271888,None,2860.780919,None,2860.780919,None,f,0.996911436,2860.780919,None,,,NC3a,1,2019_Dec_02_1656,ProdSingRedo,3.2.4,59.88876824
,,,,54,0,54,0,,,,,,,,,,,,,,,,,,,,,,,,2866.166058,None,,,,,,,,,,,,,,,,,background,silent,white,54,68,16,2862.338302,None,2862.338302,None,2,1.943496475,2862.338302,None,2864.332083,None,2864.832285,None,2864.832285,None,n,1.29735648,2864.832285,None,,,NC3a,1,2019_Dec_02_1656,ProdSingRedo,3.2.4,59.88876824
,,,,55,0,55,0,,,,,,,,,,,,,,,,,,,,,,,,2870.217273,None,,,,,,,,,,,,,,,,,beginning,new_a,white,55,110,19,2866.685115,None,2866.685115,None,1,1.884289717,2866.685115,None,2868.6209,None,2869.133635,None,2869.133635,None,n,1.043917572,2869.133635,None,,,NC3a,1,2019_Dec_02_1656,ProdSingRedo,3.2.4,59.88876824
,,,,56,0,56,0,,,,,,,,,,,,,,,,,,,,,,,,2874.051801,None,,,,,,,,,,,,,,,,,broad,aloud,white,56,45,31,2870.734992,None,2870.734992,None,6,1.586166617,2870.734992,None,2872.375207,None,2872.884767,None,2872.884767,None,r,1.132280798,2872.884767,None,,,NC3a,1,2019_Dec_02_1656,ProdSingRedo,3.2.4,59.88876824
,,,,57,0,57,0,,,,,,,,,,,,,,,,,,,,,,,,2878.419803,None,,,,,,,,,,,,,,,,,emergency,new_c,white,57,170,110,2874.57108,None,2874.57108,None,3,2.061900038,2874.57108,None,2876.678046,None,2877.185956,None,2877.185956,None,f,1.191230356,2877.185956,None,,,NC3a,1,2019_Dec_02_1656,ProdSingRedo,3.2.4,59.88876824
,,,,58,0,58,0,,,,,,,,,,,,,,,,,,,,,,,,2882.354346,None,,,,,,,,,,,,,,,,,republic,new_b,white,58,141,260,2878.940949,None,2878.940949,None,4,2.22772959,2878.940949,None,2881.220586,None,2881.720608,None,2881.720608,None,f,0.600129999,2881.720608,None,,,NC3a,1,2019_Dec_02_1656,ProdSingRedo,3.2.4,59.88876824
,,,,59,0,59,0,,,,,,,,,,,,,,,,,,,,,,,,2886.472268,None,,,,,,,,,,,,,,,,,career,aloud,white,59,46,42,2882.87114,None,2882.87114,None,4,2.074012956,2882.87114,None,2884.992144,None,2885.505309,None,2885.505309,None,f,0.927227943,2885.505309,None,,,NC3a,1,2019_Dec_02_1656,ProdSingRedo,3.2.4,59.88876824
,,,,60,0,60,0,,,,,,,,,,,,,,,,,,,,,,,,2891.373767,None,,,,,,,,,,,,,,,,,tragedy,aloud,white,60,39,335,2886.991363,None,2886.991363,None,5,2.641162091,2886.991363,None,2889.675726,None,2890.190066,None,2890.190066,None,f,1.145989469,2890.190066,None,,,NC3a,1,2019_Dec_02_1656,ProdSingRedo,3.2.4,59.88876824
,,,,61,0,61,0,,,,,,,,,,,,,,,,,,,,,,,,2896.025183,None,,,,,,,,,,,,,,,,,blind,sing,white,61,24,24,2891.890468,None,2891.890468,None,3,2.325782715,2891.890468,None,2894.262681,None,2894.774714,None,2894.774714,None,f,1.217160487,2894.774714,None,,,NC3a,1,2019_Dec_02_1656,ProdSingRedo,3.2.4,59.88876824
,,,,62,0,62,0,,,,,,,,,,,,,,,,,,,,,,,,2899.826357,None,,,,,,,,,,,,,,,,,period,new_b,white,62,120,217,2896.541885,None,2896.541885,None,1,1.681725814,2896.541885,None,2898.26298,None,2898.776025,None,2898.776025,None,n,1.015526791,2898.776025,None,,,NC3a,1,2019_Dec_02_1656,ProdSingRedo,3.2.4,59.88876824
,,,,63,0,63,0,,,,,,,,,,,,,,,,,,,,,,,,2904.677863,None,,,,,,,,,,,,,,,,,working,aloud,white,63,50,357,2900.34636,None,2900.34636,None,2,2.061048513,2900.34636,None,2902.451006,None,2902.960532,None,2902.960532,None,n,1.678685766,2902.960532,None,,,NC3a,1,2019_Dec_02_1656,ProdSingRedo,3.2.4,59.88876824
,,,,64,0,64,0,,,,,,,,,,,,,,,,,,,,,,,,2909.879443,None,,,,,,,,,,,,,,,,,bright,aloud,white,64,55,29,2905.1957,None,2905.1957,None,4,2.947287282,2905.1957,None,2908.183396,None,2908.695763,None,2908.695763,None,f,1.14339882,2908.695763,None,,,NC3a,1,2019_Dec_02_1656,ProdSingRedo,3.2.4,59.88876824
,,,,65,0,65,0,,,,,,,,,,,,,,,,,,,,,,,,2914.114053,None,,,,,,,,,,,,,,,,,tennis,new_a,white,65,90,323,2910.396126,None,2910.396126,None,3,2.194852289,2910.396126,None,2912.633966,None,2913.147108,None,2913.147108,None,f,0.924461888,2913.147108,None,,,NC3a,1,2019_Dec_02_1656,ProdSingRedo,3.2.4,59.88876824
,,,,66,0,66,0,,,,,,,,,,,,,,,,,,,,,,,,2919.999177,None,,,,,,,,,,,,,,,,,solution,new_b,white,66,138,294,2914.630801,None,2914.630801,None,3,3.583776253,2914.630801,None,2918.25405,None,2918.76547,None,2918.76547,None,f,1.193136179,2918.76547,None,,,NC3a,1,2019_Dec_02_1656,ProdSingRedo,3.2.4,59.88876824
,,,,67,0,67,0,,,,,,,,,,,,,,,,,,,,,,,,2924.017123,None,,,,,,,,,,,,,,,,,meeting,sing,white,67,10,187,2920.516023,None,2920.516023,None,3,2.106911405,2920.516023,None,2922.669605,None,2923.183536,None,2923.183536,None,f,0.798506878,2923.183536,None,,,NC3a,1,2019_Dec_02_1656,ProdSingRedo,3.2.4,59.88876824
,,,,68,0,68,0,,,,,,,,,,,,,,,,,,,,,,,,2927.534879,None,,,,,,,,,,,,,,,,,charter,new_a,white,68,100,47,2924.533905,None,2924.533905,None,1,1.352062101,2924.533905,None,2925.937726,None,2926.451094,None,2926.451094,None,n,1.034705994,2926.451094,None,,,NC3a,1,2019_Dec_02_1656,ProdSingRedo,3.2.4,59.88876824
,,,,69,0,69,0,,,,,,,,,,,,,,,,,,,,,,,,2933.620052,None,,,,,,,,,,,,,,,,,murder,new_a,white,69,119,195,2928.051679,None,2928.051679,None,3,2.521931573,2928.051679,None,2930.620201,None,2931.135938,None,2931.135938,None,f,2.445482536,2931.135938,None,,,NC3a,1,2019_Dec_02_1656,ProdSingRedo,3.2.4,59.88876824
,,,,70,0,70,0,,,,,,,,,,,,,,,,,,,,,,,,2939.488537,None,,,,,,,,,,,,,,,,,trash,silent,white,70,84,337,2934.136865,None,2934.136865,None,1,3.132376275,2934.136865,None,2937.30769,None,2937.821215,None,2937.821215,None,n,1.6242389,2937.821215,None,,,NC3a,1,2019_Dec_02_1656,ProdSingRedo,3.2.4,59.88876824
,,,,71,0,71,0,,,,,,,,,,,,,,,,,,,,,,,,2944.606731,None,,,,,,,,,,,,,,,,,damage,new_b,white,71,121,83,2940.005272,None,2940.005272,None,1,2.535671034,2940.005272,None,2942.58995,None,2943.106305,None,2943.106305,None,n,1.45880121,2943.106305,None,,,NC3a,1,2019_Dec_02_1656,ProdSingRedo,3.2.4,59.88876824
,,,,72,0,72,0,,,,,,,,,,,,,,,,,,,,,,,,2949.558284,None,,,,,,,,,,,,,,,,,subject,aloud,white,72,38,312,2945.126729,None,2945.126729,None,5,2.493905598,2945.126729,None,2947.662152,None,2948.174498,None,2948.174498,None,f,1.350134197,2948.174498,None,,,NC3a,1,2019_Dec_02_1656,ProdSingRedo,3.2.4,59.88876824
,,,,73,0,73,0,,,,,,,,,,,,,,,,,,,,,,,,2954.859881,None,,,,,,,,,,,,,,,,,profession,new_c,white,73,176,241,2950.075158,None,2950.075158,None,4,3.169122756,2950.075158,None,2953.296819,None,2953.809466,None,2953.809466,None,f,1.010928933,2953.809466,None,,,NC3a,1,2019_Dec_02_1656,ProdSingRedo,3.2.4,59.88876824
,,,,74,0,74,0,,,,,,,,,,,,,,,,,,,,,,,,2959.611365,None,,,,,,,,,,,,,,,,,length,aloud,white,74,57,169,2955.376777,None,2955.376777,None,5,2.283343959,2955.376777,None,2957.698703,None,2958.210926,None,2958.210926,None,f,1.352889989,2958.210926,None,,,NC3a,1,2019_Dec_02_1656,ProdSingRedo,3.2.4,59.88876824
,,,,75,0,75,0,,,,,,,,,,,,,,,,,,,,,,,,2964.796295,None,,,,,,,,,,,,,,,,,collection,aloud,white,75,59,54,2960.128059,None,2960.128059,None,3,2.851565119,2960.128059,None,2963.016903,None,2963.529121,None,2963.529121,None,f,1.218476337,2963.529121,None,,,NC3a,1,2019_Dec_02_1656,ProdSingRedo,3.2.4,59.88876824
,,,,76,0,76,0,,,,,,,,,,,,,,,,,,,,,,,,2970.247961,None,,,,,,,,,,,,,,,,,sight,sing,white,76,23,286,2965.313094,None,2965.313094,None,6,2.602221179,2965.313094,None,2967.965942,None,2968.48073,None,2968.48073,None,f,1.730452415,2968.48073,None,,,NC3a,1,2019_Dec_02_1656,ProdSingRedo,3.2.4,59.88876824
,,,,77,0,77,0,,,,,,,,,,,,,,,,,,,,,,,,2977.366785,None,,,,,,,,,,,,,,,,,population,silent,white,77,85,227,2970.764704,None,2970.764704,None,6,2.534481761,2970.764704,None,2973.336958,None,2973.848944,None,2973.848944,None,r,3.474843644,2973.848944,None,,,NC3a,1,2019_Dec_02_1656,ProdSingRedo,3.2.4,59.88876824
,,,,78,0,78,0,,,,,,,,,,,,,,,,,,,,,,,,2983.118589,None,,,,,,,,,,,,,,,,,appearance,new_a,white,78,109,10,2977.883572,None,2977.883572,None,5,3.038943401,2977.883572,None,2980.973493,None,2981.484697,None,2981.484697,None,f,1.590418951,2981.484697,None,,,NC3a,1,2019_Dec_02_1656,ProdSingRedo,3.2.4,59.88876824
,,,,79,0,79,0,,,,,,,,,,,,,,,,,,,,,,,,2987.203155,None,,,,,,,,,,,,,,,,,junior,silent,white,79,71,167,2983.635296,None,2983.635296,None,3,1.911197328,2983.635296,None,2985.602514,None,2986.102802,None,2986.102802,None,n,1.067526692,2986.102802,None,,,NC3a,1,2019_Dec_02_1656,ProdSingRedo,3.2.4,59.88876824
,,,,80,0,80,0,,,,,,,,,,,,,,,,,,,,,,,,2991.971289,None,,,,,,,,,,,,,,,,,grade,new_a,white,80,96,140,2987.719981,None,2987.719981,None,2,2.634170137,2987.719981,None,2990.391477,None,2990.904295,None,2990.904295,None,n,1.033640811,2990.904295,None,,,NC3a,1,2019_Dec_02_1656,ProdSingRedo,3.2.4,59.88876824
,,,,81,0,81,0,,,,,,,,,,,,,,,,,,,,,,,,2996.806097,None,,,,,,,,,,,,,,,,,weather,new_a,white,81,91,352,2992.488114,None,2992.488114,None,5,2.657954351,2992.488114,None,2995.19361,None,2995.705755,None,2995.705755,None,f,1.063866505,2995.705755,None,,,NC3a,1,2019_Dec_02_1656,ProdSingRedo,3.2.4,59.88876824
,,,,82,0,82,0,,,,,,,,,,,,,,,,,,,,,,,,3002.241093,None,,,,,,,,,,,,,,,,,object,new_c,white,82,171,204,2997.3256,None,2997.3256,None,4,2.643853816,2997.3256,None,3000.01021,None,3000.523908,None,3000.523908,None,f,1.677593837,3000.523908,None,,,NC3a,1,2019_Dec_02_1656,ProdSingRedo,3.2.4,59.88876824
,,,,83,0,83,0,,,,,,,,,,,,,,,,,,,,,,,,3008.026197,None,,,,,,,,,,,,,,,,,foundation,new_a,white,83,93,132,3002.757788,None,3002.757788,None,3,2.643652287,3002.757788,None,3005.445864,None,3005.958895,None,3005.958895,None,f,2.017961317,3005.958895,None,,,NC3a,1,2019_Dec_02_1656,ProdSingRedo,3.2.4,59.88876824
,,,,84,0,84,0,,,,,,,,,,,,,,,,,,,,,,,,3013.127773,None,,,,,,,,,,,,,,,,,speech,new_a,white,84,104,298,3008.543041,None,3008.543041,None,3,2.569686292,3008.543041,None,3011.162796,None,3011.677333,None,3011.677333,None,f,1.411427159,3011.677333,None,,,NC3a,1,2019_Dec_02_1656,ProdSingRedo,3.2.4,59.88876824
,,,,85,0,85,0,,,,,,,,,,,,,,,,,,,,,,,,3018.79618,None,,,,,,,,,,,,,,,,,service,silent,white,85,82,280,3013.647458,None,3013.647458,None,4,2.80090284,3013.647458,None,3016.512055,None,3017.012082,None,3017.012082,None,f,1.740866328,3017.012082,None,,,NC3a,1,2019_Dec_02_1656,ProdSingRedo,3.2.4,59.88876824
,,,,86,0,86,0,,,,,,,,,,,,,,,,,,,,,,,,3024.264458,None,,,,,,,,,,,,,,,,,build,aloud,white,86,31,35,3019.314045,None,3019.314045,None,4,3.006623728,3019.314045,None,3022.371874,None,3022.88077,None,3022.88077,None,f,1.343470662,3022.88077,None,,,NC3a,1,2019_Dec_02_1656,ProdSingRedo,3.2.4,59.88876824
,,,,87,0,87,0,,,,,,,,,,,,,,,,,,,,,,,,3031.450021,None,,,,,,,,,,,,,,,,,order,aloud,white,87,48,207,3024.781225,None,3024.781225,None,2,4.666416724,3024.781225,None,3029.486724,None,3029.999517,None,3029.999517,None,f,1.416054251,3029.999517,None,,,NC3a,1,2019_Dec_02_1656,ProdSingRedo,3.2.4,59.88876824
,,,,88,0,88,0,,,,,,,,,,,,,,,,,,,,,,,,3037.051752,None,,,,,,,,,,,,,,,,,debate,sing,white,88,6,87,3031.970186,None,3031.970186,None,4,2.781247804,3031.970186,None,3034.800934,None,3035.301241,None,3035.301241,None,f,1.706730712,3035.301241,None,,,NC3a,1,2019_Dec_02_1656,ProdSingRedo,3.2.4,59.88876824
,,,,89,0,89,0,,,,,,,,,,,,,,,,,,,,,,,,3042.520117,None,,,,,,,,,,,,,,,,,display,sing,white,89,26,98,3037.570184,None,3037.570184,None,5,2.716718241,3037.570184,None,3040.344314,None,3040.852943,None,3040.852943,None,f,1.626169602,3040.852943,None,,,NC3a,1,2019_Dec_02_1656,ProdSingRedo,3.2.4,59.88876824
,,,,90,0,90,0,,,,,,,,,,,,,,,,,,,,,,,,3047.254889,None,,,,,,,,,,,,,,,,,school,new_b,white,90,137,274,3043.036931,None,3043.036931,None,5,2.369638087,3043.036931,None,3045.454302,None,3045.97113,None,3045.97113,None,f,1.243614967,3045.97113,None,,,NC3a,1,2019_Dec_02_1656,ProdSingRedo,3.2.4,59.88876824
,,,,91,0,91,0,,,,,,,,,,,,,,,,,,,,,,,,3052.639873,None,,,,,,,,,,,,,,,,,season,new_b,white,91,136,277,3047.771697,None,3047.771697,None,6,2.538641728,3047.771697,None,3050.360166,None,3050.872653,None,3050.872653,None,f,1.725854245,3050.872653,None,,,NC3a,1,2019_Dec_02_1656,ProdSingRedo,3.2.4,59.88876824
,,,,92,0,92,0,,,,,,,,,,,,,,,,,,,,,,,,3057.541362,None,,,,,,,,,,,,,,,,,region,sing,white,92,12,256,3053.156558,None,3053.156558,None,4,2.290149001,3053.156558,None,3055.495443,None,3056.007583,None,3056.007583,None,f,1.486252453,3056.007583,None,,,NC3a,1,2019_Dec_02_1656,ProdSingRedo,3.2.4,59.88876824
,,,,93,0,93,0,,,,,,,,,,,,,,,,,,,,,,,,3062.359518,None,,,,,,,,,,,,,,,,,mayor,silent,white,93,78,183,3058.060175,None,3058.060175,None,5,2.385473081,3058.060175,None,3060.500337,None,3061.009119,None,3061.009119,None,f,1.308812873,3061.009119,None,,,NC3a,1,2019_Dec_02_1656,ProdSingRedo,3.2.4,59.88876824
,,,,94,0,94,0,,,,,,,,,,,,,,,,,,,,,,,,3067.911238,None,,,,,,,,,,,,,,,,,department,new_c,white,94,179,90,3062.876133,None,3062.876133,None,6,3.258057293,3062.876133,None,3066.180896,None,3066.694081,None,3066.694081,None,r,1.183485776,3066.694081,None,,,NC3a,1,2019_Dec_02_1656,ProdSingRedo,3.2.4,59.88876824
,,,,95,0,95,0,,,,,,,,,,,,,,,,,,,,,,,,3071.829106,None,,,,,,,,,,,,,,,,,fashion,new_a,white,95,108,125,3068.427903,None,3068.427903,None,1,1.769256176,3068.427903,None,3070.2496,None,3070.762112,None,3070.762112,None,n,1.027100121,3070.762112,None,,,NC3a,1,2019_Dec_02_1656,ProdSingRedo,3.2.4,59.88876824
,,,,96,0,96,0,,,,,,,,,,,,,,,,,,,,,,,,3076.013714,None,,,,,,,,,,,,,,,,,brilliant,new_b,white,96,123,30,3072.348074,None,3072.348074,None,1,1.592781947,3072.348074,None,3073.984822,None,3074.496537,None,3074.496537,None,n,1.484354717,3074.496537,None,,,NC3a,1,2019_Dec_02_1656,ProdSingRedo,3.2.4,59.88876824
,,,,97,0,97,0,,,,,,,,,,,,,,,,,,,,,,,,3082.649093,None,,,,,,,,,,,,,,,,,fight,silent,white,97,60,127,3076.530389,None,3076.530389,None,3,2.202249791,3076.530389,None,3078.781041,None,3079.298043,None,3079.298043,None,n,3.307237024,3079.298043,None,,,NC3a,1,2019_Dec_02_1656,ProdSingRedo,3.2.4,59.88876824
,,,,98,0,98,0,,,,,,,,,,,,,,,,,,,,,,,,3086.666968,None,,,,,,,,,,,,,,,,,stranger,silent,white,98,69,309,3083.165937,None,3083.165937,None,4,1.846288654,3083.165937,None,3085.051569,None,3085.566641,None,3085.566641,None,f,1.053407186,3085.566641,None,,,NC3a,1,2019_Dec_02_1656,ProdSingRedo,3.2.4,59.88876824
,,,,99,0,99,0,,,,,,,,,,,,,,,,,,,,,,,,3092.085292,None,,,,,,,,,,,,,,,,,waste,aloud,white,99,37,350,3087.183808,None,3087.183808,None,5,2.452098177,3087.183808,None,3089.688439,None,3090.20138,None,3090.20138,None,f,1.842671075,3090.20138,None,,,NC3a,1,2019_Dec_02_1656,ProdSingRedo,3.2.4,59.88876824
,,,,100,0,100,0,,,,,,,,,,,,,,,,,,,,,,,,3096.503309,None,,,,,,,,,,,,,,,,,resistance,sing,white,100,21,262,3092.601879,None,3092.601879,None,6,2.049929558,3092.601879,None,3094.691903,None,3095.202928,None,3095.202928,None,r,1.264624107,3095.202928,None,,,NC3a,1,2019_Dec_02_1656,ProdSingRedo,3.2.4,59.88876824
,,,,101,0,101,0,,,,,,,,,,,,,,,,,,,,,,,,3100.888006,None,,,,,,,,,,,,,,,,,bicycle,aloud,white,101,51,21,3097.021697,None,3097.021697,None,4,1.917490771,3097.021697,None,3098.987169,None,3099.504205,None,3099.504205,None,f,1.347088552,3099.504205,None,,,NC3a,1,2019_Dec_02_1656,ProdSingRedo,3.2.4,59.88876824
,,,,102,0,102,0,,,,,,,,,,,,,,,,,,,,,,,,3104.539078,None,,,,,,,,,,,,,,,,,thing,new_b,white,102,146,328,3101.404841,None,3101.404841,None,1,1.486224774,3101.404841,None,3102.942135,None,3103.455437,None,3103.455437,None,n,1.035616609,3103.455437,None,,,NC3a,1,2019_Dec_02_1656,ProdSingRedo,3.2.4,59.88876824
,,,,103,0,103,0,,,,,,,,,,,,,,,,,,,,,,,,3108.507024,None,,,,,,,,,,,,,,,,,permit,silent,white,103,89,218,3105.055806,None,3105.055806,None,5,2.123741918,3105.055806,None,3107.227155,None,3107.74007,None,3107.74007,None,f,0.718655475,3107.74007,None,,,NC3a,1,2019_Dec_02_1656,ProdSingRedo,3.2.4,59.88876824
,,,,104,0,104,0,,,,,,,,,,,,,,,,,,,,,,,,3112.858323,None,,,,,,,,,,,,,,,,,relation,new_c,white,104,166,257,3109.023841,None,3109.023841,None,3,1.875112039,3109.023841,None,3110.942755,None,3111.457889,None,3111.457889,None,f,1.352627814,3111.457889,None,,,NC3a,1,2019_Dec_02_1656,ProdSingRedo,3.2.4,59.88876824
,,,,105,0,105,0,,,,,,,,,,,,,,,,,,,,,,,,3117.226381,None,,,,,,,,,,,,,,,,,light,sing,white,105,13,171,3113.375158,None,3113.375158,None,3,2.227375047,3113.375158,None,3115.646778,None,3116.159354,None,3116.159354,None,f,1.018903966,3116.159354,None,,,NC3a,1,2019_Dec_02_1656,ProdSingRedo,3.2.4,59.88876824
,,,,106,0,106,0,,,,,,,,,,,,,,,,,,,,,,,,3121.310938,None,,,,,,,,,,,,,,,,,frank,new_a,white,106,101,133,3117.743502,None,3117.743502,None,1,1.62685163,3117.743502,None,3119.418564,None,3119.92716,None,3119.92716,None,n,1.346868051,3119.92716,None,,,NC3a,1,2019_Dec_02_1656,ProdSingRedo,3.2.4,59.88876824
,,,,107,0,107,0,,,,,,,,,,,,,,,,,,,,,,,,3125.695604,None,,,,,,,,,,,,,,,,,straight,new_b,white,107,149,307,3121.827627,None,3121.827627,None,5,2.070172699,3121.827627,None,3123.950524,None,3124.461832,None,3124.461832,None,f,1.195885439,3124.461832,None,,,NC3a,1,2019_Dec_02_1656,ProdSingRedo,3.2.4,59.88876824
,,,,108,0,108,0,,,,,,,,,,,,,,,,,,,,,,,,3129.596806,None,,,,,,,,,,,,,,,,,burden,new_a,white,108,98,36,3126.213658,None,3126.213658,None,1,1.595963501,3126.213658,None,3127.85371,None,3128.362936,None,3128.362936,None,n,1.198523361,3128.362936,None,,,NC3a,1,2019_Dec_02_1656,ProdSingRedo,3.2.4,59.88876824
,,,,109,0,109,0,,,,,,,,,,,,,,,,,,,,,,,,3133.481329,None,,,,,,,,,,,,,,,,,alert,new_a,white,109,102,6,3130.113638,None,3130.113638,None,5,1.992020302,3130.113638,None,3132.148419,None,3132.664411,None,3132.664411,None,f,0.76886649,3132.664411,None,,,NC3a,1,2019_Dec_02_1656,ProdSingRedo,3.2.4,59.88876824
,,,,110,0,110,0,,,,,,,,,,,,,,,,,,,,,,,,3138.399507,None,,,,,,,,,,,,,,,,,couch,new_b,white,110,125,70,3133.998015,None,3133.998015,None,2,2.899025319,3133.998015,None,3136.936651,None,3137.449223,None,3137.449223,None,n,0.911703329,3137.449223,None,,,NC3a,1,2019_Dec_02_1656,ProdSingRedo,3.2.4,59.88876824
,,,,111,0,111,0,,,,,,,,,,,,,,,,,,,,,,,,3143.00089,None,,,,,,,,,,,,,,,,,level,new_b,white,111,145,170,3138.918762,None,3138.918762,None,3,2.066051919,3138.918762,None,3141.042002,None,3141.550476,None,3141.550476,None,f,1.402170174,3141.550476,None,,,NC3a,1,2019_Dec_02_1656,ProdSingRedo,3.2.4,59.88876824
,,,,112,0,112,0,,,,,,,,,,,,,,,,,,,,,,,,3147.919093,None,,,,,,,,,,,,,,,,,series,new_a,white,112,97,279,3143.517606,None,3143.517606,None,2,2.667048992,3143.517606,None,3146.219602,None,3146.735352,None,3146.735352,None,n,1.144979023,3146.735352,None,,,NC3a,1,2019_Dec_02_1656,ProdSingRedo,3.2.4,59.88876824
,,,,113,0,113,0,,,,,,,,,,,,,,,,,,,,,,,,3154.304389,None,,,,,,,,,,,,,,,,,figure,new_b,white,113,143,128,3148.435732,None,3148.435732,None,1,2.373067198,3148.435732,None,3150.857993,None,3151.370138,None,3151.370138,None,n,2.901874411,3151.370138,None,,,NC3a,1,2019_Dec_02_1656,ProdSingRedo,3.2.4,59.88876824
,,,,114,0,114,0,,,,,,,,,,,,,,,,,,,,,,,,3159.089174,None,,,,,,,,,,,,,,,,,candidate,new_c,white,114,159,39,3154.821061,None,3154.821061,None,6,2.259102883,3154.821061,None,3157.126937,None,3157.638668,None,3157.638668,None,r,1.417204649,3157.638668,None,,,NC3a,1,2019_Dec_02_1656,ProdSingRedo,3.2.4,59.88876824
,,,,115,0,115,0,,,,,,,,,,,,,,,,,,,,,,,,3164.157399,None,,,,,,,,,,,,,,,,,medicine,new_b,white,115,134,186,3159.606005,None,3159.606005,None,5,2.86552477,3159.606005,None,3162.507302,None,3163.023664,None,3163.023664,None,f,1.087836077,3163.023664,None,,,NC3a,1,2019_Dec_02_1656,ProdSingRedo,3.2.4,59.88876824
,,,,116,0,116,0,,,,,,,,,,,,,,,,,,,,,,,,3168.358709,None,,,,,,,,,,,,,,,,,guard,new_c,white,116,174,145,3164.674229,None,3164.674229,None,2,2.101231569,3164.674229,None,3166.812663,None,3167.32504,None,3167.32504,None,n,0.986040349,3167.32504,None,,,NC3a,1,2019_Dec_02_1656,ProdSingRedo,3.2.4,59.88876824
,,,,117,0,117,0,,,,,,,,,,,,,,,,,,,,,,,,3173.426896,None,,,,,,,,,,,,,,,,,listen,sing,white,117,29,172,3168.875512,None,3168.875512,None,5,2.491725783,3168.875512,None,3171.413253,None,3171.926443,None,3171.926443,None,f,1.464382458,3171.926443,None,,,NC3a,1,2019_Dec_02_1656,ProdSingRedo,3.2.4,59.88876824
,,,,118,0,118,0,,,,,,,,,,,,,,,,,,,,,,,,3177.628191,None,,,,,,,,,,,,,,,,,rough,new_b,white,118,142,266,3173.943737,None,3173.943737,None,1,2.023813448,3173.943737,None,3176.015185,None,3176.527848,None,3176.527848,None,n,1.054645286,3176.527848,None,,,NC3a,1,2019_Dec_02_1656,ProdSingRedo,3.2.4,59.88876824
,,,,119,0,119,0,,,,,,,,,,,,,,,,,,,,,,,,3182.012864,None,,,,,,,,,,,,,,,,,comfort,silent,white,119,87,59,3178.145029,None,3178.145029,None,2,1.806086316,3178.145029,None,3179.99906,None,3180.512378,None,3180.512378,None,n,1.453839168,3180.512378,None,,,NC3a,1,2019_Dec_02_1656,ProdSingRedo,3.2.4,59.88876824
,,,,120,0,120,0,,,,,,,,,,,,,,,,,,,,,,,,3186.197509,None,,,,,,,,,,,,,,,,,history,sing,white,120,0,153,3182.53149,None,3182.53149,None,6,1.850450487,3182.53149,None,3184.416492,None,3184.946958,None,3184.946958,None,r,1.211161252,3184.946958,None,,,NC3a,1,2019_Dec_02_1656,ProdSingRedo,3.2.4,59.88876824
,,,,121,0,121,0,,,,,,,,,,,,,,,,,,,,,,,,3190.482132,None,,,,,,,,,,,,,,,,,second,aloud,white,121,58,278,3186.714165,None,3186.714165,None,6,2.060018474,3186.714165,None,3188.815133,None,3189.331769,None,3189.331769,None,r,1.114033047,3189.331769,None,,,NC3a,1,2019_Dec_02_1656,ProdSingRedo,3.2.4,59.88876824
,,,,122,0,122,0,,,,,,,,,,,,,,,,,,,,,,,,3194.733433,None,,,,,,,,,,,,,,,,,century,new_c,white,122,178,45,3190.999879,None,3190.999879,None,2,2.125996063,3190.999879,None,3193.169316,None,3193.683119,None,3193.683119,None,n,1.002339049,3193.683119,None,,,NC3a,1,2019_Dec_02_1656,ProdSingRedo,3.2.4,59.88876824
,,,,123,0,123,0,,,,,,,,,,,,,,,,,,,,,,,,3199.168099,None,,,,,,,,,,,,,,,,,skill,new_b,white,123,130,289,3195.252501,None,3195.252501,None,1,2.184795407,3195.252501,None,3197.487847,None,3198.001074,None,3198.001074,None,n,1.124437008,3198.001074,None,,,NC3a,1,2019_Dec_02_1656,ProdSingRedo,3.2.4,59.88876824
,,,,124,0,124,0,,,,,,,,,,,,,,,,,,,,,,,,3204.469737,None,,,,,,,,,,,,,,,,,poetry,new_b,white,124,139,225,3199.6864,None,3199.6864,None,2,2.046705708,3199.6864,None,3201.773576,None,3202.285595,None,3202.285595,None,f,2.135367185,3202.285595,None,,,NC3a,1,2019_Dec_02_1656,ProdSingRedo,3.2.4,59.88876824
,,,,125,0,125,0,,,,,,,,,,,,,,,,,,,,,,,,3207.520641,None,,,,,,,,,,,,,,,,,split,new_a,white,125,105,299,3204.986586,None,3204.986586,None,1,1.322695084,3204.986586,None,3206.357663,None,3206.870493,None,3206.870493,None,n,0.614249816,3206.870493,None,,,NC3a,1,2019_Dec_02_1656,ProdSingRedo,3.2.4,59.88876824
,,,,126,0,126,0,,,,,,,,,,,,,,,,,,,,,,,,3211.621934,None,,,,,,,,,,,,,,,,,phrase,sing,white,126,18,220,3208.037523,None,3208.037523,None,6,1.68702094,3208.037523,None,3209.775208,None,3210.288218,None,3210.288218,None,f,1.300319399,3210.288218,None,,,NC3a,1,2019_Dec_02_1656,ProdSingRedo,3.2.4,59.88876824
,,,,127,0,127,0,,,,,,,,,,,,,,,,,,,,,,,,3216.423396,None,,,,,,,,,,,,,,,,,curve,new_b,white,127,127,82,3212.140491,None,3212.140491,None,3,2.304537524,3212.140491,None,3214.494854,None,3215.006228,None,3215.006228,None,f,1.374324891,3215.006228,None,,,NC3a,1,2019_Dec_02_1656,ProdSingRedo,3.2.4,59.88876824
,,,,128,0,128,0,,,,,,,,,,,,,,,,,,,,,,,,3221.941786,None,,,,,,,,,,,,,,,,,direction,new_b,white,128,135,94,3216.940253,None,3216.940253,None,3,2.776023898,3216.940253,None,3219.763497,None,3220.274567,None,3220.274567,None,f,1.633374282,3220.274567,None,,,NC3a,1,2019_Dec_02_1656,ProdSingRedo,3.2.4,59.88876824
,,,,129,0,129,0,,,,,,,,,,,,,,,,,,,,,,,,3226.726539,None,,,,,,,,,,,,,,,,,motion,silent,white,129,62,194,3222.458587,None,3222.458587,None,4,2.209371744,3222.458587,None,3224.714589,None,3225.226115,None,3225.226115,None,f,1.457881887,3225.226115,None,,,NC3a,1,2019_Dec_02_1656,ProdSingRedo,3.2.4,59.88876824
,,,,130,0,130,0,,,,,,,,,,,,,,,,,,,,,,,,3230.994506,None,,,,,,,,,,,,,,,,,touch,new_c,white,130,169,332,3227.243314,None,3227.243314,None,1,1.976371598,3227.243314,None,3229.264295,None,3229.777494,None,3229.777494,None,n,1.178006848,3229.777494,None,,,NC3a,1,2019_Dec_02_1656,ProdSingRedo,3.2.4,59.88876824
,,,,131,0,131,0,,,,,,,,,,,,,,,,,,,,,,,,3235.529294,None,,,,,,,,,,,,,,,,,graduate,silent,white,131,70,141,3231.51138,None,3231.51138,None,5,2.195779388,3231.51138,None,3233.749112,None,3234.26212,None,3234.26212,None,f,1.220887849,3234.26212,None,,,NC3a,1,2019_Dec_02_1656,ProdSingRedo,3.2.4,59.88876824
,,,,132,0,132,0,,,,,,,,,,,,,,,,,,,,,,,,3240.080681,None,,,,,,,,,,,,,,,,,character,silent,white,132,83,46,3236.046107,None,3236.046107,None,6,2.204798144,3236.046107,None,3238.302094,None,3238.813437,None,3238.813437,None,f,1.229356132,3238.813437,None,,,NC3a,1,2019_Dec_02_1656,ProdSingRedo,3.2.4,59.88876824
,,,,133,0,133,0,,,,,,,,,,,,,,,,,,,,,,,,3244.51536,None,,,,,,,,,,,,,,,,,community,sing,white,133,1,63,3240.60007,None,3240.60007,None,6,2.171391829,3240.60007,None,3242.831488,None,3243.331658,None,3243.331658,None,r,1.143133846,3243.331658,None,,,NC3a,1,2019_Dec_02_1656,ProdSingRedo,3.2.4,59.88876824
,,,,134,0,134,0,,,,,,,,,,,,,,,,,,,,,,,,3248.683323,None,,,,,,,,,,,,,,,,,still,new_a,white,134,111,304,3245.032057,None,3245.032057,None,5,1.938215344,3245.032057,None,3247.02025,None,3247.532952,None,3247.532952,None,f,1.101276665,3247.532952,None,,,NC3a,1,2019_Dec_02_1656,ProdSingRedo,3.2.4,59.88876824
,,,,135,0,135,0,,,,,,,,,,,,,,,,,,,,,,,,3253.301369,None,,,,,,,,,,,,,,,,,empty,sing,white,135,17,112,3249.199994,None,3249.199994,None,4,2.034113534,3249.199994,None,3251.271852,None,3251.784246,None,3251.784246,None,f,1.481672011,3251.784246,None,,,NC3a,1,2019_Dec_02_1656,ProdSingRedo,3.2.4,59.88876824
,,,,136,0,136,0,,,,,,,,,,,,,,,,,,,,,,,,3258.519643,None,,,,,,,,,,,,,,,,,victory,sing,white,136,11,346,3253.819161,None,3253.819161,None,4,2.166739856,3253.819161,None,3256.035406,None,3256.53572,None,3256.53572,None,f,1.937836233,3256.53572,None,,,NC3a,1,2019_Dec_02_1656,ProdSingRedo,3.2.4,59.88876824
,,,,137,0,137,0,,,,,,,,,,,,,,,,,,,,,,,,3263.293594,None,,,,,,,,,,,,,,,,,military,new_a,white,137,92,190,3259.037434,None,3259.037434,None,4,1.940509297,3259.037434,None,3261.02361,None,3261.537264,None,3261.537264,None,f,1.720005225,3261.537264,None,,,NC3a,1,2019_Dec_02_1656,ProdSingRedo,3.2.4,59.88876824
,,,,138,0,138,0,,,,,,,,,,,,,,,,,,,,,,,,3267.639096,None,,,,,,,,,,,,,,,,,disease,new_b,white,138,128,97,3263.821285,None,3263.821285,None,2,2.1318936,3263.821285,None,3265.993569,None,3266.505348,None,3266.505348,None,n,1.088025788,3266.505348,None,,,NC3a,1,2019_Dec_02_1656,ProdSingRedo,3.2.4,59.88876824
,,,,139,0,139,0,,,,,,,,,,,,,,,,,,,,,,,,3271.45696,None,,,,,,,,,,,,,,,,,danger,sing,white,139,4,85,3268.155798,None,3268.155798,None,6,1.493379693,3268.155798,None,3269.690648,None,3270.206568,None,3270.206568,None,r,1.202216202,3270.206568,None,,,NC3a,1,2019_Dec_02_1656,ProdSingRedo,3.2.4,59.88876824
,,,,140,0,140,0,,,,,,,,,,,,,,,,,,,,,,,,3275.291412,None,,,,,,,,,,,,,,,,,discovery,silent,white,140,66,95,3271.979081,None,3271.979081,None,4,1.86173614,3271.979081,None,3273.890988,None,3274.392443,None,3274.392443,None,f,0.856528405,3274.392443,None,,,NC3a,1,2019_Dec_02_1656,ProdSingRedo,3.2.4,59.88876824
,,,,141,0,141,0,,,,,,,,,,,,,,,,,,,,,,,,3279.59277,None,,,,,,,,,,,,,,,,,dance,new_a,white,141,94,84,3275.808119,None,3275.808119,None,5,1.936281221,3275.808119,None,3277.795631,None,3278.309048,None,3278.309048,None,f,1.243518556,3278.309048,None,,,NC3a,1,2019_Dec_02_1656,ProdSingRedo,3.2.4,59.88876824
,,,,142,0,142,0,,,,,,,,,,,,,,,,,,,,,,,,3283.61069,None,,,,,,,,,,,,,,,,,management,sing,white,142,14,177,3280.109605,None,3280.109605,None,6,1.707029275,3280.109605,None,3281.876736,None,3282.376859,None,3282.376859,None,r,1.199306465,3282.376859,None,,,NC3a,1,2019_Dec_02_1656,ProdSingRedo,3.2.4,59.88876824
,,,,143,0,143,0,,,,,,,,,,,,,,,,,,,,,,,,3287.811979,None,,,,,,,,,,,,,,,,,society,silent,white,143,81,293,3284.128961,None,3284.128961,None,6,1.910992377,3284.128961,None,3286.086741,None,3286.594932,None,3286.594932,None,r,1.1808774,3286.594932,None,,,NC3a,1,2019_Dec_02_1656,ProdSingRedo,3.2.4,59.88876824
,,,,144,0,144,0,,,,,,,,,,,,,,,,,,,,,,,,3293.113578,None,,,,,,,,,,,,,,,,,minute,silent,white,144,72,192,3288.32886,None,3288.32886,None,3,3.127106341,3288.32886,None,3291.497535,None,3292.013197,None,3292.013197,None,f,1.066447514,3292.013197,None,,,NC3a,1,2019_Dec_02_1656,ProdSingRedo,3.2.4,59.88876824
,,,,145,0,145,0,,,,,,,,,,,,,,,,,,,,,,,,3296.847998,None,,,,,,,,,,,,,,,,,range,new_c,white,145,173,251,3293.630233,None,3293.630233,None,1,1.545218494,3293.630233,None,3295.216716,None,3295.731075,None,3295.731075,None,n,1.084157541,3295.731075,None,,,NC3a,1,2019_Dec_02_1656,ProdSingRedo,3.2.4,59.88876824
,,,,146,0,146,0,,,,,,,,,,,,,,,,,,,,,,,,3301.332783,None,,,,,,,,,,,,,,,,,distance,silent,white,146,86,100,3297.364871,None,3297.364871,None,5,2.07467197,3297.364871,None,3299.487023,None,3299.999042,None,3299.999042,None,f,1.295981539,3299.999042,None,,,NC3a,1,2019_Dec_02_1656,ProdSingRedo,3.2.4,59.88876824
,,,,147,0,147,0,,,,,,,,,,,,,,,,,,,,,,,,3306.651087,None,,,,,,,,,,,,,,,,,nature,sing,white,147,28,200,3301.849504,None,3301.849504,None,4,2.925542932,3301.849504,None,3304.807938,None,3305.334026,None,3305.334026,None,f,1.280649746,3305.334026,None,,,NC3a,1,2019_Dec_02_1656,ProdSingRedo,3.2.4,59.88876824
,,,,148,0,148,0,,,,,,,,,,,,,,,,,,,,,,,,3311.752643,None,,,,,,,,,,,,,,,,,suspect,new_b,white,148,132,318,3307.167922,None,3307.167922,None,3,2.142894063,3307.167922,None,3309.357053,None,3309.868731,None,3309.868731,None,f,1.849778411,3309.868731,None,,,NC3a,1,2019_Dec_02_1656,ProdSingRedo,3.2.4,59.88876824
,,,,149,0,149,0,,,,,,,,,,,,,,,,,,,,,,,,3315.237057,None,,,,,,,,,,,,,,,,,whole,silent,white,149,75,355,3312.269468,None,3312.269468,None,1,1.376981162,3312.269468,None,3313.691459,None,3314.203398,None,3314.203398,None,n,0.98669532,3314.203398,None,,,NC3a,1,2019_Dec_02_1656,ProdSingRedo,3.2.4,59.88876824
,,,,150,0,150,0,,,,,,,,,,,,,,,,,,,,,,,,3319.738417,None,,,,,,,,,,,,,,,,,discussion,new_a,white,150,116,96,3315.753823,None,3315.753823,None,4,2.012139976,3315.753823,None,3317.807388,None,3318.321331,None,3318.321331,None,f,1.380569819,3318.321331,None,,,NC3a,1,2019_Dec_02_1656,ProdSingRedo,3.2.4,59.88876824
,,,,151,0,151,0,,,,,,,,,,,,,,,,,,,,,,,,3323.472893,None,,,,,,,,,,,,,,,,,strain,new_a,white,151,99,308,3320.255203,None,3320.255203,None,1,1.486508097,3320.255203,None,3321.793022,None,3322.305892,None,3322.305892,None,n,1.131732812,3322.305892,None,,,NC3a,1,2019_Dec_02_1656,ProdSingRedo,3.2.4,59.88876824
,,,,152,0,152,0,,,,,,,,,,,,,,,,,,,,,,,,3327.424102,None,,,,,,,,,,,,,,,,,brief,aloud,white,152,42,28,3323.98967,None,3323.98967,None,5,1.799978852,3323.98967,None,3325.831916,None,3326.340405,None,3326.340405,None,f,1.048959542,3326.340405,None,,,NC3a,1,2019_Dec_02_1656,ProdSingRedo,3.2.4,59.88876824
,,,,153,0,153,0,,,,,,,,,,,,,,,,,,,,,,,,3331.294753,None,,,,,,,,,,,,,,,,,industry,new_c,white,153,161,161,3327.942836,None,3327.942836,None,4,1.862491875,3327.942836,None,3329.858195,None,3330.341454,None,3330.341454,None,f,0.919688936,3330.341454,None,,,NC3a,1,2019_Dec_02_1656,ProdSingRedo,3.2.4,59.88876824
,,,,154,0,154,0,,,,,,,,,,,,,,,,,,,,,,,,3335.193152,None,,,,,,,,,,,,,,,,,design,new_b,white,154,129,91,3331.825426,None,3331.825426,None,2,1.940462958,3331.825426,None,3333.810212,None,3334.326228,None,3334.326228,None,f,0.83073636,3334.326228,None,,,NC3a,1,2019_Dec_02_1656,ProdSingRedo,3.2.4,59.88876824
,,,,155,0,155,0,,,,,,,,,,,,,,,,,,,,,,,,3339.894604,None,,,,,,,,,,,,,,,,,command,new_b,white,155,124,60,3335.709837,None,3335.709837,None,4,2.407830417,3335.709837,None,3338.16587,None,3338.677566,None,3338.677566,None,f,1.183188458,3338.677566,None,,,NC3a,1,2019_Dec_02_1656,ProdSingRedo,3.2.4,59.88876824
,,,,156,0,156,0,,,,,,,,,,,,,,,,,,,,,,,,3343.795828,None,,,,,,,,,,,,,,,,,pretty,silent,white,156,73,233,3340.41269,None,3340.41269,None,6,1.727760068,3340.41269,None,3342.187239,None,3342.695468,None,3342.695468,None,r,1.052886257,3342.695468,None,,,NC3a,1,2019_Dec_02_1656,ProdSingRedo,3.2.4,59.88876824
,,,,157,0,157,0,,,,,,,,,,,,,,,,,,,,,,,,3347.863714,None,,,,,,,,,,,,,,,,,guest,sing,white,157,19,146,3344.312589,None,3344.312589,None,4,1.947698738,3344.312589,None,3346.301061,None,3346.813369,None,3346.813369,None,f,1.007113245,3346.813369,None,,,NC3a,1,2019_Dec_02_1656,ProdSingRedo,3.2.4,59.88876824
,,,,158,0,158,0,,,,,,,,,,,,,,,,,,,,,,,,3351.831599,None,,,,,,,,,,,,,,,,,drink,aloud,white,158,33,105,3348.381823,None,3348.381823,None,2,1.902118859,3348.381823,None,3350.337164,None,3350.847942,None,3350.847942,None,n,0.948005076,3350.847942,None,,,NC3a,1,2019_Dec_02_1656,ProdSingRedo,3.2.4,59.88876824
,,,,159,0,159,0,,,,,,,,,,,,,,,,,,,,,,,,3355.532736,None,,,,,,,,,,,,,,,,,under,sing,white,159,22,343,3352.348426,None,3352.348426,None,1,1.215441577,3352.348426,None,3353.602719,None,3354.115632,None,3354.115632,None,n,1.384002662,3354.115632,None,,,NC3a,1,2019_Dec_02_1656,ProdSingRedo,3.2.4,59.88876824
,,,,160,0,160,0,,,,,,,,,,,,,,,,,,,,,,,,3359.967432,None,,,,,,,,,,,,,,,,,search,new_b,white,160,147,276,3356.049422,None,3356.049422,None,3,2.050253311,3356.049422,None,3358.138829,None,3358.650351,None,3358.650351,None,f,1.281024193,3358.650351,None,,,NC3a,1,2019_Dec_02_1656,ProdSingRedo,3.2.4,59.88876824
,,,,161,0,161,0,,,,,,,,,,,,,,,,,,,,,,,,3363.835284,None,,,,,,,,,,,,,,,,,court,sing,white,161,9,75,3360.484133,None,3360.484133,None,5,1.719191954,3360.484133,None,3362.25549,None,3362.768262,None,3362.768262,None,f,1.018964611,3362.768262,None,,,NC3a,1,2019_Dec_02_1656,ProdSingRedo,3.2.4,59.88876824
,,,,162,0,162,0,,,,,,,,,,,,,,,,,,,,,,,,3368.203264,None,,,,,,,,,,,,,,,,,south,aloud,white,162,56,296,3364.352114,None,3364.352114,None,3,2.22713402,3364.352114,None,3366.620819,None,3367.13629,None,3367.13629,None,f,1.034633219,3367.13629,None,,,NC3a,1,2019_Dec_02_1656,ProdSingRedo,3.2.4,59.88876824
,,,,163,0,163,0,,,,,,,,,,,,,,,,,,,,,,,,3372.55462,None,,,,,,,,,,,,,,,,,agency,silent,white,163,64,4,3368.720653,None,3368.720653,None,5,2.122884484,3368.720653,None,3370.890542,None,3371.404156,None,3371.404156,None,f,1.110691949,3371.404156,None,,,NC3a,1,2019_Dec_02_1656,ProdSingRedo,3.2.4,59.88876824
,,,,164,0,164,0,,,,,,,,,,,,,,,,,,,,,,,,3376.505796,None,,,,,,,,,,,,,,,,,sunset,sing,white,164,20,315,3373.071446,None,3373.071446,None,1,1.675360529,3373.071446,None,3374.792527,None,3375.305455,None,3375.305455,None,n,1.152900252,3375.305455,None,,,NC3a,1,2019_Dec_02_1656,ProdSingRedo,3.2.4,59.88876824
,,,,165,0,165,0,,,,,,,,,,,,,,,,,,,,,,,,3380.823766,None,,,,,,,,,,,,,,,,,shape,new_b,white,165,140,282,3377.022545,None,3377.022545,None,5,1.883870486,3377.022545,None,3378.941349,None,3379.456746,None,3379.456746,None,f,1.329395318,3379.456746,None,,,NC3a,1,2019_Dec_02_1656,ProdSingRedo,3.2.4,59.88876824
,,,,166,0,166,0,,,,,,,,,,,,,,,,,,,,,,,,3384.808375,None,,,,,,,,,,,,,,,,,measure,sing,white,166,25,184,3381.340508,None,3381.340508,None,4,1.661558868,3381.340508,None,3383.046961,None,3383.558003,None,3383.558003,None,f,1.203835903,3383.558003,None,,,NC3a,1,2019_Dec_02_1656,ProdSingRedo,3.2.4,59.88876824
,,,,167,0,167,0,,,,,,,,,,,,,,,,,,,,,,,,3389.326392,None,,,,,,,,,,,,,,,,,reading,silent,white,167,67,254,3385.328355,None,3385.328355,None,3,1.905781533,3385.328355,None,3387.279738,None,3387.792642,None,3387.792642,None,f,1.489683742,3387.792642,None,,,NC3a,1,2019_Dec_02_1656,ProdSingRedo,3.2.4,59.88876824
,,,,168,0,168,0,,,,,,,,,,,,,,,,,,,,,,,,3393.811054,None,,,,,,,,,,,,,,,,,state,silent,white,168,77,303,3389.843252,None,3389.843252,None,5,1.942540143,3389.843252,None,3391.831483,None,3392.344032,None,3392.344032,None,f,1.433452344,3392.344032,None,,,NC3a,1,2019_Dec_02_1656,ProdSingRedo,3.2.4,59.88876824
,,,,169,0,169,0,,,,,,,,,,,,,,,,,,,,,,,,3397.495607,None,,,,,,,,,,,,,,,,,cross,sing,white,169,3,80,3394.327802,None,3394.327802,None,1,1.513398602,3394.327802,None,3395.878351,None,3396.395258,None,3396.395258,None,n,1.061835349,3396.395258,None,,,NC3a,1,2019_Dec_02_1656,ProdSingRedo,3.2.4,59.88876824
,,,,170,0,170,0,,,,,,,,,,,,,,,,,,,,,,,,3401.513477,None,,,,,,,,,,,,,,,,,scale,aloud,white,170,40,272,3398.012281,None,3398.012281,None,3,1.780743669,3398.012281,None,3399.831072,None,3400.346435,None,3400.346435,None,f,1.118498418,3400.346435,None,,,NC3a,1,2019_Dec_02_1656,ProdSingRedo,3.2.4,59.88876824
,,,,171,0,171,0,,,,,,,,,,,,,,,,,,,,,,,,3404.914545,None,,,,,,,,,,,,,,,,,review,aloud,white,171,32,263,3402.032493,None,3402.032493,None,1,1.280186664,3402.032493,None,3403.351374,None,3403.864072,None,3403.864072,None,n,1.008926078,3403.864072,None,,,NC3a,1,2019_Dec_02_1656,ProdSingRedo,3.2.4,59.88876824
,,,,172,0,172,0,,,,,,,,,,,,,,,,,,,,,,,,3409.082487,None,,,,,,,,,,,,,,,,,spoke,new_a,white,172,114,300,3405.431231,None,3405.431231,None,2,1.785322556,3405.431231,None,3407.267834,None,3407.782084,None,3407.782084,None,n,1.266442227,3407.782084,None,,,NC3a,1,2019_Dec_02_1656,ProdSingRedo,3.2.4,59.88876824
,,,,173,0,173,0,,,,,,,,,,,,,,,,,,,,,,,,3413.783891,None,,,,,,,,,,,,,,,,,broke,new_c,white,173,172,32,3409.600946,None,3409.600946,None,1,2.407571352,3409.600946,None,3412.066616,None,3412.566721,None,3412.566721,None,n,1.169419452,3412.566721,None,,,NC3a,1,2019_Dec_02_1656,ProdSingRedo,3.2.4,59.88876824
,,,,174,0,174,0,,,,,,,,,,,,,,,,,,,,,,,,3417.518406,None,,,,,,,,,,,,,,,,,orchestra,new_a,white,174,117,206,3414.300584,None,3414.300584,None,1,1.371393695,3414.300584,None,3415.719698,None,3416.23465,None,3416.23465,None,n,1.237215472,3416.23465,None,,,NC3a,1,2019_Dec_02_1656,ProdSingRedo,3.2.4,59.88876824
,,,,175,0,175,0,,,,,,,,,,,,,,,,,,,,,,,,3421.953023,None,,,,,,,,,,,,,,,,,point,new_b,white,175,148,226,3418.035233,None,3418.035233,None,2,2.060731913,3418.035233,None,3420.139513,None,3420.652678,None,3420.652678,None,n,1.267112126,3420.652678,None,,,NC3a,1,2019_Dec_02_1656,ProdSingRedo,3.2.4,59.88876824
,,,,176,0,176,0,,,,,,,,,,,,,,,,,,,,,,,,3426.08767,None,,,,,,,,,,,,,,,,,narrow,new_a,white,176,115,197,3422.469768,None,3422.469768,None,1,1.793951005,3422.469768,None,3424.307507,None,3424.820607,None,3424.820607,None,n,1.2270006,3424.820607,None,,,NC3a,1,2019_Dec_02_1656,ProdSingRedo,3.2.4,59.88876824
,,,,177,0,177,0,,,,,,,,,,,,,,,,,,,,,,,,3430.60574,None,,,,,,,,,,,,,,,,,notice,new_a,white,177,112,201,3426.604385,None,3426.604385,None,4,2.275175172,3426.604385,None,3428.923308,None,3429.438718,None,3429.438718,None,f,1.120324313,3429.438718,None,,,NC3a,1,2019_Dec_02_1656,ProdSingRedo,3.2.4,59.88876824
,,,,178,0,178,0,,,,,,,,,,,,,,,,,,,,,,,,3433.840079,None,,,,,,,,,,,,,,,,,force,new_a,white,178,95,131,3431.122537,None,3431.122537,None,1,1.35711931,3431.122537,None,3432.527375,None,3433.039834,None,3433.039834,None,n,0.759391182,3433.039834,None,,,NC3a,1,2019_Dec_02_1656,ProdSingRedo,3.2.4,59.88876824
,,,,179,0,179,0,,,,,,,,,,,,,,,,,,,,,,,,3437.67452,None,,,,,,,,,,,,,,,,,crowd,aloud,white,179,54,81,3434.356887,None,3434.356887,None,5,1.745865069,3434.356887,None,3436.14495,None,3436.657578,None,3436.657578,None,f,0.973907838,3436.657578,None,,,NC3a,1,2019_Dec_02_1656,ProdSingRedo,3.2.4,59.88876824
,,,,,,,,,,,,,,,,,,,,,,,,,,,,,,,,,,,,,,,,,,,,,,,,,,,,,,,,,,,,,,,,,,,,,,,,,3438.174787,None,,,,,,
