StudyLoop.thisRepN,StudyLoop.thisTrialN,StudyLoop.thisN,StudyLoop.thisIndex,TestLoop.thisRepN,TestLoop.thisTrialN,TestLoop.thisN,TestLoop.thisIndex,textCondition.started,textCondition.stopped,keyCondition.keys,keyCondition.rt,keyCondition.started,keyCondition.stopped,Condition,stim_colors,color_sing,color_aloud,color_silent,textWelcome.started,textWelcome.stopped,keyWelcome.keys,keyWelcome.rt,keyWelcome.started,keyWelcome.stopped,textAloud.started,textAloud.stopped,textSilent.started,textSilent.stopped,textSing.started,textSing.stopped,textBlank500.started,textBlank500.stopped,study_word,study_type,study_color,study_num,study_word_num,textStudy.started,textStudy.stopped,keyStudy.keys,keyStudy.started,keyStudy.stopped,textTestInstructions.started,textTestInstructions.stopped,key_resp_3.keys,key_resp_3.rt,key_resp_3.started,key_resp_3.stopped,testWord,testType,testColor,testN,test_num,test_word_num,textConf.started,textConf.stopped,textConfScale.started,textConfScale.stopped,keyConf.keys,keyConf.rt,keyConf.started,keyConf.stopped,textTestBlank.started,textTestBlank.stopped,textRKN.started,textRKN.stopped,textRKNScale.started,textRKNScale.stopped,keyRKN.keys,keyRKN.rt,keyRKN.started,keyRKN.stopped,textEnd.started,textEnd.stopped,participant,session,date,expName,psychopyVersion,frameRate,
,,,,,,,,9.537855203496292,None,n,0.9841690484900028,9.537855203496292,None,,,,,,,,,,,,,,,,,,,,,,,,,,,,,,,,,,,,,,,,,,,,,,,,,,,,,,,,,,,,,,NC4,001,2019_Dec_03_1523,ProdSingRedo,3.2.4,59.98619471811765,
,,,,,,,,,,,,,,NeutralTest,"['red', 'yellow', 'blue']",red,yellow,blue,10.586735750781372,None,space,991.2747537638061,10.586735750781372,None,,,,,,,,,,,,,,,,,,,,,,,,,,,,,,,,,,,,,,,,,,,,,,,,,,,NC4,001,2019_Dec_03_1523,ProdSingRedo,3.2.4,59.98619471811765,
0,0,0,0,,,,,,,,,,,,,,,,,,,,,,10.586735750781372,None,10.586735750781372,None,10.586735750781372,None,1004.4082082845271,None,answer,aloud,yellow,53,8,1002.4074074535165,None,None,1002.4074074535165,None,,,,,,,,,,,,,,,,,,,,,,,,,,,,,,,,,NC4,001,2019_Dec_03_1523,ProdSingRedo,3.2.4,59.98619471811765,
1,0,1,0,,,,,,,,,,,,,,,,,,,,,,,,,,,,1006.9256362330634,None,still,silent,blue,73,304,1004.924971310189,None,None,1004.924971310189,None,,,,,,,,,,,,,,,,,,,,,,,,,,,,,,,,,NC4,001,2019_Dec_03_1523,ProdSingRedo,3.2.4,59.98619471811765,
2,0,2,0,,,,,,,,,,,,,,,,,,,,,,,,,,,,1009.4430676025804,None,heavy,aloud,yellow,51,151,1007.4437835300341,None,None,1007.4437835300341,None,,,,,,,,,,,,,,,,,,,,,,,,,,,,,,,,,NC4,001,2019_Dec_03_1523,ProdSingRedo,3.2.4,59.98619471811765,
3,0,3,0,,,,,,,,,,,,,,,,,,,,,,,,,,,,1011.9605191873852,None,quiet,sing,red,19,249,1009.9597575427033,None,None,1009.9597575427033,None,,,,,,,,,,,,,,,,,,,,,,,,,,,,,,,,,NC4,001,2019_Dec_03_1523,ProdSingRedo,3.2.4,59.98619471811765,
4,0,4,0,,,,,,,,,,,,,,,,,,,,,,,,,,,,1014.4779287867714,None,health,aloud,yellow,33,149,1012.4771413288545,None,None,1012.4771413288545,None,,,,,,,,,,,,,,,,,,,,,,,,,,,,,,,,,NC4,001,2019_Dec_03_1523,ProdSingRedo,3.2.4,59.98619471811765,
5,0,5,0,,,,,,,,,,,,,,,,,,,,,,,,,,,,1016.9954008976929,None,mechanical,aloud,yellow,46,185,1014.9947502808645,None,None,1014.9947502808645,None,,,,,,,,,,,,,,,,,,,,,,,,,,,,,,,,,NC4,001,2019_Dec_03_1523,ProdSingRedo,3.2.4,59.98619471811765,
6,0,6,0,,,,,,,,,,,,,,,,,,,,,,,,,,,,1019.5128179611638,None,religion,silent,blue,62,258,1017.5121726312209,None,None,1017.5121726312209,None,,,,,,,,,,,,,,,,,,,,,,,,,,,,,,,,,NC4,001,2019_Dec_03_1523,ProdSingRedo,3.2.4,59.98619471811765,
7,0,7,0,,,,,,,,,,,,,,,,,,,,,,,,,,,,1022.030267679831,None,treatment,aloud,yellow,57,339,1020.0296245268546,None,None,1020.0296245268546,None,,,,,,,,,,,,,,,,,,,,,,,,,,,,,,,,,NC4,001,2019_Dec_03_1523,ProdSingRedo,3.2.4,59.98619471811765,
8,0,8,0,,,,,,,,,,,,,,,,,,,,,,,,,,,,1024.5477180203889,None,power,sing,red,28,230,1022.5470708245412,None,None,1022.5470708245412,None,,,,,,,,,,,,,,,,,,,,,,,,,,,,,,,,,NC4,001,2019_Dec_03_1523,ProdSingRedo,3.2.4,59.98619471811765,
9,0,9,0,,,,,,,,,,,,,,,,,,,,,,,,,,,,1027.0651269978844,None,chief,silent,blue,74,48,1025.0645068592858,None,None,1025.0645068592858,None,,,,,,,,,,,,,,,,,,,,,,,,,,,,,,,,,NC4,001,2019_Dec_03_1523,ProdSingRedo,3.2.4,59.98619471811765,
10,0,10,0,,,,,,,,,,,,,,,,,,,,,,,,,,,,1029.5826040848624,None,distance,sing,red,11,100,1027.5819201907143,None,None,1027.5819201907143,None,,,,,,,,,,,,,,,,,,,,,,,,,,,,,,,,,NC4,001,2019_Dec_03_1523,ProdSingRedo,3.2.4,59.98619471811765,
11,0,11,0,,,,,,,,,,,,,,,,,,,,,,,,,,,,1032.1000410523266,None,passage,sing,red,21,212,1030.099377684528,None,None,1030.099377684528,None,,,,,,,,,,,,,,,,,,,,,,,,,,,,,,,,,NC4,001,2019_Dec_03_1523,ProdSingRedo,3.2.4,59.98619471811765,
12,0,12,0,,,,,,,,,,,,,,,,,,,,,,,,,,,,1034.6174662020057,None,permit,silent,blue,72,218,1032.6167720446829,None,None,1032.6167720446829,None,,,,,,,,,,,,,,,,,,,,,,,,,,,,,,,,,NC4,001,2019_Dec_03_1523,ProdSingRedo,3.2.4,59.98619471811765,
13,0,13,0,,,,,,,,,,,,,,,,,,,,,,,,,,,,1037.1348897963762,None,machinery,sing,red,6,175,1035.1340967405122,None,None,1035.1340967405122,None,,,,,,,,,,,,,,,,,,,,,,,,,,,,,,,,,NC4,001,2019_Dec_03_1523,ProdSingRedo,3.2.4,59.98619471811765,
14,0,14,0,,,,,,,,,,,,,,,,,,,,,,,,,,,,1039.6523388931528,None,disease,silent,blue,86,97,1037.651667439146,None,None,1037.651667439146,None,,,,,,,,,,,,,,,,,,,,,,,,,,,,,,,,,NC4,001,2019_Dec_03_1523,ProdSingRedo,3.2.4,59.98619471811765,
15,0,15,0,,,,,,,,,,,,,,,,,,,,,,,,,,,,1042.1697192583233,None,colonel,sing,red,27,55,1040.1690033308696,None,None,1040.1690033308696,None,,,,,,,,,,,,,,,,,,,,,,,,,,,,,,,,,NC4,001,2019_Dec_03_1523,ProdSingRedo,3.2.4,59.98619471811765,
16,0,16,0,,,,,,,,,,,,,,,,,,,,,,,,,,,,1044.6872218474746,None,defeat,silent,blue,82,88,1042.6864577145316,None,None,1042.6864577145316,None,,,,,,,,,,,,,,,,,,,,,,,,,,,,,,,,,NC4,001,2019_Dec_03_1523,ProdSingRedo,3.2.4,59.98619471811765,
17,0,17,0,,,,,,,,,,,,,,,,,,,,,,,,,,,,1047.2046588149387,None,interior,aloud,yellow,59,164,1045.2040178391617,None,None,1045.2040178391617,None,,,,,,,,,,,,,,,,,,,,,,,,,,,,,,,,,NC4,001,2019_Dec_03_1523,ProdSingRedo,3.2.4,59.98619471811765,
18,0,18,0,,,,,,,,,,,,,,,,,,,,,,,,,,,,1049.7220939164981,None,attack,silent,blue,61,13,1047.7215219833888,None,None,1047.7215219833888,None,,,,,,,,,,,,,,,,,,,,,,,,,,,,,,,,,NC4,001,2019_Dec_03_1523,ProdSingRedo,3.2.4,59.98619471811765,
19,0,19,0,,,,,,,,,,,,,,,,,,,,,,,,,,,,1052.2395486112218,None,clean,aloud,yellow,58,51,1050.2388662721496,None,None,1050.2388662721496,None,,,,,,,,,,,,,,,,,,,,,,,,,,,,,,,,,NC4,001,2019_Dec_03_1523,ProdSingRedo,3.2.4,59.98619471811765,
20,0,20,0,,,,,,,,,,,,,,,,,,,,,,,,,,,,1054.7569756268058,None,staff,silent,blue,85,301,1052.756325631868,None,None,1052.756325631868,None,,,,,,,,,,,,,,,,,,,,,,,,,,,,,,,,,NC4,001,2019_Dec_03_1523,ProdSingRedo,3.2.4,59.98619471811765,
21,0,21,0,,,,,,,,,,,,,,,,,,,,,,,,,,,,1057.2744390296284,None,military,silent,blue,89,190,1055.2737588675227,None,None,1055.2737588675227,None,,,,,,,,,,,,,,,,,,,,,,,,,,,,,,,,,NC4,001,2019_Dec_03_1523,ProdSingRedo,3.2.4,59.98619471811765,
22,0,22,0,,,,,,,,,,,,,,,,,,,,,,,,,,,,1059.791840853868,None,member,silent,blue,83,188,1057.7927710618824,None,None,1057.7927710618824,None,,,,,,,,,,,,,,,,,,,,,,,,,,,,,,,,,NC4,001,2019_Dec_03_1523,ProdSingRedo,3.2.4,59.98619471811765,
23,0,23,0,,,,,,,,,,,,,,,,,,,,,,,,,,,,1062.3092887066305,None,people,aloud,yellow,49,216,1060.3085954824928,None,None,1060.3085954824928,None,,,,,,,,,,,,,,,,,,,,,,,,,,,,,,,,,NC4,001,2019_Dec_03_1523,ProdSingRedo,3.2.4,59.98619471811765,
24,0,24,0,,,,,,,,,,,,,,,,,,,,,,,,,,,,1064.8267054590397,None,hunger,aloud,yellow,37,155,1062.8260598182678,None,None,1062.8260598182678,None,,,,,,,,,,,,,,,,,,,,,,,,,,,,,,,,,NC4,001,2019_Dec_03_1523,ProdSingRedo,3.2.4,59.98619471811765,
25,0,25,0,,,,,,,,,,,,,,,,,,,,,,,,,,,,1067.3441800579894,None,primary,aloud,yellow,41,234,1065.3433736290317,None,None,1065.3433736290317,None,,,,,,,,,,,,,,,,,,,,,,,,,,,,,,,,,NC4,001,2019_Dec_03_1523,ProdSingRedo,3.2.4,59.98619471811765,
26,0,26,0,,,,,,,,,,,,,,,,,,,,,,,,,,,,1069.8615849923808,None,household,silent,blue,66,154,1067.860830500722,None,None,1067.860830500722,None,,,,,,,,,,,,,,,,,,,,,,,,,,,,,,,,,NC4,001,2019_Dec_03_1523,ProdSingRedo,3.2.4,59.98619471811765,
27,0,27,0,,,,,,,,,,,,,,,,,,,,,,,,,,,,1072.379049017094,None,poetry,sing,red,22,225,1070.3782497411594,None,None,1070.3782497411594,None,,,,,,,,,,,,,,,,,,,,,,,,,,,,,,,,,NC4,001,2019_Dec_03_1523,ProdSingRedo,3.2.4,59.98619471811765,
28,0,28,0,,,,,,,,,,,,,,,,,,,,,,,,,,,,1074.8964884728193,None,sight,sing,red,24,286,1072.895875176182,None,None,1072.895875176182,None,,,,,,,,,,,,,,,,,,,,,,,,,,,,,,,,,NC4,001,2019_Dec_03_1523,ProdSingRedo,3.2.4,59.98619471811765,
29,0,29,0,,,,,,,,,,,,,,,,,,,,,,,,,,,,1077.413897139253,None,concern,sing,red,5,65,1075.4132723354269,None,None,1075.4132723354269,None,,,,,,,,,,,,,,,,,,,,,,,,,,,,,,,,,NC4,001,2019_Dec_03_1523,ProdSingRedo,3.2.4,59.98619471811765,
30,0,30,0,,,,,,,,,,,,,,,,,,,,,,,,,,,,1079.9313564989716,None,series,aloud,yellow,32,279,1077.930730762193,None,None,1077.930730762193,None,,,,,,,,,,,,,,,,,,,,,,,,,,,,,,,,,NC4,001,2019_Dec_03_1523,ProdSingRedo,3.2.4,59.98619471811765,
31,0,31,0,,,,,,,,,,,,,,,,,,,,,,,,,,,,1082.4487897343934,None,institute,sing,red,18,162,1080.4481416055933,None,None,1080.4481416055933,None,,,,,,,,,,,,,,,,,,,,,,,,,,,,,,,,,NC4,001,2019_Dec_03_1523,ProdSingRedo,3.2.4,59.98619471811765,
32,0,32,0,,,,,,,,,,,,,,,,,,,,,,,,,,,,1084.9662332332227,None,clear,aloud,yellow,40,52,1082.9655434300657,None,None,1082.9655434300657,None,,,,,,,,,,,,,,,,,,,,,,,,,,,,,,,,,NC4,001,2019_Dec_03_1523,ProdSingRedo,3.2.4,59.98619471811765,
33,0,33,0,,,,,,,,,,,,,,,,,,,,,,,,,,,,1087.4836586937308,None,escape,aloud,yellow,45,118,1085.483026114991,None,None,1085.483026114991,None,,,,,,,,,,,,,,,,,,,,,,,,,,,,,,,,,NC4,001,2019_Dec_03_1523,ProdSingRedo,3.2.4,59.98619471811765,
34,0,34,0,,,,,,,,,,,,,,,,,,,,,,,,,,,,1090.001109967474,None,solution,sing,red,15,294,1088.0004478434566,None,None,1088.0004478434566,None,,,,,,,,,,,,,,,,,,,,,,,,,,,,,,,,,NC4,001,2019_Dec_03_1523,ProdSingRedo,3.2.4,59.98619471811765,
35,0,35,0,,,,,,,,,,,,,,,,,,,,,,,,,,,,1092.5185080596711,None,finance,sing,red,23,129,1090.5178910309914,None,None,1090.5178910309914,None,,,,,,,,,,,,,,,,,,,,,,,,,,,,,,,,,NC4,001,2019_Dec_03_1523,ProdSingRedo,3.2.4,59.98619471811765,
36,0,36,0,,,,,,,,,,,,,,,,,,,,,,,,,,,,1095.0359991416335,None,block,silent,blue,69,25,1093.0351905357093,None,None,1093.0351905357093,None,,,,,,,,,,,,,,,,,,,,,,,,,,,,,,,,,NC4,001,2019_Dec_03_1523,ProdSingRedo,3.2.4,59.98619471811765,
37,0,37,0,,,,,,,,,,,,,,,,,,,,,,,,,,,,1097.5534230472986,None,vision,sing,red,13,347,1095.5526813066099,None,None,1095.5526813066099,None,,,,,,,,,,,,,,,,,,,,,,,,,,,,,,,,,NC4,001,2019_Dec_03_1523,ProdSingRedo,3.2.4,59.98619471811765,
38,0,38,0,,,,,,,,,,,,,,,,,,,,,,,,,,,,1100.070843842579,None,position,sing,red,26,229,1098.0701932257507,None,None,1098.0701932257507,None,,,,,,,,,,,,,,,,,,,,,,,,,,,,,,,,,NC4,001,2019_Dec_03_1523,ProdSingRedo,3.2.4,59.98619471811765,
39,0,39,0,,,,,,,,,,,,,,,,,,,,,,,,,,,,1102.5883140875958,None,husband,sing,red,4,156,1100.5874958403874,None,None,1100.5874958403874,None,,,,,,,,,,,,,,,,,,,,,,,,,,,,,,,,,NC4,001,2019_Dec_03_1523,ProdSingRedo,3.2.4,59.98619471811765,
40,0,40,0,,,,,,,,,,,,,,,,,,,,,,,,,,,,1105.1057411031798,None,report,aloud,yellow,54,259,1103.105078357039,None,None,1103.105078357039,None,,,,,,,,,,,,,,,,,,,,,,,,,,,,,,,,,NC4,001,2019_Dec_03_1523,ProdSingRedo,3.2.4,59.98619471811765,
41,0,41,0,,,,,,,,,,,,,,,,,,,,,,,,,,,,1107.6231846017763,None,design,aloud,yellow,48,91,1105.6224982196,None,None,1105.6224982196,None,,,,,,,,,,,,,,,,,,,,,,,,,,,,,,,,,NC4,001,2019_Dec_03_1523,ProdSingRedo,3.2.4,59.98619471811765,
42,0,42,0,,,,,,,,,,,,,,,,,,,,,,,,,,,,1110.1406225024257,None,nation,aloud,yellow,50,198,1108.1399320771452,None,None,1108.1399320771452,None,,,,,,,,,,,,,,,,,,,,,,,,,,,,,,,,,NC4,001,2019_Dec_03_1523,ProdSingRedo,3.2.4,59.98619471811765,
43,0,43,0,,,,,,,,,,,,,,,,,,,,,,,,,,,,1112.6579549731687,None,junior,aloud,yellow,52,167,1110.6573618918192,None,None,1110.6573618918192,None,,,,,,,,,,,,,,,,,,,,,,,,,,,,,,,,,NC4,001,2019_Dec_03_1523,ProdSingRedo,3.2.4,59.98619471811765,
44,0,44,0,,,,,,,,,,,,,,,,,,,,,,,,,,,,1115.1754662704188,None,empty,silent,blue,81,112,1113.1748343135696,None,None,1113.1748343135696,None,,,,,,,,,,,,,,,,,,,,,,,,,,,,,,,,,NC4,001,2019_Dec_03_1523,ProdSingRedo,3.2.4,59.98619471811765,
45,0,45,0,,,,,,,,,,,,,,,,,,,,,,,,,,,,1117.6929312280845,None,drove,silent,blue,65,106,1115.6922743911855,None,None,1115.6922743911855,None,,,,,,,,,,,,,,,,,,,,,,,,,,,,,,,,,NC4,001,2019_Dec_03_1523,ProdSingRedo,3.2.4,59.98619471811765,
46,0,46,0,,,,,,,,,,,,,,,,,,,,,,,,,,,,1120.2103364735376,None,expansion,silent,blue,68,123,1118.2096973636653,None,None,1118.2096973636653,None,,,,,,,,,,,,,,,,,,,,,,,,,,,,,,,,,NC4,001,2019_Dec_03_1523,ProdSingRedo,3.2.4,59.98619471811765,
47,0,47,0,,,,,,,,,,,,,,,,,,,,,,,,,,,,1122.727811694378,None,equipment,aloud,yellow,35,116,1120.727173517691,None,None,1120.727173517691,None,,,,,,,,,,,,,,,,,,,,,,,,,,,,,,,,,NC4,001,2019_Dec_03_1523,ProdSingRedo,3.2.4,59.98619471811765,
48,0,48,0,,,,,,,,,,,,,,,,,,,,,,,,,,,,1125.2453015323263,None,weather,silent,blue,70,352,1123.2445964901708,None,None,1123.2445964901708,None,,,,,,,,,,,,,,,,,,,,,,,,,,,,,,,,,NC4,001,2019_Dec_03_1523,ProdSingRedo,3.2.4,59.98619471811765,
49,0,49,0,,,,,,,,,,,,,,,,,,,,,,,,,,,,1127.7626878065057,None,commercial,silent,blue,71,61,1125.7619149659295,None,None,1125.7619149659295,None,,,,,,,,,,,,,,,,,,,,,,,,,,,,,,,,,NC4,001,2019_Dec_03_1523,ProdSingRedo,3.2.4,59.98619471811765,
50,0,50,0,,,,,,,,,,,,,,,,,,,,,,,,,,,,1130.2800638177432,None,scale,sing,red,12,272,1128.2794841094874,None,None,1128.2794841094874,None,,,,,,,,,,,,,,,,,,,,,,,,,,,,,,,,,NC4,001,2019_Dec_03_1523,ProdSingRedo,3.2.4,59.98619471811765,
51,0,51,0,,,,,,,,,,,,,,,,,,,,,,,,,,,,1132.7974920773413,None,trail,aloud,yellow,47,336,1130.7968999289442,None,None,1130.7968999289442,None,,,,,,,,,,,,,,,,,,,,,,,,,,,,,,,,,NC4,001,2019_Dec_03_1523,ProdSingRedo,3.2.4,59.98619471811765,
52,0,52,0,,,,,,,,,,,,,,,,,,,,,,,,,,,,1135.3150089725386,None,production,silent,blue,60,240,1133.314206897514,None,None,1133.314206897514,None,,,,,,,,,,,,,,,,,,,,,,,,,,,,,,,,,NC4,001,2019_Dec_03_1523,ProdSingRedo,3.2.4,59.98619471811765,
53,0,53,0,,,,,,,,,,,,,,,,,,,,,,,,,,,,1137.8324425190222,None,graduate,silent,blue,75,141,1135.8317919021938,None,None,1135.8317919021938,None,,,,,,,,,,,,,,,,,,,,,,,,,,,,,,,,,NC4,001,2019_Dec_03_1523,ProdSingRedo,3.2.4,59.98619471811765,
54,0,54,0,,,,,,,,,,,,,,,,,,,,,,,,,,,,1140.349882596638,None,voice,silent,blue,64,348,1138.3492070995271,None,None,1138.3492070995271,None,,,,,,,,,,,,,,,,,,,,,,,,,,,,,,,,,NC4,001,2019_Dec_03_1523,ProdSingRedo,3.2.4,59.98619471811765,
55,0,55,0,,,,,,,,,,,,,,,,,,,,,,,,,,,,1142.8672663827892,None,discovery,sing,red,3,95,1140.8666521531995,None,None,1140.8666521531995,None,,,,,,,,,,,,,,,,,,,,,,,,,,,,,,,,,NC4,001,2019_Dec_03_1523,ProdSingRedo,3.2.4,59.98619471811765,
56,0,56,0,,,,,,,,,,,,,,,,,,,,,,,,,,,,1145.3847450248431,None,principal,sing,red,7,236,1143.3840944080148,None,None,1143.3840944080148,None,,,,,,,,,,,,,,,,,,,,,,,,,,,,,,,,,NC4,001,2019_Dec_03_1523,ProdSingRedo,3.2.4,59.98619471811765,
57,0,57,0,,,,,,,,,,,,,,,,,,,,,,,,,,,,1147.9021990974434,None,medicine,silent,blue,67,186,1145.901538217673,None,None,1145.901538217673,None,,,,,,,,,,,,,,,,,,,,,,,,,,,,,,,,,NC4,001,2019_Dec_03_1523,ProdSingRedo,3.2.4,59.98619471811765,
58,0,58,0,,,,,,,,,,,,,,,,,,,,,,,,,,,,1150.4029542112257,None,watch,sing,red,14,351,1148.40210641874,None,None,1148.40210641874,None,,,,,,,,,,,,,,,,,,,,,,,,,,,,,,,,,NC4,001,2019_Dec_03_1523,ProdSingRedo,3.2.4,59.98619471811765,
59,0,59,0,,,,,,,,,,,,,,,,,,,,,,,,,,,,1152.920388068771,None,light,aloud,yellow,42,171,1150.9197520690504,None,None,1150.9197520690504,None,,,,,,,,,,,,,,,,,,,,,,,,,,,,,,,,,NC4,001,2019_Dec_03_1523,ProdSingRedo,3.2.4,59.98619471811765,
60,0,60,0,,,,,,,,,,,,,,,,,,,,,,,,,,,,1155.4378517826553,None,growth,silent,blue,77,144,1153.4371473623905,None,None,1153.4371473623905,None,,,,,,,,,,,,,,,,,,,,,,,,,,,,,,,,,NC4,001,2019_Dec_03_1523,ProdSingRedo,3.2.4,59.98619471811765,
61,0,61,0,,,,,,,,,,,,,,,,,,,,,,,,,,,,1157.9552629368845,None,evidence,aloud,yellow,43,120,1155.9546281811781,None,None,1155.9546281811781,None,,,,,,,,,,,,,,,,,,,,,,,,,,,,,,,,,NC4,001,2019_Dec_03_1523,ProdSingRedo,3.2.4,59.98619471811765,
62,0,62,0,,,,,,,,,,,,,,,,,,,,,,,,,,,,1160.4727129666135,None,signal,sing,red,25,287,1158.4720614168327,None,None,1158.4720614168327,None,,,,,,,,,,,,,,,,,,,,,,,,,,,,,,,,,NC4,001,2019_Dec_03_1523,ProdSingRedo,3.2.4,59.98619471811765,
63,0,63,0,,,,,,,,,,,,,,,,,,,,,,,,,,,,1162.9901359390933,None,drama,aloud,yellow,44,103,1160.9894856333267,None,None,1160.9894856333267,None,,,,,,,,,,,,,,,,,,,,,,,,,,,,,,,,,NC4,001,2019_Dec_03_1523,ProdSingRedo,3.2.4,59.98619471811765,
64,0,64,0,,,,,,,,,,,,,,,,,,,,,,,,,,,,1165.507589078974,None,population,aloud,yellow,38,227,1163.5069375289604,None,None,1163.5069375289604,None,,,,,,,,,,,,,,,,,,,,,,,,,,,,,,,,,NC4,001,2019_Dec_03_1523,ProdSingRedo,3.2.4,59.98619471811765,
65,0,65,0,,,,,,,,,,,,,,,,,,,,,,,,,,,,1168.0250624336768,None,surprise,aloud,yellow,30,317,1166.0243748077191,None,None,1166.0243748077191,None,,,,,,,,,,,,,,,,,,,,,,,,,,,,,,,,,NC4,001,2019_Dec_03_1523,ProdSingRedo,3.2.4,59.98619471811765,
66,0,66,0,,,,,,,,,,,,,,,,,,,,,,,,,,,,1170.5424552389886,None,bright,silent,blue,87,29,1168.5418123973068,None,None,1168.5418123973068,None,,,,,,,,,,,,,,,,,,,,,,,,,,,,,,,,,NC4,001,2019_Dec_03_1523,ProdSingRedo,3.2.4,59.98619471811765,
67,0,67,0,,,,,,,,,,,,,,,,,,,,,,,,,,,,1173.0599223738536,None,guest,aloud,yellow,31,146,1171.0592499868944,None,None,1171.0592499868944,None,,,,,,,,,,,,,,,,,,,,,,,,,,,,,,,,,NC4,001,2019_Dec_03_1523,ProdSingRedo,3.2.4,59.98619471811765,
68,0,68,0,,,,,,,,,,,,,,,,,,,,,,,,,,,,1175.5773381933104,None,object,silent,blue,76,204,1173.5765379844233,None,None,1173.5765379844233,None,,,,,,,,,,,,,,,,,,,,,,,,,,,,,,,,,NC4,001,2019_Dec_03_1523,ProdSingRedo,3.2.4,59.98619471811765,
69,0,69,0,,,,,,,,,,,,,,,,,,,,,,,,,,,,1178.0947841799352,None,produce,sing,red,8,239,1176.093995789066,None,None,1176.093995789066,None,,,,,,,,,,,,,,,,,,,,,,,,,,,,,,,,,NC4,001,2019_Dec_03_1523,ProdSingRedo,3.2.4,59.98619471811765,
70,0,70,0,,,,,,,,,,,,,,,,,,,,,,,,,,,,1180.6122217695229,None,listen,aloud,yellow,39,172,1178.611571774818,None,None,1178.611571774818,None,,,,,,,,,,,,,,,,,,,,,,,,,,,,,,,,,NC4,001,2019_Dec_03_1523,ProdSingRedo,3.2.4,59.98619471811765,
71,0,71,0,,,,,,,,,,,,,,,,,,,,,,,,,,,,1183.1296531392727,None,partner,sing,red,20,211,1181.1290193165187,None,None,1181.1290193165187,None,,,,,,,,,,,,,,,,,,,,,,,,,,,,,,,,,NC4,001,2019_Dec_03_1523,ProdSingRedo,3.2.4,59.98619471811765,
72,0,72,0,,,,,,,,,,,,,,,,,,,,,,,,,,,,1185.647071135696,None,congress,silent,blue,84,67,1183.64642145182,None,None,1183.64642145182,None,,,,,,,,,,,,,,,,,,,,,,,,,,,,,,,,,NC4,001,2019_Dec_03_1523,ProdSingRedo,3.2.4,59.98619471811765,
73,0,73,0,,,,,,,,,,,,,,,,,,,,,,,,,,,,1188.164549777517,None,blind,silent,blue,80,24,1186.1638761465438,None,None,1186.1638761465438,None,,,,,,,,,,,,,,,,,,,,,,,,,,,,,,,,,NC4,001,2019_Dec_03_1523,ProdSingRedo,3.2.4,59.98619471811765,
74,0,74,0,,,,,,,,,,,,,,,,,,,,,,,,,,,,1190.6819830131717,None,shock,silent,blue,79,284,1188.68123971764,None,None,1188.68123971764,None,,,,,,,,,,,,,,,,,,,,,,,,,,,,,,,,,NC4,001,2019_Dec_03_1523,ProdSingRedo,3.2.4,59.98619471811765,
75,0,75,0,,,,,,,,,,,,,,,,,,,,,,,,,,,,1193.199277852662,None,worker,sing,red,17,356,1191.1987581676804,None,None,1191.1987581676804,None,,,,,,,,,,,,,,,,,,,,,,,,,,,,,,,,,NC4,001,2019_Dec_03_1523,ProdSingRedo,3.2.4,59.98619471811765,
76,0,76,0,,,,,,,,,,,,,,,,,,,,,,,,,,,,1195.7168631684035,None,frank,sing,red,9,133,1193.7161970012821,None,None,1193.7161970012821,None,,,,,,,,,,,,,,,,,,,,,,,,,,,,,,,,,NC4,001,2019_Dec_03_1523,ProdSingRedo,3.2.4,59.98619471811765,
77,0,77,0,,,,,,,,,,,,,,,,,,,,,,,,,,,,1198.2342805429362,None,style,aloud,yellow,55,311,1196.2336289929226,None,None,1196.2336289929226,None,,,,,,,,,,,,,,,,,,,,,,,,,,,,,,,,,NC4,001,2019_Dec_03_1523,ProdSingRedo,3.2.4,59.98619471811765,
78,0,78,0,,,,,,,,,,,,,,,,,,,,,,,,,,,,1200.7517461227253,None,level,sing,red,29,170,1198.751056941459,None,None,1198.751056941459,None,,,,,,,,,,,,,,,,,,,,,,,,,,,,,,,,,NC4,001,2019_Dec_03_1523,ProdSingRedo,3.2.4,59.98619471811765,
79,0,79,0,,,,,,,,,,,,,,,,,,,,,,,,,,,,1203.269172205124,None,judge,sing,red,10,166,1201.268396254396,None,None,1201.268396254396,None,,,,,,,,,,,,,,,,,,,,,,,,,,,,,,,,,NC4,001,2019_Dec_03_1523,ProdSingRedo,3.2.4,59.98619471811765,
80,0,80,0,,,,,,,,,,,,,,,,,,,,,,,,,,,,1205.786594866775,None,agency,silent,blue,88,4,1203.7857781746425,None,None,1203.7857781746425,None,,,,,,,,,,,,,,,,,,,,,,,,,,,,,,,,,NC4,001,2019_Dec_03_1523,ProdSingRedo,3.2.4,59.98619471811765,
81,0,81,0,,,,,,,,,,,,,,,,,,,,,,,,,,,,1208.304023437202,None,drink,silent,blue,63,105,1206.3032767206896,None,None,1206.3032767206896,None,,,,,,,,,,,,,,,,,,,,,,,,,,,,,,,,,NC4,001,2019_Dec_03_1523,ProdSingRedo,3.2.4,59.98619471811765,
82,0,82,0,,,,,,,,,,,,,,,,,,,,,,,,,,,,1210.8214743998833,None,stand,aloud,yellow,56,302,1208.8208359121345,None,None,1208.8208359121345,None,,,,,,,,,,,,,,,,,,,,,,,,,,,,,,,,,NC4,001,2019_Dec_03_1523,ProdSingRedo,3.2.4,59.98619471811765,
83,0,83,0,,,,,,,,,,,,,,,,,,,,,,,,,,,,1213.3389082574286,None,audience,sing,red,2,14,1211.338260750752,None,None,1211.338260750752,None,,,,,,,,,,,,,,,,,,,,,,,,,,,,,,,,,NC4,001,2019_Dec_03_1523,ProdSingRedo,3.2.4,59.98619471811765,
84,0,84,0,,,,,,,,,,,,,,,,,,,,,,,,,,,,1215.8563511341345,None,period,aloud,yellow,34,217,1213.855727885384,None,None,1213.855727885384,None,,,,,,,,,,,,,,,,,,,,,,,,,,,,,,,,,NC4,001,2019_Dec_03_1523,ProdSingRedo,3.2.4,59.98619471811765,
85,0,85,0,,,,,,,,,,,,,,,,,,,,,,,,,,,,1218.3737862356938,None,throw,silent,blue,78,330,1216.3731393509079,None,None,1216.3731393509079,None,,,,,,,,,,,,,,,,,,,,,,,,,,,,,,,,,NC4,001,2019_Dec_03_1523,ProdSingRedo,3.2.4,59.98619471811765,
86,0,86,0,,,,,,,,,,,,,,,,,,,,,,,,,,,,1220.8912141842302,None,gesture,aloud,yellow,36,137,1218.8905940456316,None,None,1218.8905940456316,None,,,,,,,,,,,,,,,,,,,,,,,,,,,,,,,,,NC4,001,2019_Dec_03_1523,ProdSingRedo,3.2.4,59.98619471811765,
87,0,87,0,,,,,,,,,,,,,,,,,,,,,,,,,,,,1223.4086838071235,None,problem,sing,red,1,238,1221.4079986689612,None,None,1221.4079986689612,None,,,,,,,,,,,,,,,,,,,,,,,,,,,,,,,,,NC4,001,2019_Dec_03_1523,ProdSingRedo,3.2.4,59.98619471811765,
88,0,88,0,,,,,,,,,,,,,,,,,,,,,,,,,,,,1225.9261018035468,None,opening,sing,red,0,205,1223.9254595837556,None,None,1223.9254595837556,None,,,,,,,,,,,,,,,,,,,,,,,,,,,,,,,,,NC4,001,2019_Dec_03_1523,ProdSingRedo,3.2.4,59.98619471811765,
89,0,89,0,,,,,,,,,,,,,,,,,,,,,,,,,,,,1228.4435552542564,None,symbol,sing,red,16,321,1226.4428810011595,None,None,1226.4428810011595,None,,,,,,,,,,,,,,,,,,,,,,,,,,,,,,,,,NC4,001,2019_Dec_03_1523,ProdSingRedo,3.2.4,59.98619471811765,
,,,,,,,,,,,,,,,,,,,,,,,,,,,,,,,,,,,,,,,,,,,1228.9437138654757,None,k,133.20801110914908,1228.9437138654757,None,,,,,,,,,,,,,,,,,,,,,,,,,,,NC4,001,2019_Dec_03_1523,ProdSingRedo,3.2.4,59.98619471811765,
,,,,0,0,0,0,,,,,,,,,,,,,,,,,,,,,,,,1371.2371482953895,None,,,,,,,,,,,,,,,,,principal,sing,white,0,7,236,1362.684459213633,None,1362.684459213633,None,6,4.722610802389681,1362.684459213633,None,1367.455646402901,None,1367.9861414253246,None,1367.9861414253246,None,r,3.2127579376101494,1367.9861414253246,None,,,NC4,001,2019_Dec_03_1523,ProdSingRedo,3.2.4,59.98619471811765,
,,,,1,0,1,0,,,,,,,,,,,,,,,,,,,,,,,,1375.5385957001708,None,,,,,,,,,,,,,,,,,gesture,aloud,white,1,36,137,1371.7541290225927,None,1371.7541290225927,None,6,2.836502965306863,1371.7541290225927,None,1374.640609440161,None,1375.155126717873,None,1375.155126717873,None,r,0.33977439906448126,1375.155126717873,None,,,NC4,001,2019_Dec_03_1523,ProdSingRedo,3.2.4,59.98619471811765,
,,,,2,0,2,0,,,,,,,,,,,,,,,,,,,,,,,,1379.92330620368,None,,,,,,,,,,,,,,,,,collection,new_b,white,2,148,54,1376.0553005682305,None,1376.0553005682305,None,1,2.7351553922053427,1376.0553005682305,None,1378.842651792569,None,1379.356285823742,None,1379.356285823742,None,n,0.5223290342837572,1379.356285823742,None,,,NC4,001,2019_Dec_03_1523,ProdSingRedo,3.2.4,59.98619471811765,
,,,,3,0,3,0,,,,,,,,,,,,,,,,,,,,,,,,1383.8244525582995,None,,,,,,,,,,,,,,,,,testimony,new_b,white,3,137,325,1380.4400375068653,None,1380.4400375068653,None,6,2.670071312924847,1380.4400375068653,None,1383.164037867682,None,1383.6744237905368,None,1383.6744237905368,None,r,0.11580016231164336,1383.6744237905368,None,,,NC4,001,2019_Dec_03_1523,ProdSingRedo,3.2.4,59.98619471811765,
,,,,4,0,4,0,,,,,,,,,,,,,,,,,,,,,,,,1392.2103880997747,None,,,,,,,,,,,,,,,,,division,new_a,white,4,114,101,1384.3411847944371,None,1384.3411847944371,None,6,6.88045288156718,1384.3411847944371,None,1391.2766658063047,None,1391.7767808772624,None,1391.7767808772624,None,r,0.38909999025054276,1391.7767808772624,None,,,NC4,001,2019_Dec_03_1523,ProdSingRedo,3.2.4,59.98619471811765,
,,,,5,0,5,0,,,,,,,,,,,,,,,,,,,,,,,,1395.894862552639,None,,,,,,,,,,,,,,,,,beginning,new_a,white,5,97,19,1392.7272453592159,None,1392.7272453592159,None,6,2.2301600729115307,1392.7272453592159,None,1394.996462037554,None,1395.511362159159,None,1395.511362159159,None,r,0.34215356688946486,1395.511362159159,None,,,NC4,001,2019_Dec_03_1523,ProdSingRedo,3.2.4,59.98619471811765,
,,,,6,0,6,0,,,,,,,,,,,,,,,,,,,,,,,,1398.6289987901691,None,,,,,,,,,,,,,,,,,member,silent,white,6,83,188,1396.4129492039792,None,1396.4129492039792,None,6,1.3843264156021178,1396.4129492039792,None,1397.8474807257298,None,1398.3622667095624,None,1398.3622667095624,None,r,0.22688957257196307,1398.3622667095624,None,,,NC4,001,2019_Dec_03_1523,ProdSingRedo,3.2.4,59.98619471811765,
,,,,7,0,7,0,,,,,,,,,,,,,,,,,,,,,,,,1401.6132200870197,None,,,,,,,,,,,,,,,,,series,aloud,white,7,32,279,1399.145843609469,None,1399.145843609469,None,6,1.6431801854632795,1399.145843609469,None,1400.832118454622,None,1401.346509465482,None,1401.346509465482,None,r,0.22646598727442324,1401.346509465482,None,,,NC4,001,2019_Dec_03_1523,ProdSingRedo,3.2.4,59.98619471811765,
,,,,8,0,8,0,,,,,,,,,,,,,,,,,,,,,,,,1404.3974451159593,None,,,,,,,,,,,,,,,,,voice,silent,white,8,64,348,1402.1299703614786,None,1402.1299703614786,None,6,1.4510382812004536,1402.1299703614786,None,1403.618588920217,None,1404.1306987290736,None,1404.1306987290736,None,r,0.21816533501259983,1404.1306987290736,None,,,NC4,001,2019_Dec_03_1523,ProdSingRedo,3.2.4,59.98619471811765,
,,,,9,0,9,0,,,,,,,,,,,,,,,,,,,,,,,,1408.798804818187,None,,,,,,,,,,,,,,,,,interior,aloud,white,9,59,164,1404.914154027123,None,1404.914154027123,None,1,3.0265151255298406,1404.914154027123,None,1407.981663924642,None,1408.4986769962125,None,1408.4986769962125,None,n,0.26603077072650194,1408.4986769962125,None,,,NC4,001,2019_Dec_03_1523,ProdSingRedo,3.2.4,59.98619471811765,
,,,,10,0,10,0,,,,,,,,,,,,,,,,,,,,,,,,1414.6505851510447,None,,,,,,,,,,,,,,,,,executive,new_b,white,10,129,122,1409.3178633518983,None,1409.3178633518983,None,1,2.4146118224598467,1409.3178633518983,None,1411.7830186509527,None,1412.2831921901088,None,1412.2831921901088,None,f,2.329019005410373,1412.2831921901088,None,,,NC4,001,2019_Dec_03_1523,ProdSingRedo,3.2.4,59.98619471811765,
,,,,11,0,11,0,,,,,,,,,,,,,,,,,,,,,,,,1420.3523224098608,None,,,,,,,,,,,,,,,,,shear,new_a,white,11,107,283,1415.1674172191415,None,1415.1674172191415,None,1,3.9805303211323917,1415.1674172191415,None,1419.1866396509577,None,1419.7021334760357,None,1419.7021334760357,None,n,0.6137519010808319,1419.7021334760357,None,,,NC4,001,2019_Dec_03_1523,ProdSingRedo,3.2.4,59.98619471811765,
,,,,12,0,12,0,,,,,,,,,,,,,,,,,,,,,,,,1424.8370263823308,None,,,,,,,,,,,,,,,,,congress,silent,white,12,84,67,1420.869159765076,None,1420.869159765076,None,6,3.0945039668586105,1420.869159765076,None,1424.0033059548587,None,1424.52026802185,None,1424.52026802185,None,r,0.27554028877057135,1424.52026802185,None,,,NC4,001,2019_Dec_03_1523,ProdSingRedo,3.2.4,59.98619471811765,
,,,,13,0,13,0,,,,,,,,,,,,,,,,,,,,,,,,1429.3717619215604,None,,,,,,,,,,,,,,,,,crisis,new_a,white,13,109,79,1425.3537614177912,None,1425.3537614177912,None,1,2.377615296281874,1425.3537614177912,None,1427.7739974062424,None,1428.2881016728934,None,1428.2881016728934,None,n,1.0352465158794075,1428.2881016728934,None,,,NC4,001,2019_Dec_03_1523,ProdSingRedo,3.2.4,59.98619471811765,
,,,,14,0,14,0,,,,,,,,,,,,,,,,,,,,,,,,1437.1574915796518,None,,,,,,,,,,,,,,,,,production,silent,white,14,60,240,1429.8886020756327,None,1429.8886020756327,None,6,6.450313334818929,1429.8886020756327,None,1436.3779123036657,None,1436.8793441583402,None,1436.8793441583402,None,r,0.24344578152522445,1436.8793441583402,None,,,NC4,001,2019_Dec_03_1523,ProdSingRedo,3.2.4,59.98619471811765,
,,,,15,0,15,0,,,,,,,,,,,,,,,,,,,,,,,,1440.008374981815,None,,,,,,,,,,,,,,,,,commercial,silent,white,15,71,61,1437.674179653637,None,1437.674179653637,None,6,1.5927321864292026,1437.674179653637,None,1439.3108284792397,None,1439.8249893481843,None,1439.8249893481843,None,r,0.13760422472842038,1439.8249893481843,None,,,NC4,001,2019_Dec_03_1523,ProdSingRedo,3.2.4,59.98619471811765,
,,,,16,0,16,0,,,,,,,,,,,,,,,,,,,,,,,,1443.5761349252425,None,,,,,,,,,,,,,,,,,music,new_b,white,16,146,196,1440.5250387976412,None,1440.5250387976412,None,1,2.2774846754036844,1440.5250387976412,None,1442.8423964595422,None,1443.3593942918815,None,1443.3593942918815,None,n,0.17902973503805697,1443.3593942918815,None,,,NC4,001,2019_Dec_03_1523,ProdSingRedo,3.2.4,59.98619471811765,
,,,,17,0,17,0,,,,,,,,,,,,,,,,,,,,,,,,1448.5609381075483,None,,,,,,,,,,,,,,,,,split,new_c,white,17,178,299,1444.0928226883989,None,1444.0928226883989,None,1,3.6534183819312602,1444.0928226883989,None,1447.7939970330335,None,1448.3108661104925,None,1448.3108661104925,None,n,0.2031787547748536,1448.3108661104925,None,,,NC4,001,2019_Dec_03_1523,ProdSingRedo,3.2.4,59.98619471811765,
,,,,18,0,18,0,,,,,,,,,,,,,,,,,,,,,,,,1452.6956024272367,None,,,,,,,,,,,,,,,,,partner,sing,white,18,20,211,1449.0776218273677,None,1449.0776218273677,None,6,2.8202701988629997,1449.0776218273677,None,1451.948316700058,None,1452.4621612797491,None,1452.4621612797491,None,r,0.1957529520150274,1452.4621612797491,None,,,NC4,001,2019_Dec_03_1523,ProdSingRedo,3.2.4,59.98619471811765,
,,,,19,0,19,0,,,,,,,,,,,,,,,,,,,,,,,,1455.763185099233,None,,,,,,,,,,,,,,,,,income,new_c,white,19,159,159,1453.2122643769253,None,1453.2122643769253,None,1,1.245548157254234,1453.2122643769253,None,1454.497722530039,None,1455.0129731511697,None,1455.0129731511697,None,n,0.7089220348279923,1455.0129731511697,None,,,NC4,001,2019_Dec_03_1523,ProdSingRedo,3.2.4,59.98619471811765,
,,,,20,0,20,0,,,,,,,,,,,,,,,,,,,,,,,,1458.3473233585246,None,,,,,,,,,,,,,,,,,symbol,sing,white,20,16,321,1456.282910733018,None,1456.282910733018,None,6,1.318606958258897,1456.282910733018,None,1457.6636093065608,None,1458.1638176781125,None,1458.1638176781125,None,r,0.14193493220955133,1458.1638176781125,None,,,NC4,001,2019_Dec_03_1523,ProdSingRedo,3.2.4,59.98619471811765,
,,,,21,0,21,0,,,,,,,,,,,,,,,,,,,,,,,,1460.7480470610317,None,,,,,,,,,,,,,,,,,block,silent,white,21,69,25,1458.864025427727,None,1458.864025427727,None,1,1.057685645064339,1458.864025427727,None,1459.9678812345956,None,1460.4811681869905,None,1460.4811681869905,None,n,0.22447557235136628,1460.4811681869905,None,,,NC4,001,2019_Dec_03_1523,ProdSingRedo,3.2.4,59.98619471811765,
,,,,22,0,22,0,,,,,,,,,,,,,,,,,,,,,,,,1463.0987836699933,None,,,,,,,,,,,,,,,,,level,sing,white,22,29,170,1461.2649428844452,None,1461.2649428844452,None,6,1.1362927278969437,1461.2649428844452,None,1462.4546403102577,None,1462.9652548197191,None,1462.9652548197191,None,r,0.10009858757257462,1462.9652548197191,None,,,NC4,001,2019_Dec_03_1523,ProdSingRedo,3.2.4,59.98619471811765,
,,,,23,0,23,0,,,,,,,,,,,,,,,,,,,,,,,,1465.3994694300927,None,,,,,,,,,,,,,,,,,style,aloud,white,23,55,311,1463.6155961449258,None,1463.6155961449258,None,6,0.9455836114939302,1463.6155961449258,None,1464.6157874113414,None,1465.1160685573705,None,1465.1160685573705,None,r,0.2450766775291413,1465.1160685573705,None,,,NC4,001,2019_Dec_03_1523,ProdSingRedo,3.2.4,59.98619471811765,
,,,,24,0,24,0,,,,,,,,,,,,,,,,,,,,,,,,1467.583489508368,None,,,,,,,,,,,,,,,,,committee,new_c,white,24,168,62,1465.9163061631843,None,1465.9163061631843,None,1,0.7807542427908629,1465.9163061631843,None,1466.7366702847648,None,1467.2500682650134,None,1467.2500682650134,None,n,0.2868405585177243,1467.2500682650134,None,,,NC4,001,2019_Dec_03_1523,ProdSingRedo,3.2.4,59.98619471811765,
,,,,25,0,25,0,,,,,,,,,,,,,,,,,,,,,,,,1469.884183043614,None,,,,,,,,,,,,,,,,,institute,sing,white,25,18,162,1468.1001583002508,None,1468.1001583002508,None,6,0.9249523389153183,1468.1001583002508,None,1469.0672726030461,None,1469.5840801019222,None,1469.5840801019222,None,r,0.2570440471172333,1469.5840801019222,None,,,NC4,001,2019_Dec_03_1523,ProdSingRedo,3.2.4,59.98619471811765,
,,,,26,0,26,0,,,,,,,,,,,,,,,,,,,,,,,,1472.2515943534672,None,,,,,,,,,,,,,,,,,graduate,silent,white,26,75,141,1470.4008667636663,None,1470.4008667636663,None,1,1.031900130910799,1470.4008667636663,None,1471.4695323458873,None,1471.9848131344188,None,1471.9848131344188,None,n,0.22407189127989113,1471.9848131344188,None,,,NC4,001,2019_Dec_03_1523,ProdSingRedo,3.2.4,59.98619471811765,
,,,,27,0,27,0,,,,,,,,,,,,,,,,,,,,,,,,1474.6356424221303,None,,,,,,,,,,,,,,,,,staff,silent,white,27,85,301,1472.768416469451,None,1472.768416469451,None,1,1.0482090930454433,1472.768416469451,None,1473.854537679581,None,1474.3688891930506,None,1474.3688891930506,None,n,0.2317181946709752,1474.3688891930506,None,,,NC4,001,2019_Dec_03_1523,ProdSingRedo,3.2.4,59.98619471811765,
,,,,28,0,28,0,,,,,,,,,,,,,,,,,,,,,,,,1476.8863358017989,None,,,,,,,,,,,,,,,,,discovery,sing,white,28,3,95,1475.1522919316776,None,1475.1522919316776,None,6,0.9441691730171442,1475.1522919316776,None,1476.1376595832407,None,1476.6528452048078,None,1476.6528452048078,None,r,0.1955927861854434,1476.6528452048078,None,,,NC4,001,2019_Dec_03_1523,ProdSingRedo,3.2.4,59.98619471811765,
,,,,29,0,29,0,,,,,,,,,,,,,,,,,,,,,,,,1479.1370120763313,None,,,,,,,,,,,,,,,,,atmosphere,new_c,white,29,165,12,1477.4031541857403,None,1477.4031541857403,None,1,0.789512379327789,1477.4031541857403,None,1478.237193701556,None,1478.753587878542,None,1478.753587878542,None,n,0.34265956771560013,1478.753587878542,None,,,NC4,001,2019_Dec_03_1523,ProdSingRedo,3.2.4,59.98619471811765,
,,,,30,0,30,0,,,,,,,,,,,,,,,,,,,,,,,,1481.4043919749092,None,,,,,,,,,,,,,,,,,bicycle,new_c,white,30,151,21,1479.6557664498687,None,1479.6557664498687,None,1,0.8726656942162663,1479.6557664498687,None,1480.5874295968097,None,1481.0874669172335,None,1481.0874669172335,None,n,0.28066809521988034,1481.0874669172335,None,,,NC4,001,2019_Dec_03_1523,ProdSingRedo,3.2.4,59.98619471811765,
,,,,31,0,31,0,,,,,,,,,,,,,,,,,,,,,,,,1483.621707962593,None,,,,,,,,,,,,,,,,,judge,sing,white,31,10,166,1481.9210744509473,None,1481.9210744509473,None,6,0.8709219042211771,1481.9210744509473,None,1482.8438118312042,None,1483.3549699727446,None,1483.3549699727446,None,r,0.2209693321492523,1483.3549699727446,None,,,NC4,001,2019_Dec_03_1523,ProdSingRedo,3.2.4,59.98619471811765,
,,,,32,0,32,0,,,,,,,,,,,,,,,,,,,,,,,,1485.772394811269,None,,,,,,,,,,,,,,,,,foundation,new_a,white,32,116,132,1484.1384625912178,None,1484.1384625912178,None,1,0.989771444350481,1484.1384625912178,None,1485.1756715318188,None,1485.6890433880035,None,1485.6890433880035,None,n,0.04683974990621209,1485.6890433880035,None,,,NC4,001,2019_Dec_03_1523,ProdSingRedo,3.2.4,59.98619471811765,
,,,,33,0,33,0,,,,,,,,,,,,,,,,,,,,,,,,1487.9396639931947,None,,,,,,,,,,,,,,,,,guest,aloud,white,33,31,146,1486.2892110182438,None,1486.2892110182438,None,6,0.8465956130530685,1486.2892110182438,None,1487.1740210424177,None,1487.6895108246244,None,1487.6895108246244,None,r,0.21426287782378495,1487.6895108246244,None,,,NC4,001,2019_Dec_03_1523,ProdSingRedo,3.2.4,59.98619471811765,
,,,,34,0,34,0,,,,,,,,,,,,,,,,,,,,,,,,1490.0570428033825,None,,,,,,,,,,,,,,,,,listen,aloud,white,34,39,172,1488.4564932622015,None,1488.4564932622015,None,6,0.7431382001377642,1488.4564932622015,None,1489.2430309043266,None,1489.7569392395671,None,1489.7569392395671,None,r,0.2588774061296135,1489.7569392395671,None,,,NC4,001,2019_Dec_03_1523,ProdSingRedo,3.2.4,59.98619471811765,
,,,,35,0,35,0,,,,,,,,,,,,,,,,,,,,,,,,1492.1743510160595,None,,,,,,,,,,,,,,,,,junior,aloud,white,35,52,167,1490.5738642972428,None,1490.5738642972428,None,6,0.7936978489160538,1490.5738642972428,None,1491.4089752163272,None,1491.9242808849085,None,1491.9242808849085,None,r,0.21120790182612836,1491.9242808849085,None,,,NC4,001,2019_Dec_03_1523,ProdSingRedo,3.2.4,59.98619471811765,
,,,,36,0,36,0,,,,,,,,,,,,,,,,,,,,,,,,1494.4250108073466,None,,,,,,,,,,,,,,,,,worker,sing,white,36,17,356,1492.6916104012635,None,1492.6916104012635,None,6,0.9240414130035788,1492.6916104012635,None,1493.6599715121556,None,1494.1749207722023,None,1494.1749207722023,None,r,0.2165275968145579,1494.1749207722023,None,,,NC4,001,2019_Dec_03_1523,ProdSingRedo,3.2.4,59.98619471811765,
,,,,37,0,37,0,,,,,,,,,,,,,,,,,,,,,,,,1496.6090445697773,None,,,,,,,,,,,,,,,,,primary,aloud,white,37,41,234,1494.9418416314293,None,1494.9418416314293,None,6,0.8737709964625537,1494.9418416314293,None,1495.8604339726735,None,1496.3756192834117,None,1496.3756192834117,None,r,0.1996812226716429,1496.3756192834117,None,,,NC4,001,2019_Dec_03_1523,ProdSingRedo,3.2.4,59.98619471811765,
,,,,38,0,38,0,,,,,,,,,,,,,,,,,,,,,,,,1498.826405030908,None,,,,,,,,,,,,,,,,,defeat,silent,white,38,82,88,1497.1258993409574,None,1497.1258993409574,None,1,0.8811557467561215,1497.1258993409574,None,1498.0446683317423,None,1498.5596203906462,None,1498.5596203906462,None,n,0.23142118728719652,1498.5596203906462,None,,,NC4,001,2019_Dec_03_1523,ProdSingRedo,3.2.4,59.98619471811765,
,,,,39,0,39,0,,,,,,,,,,,,,,,,,,,,,,,,1501.143771400908,None,,,,,,,,,,,,,,,,,power,sing,white,39,28,230,1499.3432128408458,None,1499.3432128408458,None,1,0.9117900982964784,1499.3432128408458,None,1500.2943438007496,None,1500.8103439374827,None,1500.8103439374827,None,n,0.2927004643715918,1500.8103439374827,None,,,NC4,001,2019_Dec_03_1523,ProdSingRedo,3.2.4,59.98619471811765,
,,,,40,0,40,0,,,,,,,,,,,,,,,,,,,,,,,,1503.4611461679451,None,,,,,,,,,,,,,,,,,patient,new_c,white,40,152,213,1501.6603950974531,None,1501.6603950974531,None,1,0.9543946185149252,1501.6603950974531,None,1502.662981081754,None,1503.1777275681961,None,1503.1777275681961,None,n,0.24509036168456078,1503.1777275681961,None,,,NC4,001,2019_Dec_03_1523,ProdSingRedo,3.2.4,59.98619471811765,
,,,,41,0,41,0,,,,,,,,,,,,,,,,,,,,,,,,1505.6785302653443,None,,,,,,,,,,,,,,,,,position,sing,white,41,26,229,1503.977824600879,None,1503.977824600879,None,6,0.8930752221494913,1503.977824600879,None,1504.914376393659,None,1505.4284324550536,None,1505.4284324550536,None,r,0.2021596000995487,1505.4284324550536,None,,,NC4,001,2019_Dec_03_1523,ProdSingRedo,3.2.4,59.98619471811765,
,,,,42,0,42,0,,,,,,,,,,,,,,,,,,,,,,,,1507.7958310139365,None,,,,,,,,,,,,,,,,,audience,sing,white,42,2,14,1506.1951657799073,None,1506.1951657799073,None,6,0.8674728884361684,1506.1951657799073,None,1507.1150562448893,None,1507.6290874260012,None,1507.6290874260012,None,r,0.12146538076922297,1507.6290874260012,None,,,NC4,001,2019_Dec_03_1523,ProdSingRedo,3.2.4,59.98619471811765,
,,,,43,0,43,0,,,,,,,,,,,,,,,,,,,,,,,,1510.0131482456345,None,,,,,,,,,,,,,,,,,budget,new_a,white,43,106,34,1508.3126192304771,None,1508.3126192304771,None,1,0.917822610354051,1508.3126192304771,None,1509.2795702570584,None,1509.7797453512903,None,1509.7797453512903,None,n,0.18657682836055756,1509.7797453512903,None,,,NC4,001,2019_Dec_03_1523,ProdSingRedo,3.2.4,59.98619471811765,
,,,,44,0,44,0,,,,,,,,,,,,,,,,,,,,,,,,1512.2804936228786,None,,,,,,,,,,,,,,,,,novel,new_c,white,44,161,202,1510.530570285162,None,1510.530570285162,None,1,1.05974759045057,1510.530570285162,None,1511.6356240729801,None,1512.1471507521346,None,1512.1471507521346,None,n,0.0992200062610209,1512.1471507521346,None,,,NC4,001,2019_Dec_03_1523,ProdSingRedo,3.2.4,59.98619471811765,
,,,,45,0,45,0,,,,,,,,,,,,,,,,,,,,,,,,1514.464529251447,None,,,,,,,,,,,,,,,,,period,aloud,white,45,34,217,1512.7972006681375,None,1512.7972006681375,None,6,0.8809560833033174,1512.7972006681375,None,1513.716521065915,None,1514.2311182711273,None,1514.2311182711273,None,r,0.19912483938969672,1514.2311182711273,None,,,NC4,001,2019_Dec_03_1523,ProdSingRedo,3.2.4,59.98619471811765,
,,,,46,0,46,0,,,,,,,,,,,,,,,,,,,,,,,,1517.5654308472294,None,,,,,,,,,,,,,,,,,drink,silent,white,46,63,105,1514.9812745498493,None,1514.9812745498493,None,1,1.936668107751757,1514.9812745498493,None,1516.9655869703274,None,1517.482123897178,None,1517.482123897178,None,n,0.035728569608181715,1517.482123897178,None,,,NC4,001,2019_Dec_03_1523,ProdSingRedo,3.2.4,59.98619471811765,
,,,,47,0,47,0,,,,,,,,,,,,,,,,,,,,,,,,1520.6829903495964,None,,,,,,,,,,,,,,,,,comedy,new_b,white,47,127,58,1518.08227628842,None,1518.08227628842,None,1,1.859667040873319,1518.08227628842,None,1519.9890608042479,None,1520.4995984961279,None,1520.4995984961279,None,n,0.13842806965112686,1520.4995984961279,None,,,NC4,001,2019_Dec_03_1523,ProdSingRedo,3.2.4,59.98619471811765,
,,,,48,0,48,0,,,,,,,,,,,,,,,,,,,,,,,,1522.8837715876289,None,,,,,,,,,,,,,,,,,trail,aloud,white,48,47,336,1521.1999219385907,None,1521.1999219385907,None,6,0.8457341366447508,1521.1999219385907,None,1522.100111960899,None,1522.6003623178694,None,1522.6003623178694,None,r,0.2371719314251095,1522.6003623178694,None,,,NC4,001,2019_Dec_03_1523,ProdSingRedo,3.2.4,59.98619471811765,
,,,,49,0,49,0,,,,,,,,,,,,,,,,,,,,,,,,1525.1011099673342,None,,,,,,,,,,,,,,,,,election,new_b,white,49,128,109,1523.4005909045227,None,1523.4005909045227,None,1,0.9488677959889174,1523.4005909045227,None,1524.3874846443068,None,1524.9010518100113,None,1524.9010518100113,None,n,0.15235071117058396,1524.9010518100113,None,,,NC4,001,2019_Dec_03_1523,ProdSingRedo,3.2.4,59.98619471811765,
,,,,50,0,50,0,,,,,,,,,,,,,,,,,,,,,,,,1527.2351106081624,None,,,,,,,,,,,,,,,,,count,new_c,white,50,150,72,1525.6179501214065,None,1525.6179501214065,None,1,0.8033684662077576,1525.6179501214065,None,1526.4690132830292,None,1526.9850320799742,None,1526.9850320799742,None,n,0.20426259795203805,1526.9850320799742,None,,,NC4,001,2019_Dec_03_1523,ProdSingRedo,3.2.4,59.98619471811765,
,,,,51,0,51,0,,,,,,,,,,,,,,,,,,,,,,,,1530.3360501460265,None,,,,,,,,,,,,,,,,,throw,silent,white,51,78,330,1527.7519411211833,None,1527.7519411211833,None,1,1.773544275900349,1527.7519411211833,None,1529.5713464224245,None,1530.0859728620853,None,1530.0859728620853,None,n,0.207416161429137,1530.0859728620853,None,,,NC4,001,2019_Dec_03_1523,ProdSingRedo,3.2.4,59.98619471811765,
,,,,52,0,52,0,,,,,,,,,,,,,,,,,,,,,,,,1533.0702268141322,None,,,,,,,,,,,,,,,,,service,new_c,white,52,155,280,1530.8526629575063,None,1530.8526629575063,None,1,1.392561135115102,1530.8526629575063,None,1532.2914396610577,None,1532.8033090648241,None,1532.8033090648241,None,n,0.2337571259122342,1532.8033090648241,None,,,NC4,001,2019_Dec_03_1523,ProdSingRedo,3.2.4,59.98619471811765,
,,,,53,0,53,0,,,,,,,,,,,,,,,,,,,,,,,,1535.1708690337837,None,,,,,,,,,,,,,,,,,cousin,new_c,white,53,163,76,1533.5869438112713,None,1533.5869438112713,None,1,0.801959625678137,1533.5869438112713,None,1534.4389231856912,None,1534.9541324435268,None,1534.9541324435268,None,n,0.17873552674427629,1534.9541324435268,None,,,NC4,001,2019_Dec_03_1523,ProdSingRedo,3.2.4,59.98619471811765,
,,,,54,0,54,0,,,,,,,,,,,,,,,,,,,,,,,,1537.3381786460523,None,,,,,,,,,,,,,,,,,oxygen,new_a,white,54,105,209,1535.6875487107318,None,1535.6875487107318,None,1,0.8531776661984622,1535.6875487107318,None,1536.590080580674,None,1537.1047975220717,None,1537.1047975220717,None,n,0.1882235857192427,1537.1047975220717,None,,,NC4,001,2019_Dec_03_1523,ProdSingRedo,3.2.4,59.98619471811765,
,,,,55,0,55,0,,,,,,,,,,,,,,,,,,,,,,,,1539.488864250714,None,,,,,,,,,,,,,,,,,health,aloud,white,55,33,149,1537.8550334172323,None,1537.8550334172323,None,6,0.8695407428313047,1537.8550334172323,None,1538.772866601823,None,1539.2886561900377,None,1539.2886561900377,None,r,0.16396695910952985,1539.2886561900377,None,,,NC4,001,2019_Dec_03_1523,ProdSingRedo,3.2.4,59.98619471811765,
,,,,56,0,56,0,,,,,,,,,,,,,,,,,,,,,,,,1542.006305572344,None,,,,,,,,,,,,,,,,,agency,silent,white,56,88,4,1540.0055286884308,None,1540.0055286884308,None,1,1.2072105889674276,1540.0055286884308,None,1541.2606911717448,None,1541.7727428229991,None,1541.7727428229991,None,n,0.19980033650062978,1541.7727428229991,None,,,NC4,001,2019_Dec_03_1523,ProdSingRedo,3.2.4,59.98619471811765,
,,,,57,0,57,0,,,,,,,,,,,,,,,,,,,,,,,,1544.4737050640397,None,,,,,,,,,,,,,,,,,attack,silent,white,57,61,13,1542.5230235024355,None,1542.5230235024355,None,1,1.2013338890392333,1542.5230235024355,None,1543.7583642522804,None,1544.2736556148157,None,1544.2736556148157,None,n,0.15456349262967706,1544.2736556148157,None,,,NC4,001,2019_Dec_03_1523,ProdSingRedo,3.2.4,59.98619471811765,
,,,,58,0,58,0,,,,,,,,,,,,,,,,,,,,,,,,1546.7077355610672,None,,,,,,,,,,,,,,,,,stranger,new_b,white,58,143,309,1544.990547706373,None,1544.990547706373,None,1,0.8936785666737705,1544.990547706373,None,1545.9273302627262,None,1546.4410009921994,None,1546.4410009921994,None,n,0.21908807894214988,1546.4410009921994,None,,,NC4,001,2019_Dec_03_1523,ProdSingRedo,3.2.4,59.98619471811765,
,,,,59,0,59,0,,,,,,,,,,,,,,,,,,,,,,,,1548.8583704722114,None,,,,,,,,,,,,,,,,,signal,sing,white,59,25,287,1547.2244031089358,None,1547.2244031089358,None,6,0.8196205149870366,1547.2244031089358,None,1548.0927807029802,None,1548.608293499099,None,1548.608293499099,None,r,0.20366360759362578,1548.608293499099,None,,,NC4,001,2019_Dec_03_1523,ProdSingRedo,3.2.4,59.98619471811765,
,,,,60,0,60,0,,,,,,,,,,,,,,,,,,,,,,,,1551.3424835402984,None,,,,,,,,,,,,,,,,,broad,new_b,white,60,138,31,1549.375233018538,None,1549.375233018538,None,1,1.1328017266932875,1549.375233018538,None,1550.5468975964468,None,1551.0590888876468,None,1551.0590888876468,None,n,0.2409901071805507,1551.0590888876468,None,,,NC4,001,2019_Dec_03_1523,ProdSingRedo,3.2.4,59.98619471811765,
,,,,61,0,61,0,,,,,,,,,,,,,,,,,,,,,,,,1553.7432545151096,None,,,,,,,,,,,,,,,,,finish,new_a,white,61,94,130,1551.859277355019,None,1551.859277355019,None,1,0.8166333374101669,1551.859277355019,None,1552.7111730696633,None,1553.2263764187228,None,1553.2263764187228,None,n,0.4735579597763717,1553.2263764187228,None,,,NC4,001,2019_Dec_03_1523,ProdSingRedo,3.2.4,59.98619471811765,
,,,,62,0,62,0,,,,,,,,,,,,,,,,,,,,,,,,1556.0772626197431,None,,,,,,,,,,,,,,,,,clear,aloud,white,62,40,52,1554.259960938245,None,1554.259960938245,None,6,1.0079296263866127,1554.259960938245,None,1555.3110312526114,None,1555.8271974648815,None,1555.8271974648815,None,r,0.2165039605461061,1555.8271974648815,None,,,NC4,001,2019_Dec_03_1523,ProdSingRedo,3.2.4,59.98619471811765,
,,,,63,0,63,0,,,,,,,,,,,,,,,,,,,,,,,,1558.2112598393578,None,,,,,,,,,,,,,,,,,victory,new_a,white,63,90,346,1556.5939590907656,None,1556.5939590907656,None,1,0.8417585936840624,1556.5939590907656,None,1557.4943102125544,None,1557.9944078670815,None,1557.9944078670815,None,n,0.17709125741384923,1557.9944078670815,None,,,NC4,001,2019_Dec_03_1523,ProdSingRedo,3.2.4,59.98619471811765,
,,,,64,0,64,0,,,,,,,,,,,,,,,,,,,,,,,,1562.2124802125618,None,,,,,,,,,,,,,,,,,breath,new_b,white,64,126,27,1558.7280804004986,None,1558.7280804004986,None,6,0.8754718683194369,1558.7280804004986,None,1559.6497131003998,None,1560.161746402504,None,1560.161746402504,None,r,2.0096457372419536,1560.161746402504,None,,,NC4,001,2019_Dec_03_1523,ProdSingRedo,3.2.4,59.98619471811765,
,,,,65,0,65,0,,,,,,,,,,,,,,,,,,,,,,,,1564.3631673722994,None,,,,,,,,,,,,,,,,,industry,new_a,white,65,113,161,1562.7293788350653,None,1562.7293788350653,None,6,0.8977586063556373,1562.7293788350653,None,1563.6794853534084,None,1564.179636500543,None,1564.179636500543,None,r,0.14348932169377804,1564.179636500543,None,,,NC4,001,2019_Dec_03_1523,ProdSingRedo,3.2.4,59.98619471811765,
,,,,66,0,66,0,,,,,,,,,,,,,,,,,,,,,,,,1569.8981834354345,None,,,,,,,,,,,,,,,,,escape,aloud,white,66,45,118,1564.8799901101738,None,1564.8799901101738,None,1,4.186777424998581,1564.8799901101738,None,1569.1166588398628,None,1569.6314221203793,None,1569.6314221203793,None,n,0.21923549426719546,1569.6314221203793,None,,,NC4,001,2019_Dec_03_1523,ProdSingRedo,3.2.4,59.98619471811765,
,,,,67,0,67,0,,,,,,,,,,,,,,,,,,,,,,,,1572.0821851645596,None,,,,,,,,,,,,,,,,,bright,silent,white,67,87,29,1570.414846940199,None,1570.414846940199,None,6,0.9240342599805444,1570.414846940199,None,1571.3833508014213,None,1571.8987985979766,None,1571.8987985979766,None,r,0.1357475407421589,1571.8987985979766,None,,,NC4,001,2019_Dec_03_1523,ProdSingRedo,3.2.4,59.98619471811765,
,,,,68,0,68,0,,,,,,,,,,,,,,,,,,,,,,,,1573.9339384401683,None,,,,,,,,,,,,,,,,,territory,new_b,white,68,134,324,1572.5991015143227,None,1572.5991015143227,None,1,0.7474465153645724,1572.5991015143227,None,1573.3991938820109,None,1573.8992632355075,None,1573.8992632355075,None,n,0.007357382215559483,1573.8992632355075,None,,,NC4,001,2019_Dec_03_1523,ProdSingRedo,3.2.4,59.98619471811765,
,,,,69,0,69,0,,,,,,,,,,,,,,,,,,,,,,,,1576.5501963980496,None,,,,,,,,,,,,,,,,,recall,new_b,white,69,125,255,1574.4660488087684,None,1574.4660488087684,None,1,1.296362827764824,1574.4660488087684,None,1575.8019599367399,None,1576.316806877032,None,1576.316806877032,None,n,0.18975309538654983,1576.316806877032,None,,,NC4,001,2019_Dec_03_1523,ProdSingRedo,3.2.4,59.98619471811765,
,,,,70,0,70,0,,,,,,,,,,,,,,,,,,,,,,,,1578.7675540600903,None,,,,,,,,,,,,,,,,,taste,new_a,white,70,112,322,1577.067054901272,None,1577.067054901272,None,1,0.895186617039144,1577.067054901272,None,1578.0032913377509,None,1578.5175032112747,None,1578.5175032112747,None,n,0.21270009106956422,1578.5175032112747,None,,,NC4,001,2019_Dec_03_1523,ProdSingRedo,3.2.4,59.98619471811765,
,,,,71,0,71,0,,,,,,,,,,,,,,,,,,,,,,,,1580.9849098559935,None,,,,,,,,,,,,,,,,,population,aloud,white,71,38,227,1579.2843746209983,None,1579.2843746209983,None,6,0.9017459671013057,1579.2843746209983,None,1580.2376287938096,None,1580.751501363935,None,1580.751501363935,None,r,0.19455777038820088,1580.751501363935,None,,,NC4,001,2019_Dec_03_1523,ProdSingRedo,3.2.4,59.98619471811765,
,,,,72,0,72,0,,,,,,,,,,,,,,,,,,,,,,,,1583.1522241332568,None,,,,,,,,,,,,,,,,,majority,new_b,white,72,133,176,1581.5041907564737,None,1581.5041907564737,None,1,0.9457627485971898,1581.5041907564737,None,1582.4877440202981,None,1583.0021633321885,None,1583.0021633321885,None,n,0.11179009824991226,1583.0021633321885,None,,,NC4,001,2019_Dec_03_1523,ProdSingRedo,3.2.4,59.98619471811765,
,,,,73,0,73,0,,,,,,,,,,,,,,,,,,,,,,,,1585.386245300062,None,,,,,,,,,,,,,,,,,title,new_c,white,73,171,331,1583.6690823254175,None,1583.6690823254175,None,1,0.9410165420267731,1583.6690823254175,None,1584.6550909527577,None,1585.1695199056994,None,1585.1695199056994,None,n,0.16820561001077294,1585.1695199056994,None,,,NC4,001,2019_Dec_03_1523,ProdSingRedo,3.2.4,59.98619471811765,
,,,,74,0,74,0,,,,,,,,,,,,,,,,,,,,,,,,1587.5535922325216,None,,,,,,,,,,,,,,,,,debate,new_b,white,74,122,87,1585.9029470582027,None,1585.9029470582027,None,1,0.8107236712239683,1585.9029470582027,None,1586.7557751578279,None,1587.2701462644618,None,1587.2701462644618,None,n,0.2354791455436498,1587.2701462644618,None,,,NC4,001,2019_Dec_03_1523,ProdSingRedo,3.2.4,59.98619471811765,
,,,,75,0,75,0,,,,,,,,,,,,,,,,,,,,,,,,1589.637533316156,None,,,,,,,,,,,,,,,,,light,aloud,white,75,42,171,1588.0704159035813,None,1588.0704159035813,None,6,0.7712223324924707,1588.0704159035813,None,1588.8886813812423,None,1589.4041434840765,None,1589.4041434840765,None,r,0.19739659945480525,1589.4041434840765,None,,,NC4,001,2019_Dec_03_1523,ProdSingRedo,3.2.4,59.98619471811765,
,,,,76,0,76,0,,,,,,,,,,,,,,,,,,,,,,,,1591.8382016601972,None,,,,,,,,,,,,,,,,,empty,silent,white,76,81,112,1590.1542304093018,None,1590.1542304093018,None,1,0.8791538248769939,1590.1542304093018,None,1591.0711436490528,None,1591.5881281080656,None,1591.5881281080656,None,n,0.20547861699014902,1591.5881281080656,None,,,NC4,001,2019_Dec_03_1523,ProdSingRedo,3.2.4,59.98619471811765,
,,,,77,0,77,0,,,,,,,,,,,,,,,,,,,,,,,,1593.9889031259809,None,,,,,,,,,,,,,,,,,scale,sing,white,77,12,272,1592.3550660724286,None,1592.3550660724286,None,6,0.902266584802419,1592.3550660724286,None,1593.3067279134411,None,1593.8221735332627,None,1593.8221735332627,None,r,0.1311139171011746,1593.8221735332627,None,,,NC4,001,2019_Dec_03_1523,ProdSingRedo,3.2.4,59.98619471811765,
,,,,78,0,78,0,,,,,,,,,,,,,,,,,,,,,,,,1596.0728790420108,None,,,,,,,,,,,,,,,,,chief,silent,white,78,74,48,1594.5056107931305,None,1594.5056107931305,None,1,0.7917970025446266,1594.5056107931305,None,1595.3400589660741,None,1595.8561054423917,None,1595.8561054423917,None,n,0.1770402528345585,1595.8561054423917,None,,,NC4,001,2019_Dec_03_1523,ProdSingRedo,3.2.4,59.98619471811765,
,,,,79,0,79,0,,,,,,,,,,,,,,,,,,,,,,,,1598.2068551133852,None,,,,,,,,,,,,,,,,,passage,sing,white,79,21,212,1596.5896896508057,None,1596.5896896508057,None,6,0.9313596088904887,1596.5896896508057,None,1597.5566213952843,None,1598.073455329286,None,1598.073455329286,None,r,0.08748837630264461,1598.073455329286,None,,,NC4,001,2019_Dec_03_1523,ProdSingRedo,3.2.4,59.98619471811765,
,,,,80,0,80,0,,,,,,,,,,,,,,,,,,,,,,,,1600.0407531233504,None,,,,,,,,,,,,,,,,,surprise,aloud,white,80,30,317,1598.7236940234434,None,1598.7236940234434,None,1,0.6931906039826572,1598.7236940234434,None,1599.458863410866,None,1599.9740549416747,None,1599.9740549416747,None,n,0.02684230008162558,1599.9740549416747,None,,,NC4,001,2019_Dec_03_1523,ProdSingRedo,3.2.4,59.98619471811765,
,,,,81,0,81,0,,,,,,,,,,,,,,,,,,,,,,,,1602.5581732967403,None,,,,,,,,,,,,,,,,,strength,new_b,white,81,135,310,1600.557594210375,None,1600.557594210375,None,1,1.1632130895741284,1600.557594210375,None,1601.761142747011,None,1602.2747742901556,None,1602.2747742901556,None,n,0.24598356033675373,1602.2747742901556,None,,,NC4,001,2019_Dec_03_1523,ProdSingRedo,3.2.4,59.98619471811765,
,,,,82,0,82,0,,,,,,,,,,,,,,,,,,,,,,,,1604.9089316760655,None,,,,,,,,,,,,,,,,,science,new_a,white,82,101,275,1603.0750274460297,None,1603.0750274460297,None,6,1.0775751769542694,1603.0750274460297,None,1604.1943313605152,None,1604.708857346326,None,1604.708857346326,None,r,0.16368550201877952,1604.708857346326,None,,,NC4,001,2019_Dec_03_1523,ProdSingRedo,3.2.4,59.98619471811765,
,,,,83,0,83,0,,,,,,,,,,,,,,,,,,,,,,,,1607.3596636198927,None,,,,,,,,,,,,,,,,,expansion,silent,white,83,68,123,1605.4256144629326,None,1605.4256144629326,None,6,1.175095866434276,1605.4256144629326,None,1606.6461779370438,None,1607.1595728073735,None,1607.1595728073735,None,r,0.1608855479862541,1607.1595728073735,None,,,NC4,001,2019_Dec_03_1523,ProdSingRedo,3.2.4,59.98619471811765,
,,,,84,0,84,0,,,,,,,,,,,,,,,,,,,,,,,,1609.7770349660423,None,,,,,,,,,,,,,,,,,thick,new_b,white,84,141,327,1607.876407363452,None,1607.876407363452,None,1,0.9480616780929267,1607.876407363452,None,1608.8657692177221,None,1609.3769534835592,None,1609.3769534835592,None,n,0.3593044120352715,1609.3769534835592,None,,,NC4,001,2019_Dec_03_1523,ProdSingRedo,3.2.4,59.98619471811765,
,,,,85,0,85,0,,,,,,,,,,,,,,,,,,,,,,,,1611.9276885373984,None,,,,,,,,,,,,,,,,,mechanical,aloud,white,85,46,185,1610.2937771545257,None,1610.2937771545257,None,6,0.8823829619213939,1610.2937771545257,None,1611.2142557248008,None,1611.727543610381,None,1611.727543610381,None,r,0.160667224554345,1611.727543610381,None,,,NC4,001,2019_Dec_03_1523,ProdSingRedo,3.2.4,59.98619471811765,
,,,,86,0,86,0,,,,,,,,,,,,,,,,,,,,,,,,1614.1283970007207,None,,,,,,,,,,,,,,,,,state,new_a,white,86,100,303,1612.444410510594,None,1612.444410510594,None,1,1.0117058164905757,1612.444410510594,None,1613.4964474204462,None,1614.0117139026988,None,1614.0117139026988,None,n,0.06835146993398666,1614.0117139026988,None,,,NC4,001,2019_Dec_03_1523,ProdSingRedo,3.2.4,59.98619471811765,
,,,,87,0,87,0,,,,,,,,,,,,,,,,,,,,,,,,1616.3624278085772,None,,,,,,,,,,,,,,,,,addition,new_b,white,87,131,2,1614.6451195960399,None,1614.6451195960399,None,1,0.8910437547601759,1614.6451195960399,None,1615.578716866672,None,1616.0956683596596,None,1616.0956683596596,None,n,0.23229821398854256,1616.0956683596596,None,,,NC4,001,2019_Dec_03_1523,ProdSingRedo,3.2.4,59.98619471811765,
,,,,88,0,88,0,,,,,,,,,,,,,,,,,,,,,,,,1619.5300394040532,None,,,,,,,,,,,,,,,,,blind,silent,white,88,80,24,1616.879208250437,None,1616.879208250437,None,1,1.248674352420494,1616.879208250437,None,1618.1687094336376,None,1618.679814393865,None,1618.679814393865,None,n,0.8080422093626112,1618.679814393865,None,,,NC4,001,2019_Dec_03_1523,ProdSingRedo,3.2.4,59.98619471811765,
,,,,89,0,89,0,,,,,,,,,,,,,,,,,,,,,,,,1621.9641289913561,None,,,,,,,,,,,,,,,,,safety,new_a,white,89,115,270,1620.0467595113441,None,1620.0467595113441,None,6,1.080821730196476,1620.0467595113441,None,1621.16941012186,None,1621.6807237647008,None,1621.6807237647008,None,r,0.24677195120602846,1621.6807237647008,None,,,NC4,001,2019_Dec_03_1523,ProdSingRedo,3.2.4,59.98619471811765,
,,,,90,0,90,0,,,,,,,,,,,,,,,,,,,,,,,,1624.4315608274192,None,,,,,,,,,,,,,,,,,drama,aloud,white,90,44,103,1622.4809529734775,None,1622.4809529734775,None,6,1.1264886904973537,1622.4809529734775,None,1623.6479095979594,None,1624.1648287465796,None,1624.1648287465796,None,r,0.21859389636665583,1624.1648287465796,None,,,NC4,001,2019_Dec_03_1523,ProdSingRedo,3.2.4,59.98619471811765,
,,,,91,0,91,0,,,,,,,,,,,,,,,,,,,,,,,,1626.6655975442845,None,,,,,,,,,,,,,,,,,alert,new_b,white,91,139,6,1624.9483633502387,None,1624.9483633502387,None,1,1.0269632798153907,1624.9483633502387,None,1626.0167791978456,None,1626.5321986931376,None,1626.5321986931376,None,n,0.09125057142227888,1626.5321986931376,None,,,NC4,001,2019_Dec_03_1523,ProdSingRedo,3.2.4,59.98619471811765,
,,,,92,0,92,0,,,,,,,,,,,,,,,,,,,,,,,,1630.666828491725,None,,,,,,,,,,,,,,,,,religion,silent,white,92,62,258,1627.1822927715257,None,1627.1822927715257,None,1,1.120818184921518,1627.1822927715257,None,1628.3492210947443,None,1628.8662717973348,None,1628.8662717973348,None,f,1.7647569051478058,1628.8662717973348,None,,,NC4,001,2019_Dec_03_1523,ProdSingRedo,3.2.4,59.98619471811765,
,,,,93,0,93,0,,,,,,,,,,,,,,,,,,,,,,,,1636.101812832756,None,,,,,,,,,,,,,,,,,property,new_c,white,93,160,242,1631.183947303798,None,1631.183947303798,None,6,3.3590357061475515,1631.183947303798,None,1634.5882099017035,None,1635.1013976444956,None,1635.1013976444956,None,f,0.9613268603570759,1635.1013976444956,None,,,NC4,001,2019_Dec_03_1523,ProdSingRedo,3.2.4,59.98619471811765,
,,,,94,0,94,0,,,,,,,,,,,,,,,,,,,,,,,,1641.5034334657248,None,,,,,,,,,,,,,,,,,problem,sing,white,94,1,238,1636.6189807832707,None,1636.6189807832707,None,1,4.059532998828217,1636.6189807832707,None,1640.7364233487751,None,1641.2366783707403,None,1641.2366783707403,None,n,0.23384420666843653,1641.2366783707403,None,,,NC4,001,2019_Dec_03_1523,ProdSingRedo,3.2.4,59.98619471811765,
,,,,95,0,95,0,,,,,,,,,,,,,,,,,,,,,,,,1644.1042414498515,None,,,,,,,,,,,,,,,,,century,new_c,white,95,169,45,1642.0201405109838,None,1642.0201405109838,None,6,0.8822131545748562,1642.0201405109838,None,1642.9537527097855,None,1643.4540453627706,None,1643.4540453627706,None,f,0.6111705817747861,1643.4540453627706,None,,,NC4,001,2019_Dec_03_1523,ProdSingRedo,3.2.4,59.98619471811765,
,,,,96,0,96,0,,,,,,,,,,,,,,,,,,,,,,,,1646.438321085181,None,,,,,,,,,,,,,,,,,master,new_a,white,96,103,180,1644.621085647028,None,1644.621085647028,None,6,0.93695796164684,1644.621085647028,None,1645.606351600727,None,1646.1215471744072,None,1646.1215471744072,None,r,0.27648760192096233,1646.1215471744072,None,,,NC4,001,2019_Dec_03_1523,ProdSingRedo,3.2.4,59.98619471811765,
,,,,97,0,97,0,,,,,,,,,,,,,,,,,,,,,,,,1648.8390342134517,None,,,,,,,,,,,,,,,,,people,aloud,white,97,49,216,1646.9551391580608,None,1646.9551391580608,None,6,0.9549245664384216,1646.9551391580608,None,1647.9578022710048,None,1648.472245841287,None,1648.472245841287,None,f,0.3177072287071496,1648.472245841287,None,,,NC4,001,2019_Dec_03_1523,ProdSingRedo,3.2.4,59.98619471811765,
,,,,98,0,98,0,,,,,,,,,,,,,,,,,,,,,,,,1656.6746697933413,None,,,,,,,,,,,,,,,,,fellow,new_b,white,98,132,126,1649.3558258512057,None,1649.3558258512057,None,3,4.937681975075975,1649.3558258512057,None,1654.3423370581586,None,1654.8575752393808,None,1654.8575752393808,None,n,1.7797997766174376,1654.8575752393808,None,,,NC4,001,2019_Dec_03_1523,ProdSingRedo,3.2.4,59.98619471811765,
,,,,99,0,99,0,,,,,,,,,,,,,,,,,,,,,,,,1660.7427027968224,None,,,,,,,,,,,,,,,,,shock,silent,white,99,79,284,1657.1915628178976,None,1657.1915628178976,None,1,2.7497227415442467,1657.1915628178976,None,1659.980140635278,None,1660.492617426673,None,1660.492617426673,None,n,0.21672912617214024,1660.492617426673,None,,,NC4,001,2019_Dec_03_1523,ProdSingRedo,3.2.4,59.98619471811765,
,,,,100,0,100,0,,,,,,,,,,,,,,,,,,,,,,,,1666.5611374599393,None,,,,,,,,,,,,,,,,,hearing,new_b,white,100,120,150,1661.2594076651148,None,1661.2594076651148,None,5,2.5856547066941857,1661.2594076651148,None,1663.8943587287795,None,1664.4105034817476,None,1664.4105034817476,None,n,2.1143533794675022,1664.4105034817476,None,,,NC4,001,2019_Dec_03_1523,ProdSingRedo,3.2.4,59.98619471811765,
,,,,101,0,101,0,,,,,,,,,,,,,,,,,,,,,,,,1670.629060368752,None,,,,,,,,,,,,,,,,,republic,new_a,white,101,104,260,1667.0778196249157,None,1667.0778196249157,None,6,2.686771515989676,1667.0778196249157,None,1669.8287894856185,None,1670.3289624031167,None,1670.3289624031167,None,r,0.2595777832902968,1670.3289624031167,None,,,NC4,001,2019_Dec_03_1523,ProdSingRedo,3.2.4,59.98619471811765,
,,,,102,0,102,0,,,,,,,,,,,,,,,,,,,,,,,,1673.2298422285821,None,,,,,,,,,,,,,,,,,stand,aloud,white,102,56,302,1671.1458762646653,None,1671.1458762646653,None,1,1.306893055792898,1671.1458762646653,None,1672.4989239319693,None,1673.0131053272635,None,1673.0131053272635,None,n,0.1754886624403298,1673.0131053272635,None,,,NC4,001,2019_Dec_03_1523,ProdSingRedo,3.2.4,59.98619471811765,
,,,,103,0,103,0,,,,,,,,,,,,,,,,,,,,,,,,1676.6677854456939,None,,,,,,,,,,,,,,,,,equipment,aloud,white,103,35,116,1673.7476912743878,None,1673.7476912743878,None,6,1.952518030302599,1673.7476912743878,None,1675.7498869507108,None,1676.2640761209186,None,1676.2640761209186,None,r,0.3724100503604859,1676.2640761209186,None,,,NC4,001,2019_Dec_03_1523,ProdSingRedo,3.2.4,59.98619471811765,
,,,,104,0,104,0,,,,,,,,,,,,,,,,,,,,,,,,1678.7815777771175,None,,,,,,,,,,,,,,,,,general,new_b,white,104,140,135,1677.1976537983865,None,1677.1976537983865,None,6,0.8387580432463437,1677.1976537983865,None,1678.082706715446,None,1678.598094177898,None,1678.598094177898,None,r,0.14219306409358978,1678.598094177898,None,,,NC4,001,2019_Dec_03_1523,ProdSingRedo,3.2.4,59.98619471811765,
,,,,105,0,105,0,,,,,,,,,,,,,,,,,,,,,,,,1680.68210150511,None,,,,,,,,,,,,,,,,,object,silent,white,105,76,204,1679.298817569157,None,1679.298817569157,None,6,0.7132098239380866,1679.298817569157,None,1680.0651509449817,None,1680.5654205840547,None,1680.5654205840547,None,r,0.07859091064892709,1680.5654205840547,None,,,NC4,001,2019_Dec_03_1523,ProdSingRedo,3.2.4,59.98619471811765,
,,,,106,0,106,0,,,,,,,,,,,,,,,,,,,,,,,,1684.1165400368627,None,,,,,,,,,,,,,,,,,concern,sing,white,106,5,65,1681.1988119711168,None,1681.1988119711168,None,6,0.6851113855373114,1681.1988119711168,None,1681.9344009007327,None,1682.4493532706983,None,1682.4493532706983,None,f,1.618427509907633,1682.4493532706983,None,,,NC4,001,2019_Dec_03_1523,ProdSingRedo,3.2.4,59.98619471811765,
,,,,107,0,107,0,,,,,,,,,,,,,,,,,,,,,,,,1687.8676302556414,None,,,,,,,,,,,,,,,,,grade,new_b,white,107,147,140,1684.6333609088324,None,1684.6333609088324,None,6,2.058462217915803,1684.6333609088324,None,1686.7344879813027,None,1687.2508168476634,None,1687.2508168476634,None,f,0.5767236526589841,1687.2508168476634,None,,,NC4,001,2019_Dec_03_1523,ProdSingRedo,3.2.4,59.98619471811765,
,,,,108,0,108,0,,,,,,,,,,,,,,,,,,,,,,,,1690.3017469001934,None,,,,,,,,,,,,,,,,,finance,sing,white,108,23,129,1688.3845139499754,None,1688.3845139499754,None,6,1.139214594848454,1688.3845139499754,None,1689.5706025050022,None,1690.0850277259015,None,1690.0850277259015,None,r,0.18245977978222072,1690.0850277259015,None,,,NC4,001,2019_Dec_03_1523,ProdSingRedo,3.2.4,59.98619471811765,
,,,,109,0,109,0,,,,,,,,,,,,,,,,,,,,,,,,1692.4857458302286,None,,,,,,,,,,,,,,,,,rapid,new_b,white,109,136,252,1690.8185942072887,None,1690.8185942072887,None,1,0.912703512236476,1690.8185942072887,None,1691.7687529739924,None,1692.2856749217026,None,1692.2856749217026,None,n,0.16567218489944935,1692.2856749217026,None,,,NC4,001,2019_Dec_03_1523,ProdSingRedo,3.2.4,59.98619471811765,
,,,,110,0,110,0,,,,,,,,,,,,,,,,,,,,,,,,1695.6367116479669,None,,,,,,,,,,,,,,,,,treatment,aloud,white,110,57,339,1693.002592826495,None,1693.002592826495,None,1,0.7126926272176206,1693.002592826495,None,1693.755690254271,None,1694.269619737519,None,1694.269619737519,None,f,1.333535070065409,1694.269619737519,None,,,NC4,001,2019_Dec_03_1523,ProdSingRedo,3.2.4,59.98619471811765,
,,,,111,0,111,0,,,,,,,,,,,,,,,,,,,,,,,,1699.2045014477335,None,,,,,,,,,,,,,,,,,provision,new_c,white,111,162,243,1696.1545610048342,None,1696.1545610048342,None,1,2.3522654962725937,1696.1545610048342,None,1698.5708404215984,None,1699.0711125486996,None,1699.0711125486996,None,n,0.0998563168104738,1699.0711125486996,None,,,NC4,001,2019_Dec_03_1523,ProdSingRedo,3.2.4,59.98619471811765,
,,,,112,0,112,0,,,,,,,,,,,,,,,,,,,,,,,,1702.3888200882357,None,,,,,,,,,,,,,,,,,childhood,new_a,white,112,108,49,1699.7213263628073,None,1699.7213263628073,None,1,1.9372792274225503,1699.7213263628073,None,1701.70824373886,None,1702.2220761894714,None,1702.2220761894714,None,n,0.13267514877952635,1702.2220761894714,None,,,NC4,001,2019_Dec_03_1523,ProdSingRedo,3.2.4,59.98619471811765,
,,,,113,0,113,0,,,,,,,,,,,,,,,,,,,,,,,,1704.6394957408775,None,,,,,,,,,,,,,,,,,minor,new_b,white,113,149,191,1702.905596798053,None,1702.905596798053,None,6,1.016975129256025,1702.905596798053,None,1703.9582504252903,None,1704.472756507108,None,1704.472756507108,None,r,0.12975048273801804,1704.472756507108,None,,,NC4,001,2019_Dec_03_1523,ProdSingRedo,3.2.4,59.98619471811765,
,,,,114,0,114,0,,,,,,,,,,,,,,,,,,,,,,,,1706.6901172790676,None,,,,,,,,,,,,,,,,,month,new_c,white,114,154,193,1705.1563060388435,None,1705.1563060388435,None,1,0.8540385207161307,1705.1563060388435,None,1706.0584544430021,None,1706.573409611825,None,1706.573409611825,None,n,0.07698116265237331,1706.573409611825,None,,,NC4,001,2019_Dec_03_1523,ProdSingRedo,3.2.4,59.98619471811765,
,,,,115,0,115,0,,,,,,,,,,,,,,,,,,,,,,,,1708.674062405713,None,,,,,,,,,,,,,,,,,narrow,new_c,white,115,157,197,1707.2068184150849,None,1707.2068184150849,None,1,0.6836714446544647,1707.2068184150849,None,1707.9257195817772,None,1708.4406246794388,None,1708.4406246794388,None,n,0.1935722038615495,1708.4406246794388,None,,,NC4,001,2019_Dec_03_1523,ProdSingRedo,3.2.4,59.98619471811765,
,,,,116,0,116,0,,,,,,,,,,,,,,,,,,,,,,,,1711.3283724316861,None,,,,,,,,,,,,,,,,,display,new_a,white,116,119,98,1709.1908434694633,None,1709.1908434694633,None,6,0.9872716076206416,1709.1908434694633,None,1710.2272494020872,None,1710.7413642429747,None,1710.7413642429747,None,f,0.564675422385335,1710.7413642429747,None,,,NC4,001,2019_Dec_03_1523,ProdSingRedo,3.2.4,59.98619471811765,
,,,,117,0,117,0,,,,,,,,,,,,,,,,,,,,,,,,1714.0423339481931,None,,,,,,,,,,,,,,,,,husband,sing,white,117,4,156,1711.8595174488146,None,1711.8595174488146,None,1,1.4304975103586912,1711.8595174488146,None,1713.3307472453453,None,1713.8421843559481,None,1713.8421843559481,None,n,0.15193987707607448,1713.8421843559481,None,,,NC4,001,2019_Dec_03_1523,ProdSingRedo,3.2.4,59.98619471811765,
,,,,118,0,118,0,,,,,,,,,,,,,,,,,,,,,,,,1716.8765442043077,None,,,,,,,,,,,,,,,,,quiet,sing,white,118,19,249,1714.5591075478587,None,1714.5591075478587,None,6,1.52304309559986,1714.5591075478587,None,1716.127478610957,None,1716.643170544412,None,1716.643170544412,None,f,0.19861790561117232,1716.643170544412,None,,,NC4,001,2019_Dec_03_1523,ProdSingRedo,3.2.4,59.98619471811765,
,,,,119,0,119,0,,,,,,,,,,,,,,,,,,,,,,,,1719.2106002033688,None,,,,,,,,,,,,,,,,,waste,new_a,white,119,93,350,1717.393419812899,None,1717.393419812899,None,1,0.9841973495204002,1717.393419812899,None,1718.4270525376778,None,1718.9272117707878,None,1718.9272117707878,None,n,0.2504613718483597,1718.9272117707878,None,,,NC4,001,2019_Dec_03_1523,ProdSingRedo,3.2.4,59.98619471811765,
,,,,120,0,120,0,,,,,,,,,,,,,,,,,,,,,,,,1721.778074957896,None,,,,,,,,,,,,,,,,,solution,sing,white,120,15,294,1719.7273445688188,None,1719.7273445688188,None,1,0.7941341849509627,1719.7273445688188,None,1720.561998314457,None,1721.0778597441968,None,1721.0778597441968,None,f,0.6516198557801545,1721.0778597441968,None,,,NC4,001,2019_Dec_03_1523,ProdSingRedo,3.2.4,59.98619471811765,
,,,,121,0,121,0,,,,,,,,,,,,,,,,,,,,,,,,1723.8453935889993,None,,,,,,,,,,,,,,,,,south,new_b,white,121,144,296,1722.2947720508091,None,1722.2947720508091,None,1,0.8667271048761904,1722.2947720508091,None,1723.1966697871685,None,1723.7120018908754,None,1723.7120018908754,None,n,0.09735741303302348,1723.7120018908754,None,,,NC4,001,2019_Dec_03_1523,ProdSingRedo,3.2.4,59.98619471811765,
,,,,122,0,122,0,,,,,,,,,,,,,,,,,,,,,,,,1727.213086667005,None,,,,,,,,,,,,,,,,,center,new_c,white,122,153,44,1724.3622017099988,None,1724.3622017099988,None,6,2.1508902441710234,1724.3622017099988,None,1726.5484149768017,None,1727.0630311532877,None,1727.0630311532877,None,f,0.11410737666301429,1727.0630311532877,None,,,NC4,001,2019_Dec_03_1523,ProdSingRedo,3.2.4,59.98619471811765,
,,,,123,0,123,0,,,,,,,,,,,,,,,,,,,,,,,,1730.7641697328072,None,,,,,,,,,,,,,,,,,colonel,sing,white,123,27,55,1727.7297588798683,None,1727.7297588798683,None,6,1.3592639819253236,1727.7297588798683,None,1729.1324748632032,None,1729.647015155293,None,1729.647015155293,None,r,1.0741261611692607,1729.647015155293,None,,,NC4,001,2019_Dec_03_1523,ProdSingRedo,3.2.4,59.98619471811765,
,,,,124,0,124,0,,,,,,,,,,,,,,,,,,,,,,,,1733.998465514509,None,,,,,,,,,,,,,,,,,answer,aloud,white,124,53,8,1731.2809909156058,None,1731.2809909156058,None,6,1.5118096913211048,1731.2809909156058,None,1732.8313409488183,None,1733.348275025608,None,1733.348275025608,None,r,0.6047085754107684,1733.348275025608,None,,,NC4,001,2019_Dec_03_1523,ProdSingRedo,3.2.4,59.98619471811765,
,,,,125,0,125,0,,,,,,,,,,,,,,,,,,,,,,,,1736.4158925299998,None,,,,,,,,,,,,,,,,,poetry,sing,white,125,22,225,1734.5003732028417,None,1734.5003732028417,None,6,1.0762711444403976,1734.5003732028417,None,1735.6194715448655,None,1736.132348907413,None,1736.132348907413,None,f,0.24424350238405168,1736.132348907413,None,,,NC4,001,2019_Dec_03_1523,ProdSingRedo,3.2.4,59.98619471811765,
,,,,126,0,126,0,,,,,,,,,,,,,,,,,,,,,,,,1739.9502523783594,None,,,,,,,,,,,,,,,,,household,silent,white,126,66,154,1736.9326701727696,None,1736.9326701727696,None,1,2.331672477303073,1736.9326701727696,None,1739.3034001884516,None,1739.8168625463732,None,1739.8168625463732,None,n,0.09552343236282468,1739.8168625463732,None,,,NC4,001,2019_Dec_03_1523,ProdSingRedo,3.2.4,59.98619471811765,
,,,,127,0,127,0,,,,,,,,,,,,,,,,,,,,,,,,1742.2676989871543,None,,,,,,,,,,,,,,,,,machinery,sing,white,127,6,175,1740.467291263165,None,1740.467291263165,None,6,1.0129958542529494,1740.467291263165,None,1741.5240603843704,None,1742.0341629839968,None,1742.0341629839968,None,r,0.19037230079993606,1742.0341629839968,None,,,NC4,001,2019_Dec_03_1523,ProdSingRedo,3.2.4,59.98619471811765,
,,,,128,0,128,0,,,,,,,,,,,,,,,,,,,,,,,,1744.6017400580458,None,,,,,,,,,,,,,,,,,point,new_b,white,128,130,226,1742.7845024429262,None,1742.7845024429262,None,1,0.9595482379663736,1742.7845024429262,None,1743.7847123695537,None,1744.3016427143011,None,1744.3016427143011,None,f,0.25859532691538334,1744.3016427143011,None,,,NC4,001,2019_Dec_03_1523,ProdSingRedo,3.2.4,59.98619471811765,
,,,,129,0,129,0,,,,,,,,,,,,,,,,,,,,,,,,1747.2859053744469,None,,,,,,,,,,,,,,,,,suggestion,new_a,white,129,92,314,1745.118544447003,None,1745.118544447003,None,1,1.4576113154180348,1745.118544447003,None,1746.6235490965191,None,1747.1357565599028,None,1747.1357565599028,None,n,0.1040990105830133,1747.1357565599028,None,,,NC4,001,2019_Dec_03_1523,ProdSingRedo,3.2.4,59.98619471811765,
,,,,130,0,130,0,,,,,,,,,,,,,,,,,,,,,,,,1749.1864399875049,None,,,,,,,,,,,,,,,,,mayor,new_c,white,130,176,183,1747.8025573722553,None,1747.8025573722553,None,1,0.6613022910896689,1747.8025573722553,None,1748.5194584827404,None,1749.01975144702,None,1749.01975144702,None,n,0.13196792942471802,1749.01975144702,None,,,NC4,001,2019_Dec_03_1523,ProdSingRedo,3.2.4,59.98619471811765,
,,,,131,0,131,0,,,,,,,,,,,,,,,,,,,,,,,,1752.087344382191,None,,,,,,,,,,,,,,,,,resistance,new_a,white,131,95,262,1749.6864399875049,None,1749.6864399875049,None,6,1.7211500245612115,1749.6864399875049,None,1751.4570452913176,None,1751.970536572393,None,1751.970536572393,None,f,0.07708939141593874,1751.970536572393,None,,,NC4,001,2019_Dec_03_1523,ProdSingRedo,3.2.4,59.98619471811765,
,,,,132,0,132,0,,,,,,,,,,,,,,,,,,,,,,,,1754.3547236588784,None,,,,,,,,,,,,,,,,,afternoon,new_c,white,132,177,3,1752.6040828386322,None,1752.6040828386322,None,1,0.9716714196838439,1752.6040828386322,None,1753.621890210081,None,1754.1380004417151,None,1754.1380004417151,None,n,0.17369573400355875,1754.1380004417151,None,,,NC4,001,2019_Dec_03_1523,ProdSingRedo,3.2.4,59.98619471811765,
,,,,133,0,133,0,,,,,,,,,,,,,,,,,,,,,,,,1756.4386980198324,None,,,,,,,,,,,,,,,,,vision,sing,white,133,13,347,1754.871461182367,None,1754.871461182367,None,6,0.759847111068666,1754.871461182367,None,1755.6780211543664,None,1756.1886303769425,None,1756.1886303769425,None,r,0.21071434137411416,1756.1886303769425,None,,,NC4,001,2019_Dec_03_1523,ProdSingRedo,3.2.4,59.98619471811765,
,,,,134,0,134,0,,,,,,,,,,,,,,,,,,,,,,,,1758.4393063404132,None,,,,,,,,,,,,,,,,,birth,new_c,white,134,164,22,1756.9554579353426,None,1756.9554579353426,None,6,0.6678404931444675,1756.9554579353426,None,1757.6623133597896,None,1758.1725860778242,None,1758.1725860778242,None,f,0.22664761263877153,1758.1725860778242,None,,,NC4,001,2019_Dec_03_1523,ProdSingRedo,3.2.4,59.98619471811765,
,,,,135,0,135,0,,,,,,,,,,,,,,,,,,,,,,,,1760.8900696956553,None,,,,,,,,,,,,,,,,,entrance,new_a,white,135,96,115,1758.9559838403948,None,1758.9559838403948,None,6,1.2431067887227982,1758.9559838403948,None,1760.2434989628382,None,1760.7566885717679,None,1760.7566885717679,None,f,0.09062359062954783,1760.7566885717679,None,,,NC4,001,2019_Dec_03_1523,ProdSingRedo,3.2.4,59.98619471811765,
,,,,136,0,136,0,,,,,,,,,,,,,,,,,,,,,,,,1763.0573671788443,None,,,,,,,,,,,,,,,,,spoke,new_c,white,136,166,300,1761.4075016872957,None,1761.4075016872957,None,1,0.9274832757655531,1761.4075016872957,None,1762.378359213937,None,1762.890529046068,None,1762.890529046068,None,n,0.1325376855675131,1762.890529046068,None,,,NC4,001,2019_Dec_03_1523,ProdSingRedo,3.2.4,59.98619471811765,
,,,,137,0,137,0,,,,,,,,,,,,,,,,,,,,,,,,1765.741548978258,None,,,,,,,,,,,,,,,,,design,aloud,white,137,48,91,1763.5740552528296,None,1763.5740552528296,None,6,1.4487496151123196,1763.5740552528296,None,1765.0600959132425,None,1765.574833380524,None,1765.574833380524,None,f,0.11987802502699196,1765.574833380524,None,,,NC4,001,2019_Dec_03_1523,ProdSingRedo,3.2.4,59.98619471811765,
,,,,138,0,138,0,,,,,,,,,,,,,,,,,,,,,,,,1767.8088545473292,None,,,,,,,,,,,,,,,,,contract,new_b,white,138,123,68,1766.2583508791868,None,1766.2583508791868,None,6,0.8362700247671455,1766.2583508791868,None,1767.1451699784957,None,1767.6587990333792,None,1767.6587990333792,None,r,0.11597245768643916,1767.6587990333792,None,,,NC4,001,2019_Dec_03_1523,ProdSingRedo,3.2.4,59.98619471811765,
,,,,139,0,139,0,,,,,,,,,,,,,,,,,,,,,,,,1770.1595830703154,None,,,,,,,,,,,,,,,,,permit,silent,white,139,72,218,1768.325662357267,None,1768.325662357267,None,6,1.0969105027616024,1768.325662357267,None,1769.459224484628,None,1769.976186862681,None,1769.976186862681,None,f,0.15024895733222365,1769.976186862681,None,,,NC4,001,2019_Dec_03_1523,ProdSingRedo,3.2.4,59.98619471811765,
,,,,140,0,140,0,,,,,,,,,,,,,,,,,,,,,,,,1773.8107015902642,None,,,,,,,,,,,,,,,,,clean,aloud,white,140,58,51,1770.676382483216,None,1770.676382483216,None,4,2.0019845059141517,1770.676382483216,None,1772.7270152175333,None,1773.2438569264486,None,1773.2438569264486,None,f,0.5304536591283977,1773.2438569264486,None,,,NC4,001,2019_Dec_03_1523,ProdSingRedo,3.2.4,59.98619471811765,
,,,,141,0,141,0,,,,,,,,,,,,,,,,,,,,,,,,1777.1117070608307,None,,,,,,,,,,,,,,,,,sight,sing,white,141,24,286,1774.3275258832145,None,1774.3275258832145,None,5,1.8229239818174392,1774.3275258832145,None,1776.1972600696608,None,1776.7115798608866,None,1776.7115798608866,None,f,0.35867867548950016,1776.7115798608866,None,,,NC4,001,2019_Dec_03_1523,ProdSingRedo,3.2.4,59.98619471811765,
,,,,142,0,142,0,,,,,,,,,,,,,,,,,,,,,,,,1779.8792113603558,None,,,,,,,,,,,,,,,,,drove,silent,white,142,65,106,1777.6285848461557,None,1777.6285848461557,None,6,1.4813977065496147,1777.6285848461557,None,1779.1485546168406,None,1779.662435894832,None,1779.662435894832,None,r,0.18350847926922143,1779.662435894832,None,,,NC4,001,2019_Dec_03_1523,ProdSingRedo,3.2.4,59.98619471811765,
,,,,143,0,143,0,,,,,,,,,,,,,,,,,,,,,,,,1785.030798560707,None,,,,,,,,,,,,,,,,,season,new_c,white,143,167,277,1780.3960533805657,None,1780.3960533805657,None,1,3.817761965095997,1780.3960533805657,None,1784.2491980805062,None,1784.7640658579767,None,1784.7640658579767,None,n,0.2175613685976714,1784.7640658579767,None,,,NC4,001,2019_Dec_03_1523,ProdSingRedo,3.2.4,59.98619471811765,
,,,,144,0,144,0,,,,,,,,,,,,,,,,,,,,,,,,1786.881351989461,None,,,,,,,,,,,,,,,,,murder,new_c,white,144,172,195,1785.547695939429,None,1785.547695939429,None,1,0.7138361826073378,1785.547695939429,None,1786.3001884673722,None,1786.8146547407378,None,1786.8146547407378,None,n,0.02314012823626399,1786.8146547407378,None,,,NC4,001,2019_Dec_03_1523,ProdSingRedo,3.2.4,59.98619471811765,
,,,,145,0,145,0,,,,,,,,,,,,,,,,,,,,,,,,1789.2154092325363,None,,,,,,,,,,,,,,,,,career,new_c,white,145,174,42,1787.3980238912627,None,1787.3980238912627,None,1,1.0153967922087759,1787.3980238912627,None,1788.44837858947,None,1788.9652812550776,None,1788.9652812550776,None,n,0.2082900779787451,1788.9652812550776,None,,,NC4,001,2019_Dec_03_1523,ProdSingRedo,3.2.4,59.98619471811765,
,,,,146,0,146,0,,,,,,,,,,,,,,,,,,,,,,,,1792.3163469044957,None,,,,,,,,,,,,,,,,,hunger,aloud,white,146,37,155,1789.732035106048,None,1789.732035106048,None,3,0.8012583153322339,1789.732035106048,None,1790.568210897036,None,1791.082657888066,None,1791.082657888066,None,f,1.1945136080030352,1791.082657888066,None,,,NC4,001,2019_Dec_03_1523,ProdSingRedo,3.2.4,59.98619471811765,
,,,,147,0,147,0,,,,,,,,,,,,,,,,,,,,,,,,1796.1675030556507,None,,,,,,,,,,,,,,,,,curve,new_c,white,147,170,82,1792.8332134939265,None,1792.8332134939265,None,4,2.6036791575606912,1792.8332134939265,None,1795.4894588871393,None,1796.000718415482,None,1796.000718415482,None,f,0.13214457873255014,1796.000718415482,None,,,NC4,001,2019_Dec_03_1523,ProdSingRedo,3.2.4,59.98619471811765,
,,,,148,0,148,0,,,,,,,,,,,,,,,,,,,,,,,,1798.9017269960605,None,,,,,,,,,,,,,,,,,ground,new_a,white,148,99,142,1796.6730902125128,None,1796.6730902125128,None,6,1.0037195880431682,1796.6730902125128,None,1797.7177856012713,None,1798.2348011606373,None,1798.2348011606373,None,f,0.6342254953924567,1798.2348011606373,None,,,NC4,001,2019_Dec_03_1523,ProdSingRedo,3.2.4,59.98619471811765,
,,,,149,0,149,0,,,,,,,,,,,,,,,,,,,,,,,,1803.2863902270328,None,,,,,,,,,,,,,,,,,weather,silent,white,149,70,352,1799.418500906555,None,1799.418500906555,None,1,3.0820592085365206,1799.418500906555,None,1802.538150966866,None,1803.0529916870873,None,1803.0529916870873,None,n,0.19957734760828316,1803.0529916870873,None,,,NC4,001,2019_Dec_03_1523,ProdSingRedo,3.2.4,59.98619471811765,
,,,,150,0,150,0,,,,,,,,,,,,,,,,,,,,,,,,1809.138164028991,None,,,,,,,,,,,,,,,,,produce,sing,white,150,8,239,1803.8030643060338,None,1803.8030643060338,None,3,2.9452558148186654,1803.8030643060338,None,1806.7901412262581,None,1807.3042949421797,None,1807.3042949421797,None,f,1.7877626803237945,1807.3042949421797,None,,,NC4,001,2019_Dec_03_1523,ProdSingRedo,3.2.4,59.98619471811765,
,,,,151,0,151,0,,,,,,,,,,,,,,,,,,,,,,,,1813.2227756336797,None,,,,,,,,,,,,,,,,,angle,new_b,white,151,145,7,1809.6548804042395,None,1809.6548804042395,None,2,2.1332190916873515,1809.6548804042395,None,1811.8243020330556,None,1812.3391474182718,None,1812.3391474182718,None,n,0.8487772943917662,1812.3391474182718,None,,,NC4,001,2019_Dec_03_1523,ProdSingRedo,3.2.4,59.98619471811765,
,,,,152,0,152,0,,,,,,,,,,,,,,,,,,,,,,,,1816.357048712438,None,,,,,,,,,,,,,,,,,heavy,aloud,white,152,51,151,1813.739483611891,None,1813.739483611891,None,3,1.8244705961551517,1813.739483611891,None,1815.6118519878946,None,1816.1236315120477,None,1816.1236315120477,None,n,0.18397653801366687,1816.1236315120477,None,,,NC4,001,2019_Dec_03_1523,ProdSingRedo,3.2.4,59.98619471811765,
,,,,153,0,153,0,,,,,,,,,,,,,,,,,,,,,,,,1819.8248092778958,None,,,,,,,,,,,,,,,,,evidence,aloud,white,153,43,120,1816.8750426850747,None,1816.8750426850747,None,6,2.080487713916227,1816.8750426850747,None,1818.9930198637303,None,1819.5080213721376,None,1819.5080213721376,None,r,0.27948784129694104,1819.5080213721376,None,,,NC4,001,2019_Dec_03_1523,ProdSingRedo,3.2.4,59.98619471811765,
,,,,154,0,154,0,,,,,,,,,,,,,,,,,,,,,,,,1822.5923241516575,None,,,,,,,,,,,,,,,,,opening,sing,white,154,0,205,1820.3416276618373,None,1820.3416276618373,None,6,1.485737122129649,1820.3416276618373,None,1821.8775866841897,None,1822.3922423580661,None,1822.3922423580661,None,r,0.15526511380448937,1822.3922423580661,None,,,NC4,001,2019_Dec_03_1523,ProdSingRedo,3.2.4,59.98619471811765,
,,,,155,0,155,0,,,,,,,,,,,,,,,,,,,,,,,,1824.60960157495,None,,,,,,,,,,,,,,,,,distance,sing,white,155,11,100,1823.109112368431,None,1823.109112368431,None,6,0.8301180875860155,1823.109112368431,None,1823.9789140422363,None,1824.492905414896,None,1824.492905414896,None,f,0.07829265948385,1824.492905414896,None,,,NC4,001,2019_Dec_03_1523,ProdSingRedo,3.2.4,59.98619471811765,
,,,,156,0,156,0,,,,,,,,,,,,,,,,,,,,,,,,1826.8269626579713,None,,,,,,,,,,,,,,,,,cross,new_b,white,156,124,80,1825.1116641424596,None,1825.1116641424596,None,6,0.9154785857535899,1825.1116641424596,None,1826.0619585062377,None,1826.5768822638784,None,1826.5768822638784,None,r,0.21017008717171848,1826.5768822638784,None,,,NC4,001,2019_Dec_03_1523,ProdSingRedo,3.2.4,59.98619471811765,
,,,,157,0,157,0,,,,,,,,,,,,,,,,,,,,,,,,1829.7945279141422,None,,,,,,,,,,,,,,,,,captain,new_a,white,157,98,41,1827.3437766879797,None,1827.3437766879797,None,4,1.7311304002068937,1827.3437766879797,None,1829.112921213964,None,1829.627766910009,None,1829.627766910009,None,f,0.1190302325412631,1829.627766910009,None,,,NC4,001,2019_Dec_03_1523,ProdSingRedo,3.2.4,59.98619471811765,
,,,,158,0,158,0,,,,,,,,,,,,,,,,,,,,,,,,1832.1952628125437,None,,,,,,,,,,,,,,,,,youth,new_a,white,158,102,359,1830.3113422549795,None,1830.3113422549795,None,5,1.2114206275437027,1830.3113422549795,None,1831.56776647456,None,1832.0785585665144,None,1832.0785585665144,None,n,0.06809178297407925,1832.0785585665144,None,,,NC4,001,2019_Dec_03_1523,ProdSingRedo,3.2.4,59.98619471811765,
,,,,159,0,159,0,,,,,,,,,,,,,,,,,,,,,,,,1836.696638997877,None,,,,,,,,,,,,,,,,,piece,new_a,white,159,91,221,1832.7120556943119,None,1832.7120556943119,None,3,3.074629673967138,1832.7120556943119,None,1835.8319984078407,None,1836.346545541659,None,1836.346545541659,None,n,0.3118992601521313,1836.346545541659,None,,,NC4,001,2019_Dec_03_1523,ProdSingRedo,3.2.4,59.98619471811765,
,,,,160,0,160,0,,,,,,,,,,,,,,,,,,,,,,,,1843.0819133485202,None,,,,,,,,,,,,,,,,,frank,sing,white,160,9,133,1837.213459247956,None,1837.213459247956,None,5,4.53268043580465,1837.213459247956,None,1841.7842079238035,None,1842.298213913804,None,1842.298213913804,None,f,0.7357879711780697,1842.298213913804,None,,,NC4,001,2019_Dec_03_1523,ProdSingRedo,3.2.4,59.98619471811765,
,,,,161,0,161,0,,,,,,,,,,,,,,,,,,,,,,,,1846.1995642858092,None,,,,,,,,,,,,,,,,,literature,new_b,white,161,142,173,1843.5987404405605,None,1843.5987404405605,None,6,1.4111939067952335,1843.5987404405605,None,1845.0514655986335,None,1845.5658880206756,None,1845.5658880206756,None,n,0.5960123280528933,1845.5658880206756,None,,,NC4,001,2019_Dec_03_1523,ProdSingRedo,3.2.4,59.98619471811765,
,,,,162,0,162,0,,,,,,,,,,,,,,,,,,,,,,,,1852.8682578583248,None,,,,,,,,,,,,,,,,,range,new_b,white,162,121,251,1846.716362143634,None,1846.716362143634,None,2,5.365107404533774,1846.716362143634,None,1852.1187559284735,None,1852.6348558971658,None,1852.6348558971658,None,n,0.19082449842244387,1852.6348558971658,None,,,NC4,001,2019_Dec_03_1523,ProdSingRedo,3.2.4,59.98619471811765,
,,,,163,0,163,0,,,,,,,,,,,,,,,,,,,,,,,,1856.4026805290487,None,,,,,,,,,,,,,,,,,degree,new_a,white,163,111,89,1853.3850311469287,None,1853.3850311469287,None,4,1.6483235419727862,1853.3850311469287,None,1855.0708960911725,None,1855.585772576509,None,1855.585772576509,None,f,0.767415041802451,1855.585772576509,None,,,NC4,001,2019_Dec_03_1523,ProdSingRedo,3.2.4,59.98619471811765,
,,,,164,0,164,0,,,,,,,,,,,,,,,,,,,,,,,,1863.2548110506032,None,,,,,,,,,,,,,,,,,report,aloud,white,164,54,259,1856.9195113531314,None,1856.9195113531314,None,3,5.321298994589597,1856.9195113531314,None,1862.2892449174542,None,1862.8046662791166,None,1862.8046662791166,None,f,0.40413508703932166,1862.8046662791166,None,,,NC4,001,2019_Dec_03_1523,ProdSingRedo,3.2.4,59.98619471811765,
,,,,165,0,165,0,,,,,,,,,,,,,,,,,,,,,,,,1866.3557369045448,None,,,,,,,,,,,,,,,,,medicine,silent,white,165,67,186,1863.7714555843268,None,1863.7714555843268,None,1,1.8051545526832342,1863.7714555843268,None,1865.623590770876,None,1866.1389813430142,None,1866.1389813430142,None,n,0.18173390021547675,1866.1389813430142,None,,,NC4,001,2019_Dec_03_1523,ProdSingRedo,3.2.4,59.98619471811765,
,,,,166,0,166,0,,,,,,,,,,,,,,,,,,,,,,,,1869.8734708793927,None,,,,,,,,,,,,,,,,,suspect,new_c,white,166,173,318,1866.872562752571,None,1866.872562752571,None,2,1.9198528337292373,1866.872562752571,None,1868.8407528123353,None,1869.3566524954513,None,1869.3566524954513,None,n,0.4677017859648913,1869.3566524954513,None,,,NC4,001,2019_Dec_03_1523,ProdSingRedo,3.2.4,59.98619471811765,
,,,,167,0,167,0,,,,,,,,,,,,,,,,,,,,,,,,1873.291173754027,None,,,,,,,,,,,,,,,,,military,silent,white,167,89,190,1870.3906254568137,None,1870.3906254568137,None,3,2.1616462597157806,1870.3906254568137,None,1872.5943332265597,None,1873.1076643415727,None,1873.1076643415727,None,f,0.14866533363237977,1873.1076643415727,None,,,NC4,001,2019_Dec_03_1523,ProdSingRedo,3.2.4,59.98619471811765,
,,,,168,0,168,0,,,,,,,,,,,,,,,,,,,,,,,,1875.8919857810251,None,,,,,,,,,,,,,,,,,nation,aloud,white,168,50,198,1873.8080017790198,None,1873.8080017790198,None,6,1.2083342403639108,1873.8080017790198,None,1875.060776697239,None,1875.5752252435777,None,1875.5752252435777,None,r,0.2731508577708155,1875.5752252435777,None,,,NC4,001,2019_Dec_03_1523,ProdSingRedo,3.2.4,59.98619471811765,
,,,,169,0,169,0,,,,,,,,,,,,,,,,,,,,,,,,1878.1093272708822,None,,,,,,,,,,,,,,,,,watch,sing,white,169,14,351,1876.4087851939257,None,1876.4087851939257,None,6,0.9031075353268534,1876.4087851939257,None,1877.3599422781263,None,1877.8759159797337,None,1877.8759159797337,None,r,0.1881707152351737,1877.8759159797337,None,,,NC4,001,2019_Dec_03_1523,ProdSingRedo,3.2.4,59.98619471811765,
,,,,170,0,170,0,,,,,,,,,,,,,,,,,,,,,,,,1880.6136558013968,None,,,,,,,,,,,,,,,,,working,new_a,white,170,117,357,1878.6259690055158,None,1878.6259690055158,None,2,1.3260327607858926,1878.6259690055158,None,1880.0097978175618,None,1880.5099175532814,None,1880.5099175532814,None,f,0.07408977393060923,1880.5099175532814,None,,,NC4,001,2019_Dec_03_1523,ProdSingRedo,3.2.4,59.98619471811765,
,,,,171,0,171,0,,,,,,,,,,,,,,,,,,,,,,,,1882.9107575707603,None,,,,,,,,,,,,,,,,,trial,new_a,white,171,110,341,1881.1434625755064,None,1881.1434625755064,None,6,1.0322745777666569,1881.1434625755064,None,1882.2127585597336,None,1882.7274223193526,None,1882.7274223193526,None,r,0.1361347388010472,1882.7274223193526,None,,,NC4,001,2019_Dec_03_1523,ProdSingRedo,3.2.4,59.98619471811765,
,,,,172,0,172,0,,,,,,,,,,,,,,,,,,,,,,,,1885.6783153626602,None,,,,,,,,,,,,,,,,,prime,new_c,white,172,179,235,1883.4276477962267,None,1883.4276477962267,None,3,1.627867363858968,1883.4276477962267,None,1885.095958835911,None,1885.6116414393764,None,1885.6116414393764,None,f,0.027829421451315284,1885.6116414393764,None,,,NC4,001,2019_Dec_03_1523,ProdSingRedo,3.2.4,59.98619471811765,
,,,,173,0,173,0,,,,,,,,,,,,,,,,,,,,,,,,1887.7622940775473,None,,,,,,,,,,,,,,,,,little,new_c,white,173,158,174,1886.195116019575,None,1886.195116019575,None,3,0.9482013180386275,1886.195116019575,None,1887.1805754166562,None,1887.6956042931415,None,1887.6956042931415,None,f,0.02396490634419024,1887.6956042931415,None,,,NC4,001,2019_Dec_03_1523,ProdSingRedo,3.2.4,59.98619471811765,
,,,,174,0,174,0,,,,,,,,,,,,,,,,,,,,,,,,1891.613483506022,None,,,,,,,,,,,,,,,,,tennis,new_a,white,174,118,323,1888.2789759316947,None,1888.2789759316947,None,1,1.512244783807546,1888.2789759316947,None,1889.8317881701514,None,1890.3464273607824,None,1890.3464273607824,None,n,1.2205737370532006,1890.3464273607824,None,,,NC4,001,2019_Dec_03_1523,ProdSingRedo,3.2.4,59.98619471811765,
,,,,175,0,175,0,,,,,,,,,,,,,,,,,,,,,,,,1894.2642816936132,None,,,,,,,,,,,,,,,,,running,new_c,white,175,156,268,1892.1302962920163,None,1892.1302962920163,None,1,1.4606395452283323,1892.1302962920163,None,1893.6339060959872,None,1894.1475939305965,None,1894.1475939305965,None,n,0.08335515530779958,1894.1475939305965,None,,,NC4,001,2019_Dec_03_1523,ProdSingRedo,3.2.4,59.98619471811765,
,,,,176,0,176,0,,,,,,,,,,,,,,,,,,,,,,,,1898.5989500561263,None,,,,,,,,,,,,,,,,,disease,silent,white,176,86,97,1894.7810916805174,None,1894.7810916805174,None,6,1.9217260007280856,1894.7810916805174,None,1896.75068093976,None,1897.2652078585234,None,1897.2652078585234,None,f,1.2854677941650152,1897.2652078585234,None,,,NC4,001,2019_Dec_03_1523,ProdSingRedo,3.2.4,59.98619471811765,
,,,,177,0,177,0,,,,,,,,,,,,,,,,,,,,,,,,1901.5331836375408,None,,,,,,,,,,,,,,,,,still,silent,white,177,73,304,1899.1156222689897,None,1899.1156222689897,None,5,1.7628327335696667,1899.1156222689897,None,1900.9177255779505,None,1901.4331388531718,None,1901.4331388531718,None,f,0.06135982647538185,1901.4331388531718,None,,,NC4,001,2019_Dec_03_1523,ProdSingRedo,3.2.4,59.98619471811765,
,,,,178,0,178,0,,,,,,,,,,,,,,,,,,,,,,,,1904.017243213253,None,,,,,,,,,,,,,,,,,growth,silent,white,178,77,144,1902.0498595824465,None,1902.0498595824465,None,6,1.156849981751293,1902.0498595824465,None,1903.2503450571094,None,1903.7672013833653,None,1903.7672013833653,None,r,0.21517846873030066,1903.7672013833653,None,,,NC4,001,2019_Dec_03_1523,ProdSingRedo,3.2.4,59.98619471811765,
,,,,179,0,179,0,,,,,,,,,,,,,,,,,,,,,,,,1906.8181345458142,None,,,,,,,,,,,,,,,,,sunset,new_c,white,179,175,315,1904.533963631373,None,1904.533963631373,None,1,1.4962573980446905,1904.533963631373,None,1906.0687035247684,None,1906.5846647862345,None,1906.5846647862345,None,n,0.18980720965191722,1906.5846647862345,None,,,NC4,001,2019_Dec_03_1523,ProdSingRedo,3.2.4,59.98619471811765,
,,,,,,,,,,,,,,,,,,,,,,,,,,,,,,,,,,,,,,,,,,,,,,,,,,,,,,,,,,,,,,,,,,,,,,,,,1907.3183230133727,None,,,,,,,
