StudyLoop.thisRepN,StudyLoop.thisTrialN,StudyLoop.thisN,StudyLoop.thisIndex,TestLoop.thisRepN,TestLoop.thisTrialN,TestLoop.thisN,TestLoop.thisIndex,textCondition.started,textCondition.stopped,keyCondition.keys,keyCondition.rt,keyCondition.started,keyCondition.stopped,Condition,stim_colors,color_sing,color_aloud,color_silent,textWelcome.started,textWelcome.stopped,keyWelcome.keys,keyWelcome.rt,keyWelcome.started,keyWelcome.stopped,textAloud.started,textAloud.stopped,textSilent.started,textSilent.stopped,textSing.started,textSing.stopped,textBlank500.started,textBlank500.stopped,study_word,study_type,study_color,study_num,study_word_num,textStudy.started,textStudy.stopped,keyStudy.keys,keyStudy.started,keyStudy.stopped,textTestInstructions.started,textTestInstructions.stopped,key_resp_3.keys,key_resp_3.rt,key_resp_3.started,key_resp_3.stopped,testWord,testType,testColor,testN,test_num,test_word_num,textConf.started,textConf.stopped,textConfScale.started,textConfScale.stopped,keyConf.keys,keyConf.rt,keyConf.started,keyConf.stopped,textTestBlank.started,textTestBlank.stopped,textRKN.started,textRKN.stopped,textRKNScale.started,textRKNScale.stopped,keyRKN.keys,keyRKN.rt,keyRKN.started,keyRKN.stopped,textEnd.started,textEnd.stopped,participant,session,date,expName,psychopyVersion,frameRate,
,,,,,,,,16.098600178491324,None,n,0.812734923325479,16.098600178491324,None,,,,,,,,,,,,,,,,,,,,,,,,,,,,,,,,,,,,,,,,,,,,,,,,,,,,,,,,,,,,,,NC5,001,2019_Dec_03_1557,ProdSingRedo,3.2.4,59.9770194798855,
,,,,,,,,,,,,,,NeutralTest,"['blue', 'red', 'yellow']",blue,red,yellow,16.964558174600825,None,space,814.985109830508,16.964558174600825,None,,,,,,,,,,,,,,,,,,,,,,,,,,,,,,,,,,,,,,,,,,,,,,,,,,,NC5,001,2019_Dec_03_1557,ProdSingRedo,3.2.4,59.9770194798855,
0,0,0,0,,,,,,,,,,,,,,,,,,,,,,16.964558174600825,None,16.964558174600825,None,16.964558174600825,None,834.4986623791046,None,personnel,sing,blue,0,219,832.4980095850769,None,None,832.4980095850769,None,,,,,,,,,,,,,,,,,,,,,,,,,,,,,,,,,NC5,001,2019_Dec_03_1557,ProdSingRedo,3.2.4,59.9770194798855,
1,0,1,0,,,,,,,,,,,,,,,,,,,,,,,,,,,,837.0161108537577,None,guard,silent,yellow,70,145,835.0154605477583,None,None,835.0154605477583,None,,,,,,,,,,,,,,,,,,,,,,,,,,,,,,,,,NC5,001,2019_Dec_03_1557,ProdSingRedo,3.2.4,59.9770194798855,
2,0,2,0,,,,,,,,,,,,,,,,,,,,,,,,,,,,839.5335512424354,None,benefit,silent,yellow,77,20,837.5339337752666,None,None,837.5339337752666,None,,,,,,,,,,,,,,,,,,,,,,,,,,,,,,,,,NC5,001,2019_Dec_03_1557,ProdSingRedo,3.2.4,59.9770194798855,
3,0,3,0,,,,,,,,,,,,,,,,,,,,,,,,,,,,842.0509754589293,None,right,sing,blue,11,265,840.0503239089157,None,None,840.0503239089157,None,,,,,,,,,,,,,,,,,,,,,,,,,,,,,,,,,NC5,001,2019_Dec_03_1557,ProdSingRedo,3.2.4,59.9770194798855,
4,0,4,0,,,,,,,,,,,,,,,,,,,,,,,,,,,,844.5684161584359,None,company,silent,yellow,75,64,842.5686459892895,None,None,842.5686459892895,None,,,,,,,,,,,,,,,,,,,,,,,,,,,,,,,,,NC5,001,2019_Dec_03_1557,ProdSingRedo,3.2.4,59.9770194798855,
5,0,5,0,,,,,,,,,,,,,,,,,,,,,,,,,,,,847.085841618944,None,goose,aloud,red,52,138,845.0852025093045,None,None,845.0852025093045,None,,,,,,,,,,,,,,,,,,,,,,,,,,,,,,,,,NC5,001,2019_Dec_03_1557,ProdSingRedo,3.2.4,59.9770194798855,
6,0,6,0,,,,,,,,,,,,,,,,,,,,,,,,,,,,849.6032854286022,None,figure,aloud,red,48,128,847.6025032578036,None,None,847.6025032578036,None,,,,,,,,,,,,,,,,,,,,,,,,,,,,,,,,,NC5,001,2019_Dec_03_1557,ProdSingRedo,3.2.4,59.9770194798855,
7,0,7,0,,,,,,,,,,,,,,,,,,,,,,,,,,,,852.1207105782814,None,heavy,aloud,red,44,151,850.1199993158225,None,None,850.1199993158225,None,,,,,,,,,,,,,,,,,,,,,,,,,,,,,,,,,NC5,001,2019_Dec_03_1557,ProdSingRedo,3.2.4,59.9770194798855,
8,0,8,0,,,,,,,,,,,,,,,,,,,,,,,,,,,,854.6381705598906,None,religion,sing,blue,12,258,852.6374092262704,None,None,852.6374092262704,None,,,,,,,,,,,,,,,,,,,,,,,,,,,,,,,,,NC5,001,2019_Dec_03_1557,ProdSingRedo,3.2.4,59.9770194798855,
9,0,9,0,,,,,,,,,,,,,,,,,,,,,,,,,,,,857.1556019296404,None,birth,silent,yellow,68,22,855.1548014094587,None,None,855.1548014094587,None,,,,,,,,,,,,,,,,,,,,,,,,,,,,,,,,,NC5,001,2019_Dec_03_1557,ProdSingRedo,3.2.4,59.9770194798855,
10,0,10,0,,,,,,,,,,,,,,,,,,,,,,,,,,,,859.673036720138,None,quantity,aloud,red,30,245,857.6738739383873,None,None,857.6738739383873,None,,,,,,,,,,,,,,,,,,,,,,,,,,,,,,,,,NC5,001,2019_Dec_03_1557,ProdSingRedo,3.2.4,59.9770194798855,
11,0,11,0,,,,,,,,,,,,,,,,,,,,,,,,,,,,862.1904802187346,None,industry,sing,blue,9,161,860.1896880958229,None,None,860.1896880958229,None,,,,,,,,,,,,,,,,,,,,,,,,,,,,,,,,,NC5,001,2019_Dec_03_1557,ProdSingRedo,3.2.4,59.9770194798855,
12,0,12,0,,,,,,,,,,,,,,,,,,,,,,,,,,,,864.7079000812955,None,carry,aloud,red,38,43,862.7072796316352,None,None,862.7072796316352,None,,,,,,,,,,,,,,,,,,,,,,,,,,,,,,,,,NC5,001,2019_Dec_03_1557,ProdSingRedo,3.2.4,59.9770194798855,
13,0,13,0,,,,,,,,,,,,,,,,,,,,,,,,,,,,867.2253697041888,None,council,silent,yellow,78,71,865.2246979391202,None,None,865.2246979391202,None,,,,,,,,,,,,,,,,,,,,,,,,,,,,,,,,,NC5,001,2019_Dec_03_1557,ProdSingRedo,3.2.4,59.9770194798855,
14,0,14,0,,,,,,,,,,,,,,,,,,,,,,,,,,,,869.7427895665169,None,power,aloud,red,50,230,867.7421333517414,None,None,867.7421333517414,None,,,,,,,,,,,,,,,,,,,,,,,,,,,,,,,,,NC5,001,2019_Dec_03_1557,ProdSingRedo,3.2.4,59.9770194798855,
15,0,15,0,,,,,,,,,,,,,,,,,,,,,,,,,,,,872.2602601223625,None,break,aloud,red,32,26,870.2595737401862,None,None,870.2595737401862,None,,,,,,,,,,,,,,,,,,,,,,,,,,,,,,,,,NC5,001,2019_Dec_03_1557,ProdSingRedo,3.2.4,59.9770194798855,
16,0,16,0,,,,,,,,,,,,,,,,,,,,,,,,,,,,874.777659147745,None,detective,sing,blue,5,92,872.7770141288638,None,None,872.7770141288638,None,,,,,,,,,,,,,,,,,,,,,,,,,,,,,,,,,NC5,001,2019_Dec_03_1557,ProdSingRedo,3.2.4,59.9770194798855,
17,0,17,0,,,,,,,,,,,,,,,,,,,,,,,,,,,,877.295113531407,None,concern,aloud,red,54,65,875.2943357145414,None,None,875.2943357145414,None,,,,,,,,,,,,,,,,,,,,,,,,,,,,,,,,,NC5,001,2019_Dec_03_1557,ProdSingRedo,3.2.4,59.9770194798855,
18,0,18,0,,,,,,,,,,,,,,,,,,,,,,,,,,,,879.812527484959,None,strength,aloud,red,39,310,877.8119113892317,None,None,877.8119113892317,None,,,,,,,,,,,,,,,,,,,,,,,,,,,,,,,,,NC5,001,2019_Dec_03_1557,ProdSingRedo,3.2.4,59.9770194798855,
19,0,19,0,,,,,,,,,,,,,,,,,,,,,,,,,,,,882.3299955527764,None,principal,aloud,red,58,236,880.3292121379636,None,None,880.3292121379636,None,,,,,,,,,,,,,,,,,,,,,,,,,,,,,,,,,NC5,001,2019_Dec_03_1557,ProdSingRedo,3.2.4,59.9770194798855,
20,0,20,0,,,,,,,,,,,,,,,,,,,,,,,,,,,,884.8474387403112,None,service,aloud,red,34,280,882.8466096082702,None,None,882.8466096082702,None,,,,,,,,,,,,,,,,,,,,,,,,,,,,,,,,,NC5,001,2019_Dec_03_1557,ProdSingRedo,3.2.4,59.9770194798855,
21,0,21,0,,,,,,,,,,,,,,,,,,,,,,,,,,,,887.3648716649041,None,broad,aloud,red,46,31,885.3640565278474,None,None,885.3640565278474,None,,,,,,,,,,,,,,,,,,,,,,,,,,,,,,,,,NC5,001,2019_Dec_03_1557,ProdSingRedo,3.2.4,59.9770194798855,
22,0,22,0,,,,,,,,,,,,,,,,,,,,,,,,,,,,889.8823341347743,None,bright,sing,blue,29,29,887.881484165322,None,None,887.881484165322,None,,,,,,,,,,,,,,,,,,,,,,,,,,,,,,,,,NC5,001,2019_Dec_03_1557,ProdSingRedo,3.2.4,59.9770194798855,
23,0,23,0,,,,,,,,,,,,,,,,,,,,,,,,,,,,892.3997316050809,None,collection,silent,yellow,63,54,890.3989733813796,None,None,890.3989733813796,None,,,,,,,,,,,,,,,,,,,,,,,,,,,,,,,,,NC5,001,2019_Dec_03_1557,ProdSingRedo,3.2.4,59.9770194798855,
24,0,24,0,,,,,,,,,,,,,,,,,,,,,,,,,,,,894.9171856776811,None,drama,silent,yellow,84,103,892.9165160898119,None,None,892.9165160898119,None,,,,,,,,,,,,,,,,,,,,,,,,,,,,,,,,,NC5,001,2019_Dec_03_1557,ProdSingRedo,3.2.4,59.9770194798855,
25,0,25,0,,,,,,,,,,,,,,,,,,,,,,,,,,,,897.4346304205246,None,victory,sing,blue,8,346,895.4339620764367,None,None,895.4339620764367,None,,,,,,,,,,,,,,,,,,,,,,,,,,,,,,,,,NC5,001,2019_Dec_03_1557,ProdSingRedo,3.2.4,59.9770194798855,
26,0,26,0,,,,,,,,,,,,,,,,,,,,,,,,,,,,899.9520617900416,None,agency,silent,yellow,62,4,897.9513825608883,None,None,897.9513825608883,None,,,,,,,,,,,,,,,,,,,,,,,,,,,,,,,,,NC5,001,2019_Dec_03_1557,ProdSingRedo,3.2.4,59.9770194798855,
27,0,27,0,,,,,,,,,,,,,,,,,,,,,,,,,,,,902.4694888056256,None,commercial,sing,blue,14,61,900.4688378777355,None,None,900.4688378777355,None,,,,,,,,,,,,,,,,,,,,,,,,,,,,,,,,,NC5,001,2019_Dec_03_1557,ProdSingRedo,3.2.4,59.9770194798855,
28,0,28,0,,,,,,,,,,,,,,,,,,,,,,,,,,,,904.98694132315,None,mayor,sing,blue,16,183,902.9863022135105,None,None,902.9863022135105,None,,,,,,,,,,,,,,,,,,,,,,,,,,,,,,,,,NC5,001,2019_Dec_03_1557,ProdSingRedo,3.2.4,59.9770194798855,
29,0,29,0,,,,,,,,,,,,,,,,,,,,,,,,,,,,907.4877004800364,None,voice,silent,yellow,73,348,905.4869693135843,None,None,905.4869693135843,None,,,,,,,,,,,,,,,,,,,,,,,,,,,,,,,,,NC5,001,2019_Dec_03_1557,ProdSingRedo,3.2.4,59.9770194798855,
30,0,30,0,,,,,,,,,,,,,,,,,,,,,,,,,,,,910.0051536196843,None,revolution,sing,blue,28,264,908.0044855866581,None,None,908.0044855866581,None,,,,,,,,,,,,,,,,,,,,,,,,,,,,,,,,,NC5,001,2019_Dec_03_1557,ProdSingRedo,3.2.4,59.9770194798855,
31,0,31,0,,,,,,,,,,,,,,,,,,,,,,,,,,,,912.5225890323054,None,captain,sing,blue,10,41,910.5219244202599,None,None,910.5219244202599,None,,,,,,,,,,,,,,,,,,,,,,,,,,,,,,,,,NC5,001,2019_Dec_03_1557,ProdSingRedo,3.2.4,59.9770194798855,
32,0,32,0,,,,,,,,,,,,,,,,,,,,,,,,,,,,915.0400244449265,None,fight,aloud,red,47,127,913.0393442828208,None,None,913.0393442828208,None,,,,,,,,,,,,,,,,,,,,,,,,,,,,,,,,,NC5,001,2019_Dec_03_1557,ProdSingRedo,3.2.4,59.9770194798855,
33,0,33,0,,,,,,,,,,,,,,,,,,,,,,,,,,,,917.5574461733922,None,growth,sing,blue,6,144,915.5567958673928,None,None,915.5567958673928,None,,,,,,,,,,,,,,,,,,,,,,,,,,,,,,,,,NC5,001,2019_Dec_03_1557,ProdSingRedo,3.2.4,59.9770194798855,
34,0,34,0,,,,,,,,,,,,,,,,,,,,,,,,,,,,920.0748962031212,None,throw,silent,yellow,88,330,918.0742303470615,None,None,918.0742303470615,None,,,,,,,,,,,,,,,,,,,,,,,,,,,,,,,,,NC5,001,2019_Dec_03_1557,ProdSingRedo,3.2.4,59.9770194798855,
35,0,35,0,,,,,,,,,,,,,,,,,,,,,,,,,,,,922.592306424398,None,primary,sing,blue,21,234,920.5916872187518,None,None,920.5916872187518,None,,,,,,,,,,,,,,,,,,,,,,,,,,,,,,,,,NC5,001,2019_Dec_03_1557,ProdSingRedo,3.2.4,59.9770194798855,
36,0,36,0,,,,,,,,,,,,,,,,,,,,,,,,,,,,925.1097741813865,None,volume,sing,blue,23,349,923.1091409805231,None,None,923.1091409805231,None,,,,,,,,,,,,,,,,,,,,,,,,,,,,,,,,,NC5,001,2019_Dec_03_1557,ProdSingRedo,3.2.4,59.9770194798855,
37,0,37,0,,,,,,,,,,,,,,,,,,,,,,,,,,,,927.627224833006,None,motion,aloud,red,35,194,925.6264264900237,None,None,925.6264264900237,None,,,,,,,,,,,,,,,,,,,,,,,,,,,,,,,,,NC5,001,2019_Dec_03_1557,ProdSingRedo,3.2.4,59.9770194798855,
38,0,38,0,,,,,,,,,,,,,,,,,,,,,,,,,,,,930.1446509154048,None,present,silent,yellow,83,231,928.14390046685,None,None,928.14390046685,None,,,,,,,,,,,,,,,,,,,,,,,,,,,,,,,,,NC5,001,2019_Dec_03_1557,ProdSingRedo,3.2.4,59.9770194798855,
39,0,39,0,,,,,,,,,,,,,,,,,,,,,,,,,,,,932.6621127633844,None,south,silent,yellow,66,296,930.6614453522488,None,None,930.6614453522488,None,,,,,,,,,,,,,,,,,,,,,,,,,,,,,,,,,NC5,001,2019_Dec_03_1557,ProdSingRedo,3.2.4,59.9770194798855,
40,0,40,0,,,,,,,,,,,,,,,,,,,,,,,,,,,,935.1795282717794,None,speech,sing,blue,17,298,933.178742990829,None,None,933.178742990829,None,,,,,,,,,,,,,,,,,,,,,,,,,,,,,,,,,NC5,001,2019_Dec_03_1557,ProdSingRedo,3.2.4,59.9770194798855,
41,0,41,0,,,,,,,,,,,,,,,,,,,,,,,,,,,,937.696991674602,None,scene,silent,yellow,67,273,935.6963040484115,None,None,935.6963040484115,None,,,,,,,,,,,,,,,,,,,,,,,,,,,,,,,,,NC5,001,2019_Dec_03_1557,ProdSingRedo,3.2.4,59.9770194798855,
42,0,42,0,,,,,,,,,,,,,,,,,,,,,,,,,,,,940.214405938983,None,period,sing,blue,4,217,938.2137431930751,None,None,938.2137431930751,None,,,,,,,,,,,,,,,,,,,,,,,,,,,,,,,,,NC5,001,2019_Dec_03_1557,ProdSingRedo,3.2.4,59.9770194798855,
43,0,43,0,,,,,,,,,,,,,,,,,,,,,,,,,,,,942.7318388635758,None,piece,silent,yellow,65,221,940.7311549694277,None,None,940.7311549694277,None,,,,,,,,,,,,,,,,,,,,,,,,,,,,,,,,,NC5,001,2019_Dec_03_1557,ProdSingRedo,3.2.4,59.9770194798855,
44,0,44,0,,,,,,,,,,,,,,,,,,,,,,,,,,,,945.2492755202111,None,murder,aloud,red,42,195,943.2486351663247,None,None,943.2486351663247,None,,,,,,,,,,,,,,,,,,,,,,,,,,,,,,,,,NC5,001,2019_Dec_03_1557,ProdSingRedo,3.2.4,59.9770194798855,
45,0,45,0,,,,,,,,,,,,,,,,,,,,,,,,,,,,947.76671715267,None,sleep,silent,yellow,72,290,945.7660827080254,None,None,945.7660827080254,None,,,,,,,,,,,,,,,,,,,,,,,,,,,,,,,,,NC5,001,2019_Dec_03_1557,ProdSingRedo,3.2.4,59.9770194798855,
46,0,46,0,,,,,,,,,,,,,,,,,,,,,,,,,,,,950.2841130681336,None,union,sing,blue,24,344,948.2834891974926,None,None,948.2834891974926,None,,,,,,,,,,,,,,,,,,,,,,,,,,,,,,,,,NC5,001,2019_Dec_03_1557,ProdSingRedo,3.2.4,59.9770194798855,
47,0,47,0,,,,,,,,,,,,,,,,,,,,,,,,,,,,952.8015951309353,None,weight,silent,yellow,71,353,950.800947313197,None,None,950.800947313197,None,,,,,,,,,,,,,,,,,,,,,,,,,,,,,,,,,NC5,001,2019_Dec_03_1557,ProdSingRedo,3.2.4,59.9770194798855,
48,0,48,0,,,,,,,,,,,,,,,,,,,,,,,,,,,,955.3190504477825,None,sunset,silent,yellow,79,315,953.3183988977689,None,None,953.3183988977689,None,,,,,,,,,,,,,,,,,,,,,,,,,,,,,,,,,NC5,001,2019_Dec_03_1557,ProdSingRedo,3.2.4,59.9770194798855,
49,0,49,0,,,,,,,,,,,,,,,,,,,,,,,,,,,,957.8364628462587,None,conference,aloud,red,55,66,955.8356738332659,None,None,955.8356738332659,None,,,,,,,,,,,,,,,,,,,,,,,,,,,,,,,,,NC5,001,2019_Dec_03_1557,ProdSingRedo,3.2.4,59.9770194798855,
50,0,50,0,,,,,,,,,,,,,,,,,,,,,,,,,,,,960.3539265599102,None,comfort,aloud,red,57,59,958.3531173318624,None,None,958.3531173318624,None,,,,,,,,,,,,,,,,,,,,,,,,,,,,,,,,,NC5,001,2019_Dec_03_1557,ProdSingRedo,3.2.4,59.9770194798855,
51,0,51,0,,,,,,,,,,,,,,,,,,,,,,,,,,,,962.8713660156354,None,budget,aloud,red,59,34,960.8705462133512,None,None,960.8705462133512,None,,,,,,,,,,,,,,,,,,,,,,,,,,,,,,,,,NC5,001,2019_Dec_03_1557,ProdSingRedo,3.2.4,59.9770194798855,
52,0,52,0,,,,,,,,,,,,,,,,,,,,,,,,,,,,965.3887858779635,None,household,sing,blue,13,154,963.3879918891471,None,None,963.3879918891471,None,,,,,,,,,,,,,,,,,,,,,,,,,,,,,,,,,NC5,001,2019_Dec_03_1557,ProdSingRedo,3.2.4,59.9770194798855,
53,0,53,0,,,,,,,,,,,,,,,,,,,,,,,,,,,,967.9062194246799,None,rapid,aloud,red,40,252,965.9055725398939,None,None,965.9055725398939,None,,,,,,,,,,,,,,,,,,,,,,,,,,,,,,,,,NC5,001,2019_Dec_03_1557,ProdSingRedo,3.2.4,59.9770194798855,
54,0,54,0,,,,,,,,,,,,,,,,,,,,,,,,,,,,970.4236663442571,None,notice,aloud,red,43,201,968.4230088854674,None,None,968.4230088854674,None,,,,,,,,,,,,,,,,,,,,,,,,,,,,,,,,,NC5,001,2019_Dec_03_1557,ProdSingRedo,3.2.4,59.9770194798855,
55,0,55,0,,,,,,,,,,,,,,,,,,,,,,,,,,,,972.9410743888002,None,track,aloud,red,56,334,970.9404296809807,None,None,970.9404296809807,None,,,,,,,,,,,,,,,,,,,,,,,,,,,,,,,,,NC5,001,2019_Dec_03_1557,ProdSingRedo,3.2.4,59.9770194798855,
56,0,56,0,,,,,,,,,,,,,,,,,,,,,,,,,,,,975.4584398258012,None,permit,aloud,red,36,218,973.4578961937223,None,None,973.4578961937223,None,,,,,,,,,,,,,,,,,,,,,,,,,,,,,,,,,NC5,001,2019_Dec_03_1557,ProdSingRedo,3.2.4,59.9770194798855,
57,0,57,0,,,,,,,,,,,,,,,,,,,,,,,,,,,,977.9759831561241,None,treatment,silent,yellow,81,339,975.9753266302869,None,None,975.9753266302869,None,,,,,,,,,,,,,,,,,,,,,,,,,,,,,,,,,NC5,001,2019_Dec_03_1557,ProdSingRedo,3.2.4,59.9770194798855,
58,0,58,0,,,,,,,,,,,,,,,,,,,,,,,,,,,,980.4934114157222,None,youth,silent,yellow,64,359,978.4927769710775,None,None,978.4927769710775,None,,,,,,,,,,,,,,,,,,,,,,,,,,,,,,,,,NC5,001,2019_Dec_03_1557,ProdSingRedo,3.2.4,59.9770194798855,
59,0,59,0,,,,,,,,,,,,,,,,,,,,,,,,,,,,983.0108642445412,None,pancakes,sing,blue,27,210,981.0102042974904,None,None,981.0102042974904,None,,,,,,,,,,,,,,,,,,,,,,,,,,,,,,,,,NC5,001,2019_Dec_03_1557,ProdSingRedo,3.2.4,59.9770194798855,
60,0,60,0,,,,,,,,,,,,,,,,,,,,,,,,,,,,985.5282934370916,None,author,sing,blue,18,15,983.5276502841152,None,None,983.5276502841152,None,,,,,,,,,,,,,,,,,,,,,,,,,,,,,,,,,NC5,001,2019_Dec_03_1557,ProdSingRedo,3.2.4,59.9770194798855,
61,0,61,0,,,,,,,,,,,,,,,,,,,,,,,,,,,,988.0457378686406,None,color,aloud,red,53,56,986.0450608166866,None,None,986.0450608166866,None,,,,,,,,,,,,,,,,,,,,,,,,,,,,,,,,,NC5,001,2019_Dec_03_1557,ProdSingRedo,3.2.4,59.9770194798855,
62,0,62,0,,,,,,,,,,,,,,,,,,,,,,,,,,,,990.5631804342847,None,finance,silent,yellow,89,129,988.5623985745478,None,None,988.5623985745478,None,,,,,,,,,,,,,,,,,,,,,,,,,,,,,,,,,NC5,001,2019_Dec_03_1557,ProdSingRedo,3.2.4,59.9770194798855,
63,0,63,0,,,,,,,,,,,,,,,,,,,,,,,,,,,,993.0806254879571,None,quiet,silent,yellow,69,249,991.0798007098492,None,None,991.0798007098492,None,,,,,,,,,,,,,,,,,,,,,,,,,,,,,,,,,NC5,001,2019_Dec_03_1557,ProdSingRedo,3.2.4,59.9770194798855,
64,0,64,0,,,,,,,,,,,,,,,,,,,,,,,,,,,,995.5980369534809,None,burden,sing,blue,26,36,993.5972485623788,None,None,993.5972485623788,None,,,,,,,,,,,,,,,,,,,,,,,,,,,,,,,,,NC5,001,2019_Dec_03_1557,ProdSingRedo,3.2.4,59.9770194798855,
65,0,65,0,,,,,,,,,,,,,,,,,,,,,,,,,,,,998.1154941362329,None,pretty,silent,yellow,85,233,996.1146842860617,None,None,996.1146842860617,None,,,,,,,,,,,,,,,,,,,,,,,,,,,,,,,,,NC5,001,2019_Dec_03_1557,ProdSingRedo,3.2.4,59.9770194798855,
66,0,66,0,,,,,,,,,,,,,,,,,,,,,,,,,,,,1000.6328860083595,None,junior,sing,blue,7,167,998.6330380884465,None,None,998.6330380884465,None,,,,,,,,,,,,,,,,,,,,,,,,,,,,,,,,,NC5,001,2019_Dec_03_1557,ProdSingRedo,3.2.4,59.9770194798855,
67,0,67,0,,,,,,,,,,,,,,,,,,,,,,,,,,,,1003.150365272304,None,foundation,sing,blue,20,132,1001.1497320716735,None,None,1001.1497320716735,None,,,,,,,,,,,,,,,,,,,,,,,,,,,,,,,,,NC5,001,2019_Dec_03_1557,ProdSingRedo,3.2.4,59.9770194798855,
68,0,68,0,,,,,,,,,,,,,,,,,,,,,,,,,,,,1005.6678283640649,None,mechanical,aloud,red,33,185,1003.6671429150738,None,None,1003.6671429150738,None,,,,,,,,,,,,,,,,,,,,,,,,,,,,,,,,,NC5,001,2019_Dec_03_1557,ProdSingRedo,3.2.4,59.9770194798855,
69,0,69,0,,,,,,,,,,,,,,,,,,,,,,,,,,,,1008.185230810428,None,straight,aloud,red,51,307,1006.1845938777551,None,None,1006.1845938777551,None,,,,,,,,,,,,,,,,,,,,,,,,,,,,,,,,,NC5,001,2019_Dec_03_1557,ProdSingRedo,3.2.4,59.9770194798855,
70,0,70,0,,,,,,,,,,,,,,,,,,,,,,,,,,,,1010.7026792850811,None,leader,silent,yellow,80,168,1008.7020056541078,None,None,1008.7020056541078,None,,,,,,,,,,,,,,,,,,,,,,,,,,,,,,,,,NC5,001,2019_Dec_03_1557,ProdSingRedo,3.2.4,59.9770194798855,
71,0,71,0,,,,,,,,,,,,,,,,,,,,,,,,,,,,1013.220115008764,None,working,sing,blue,15,357,1011.2194675018545,None,None,1011.2194675018545,None,,,,,,,,,,,,,,,,,,,,,,,,,,,,,,,,,NC5,001,2019_Dec_03_1557,ProdSingRedo,3.2.4,59.9770194798855,
72,0,72,0,,,,,,,,,,,,,,,,,,,,,,,,,,,,1015.7375609953888,None,block,sing,blue,19,25,1013.7368914072867,None,None,1013.7368914072867,None,,,,,,,,,,,,,,,,,,,,,,,,,,,,,,,,,NC5,001,2019_Dec_03_1557,ProdSingRedo,3.2.4,59.9770194798855,
73,0,73,0,,,,,,,,,,,,,,,,,,,,,,,,,,,,1018.2549724609125,None,committee,aloud,red,49,62,1016.2543401930016,None,None,1016.2543401930016,None,,,,,,,,,,,,,,,,,,,,,,,,,,,,,,,,,NC5,001,2019_Dec_03_1557,ProdSingRedo,3.2.4,59.9770194798855,
74,0,74,0,,,,,,,,,,,,,,,,,,,,,,,,,,,,1020.7724327535834,None,tough,silent,yellow,74,333,1018.7717588115484,None,None,1018.7717588115484,None,,,,,,,,,,,,,,,,,,,,,,,,,,,,,,,,,NC5,001,2019_Dec_03_1557,ProdSingRedo,3.2.4,59.9770194798855,
75,0,75,0,,,,,,,,,,,,,,,,,,,,,,,,,,,,1023.2898417310789,None,candidate,silent,yellow,76,39,1021.2890971913002,None,None,1021.2890971913002,None,,,,,,,,,,,,,,,,,,,,,,,,,,,,,,,,,NC5,001,2019_Dec_03_1557,ProdSingRedo,3.2.4,59.9770194798855,
76,0,76,0,,,,,,,,,,,,,,,,,,,,,,,,,,,,1025.8073135309387,None,nation,aloud,red,45,198,1023.8065282499883,None,None,1023.8065282499883,None,,,,,,,,,,,,,,,,,,,,,,,,,,,,,,,,,NC5,001,2019_Dec_03_1557,ProdSingRedo,3.2.4,59.9770194798855,
77,0,77,0,,,,,,,,,,,,,,,,,,,,,,,,,,,,1028.3247800436802,None,husband,silent,yellow,82,156,1026.3239390933886,None,None,1026.3239390933886,None,,,,,,,,,,,,,,,,,,,,,,,,,,,,,,,,,NC5,001,2019_Dec_03_1557,ProdSingRedo,3.2.4,59.9770194798855,
78,0,78,0,,,,,,,,,,,,,,,,,,,,,,,,,,,,1030.8421849780716,None,month,silent,yellow,61,193,1028.8415303181391,None,None,1028.8415303181391,None,,,,,,,,,,,,,,,,,,,,,,,,,,,,,,,,,NC5,001,2019_Dec_03_1557,ProdSingRedo,3.2.4,59.9770194798855,
79,0,79,0,,,,,,,,,,,,,,,,,,,,,,,,,,,,1033.3596449599136,None,incident,aloud,red,31,158,1031.3589685298502,None,None,1031.3589685298502,None,,,,,,,,,,,,,,,,,,,,,,,,,,,,,,,,,NC5,001,2019_Dec_03_1557,ProdSingRedo,3.2.4,59.9770194798855,
80,0,80,0,,,,,,,,,,,,,,,,,,,,,,,,,,,,1035.877075707307,None,charter,sing,blue,3,47,1033.8764051862527,None,None,1033.8764051862527,None,,,,,,,,,,,,,,,,,,,,,,,,,,,,,,,,,NC5,001,2019_Dec_03_1557,ProdSingRedo,3.2.4,59.9770194798855,
81,0,81,0,,,,,,,,,,,,,,,,,,,,,,,,,,,,1038.3945164070465,None,recall,silent,yellow,86,255,1036.3938390440308,None,None,1036.3938390440308,None,,,,,,,,,,,,,,,,,,,,,,,,,,,,,,,,,NC5,001,2019_Dec_03_1557,ProdSingRedo,3.2.4,59.9770194798855,
82,0,82,0,,,,,,,,,,,,,,,,,,,,,,,,,,,,1040.9119452885352,None,session,sing,blue,2,281,1038.9112822315656,None,None,1038.9112822315656,None,,,,,,,,,,,,,,,,,,,,,,,,,,,,,,,,,NC5,001,2019_Dec_03_1557,ProdSingRedo,3.2.4,59.9770194798855,
83,0,83,0,,,,,,,,,,,,,,,,,,,,,,,,,,,,1043.4293937631883,None,impact,sing,blue,1,157,1041.4287384813651,None,None,1041.4287384813651,None,,,,,,,,,,,,,,,,,,,,,,,,,,,,,,,,,NC5,001,2019_Dec_03_1557,ProdSingRedo,3.2.4,59.9770194798855,
84,0,84,0,,,,,,,,,,,,,,,,,,,,,,,,,,,,1045.9468030515127,None,theme,aloud,red,41,326,1043.9461608317215,None,None,1043.9461608317215,None,,,,,,,,,,,,,,,,,,,,,,,,,,,,,,,,,NC5,001,2019_Dec_03_1557,ProdSingRedo,3.2.4,59.9770194798855,
85,0,85,0,,,,,,,,,,,,,,,,,,,,,,,,,,,,1048.4642521482892,None,population,silent,yellow,60,227,1046.4636046413798,None,None,1046.4636046413798,None,,,,,,,,,,,,,,,,,,,,,,,,,,,,,,,,,NC5,001,2019_Dec_03_1557,ProdSingRedo,3.2.4,59.9770194798855,
86,0,86,0,,,,,,,,,,,,,,,,,,,,,,,,,,,,1050.9816502407193,None,answer,aloud,red,37,8,1048.9810360111296,None,None,1048.9810360111296,None,,,,,,,,,,,,,,,,,,,,,,,,,,,,,,,,,NC5,001,2019_Dec_03_1557,ProdSingRedo,3.2.4,59.9770194798855,
87,0,87,0,,,,,,,,,,,,,,,,,,,,,,,,,,,,1053.4991267055739,None,evidence,sing,blue,22,120,1051.498326185625,None,None,1051.498326185625,None,,,,,,,,,,,,,,,,,,,,,,,,,,,,,,,,,NC5,001,2019_Dec_03_1557,ProdSingRedo,3.2.4,59.9770194798855,
88,0,88,0,,,,,,,,,,,,,,,,,,,,,,,,,,,,1056.0165919743013,None,medicine,silent,yellow,87,186,1054.015786478296,None,None,1054.015786478296,None,,,,,,,,,,,,,,,,,,,,,,,,,,,,,,,,,NC5,001,2019_Dec_03_1557,ProdSingRedo,3.2.4,59.9770194798855,
89,0,89,0,,,,,,,,,,,,,,,,,,,,,,,,,,,,1058.5340025066398,None,appeal,sing,blue,25,9,1056.533349712845,None,None,1056.533349712845,None,,,,,,,,,,,,,,,,,,,,,,,,,,,,,,,,,NC5,001,2019_Dec_03_1557,ProdSingRedo,3.2.4,59.9770194798855,
,,,,,,,,,,,,,,,,,,,,,,,,,,,,,,,,,,,,,,,,,,,1059.034168581944,None,k,114.89453257899731,1059.034168581944,None,,,,,,,,,,,,,,,,,,,,,,,,,,,NC5,001,2019_Dec_03_1557,ProdSingRedo,3.2.4,59.9770194798855,
,,,,0,0,0,0,,,,,,,,,,,,,,,,,,,,,,,,1186.1730939445551,None,,,,,,,,,,,,,,,,,answer,aloud,white,0,37,8,1174.4717522806022,None,1174.4717522806022,None,6,8.560368351172656,1174.4717522806022,None,1183.0740586738102,None,1183.6055234014057,None,1183.6055234014057,None,r,2.5223022878635675,1183.6055234014057,None,,,NC5,001,2019_Dec_03_1557,ProdSingRedo,3.2.4,59.9770194798855,
,,,,1,0,1,0,,,,,,,,,,,,,,,,,,,,,,,,1191.691467651166,None,,,,,,,,,,,,,,,,,sunset,silent,white,1,79,315,1186.6897773535457,None,1186.6897773535457,None,6,3.2778379740193486,1186.6897773535457,None,1190.0108844595961,None,1190.524429854937,None,1190.524429854937,None,f,1.1234032365027815,1190.524429854937,None,,,NC5,001,2019_Dec_03_1557,ProdSingRedo,3.2.4,59.9770194798855,
,,,,2,0,2,0,,,,,,,,,,,,,,,,,,,,,,,,1197.7599590721074,None,,,,,,,,,,,,,,,,,detective,sing,white,2,5,92,1192.2110754151363,None,1192.2110754151363,None,6,3.0442817555740476,1192.2110754151363,None,1195.3091254304163,None,1195.8092296163086,None,1195.8092296163086,None,r,1.917881390079856,1195.8092296163086,None,,,NC5,001,2019_Dec_03_1557,ProdSingRedo,3.2.4,59.9770194798855,
,,,,3,0,3,0,,,,,,,,,,,,,,,,,,,,,,,,1203.5950995364692,None,,,,,,,,,,,,,,,,,primary,sing,white,3,21,234,1198.276662385324,None,1198.276662385324,None,4,2.594358417671174,1198.276662385324,None,1200.9159211423248,None,1201.4276210500393,None,1201.4276210500393,None,f,2.1312162368558347,1201.4276210500393,None,,,NC5,001,2019_Dec_03_1557,ProdSingRedo,3.2.4,59.9770194798855,
,,,,4,0,4,0,,,,,,,,,,,,,,,,,,,,,,,,1208.396596701583,None,,,,,,,,,,,,,,,,,dream,new_a,white,4,119,104,1204.1118868200574,None,1204.1118868200574,None,5,2.7910350470338017,1204.1118868200574,None,1206.946517240489,None,1207.4629381634295,None,1207.4629381634295,None,f,0.8955430255737156,1207.4629381634295,None,,,NC5,001,2019_Dec_03_1557,ProdSingRedo,3.2.4,59.9770194798855,
,,,,5,0,5,0,,,,,,,,,,,,,,,,,,,,,,,,1214.5818153829314,None,,,,,,,,,,,,,,,,,voice,silent,white,5,73,348,1208.9133951812983,None,1208.9133951812983,None,6,3.3891230046283454,1208.9133951812983,None,1212.3492870272603,None,1212.8646129111294,None,1212.8646129111294,None,r,1.6694776094518602,1212.8646129111294,None,,,NC5,001,2019_Dec_03_1557,ProdSingRedo,3.2.4,59.9770194798855,
,,,,6,0,6,0,,,,,,,,,,,,,,,,,,,,,,,,1220.8335922947153,None,,,,,,,,,,,,,,,,,pancakes,sing,white,6,27,210,1215.101002671523,None,1215.101002671523,None,6,2.752940993523225,1215.101002671523,None,1217.9027564136777,None,1218.4163385075517,None,1218.4163385075517,None,r,2.381441246950999,1218.4163385075517,None,,,NC5,001,2019_Dec_03_1557,ProdSingRedo,3.2.4,59.9770194798855,
,,,,7,0,7,0,,,,,,,,,,,,,,,,,,,,,,,,1229.5363132541534,None,,,,,,,,,,,,,,,,,school,new_b,white,7,124,274,1221.3505524958018,None,1221.3505524958018,None,1,4.61484320810996,1221.3505524958018,None,1226.0048404403497,None,1226.5187811197247,None,1226.5187811197247,None,n,2.9824681766331196,1226.5187811197247,None,,,NC5,001,2019_Dec_03_1557,ProdSingRedo,3.2.4,59.9770194798855,
,,,,8,0,8,0,,,,,,,,,,,,,,,,,,,,,,,,1234.9547295679804,None,,,,,,,,,,,,,,,,,block,sing,white,8,19,25,1230.0550132021308,None,1230.0550132021308,None,1,3.2779816570691764,1230.0550132021308,None,1233.3748722558375,None,1233.8875962942839,None,1233.8875962942839,None,n,1.029316945699975,1233.8875962942839,None,,,NC5,001,2019_Dec_03_1557,ProdSingRedo,3.2.4,59.9770194798855,
,,,,9,0,9,0,,,,,,,,,,,,,,,,,,,,,,,,1238.405744524207,None,,,,,,,,,,,,,,,,,appeal,sing,white,9,25,9,1235.4713809436653,None,1235.4713809436653,None,1,1.3814306727144867,1235.4713809436653,None,1236.8885190379806,None,1237.4053312020842,None,1237.4053312020842,None,n,0.9593233834020793,1237.4053312020842,None,,,NC5,001,2019_Dec_03_1557,ProdSingRedo,3.2.4,59.9770194798855,
,,,,10,0,10,0,,,,,,,,,,,,,,,,,,,,,,,,1241.5400561671704,None,,,,,,,,,,,,,,,,,color,aloud,white,10,53,56,1238.9224618324079,None,1238.9224618324079,None,1,1.5461188463959843,1238.9224618324079,None,1240.5098873861134,None,1241.0232517782133,None,1241.0232517782133,None,n,0.4772688397206366,1241.0232517782133,None,,,NC5,001,2019_Dec_03_1557,ProdSingRedo,3.2.4,59.9770194798855,
,,,,11,0,11,0,,,,,,,,,,,,,,,,,,,,,,,,1244.1908714596648,None,,,,,,,,,,,,,,,,,literature,new_b,white,11,132,173,1242.0568764170166,None,1242.0568764170166,None,1,1.2194566167891026,1242.0568764170166,None,1243.3283438193612,None,1243.8406221913174,None,1243.8406221913174,None,n,0.3157622201833874,1243.8406221913174,None,,,NC5,001,2019_Dec_03_1557,ProdSingRedo,3.2.4,59.9770194798855,
,,,,12,0,12,0,,,,,,,,,,,,,,,,,,,,,,,,1246.391436550999,None,,,,,,,,,,,,,,,,,route,new_b,white,12,129,267,1244.7075383856427,None,1244.7075383856427,None,1,0.664713675621897,1244.7075383856427,None,1245.4077756803017,None,1245.9247072690632,None,1245.9247072690632,None,n,0.4237173486035317,1245.9247072690632,None,,,NC5,001,2019_Dec_03_1557,ProdSingRedo,3.2.4,59.9770194798855,
,,,,13,0,13,0,,,,,,,,,,,,,,,,,,,,,,,,1250.1260218759999,None,,,,,,,,,,,,,,,,,center,new_c,white,13,171,44,1246.9082536909264,None,1246.9082536909264,None,1,2.311796940397471,1246.9082536909264,None,1249.2628703650553,None,1249.7759190897923,None,1249.7759190897923,None,n,0.30826177704147995,1249.7759190897923,None,,,NC5,001,2019_Dec_03_1557,ProdSingRedo,3.2.4,59.9770194798855,
,,,,14,0,14,0,,,,,,,,,,,,,,,,,,,,,,,,1252.6933594783768,None,,,,,,,,,,,,,,,,,partner,new_a,white,14,113,211,1250.642849279102,None,1250.642849279102,None,1,1.129028024384752,1250.642849279102,None,1251.8137155137956,None,1252.3266637846828,None,1252.3266637846828,None,n,0.3332654309924692,1252.3266637846828,None,,,NC5,001,2019_Dec_03_1557,ProdSingRedo,3.2.4,59.9770194798855,
,,,,15,0,15,0,,,,,,,,,,,,,,,,,,,,,,,,1255.4109780713916,None,,,,,,,,,,,,,,,,,salary,new_b,white,15,143,271,1253.2102394406684,None,1253.2102394406684,None,1,0.9615081746596843,1253.2102394406684,None,1254.2173131888267,None,1254.7272845455445,None,1254.7272845455445,None,n,0.6363191630225629,1254.7272845455445,None,,,NC5,001,2019_Dec_03_1557,ProdSingRedo,3.2.4,59.9770194798855,
,,,,16,0,16,0,,,,,,,,,,,,,,,,,,,,,,,,1257.8617168574128,None,,,,,,,,,,,,,,,,,burden,sing,white,16,26,36,1255.9287642946001,None,1255.9287642946001,None,1,0.6828348485287279,1255.9287642946001,None,1256.661318774335,None,1257.1613809748087,None,1257.1613809748087,None,n,0.6662587353494018,1257.1613809748087,None,,,NC5,001,2019_Dec_03_1557,ProdSingRedo,3.2.4,59.9770194798855,
,,,,17,0,17,0,,,,,,,,,,,,,,,,,,,,,,,,1261.8796187734697,None,,,,,,,,,,,,,,,,,budget,aloud,white,17,59,34,1258.3785619875416,None,1258.3785619875416,None,6,2.0808139552827924,1258.3785619875416,None,1260.4970610281453,None,1261.0126898281742,None,1261.0126898281742,None,r,0.8305264336522669,1261.0126898281742,None,,,NC5,001,2019_Dec_03_1557,ProdSingRedo,3.2.4,59.9770194798855,
,,,,18,0,18,0,,,,,,,,,,,,,,,,,,,,,,,,1264.5136464713141,None,,,,,,,,,,,,,,,,,vision,new_a,white,18,115,347,1262.3964611045085,None,1262.3964611045085,None,6,1.2230132394470274,1262.3964611045085,None,1263.6697544015478,None,1264.1801922617014,None,1264.1801922617014,None,r,0.2949306620284915,1264.1801922617014,None,,,NC5,001,2019_Dec_03_1557,ProdSingRedo,3.2.4,59.9770194798855,
,,,,19,0,19,0,,,,,,,,,,,,,,,,,,,,,,,,1268.1148009118624,None,,,,,,,,,,,,,,,,,breath,new_c,white,19,151,27,1265.030653633643,None,1265.030653633643,None,1,2.0764736069831997,1265.030653633643,None,1267.1517159554642,None,1267.6645746577997,None,1267.6645746577997,None,n,0.4103203013073653,1267.6645746577997,None,,,NC5,001,2019_Dec_03_1557,ProdSingRedo,3.2.4,59.9770194798855,
,,,,20,0,20,0,,,,,,,,,,,,,,,,,,,,,,,,1272.382862216793,None,,,,,,,,,,,,,,,,,command,new_c,white,20,160,60,1268.6316846064292,None,1268.6316846064292,None,4,2.515005862340331,1268.6316846064292,None,1271.186560345348,None,1271.6993229479995,None,1271.6993229479995,None,n,0.6472275697160512,1271.6993229479995,None,,,NC5,001,2019_Dec_03_1557,ProdSingRedo,3.2.4,59.9770194798855,
,,,,21,0,21,0,,,,,,,,,,,,,,,,,,,,,,,,1275.8672629618086,None,,,,,,,,,,,,,,,,,empty,new_a,white,21,101,112,1272.8996675384697,None,1272.8996675384697,None,4,1.6707505420781672,1272.8996675384697,None,1274.620516201714,None,1275.133529161103,None,1275.133529161103,None,n,0.6848902627825737,1275.133529161103,None,,,NC5,001,2019_Dec_03_1557,ProdSingRedo,3.2.4,59.9770194798855,
,,,,22,0,22,0,,,,,,,,,,,,,,,,,,,,,,,,1278.2845478493255,None,,,,,,,,,,,,,,,,,ground,new_c,white,22,157,142,1276.3839625429828,None,1276.3839625429828,None,4,1.0023166565224528,1276.3839625429828,None,1277.4376064017415,None,1277.9512292367872,None,1277.9512292367872,None,n,0.29916526982560754,1277.9512292367872,None,,,NC5,001,2019_Dec_03_1557,ProdSingRedo,3.2.4,59.9770194798855,
,,,,23,0,23,0,,,,,,,,,,,,,,,,,,,,,,,,1280.0185276528355,None,,,,,,,,,,,,,,,,,threat,new_b,white,23,135,329,1278.8015049402602,None,1278.8015049402602,None,4,0.5606196410953999,1278.8015049402602,None,1279.404472524533,None,1279.9185096146539,None,1279.9185096146539,None,n,0.0595868022646755,1279.9185096146539,None,,,NC5,001,2019_Dec_03_1557,ProdSingRedo,3.2.4,59.9770194798855,
,,,,24,0,24,0,,,,,,,,,,,,,,,,,,,,,,,,1282.1525261164643,None,,,,,,,,,,,,,,,,,bright,sing,white,24,29,29,1280.5352017318364,None,1280.5352017318364,None,4,0.6268734002951533,1280.5352017318364,None,1281.218761215685,None,1281.719047959661,None,1281.719047959661,None,n,0.3868890746962279,1281.719047959661,None,,,NC5,001,2019_Dec_03_1557,ProdSingRedo,3.2.4,59.9770194798855,
,,,,25,0,25,0,,,,,,,,,,,,,,,,,,,,,,,,1283.9529649408069,None,,,,,,,,,,,,,,,,,capital,new_c,white,25,159,40,1282.669348232448,None,1282.669348232448,None,4,0.636543084634468,1282.669348232448,None,1283.3527326220647,None,1283.86970153125,None,1283.86970153125,None,n,0.04423634917475283,1283.86970153125,None,,,NC5,001,2019_Dec_03_1557,ProdSingRedo,3.2.4,59.9770194798855,
,,,,26,0,26,0,,,,,,,,,,,,,,,,,,,,,,,,1287.387478735298,None,,,,,,,,,,,,,,,,,month,silent,white,26,61,193,1284.469888443593,None,1284.469888443593,None,6,1.3319358960725367,1284.469888443593,None,1285.839330598712,None,1286.3538068241905,None,1286.3538068241905,None,r,1.000026746187359,1286.3538068241905,None,,,NC5,001,2019_Dec_03_1557,ProdSingRedo,3.2.4,59.9770194798855,
,,,,27,0,27,0,,,,,,,,,,,,,,,,,,,,,,,,1291.1218093493953,None,,,,,,,,,,,,,,,,,foundation,sing,white,27,20,132,1287.904131354997,None,1287.904131354997,None,6,2.3134138414170593,1287.904131354997,None,1290.2553058553021,None,1290.7718542893417,None,1290.7718542893417,None,r,0.3176260571926832,1290.7718542893417,None,,,NC5,001,2019_Dec_03_1557,ProdSingRedo,3.2.4,59.9770194798855,
,,,,28,0,28,0,,,,,,,,,,,,,,,,,,,,,,,,1293.8394434924703,None,,,,,,,,,,,,,,,,,benefit,silent,white,28,77,20,1291.6395392811392,None,1291.6395392811392,None,6,1.2579835853539407,1291.6395392811392,None,1292.9556983402,None,1293.4558239851613,None,1293.4558239851613,None,r,0.3374092262238264,1293.4558239851613,None,,,NC5,001,2019_Dec_03_1557,ProdSingRedo,3.2.4,59.9770194798855,
,,,,29,0,29,0,,,,,,,,,,,,,,,,,,,,,,,,1296.1234579726588,None,,,,,,,,,,,,,,,,,provision,new_b,white,29,140,243,1294.357204835629,None,1294.357204835629,None,6,0.8760804997291416,1294.357204835629,None,1295.2897465643473,None,1295.7900364184752,None,1295.7900364184752,None,r,0.2992302691563964,1295.7900364184752,None,,,NC5,001,2019_Dec_03_1557,ProdSingRedo,3.2.4,59.9770194798855,
,,,,30,0,30,0,,,,,,,,,,,,,,,,,,,,,,,,1298.9242165074684,None,,,,,,,,,,,,,,,,,broad,aloud,white,30,46,31,1296.6401426256634,None,1296.6401426256634,None,6,1.3368543980177492,1296.6401426256634,None,1298.0259997947142,None,1298.5408678832464,None,1298.5408678832464,None,r,0.34038240858353674,1298.5408678832464,None,,,NC5,001,2019_Dec_03_1557,ProdSingRedo,3.2.4,59.9770194798855,
,,,,31,0,31,0,,,,,,,,,,,,,,,,,,,,,,,,1301.5751509140246,None,,,,,,,,,,,,,,,,,hunger,new_c,white,31,156,155,1299.4411670675036,None,1299.4411670675036,None,6,1.3919416186399758,1299.4411670675036,None,1300.8752656737342,None,1301.3917559504043,None,1301.3917559504043,None,r,0.14509782567620277,1301.3917559504043,None,,,NC5,001,2019_Dec_03_1557,ProdSingRedo,3.2.4,59.9770194798855,
,,,,32,0,32,0,,,,,,,,,,,,,,,,,,,,,,,,1304.9428324848413,None,,,,,,,,,,,,,,,,,curve,new_c,white,32,158,82,1302.0926149387378,None,1302.0926149387378,None,1,1.9001206688117236,1302.0926149387378,None,1304.042542008683,None,1304.5427018639166,None,1304.5427018639166,None,n,0.35385689535178244,1304.5427018639166,None,,,NC5,001,2019_Dec_03_1557,ProdSingRedo,3.2.4,59.9770194798855,
,,,,33,0,33,0,,,,,,,,,,,,,,,,,,,,,,,,1307.4269396439195,None,,,,,,,,,,,,,,,,,south,silent,white,33,66,296,1305.4594910135493,None,1305.4594910135493,None,1,0.5894218778703362,1305.4594910135493,None,1306.0930245288182,None,1306.6100211171433,None,1306.6100211171433,None,n,0.7746785013005137,1306.6100211171433,None,,,NC5,001,2019_Dec_03_1557,ProdSingRedo,3.2.4,59.9770194798855,
,,,,34,0,34,0,,,,,,,,,,,,,,,,,,,,,,,,1312.37841799343,None,,,,,,,,,,,,,,,,,population,silent,white,34,60,227,1307.9435931965709,None,1307.9435931965709,None,1,0.7688210834749043,1307.9435931965709,None,1308.7605701917782,None,1309.2774877855554,None,1309.2774877855554,None,r,3.0588820709381253,1309.2774877855554,None,,,NC5,001,2019_Dec_03_1557,ProdSingRedo,3.2.4,59.9770194798855,
,,,,35,0,35,0,,,,,,,,,,,,,,,,,,,,,,,,1315.3793758805841,None,,,,,,,,,,,,,,,,,evidence,sing,white,35,22,120,1312.8963074693456,None,1312.8963074693456,None,6,1.575756435515359,1312.8963074693456,None,1314.5290087424219,None,1315.0291947217193,None,1315.0291947217193,None,r,0.31475332868285477,1315.0291947217193,None,,,NC5,001,2019_Dec_03_1557,ProdSingRedo,3.2.4,59.9770194798855,
,,,,36,0,36,0,,,,,,,,,,,,,,,,,,,,,,,,1318.7303547605406,None,,,,,,,,,,,,,,,,,youth,silent,white,36,64,359,1315.896425961284,None,1315.896425961284,None,5,1.6314728136640042,1315.896425961284,None,1317.570001959335,None,1318.0802196299192,None,1318.0802196299192,None,f,0.607729340903461,1318.0802196299192,None,,,NC5,001,2019_Dec_03_1557,ProdSingRedo,3.2.4,59.9770194798855,
,,,,37,0,37,0,,,,,,,,,,,,,,,,,,,,,,,,1322.88168196287,None,,,,,,,,,,,,,,,,,spoke,new_c,white,37,166,300,1319.248117036419,None,1319.248117036419,None,5,2.6714770433027297,1319.248117036419,None,1321.967737551313,None,1322.4815482317936,None,1322.4815482317936,None,f,0.3661029231734574,1322.4815482317936,None,,,NC5,001,2019_Dec_03_1557,ProdSingRedo,3.2.4,59.9770194798855,
,,,,38,0,38,0,,,,,,,,,,,,,,,,,,,,,,,,1326.666081463918,None,,,,,,,,,,,,,,,,,running,new_c,white,38,179,268,1323.39830752532,None,1323.39830752532,None,1,2.3850479410029948,1323.39830752532,None,1325.8202897920273,None,1326.332706560148,None,1326.332706560148,None,n,0.2908263641875237,1326.332706560148,None,,,NC5,001,2019_Dec_03_1557,ProdSingRedo,3.2.4,59.9770194798855,
,,,,39,0,39,0,,,,,,,,,,,,,,,,,,,,,,,,1330.9841572304722,None,,,,,,,,,,,,,,,,,education,new_b,white,39,137,108,1327.1828233413398,None,1327.1828233413398,None,5,2.4003980830311775,1327.1828233413398,None,1329.622060639318,None,1330.13389489986,None,1330.13389489986,None,r,0.8010698480065912,1330.13389489986,None,,,NC5,001,2019_Dec_03_1557,ProdSingRedo,3.2.4,59.9770194798855,
,,,,40,0,40,0,,,,,,,,,,,,,,,,,,,,,,,,1333.651653132867,None,,,,,,,,,,,,,,,,,light,new_b,white,40,134,171,1331.500823223265,None,1331.500823223265,None,4,1.3860506126657128,1331.500823223265,None,1332.9366827248596,None,1333.4515772482846,None,1333.4515772482846,None,f,0.1556006856262684,1333.4515772482846,None,,,NC5,001,2019_Dec_03_1557,ProdSingRedo,3.2.4,59.9770194798855,
,,,,41,0,41,0,,,,,,,,,,,,,,,,,,,,,,,,1338.5196876914706,None,,,,,,,,,,,,,,,,,revolution,sing,white,41,28,264,1334.1686761565506,None,1334.1686761565506,None,6,1.8380131926387548,1334.1686761565506,None,1336.0689367763698,None,1336.5691373730078,None,1336.5691373730078,None,r,1.9174951249733567,1336.5691373730078,None,,,NC5,001,2019_Dec_03_1557,ProdSingRedo,3.2.4,59.9770194798855,
,,,,42,0,42,0,,,,,,,,,,,,,,,,,,,,,,,,1341.854168830905,None,,,,,,,,,,,,,,,,,author,sing,white,42,18,15,1339.0366317203734,None,1339.0366317203734,None,6,1.7697379181627184,1339.0366317203734,None,1340.855350639671,None,1341.3706609732471,None,1341.3706609732471,None,r,0.4437200853135437,1341.3706609732471,None,,,NC5,001,2019_Dec_03_1557,ProdSingRedo,3.2.4,59.9770194798855,
,,,,43,0,43,0,,,,,,,,,,,,,,,,,,,,,,,,1344.4216208821163,None,,,,,,,,,,,,,,,,,enemy,new_a,white,43,108,113,1342.370910397265,None,1342.370910397265,None,4,1.1713019490707666,1342.370910397265,None,1343.5896644596942,None,1344.1048482153565,None,1344.1048482153565,None,f,0.2693115340080112,1344.1048482153565,None,,,NC5,001,2019_Dec_03_1557,ProdSingRedo,3.2.4,59.9770194798855,
,,,,44,0,44,0,,,,,,,,,,,,,,,,,,,,,,,,1347.8226409696508,None,,,,,,,,,,,,,,,,,balance,new_b,white,44,127,17,1344.9382660377305,None,1344.9382660377305,None,3,1.8437633148860186,1344.9382660377305,None,1346.827268684283,None,1347.3390255053528,None,1347.3390255053528,None,f,0.4510059370659292,1347.3390255053528,None,,,NC5,001,2019_Dec_03_1557,ProdSingRedo,3.2.4,59.9770194798855,
,,,,45,0,45,0,,,,,,,,,,,,,,,,,,,,,,,,1350.806885902537,None,,,,,,,,,,,,,,,,,exchange,new_c,white,45,163,121,1348.3394556215499,None,1348.3394556215499,None,3,1.4906472268048674,1348.3394556215499,None,1349.8772237445228,None,1350.3901185230352,None,1350.3901185230352,None,f,0.3756273693870753,1350.3901185230352,None,,,NC5,001,2019_Dec_03_1557,ProdSingRedo,3.2.4,59.9770194798855,
,,,,46,0,46,0,,,,,,,,,,,,,,,,,,,,,,,,1353.7411334791686,None,,,,,,,,,,,,,,,,,series,new_c,white,46,176,279,1351.3235749097075,None,1351.3235749097075,None,3,1.2502710386179388,1351.3235749097075,None,1352.6103330524638,None,1353.1241850962397,None,1353.1241850962397,None,n,0.5774918284732848,1353.1241850962397,None,,,NC5,001,2019_Dec_03_1557,ProdSingRedo,3.2.4,59.9770194798855,
,,,,47,0,47,0,,,,,,,,,,,,,,,,,,,,,,,,1359.242683203658,None,,,,,,,,,,,,,,,,,concern,aloud,white,47,54,65,1354.257924495032,None,1354.257924495032,None,5,3.7154944469220936,1354.257924495032,None,1358.0130760930479,None,1358.525944125373,None,1358.525944125373,None,n,0.6713134560268372,1358.525944125373,None,,,NC5,001,2019_Dec_03_1557,ProdSingRedo,3.2.4,59.9770194798855,
,,,,48,0,48,0,,,,,,,,,,,,,,,,,,,,,,,,1361.9603021077346,None,,,,,,,,,,,,,,,,,union,sing,white,48,24,344,1359.759532376891,None,1359.759532376891,None,6,1.1578868634533137,1359.759532376891,None,1360.9599205078557,None,1361.4768297045957,None,1361.4768297045957,None,r,0.448337848065421,1361.4768297045957,None,,,NC5,001,2019_Dec_03_1557,ProdSingRedo,3.2.4,59.9770194798855,
,,,,49,0,49,0,,,,,,,,,,,,,,,,,,,,,,,,1366.0449202435557,None,,,,,,,,,,,,,,,,,victory,sing,white,49,8,346,1362.479165642988,None,1362.479165642988,None,3,2.5900162030011415,1362.479165642988,None,1365.1278925549705,None,1365.628043702105,None,1365.628043702105,None,n,0.37685396266169846,1365.628043702105,None,,,NC5,001,2019_Dec_03_1557,ProdSingRedo,3.2.4,59.9770194798855,
,,,,50,0,50,0,,,,,,,,,,,,,,,,,,,,,,,,1368.4789902376942,None,,,,,,,,,,,,,,,,,stranger,new_b,white,50,130,309,1366.5615632222034,None,1366.5615632222034,None,3,1.1555773604195565,1366.5615632222034,None,1367.764729536837,None,1368.2788390906062,None,1368.2788390906062,None,n,0.15806817775592208,1368.2788390906062,None,,,NC5,001,2019_Dec_03_1557,ProdSingRedo,3.2.4,59.9770194798855,
,,,,51,0,51,0,,,,,,,,,,,,,,,,,,,,,,,,1371.5130991071928,None,,,,,,,,,,,,,,,,,drama,silent,white,51,84,103,1368.99566338351,None,1368.99566338351,None,3,1.0252017627935857,1368.99566338351,None,1370.0660746218637,None,1370.5796380555257,None,1370.5796380555257,None,n,0.8892427403479815,1370.5796380555257,None,,,NC5,001,2019_Dec_03_1557,ProdSingRedo,3.2.4,59.9770194798855,
,,,,52,0,52,0,,,,,,,,,,,,,,,,,,,,,,,,1374.3640922931954,None,,,,,,,,,,,,,,,,,company,silent,white,52,75,64,1372.0299234001432,None,1372.0299234001432,None,6,1.4305332757066935,1372.0299234001432,None,1373.49850843288,None,1374.0140457982197,None,1374.0140457982197,None,r,0.3023480677511543,1374.0140457982197,None,,,NC5,001,2019_Dec_03_1557,ProdSingRedo,3.2.4,59.9770194798855,
,,,,53,0,53,0,,,,,,,,,,,,,,,,,,,,,,,,1376.8481935430318,None,,,,,,,,,,,,,,,,,figure,aloud,white,53,48,128,1374.8809601264074,None,1374.8809601264074,None,6,1.1235680675599724,1374.8809601264074,None,1376.0477575177792,None,1376.5647988903802,None,1376.5647988903802,None,r,0.24745149142108858,1376.5647988903802,None,,,NC5,001,2019_Dec_03_1557,ProdSingRedo,3.2.4,59.9770194798855,
,,,,54,0,54,0,,,,,,,,,,,,,,,,,,,,,,,,1379.682279398432,None,,,,,,,,,,,,,,,,,tennis,new_b,white,54,122,323,1377.364897478139,None,1377.364897478139,None,4,1.4074799169320613,1377.364897478139,None,1378.8189220037311,None,1379.3489884650335,None,1379.3489884650335,None,n,0.2870084997266531,1379.3489884650335,None,,,NC5,001,2019_Dec_03_1557,ProdSingRedo,3.2.4,59.9770194798855,
,,,,55,0,55,0,,,,,,,,,,,,,,,,,,,,,,,,1382.3831029324792,None,,,,,,,,,,,,,,,,,present,silent,white,55,83,231,1380.1992377333809,None,1380.1992377333809,None,5,1.540884055197239,1380.1992377333809,None,1381.7870013467036,None,1382.2999203833751,None,1382.2999203833751,None,n,0.04023903631605208,1382.2999203833751,None,,,NC5,001,2019_Dec_03_1557,ProdSingRedo,3.2.4,59.9770194798855,
,,,,56,0,56,0,,,,,,,,,,,,,,,,,,,,,,,,1385.9175321343355,None,,,,,,,,,,,,,,,,,council,silent,white,56,78,71,1382.9000622006133,None,1382.9000622006133,None,4,1.9356302928645164,1382.9000622006133,None,1384.8875340938102,None,1385.400838462403,None,1385.400838462403,None,n,0.48294898634776473,1385.400838462403,None,,,NC5,001,2019_Dec_03_1557,ProdSingRedo,3.2.4,59.9770194798855,
,,,,57,0,57,0,,,,,,,,,,,,,,,,,,,,,,,,1388.2015686957166,None,,,,,,,,,,,,,,,,,thick,new_b,white,57,149,327,1386.4344229819253,None,1386.4344229819253,None,4,1.1531089346390218,1386.4344229819253,None,1387.6412367320154,None,1388.1516764580738,None,1388.1516764580738,None,n,0.0037758792750537395,1388.1516764580738,None,,,NC5,001,2019_Dec_03_1557,ProdSingRedo,3.2.4,59.9770194798855,
,,,,58,0,58,0,,,,,,,,,,,,,,,,,,,,,,,,1390.9524449449964,None,,,,,,,,,,,,,,,,,charter,sing,white,58,3,47,1388.718510236824,None,1388.718510236824,None,6,1.309058564947918,1388.718510236824,None,1390.071858954383,None,1390.5857532944065,None,1390.5857532944065,None,r,0.32963852211833,1390.5857532944065,None,,,NC5,001,2019_Dec_03_1557,ProdSingRedo,3.2.4,59.9770194798855,
,,,,59,0,59,0,,,,,,,,,,,,,,,,,,,,,,,,1393.6532541729975,None,,,,,,,,,,,,,,,,,straight,aloud,white,59,51,307,1391.4692291186657,None,1391.4692291186657,None,5,1.3903841190040112,1391.4692291186657,None,1392.904664723901,None,1393.419979411643,None,1393.419979411643,None,n,0.19939727731980383,1393.419979411643,None,,,NC5,001,2019_Dec_03_1557,ProdSingRedo,3.2.4,59.9770194798855,
,,,,60,0,60,0,,,,,,,,,,,,,,,,,,,,,,,,1395.4372440839652,None,,,,,,,,,,,,,,,,,career,new_a,white,60,94,42,1394.1701832737308,None,1394.1701832737308,None,4,0.6251199692487717,1394.1701832737308,None,1394.84006332024,None,1395.3538945268374,None,1395.3538945268374,None,n,0.04929760121740401,1395.3538945268374,None,,,NC5,001,2019_Dec_03_1557,ProdSingRedo,3.2.4,59.9770194798855,
,,,,61,0,61,0,,,,,,,,,,,,,,,,,,,,,,,,1397.4712042943574,None,,,,,,,,,,,,,,,,,rough,new_b,white,61,146,266,1395.9540612238925,None,1395.9540612238925,None,4,0.8009616190101951,1395.9540612238925,None,1396.7910689462442,None,1397.3044830986764,None,1397.3044830986764,None,n,0.13042224780656397,1397.3044830986764,None,,,NC5,001,2019_Dec_03_1557,ProdSingRedo,3.2.4,59.9770194798855,
,,,,62,0,62,0,,,,,,,,,,,,,,,,,,,,,,,,1399.1715980232693,None,,,,,,,,,,,,,,,,,style,new_b,white,62,123,311,1397.9891758749727,None,1397.9891758749727,None,4,0.5337680110242218,1397.9891758749727,None,1398.575124478666,None,1399.0882456670515,None,1399.0882456670515,None,n,0.050569911720231175,1399.0882456670515,None,,,NC5,001,2019_Dec_03_1557,ProdSingRedo,3.2.4,59.9770194798855,
,,,,63,0,63,0,,,,,,,,,,,,,,,,,,,,,,,,1400.9055989750195,None,,,,,,,,,,,,,,,,,worker,new_a,white,63,107,356,1399.6883912160993,None,1399.6883912160993,None,4,0.5067254253663123,1399.6883912160993,None,1400.2552610710263,None,1400.7555459490977,None,1400.7555459490977,None,n,0.1031622716691345,1400.7555459490977,None,,,NC5,001,2019_Dec_03_1557,ProdSingRedo,3.2.4,59.9770194798855,
,,,,64,0,64,0,,,,,,,,,,,,,,,,,,,,,,,,1403.1062545678578,None,,,,,,,,,,,,,,,,,sleep,silent,white,64,72,290,1401.4222640348598,None,1401.4222640348598,None,4,0.4683953213971108,1401.4222640348598,None,1401.9391004568897,None,1402.4560357776936,None,1402.4560357776936,None,n,0.6025402669329196,1402.4560357776936,None,,,NC5,001,2019_Dec_03_1557,ProdSingRedo,3.2.4,59.9770194798855,
,,,,65,0,65,0,,,,,,,,,,,,,,,,,,,,,,,,1405.1902363928966,None,,,,,,,,,,,,,,,,,background,new_c,white,65,178,16,1403.6276717432775,None,1403.6276717432775,None,4,0.7428281309548765,1403.6276717432775,None,1404.423219122924,None,1404.9234309154563,None,1404.9234309154563,None,n,0.22342282929457724,1404.9234309154563,None,,,NC5,001,2019_Dec_03_1557,ProdSingRedo,3.2.4,59.9770194798855,
,,,,66,0,66,0,,,,,,,,,,,,,,,,,,,,,,,,1406.9240815325174,None,,,,,,,,,,,,,,,,,second,new_a,white,66,112,278,1405.7068815485109,None,1405.7068815485109,None,4,0.39969490678049624,1405.7068815485109,None,1406.1440786712337,None,1406.6573497625068,None,1406.6573497625068,None,n,0.2252334849908948,1406.6573497625068,None,,,NC5,001,2019_Dec_03_1557,ProdSingRedo,3.2.4,59.9770194798855,
,,,,67,0,67,0,,,,,,,,,,,,,,,,,,,,,,,,1408.6579397339374,None,,,,,,,,,,,,,,,,,theme,aloud,white,67,41,326,1407.4409363036975,None,1407.4409363036975,None,4,0.36934916535392404,1407.4409363036975,None,1407.860642655287,None,1408.3745506794658,None,1408.3745506794658,None,n,0.23568565119057894,1408.3745506794658,None,,,NC5,001,2019_Dec_03_1557,ProdSingRedo,3.2.4,59.9770194798855,
,,,,68,0,68,0,,,,,,,,,,,,,,,,,,,,,,,,1410.3751478039194,None,,,,,,,,,,,,,,,,,welcome,new_a,white,68,96,354,1409.174805079354,None,1409.174805079354,None,4,0.5475180458743125,1409.174805079354,None,1409.7608261466958,None,1410.275113593787,None,1410.275113593787,None,n,0.05526386993005872,1410.275113593787,None,,,NC5,001,2019_Dec_03_1557,ProdSingRedo,3.2.4,59.9770194798855,
,,,,69,0,69,0,,,,,,,,,,,,,,,,,,,,,,,,1412.058988433797,None,,,,,,,,,,,,,,,,,column,new_b,white,69,144,57,1410.8919683648273,None,1410.8919683648273,None,4,0.5021574231795967,1410.8919683648273,None,1411.4421999061015,None,1411.9589644866064,None,1411.9589644866064,None,n,0.059337689308449626,1411.9589644866064,None,,,NC5,001,2019_Dec_03_1557,ProdSingRedo,3.2.4,59.9770194798855,
,,,,70,0,70,0,,,,,,,,,,,,,,,,,,,,,,,,1413.742869805079,None,,,,,,,,,,,,,,,,,mayor,sing,white,70,16,183,1412.5773080261424,None,1412.5773080261424,None,4,0.5127423873636872,1412.5773080261424,None,1413.1273930852767,None,1413.642844924936,None,1413.642844924936,None,n,0.0631409368943423,1413.642844924936,None,,,NC5,001,2019_Dec_03_1557,ProdSingRedo,3.2.4,59.9770194798855,
,,,,71,0,71,0,,,,,,,,,,,,,,,,,,,,,,,,1415.4599077568855,None,,,,,,,,,,,,,,,,,place,new_a,white,71,109,222,1414.259514960926,None,1414.259514960926,None,4,0.5504529748577625,1414.259514960926,None,1414.8459969335236,None,1415.360005722614,None,1415.360005722614,None,n,0.06596235022880137,1415.360005722614,None,,,NC5,001,2019_Dec_03_1557,ProdSingRedo,3.2.4,59.9770194798855,
,,,,72,0,72,0,,,,,,,,,,,,,,,,,,,,,,,,1417.644035441801,None,,,,,,,,,,,,,,,,,volume,sing,white,72,23,349,1415.9767522648908,None,1415.9767522648908,None,4,0.4650853234343231,1415.9767522648908,None,1416.4812226123177,None,1416.9937584942672,None,1416.9937584942672,None,n,0.6161242267116904,1416.9937584942672,None,,,NC5,001,2019_Dec_03_1557,ProdSingRedo,3.2.4,59.9770194798855,
,,,,73,0,73,0,,,,,,,,,,,,,,,,,,,,,,,,1420.7616988192312,None,,,,,,,,,,,,,,,,,commercial,sing,white,73,14,61,1418.1607760752086,None,1418.1607760752086,None,4,0.4649338654708117,1418.1607760752086,None,1418.6658388820942,None,1419.17776488862,None,1419.17776488862,None,r,1.5357522056438029,1419.17776488862,None,,,NC5,001,2019_Dec_03_1557,ProdSingRedo,3.2.4,59.9770194798855,
,,,,74,0,74,0,,,,,,,,,,,,,,,,,,,,,,,,1423.2457929160446,None,,,,,,,,,,,,,,,,,meeting,new_a,white,74,93,187,1421.2783557928633,None,1421.2783557928633,None,5,1.0351046989671886,1421.2783557928633,None,1422.362181183882,None,1422.8789700225461,None,1422.8789700225461,None,f,0.3304284680634737,1422.8789700225461,None,,,NC5,001,2019_Dec_03_1557,ProdSingRedo,3.2.4,59.9770194798855,
,,,,75,0,75,0,,,,,,,,,,,,,,,,,,,,,,,,1426.8135261132848,None,,,,,,,,,,,,,,,,,captain,sing,white,75,10,41,1423.7626091230195,None,1423.7626091230195,None,5,1.0706283180043101,1423.7626091230195,None,1424.8811361538246,None,1425.3962919192854,None,1425.3962919192854,None,f,1.3809144091792405,1425.3962919192854,None,,,NC5,001,2019_Dec_03_1557,ProdSingRedo,3.2.4,59.9770194798855,
,,,,76,0,76,0,,,,,,,,,,,,,,,,,,,,,,,,1429.7311020989437,None,,,,,,,,,,,,,,,,,military,new_c,white,76,155,190,1427.3307083700784,None,1427.3307083700784,None,4,1.6702815503813326,1427.3307083700784,None,1429.051618611673,None,1429.5642505933065,None,1429.5642505933065,None,n,0.1250058312434703,1429.5642505933065,None,,,NC5,001,2019_Dec_03_1557,ProdSingRedo,3.2.4,59.9770194798855,
,,,,77,0,77,0,,,,,,,,,,,,,,,,,,,,,,,,1432.7985715663526,None,,,,,,,,,,,,,,,,,object,new_b,white,77,120,204,1430.2493066203315,None,1430.2493066203315,None,3,1.4317228596191853,1430.2493066203315,None,1431.7203442174941,None,1432.2316690562293,None,1432.2316690562293,None,n,0.5210887568537146,1432.2316690562293,None,,,NC5,001,2019_Dec_03_1557,ProdSingRedo,3.2.4,59.9770194798855,
,,,,78,0,78,0,,,,,,,,,,,,,,,,,,,,,,,,1435.982876833761,None,,,,,,,,,,,,,,,,,scene,silent,white,78,67,273,1433.3153803092428,None,1433.3153803092428,None,6,1.4453233026433736,1433.3153803092428,None,1434.8029209340457,None,1435.3161475521047,None,1435.3161475521047,None,r,0.6284940333571285,1435.3161475521047,None,,,NC5,001,2019_Dec_03_1557,ProdSingRedo,3.2.4,59.9770194798855,
,,,,79,0,79,0,,,,,,,,,,,,,,,,,,,,,,,,1438.4170827360358,None,,,,,,,,,,,,,,,,,employment,new_a,white,79,95,111,1436.5037621953525,None,1436.5037621953525,None,3,1.2806914204265922,1436.5037621953525,None,1437.8500800831243,None,1438.350332928123,None,1438.350332928123,None,n,0.018017919966951013,1438.350332928123,None,,,NC5,001,2019_Dec_03_1557,ProdSingRedo,3.2.4,59.9770194798855,
,,,,80,0,80,0,,,,,,,,,,,,,,,,,,,,,,,,1440.851154596312,None,,,,,,,,,,,,,,,,,industry,sing,white,80,9,161,1438.9348509211559,None,1438.9348509211559,None,3,0.9378343662247062,1438.9348509211559,None,1439.9342080792412,None,1440.4343800635543,None,1440.4343800635543,None,n,0.37417374458163977,1440.4343800635543,None,,,NC5,001,2019_Dec_03_1557,ProdSingRedo,3.2.4,59.9770194798855,
,,,,81,0,81,0,,,,,,,,,,,,,,,,,,,,,,,,1442.7184063619934,None,,,,,,,,,,,,,,,,,discussion,new_b,white,81,147,96,1441.3679866644088,None,1441.3679866644088,None,3,0.5042053735814989,1441.3679866644088,None,1441.9210063414648,None,1442.4348275959492,None,1442.4348275959492,None,n,0.24540229700505733,1442.4348275959492,None,,,NC5,001,2019_Dec_03_1557,ProdSingRedo,3.2.4,59.9770194798855,
,,,,82,0,82,0,,,,,,,,,,,,,,,,,,,,,,,,1444.7023290966172,None,,,,,,,,,,,,,,,,,cousin,new_c,white,82,154,76,1443.2350714218337,None,1443.2350714218337,None,3,0.5650946535170078,1443.2350714218337,None,1443.8382436456159,None,1444.352126789512,None,1444.352126789512,None,n,0.3039102323818952,1444.352126789512,None,,,NC5,001,2019_Dec_03_1557,ProdSingRedo,3.2.4,59.9770194798855,
,,,,83,0,83,0,,,,,,,,,,,,,,,,,,,,,,,,1447.8031684916932,None,,,,,,,,,,,,,,,,,motion,aloud,white,83,35,194,1445.2190215245355,None,1445.2190215245355,None,4,1.5489996608812362,1445.2190215245355,None,1446.806063923519,None,1447.3199486224912,None,1447.3199486224912,None,n,0.44797024317085743,1447.3199486224912,None,,,NC5,001,2019_Dec_03_1557,ProdSingRedo,3.2.4,59.9770194798855,
,,,,84,0,84,0,,,,,,,,,,,,,,,,,,,,,,,,1450.020564718172,None,,,,,,,,,,,,,,,,,rapid,aloud,white,84,40,252,1448.320128381718,None,1448.320128381718,None,5,0.967698676045984,1448.320128381718,None,1449.3238688069396,None,1449.837252481142,None,1449.837252481142,None,n,0.14652781444601715,1449.837252481142,None,,,NC5,001,2019_Dec_03_1557,ProdSingRedo,3.2.4,59.9770194798855,
,,,,85,0,85,0,,,,,,,,,,,,,,,,,,,,,,,,1453.2216448292602,None,,,,,,,,,,,,,,,,,mechanical,aloud,white,85,33,185,1450.5374835557304,None,1450.5374835557304,None,4,1.8064884417690337,1450.5374835557304,None,1452.3900920879096,None,1452.904711996438,None,1452.904711996438,None,n,0.27079470409080386,1452.904711996438,None,,,NC5,001,2019_Dec_03_1557,ProdSingRedo,3.2.4,59.9770194798855,
,,,,86,0,86,0,,,,,,,,,,,,,,,,,,,,,,,,1455.4889777665958,None,,,,,,,,,,,,,,,,,power,aloud,white,86,50,230,1453.7383117550053,None,1453.7383117550053,None,6,1.1253168336115777,1453.7383117550053,None,1454.9079971138854,None,1455.4223806606606,None,1455.4223806606606,None,n,0.03322562272660434,1455.4223806606606,None,,,NC5,001,2019_Dec_03_1557,ProdSingRedo,3.2.4,59.9770194798855,
,,,,87,0,87,0,,,,,,,,,,,,,,,,,,,,,,,,1458.6233764900826,None,,,,,,,,,,,,,,,,,audience,new_a,white,87,106,14,1456.0057896194048,None,1456.0057896194048,None,4,1.2739380046259612,1456.0057896194048,None,1457.3267511765007,None,1457.8396957153454,None,1457.8396957153454,None,n,0.7355671592522413,1457.8396957153454,None,,,NC5,001,2019_Dec_03_1557,ProdSingRedo,3.2.4,59.9770194798855,
,,,,88,0,88,0,,,,,,,,,,,,,,,,,,,,,,,,1460.5572104335297,None,,,,,,,,,,,,,,,,,finance,silent,white,88,89,129,1459.1399473163765,None,1459.1399473163765,None,3,0.7871450297534466,1459.1399473163765,None,1459.9763321008068,None,1460.4905203380622,None,1460.4905203380622,None,n,0.020531440619379282,1460.4905203380622,None,,,NC5,001,2019_Dec_03_1557,ProdSingRedo,3.2.4,59.9770194798855,
,,,,89,0,89,0,,,,,,,,,,,,,,,,,,,,,,,,1462.1576968412846,None,,,,,,,,,,,,,,,,,minute,new_a,white,89,92,192,1461.074049032759,None,1461.074049032759,None,4,0.47701412881724536,1461.074049032759,None,1461.593737657182,None,1462.1076848676894,None,1462.1076848676894,None,n,0.011365891201421618,1462.1076848676894,None,,,NC5,001,2019_Dec_03_1557,ProdSingRedo,3.2.4,59.9770194798855,
,,,,90,0,90,0,,,,,,,,,,,,,,,,,,,,,,,,1465.1586273601279,None,,,,,,,,,,,,,,,,,session,sing,white,90,2,281,1462.6743768290617,None,1462.6743768290617,None,3,1.1485527507029474,1462.6743768290617,None,1463.8626996246167,None,1464.3750613452867,None,1464.3750613452867,None,n,0.7357220384292305,1464.3750613452867,None,,,NC5,001,2019_Dec_03_1557,ProdSingRedo,3.2.4,59.9770194798855,
,,,,91,0,91,0,,,,,,,,,,,,,,,,,,,,,,,,1467.309277821565,None,,,,,,,,,,,,,,,,,group,new_c,white,91,152,143,1465.6752815349028,None,1465.6752815349028,None,4,0.6996330171823502,1465.6752815349028,None,1466.4118227537256,None,1466.9258097724523,None,1466.9258097724523,None,n,0.33683791500516236,1466.9258097724523,None,,,NC5,001,2019_Dec_03_1557,ProdSingRedo,3.2.4,59.9770194798855,
,,,,92,0,92,0,,,,,,,,,,,,,,,,,,,,,,,,1469.026484647533,None,,,,,,,,,,,,,,,,,throw,silent,white,92,88,330,1467.8260800333228,None,1467.8260800333228,None,4,0.3087652896065265,1467.8260800333228,None,1468.1797879587393,None,1468.6930400789715,None,1468.6930400789715,None,n,0.2898317789658904,1468.6930400789715,None,,,NC5,001,2019_Dec_03_1557,ProdSingRedo,3.2.4,59.9770194798855,
,,,,93,0,93,0,,,,,,,,,,,,,,,,,,,,,,,,1470.6935162234586,None,,,,,,,,,,,,,,,,,question,new_b,white,93,142,247,1469.544884167146,None,1469.544884167146,None,4,0.5257142945192754,1469.544884167146,None,1470.1266989279538,None,1470.6268074677791,None,1470.6268074677791,None,n,0.01956857740879059,1470.6268074677791,None,,,NC5,001,2019_Dec_03_1557,ProdSingRedo,3.2.4,59.9770194798855,
,,,,94,0,94,0,,,,,,,,,,,,,,,,,,,,,,,,1473.7445964901708,None,,,,,,,,,,,,,,,,,trail,new_a,white,94,117,336,1471.210483577568,None,1471.210483577568,None,4,0.8678709713276476,1471.210483577568,None,1472.1288815424778,None,1472.6442534546368,None,1472.6442534546368,None,f,1.0582498032599688,1472.6442534546368,None,,,NC5,001,2019_Dec_03_1557,ProdSingRedo,3.2.4,59.9770194798855,
,,,,95,0,95,0,,,,,,,,,,,,,,,,,,,,,,,,1476.96213142341,None,,,,,,,,,,,,,,,,,election,new_a,white,95,91,109,1474.2612537748646,None,1474.2612537748646,None,4,1.0969509333372116,1474.2612537748646,None,1475.3982020956464,None,1475.928591066273,None,1475.928591066273,None,n,0.9975421484559774,1475.928591066273,None,,,NC5,001,2019_Dec_03_1557,ProdSingRedo,3.2.4,59.9770194798855,
,,,,96,0,96,0,,,,,,,,,,,,,,,,,,,,,,,,1479.112896955572,None,,,,,,,,,,,,,,,,,growth,sing,white,96,6,144,1477.4790748304222,None,1477.4790748304222,None,5,0.9989006067626178,1477.4790748304222,None,1478.5157759042922,None,1479.0295567284338,None,1479.0295567284338,None,f,0.04065857850946486,1479.0295567284338,None,,,NC5,001,2019_Dec_03_1557,ProdSingRedo,3.2.4,59.9770194798855,
,,,,97,0,97,0,,,,,,,,,,,,,,,,,,,,,,,,1481.563643205678,None,,,,,,,,,,,,,,,,,carry,aloud,white,97,38,43,1479.629538068315,None,1479.629538068315,None,4,1.1202975672204047,1479.629538068315,None,1480.7989071379416,None,1481.3134415207896,None,1481.3134415207896,None,n,0.20438171201385558,1481.3134415207896,None,,,NC5,001,2019_Dec_03_1557,ProdSingRedo,3.2.4,59.9770194798855,
,,,,98,0,98,0,,,,,,,,,,,,,,,,,,,,,,,,1483.780985006597,None,,,,,,,,,,,,,,,,,personnel,sing,white,98,0,219,1482.0803941022605,None,1482.0803941022605,None,5,0.9973633224144578,1482.0803941022605,None,1483.1142871361226,None,1483.6309543729294,None,1483.6309543729294,None,f,0.10269732307642698,1483.6309543729294,None,,,NC5,001,2019_Dec_03_1557,ProdSingRedo,3.2.4,59.9770194798855,
,,,,99,0,99,0,,,,,,,,,,,,,,,,,,,,,,,,1486.7152229421772,None,,,,,,,,,,,,,,,,,division,new_c,white,99,153,101,1484.3005150200333,None,1484.3005150200333,None,3,1.3690111059695482,1484.3005150200333,None,1485.7194541287608,None,1486.231573267607,None,1486.231573267607,None,n,0.44597485242411494,1486.231573267607,None,,,NC5,001,2019_Dec_03_1557,ProdSingRedo,3.2.4,59.9770194798855,
,,,,100,0,100,0,,,,,,,,,,,,,,,,,,,,,,,,1488.482314852532,None,,,,,,,,,,,,,,,,,tough,silent,white,100,74,333,1487.23204536899,None,1487.23204536899,None,3,0.5896824975498021,1487.23204536899,None,1487.8685735256877,None,1488.3824187275022,None,1488.3824187275022,None,n,0.05531020928174257,1488.3824187275022,None,,,NC5,001,2019_Dec_03_1557,ProdSingRedo,3.2.4,59.9770194798855,
,,,,101,0,101,0,,,,,,,,,,,,,,,,,,,,,,,,1490.5829636035487,None,,,,,,,,,,,,,,,,,piece,silent,white,101,65,221,1488.999288737774,None,1488.999288737774,None,4,0.7100618584081531,1488.999288737774,None,1489.7525917380117,None,1490.2663165817503,None,1490.2663165817503,None,n,0.2830911143682897,1490.2663165817503,None,,,NC5,001,2019_Dec_03_1557,ProdSingRedo,3.2.4,59.9770194798855,
,,,,102,0,102,0,,,,,,,,,,,,,,,,,,,,,,,,1492.6837065881118,None,,,,,,,,,,,,,,,,,sound,new_c,white,102,168,295,1491.0999122974463,None,1491.0999122974463,None,5,0.8254511866252869,1491.0999122974463,None,1491.9667165307328,None,1492.4836453206372,None,1492.4836453206372,None,n,0.15344450646080077,1492.4836453206372,None,,,NC5,001,2019_Dec_03_1557,ProdSingRedo,3.2.4,59.9770194798855,
,,,,103,0,103,0,,,,,,,,,,,,,,,,,,,,,,,,1494.5675049216952,None,,,,,,,,,,,,,,,,,medicine,silent,white,103,87,186,1493.2005430101417,None,1493.2005430101417,None,3,0.620619454421103,1493.2005430101417,None,1493.8720396466088,None,1494.3841189772356,None,1494.3841189772356,None,n,0.1488460258115083,1494.3841189772356,None,,,NC5,001,2019_Dec_03_1557,ProdSingRedo,3.2.4,59.9770194798855,
,,,,104,0,104,0,,,,,,,,,,,,,,,,,,,,,,,,1496.4347423813306,None,,,,,,,,,,,,,,,,,platform,new_b,white,104,148,224,1495.084468854824,None,1495.084468854824,None,4,0.6166280505713075,1495.084468854824,None,1495.7369536077604,None,1496.2513654557988,None,1496.2513654557988,None,n,0.1375093690585345,1496.2513654557988,None,,,NC5,001,2019_Dec_03_1557,ProdSingRedo,3.2.4,59.9770194798855,
,,,,105,0,105,0,,,,,,,,,,,,,,,,,,,,,,,,1498.302101753885,None,,,,,,,,,,,,,,,,,orchestra,new_c,white,105,164,206,1496.9516860991716,None,1496.9516860991716,None,4,0.573514730669558,1496.9516860991716,None,1497.568919049343,None,1498.0854177228175,None,1498.0854177228175,None,n,0.18342792987823486,1498.0854177228175,None,,,NC5,001,2019_Dec_03_1557,ProdSingRedo,3.2.4,59.9770194798855,
,,,,106,0,106,0,,,,,,,,,,,,,,,,,,,,,,,,1500.136011581868,None,,,,,,,,,,,,,,,,,state,new_b,white,106,126,303,1498.8189027216285,None,1498.8189027216285,None,4,0.5298503146041185,1498.8189027216285,None,1499.3888412364759,None,1499.9025903383736,None,1499.9025903383736,None,n,0.19032627250999212,1499.9025903383736,None,,,NC5,001,2019_Dec_03_1557,ProdSingRedo,3.2.4,59.9770194798855,
,,,,107,0,107,0,,,,,,,,,,,,,,,,,,,,,,,,1502.653460056521,None,,,,,,,,,,,,,,,,,afternoon,new_a,white,107,104,3,1500.652728579007,None,1500.652728579007,None,3,1.1839420166797936,1500.652728579007,None,1501.8742654903326,None,1502.4032692564651,None,1502.4032692564651,None,n,0.21722113201394677,1502.4032692564651,None,,,NC5,001,2019_Dec_03_1557,ProdSingRedo,3.2.4,59.9770194798855,
,,,,108,0,108,0,,,,,,,,,,,,,,,,,,,,,,,,1510.3057961505838,None,,,,,,,,,,,,,,,,,atmosphere,new_a,white,108,97,12,1503.170126982266,None,1503.170126982266,None,5,0.7066171965561807,1503.170126982266,None,1503.9247551634908,None,1504.4371747304685,None,1504.4371747304685,None,n,5.830870091216639,1504.4371747304685,None,,,NC5,001,2019_Dec_03_1557,ProdSingRedo,3.2.4,59.9770194798855,
,,,,109,0,109,0,,,,,,,,,,,,,,,,,,,,,,,,1514.12345766183,None,,,,,,,,,,,,,,,,,service,aloud,white,109,34,280,1510.8242385885678,None,1510.8242385885678,None,6,2.475689569953829,1510.8242385885678,None,1513.3566596484743,None,1513.8567311789375,None,1513.8567311789375,None,r,0.22708394890651107,1513.8567311789375,None,,,NC5,001,2019_Dec_03_1557,ProdSingRedo,3.2.4,59.9770194798855,
,,,,110,0,110,0,,,,,,,,,,,,,,,,,,,,,,,,1516.7744259675965,None,,,,,,,,,,,,,,,,,hearing,new_b,white,110,138,150,1514.6402884859126,None,1514.6402884859126,None,3,1.4995157695375383,1514.6402884859126,None,1516.1771693190094,None,1516.6910767212976,None,1516.6910767212976,None,n,0.040834916988387704,1516.6910767212976,None,,,NC5,001,2019_Dec_03_1557,ProdSingRedo,3.2.4,59.9770194798855,
,,,,111,0,111,0,,,,,,,,,,,,,,,,,,,,,,,,1518.8417362016626,None,,,,,,,,,,,,,,,,,expansion,new_a,white,111,118,123,1517.2912810498383,None,1517.2912810498383,None,4,0.5603509349748492,1517.2912810498383,None,1517.8950444890652,None,1518.408298786264,None,1518.408298786264,None,n,0.3871979000978172,1518.408298786264,None,,,NC5,001,2019_Dec_03_1557,ProdSingRedo,3.2.4,59.9770194798855,
,,,,112,0,112,0,,,,,,,,,,,,,,,,,,,,,,,,1520.925721447682,None,,,,,,,,,,,,,,,,,crowd,new_a,white,112,110,81,1519.3585536526516,None,1519.3585536526516,None,4,0.9571550751570612,1519.3585536526516,None,1520.3624607748352,None,1520.8757063641679,None,1520.8757063641679,None,n,0.007953884545713663,1520.8757063641679,None,,,NC5,001,2019_Dec_03_1557,ProdSingRedo,3.2.4,59.9770194798855,
,,,,113,0,113,0,,,,,,,,,,,,,,,,,,,,,,,,1523.3597973510623,None,,,,,,,,,,,,,,,,,quick,new_a,white,113,116,248,1521.4424897602294,None,1521.4424897602294,None,3,0.7848893296904862,1521.4424897602294,None,1522.2926472830586,None,1522.7928015401121,None,1522.7928015401121,None,n,0.5228030018042773,1522.7928015401121,None,,,NC5,001,2019_Dec_03_1557,ProdSingRedo,3.2.4,59.9770194798855,
,,,,114,0,114,0,,,,,,,,,,,,,,,,,,,,,,,,1530.6787075365428,None,,,,,,,,,,,,,,,,,fight,aloud,white,114,47,127,1523.8764537028037,None,1523.8764537028037,None,4,5.790770072955638,1523.8764537028037,None,1529.7143947428558,None,1530.2285329087172,None,1530.2285329087172,None,n,0.4066719328984618,1530.2285329087172,None,,,NC5,001,2019_Dec_03_1557,ProdSingRedo,3.2.4,59.9770194798855,
,,,,115,0,115,0,,,,,,,,,,,,,,,,,,,,,,,,1535.9303140190896,None,,,,,,,,,,,,,,,,,review,new_a,white,115,90,263,1531.1954435049556,None,1531.1954435049556,None,5,4.0151455025188625,1531.1954435049556,None,1535.2497454446275,None,1535.7636024644598,None,1535.7636024644598,None,n,0.11885576019994915,1535.7636024644598,None,,,NC5,001,2019_Dec_03_1557,ProdSingRedo,3.2.4,59.9770194798855,
,,,,116,0,116,0,,,,,,,,,,,,,,,,,,,,,,,,1542.298807617044,None,,,,,,,,,,,,,,,,,season,new_c,white,116,173,277,1536.4469955621753,None,1536.4469955621753,None,3,4.515232272213325,1536.4469955621753,None,1541.0015864230227,None,1541.515321840765,None,1541.515321840765,None,n,0.7427612652536482,1541.515321840765,None,,,NC5,001,2019_Dec_03_1557,ProdSingRedo,3.2.4,59.9770194798855,
,,,,117,0,117,0,,,,,,,,,,,,,,,,,,,,,,,,1544.7496776462067,None,,,,,,,,,,,,,,,,,quiet,silent,white,117,69,249,1542.8157712391112,None,1542.8157712391112,None,4,1.2503848655615002,1542.8157712391112,None,1544.1011799429543,None,1544.616298388224,None,1544.616298388224,None,n,0.09764944459311664,1544.616298388224,None,,,NC5,001,2019_Dec_03_1557,ProdSingRedo,3.2.4,59.9770194798855,
,,,,118,0,118,0,,,,,,,,,,,,,,,,,,,,,,,,1549.2842763443477,None,,,,,,,,,,,,,,,,,committee,aloud,white,118,49,62,1545.2663511030842,None,1545.2663511030842,None,5,3.295415514614433,1545.2663511030842,None,1548.605116921477,None,1549.1176817265805,None,1549.1176817265805,None,n,0.1242600476834923,1549.1176817265805,None,,,NC5,001,2019_Dec_03_1557,ProdSingRedo,3.2.4,59.9770194798855,
,,,,119,0,119,0,,,,,,,,,,,,,,,,,,,,,,,,1556.0198071163613,None,,,,,,,,,,,,,,,,,notice,aloud,white,119,43,201,1549.8025825633667,None,1549.8025825633667,None,4,5.582894560880959,1549.8025825633667,None,1555.4234604607336,None,1555.936437032884,None,1555.936437032884,None,n,0.04108496266417205,1555.936437032884,None,,,NC5,001,2019_Dec_03_1557,ProdSingRedo,3.2.4,59.9770194798855,
,,,,120,0,120,0,,,,,,,,,,,,,,,,,,,,,,,,1558.270481524989,None,,,,,,,,,,,,,,,,,guard,silent,white,120,70,145,1556.5366793037392,None,1556.5366793037392,None,5,1.0166370696388185,1556.5366793037392,None,1557.590388784185,None,1558.1037765012588,None,1558.1037765012588,None,n,0.12937852391041815,1558.1037765012588,None,,,NC5,001,2019_Dec_03_1557,ProdSingRedo,3.2.4,59.9770194798855,
,,,,121,0,121,0,,,,,,,,,,,,,,,,,,,,,,,,1561.588067151606,None,,,,,,,,,,,,,,,,,agency,silent,white,121,62,4,1558.7872706747148,None,1558.7872706747148,None,3,1.3580078433733433,1558.7872706747148,None,1560.2043039612472,None,1560.7212218660861,None,1560.7212218660861,None,f,0.8239291412755847,1560.7212218660861,None,,,NC5,001,2019_Dec_03_1557,ProdSingRedo,3.2.4,59.9770194798855,
,,,,122,0,122,0,,,,,,,,,,,,,,,,,,,,,,,,1565.8561744848266,None,,,,,,,,,,,,,,,,,appearance,new_a,white,122,114,10,1562.1050024726428,None,1562.1050024726428,None,5,2.591970230685547,1562.1050024726428,None,1564.7429108575452,None,1565.2559723332524,None,1565.2559723332524,None,n,0.5607213389594108,1565.2559723332524,None,,,NC5,001,2019_Dec_03_1557,ProdSingRedo,3.2.4,59.9770194798855,
,,,,123,0,123,0,,,,,,,,,,,,,,,,,,,,,,,,1568.0568275896367,None,,,,,,,,,,,,,,,,,household,sing,white,123,13,154,1566.3730040648952,None,1566.3730040648952,None,5,1.0675493949092925,1566.3730040648952,None,1567.492158387322,None,1568.0067024112213,None,1568.0067024112213,None,n,0.009813367389142513,1568.0067024112213,None,,,NC5,001,2019_Dec_03_1557,ProdSingRedo,3.2.4,59.9770194798855,
,,,,124,0,124,0,,,,,,,,,,,,,,,,,,,,,,,,1570.2741780986544,None,,,,,,,,,,,,,,,,,damage,new_a,white,124,100,83,1568.573514108779,None,1568.573514108779,None,5,0.4270180163439363,1568.573514108779,None,1569.0443256071303,None,1569.540359394392,None,1569.540359394392,None,n,0.700204950524494,1569.540359394392,None,,,NC5,001,2019_Dec_03_1557,ProdSingRedo,3.2.4,59.9770194798855,
,,,,125,0,125,0,,,,,,,,,,,,,,,,,,,,,,,,1573.4084710814059,None,,,,,,,,,,,,,,,,,period,sing,white,125,4,217,1570.7908503115177,None,1570.7908503115177,None,6,1.1294768007937819,1570.7908503115177,None,1571.9606277272105,None,1572.474727017805,None,1572.474727017805,None,r,0.8855247076135129,1572.474727017805,None,,,NC5,001,2019_Dec_03_1557,ProdSingRedo,3.2.4,59.9770194798855,
,,,,126,0,126,0,,,,,,,,,,,,,,,,,,,,,,,,1575.7090616750065,None,,,,,,,,,,,,,,,,,message,new_a,white,126,103,189,1573.9252785805147,None,1573.9252785805147,None,4,0.923157544573769,1573.9252785805147,None,1574.8950196087826,None,1575.4089895223733,None,1575.4089895223733,None,n,0.2631210326217115,1575.4089895223733,None,,,NC5,001,2019_Dec_03_1557,ProdSingRedo,3.2.4,59.9770194798855,
,,,,127,0,127,0,,,,,,,,,,,,,,,,,,,,,,,,1579.1269082326908,None,,,,,,,,,,,,,,,,,music,new_b,white,127,131,196,1576.2258520687465,None,1576.2258520687465,None,4,0.7340958074200898,1576.2258520687465,None,1576.9962446468417,None,1577.5097247320227,None,1577.5097247320227,None,f,1.5700884179677814,1577.5097247320227,None,,,NC5,001,2019_Dec_03_1557,ProdSingRedo,3.2.4,59.9770194798855,
,,,,128,0,128,0,,,,,,,,,,,,,,,,,,,,,,,,1580.8774330490269,None,,,,,,,,,,,,,,,,,order,new_c,white,128,162,207,1579.64357640245,None,1579.64357640245,None,4,0.46819472475908697,1579.64357640245,None,1580.1603705282323,None,1580.6773630734533,None,1580.6773630734533,None,f,0.16234725899994373,1580.6773630734533,None,,,NC5,001,2019_Dec_03_1557,ProdSingRedo,3.2.4,59.9770194798855,
,,,,129,0,129,0,,,,,,,,,,,,,,,,,,,,,,,,1583.6449575638399,None,,,,,,,,,,,,,,,,,quantity,aloud,white,129,30,245,1581.3961973746773,None,1581.3961973746773,None,4,0.475485552335158,1581.3961973746773,None,1581.9276235380676,None,1582.4277669100557,None,1582.4277669100557,None,f,1.1798557571601123,1582.4277669100557,None,,,NC5,001,2019_Dec_03_1557,ProdSingRedo,3.2.4,59.9770194798855,
,,,,130,0,130,0,,,,,,,,,,,,,,,,,,,,,,,,1585.5288501312025,None,,,,,,,,,,,,,,,,,people,new_a,white,130,102,216,1584.1617715938482,None,1584.1617715938482,None,4,0.37400362617336214,1584.1617715938482,None,1584.5821176772006,None,1585.0953847256023,None,1585.0953847256023,None,f,0.3921823345590383,1585.0953847256023,None,,,NC5,001,2019_Dec_03_1557,ProdSingRedo,3.2.4,59.9770194798855,
,,,,131,0,131,0,,,,,,,,,,,,,,,,,,,,,,,,1587.9794921954162,None,,,,,,,,,,,,,,,,,speech,sing,white,131,17,298,1586.0456753571052,None,1586.0456753571052,None,5,1.2017388141248375,1586.0456753571052,None,1587.2958670901135,None,1587.8129215247463,None,1587.8129215247463,None,r,0.1304312669672072,1587.8129215247463,None,,,NC5,001,2019_Dec_03_1557,ProdSingRedo,3.2.4,59.9770194798855,
,,,,132,0,132,0,,,,,,,,,,,,,,,,,,,,,,,,1590.9638525103219,None,,,,,,,,,,,,,,,,,brief,new_c,white,132,161,28,1588.496274192119,None,1588.496274192119,None,4,0.9429441345855594,1588.496274192119,None,1589.4834736473858,None,1589.9967584228143,None,1589.9967584228143,None,f,0.9227271170821041,1589.9967584228143,None,,,NC5,001,2019_Dec_03_1557,ProdSingRedo,3.2.4,59.9770194798855,
,,,,133,0,133,0,,,,,,,,,,,,,,,,,,,,,,,,1593.0978444428183,None,,,,,,,,,,,,,,,,,break,aloud,white,133,32,26,1591.481055604294,None,1591.481055604294,None,4,0.3180536851286888,1591.481055604294,None,1591.851858705515,None,1592.3641289914958,None,1592.3641289914958,None,f,0.6989705821033567,1592.3641289914958,None,,,NC5,001,2019_Dec_03_1557,ProdSingRedo,3.2.4,59.9770194798855,
,,,,134,0,134,0,,,,,,,,,,,,,,,,,,,,,,,,1594.8650576444343,None,,,,,,,,,,,,,,,,,birth,silent,white,134,68,22,1593.6144510342274,None,1593.6144510342274,None,4,0.3924840067047626,1593.6144510342274,None,1594.048956742743,None,1594.5649764726404,None,1594.5649764726404,None,f,0.2581132734194398,1594.5649764726404,None,,,NC5,001,2019_Dec_03_1557,ProdSingRedo,3.2.4,59.9770194798855,
,,,,135,0,135,0,,,,,,,,,,,,,,,,,,,,,,,,1596.115446863696,None,,,,,,,,,,,,,,,,,conference,aloud,white,135,55,66,1595.3818806933705,None,1595.3818806933705,None,4,0.07328210095874965,1595.3818806933705,None,1595.5036760475487,None,1596.0152674154378,None,1596.0152674154378,None,f,0.0558886737562716,1596.0152674154378,None,,,NC5,001,2019_Dec_03_1557,ProdSingRedo,3.2.4,59.9770194798855,
,,,,136,0,136,0,,,,,,,,,,,,,,,,,,,,,,,,1597.5825390852988,None,,,,,,,,,,,,,,,,,property,new_c,white,136,174,242,1596.6329227066599,None,1596.6329227066599,None,4,0.2939167944714427,1596.6329227066599,None,1596.9822013366502,None,1597.4825042530429,None,1597.4825042530429,None,f,0.05219645402394235,1597.4825042530429,None,,,NC5,001,2019_Dec_03_1557,ProdSingRedo,3.2.4,59.9770194798855,
,,,,137,0,137,0,,,,,,,,,,,,,,,,,,,,,,,,1599.0163108282723,None,,,,,,,,,,,,,,,,,dispute,new_b,white,137,133,99,1598.0993814163376,None,1598.0993814163376,None,4,0.2512665567919612,1598.0993814163376,None,1598.4035062403418,None,1598.916283460101,None,1598.916283460101,None,f,0.05855023139156401,1598.916283460101,None,,,NC5,001,2019_Dec_03_1557,ProdSingRedo,3.2.4,59.9770194798855,
,,,,138,0,138,0,,,,,,,,,,,,,,,,,,,,,,,,1603.0842374688946,None,,,,,,,,,,,,,,,,,goose,aloud,white,138,52,138,1599.532983974088,None,1599.532983974088,None,4,2.1775384787470102,1599.532983974088,None,1601.7515691623557,None,1602.2673201863654,None,1602.2673201863654,None,n,0.7710295110009611,1602.2673201863654,None,,,NC5,001,2019_Dec_03_1557,ProdSingRedo,3.2.4,59.9770194798855,
,,,,139,0,139,0,,,,,,,,,,,,,,,,,,,,,,,,1605.3015802029986,None,,,,,,,,,,,,,,,,,cross,new_b,white,139,128,80,1603.601022575749,None,1603.601022575749,None,4,1.0453220584895462,1603.601022575749,None,1604.6878034216352,None,1605.2015553226229,None,1605.2015553226229,None,f,0.05266513442620635,1605.2015553226229,None,,,NC5,001,2019_Dec_03_1557,ProdSingRedo,3.2.4,59.9770194798855,
,,,,140,0,140,0,,,,,,,,,,,,,,,,,,,,,,,,1606.9020386203192,None,,,,,,,,,,,,,,,,,chief,new_b,white,140,121,48,1605.8184026298113,None,1605.8184026298113,None,4,0.31589470710605383,1605.8184026298113,None,1606.1719967282843,None,1606.6853458813857,None,1606.6853458813857,None,f,0.16878220834769309,1606.6853458813857,None,,,NC5,001,2019_Dec_03_1557,ProdSingRedo,3.2.4,59.9770194798855,
,,,,141,0,141,0,,,,,,,,,,,,,,,,,,,,,,,,1608.5024500763975,None,,,,,,,,,,,,,,,,,treatment,silent,white,141,81,339,1607.4187627707142,None,1607.4187627707142,None,4,0.3313944411929697,1607.4187627707142,None,1607.7857679114677,None,1608.3024895738345,None,1608.3024895738345,None,f,0.16759915533475578,1608.3024895738345,None,,,NC5,001,2019_Dec_03_1557,ProdSingRedo,3.2.4,59.9770194798855,
,,,,142,0,142,0,,,,,,,,,,,,,,,,,,,,,,,,1610.3029949525371,None,,,,,,,,,,,,,,,,,direction,new_a,white,142,98,94,1609.0193797992542,None,1609.0193797992542,None,4,0.3626473762560636,1609.0193797992542,None,1609.4250661658589,None,1609.9361633509398,None,1609.9361633509398,None,f,0.33382368041202426,1609.9361633509398,None,,,NC5,001,2019_Dec_03_1557,ProdSingRedo,3.2.4,59.9770194798855,
,,,,143,0,143,0,,,,,,,,,,,,,,,,,,,,,,,,1611.9869780214503,None,,,,,,,,,,,,,,,,,position,new_c,white,143,175,229,1610.8199492443819,None,1610.8199492443819,None,4,0.5222382217179984,1610.8199492443819,None,1611.3868999599945,None,1611.9036110481247,None,1611.9036110481247,None,f,0.038582016015425324,1611.9036110481247,None,,,NC5,001,2019_Dec_03_1557,ProdSingRedo,3.2.4,59.9770194798855,
,,,,144,0,144,0,,,,,,,,,,,,,,,,,,,,,,,,1613.4206194544677,None,,,,,,,,,,,,,,,,,strength,aloud,white,144,39,310,1612.503808845533,None,1612.503808845533,None,4,0.2539526841137558,1612.503808845533,None,1612.8079227844719,None,1613.3207021811977,None,1613.3207021811977,None,f,0.06108676642179489,1613.3207021811977,None,,,NC5,001,2019_Dec_03_1557,ProdSingRedo,3.2.4,59.9770194798855,
,,,,145,0,145,0,,,,,,,,,,,,,,,,,,,,,,,,1614.9210710299667,None,,,,,,,,,,,,,,,,,citizen,new_a,white,145,105,50,1613.9373482698575,None,1613.9373482698575,None,4,0.3004438003990799,1613.9373482698575,None,1614.2875477778725,None,1614.7878435410094,None,1614.7878435410094,None,f,0.09781147656030953,1614.7878435410094,None,,,NC5,001,2019_Dec_03_1557,ProdSingRedo,3.2.4,59.9770194798855,
,,,,146,0,146,0,,,,,,,,,,,,,,,,,,,,,,,,1616.4882559301332,None,,,,,,,,,,,,,,,,,report,new_b,white,146,139,259,1615.4379898675252,None,1615.4379898675252,None,4,0.19976612622849643,1615.4379898675252,None,1615.671363216592,None,1616.1882574851625,None,1616.1882574851625,None,f,0.2575547129381448,1616.1882574851625,None,,,NC5,001,2019_Dec_03_1557,ProdSingRedo,3.2.4,59.9770194798855,
,,,,147,0,147,0,,,,,,,,,,,,,,,,,,,,,,,,1617.7887628639583,None,,,,,,,,,,,,,,,,,recall,silent,white,147,86,255,1617.0051676146686,None,1617.0051676146686,None,4,0.1523578641936183,1617.0051676146686,None,1617.2051026152913,None,1617.7220413570758,None,1617.7220413570758,None,f,0.027469280641525984,1617.7220413570758,None,,,NC5,001,2019_Dec_03_1557,ProdSingRedo,3.2.4,59.9770194798855,
,,,,148,0,148,0,,,,,,,,,,,,,,,,,,,,,,,,1619.3058757670224,None,,,,,,,,,,,,,,,,,murder,aloud,white,148,42,195,1618.3054139285814,None,1618.3054139285814,None,4,0.26809240505099297,1618.3054139285814,None,1618.6245296867564,None,1619.1391499063466,None,1619.1391499063466,None,f,0.13028882793150842,1619.1391499063466,None,,,NC5,001,2019_Dec_03_1557,ProdSingRedo,3.2.4,59.9770194798855,
,,,,149,0,149,0,,,,,,,,,,,,,,,,,,,,,,,,1620.7063102372922,None,,,,,,,,,,,,,,,,,heavy,aloud,white,149,44,151,1619.822718098294,None,1619.822718098294,None,4,0.05487853800877929,1619.822718098294,None,1619.9279880328104,None,1620.4393943541218,None,1620.4393943541218,None,f,0.22997409338131547,1620.4393943541218,None,,,NC5,001,2019_Dec_03_1557,ProdSingRedo,3.2.4,59.9770194798855,
,,,,150,0,150,0,,,,,,,,,,,,,,,,,,,,,,,,1623.640531689627,None,,,,,,,,,,,,,,,,,quarter,new_c,white,150,170,246,1621.2229743641801,None,1621.2229743641801,None,4,1.7022640970535576,1621.2229743641801,None,1622.9901782355737,None,1623.4905026110355,None,1623.4905026110355,None,f,0.11467122402973473,1623.4905026110355,None,,,NC5,001,2019_Dec_03_1557,ProdSingRedo,3.2.4,59.9770194798855,
,,,,151,0,151,0,,,,,,,,,,,,,,,,,,,,,,,,1626.9082020644564,None,,,,,,,,,,,,,,,,,working,sing,white,151,15,357,1624.1577459794935,None,1624.1577459794935,None,4,0.7593202732969075,1624.1577459794935,None,1624.9741553955246,None,1625.474273887463,None,1625.474273887463,None,r,1.3946995872538537,1625.474273887463,None,,,NC5,001,2019_Dec_03_1557,ProdSingRedo,3.2.4,59.9770194798855,
,,,,152,0,152,0,,,,,,,,,,,,,,,,,,,,,,,,1629.9757331102155,None,,,,,,,,,,,,,,,,,religion,sing,white,152,12,258,1627.424866502406,None,1627.424866502406,None,5,1.2599456990137696,1627.424866502406,None,1628.7297912242357,None,1629.2422711257823,None,1629.2422711257823,None,r,0.6907249775249511,1629.2422711257823,None,,,NC5,001,2019_Dec_03_1557,ProdSingRedo,3.2.4,59.9770194798855,
,,,,153,0,153,0,,,,,,,,,,,,,,,,,,,,,,,,1633.3268491420895,None,,,,,,,,,,,,,,,,,weight,silent,white,153,71,353,1630.492492403835,None,1630.492492403835,None,5,1.5761131551116705,1630.492492403835,None,1632.1103908990044,None,1632.6266357945278,None,1632.6266357945278,None,f,0.666058138711378,1632.6266357945278,None,,,NC5,001,2019_Dec_03_1557,ProdSingRedo,3.2.4,59.9770194798855,
,,,,154,0,154,0,,,,,,,,,,,,,,,,,,,,,,,,1635.377335394267,None,,,,,,,,,,,,,,,,,incident,aloud,white,154,31,158,1633.8435157570057,None,1633.8435157570057,None,4,0.6893780266400427,1633.8435157570057,None,1634.5808279505,None,1635.0940399514511,None,1635.0940399514511,None,f,0.2463760452810675,1635.0940399514511,None,,,NC5,001,2019_Dec_03_1557,ProdSingRedo,3.2.4,59.9770194798855,
,,,,155,0,155,0,,,,,,,,,,,,,,,,,,,,,,,,1637.8616083175875,None,,,,,,,,,,,,,,,,,nation,aloud,white,155,45,198,1635.8941730605438,None,1635.8941730605438,None,4,0.2861585302744061,1635.8941730605438,None,1636.2303563153837,None,1636.744558858918,None,1636.744558858918,None,f,1.0837821615859866,1636.744558858918,None,,,NC5,001,2019_Dec_03_1557,ProdSingRedo,3.2.4,59.9770194798855,
,,,,156,0,156,0,,,,,,,,,,,,,,,,,,,,,,,,1639.5120569383726,None,,,,,,,,,,,,,,,,,track,aloud,white,156,56,334,1638.3782693343237,None,1638.3782693343237,None,4,0.36992731876671314,1638.3782693343237,None,1638.7978236058261,None,1639.3118914852384,None,1639.3118914852384,None,n,0.1643348748330027,1639.3118914852384,None,,,NC5,001,2019_Dec_03_1557,ProdSingRedo,3.2.4,59.9770194798855,
,,,,157,0,157,0,,,,,,,,,,,,,,,,,,,,,,,,1640.979204207426,None,,,,,,,,,,,,,,,,,production,new_c,white,157,165,240,1640.0286999170203,None,1640.0286999170203,None,4,0.2716288126539439,1640.0286999170203,None,1640.3508100055624,None,1640.8623699622694,None,1640.8623699622694,None,n,0.0777689313981682,1640.8623699622694,None,,,NC5,001,2019_Dec_03_1557,ProdSingRedo,3.2.4,59.9770194798855,
,,,,158,0,158,0,,,,,,,,,,,,,,,,,,,,,,,,1642.379618462408,None,,,,,,,,,,,,,,,,,safety,new_c,white,158,167,270,1641.4958649131004,None,1641.4958649131004,None,4,0.09239692590199411,1641.4958649131004,None,1641.6459278911352,None,1642.14621059224,None,1642.14621059224,None,n,0.1857498730532825,1642.14621059224,None,,,NC5,001,2019_Dec_03_1557,ProdSingRedo,3.2.4,59.9770194798855,
,,,,159,0,159,0,,,,,,,,,,,,,,,,,,,,,,,,1645.5305839690845,None,,,,,,,,,,,,,,,,,collection,silent,white,159,63,54,1642.8964477314148,None,1642.8964477314148,None,4,1.9397492078132927,1642.8964477314148,None,1644.8855377696455,None,1645.3970663151704,None,1645.3970663151704,None,n,0.08670620527118444,1645.3970663151704,None,,,NC5,001,2019_Dec_03_1557,ProdSingRedo,3.2.4,59.9770194798855,
,,,,160,0,160,0,,,,,,,,,,,,,,,,,,,,,,,,1647.0809433322866,None,,,,,,,,,,,,,,,,,resistance,new_c,white,160,172,262,1646.0474116832484,None,1646.0474116832484,None,4,0.30853483686223626,1646.0474116832484,None,1646.4025962476153,None,1646.9143424944486,None,1646.9143424944486,None,n,0.12133133877068758,1646.9143424944486,None,,,NC5,001,2019_Dec_03_1557,ProdSingRedo,3.2.4,59.9770194798855,
,,,,161,0,161,0,,,,,,,,,,,,,,,,,,,,,,,,1648.6315424782224,None,,,,,,,,,,,,,,,,,sight,new_a,white,161,111,286,1647.597877720138,None,1647.597877720138,None,4,0.35801281966269016,1647.597877720138,None,1648.000940471189,None,1648.5148133519106,None,1648.5148133519106,None,n,0.07311415951699018,1648.5148133519106,None,,,NC5,001,2019_Dec_03_1557,ProdSingRedo,3.2.4,59.9770194798855,
,,,,162,0,162,0,,,,,,,,,,,,,,,,,,,,,,,,1650.1486653336324,None,,,,,,,,,,,,,,,,,comfort,aloud,white,162,57,59,1649.148198519135,None,1649.148198519135,None,4,0.303329590940848,1649.148198519135,None,1649.5024603395723,None,1650.0151784687769,None,1650.0151784687769,None,n,0.08431988442316651,1650.0151784687769,None,,,NC5,001,2019_Dec_03_1557,ProdSingRedo,3.2.4,59.9770194798855,
,,,,163,0,163,0,,,,,,,,,,,,,,,,,,,,,,,,1651.5489707379602,None,,,,,,,,,,,,,,,,,right,sing,white,163,11,265,1650.6654927365016,None,1650.6654927365016,None,4,0.20195464976131916,1650.6654927365016,None,1650.9168734315317,None,1651.4324073758908,None,1651.4324073758908,None,n,0.08321116119623184,1651.4324073758908,None,,,NC5,001,2019_Dec_03_1557,ProdSingRedo,3.2.4,59.9770194798855,
,,,,164,0,164,0,,,,,,,,,,,,,,,,,,,,,,,,1656.383751372341,None,,,,,,,,,,,,,,,,,signal,new_a,white,164,99,287,1652.0659063698258,None,1652.0659063698258,None,5,3.6254829089157283,1652.0659063698258,None,1655.736789087532,None,1656.2505431657191,None,1656.2505431657191,None,n,0.08889099676162004,1656.2505431657191,None,,,NC5,001,2019_Dec_03_1557,ProdSingRedo,3.2.4,59.9770194798855,
,,,,165,0,165,0,,,,,,,,,,,,,,,,,,,,,,,,1658.6011320485268,None,,,,,,,,,,,,,,,,,distance,new_b,white,165,125,100,1656.9007470277138,None,1656.9007470277138,None,5,0.37455534446053207,1656.9007470277138,None,1657.322537405882,None,1657.8343648244627,None,1657.8343648244627,None,n,0.7286769028287381,1657.8343648244627,None,,,NC5,001,2019_Dec_03_1557,ProdSingRedo,3.2.4,59.9770194798855,
,,,,166,0,166,0,,,,,,,,,,,,,,,,,,,,,,,,1660.401768048294,None,,,,,,,,,,,,,,,,,husband,silent,white,166,82,156,1659.119594390737,None,1659.119594390737,None,5,0.6352990753948689,1659.119594390737,None,1659.8042028855998,None,1660.3184555002954,None,1660.3184555002954,None,n,0.0363962915726006,1660.3184555002954,None,,,NC5,001,2019_Dec_03_1557,ProdSingRedo,3.2.4,59.9770194798855,
,,,,167,0,167,0,,,,,,,,,,,,,,,,,,,,,,,,1662.2357176844962,None,,,,,,,,,,,,,,,,,junior,sing,white,167,7,167,1660.9233643610496,None,1660.9233643610496,None,5,0.4314401582814753,1660.9233643610496,None,1661.4075881459285,None,1661.9189288457856,None,1661.9189288457856,None,n,0.2758351191878319,1661.9189288457856,None,,,NC5,001,2019_Dec_03_1557,ProdSingRedo,3.2.4,59.9770194798855,
,,,,168,0,168,0,,,,,,,,,,,,,,,,,,,,,,,,1665.4032079891767,None,,,,,,,,,,,,,,,,,principal,aloud,white,168,58,236,1662.7525298485998,None,1662.7525298485998,None,5,0.3381637178827077,1662.7525298485998,None,1663.139490764821,None,1663.65278176032,None,1663.65278176032,None,r,1.70978320017457,1663.65278176032,None,,,NC5,001,2019_Dec_03_1557,ProdSingRedo,3.2.4,59.9770194798855,
,,,,169,0,169,0,,,,,,,,,,,,,,,,,,,,,,,,1667.353791896021,None,,,,,,,,,,,,,,,,,impact,sing,white,169,1,157,1665.9200133110862,None,1665.9200133110862,None,5,0.7228229059837759,1665.9200133110862,None,1666.6897300812416,None,1667.2038809980731,None,1667.2038809980731,None,n,0.11062446143478155,1667.2038809980731,None,,,NC5,001,2019_Dec_03_1557,ProdSingRedo,3.2.4,59.9770194798855,
,,,,170,0,170,0,,,,,,,,,,,,,,,,,,,,,,,,1668.9377236496657,None,,,,,,,,,,,,,,,,,science,new_c,white,170,169,275,1667.8705648735631,None,1667.8705648735631,None,5,0.34784366516396403,1667.8705648735631,None,1668.2569771818817,None,1668.771049415227,None,1668.771049415227,None,r,0.11927685746923089,1668.771049415227,None,,,NC5,001,2019_Dec_03_1557,ProdSingRedo,3.2.4,59.9770194798855,
,,,,171,0,171,0,,,,,,,,,,,,,,,,,,,,,,,,1671.0550766466185,None,,,,,,,,,,,,,,,,,candidate,silent,white,171,76,39,1669.4544869861566,None,1669.4544869861566,None,4,0.8598119679372758,1669.4544869861566,None,1670.356294220779,None,1670.871576253092,None,1670.871576253092,None,r,0.14669451164081693,1670.871576253092,None,,,NC5,001,2019_Dec_03_1557,ProdSingRedo,3.2.4,59.9770194798855,
,,,,172,0,172,0,,,,,,,,,,,,,,,,,,,,,,,,1672.605423880741,None,,,,,,,,,,,,,,,,,pretty,silent,white,172,85,233,1671.5718679733109,None,1671.5718679733109,None,4,0.3105034816544503,1671.5718679733109,None,1671.9235786416102,None,1672.4388242869172,None,1672.4388242869172,None,n,0.12357242172583938,1672.4388242869172,None,,,NC5,001,2019_Dec_03_1557,ProdSingRedo,3.2.4,59.9770194798855,
,,,,173,0,173,0,,,,,,,,,,,,,,,,,,,,,,,,1674.4393529908266,None,,,,,,,,,,,,,,,,,leader,silent,white,173,80,168,1673.1222453746013,None,1673.1222453746013,None,4,0.3759365058504045,1673.1222453746013,None,1673.5392071306705,None,1674.0560031225905,None,1674.0560031225905,None,n,0.3383444102946669,1674.0560031225905,None,,,NC5,001,2019_Dec_03_1557,ProdSingRedo,3.2.4,59.9770194798855,
,,,,174,0,174,0,,,,,,,,,,,,,,,,,,,,,,,,1676.089815295767,None,,,,,,,,,,,,,,,,,course,new_b,white,174,145,74,1674.9562724505085,None,1674.9562724505085,None,4,0.3097617409657687,1674.9562724505085,None,1675.307240134338,None,1675.8231951757334,None,1675.8231951757334,None,n,0.22677947767078876,1675.8231951757334,None,,,NC5,001,2019_Dec_03_1557,ProdSingRedo,3.2.4,59.9770194798855,
,,,,175,0,175,0,,,,,,,,,,,,,,,,,,,,,,,,1677.5737109731417,None,,,,,,,,,,,,,,,,,suggestion,new_b,white,175,136,314,1676.6067531045992,None,1676.6067531045992,None,4,0.06709533161483705,1676.6067531045992,None,1676.7114955792204,None,1677.2235145752784,None,1677.2235145752784,None,n,0.3066277706529945,1677.2235145752784,None,,,NC5,001,2019_Dec_03_1557,ProdSingRedo,3.2.4,59.9770194798855,
,,,,176,0,176,0,,,,,,,,,,,,,,,,,,,,,,,,1678.9908195224125,None,,,,,,,,,,,,,,,,,owner,new_c,white,176,150,208,1678.0904093103018,None,1678.0904093103018,None,4,0.15938122966326773,1678.0904093103018,None,1678.2937818195205,None,1678.807463744888,None,1678.807463744888,None,n,0.14633250515908003,1678.807463744888,None,,,NC5,001,2019_Dec_03_1557,ProdSingRedo,3.2.4,59.9770194798855,
,,,,177,0,177,0,,,,,,,,,,,,,,,,,,,,,,,,1680.2911084434018,None,,,,,,,,,,,,,,,,,permit,aloud,white,177,36,218,1679.5075592226349,None,1679.5075592226349,None,5,0.11021269438788295,1679.5075592226349,None,1679.657544450136,None,1680.1745485025458,None,1680.1745485025458,None,n,0.07531325705349445,1680.1745485025458,None,,,NC5,001,2019_Dec_03_1557,ProdSingRedo,3.2.4,59.9770194798855,
,,,,178,0,178,0,,,,,,,,,,,,,,,,,,,,,,,,1681.8083696947433,None,,,,,,,,,,,,,,,,,trial,new_b,white,178,141,341,1680.808116227854,None,1680.808116227854,None,5,0.3455434921197593,1680.808116227854,None,1681.1913855464663,None,1681.70835414459,None,1681.70835414459,None,n,0.05319228349253535,1681.70835414459,None,,,NC5,001,2019_Dec_03_1557,ProdSingRedo,3.2.4,59.9770194798855,
,,,,179,0,179,0,,,,,,,,,,,,,,,,,,,,,,,,1683.0419563914184,None,,,,,,,,,,,,,,,,,territory,new_c,white,179,177,324,1682.3251255671494,None,1682.3251255671494,None,5,0.004406902939081192,1682.3251255671494,None,1682.3751294547692,None,1682.891869777115,None,1682.891869777115,None,n,0.117634765105322,1682.891869777115,None,,,NC5,001,2019_Dec_03_1557,ProdSingRedo,3.2.4,59.9770194798855,
,,,,,,,,,,,,,,,,,,,,,,,,,,,,,,,,,,,,,,,,,,,,,,,,,,,,,,,,,,,,,,,,,,,,,,,,,1683.5422841878608,None,,,,,,,
