StudyLoop.thisRepN,StudyLoop.thisTrialN,StudyLoop.thisN,StudyLoop.thisIndex,TestLoop.thisRepN,TestLoop.thisTrialN,TestLoop.thisN,TestLoop.thisIndex,textCondition.started,textCondition.stopped,keyCondition.keys,keyCondition.rt,keyCondition.started,keyCondition.stopped,Condition,stim_colors,color_sing,color_aloud,color_silent,textWelcome.started,textWelcome.stopped,keyWelcome.keys,keyWelcome.rt,keyWelcome.started,keyWelcome.stopped,textAloud.started,textAloud.stopped,textSilent.started,textSilent.stopped,textSing.started,textSing.stopped,textBlank500.started,textBlank500.stopped,study_word,study_type,study_color,study_num,study_word_num,textStudy.started,textStudy.stopped,keyStudy.keys,keyStudy.started,keyStudy.stopped,textTestInstructions.started,textTestInstructions.stopped,key_resp_3.keys,key_resp_3.rt,key_resp_3.started,key_resp_3.stopped,testWord,testType,testColor,testN,test_num,test_word_num,textConf.started,textConf.stopped,textConfScale.started,textConfScale.stopped,keyConf.keys,keyConf.rt,keyConf.started,keyConf.stopped,textTestBlank.started,textTestBlank.stopped,textRKN.started,textRKN.stopped,textRKNScale.started,textRKNScale.stopped,keyRKN.keys,keyRKN.rt,keyRKN.started,keyRKN.stopped,textEnd.started,textEnd.stopped,participant,session,date,expName,psychopyVersion,frameRate,
,,,,,,,,11.910732690477744,None,n,0.9707122887484729,11.910732690477744,None,,,,,,,,,,,,,,,,,,,,,,,,,,,,,,,,,,,,,,,,,,,,,,,,,,,,,,,,,,,,,,NC6,001,2019_Dec_04_1446,ProdSingRedo,3.2.4,59.976571981129325,
,,,,,,,,,,,,,,NeutralTest,"['red', 'blue', 'yellow']",red,blue,yellow,12.915084235137329,None,space,1457.9332831583451,12.915084235137329,None,,,,,,,,,,,,,,,,,,,,,,,,,,,,,,,,,,,,,,,,,,,,,,,,,,,NC6,001,2019_Dec_04_1446,ProdSingRedo,3.2.4,59.976571981129325,
0,0,0,0,,,,,,,,,,,,,,,,,,,,,,12.915084235137329,None,12.915084235137329,None,12.915084235137329,None,1473.3915749469306,None,history,sing,red,7,153,1471.3939031104092,None,None,1471.3939031104092,None,,,,,,,,,,,,,,,,,,,,,,,,,,,,,,,,,NC6,001,2019_Dec_04_1446,ProdSingRedo,3.2.4,59.976571981129325,
1,0,1,0,,,,,,,,,,,,,,,,,,,,,,,,,,,,1475.9089509581681,None,population,silent,yellow,61,227,1473.9081930455286,None,None,1473.9081930455286,None,,,,,,,,,,,,,,,,,,,,,,,,,,,,,,,,,NC6,001,2019_Dec_04_1446,ProdSingRedo,3.2.4,59.976571981129325,
2,0,2,0,,,,,,,,,,,,,,,,,,,,,,,,,,,,1478.4264420401305,None,interview,sing,red,11,165,1476.4257136727683,None,None,1476.4257136727683,None,,,,,,,,,,,,,,,,,,,,,,,,,,,,,,,,,NC6,001,2019_Dec_04_1446,ProdSingRedo,3.2.4,59.976571981129325,
3,0,3,0,,,,,,,,,,,,,,,,,,,,,,,,,,,,1480.9438771416899,None,republic,aloud,blue,55,260,1478.9446334994864,None,None,1478.9446334994864,None,,,,,,,,,,,,,,,,,,,,,,,,,,,,,,,,,NC6,001,2019_Dec_04_1446,ProdSingRedo,3.2.4,59.976571981129325,
4,0,4,0,,,,,,,,,,,,,,,,,,,,,,,,,,,,1483.4613172193058,None,damage,sing,red,28,83,1481.460628660163,None,None,1481.460628660163,None,,,,,,,,,,,,,,,,,,,,,,,,,,,,,,,,,NC6,001,2019_Dec_04_1446,ProdSingRedo,3.2.4,59.976571981129325,
5,0,5,0,,,,,,,,,,,,,,,,,,,,,,,,,,,,1485.9620745100547,None,short,aloud,blue,31,285,1483.9613249944523,None,None,1483.9613249944523,None,,,,,,,,,,,,,,,,,,,,,,,,,,,,,,,,,NC6,001,2019_Dec_04_1446,ProdSingRedo,3.2.4,59.976571981129325,
6,0,6,0,,,,,,,,,,,,,,,,,,,,,,,,,,,,1488.4795285828877,None,count,sing,red,21,72,1486.4788602387998,None,None,1486.4788602387998,None,,,,,,,,,,,,,,,,,,,,,,,,,,,,,,,,,NC6,001,2019_Dec_04_1446,ProdSingRedo,3.2.4,59.976571981129325,
7,0,7,0,,,,,,,,,,,,,,,,,,,,,,,,,,,,1490.9966809833422,None,husband,silent,yellow,72,156,1488.9961373512633,None,None,1488.9961373512633,None,,,,,,,,,,,,,,,,,,,,,,,,,,,,,,,,,NC6,001,2019_Dec_04_1446,ProdSingRedo,3.2.4,59.976571981129325,
8,0,8,0,,,,,,,,,,,,,,,,,,,,,,,,,,,,1493.5144115369767,None,pressure,sing,red,27,232,1491.5137388389558,None,None,1491.5137388389558,None,,,,,,,,,,,,,,,,,,,,,,,,,,,,,,,,,NC6,001,2019_Dec_04_1446,ProdSingRedo,3.2.4,59.976571981129325,
9,0,9,0,,,,,,,,,,,,,,,,,,,,,,,,,,,,1496.0318404186983,None,design,aloud,blue,51,91,1494.0311773617286,None,None,1494.0311773617286,None,,,,,,,,,,,,,,,,,,,,,,,,,,,,,,,,,NC6,001,2019_Dec_04_1446,ProdSingRedo,3.2.4,59.976571981129325,
10,0,10,0,,,,,,,,,,,,,,,,,,,,,,,,,,,,1498.549285161309,None,material,sing,red,19,182,1496.54862832441,None,None,1496.54862832441,None,,,,,,,,,,,,,,,,,,,,,,,,,,,,,,,,,NC6,001,2019_Dec_04_1446,ProdSingRedo,3.2.4,59.976571981129325,
11,0,11,0,,,,,,,,,,,,,,,,,,,,,,,,,,,,1501.050033743959,None,youth,silent,yellow,77,359,1499.0492596591357,None,None,1499.0492596591357,None,,,,,,,,,,,,,,,,,,,,,,,,,,,,,,,,,NC6,001,2019_Dec_04_1446,ProdSingRedo,3.2.4,59.976571981129325,
12,0,12,0,,,,,,,,,,,,,,,,,,,,,,,,,,,,1503.5675248259213,None,safety,aloud,blue,49,270,1501.5666928945575,None,None,1501.5666928945575,None,,,,,,,,,,,,,,,,,,,,,,,,,,,,,,,,,NC6,001,2019_Dec_04_1446,ProdSingRedo,3.2.4,59.976571981129325,
13,0,13,0,,,,,,,,,,,,,,,,,,,,,,,,,,,,1506.0849468654487,None,direction,aloud,blue,41,94,1504.0842987364158,None,None,1504.0842987364158,None,,,,,,,,,,,,,,,,,,,,,,,,,,,,,,,,,NC6,001,2019_Dec_04_1446,ProdSingRedo,3.2.4,59.976571981129325,
14,0,14,0,,,,,,,,,,,,,,,,,,,,,,,,,,,,1508.6022808912676,None,people,aloud,blue,37,216,1506.6016971399076,None,None,1506.6016971399076,None,,,,,,,,,,,,,,,,,,,,,,,,,,,,,,,,,NC6,001,2019_Dec_04_1446,ProdSingRedo,3.2.4,59.976571981129325,
15,0,15,0,,,,,,,,,,,,,,,,,,,,,,,,,,,,1511.1198018293362,None,scale,silent,yellow,88,272,1509.1190687969793,None,None,1509.1190687969793,None,,,,,,,,,,,,,,,,,,,,,,,,,,,,,,,,,NC6,001,2019_Dec_04_1446,ProdSingRedo,3.2.4,59.976571981129325,
16,0,16,0,,,,,,,,,,,,,,,,,,,,,,,,,,,,1513.6372415961232,None,device,silent,yellow,80,93,1511.6365539699327,None,None,1511.6365539699327,None,,,,,,,,,,,,,,,,,,,,,,,,,,,,,,,,,NC6,001,2019_Dec_04_1446,ProdSingRedo,3.2.4,59.976571981129325,
17,0,17,0,,,,,,,,,,,,,,,,,,,,,,,,,,,,1516.1546770087443,None,addition,silent,yellow,65,2,1514.1538584504742,None,None,1514.1538584504742,None,,,,,,,,,,,,,,,,,,,,,,,,,,,,,,,,,NC6,001,2019_Dec_04_1446,ProdSingRedo,3.2.4,59.976571981129325,
18,0,18,0,,,,,,,,,,,,,,,,,,,,,,,,,,,,1518.6719836662523,None,title,aloud,blue,35,331,1516.6714599383995,None,None,1516.6714599383995,None,,,,,,,,,,,,,,,,,,,,,,,,,,,,,,,,,NC6,001,2019_Dec_04_1446,ProdSingRedo,3.2.4,59.976571981129325,
19,0,19,0,,,,,,,,,,,,,,,,,,,,,,,,,,,,1521.1894588870928,None,country,sing,red,3,73,1519.1888909968548,None,None,1519.1888909968548,None,,,,,,,,,,,,,,,,,,,,,,,,,,,,,,,,,NC6,001,2019_Dec_04_1446,ProdSingRedo,3.2.4,59.976571981129325,
20,0,20,0,,,,,,,,,,,,,,,,,,,,,,,,,,,,1523.6903234736528,None,commercial,aloud,blue,54,61,1521.6895105135627,None,None,1521.6895105135627,None,,,,,,,,,,,,,,,,,,,,,,,,,,,,,,,,,NC6,001,2019_Dec_04_1446,ProdSingRedo,3.2.4,59.976571981129325,
21,0,21,0,,,,,,,,,,,,,,,,,,,,,,,,,,,,1526.2077582641505,None,beauty,sing,red,26,18,1524.2071182213258,None,None,1524.2071182213258,None,,,,,,,,,,,,,,,,,,,,,,,,,,,,,,,,,NC6,001,2019_Dec_04_1446,ProdSingRedo,3.2.4,59.976571981129325,
22,0,22,0,,,,,,,,,,,,,,,,,,,,,,,,,,,,1528.7251504475717,None,style,silent,yellow,89,311,1526.7245231557172,None,None,1526.7245231557172,None,,,,,,,,,,,,,,,,,,,,,,,,,,,,,,,,,NC6,001,2019_Dec_04_1446,ProdSingRedo,3.2.4,59.976571981129325,
23,0,23,0,,,,,,,,,,,,,,,,,,,,,,,,,,,,1531.2426337543875,None,graduate,aloud,blue,30,141,1529.2419843815733,None,None,1529.2419843815733,None,,,,,,,,,,,,,,,,,,,,,,,,,,,,,,,,,NC6,001,2019_Dec_04_1446,ProdSingRedo,3.2.4,59.976571981129325,
24,0,24,0,,,,,,,,,,,,,,,,,,,,,,,,,,,,1533.7598853646778,None,dream,silent,yellow,86,104,1531.7594020669349,None,None,1531.7594020669349,None,,,,,,,,,,,,,,,,,,,,,,,,,,,,,,,,,NC6,001,2019_Dec_04_1446,ProdSingRedo,3.2.4,59.976571981129325,
25,0,25,0,,,,,,,,,,,,,,,,,,,,,,,,,,,,1536.2774890295696,None,distance,silent,yellow,68,100,1534.2768104223069,None,None,1534.2768104223069,None,,,,,,,,,,,,,,,,,,,,,,,,,,,,,,,,,NC6,001,2019_Dec_04_1446,ProdSingRedo,3.2.4,59.976571981129325,
26,0,26,0,,,,,,,,,,,,,,,,,,,,,,,,,,,,1538.7949508773163,None,weight,silent,yellow,81,353,1536.7942119357176,None,None,1536.7942119357176,None,,,,,,,,,,,,,,,,,,,,,,,,,,,,,,,,,NC6,001,2019_Dec_04_1446,ProdSingRedo,3.2.4,59.976571981129325,
27,0,27,0,,,,,,,,,,,,,,,,,,,,,,,,,,,,1541.3123623426072,None,trash,sing,red,10,337,1539.3117263428867,None,None,1539.3117263428867,None,,,,,,,,,,,,,,,,,,,,,,,,,,,,,,,,,NC6,001,2019_Dec_04_1446,ProdSingRedo,3.2.4,59.976571981129325,
28,0,28,0,,,,,,,,,,,,,,,,,,,,,,,,,,,,1543.829613019945,None,state,aloud,blue,42,303,1541.8291710854974,None,None,1541.8291710854974,None,,,,,,,,,,,,,,,,,,,,,,,,,,,,,,,,,NC6,001,2019_Dec_04_1446,ProdSingRedo,3.2.4,59.976571981129325,
29,0,29,0,,,,,,,,,,,,,,,,,,,,,,,,,,,,1546.3305830361787,None,public,silent,yellow,66,244,1544.329663402401,None,None,1544.329663402401,None,,,,,,,,,,,,,,,,,,,,,,,,,,,,,,,,,NC6,001,2019_Dec_04_1446,ProdSingRedo,3.2.4,59.976571981129325,
30,0,30,0,,,,,,,,,,,,,,,,,,,,,,,,,,,,1548.8480315108318,None,career,aloud,blue,47,42,1546.8473448178265,None,None,1546.8473448178265,None,,,,,,,,,,,,,,,,,,,,,,,,,,,,,,,,,NC6,001,2019_Dec_04_1446,ProdSingRedo,3.2.4,59.976571981129325,
31,0,31,0,,,,,,,,,,,,,,,,,,,,,,,,,,,,1551.3651608971413,None,novel,silent,yellow,75,202,1549.3647105658893,None,None,1549.3647105658893,None,,,,,,,,,,,,,,,,,,,,,,,,,,,,,,,,,NC6,001,2019_Dec_04_1446,ProdSingRedo,3.2.4,59.976571981129325,
32,0,32,0,,,,,,,,,,,,,,,,,,,,,,,,,,,,1553.882912288187,None,instrument,sing,red,2,163,1551.8820685388055,None,None,1551.8820685388055,None,,,,,,,,,,,,,,,,,,,,,,,,,,,,,,,,,NC6,001,2019_Dec_04_1446,ProdSingRedo,3.2.4,59.976571981129325,
33,0,33,0,,,,,,,,,,,,,,,,,,,,,,,,,,,,1556.4003026054706,None,council,sing,red,14,71,1554.39966100757,None,None,1554.39966100757,None,,,,,,,,,,,,,,,,,,,,,,,,,,,,,,,,,NC6,001,2019_Dec_04_1446,ProdSingRedo,3.2.4,59.976571981129325,
34,0,34,0,,,,,,,,,,,,,,,,,,,,,,,,,,,,1558.917777826311,None,passage,sing,red,9,212,1556.9171710608061,None,None,1556.9171710608061,None,,,,,,,,,,,,,,,,,,,,,,,,,,,,,,,,,NC6,001,2019_Dec_04_1446,ProdSingRedo,3.2.4,59.976571981129325,
35,0,35,0,,,,,,,,,,,,,,,,,,,,,,,,,,,,1561.4352275449783,None,alert,sing,red,0,6,1559.4345464499202,None,None,1559.4345464499202,None,,,,,,,,,,,,,,,,,,,,,,,,,,,,,,,,,NC6,001,2019_Dec_04_1446,ProdSingRedo,3.2.4,59.976571981129325,
36,0,36,0,,,,,,,,,,,,,,,,,,,,,,,,,,,,1563.9526561154053,None,expansion,silent,yellow,82,123,1561.951876432635,None,None,1561.951876432635,None,,,,,,,,,,,,,,,,,,,,,,,,,,,,,,,,,NC6,001,2019_Dec_04_1446,ProdSingRedo,3.2.4,59.976571981129325,
37,0,37,0,,,,,,,,,,,,,,,,,,,,,,,,,,,,1566.4701415994205,None,store,aloud,blue,53,305,1564.4694502411876,None,None,1564.4694502411876,None,,,,,,,,,,,,,,,,,,,,,,,,,,,,,,,,,NC6,001,2019_Dec_04_1446,ProdSingRedo,3.2.4,59.976571981129325,
38,0,38,0,,,,,,,,,,,,,,,,,,,,,,,,,,,,1568.9875294286758,None,phrase,silent,yellow,64,220,1566.9869049359113,None,None,1566.9869049359113,None,,,,,,,,,,,,,,,,,,,,,,,,,,,,,,,,,NC6,001,2019_Dec_04_1446,ProdSingRedo,3.2.4,59.976571981129325,
39,0,39,0,,,,,,,,,,,,,,,,,,,,,,,,,,,,1571.504967640387,None,south,silent,yellow,83,296,1569.5042971193325,None,None,1569.5042971193325,None,,,,,,,,,,,,,,,,,,,,,,,,,,,,,,,,,NC6,001,2019_Dec_04_1446,ProdSingRedo,3.2.4,59.976571981129325,
40,0,40,0,,,,,,,,,,,,,,,,,,,,,,,,,,,,1574.022155184066,None,general,aloud,blue,45,135,1572.021760522155,None,None,1572.021760522155,None,,,,,,,,,,,,,,,,,,,,,,,,,,,,,,,,,NC6,001,2019_Dec_04_1446,ProdSingRedo,3.2.4,59.976571981129325,
41,0,41,0,,,,,,,,,,,,,,,,,,,,,,,,,,,,1576.5398956898134,None,report,silent,yellow,79,259,1574.5391480403487,None,None,1574.5391480403487,None,,,,,,,,,,,,,,,,,,,,,,,,,,,,,,,,,NC6,001,2019_Dec_04_1446,ProdSingRedo,3.2.4,59.976571981129325,
42,0,42,0,,,,,,,,,,,,,,,,,,,,,,,,,,,,1579.057271701051,None,spoke,sing,red,4,300,1577.0567097198218,None,None,1577.0567097198218,None,,,,,,,,,,,,,,,,,,,,,,,,,,,,,,,,,NC6,001,2019_Dec_04_1446,ProdSingRedo,3.2.4,59.976571981129325,
43,0,43,0,,,,,,,,,,,,,,,,,,,,,,,,,,,,1581.5746343391947,None,throw,aloud,blue,43,330,1579.561311621219,None,None,1579.561311621219,None,,,,,,,,,,,,,,,,,,,,,,,,,,,,,,,,,NC6,001,2019_Dec_04_1446,ProdSingRedo,3.2.4,59.976571981129325,
44,0,44,0,,,,,,,,,,,,,,,,,,,,,,,,,,,,1584.0921048950404,None,music,silent,yellow,67,196,1582.091509014601,None,None,1582.091509014601,None,,,,,,,,,,,,,,,,,,,,,,,,,,,,,,,,,NC6,001,2019_Dec_04_1446,ProdSingRedo,3.2.4,59.976571981129325,
45,0,45,0,,,,,,,,,,,,,,,,,,,,,,,,,,,,1586.609548393637,None,territory,aloud,blue,39,324,1584.6087973229587,None,None,1584.6087973229587,None,,,,,,,,,,,,,,,,,,,,,,,,,,,,,,,,,NC6,001,2019_Dec_04_1446,ProdSingRedo,3.2.4,59.976571981129325,
46,0,46,0,,,,,,,,,,,,,,,,,,,,,,,,,,,,1589.1270624897443,None,express,aloud,blue,46,124,1587.1262535727583,None,None,1587.1262535727583,None,,,,,,,,,,,,,,,,,,,,,,,,,,,,,,,,,NC6,001,2019_Dec_04_1446,ProdSingRedo,3.2.4,59.976571981129325,
47,0,47,0,,,,,,,,,,,,,,,,,,,,,,,,,,,,1591.644449697109,None,estate,silent,yellow,63,119,1589.6438280034345,None,None,1589.6438280034345,None,,,,,,,,,,,,,,,,,,,,,,,,,,,,,,,,,NC6,001,2019_Dec_04_1446,ProdSingRedo,3.2.4,59.976571981129325,
48,0,48,0,,,,,,,,,,,,,,,,,,,,,,,,,,,,1594.1617974070832,None,rural,sing,red,17,269,1592.1611016946845,None,None,1592.1611016946845,None,,,,,,,,,,,,,,,,,,,,,,,,,,,,,,,,,NC6,001,2019_Dec_04_1446,ProdSingRedo,3.2.4,59.976571981129325,
49,0,49,0,,,,,,,,,,,,,,,,,,,,,,,,,,,,1596.6793587754946,None,working,sing,red,5,357,1594.6675151847303,None,None,1594.6675151847303,None,,,,,,,,,,,,,,,,,,,,,,,,,,,,,,,,,NC6,001,2019_Dec_04_1446,ProdSingRedo,3.2.4,59.976571981129325,
50,0,50,0,,,,,,,,,,,,,,,,,,,,,,,,,,,,1599.196803829167,None,profession,silent,yellow,74,241,1597.1961575662717,None,None,1597.1961575662717,None,,,,,,,,,,,,,,,,,,,,,,,,,,,,,,,,,NC6,001,2019_Dec_04_1446,ProdSingRedo,3.2.4,59.976571981129325,
51,0,51,0,,,,,,,,,,,,,,,,,,,,,,,,,,,,1601.7142233806662,None,salary,aloud,blue,59,271,1599.7137481691316,None,None,1599.7137481691316,None,,,,,,,,,,,,,,,,,,,,,,,,,,,,,,,,,NC6,001,2019_Dec_04_1446,ProdSingRedo,3.2.4,59.976571981129325,
52,0,52,0,,,,,,,,,,,,,,,,,,,,,,,,,,,,1604.2313972401898,None,signal,silent,yellow,62,287,1602.231016884325,None,None,1602.231016884325,None,,,,,,,,,,,,,,,,,,,,,,,,,,,,,,,,,NC6,001,2019_Dec_04_1446,ProdSingRedo,3.2.4,59.976571981129325,
53,0,53,0,,,,,,,,,,,,,,,,,,,,,,,,,,,,1606.7490789666772,None,article,sing,red,1,11,1604.7484603831545,None,None,1604.7484603831545,None,,,,,,,,,,,,,,,,,,,,,,,,,,,,,,,,,NC6,001,2019_Dec_04_1446,ProdSingRedo,3.2.4,59.976571981129325,
54,0,54,0,,,,,,,,,,,,,,,,,,,,,,,,,,,,1609.2665498335846,None,number,silent,yellow,85,203,1607.2658873985056,None,None,1607.2658873985056,None,,,,,,,,,,,,,,,,,,,,,,,,,,,,,,,,,NC6,001,2019_Dec_04_1446,ProdSingRedo,3.2.4,59.976571981129325,
55,0,55,0,,,,,,,,,,,,,,,,,,,,,,,,,,,,1611.7838549362496,None,society,aloud,blue,40,293,1609.7833476914093,None,None,1609.7833476914093,None,,,,,,,,,,,,,,,,,,,,,,,,,,,,,,,,,NC6,001,2019_Dec_04_1446,ProdSingRedo,3.2.4,59.976571981129325,
56,0,56,0,,,,,,,,,,,,,,,,,,,,,,,,,,,,1614.3014324768446,None,swift,aloud,blue,38,320,1612.300766620785,None,None,1612.300766620785,None,,,,,,,,,,,,,,,,,,,,,,,,,,,,,,,,,NC6,001,2019_Dec_04_1446,ProdSingRedo,3.2.4,59.976571981129325,
57,0,57,0,,,,,,,,,,,,,,,,,,,,,,,,,,,,1616.8188741095364,None,present,sing,red,13,231,1614.8180766995065,None,None,1614.8180766995065,None,,,,,,,,,,,,,,,,,,,,,,,,,,,,,,,,,NC6,001,2019_Dec_04_1446,ProdSingRedo,3.2.4,59.976571981129325,
58,0,58,0,,,,,,,,,,,,,,,,,,,,,,,,,,,,1619.3363182300236,None,production,aloud,blue,52,240,1617.3354962510057,None,None,1617.3354962510057,None,,,,,,,,,,,,,,,,,,,,,,,,,,,,,,,,,NC6,001,2019_Dec_04_1446,ProdSingRedo,3.2.4,59.976571981129325,
59,0,59,0,,,,,,,,,,,,,,,,,,,,,,,,,,,,1621.8537751019467,None,shear,sing,red,18,283,1619.8530566864647,None,None,1619.8530566864647,None,,,,,,,,,,,,,,,,,,,,,,,,,,,,,,,,,NC6,001,2019_Dec_04_1446,ProdSingRedo,3.2.4,59.976571981129325,
60,0,60,0,,,,,,,,,,,,,,,,,,,,,,,,,,,,1624.3711794142146,None,under,sing,red,20,343,1622.3705371944234,None,None,1622.3705371944234,None,,,,,,,,,,,,,,,,,,,,,,,,,,,,,,,,,NC6,001,2019_Dec_04_1446,ProdSingRedo,3.2.4,59.976571981129325,
61,0,61,0,,,,,,,,,,,,,,,,,,,,,,,,,,,,1626.8886117169168,None,smooth,sing,red,29,292,1624.8878289239947,None,None,1624.8878289239947,None,,,,,,,,,,,,,,,,,,,,,,,,,,,,,,,,,NC6,001,2019_Dec_04_1446,ProdSingRedo,3.2.4,59.976571981129325,
62,0,62,0,,,,,,,,,,,,,,,,,,,,,,,,,,,,1629.406038421439,None,agreement,sing,red,6,5,1627.405407708604,None,None,1627.405407708604,None,,,,,,,,,,,,,,,,,,,,,,,,,,,,,,,,,NC6,001,2019_Dec_04_1446,ProdSingRedo,3.2.4,59.976571981129325,
63,0,63,0,,,,,,,,,,,,,,,,,,,,,,,,,,,,1631.9235024461523,None,minute,aloud,blue,36,192,1629.9228695563506,None,None,1629.9228695563506,None,,,,,,,,,,,,,,,,,,,,,,,,,,,,,,,,,NC6,001,2019_Dec_04_1446,ProdSingRedo,3.2.4,59.976571981129325,
64,0,64,0,,,,,,,,,,,,,,,,,,,,,,,,,,,,1634.4409108015243,None,trend,sing,red,16,340,1632.440271380823,None,None,1632.440271380823,None,,,,,,,,,,,,,,,,,,,,,,,,,,,,,,,,,NC6,001,2019_Dec_04_1446,ProdSingRedo,3.2.4,59.976571981129325,
65,0,65,0,,,,,,,,,,,,,,,,,,,,,,,,,,,,1636.9582025310956,None,symbol,aloud,blue,44,321,1634.9577260755468,None,None,1634.9577260755468,None,,,,,,,,,,,,,,,,,,,,,,,,,,,,,,,,,NC6,001,2019_Dec_04_1446,ProdSingRedo,3.2.4,59.976571981129325,
66,0,66,0,,,,,,,,,,,,,,,,,,,,,,,,,,,,1639.4756438527256,None,suggestion,silent,yellow,87,314,1637.4751540240832,None,None,1637.4751540240832,None,,,,,,,,,,,,,,,,,,,,,,,,,,,,,,,,,NC6,001,2019_Dec_04_1446,ProdSingRedo,3.2.4,59.976571981129325,
67,0,67,0,,,,,,,,,,,,,,,,,,,,,,,,,,,,1641.9932518715505,None,stand,sing,red,8,302,1639.9925875705667,None,None,1639.9925875705667,None,,,,,,,,,,,,,,,,,,,,,,,,,,,,,,,,,NC6,001,2019_Dec_04_1446,ProdSingRedo,3.2.4,59.976571981129325,
68,0,68,0,,,,,,,,,,,,,,,,,,,,,,,,,,,,1644.5106073566712,None,individual,aloud,blue,50,160,1642.5099769548979,None,None,1642.5099769548979,None,,,,,,,,,,,,,,,,,,,,,,,,,,,,,,,,,NC6,001,2019_Dec_04_1446,ProdSingRedo,3.2.4,59.976571981129325,
69,0,69,0,,,,,,,,,,,,,,,,,,,,,,,,,,,,1647.0281239408068,None,route,aloud,blue,58,267,1645.027468347922,None,None,1645.027468347922,None,,,,,,,,,,,,,,,,,,,,,,,,,,,,,,,,,NC6,001,2019_Dec_04_1446,ProdSingRedo,3.2.4,59.976571981129325,
70,0,70,0,,,,,,,,,,,,,,,,,,,,,,,,,,,,1649.5456243527588,None,bureau,silent,yellow,78,37,1647.5447345750872,None,None,1647.5447345750872,None,,,,,,,,,,,,,,,,,,,,,,,,,,,,,,,,,NC6,001,2019_Dec_04_1446,ProdSingRedo,3.2.4,59.976571981129325,
71,0,71,0,,,,,,,,,,,,,,,,,,,,,,,,,,,,1652.0628174946178,None,guard,silent,yellow,71,145,1650.0623391729314,None,None,1650.0623391729314,None,,,,,,,,,,,,,,,,,,,,,,,,,,,,,,,,,NC6,001,2019_Dec_04_1446,ProdSingRedo,3.2.4,59.976571981129325,
72,0,72,0,,,,,,,,,,,,,,,,,,,,,,,,,,,,1654.5637797357049,None,equipment,silent,yellow,76,116,1652.5629409626126,None,None,1652.5629409626126,None,,,,,,,,,,,,,,,,,,,,,,,,,,,,,,,,,NC6,001,2019_Dec_04_1446,ProdSingRedo,3.2.4,59.976571981129325,
73,0,73,0,,,,,,,,,,,,,,,,,,,,,,,,,,,,1657.0811995982658,None,quarter,sing,red,25,246,1655.0805477374233,None,None,1655.0805477374233,None,,,,,,,,,,,,,,,,,,,,,,,,,,,,,,,,,NC6,001,2019_Dec_04_1446,ProdSingRedo,3.2.4,59.976571981129325,
74,0,74,0,,,,,,,,,,,,,,,,,,,,,,,,,,,,1659.5986514938995,None,management,sing,red,24,177,1657.597989370115,None,None,1657.597989370115,None,,,,,,,,,,,,,,,,,,,,,,,,,,,,,,,,,NC6,001,2019_Dec_04_1446,ProdSingRedo,3.2.4,59.976571981129325,
75,0,75,0,,,,,,,,,,,,,,,,,,,,,,,,,,,,1662.1161030787043,None,government,sing,red,23,139,1660.1030671051703,None,None,1660.1030671051703,None,,,,,,,,,,,,,,,,,,,,,,,,,,,,,,,,,NC6,001,2019_Dec_04_1446,ProdSingRedo,3.2.4,59.976571981129325,
76,0,76,0,,,,,,,,,,,,,,,,,,,,,,,,,,,,1664.633546266472,None,strength,aloud,blue,34,310,1662.632715890184,None,None,1662.632715890184,None,,,,,,,,,,,,,,,,,,,,,,,,,,,,,,,,,NC6,001,2019_Dec_04_1446,ProdSingRedo,3.2.4,59.976571981129325,
77,0,77,0,,,,,,,,,,,,,,,,,,,,,,,,,,,,1667.134286451852,None,minor,silent,yellow,84,191,1665.1334719369188,None,None,1665.1334719369188,None,,,,,,,,,,,,,,,,,,,,,,,,,,,,,,,,,NC6,001,2019_Dec_04_1446,ProdSingRedo,3.2.4,59.976571981129325,
78,0,78,0,,,,,,,,,,,,,,,,,,,,,,,,,,,,1669.6516061716247,None,column,aloud,blue,32,57,1667.6510743575636,None,None,1667.6510743575636,None,,,,,,,,,,,,,,,,,,,,,,,,,,,,,,,,,NC6,001,2019_Dec_04_1446,ProdSingRedo,3.2.4,59.976571981129325,
79,0,79,0,,,,,,,,,,,,,,,,,,,,,,,,,,,,1672.16908605746,None,corner,silent,yellow,70,69,1670.168493598234,None,None,1670.168493598234,None,,,,,,,,,,,,,,,,,,,,,,,,,,,,,,,,,NC6,001,2019_Dec_04_1446,ProdSingRedo,3.2.4,59.976571981129325,
80,0,80,0,,,,,,,,,,,,,,,,,,,,,,,,,,,,1674.686620368855,None,community,sing,red,12,63,1672.6858039877843,None,None,1672.6858039877843,None,,,,,,,,,,,,,,,,,,,,,,,,,,,,,,,,,NC6,001,2019_Dec_04_1446,ProdSingRedo,3.2.4,59.976571981129325,
81,0,81,0,,,,,,,,,,,,,,,,,,,,,,,,,,,,1677.2039494186174,None,danger,sing,red,15,85,1675.2032680124976,None,None,1675.2032680124976,None,,,,,,,,,,,,,,,,,,,,,,,,,,,,,,,,,NC6,001,2019_Dec_04_1446,ProdSingRedo,3.2.4,59.976571981129325,
82,0,82,0,,,,,,,,,,,,,,,,,,,,,,,,,,,,1679.7214911940973,None,company,silent,yellow,69,64,1677.7086038794369,None,None,1677.7086038794369,None,,,,,,,,,,,,,,,,,,,,,,,,,,,,,,,,,NC6,001,2019_Dec_04_1446,ProdSingRedo,3.2.4,59.976571981129325,
83,0,83,0,,,,,,,,,,,,,,,,,,,,,,,,,,,,1682.2389210085385,None,death,aloud,blue,56,86,1680.2382688366342,None,None,1680.2382688366342,None,,,,,,,,,,,,,,,,,,,,,,,,,,,,,,,,,NC6,001,2019_Dec_04_1446,ProdSingRedo,3.2.4,59.976571981129325,
84,0,84,0,,,,,,,,,,,,,,,,,,,,,,,,,,,,1684.7561427627224,None,shock,aloud,blue,57,284,1682.755538174184,None,None,1682.755538174184,None,,,,,,,,,,,,,,,,,,,,,,,,,,,,,,,,,NC6,001,2019_Dec_04_1446,ProdSingRedo,3.2.4,59.976571981129325,
85,0,85,0,,,,,,,,,,,,,,,,,,,,,,,,,,,,1687.2737759726588,None,pattern,aloud,blue,48,214,1685.2731340639293,None,None,1685.2731340639293,None,,,,,,,,,,,,,,,,,,,,,,,,,,,,,,,,,NC6,001,2019_Dec_04_1446,ProdSingRedo,3.2.4,59.976571981129325,
86,0,86,0,,,,,,,,,,,,,,,,,,,,,,,,,,,,1689.7912129403558,None,executive,silent,yellow,60,122,1687.7905470842961,None,None,1687.7905470842961,None,,,,,,,,,,,,,,,,,,,,,,,,,,,,,,,,,NC6,001,2019_Dec_04_1446,ProdSingRedo,3.2.4,59.976571981129325,
87,0,87,0,,,,,,,,,,,,,,,,,,,,,,,,,,,,1692.3086184966378,None,brief,sing,red,22,28,1690.30802012817,None,None,1690.30802012817,None,,,,,,,,,,,,,,,,,,,,,,,,,,,,,,,,,NC6,001,2019_Dec_04_1446,ProdSingRedo,3.2.4,59.976571981129325,
88,0,88,0,,,,,,,,,,,,,,,,,,,,,,,,,,,,1694.809435499832,None,still,silent,yellow,73,304,1692.8086100996006,None,None,1692.8086100996006,None,,,,,,,,,,,,,,,,,,,,,,,,,,,,,,,,,NC6,001,2019_Dec_04_1446,ProdSingRedo,3.2.4,59.976571981129325,
89,0,89,0,,,,,,,,,,,,,,,,,,,,,,,,,,,,1697.326818041969,None,rough,aloud,blue,33,266,1695.3261325927451,None,None,1695.3261325927451,None,,,,,,,,,,,,,,,,,,,,,,,,,,,,,,,,,NC6,001,2019_Dec_04_1446,ProdSingRedo,3.2.4,59.976571981129325,
,,,,,,,,,,,,,,,,,,,,,,,,,,,,,,,,,,,,,,,,,,,1697.8270301455632,None,k,99.96108458959498,1697.8270301455632,None,,,,,,,,,,,,,,,,,,,,,,,,,,,NC6,001,2019_Dec_04_1446,ProdSingRedo,3.2.4,59.976571981129325,
,,,,0,0,0,0,,,,,,,,,,,,,,,,,,,,,,,,1806.5434824798722,None,,,,,,,,,,,,,,,,,number,silent,white,0,85,203,1798.3304458842613,None,1798.3304458842613,None,1,3.0813373723067343,1798.3304458842613,None,1801.444522160571,None,1801.9753763906192,None,1801.9753763906192,None,n,4.54800880770199,1801.9753763906192,None,,,NC6,001,2019_Dec_04_1446,ProdSingRedo,3.2.4,59.976571981129325,
,,,,1,0,1,0,,,,,,,,,,,,,,,,,,,,,,,,1811.2791861691512,None,,,,,,,,,,,,,,,,,thick,new_a,white,1,111,327,1807.0609990640078,None,1807.0609990640078,None,1,2.1905091418884695,1807.0609990640078,None,1809.2954836243298,None,1809.8113469202071,None,1809.8113469202071,None,n,1.4477656036615372,1809.8113469202071,None,,,NC6,001,2019_Dec_04_1446,ProdSingRedo,3.2.4,59.976571981129325,
,,,,2,0,2,0,,,,,,,,,,,,,,,,,,,,,,,,1814.3793951626867,None,,,,,,,,,,,,,,,,,block,new_c,white,2,151,25,1811.7991092894226,None,1811.7991092894226,None,1,1.2598962497431785,1811.7991092894226,None,1813.0841802447103,None,1813.6122721519787,None,1813.6122721519787,None,n,0.7187730334699154,1813.6122721519787,None,,,NC6,001,2019_Dec_04_1446,ProdSingRedo,3.2.4,59.976571981129325,
,,,,3,0,3,0,,,,,,,,,,,,,,,,,,,,,,,,1819.3850460750982,None,,,,,,,,,,,,,,,,,guard,silent,white,3,71,145,1814.8960667536594,None,1814.8960667536594,None,3,2.8025340468157083,1814.8960667536594,None,1817.7302082784008,None,1818.230327081168,None,1818.230327081168,None,f,1.124576026108116,1818.230327081168,None,,,NC6,001,2019_Dec_04_1446,ProdSingRedo,3.2.4,59.976571981129325,
,,,,4,0,4,0,,,,,,,,,,,,,,,,,,,,,,,,1823.3529618307948,None,,,,,,,,,,,,,,,,,oxygen,new_a,white,4,98,209,1819.899364311248,None,1819.899364311248,None,1,1.6074214484542608,1819.899364311248,None,1821.5545062683523,None,1822.0649273344316,None,1822.0649273344316,None,n,1.2578255960252136,1822.0649273344316,None,,,NC6,001,2019_Dec_04_1446,ProdSingRedo,3.2.4,59.976571981129325,
,,,,5,0,5,0,,,,,,,,,,,,,,,,,,,,,,,,1827.9500614230055,None,,,,,,,,,,,,,,,,,spoke,sing,white,5,4,300,1823.882080667885,None,1823.882080667885,None,6,2.5201989794149995,1823.882080667885,None,1826.4530884088017,None,1826.9664217005484,None,1826.9664217005484,None,r,0.9635511490050703,1826.9664217005484,None,,,NC6,001,2019_Dec_04_1446,ProdSingRedo,3.2.4,59.976571981129325,
,,,,6,0,6,0,,,,,,,,,,,,,,,,,,,,,,,,1831.217688568635,None,,,,,,,,,,,,,,,,,smooth,sing,white,6,29,292,1828.466929878341,None,1828.466929878341,None,6,1.7349162315949798,1828.466929878341,None,1830.2353093386628,None,1830.7508827801794,None,1830.7508827801794,None,r,0.4429211204405874,1830.7508827801794,None,,,NC6,001,2019_Dec_04_1446,ProdSingRedo,3.2.4,59.976571981129325,
,,,,7,0,7,0,,,,,,,,,,,,,,,,,,,,,,,,1834.952359419316,None,,,,,,,,,,,,,,,,,place,new_b,white,7,134,222,1831.7345408517867,None,1831.7345408517867,None,1,1.7872206033207476,1831.7345408517867,None,1833.569351031445,None,1834.085412435932,None,1834.085412435932,None,n,0.8283453742042184,1834.085412435932,None,,,NC6,001,2019_Dec_04_1446,ProdSingRedo,3.2.4,59.976571981129325,
,,,,8,0,8,0,,,,,,,,,,,,,,,,,,,,,,,,1842.8547892805655,None,,,,,,,,,,,,,,,,,salary,aloud,white,8,59,271,1835.4692456016783,None,1835.4692456016783,None,6,1.740718913031742,1835.4692456016783,None,1837.254287944641,None,1837.7536631410476,None,1837.7536631410476,None,r,5.055893027456477,1837.7536631410476,None,,,NC6,001,2019_Dec_04_1446,ProdSingRedo,3.2.4,59.976571981129325,
,,,,9,0,9,0,,,,,,,,,,,,,,,,,,,,,,,,1846.4059127764776,None,,,,,,,,,,,,,,,,,bitter,new_c,white,9,161,23,1843.37145558442,None,1843.37145558442,None,1,1.4934723721817136,1843.37145558442,None,1844.8890346800908,None,1845.405404909514,None,1845.405404909514,None,n,0.9636674639768898,1845.405404909514,None,,,NC6,001,2019_Dec_04_1446,ProdSingRedo,3.2.4,59.976571981129325,
,,,,10,0,10,0,,,,,,,,,,,,,,,,,,,,,,,,1852.0909190431703,None,,,,,,,,,,,,,,,,,scene,new_c,white,10,169,273,1846.9226863761432,None,1846.9226863761432,None,3,3.0941105489619076,1846.9226863761432,None,1850.0583001857158,None,1850.5738204459194,None,1850.5738204459194,None,f,1.4830180290155113,1850.5738204459194,None,,,NC6,001,2019_Dec_04_1446,ProdSingRedo,3.2.4,59.976571981129325,
,,,,11,0,11,0,,,,,,,,,,,,,,,,,,,,,,,,1855.4086343578529,None,,,,,,,,,,,,,,,,,birth,new_c,white,11,166,22,1852.6076170692686,None,1852.6076170692686,None,1,1.3529416155070066,1852.6076170692686,None,1854.0132160440553,None,1854.5249019565526,None,1854.5249019565526,None,n,0.8355587623082101,1854.5249019565526,None,,,NC6,001,2019_Dec_04_1446,ProdSingRedo,3.2.4,59.976571981129325,
,,,,12,0,12,0,,,,,,,,,,,,,,,,,,,,,,,,1858.4594835496973,None,,,,,,,,,,,,,,,,,novel,silent,white,12,75,202,1855.926054220181,None,1855.926054220181,None,6,1.5066171966027468,1855.926054220181,None,1857.476872311905,None,1857.9927660860121,None,1857.9927660860121,None,r,0.4239521555136889,1857.9927660860121,None,,,NC6,001,2019_Dec_04_1446,ProdSingRedo,3.2.4,59.976571981129325,
,,,,13,0,13,0,,,,,,,,,,,,,,,,,,,,,,,,1862.6608395196963,None,,,,,,,,,,,,,,,,,community,sing,white,13,12,63,1858.9767796332017,None,1858.9767796332017,None,6,1.5433733179233968,1858.9767796332017,None,1860.5467287220526,None,1861.0769733877387,None,1861.0769733877387,None,r,1.5471013027708977,1861.0769733877387,None,,,NC6,001,2019_Dec_04_1446,ProdSingRedo,3.2.4,59.976571981129325,
,,,,14,0,14,0,,,,,,,,,,,,,,,,,,,,,,,,1865.8949925515335,None,,,,,,,,,,,,,,,,,damage,sing,white,14,28,83,1863.1776849608868,None,1863.1776849608868,None,6,1.3262137644924223,1863.1776849608868,None,1864.5467430280987,None,1865.0616207576822,None,1865.0616207576822,None,r,0.8100301360245794,1865.0616207576822,None,,,NC6,001,2019_Dec_04_1446,ProdSingRedo,3.2.4,59.976571981129325,
,,,,15,0,15,0,,,,,,,,,,,,,,,,,,,,,,,,1869.8962769911159,None,,,,,,,,,,,,,,,,,shear,sing,white,15,18,283,1866.4118634948973,None,1866.4118634948973,None,6,2.5401544438209385,1866.4118634948973,None,1868.9979747529142,None,1869.5129401851445,None,1869.5129401851445,None,r,0.366591818863526,1869.5129401851445,None,,,NC6,001,2019_Dec_04_1446,ProdSingRedo,3.2.4,59.976571981129325,
,,,,16,0,16,0,,,,,,,,,,,,,,,,,,,,,,,,1874.2310809509363,None,,,,,,,,,,,,,,,,,treatment,new_b,white,16,136,339,1870.4130617869087,None,1870.4130617869087,None,2,2.666317203780636,1870.4130617869087,None,1873.1186352598015,None,1873.6308601391502,None,1873.6308601391502,None,n,0.5604401926975697,1873.6308601391502,None,,,NC6,001,2019_Dec_04_1446,ProdSingRedo,3.2.4,59.976571981129325,
,,,,17,0,17,0,,,,,,,,,,,,,,,,,,,,,,,,1877.1986757521518,None,,,,,,,,,,,,,,,,,motion,new_a,white,17,119,194,1874.7477086903527,None,1874.7477086903527,None,1,1.3558239850681275,1874.7477086903527,None,1876.150981989922,None,1876.6651472130325,None,1876.6651472130325,None,n,0.4860518565401435,1876.6651472130325,None,,,NC6,001,2019_Dec_04_1446,ProdSingRedo,3.2.4,59.976571981129325,
,,,,18,0,18,0,,,,,,,,,,,,,,,,,,,,,,,,1879.9328048368916,None,,,,,,,,,,,,,,,,,quick,new_a,white,18,91,248,1877.7153445440345,None,1877.7153445440345,None,1,1.2839190026279539,1877.7153445440345,None,1879.0370061672293,None,1879.5492015015334,None,1879.5492015015334,None,n,0.3377500846982002,1879.5492015015334,None,,,NC6,001,2019_Dec_04_1446,ProdSingRedo,3.2.4,59.976571981129325,
,,,,19,0,19,0,,,,,,,,,,,,,,,,,,,,,,,,1883.333837986458,None,,,,,,,,,,,,,,,,,problem,new_a,white,19,100,238,1880.4495352071244,None,1880.4495352071244,None,3,2.045367153827101,1880.4495352071244,None,1882.550051159924,None,1883.0504573290236,None,1883.0504573290236,None,f,0.24435390811413527,1883.0504573290236,None,,,NC6,001,2019_Dec_04_1446,ProdSingRedo,3.2.4,59.976571981129325,
,,,,20,0,20,0,,,,,,,,,,,,,,,,,,,,,,,,1886.5515147368424,None,,,,,,,,,,,,,,,,,period,new_b,white,20,140,217,1883.833800666267,None,1883.833800666267,None,1,1.2849549513775855,1883.833800666267,None,1885.16759728943,None,1885.6676800160203,None,1885.6676800160203,None,n,0.8349750109482557,1885.6676800160203,None,,,NC6,001,2019_Dec_04_1446,ProdSingRedo,3.2.4,59.976571981129325,
,,,,21,0,21,0,,,,,,,,,,,,,,,,,,,,,,,,1890.4860515457112,None,,,,,,,,,,,,,,,,,weight,silent,white,21,81,353,1887.0683374749497,None,1887.0683374749497,None,5,1.6583763812668622,1887.0683374749497,None,1888.770739656873,None,1889.285671500722,None,1889.285671500722,None,f,1.152627503266558,1889.285671500722,None,,,NC6,001,2019_Dec_04_1446,ProdSingRedo,3.2.4,59.976571981129325,
,,,,22,0,22,0,,,,,,,,,,,,,,,,,,,,,,,,1893.503659564536,None,,,,,,,,,,,,,,,,,career,aloud,white,22,47,42,1890.9859597999603,None,1890.9859597999603,None,2,1.4846915323287249,1890.9859597999603,None,1892.505667395657,None,1893.0201622811146,None,1893.0201622811146,None,n,0.4501656088978052,1893.0201622811146,None,,,NC6,001,2019_Dec_04_1446,ProdSingRedo,3.2.4,59.976571981129325,
,,,,23,0,23,0,,,,,,,,,,,,,,,,,,,,,,,,1896.1709977888968,None,,,,,,,,,,,,,,,,,hunger,new_c,white,23,159,155,1894.0204695514403,None,1894.0204695514403,None,1,1.2975881770253181,1894.0204695514403,None,1895.3557801339775,None,1895.8710276451893,None,1895.8710276451893,None,n,0.26298450282774866,1895.8710276451893,None,,,NC6,001,2019_Dec_04_1446,ProdSingRedo,3.2.4,59.976571981129325,
,,,,24,0,24,0,,,,,,,,,,,,,,,,,,,,,,,,1899.055324204499,None,,,,,,,,,,,,,,,,,profession,silent,white,24,74,241,1896.6877458863892,None,1896.6877458863892,None,1,1.646159587893635,1896.6877458863892,None,1898.3883980582468,None,1898.888621357968,None,1898.888621357968,None,n,0.13338236813433468,1898.888621357968,None,,,NC6,001,2019_Dec_04_1446,ProdSingRedo,3.2.4,59.976571981129325,
,,,,25,0,25,0,,,,,,,,,,,,,,,,,,,,,,,,1902.5897403443232,None,,,,,,,,,,,,,,,,,election,new_b,white,25,121,109,1899.5721739996225,None,1899.5721739996225,None,6,1.4253124797251076,1899.5721739996225,None,1901.0223999428563,None,1901.5225103488192,None,1901.5225103488192,None,r,1.0191512124147266,1901.5225103488192,None,,,NC6,001,2019_Dec_04_1446,ProdSingRedo,3.2.4,59.976571981129325,
,,,,26,0,26,0,,,,,,,,,,,,,,,,,,,,,,,,1906.7576840901747,None,,,,,,,,,,,,,,,,,scale,silent,white,26,88,272,1903.1065848523285,None,1903.1065848523285,None,3,2.314866222208366,1903.1065848523285,None,1905.4597628298216,None,1905.9741423334926,None,1905.9741423334926,None,f,0.7351600572001189,1905.9741423334926,None,,,NC6,001,2019_Dec_04_1446,ProdSingRedo,3.2.4,59.976571981129325,
,,,,27,0,27,0,,,,,,,,,,,,,,,,,,,,,,,,1909.858644776279,None,,,,,,,,,,,,,,,,,union,new_a,white,27,109,344,1907.274541349383,None,1907.274541349383,None,3,1.5866163256578147,1907.274541349383,None,1908.9103635307401,None,1909.4251855907496,None,1909.4251855907496,None,f,0.38827863335609436,1909.4251855907496,None,,,NC6,001,2019_Dec_04_1446,ProdSingRedo,3.2.4,59.976571981129325,
,,,,28,0,28,0,,,,,,,,,,,,,,,,,,,,,,,,1912.559500032803,None,,,,,,,,,,,,,,,,,background,new_c,white,28,156,16,1910.3796949689277,None,1910.3796949689277,None,1,1.3133102776482701,1910.3796949689277,None,1911.7424353349488,None,1912.2425659559667,None,1912.2425659559667,None,n,0.27466232934966683,1912.2425659559667,None,,,NC6,001,2019_Dec_04_1446,ProdSingRedo,3.2.4,59.976571981129325,
,,,,29,0,29,0,,,,,,,,,,,,,,,,,,,,,,,,1916.1771515919827,None,,,,,,,,,,,,,,,,,production,aloud,white,29,52,240,1913.0763084646314,None,1913.0763084646314,None,4,1.9044812326319516,1913.0763084646314,None,1915.0291057750583,None,1915.5435847996268,None,1915.5435847996268,None,f,0.5896915167104453,1915.5435847996268,None,,,NC6,001,2019_Dec_04_1446,ProdSingRedo,3.2.4,59.976571981129325,
,,,,30,0,30,0,,,,,,,,,,,,,,,,,,,,,,,,1919.061486404622,None,,,,,,,,,,,,,,,,,store,aloud,white,30,53,305,1916.6940884678625,None,1916.6940884678625,None,4,1.4143487145192921,1916.6940884678625,None,1918.1276166960597,None,1918.6444652471691,None,1918.6444652471691,None,f,0.368173576425761,1918.6444652471691,None,,,NC6,001,2019_Dec_04_1446,ProdSingRedo,3.2.4,59.976571981129325,
,,,,31,0,31,0,,,,,,,,,,,,,,,,,,,,,,,,1922.7625789558515,None,,,,,,,,,,,,,,,,,danger,sing,white,31,15,85,1919.5783029226586,None,1919.5783029226586,None,6,1.5541100513655692,1919.5783029226586,None,1921.1802065677475,None,1921.695593408076,None,1921.695593408076,None,r,1.0288087676744908,1921.695593408076,None,,,NC6,001,2019_Dec_04_1446,ProdSingRedo,3.2.4,59.976571981129325,
,,,,32,0,32,0,,,,,,,,,,,,,,,,,,,,,,,,1925.646984988125,None,,,,,,,,,,,,,,,,,rural,sing,white,32,17,269,1923.279349756427,None,1923.279349756427,None,6,1.3008518354035914,1923.279349756427,None,1924.6144591204356,None,1925.1299930647947,None,1925.1299930647947,None,r,0.48215313139371574,1925.1299930647947,None,,,NC6,001,2019_Dec_04_1446,ProdSingRedo,3.2.4,59.976571981129325,
,,,,33,0,33,0,,,,,,,,,,,,,,,,,,,,,,,,1928.2809641694184,None,,,,,,,,,,,,,,,,,worker,new_c,white,33,165,356,1926.1635352880694,None,1926.1635352880694,None,1,1.408818471012637,1926.1635352880694,None,1927.6307606184855,None,1928.1309158087242,None,1928.1309158087242,None,n,0.11312803020700812,1928.1309158087242,None,,,NC6,001,2019_Dec_04_1446,ProdSingRedo,3.2.4,59.976571981129325,
,,,,34,0,34,0,,,,,,,,,,,,,,,,,,,,,,,,1931.682009759359,None,,,,,,,,,,,,,,,,,interview,sing,white,34,11,165,1928.7985143419355,None,1928.7985143419355,None,6,1.4774318048730493,1928.7985143419355,None,1930.3313891543075,None,1930.8201943144668,None,1930.8201943144668,None,r,0.8236734971869737,1930.8201943144668,None,,,NC6,001,2019_Dec_04_1446,ProdSingRedo,3.2.4,59.976571981129325,
,,,,35,0,35,0,,,,,,,,,,,,,,,,,,,,,,,,1934.416197623359,None,,,,,,,,,,,,,,,,,angle,new_c,white,35,179,7,1932.1986713982187,None,1932.1986713982187,None,1,1.3893742943182588,1932.1986713982187,None,1933.6340961183887,None,1934.1493523376994,None,1934.1493523376994,None,n,0.22267580195330083,1934.1493523376994,None,,,NC6,001,2019_Dec_04_1446,ProdSingRedo,3.2.4,59.976571981129325,
,,,,36,0,36,0,,,,,,,,,,,,,,,,,,,,,,,,1937.3504411568865,None,,,,,,,,,,,,,,,,,report,silent,white,36,79,259,1934.9330156964716,None,1934.9330156964716,None,2,1.5747130226809531,1934.9330156964716,None,1936.5500548919663,None,1937.067056456348,None,1937.067056456348,None,n,0.24063898553140461,1937.067056456348,None,,,NC6,001,2019_Dec_04_1446,ProdSingRedo,3.2.4,59.976571981129325,
,,,,37,0,37,0,,,,,,,,,,,,,,,,,,,,,,,,1939.7343032460194,None,,,,,,,,,,,,,,,,,blind,new_b,white,37,135,24,1937.8670878675766,None,1937.8670878675766,None,1,1.1283248481340706,1937.8670878675766,None,1939.0368886084761,None,1939.551084931707,None,1939.551084931707,None,n,0.14069683174602687,1939.551084931707,None,,,NC6,001,2019_Dec_04_1446,ProdSingRedo,3.2.4,59.976571981129325,
,,,,38,0,38,0,,,,,,,,,,,,,,,,,,,,,,,,1944.0524437008426,None,,,,,,,,,,,,,,,,,appearance,new_c,white,38,178,10,1940.2512737100478,None,1940.2512737100478,None,2,2.703806979348883,1940.2512737100478,None,1943.0059902160428,None,1943.5189807831775,None,1943.5189807831775,None,f,0.4921148468274623,1943.5189807831775,None,,,NC6,001,2019_Dec_04_1446,ProdSingRedo,3.2.4,59.976571981129325,
,,,,39,0,39,0,,,,,,,,,,,,,,,,,,,,,,,,1948.1870688342024,None,,,,,,,,,,,,,,,,,position,new_c,white,39,157,229,1944.5693003381602,None,1944.5693003381602,None,1,1.8816517954692245,1944.5693003381602,None,1946.4895500107668,None,1947.0033995665144,None,1947.0033995665144,None,n,1.1354101032484323,1947.0033995665144,None,,,NC6,001,2019_Dec_04_1446,ProdSingRedo,3.2.4,59.976571981129325,
,,,,40,0,40,0,,,,,,,,,,,,,,,,,,,,,,,,1951.2213499990758,None,,,,,,,,,,,,,,,,,welcome,new_b,white,40,145,354,1948.7039229834918,None,1948.7039229834918,None,2,1.6829060681629926,1948.7039229834918,None,1950.4237198368646,None,1950.937913983129,None,1950.937913983129,None,n,0.24093692540191114,1950.937913983129,None,,,NC6,001,2019_Dec_04_1446,ProdSingRedo,3.2.4,59.976571981129325,
,,,,41,0,41,0,,,,,,,,,,,,,,,,,,,,,,,,1954.0721438324545,None,,,,,,,,,,,,,,,,,commercial,aloud,white,41,54,61,1951.7381624740083,None,1951.7381624740083,None,6,1.4884848278015852,1951.7381624740083,None,1953.2765336304437,None,1953.7887809020467,None,1953.7887809020467,None,r,0.24570925626903772,1953.7887809020467,None,,,NC6,001,2019_Dec_04_1446,ProdSingRedo,3.2.4,59.976571981129325,
,,,,42,0,42,0,,,,,,,,,,,,,,,,,,,,,,,,1957.7231298652478,None,,,,,,,,,,,,,,,,,narrow,new_b,white,42,147,197,1954.5890272159595,None,1954.5890272159595,None,1,1.957394235767424,1954.5890272159595,None,1956.5728479416575,None,1957.0728833959438,None,1957.0728833959438,None,n,0.6334374153520912,1957.0728833959438,None,,,NC6,001,2019_Dec_04_1446,ProdSingRedo,3.2.4,59.976571981129325,
,,,,43,0,43,0,,,,,,,,,,,,,,,,,,,,,,,,1962.2611834884156,None,,,,,,,,,,,,,,,,,column,aloud,white,43,32,57,1958.2400822914205,None,1958.2400822914205,None,6,1.2502054169308394,1958.2400822914205,None,1959.5249890373088,None,1960.0407117600553,None,1960.0407117600553,None,r,2.185022127814591,1960.0407117600553,None,,,NC6,001,2019_Dec_04_1446,ProdSingRedo,3.2.4,59.976571981129325,
,,,,44,0,44,0,,,,,,,,,,,,,,,,,,,,,,,,1965.2587212829385,None,,,,,,,,,,,,,,,,,breath,new_b,white,44,129,27,1962.7766088929493,None,1962.7766088929493,None,1,1.2014262566808611,1962.7766088929493,None,1964.025611042045,None,1964.5420991415158,None,1964.5420991415158,None,n,0.6917049458716065,1964.5420991415158,None,,,NC6,001,2019_Dec_04_1446,ProdSingRedo,3.2.4,59.976571981129325,
,,,,45,0,45,0,,,,,,,,,,,,,,,,,,,,,,,,1968.6433027205057,None,,,,,,,,,,,,,,,,,shape,new_a,white,45,115,282,1965.775801841868,None,1965.775801841868,None,1,1.9937056237831712,1965.775801841868,None,1967.7929044819903,None,1968.3098653049674,None,1968.3098653049674,None,n,0.29980531241744757,1968.3098653049674,None,,,NC6,001,2019_Dec_04_1446,ProdSingRedo,3.2.4,59.976571981129325,
,,,,46,0,46,0,,,,,,,,,,,,,,,,,,,,,,,,1971.2941621753853,None,,,,,,,,,,,,,,,,,design,aloud,white,46,51,91,1969.1601780178025,None,1969.1601780178025,None,1,1.3692235206253827,1969.1601780178025,None,1970.579280402977,None,1971.0796769307926,None,1971.0796769307926,None,n,0.1700831309426576,1971.0796769307926,None,,,NC6,001,2019_Dec_04_1446,ProdSingRedo,3.2.4,59.976571981129325,
,,,,47,0,47,0,,,,,,,,,,,,,,,,,,,,,,,,1973.8948398495559,None,,,,,,,,,,,,,,,,,shock,aloud,white,47,57,284,1971.8109276888426,None,1971.8109276888426,None,6,1.134455637075007,1971.8109276888426,None,1972.977898930665,None,1973.4948351844214,None,1973.4948351844214,None,r,0.35434268112294376,1973.4948351844214,None,,,NC6,001,2019_Dec_04_1446,ProdSingRedo,3.2.4,59.976571981129325,
,,,,48,0,48,0,,,,,,,,,,,,,,,,,,,,,,,,1976.5121972004417,None,,,,,,,,,,,,,,,,,reading,new_b,white,48,139,254,1974.4117627302185,None,1974.4117627302185,None,1,1.4056953857652843,1974.4117627302185,None,1975.86428666953,None,1976.3621861599386,None,1976.3621861599386,None,n,0.11875281832180917,1976.3621861599386,None,,,NC6,001,2019_Dec_04_1446,ProdSingRedo,3.2.4,59.976571981129325,
,,,,49,0,49,0,,,,,,,,,,,,,,,,,,,,,,,,1981.6305009315256,None,,,,,,,,,,,,,,,,,material,sing,white,49,19,182,1977.0291266122367,None,1977.0291266122367,None,4,2.9797615234274417,1977.0291266122367,None,1980.0466369765345,None,1980.5636590668,None,1980.5636590668,None,f,1.0372580792754889,1980.5636590668,None,,,NC6,001,2019_Dec_04_1446,ProdSingRedo,3.2.4,59.976571981129325,
,,,,50,0,50,0,,,,,,,,,,,,,,,,,,,,,,,,1984.3814931844827,None,,,,,,,,,,,,,,,,,bicycle,new_a,white,50,102,21,1982.147274842253,None,1982.147274842253,None,1,1.4373513797763735,1982.147274842253,None,1983.6478511295281,None,1984.1479867266025,None,1984.1479867266025,None,n,0.18891960894688964,1984.1479867266025,None,,,NC6,001,2019_Dec_04_1446,ProdSingRedo,3.2.4,59.976571981129325,
,,,,51,0,51,0,,,,,,,,,,,,,,,,,,,,,,,,1986.6322052243631,None,,,,,,,,,,,,,,,,,display,new_b,white,51,138,98,1984.898739196593,None,1984.898739196593,None,1,1.0938085657544434,1984.898739196593,None,1986.0380054176785,None,1986.5487119839527,None,1986.5487119839527,None,n,0.035819693468511105,1986.5487119839527,None,,,NC6,001,2019_Dec_04_1446,ProdSingRedo,3.2.4,59.976571981129325,
,,,,52,0,52,0,,,,,,,,,,,,,,,,,,,,,,,,1989.4497463777661,None,,,,,,,,,,,,,,,,,brief,sing,white,52,22,28,1987.1489138244651,None,1987.1489138244651,None,4,1.531456952681765,1987.1489138244651,None,1988.7171819459181,None,1989.2329562949017,None,1989.2329562949017,None,f,0.17555024079047143,1989.2329562949017,None,,,NC6,001,2019_Dec_04_1446,ProdSingRedo,3.2.4,59.976571981129325,
,,,,53,0,53,0,,,,,,,,,,,,,,,,,,,,,,,,1992.3672598518897,None,,,,,,,,,,,,,,,,,pattern,aloud,white,53,48,214,1989.9663893564139,None,1989.9663893564139,None,6,1.3138343165628612,1989.9663893564139,None,1991.319177336758,None,1991.8337932021823,None,1991.8337932021823,None,r,0.48626613710075617,1991.8337932021823,None,,,NC6,001,2019_Dec_04_1446,ProdSingRedo,3.2.4,59.976571981129325,
,,,,54,0,54,0,,,,,,,,,,,,,,,,,,,,,,,,1995.102234551916,None,,,,,,,,,,,,,,,,,season,new_b,white,54,126,277,1992.883960987907,None,1992.883960987907,None,1,1.372069191886112,1992.883960987907,None,1994.2843208175618,None,1994.7849770325702,None,1994.7849770325702,None,n,0.294991307426244,1994.7849770325702,None,,,NC6,001,2019_Dec_04_1446,ProdSingRedo,3.2.4,59.976571981129325,
,,,,55,0,55,0,,,,,,,,,,,,,,,,,,,,,,,,1999.4694729445037,None,,,,,,,,,,,,,,,,,trend,sing,white,55,16,340,1995.618261745898,None,1995.618261745898,None,6,1.917481129989028,1995.618261745898,None,1997.5686948166694,None,1998.0856761657633,None,1998.0856761657633,None,r,1.3460289668291807,1998.0856761657633,None,,,NC6,001,2019_Dec_04_1446,ProdSingRedo,3.2.4,59.976571981129325,
,,,,56,0,56,0,,,,,,,,,,,,,,,,,,,,,,,,2002.8371526494157,None,,,,,,,,,,,,,,,,,passage,sing,white,56,9,212,1999.9861087701283,None,1999.9861087701283,None,2,1.9738036517519504,1999.9861087701283,None,2002.0033535382245,None,2002.520378116751,None,2002.520378116751,None,f,0.27888263086788356,2002.520378116751,None,,,NC6,001,2019_Dec_04_1446,ProdSingRedo,3.2.4,59.976571981129325,
,,,,57,0,57,0,,,,,,,,,,,,,,,,,,,,,,,,2005.3544994262047,None,,,,,,,,,,,,,,,,,mankind,new_b,white,57,128,178,2003.353834814392,None,2003.353834814392,None,1,1.2295592164155096,2003.353834814392,None,2004.637590229744,None,2005.1378645338118,None,2005.1378645338118,None,n,0.18950958037748933,2005.1378645338118,None,,,NC6,001,2019_Dec_04_1446,ProdSingRedo,3.2.4,59.976571981129325,
,,,,58,0,58,0,,,,,,,,,,,,,,,,,,,,,,,,2007.9053610581905,None,,,,,,,,,,,,,,,,,personnel,new_a,white,58,94,219,2005.8712279305328,None,2005.8712279305328,None,1,1.32804961130023,2005.8712279305328,None,2007.2411838616244,None,2007.7553298026323,None,2007.7553298026323,None,n,0.10807206551544368,2007.7553298026323,None,,,NC6,001,2019_Dec_04_1446,ProdSingRedo,3.2.4,59.976571981129325,
,,,,59,0,59,0,,,,,,,,,,,,,,,,,,,,,,,,2010.422561975196,None,,,,,,,,,,,,,,,,,cousin,new_b,white,59,141,76,2008.4221698010806,None,2008.4221698010806,None,1,1.2090722487773746,2008.4221698010806,None,2009.6764549468644,None,2010.1894128588028,None,2010.1894128588028,None,n,0.20140106533654034,2010.1894128588028,None,,,NC6,001,2019_Dec_04_1446,ProdSingRedo,3.2.4,59.976571981129325,
,,,,60,0,60,0,,,,,,,,,,,,,,,,,,,,,,,,2013.023605076829,None,,,,,,,,,,,,,,,,,frank,new_c,white,60,162,133,2010.9395094250795,None,2010.9395094250795,None,1,1.2673276502173394,2010.9395094250795,None,2012.223174027633,None,2012.723318643868,None,2012.723318643868,None,n,0.2675332226790488,2012.723318643868,None,,,NC6,001,2019_Dec_04_1446,ProdSingRedo,3.2.4,59.976571981129325,
,,,,61,0,61,0,,,,,,,,,,,,,,,,,,,,,,,,2015.3076466142666,None,,,,,,,,,,,,,,,,,device,silent,white,61,80,93,2013.5421268206555,None,2013.5421268206555,None,1,0.8728749989531934,2013.5421268206555,None,2014.4634889485314,None,2014.9573522505816,None,2014.9573522505816,None,n,0.3133749661501497,2014.9573522505816,None,,,NC6,001,2019_Dec_04_1446,ProdSingRedo,3.2.4,59.976571981129325,
,,,,62,0,62,0,,,,,,,,,,,,,,,,,,,,,,,,2018.4418954348657,None,,,,,,,,,,,,,,,,,title,aloud,white,62,35,331,2015.8243154061493,None,2015.8243154061493,None,2,1.7745015411637723,2015.8243154061493,None,2017.6415362271946,None,2018.1585228634067,None,2018.1585228634067,None,n,0.24799201358109713,2018.1585228634067,None,,,NC6,001,2019_Dec_04_1446,ProdSingRedo,3.2.4,59.976571981129325,
,,,,63,0,63,0,,,,,,,,,,,,,,,,,,,,,,,,2021.3094774850179,None,,,,,,,,,,,,,,,,,music,silent,white,63,67,196,2018.9587763303425,None,2018.9587763303425,None,6,1.311667874455452,2018.9587763303425,None,2020.3114041446242,None,2020.826020943001,None,2020.826020943001,None,r,0.4443850084207952,2020.826020943001,None,,,NC6,001,2019_Dec_04_1446,ProdSingRedo,3.2.4,59.976571981129325,
,,,,64,0,64,0,,,,,,,,,,,,,,,,,,,,,,,,2024.0603397390805,None,,,,,,,,,,,,,,,,,contract,new_a,white,64,107,68,2021.8261363247875,None,2021.8261363247875,None,1,1.4441296756267548,2021.8261363247875,None,2023.3131781017873,None,2023.826937155798,None,2023.826937155798,None,n,0.18719105795025826,2023.826937155798,None,,,NC6,001,2019_Dec_04_1446,ProdSingRedo,3.2.4,59.976571981129325,
,,,,65,0,65,0,,,,,,,,,,,,,,,,,,,,,,,,2026.4774905845989,None,,,,,,,,,,,,,,,,,pressure,sing,white,65,27,232,2024.5771375969052,None,2024.5771375969052,None,3,1.2769024788867682,2024.5771375969052,None,2025.897313561989,None,2026.4110268987715,None,2026.4110268987715,None,f,0.03480986878275871,2026.4110268987715,None,,,NC6,001,2019_Dec_04_1446,ProdSingRedo,3.2.4,59.976571981129325,
,,,,66,0,66,0,,,,,,,,,,,,,,,,,,,,,,,,2028.8813616305124,None,,,,,,,,,,,,,,,,,state,aloud,white,66,42,303,2026.9944495414384,None,2026.9944495414384,None,1,1.211429335642606,2026.9944495414384,None,2028.231697979616,None,2028.7617740817368,None,2028.7617740817368,None,n,0.1003330834209919,2028.7617740817368,None,,,NC6,001,2019_Dec_04_1446,ProdSingRedo,3.2.4,59.976571981129325,
,,,,67,0,67,0,,,,,,,,,,,,,,,,,,,,,,,,2032.3459701873362,None,,,,,,,,,,,,,,,,,bureau,silent,white,67,78,37,2029.3996802896727,None,2029.3996802896727,None,6,1.286364102968946,2029.3996802896727,None,2030.7353236447088,None,2031.2289683120325,None,2031.2289683120325,None,r,1.0965136638842523,2031.2289683120325,None,,,NC6,001,2019_Dec_04_1446,ProdSingRedo,3.2.4,59.976571981129325,
,,,,68,0,68,0,,,,,,,,,,,,,,,,,,,,,,,,2036.5140227840748,None,,,,,,,,,,,,,,,,,under,sing,white,68,20,343,2032.8462541324552,None,2032.8462541324552,None,5,2.823611296946183,2032.8462541324552,None,2035.7159478885587,None,2036.2307282742113,None,2036.2307282742113,None,r,0.2625770897138864,2036.2307282742113,None,,,NC6,001,2019_Dec_04_1446,ProdSingRedo,3.2.4,59.976571981129325,
,,,,69,0,69,0,,,,,,,,,,,,,,,,,,,,,,,,2039.3149318438955,None,,,,,,,,,,,,,,,,,partner,new_c,white,69,177,211,2037.0141291469336,None,2037.0141291469336,None,1,1.1990284286439419,2037.0141291469336,None,2038.2311838925816,None,2038.7313054946717,None,2038.7313054946717,None,n,0.5379164710175246,2038.7313054946717,None,,,NC6,001,2019_Dec_04_1446,ProdSingRedo,3.2.4,59.976571981129325,
,,,,70,0,70,0,,,,,,,,,,,,,,,,,,,,,,,,2041.8489825560246,None,,,,,,,,,,,,,,,,,revolution,new_c,white,70,153,264,2039.8316762093455,None,2039.8316762093455,None,1,1.2774946275167167,2039.8316762093455,None,2041.1522975298576,None,2041.6657384284772,None,2041.6657384284772,None,n,0.16324916575103998,2041.6657384284772,None,,,NC6,001,2019_Dec_04_1446,ProdSingRedo,3.2.4,59.976571981129325,
,,,,71,0,71,0,,,,,,,,,,,,,,,,,,,,,,,,2044.4665837327484,None,,,,,,,,,,,,,,,,,death,aloud,white,71,56,86,2042.3491486313287,None,2042.3491486313287,None,6,1.279889034340158,2042.3491486313287,None,2043.6671130587347,None,2044.166234788252,None,2044.166234788252,None,r,0.2547031329013407,2044.166234788252,None,,,NC6,001,2019_Dec_04_1446,ProdSingRedo,3.2.4,59.976571981129325,
,,,,72,0,72,0,,,,,,,,,,,,,,,,,,,,,,,,2046.950628691353,None,,,,,,,,,,,,,,,,,alert,sing,white,72,0,6,2044.983275538776,None,2044.983275538776,None,6,1.3015736718662083,2044.983275538776,None,2046.335847061593,None,2046.8504965153988,None,2046.8504965153988,None,r,0.08242743532173336,2046.8504965153988,None,,,NC6,001,2019_Dec_04_1446,ProdSingRedo,3.2.4,59.976571981129325,
,,,,73,0,73,0,,,,,,,,,,,,,,,,,,,,,,,,2049.701403242536,None,,,,,,,,,,,,,,,,,skill,new_b,white,73,148,289,2047.4683362308424,None,2047.4683362308424,None,3,1.5283338672015816,2047.4683362308424,None,2049.038107737433,None,2049.5513262695167,None,2049.5513262695167,None,r,0.11707091797143221,2049.5513262695167,None,,,NC6,001,2019_Dec_04_1446,ProdSingRedo,3.2.4,59.976571981129325,
,,,,74,0,74,0,,,,,,,,,,,,,,,,,,,,,,,,2052.9191866668407,None,,,,,,,,,,,,,,,,,people,aloud,white,74,37,216,2050.2183348315302,None,2050.2183348315302,None,1,2.010110374772921,2050.2183348315302,None,2052.2712235765066,None,2052.7858158058953,None,2052.7858158058953,None,n,0.09864682890474796,2052.7858158058953,None,,,NC6,001,2019_Dec_04_1446,ProdSingRedo,3.2.4,59.976571981129325,
,,,,75,0,75,0,,,,,,,,,,,,,,,,,,,,,,,,2057.8206813440192,None,,,,,,,,,,,,,,,,,patient,new_c,white,75,160,213,2053.4359801704995,None,2053.4359801704995,None,3,3.0642639664001763,2053.4359801704995,None,2056.5374729817268,None,2057.053796560969,None,2057.053796560969,None,n,0.7262601037509739,2057.053796560969,None,,,NC6,001,2019_Dec_04_1446,ProdSingRedo,3.2.4,59.976571981129325,
,,,,76,0,76,0,,,,,,,,,,,,,,,,,,,,,,,,2060.638261683751,None,,,,,,,,,,,,,,,,,couch,new_b,white,76,132,70,2058.3375028381124,None,2058.3375028381124,None,1,1.4666157658211887,2058.3375028381124,None,2059.837815084262,None,2060.3547961225267,None,2060.3547961225267,None,n,0.24929697928018868,2060.3547961225267,None,,,NC6,001,2019_Dec_04_1446,ProdSingRedo,3.2.4,59.976571981129325,
,,,,77,0,77,0,,,,,,,,,,,,,,,,,,,,,,,,2064.606145406142,None,,,,,,,,,,,,,,,,,defeat,new_c,white,77,155,88,2061.1548673419748,None,2061.1548673419748,None,1,2.7289126424584538,2061.1548673419748,None,2063.9224167370703,None,2064.439376938157,None,2064.439376938157,None,n,0.12456887285225093,2064.439376938157,None,,,NC6,001,2019_Dec_04_1446,ProdSingRedo,3.2.4,59.976571981129325,
,,,,78,0,78,0,,,,,,,,,,,,,,,,,,,,,,,,2066.9568319437094,None,,,,,,,,,,,,,,,,,south,silent,white,78,83,296,2065.12280953303,None,2065.12280953303,None,1,1.1288174758665264,2065.12280953303,None,2066.2897997456603,None,2066.8067789177876,None,2066.8067789177876,None,n,0.10903990478254855,2066.8067789177876,None,,,NC6,001,2019_Dec_04_1446,ProdSingRedo,3.2.4,59.976571981129325,
,,,,79,0,79,0,,,,,,,,,,,,,,,,,,,,,,,,2069.1741647257004,None,,,,,,,,,,,,,,,,,throw,aloud,white,79,43,330,2067.4736434856895,None,2067.4736434856895,None,1,0.9221265718806535,2067.4736434856895,None,2068.4431587264407,None,2068.9574352882337,None,2068.9574352882337,None,n,0.18199514201842248,2068.9574352882337,None,,,NC6,001,2019_Dec_04_1446,ProdSingRedo,3.2.4,59.976571981129325,
,,,,80,0,80,0,,,,,,,,,,,,,,,,,,,,,,,,2072.791722984053,None,,,,,,,,,,,,,,,,,minute,aloud,white,80,36,192,2069.690966937458,None,2069.690966937458,None,6,1.8164856114890426,2069.690966937458,None,2071.541376372101,None,2072.0583835344296,None,2072.0583835344296,None,r,0.705012735677883,2072.0583835344296,None,,,NC6,001,2019_Dec_04_1446,ProdSingRedo,3.2.4,59.976571981129325,
,,,,81,0,81,0,,,,,,,,,,,,,,,,,,,,,,,,2075.4594173061196,None,,,,,,,,,,,,,,,,,dream,silent,white,81,86,104,2073.308643998811,None,2073.308643998811,None,2,1.358702311757952,2073.308643998811,None,2074.7097660952713,None,2075.2258735278156,None,2075.2258735278156,None,n,0.20121104316785932,2075.2258735278156,None,,,NC6,001,2019_Dec_04_1446,ProdSingRedo,3.2.4,59.976571981129325,
,,,,82,0,82,0,,,,,,,,,,,,,,,,,,,,,,,,2077.7601282575633,None,,,,,,,,,,,,,,,,,congress,new_b,white,82,127,67,2075.976096672006,None,2075.976096672006,None,1,1.1308386798482388,2075.976096672006,None,2077.1431136310566,None,2077.65996342618,None,2077.65996342618,None,n,0.05503714922815561,2077.65996342618,None,,,NC6,001,2019_Dec_04_1446,ProdSingRedo,3.2.4,59.976571981129325,
,,,,83,0,83,0,,,,,,,,,,,,,,,,,,,,,,,,2080.1940900229383,None,,,,,,,,,,,,,,,,,agency,new_a,white,83,106,4,2078.2768838189077,None,2078.2768838189077,None,3,1.350034054601565,2078.2768838189077,None,2079.6648844161537,None,2080.1606286601163,None,2080.1606286601163,None,n,0.0019412767142057419,2080.1606286601163,None,,,NC6,001,2019_Dec_04_1446,ProdSingRedo,3.2.4,59.976571981129325,
,,,,84,0,84,0,,,,,,,,,,,,,,,,,,,,,,,,2082.8617016181815,None,,,,,,,,,,,,,,,,,route,aloud,white,84,58,267,2080.6964819417335,None,2080.6964819417335,None,6,1.2582155931741,2080.6964819417335,None,2081.996792944148,None,2082.511601631064,None,2082.511601631064,None,r,0.31517566950060427,2082.511601631064,None,,,NC6,001,2019_Dec_04_1446,ProdSingRedo,3.2.4,59.976571981129325,
,,,,85,0,85,0,,,,,,,,,,,,,,,,,,,,,,,,2085.179070165381,None,,,,,,,,,,,,,,,,,symbol,aloud,white,85,44,321,2083.3809871836565,None,2083.3809871836565,None,6,1.1494773605372757,2083.3809871836565,None,2084.595469940221,None,2085.0956130011473,None,2085.0956130011473,None,r,0.04298425395973027,2085.0956130011473,None,,,NC6,001,2019_Dec_04_1446,ProdSingRedo,3.2.4,59.976571981129325,
,,,,86,0,86,0,,,,,,,,,,,,,,,,,,,,,,,,2088.480084965937,None,,,,,,,,,,,,,,,,,youth,silent,white,86,77,359,2085.695683598751,None,2085.695683598751,None,2,2.0425855489447713,2085.695683598751,None,2087.7855763339903,None,2088.280066927895,None,2088.280066927895,None,n,0.15414115134626627,2088.280066927895,None,,,NC6,001,2019_Dec_04_1446,ProdSingRedo,3.2.4,59.976571981129325,
,,,,87,0,87,0,,,,,,,,,,,,,,,,,,,,,,,,2091.1640574608464,None,,,,,,,,,,,,,,,,,management,sing,white,87,24,177,2088.9800075264648,None,2088.9800075264648,None,6,1.6223371201194823,2088.9800075264648,None,2090.6314864980523,None,2091.131083749933,None,2091.131083749933,None,r,0.014864667318761349,2091.131083749933,None,,,NC6,001,2019_Dec_04_1446,ProdSingRedo,3.2.4,59.976571981129325,
,,,,88,0,88,0,,,,,,,,,,,,,,,,,,,,,,,,2093.581587729277,None,,,,,,,,,,,,,,,,,edition,new_c,white,88,168,107,2091.6808773998637,None,2091.6808773998637,None,1,1.209035239648074,2091.6808773998637,None,2092.933930354193,None,2093.4314454456326,None,2093.4314454456326,None,n,0.12255357787944376,2093.4314454456326,None,,,NC6,001,2019_Dec_04_1446,ProdSingRedo,3.2.4,59.976571981129325,
,,,,89,0,89,0,,,,,,,,,,,,,,,,,,,,,,,,2096.999354359228,None,,,,,,,,,,,,,,,,,poetry,new_a,white,89,112,225,2094.0816850729752,None,2094.0816850729752,None,1,1.0961270879488438,2094.0816850729752,None,2095.2153476539534,None,2095.732244721614,None,2095.732244721614,None,f,1.2214414335321635,2095.732244721614,None,,,NC6,001,2019_Dec_04_1446,ProdSingRedo,3.2.4,59.976571981129325,
,,,,90,0,90,0,,,,,,,,,,,,,,,,,,,,,,,,2099.5334766018204,None,,,,,,,,,,,,,,,,,graduate,aloud,white,90,30,141,2097.516023151111,None,2097.516023151111,None,6,1.1976111913099885,2097.516023151111,None,2098.749756329693,None,2099.2667103107087,None,2099.2667103107087,None,r,0.23090927745215595,2099.2667103107087,None,,,NC6,001,2019_Dec_04_1446,ProdSingRedo,3.2.4,59.976571981129325,
,,,,91,0,91,0,,,,,,,,,,,,,,,,,,,,,,,,2102.067591380328,None,,,,,,,,,,,,,,,,,cross,new_b,white,91,131,80,2100.0502769476734,None,2100.0502769476734,None,1,1.3749602695461363,2100.0502769476734,None,2101.450478166109,None,2101.9675354000647,None,2101.9675354000647,None,n,0.06599469413049519,2101.9675354000647,None,,,NC6,001,2019_Dec_04_1446,ProdSingRedo,3.2.4,59.976571981129325,
,,,,92,0,92,0,,,,,,,,,,,,,,,,,,,,,,,,2104.80158984405,None,,,,,,,,,,,,,,,,,working,sing,white,92,5,357,2102.5676252795383,None,2102.5676252795383,None,6,1.4259528333786875,2102.5676252795383,None,2104.051360479789,None,2104.551658730954,None,2104.551658730954,None,r,0.22540111537091434,2104.551658730954,None,,,NC6,001,2019_Dec_04_1446,ProdSingRedo,3.2.4,59.976571981129325,
,,,,93,0,93,0,,,,,,,,,,,,,,,,,,,,,,,,2109.6532488858793,None,,,,,,,,,,,,,,,,,history,sing,white,93,7,153,2105.318332654424,None,2105.318332654424,None,2,1.562859168741852,2105.318332654424,None,2106.935592350783,None,2107.435883448925,None,2107.435883448925,None,f,2.1734173868317157,2107.435883448925,None,,,NC6,001,2019_Dec_04_1446,ProdSingRedo,3.2.4,59.976571981129325,
,,,,94,0,94,0,,,,,,,,,,,,,,,,,,,,,,,,2111.970480903052,None,,,,,,,,,,,,,,,,,swift,aloud,white,94,38,320,2110.1699039936066,None,2110.1699039936066,None,1,1.1591423801146448,2110.1699039936066,None,2111.372236822266,None,2111.8872625885997,None,2111.8872625885997,None,n,0.04172842646948993,2111.8872625885997,None,,,NC6,001,2019_Dec_04_1446,ProdSingRedo,3.2.4,59.976571981129325,
,,,,95,0,95,0,,,,,,,,,,,,,,,,,,,,,,,,2114.1216171500273,None,,,,,,,,,,,,,,,,,incident,new_a,white,95,99,158,2112.4872862249613,None,2112.4872862249613,None,1,0.9612634156364948,2112.4872862249613,None,2113.475536867976,None,2114.0045742222574,None,2114.0045742222574,None,n,0.08403625036589801,2114.0045742222574,None,,,NC6,001,2019_Dec_04_1446,ProdSingRedo,3.2.4,59.976571981129325,
,,,,96,0,96,0,,,,,,,,,,,,,,,,,,,,,,,,2116.65539760096,None,,,,,,,,,,,,,,,,,tennis,new_a,white,96,103,323,2114.637911806116,None,2114.637911806116,None,1,1.3626999356783926,2114.637911806116,None,2116.041004413273,None,2116.538500533439,None,2116.538500533439,None,n,0.07000475819222629,2116.538500533439,None,,,NC6,001,2019_Dec_04_1446,ProdSingRedo,3.2.4,59.976571981129325,
,,,,97,0,97,0,,,,,,,,,,,,,,,,,,,,,,,,2119.2228235281073,None,,,,,,,,,,,,,,,,,group,new_c,white,97,174,143,2117.1729403093923,None,2117.1729403093923,None,1,1.2674480080604553,2117.1729403093923,None,2118.4891761860345,None,2119.0061087077484,None,2119.0061087077484,None,f,0.1782951473724097,2119.0061087077484,None,,,NC6,001,2019_Dec_04_1446,ProdSingRedo,3.2.4,59.976571981129325,
,,,,98,0,98,0,,,,,,,,,,,,,,,,,,,,,,,,2122.7239185671788,None,,,,,,,,,,,,,,,,,signal,silent,white,98,62,287,2119.7395069370978,None,2119.7395069370978,None,3,2.3249535830691457,2119.7395069370978,None,2122.1098469558638,None,2122.623904883163,None,2122.623904883163,None,f,0.0642232249956578,2122.623904883163,None,,,NC6,001,2019_Dec_04_1446,ProdSingRedo,3.2.4,59.976571981129325,
,,,,99,0,99,0,,,,,,,,,,,,,,,,,,,,,,,,2124.9912888249382,None,,,,,,,,,,,,,,,,,candidate,new_c,white,99,176,39,2123.2407217121217,None,2123.2407217121217,None,1,1.1193797991145402,2123.2407217121217,None,2124.411182710901,None,2124.924577270169,None,2124.924577270169,None,n,0.027471457608044147,2124.924577270169,None,,,NC6,001,2019_Dec_04_1446,ProdSingRedo,3.2.4,59.976571981129325,
,,,,100,0,100,0,,,,,,,,,,,,,,,,,,,,,,,,2127.875507944729,None,,,,,,,,,,,,,,,,,article,sing,white,100,1,11,2125.5079694348387,None,2125.5079694348387,None,3,1.7402695144992322,2125.5079694348387,None,2127.2947036304977,None,2127.8087724428624,None,2127.8087724428624,None,f,0.023315533762797713,2127.8087724428624,None,,,NC6,001,2019_Dec_04_1446,ProdSingRedo,3.2.4,59.976571981129325,
,,,,101,0,101,0,,,,,,,,,,,,,,,,,,,,,,,,2130.3762531061657,None,,,,,,,,,,,,,,,,,appeal,new_c,white,101,150,9,2128.392322596628,None,2128.392322596628,None,1,1.199578280793503,2128.392322596628,None,2129.6287397253327,None,2130.142857987201,None,2130.142857987201,None,n,0.18485885160043836,2130.142857987201,None,,,NC6,001,2019_Dec_04_1446,ProdSingRedo,3.2.4,59.976571981129325,
,,,,102,0,102,0,,,,,,,,,,,,,,,,,,,,,,,,2132.526910409564,None,,,,,,,,,,,,,,,,,junior,new_a,white,102,118,167,2130.8762751873583,None,2130.8762751873583,None,1,0.8513321785721928,2130.8762751873583,None,2131.776798915351,None,2132.2934145256877,None,2132.2934145256877,None,n,0.18613489414565265,2132.2934145256877,None,,,NC6,001,2019_Dec_04_1446,ProdSingRedo,3.2.4,59.976571981129325,
,,,,103,0,103,0,,,,,,,,,,,,,,,,,,,,,,,,2135.1276988005266,None,,,,,,,,,,,,,,,,,executive,silent,white,103,60,122,2133.0447523023468,None,2133.0447523023468,None,1,1.3550013839267194,2133.0447523023468,None,2134.4481496918015,None,2134.9609533466864,None,2134.9609533466864,None,n,0.11846980638802052,2134.9609533466864,None,,,NC6,001,2019_Dec_04_1446,ProdSingRedo,3.2.4,59.976571981129325,
,,,,104,0,104,0,,,,,,,,,,,,,,,,,,,,,,,,2137.813170015812,None,,,,,,,,,,,,,,,,,territory,aloud,white,104,39,324,2135.644392472692,None,2135.644392472692,None,6,1.5708438428118825,2135.644392472692,None,2137.2637520565186,None,2137.7783794291317,None,2137.7783794291317,None,r,0.005101371323689818,2137.7783794291317,None,,,NC6,001,2019_Dec_04_1446,ProdSingRedo,3.2.4,59.976571981129325,
,,,,105,0,105,0,,,,,,,,,,,,,,,,,,,,,,,,2141.062740988098,None,,,,,,,,,,,,,,,,,expansion,silent,white,105,82,123,2138.345213207649,None,2138.345213207649,None,1,1.7340625301003456,2138.345213207649,None,2140.113169393735,None,2140.6294180215336,None,2140.6294180215336,None,n,0.40956736472435296,2140.6294180215336,None,,,NC6,001,2019_Dec_04_1446,ProdSingRedo,3.2.4,59.976571981129325,
,,,,106,0,106,0,,,,,,,,,,,,,,,,,,,,,,,,2143.847037547501,None,,,,,,,,,,,,,,,,,theme,new_b,white,106,143,326,2141.562789815478,None,2141.562789815478,None,1,1.4842073016334325,2141.562789815478,None,2143.0804942450486,None,2143.5969804783817,None,2143.5969804783817,None,n,0.20990729029290378,2143.5969804783817,None,,,NC6,001,2019_Dec_04_1446,ProdSingRedo,3.2.4,59.976571981129325,
,,,,107,0,107,0,,,,,,,,,,,,,,,,,,,,,,,,2146.3478110102005,None,,,,,,,,,,,,,,,,,individual,aloud,white,107,50,160,2144.3656283337623,None,2144.3656283337623,None,6,1.3929100800305605,2144.3656283337623,None,2145.7820924860425,None,2146.297813964775,None,2146.297813964775,None,r,0.004842306254431605,2146.297813964775,None,,,NC6,001,2019_Dec_04_1446,ProdSingRedo,3.2.4,59.976571981129325,
,,,,108,0,108,0,,,,,,,,,,,,,,,,,,,,,,,,2148.6485350236762,None,,,,,,,,,,,,,,,,,bright,new_a,white,108,114,29,2146.8537987379823,None,2146.8537987379823,None,1,1.1608603566419333,2146.8537987379823,None,2148.0482722267043,None,2148.565163074294,None,2148.565163074294,None,n,0.04952059010975063,2148.565163074294,None,,,NC6,001,2019_Dec_04_1446,ProdSingRedo,3.2.4,59.976571981129325,
,,,,109,0,109,0,,,,,,,,,,,,,,,,,,,,,,,,2151.7828298725653,None,,,,,,,,,,,,,,,,,company,silent,white,109,69,64,2149.165578262182,None,2149.165578262182,None,1,1.8649030760861933,2149.165578262182,None,2151.0667669132818,None,2151.5827490119264,None,2151.5827490119264,None,n,0.15959768742322922,2151.5827490119264,None,,,NC6,001,2019_Dec_04_1446,ProdSingRedo,3.2.4,59.976571981129325,
,,,,110,0,110,0,,,,,,,,,,,,,,,,,,,,,,,,2154.983791802777,None,,,,,,,,,,,,,,,,,count,sing,white,110,21,72,2152.2996271082666,None,2152.2996271082666,None,4,2.0667264827061445,2152.2996271082666,None,2154.4030907412525,None,2154.917115702294,None,2154.917115702294,None,f,0.033260144060477614,2154.917115702294,None,,,NC6,001,2019_Dec_04_1446,ProdSingRedo,3.2.4,59.976571981129325,
,,,,111,0,111,0,,,,,,,,,,,,,,,,,,,,,,,,2157.3845120840706,None,,,,,,,,,,,,,,,,,phrase,silent,white,111,64,220,2155.5004506425466,None,2155.5004506425466,None,1,1.2258446046616882,2155.5004506425466,None,2156.7675350890495,None,2157.2845550023485,None,2157.2845550023485,None,n,0.05772918532602489,2157.2845550023485,None,,,NC6,001,2019_Dec_04_1446,ProdSingRedo,3.2.4,59.976571981129325,
,,,,112,0,112,0,,,,,,,,,,,,,,,,,,,,,,,,2159.9019247936085,None,,,,,,,,,,,,,,,,,suggestion,silent,white,112,87,314,2157.90121975122,None,2157.90121975122,None,1,1.3447261780966073,2157.90121975122,None,2159.2849720565137,None,2159.8019406546373,None,2159.8019406546373,None,n,0.059969024267047644,2159.8019406546373,None,,,NC6,001,2019_Dec_04_1446,ProdSingRedo,3.2.4,59.976571981129325,
,,,,113,0,113,0,,,,,,,,,,,,,,,,,,,,,,,,2163.0195990558714,None,,,,,,,,,,,,,,,,,country,sing,white,113,3,73,2160.418843631167,None,2160.418843631167,None,4,1.698989553609863,2160.418843631167,None,2162.1588755401317,None,2162.6693370365538,None,2162.6693370365538,None,f,0.3123931318987161,2162.6693370365538,None,,,NC6,001,2019_Dec_04_1446,ProdSingRedo,3.2.4,59.976571981129325,
,,,,114,0,114,0,,,,,,,,,,,,,,,,,,,,,,,,2165.270304875681,None,,,,,,,,,,,,,,,,,build,new_c,white,114,164,35,2163.5363344021607,None,2163.5363344021607,None,1,0.9972308352589607,2163.5363344021607,None,2164.5585757337976,None,2165.0702093979344,None,2165.0702093979344,None,n,0.159341421443969,2165.0702093979344,None,,,NC6,001,2019_Dec_04_1446,ProdSingRedo,3.2.4,59.976571981129325,
,,,,115,0,115,0,,,,,,,,,,,,,,,,,,,,,,,,2168.4712714708876,None,,,,,,,,,,,,,,,,,government,sing,white,115,23,139,2165.7726846656296,None,2165.7726846656296,None,6,1.60875658178702,2165.7726846656296,None,2167.420760960551,None,2167.9377382667735,None,2167.9377382667735,None,r,0.499698638683185,2167.9377382667735,None,,,NC6,001,2019_Dec_04_1446,ProdSingRedo,3.2.4,59.976571981129325,
,,,,116,0,116,0,,,,,,,,,,,,,,,,,,,,,,,,2171.1053871824406,None,,,,,,,,,,,,,,,,,trash,sing,white,116,10,337,2168.988104471937,None,2168.988104471937,None,6,1.337094180751592,2168.988104471937,None,2170.374399843393,None,2170.8886620991398,None,2170.8886620991398,None,r,0.1805548903066665,2170.8886620991398,None,,,NC6,001,2019_Dec_04_1446,ProdSingRedo,3.2.4,59.976571981129325,
,,,,117,0,117,0,,,,,,,,,,,,,,,,,,,,,,,,2173.55617448478,None,,,,,,,,,,,,,,,,,general,aloud,white,117,45,135,2171.6222494177055,None,2171.6222494177055,None,6,1.2547883472871035,2171.6222494177055,None,2172.924454735359,None,2173.4225713051856,None,2173.4225713051856,None,r,0.09449743595905602,2173.4225713051856,None,,,NC6,001,2019_Dec_04_1446,ProdSingRedo,3.2.4,59.976571981129325,
,,,,118,0,118,0,,,,,,,,,,,,,,,,,,,,,,,,2175.8902152448427,None,,,,,,,,,,,,,,,,,rough,aloud,white,118,33,266,2174.0728448317386,None,2174.0728448317386,None,6,1.0840552216395736,2174.0728448317386,None,2175.192386974115,None,2175.706808152143,None,2175.706808152143,None,r,0.13842340488918126,2175.706808152143,None,,,NC6,001,2019_Dec_04_1446,ProdSingRedo,3.2.4,59.976571981129325,
,,,,119,0,119,0,,,,,,,,,,,,,,,,,,,,,,,,2179.174446804682,None,,,,,,,,,,,,,,,,,strength,aloud,white,119,34,310,2176.4068753286265,None,2176.4068753286265,None,3,1.717794620199129,2176.4068753286265,None,2178.174123673234,None,2178.691087606363,None,2178.691087606363,None,f,0.44182452629320323,2178.691087606363,None,,,NC6,001,2019_Dec_04_1446,ProdSingRedo,3.2.4,59.976571981129325,
,,,,120,0,120,0,,,,,,,,,,,,,,,,,,,,,,,,2182.1421299306676,None,,,,,,,,,,,,,,,,,estate,silent,white,120,63,119,2179.691349781351,None,2179.691349781351,None,1,1.7852152602281421,2179.691349781351,None,2181.541827947367,None,2182.0420854573604,None,2182.0420854573604,None,n,0.06662758416496217,2182.0420854573604,None,,,NC6,001,2019_Dec_04_1446,ProdSingRedo,3.2.4,59.976571981129325,
,,,,121,0,121,0,,,,,,,,,,,,,,,,,,,,,,,,2184.742815379752,None,,,,,,,,,,,,,,,,,republic,aloud,white,121,55,260,2182.660214716103,None,2182.660214716103,None,1,1.3921866884920746,2182.660214716103,None,2184.095137167722,None,2184.6095533696935,None,2184.6095533696935,None,n,0.10687968251295388,2184.6095533696935,None,,,NC6,001,2019_Dec_04_1446,ProdSingRedo,3.2.4,59.976571981129325,
,,,,122,0,122,0,,,,,,,,,,,,,,,,,,,,,,,,2186.9935802901164,None,,,,,,,,,,,,,,,,,guide,new_c,white,122,152,147,2185.259597065393,None,2185.259597065393,None,1,1.1368808331899345,2185.259597065393,None,2186.4265337858815,None,2186.9312492031604,None,2186.9312492031604,None,n,0.04081345768645406,2186.9312492031604,None,,,NC6,001,2019_Dec_04_1446,ProdSingRedo,3.2.4,59.976571981129325,
,,,,123,0,123,0,,,,,,,,,,,,,,,,,,,,,,,,2189.310765034752,None,,,,,,,,,,,,,,,,,mechanical,new_a,white,123,95,185,2187.51026525395,None,2187.51026525395,None,1,1.1741687685716897,2187.51026525395,None,2188.7302316036075,None,2189.2441710389685,None,2189.2441710389685,None,n,0.04778208676725626,2189.2441710389685,None,,,NC6,001,2019_Dec_04_1446,ProdSingRedo,3.2.4,59.976571981129325,
,,,,124,0,124,0,,,,,,,,,,,,,,,,,,,,,,,,2192.245079476852,None,,,,,,,,,,,,,,,,,discovery,new_a,white,124,96,95,2189.8321595070884,None,2189.8321595070884,None,1,1.1477746227756143,2189.8321595070884,None,2191.044627279276,None,2191.544905004557,None,2191.544905004557,None,n,0.6509539994876832,2191.544905004557,None,,,NC6,001,2019_Dec_04_1446,ProdSingRedo,3.2.4,59.976571981129325,
,,,,125,0,125,0,,,,,,,,,,,,,,,,,,,,,,,,2194.595709101064,None,,,,,,,,,,,,,,,,,society,aloud,white,125,40,293,2192.7618580523413,None,2192.7618580523413,None,6,1.2580212166067213,2192.7618580523413,None,2194.0455338512547,None,2194.562421277631,None,2194.562421277631,None,r,0.001170923700556159,2194.562421277631,None,,,NC6,001,2019_Dec_04_1446,ProdSingRedo,3.2.4,59.976571981129325,
,,,,126,0,126,0,,,,,,,,,,,,,,,,,,,,,,,,2197.029873639811,None,,,,,,,,,,,,,,,,,quarter,sing,white,126,25,246,2195.1141412761062,None,2195.1141412761062,None,6,1.225538267288357,2195.1141412761062,None,2196.396295340266,None,2196.8964925159235,None,2196.8964925159235,None,r,0.10727496654726565,2196.8964925159235,None,,,NC6,001,2019_Dec_04_1446,ProdSingRedo,3.2.4,59.976571981129325,
,,,,127,0,127,0,,,,,,,,,,,,,,,,,,,,,,,,2199.7974385849666,None,,,,,,,,,,,,,,,,,measure,new_b,white,127,137,184,2197.546839749906,None,2197.546839749906,None,1,1.5846812692470849,2197.546839749906,None,2199.180508551188,None,2199.6974989194423,None,2199.6974989194423,None,n,0.0740197985433042,2199.6974989194423,None,,,NC6,001,2019_Dec_04_1446,ProdSingRedo,3.2.4,59.976571981129325,
,,,,128,0,128,0,,,,,,,,,,,,,,,,,,,,,,,,2202.631746806903,None,,,,,,,,,,,,,,,,,front,new_a,white,128,101,134,2200.3142264906783,None,2200.3142264906783,None,1,1.5691373727750033,2200.3142264906783,None,2201.9332038527355,None,2202.4483366040513,None,2202.4483366040513,None,n,0.1469678827561438,2202.4483366040513,None,,,NC6,001,2019_Dec_04_1446,ProdSingRedo,3.2.4,59.976571981129325,
,,,,129,0,129,0,,,,,,,,,,,,,,,,,,,,,,,,2204.665695510106,None,,,,,,,,,,,,,,,,,turkey,new_a,white,129,93,342,2203.1493921461515,None,2203.1493921461515,None,1,0.7017752011306584,2203.1493921461515,None,2203.915262439521,None,2204.4156144941226,None,2204.4156144941226,None,n,0.20348820206709206,2204.4156144941226,None,,,NC6,001,2019_Dec_04_1446,ProdSingRedo,3.2.4,59.976571981129325,
,,,,130,0,130,0,,,,,,,,,,,,,,,,,,,,,,,,2207.099768925458,None,,,,,,,,,,,,,,,,,service,new_b,white,130,124,280,2205.182356527075,None,2205.182356527075,None,1,1.1487122948747128,2205.182356527075,None,2206.3827608299907,None,2206.882883986924,None,2206.882883986924,None,n,0.16809862502850592,2206.882883986924,None,,,NC6,001,2019_Dec_04_1446,ProdSingRedo,3.2.4,59.976571981129325,
,,,,131,0,131,0,,,,,,,,,,,,,,,,,,,,,,,,2209.050370870391,None,,,,,,,,,,,,,,,,,relation,new_a,white,131,110,257,2207.6165975723416,None,2207.6165975723416,None,1,0.5783837831113487,2207.6165975723416,None,2208.2358364874963,None,2208.7501397957094,None,2208.7501397957094,None,n,0.252711784793064,2208.7501397957094,None,,,NC6,001,2019_Dec_04_1446,ProdSingRedo,3.2.4,59.976571981129325,
,,,,132,0,132,0,,,,,,,,,,,,,,,,,,,,,,,,2211.0176238801796,None,,,,,,,,,,,,,,,,,husband,silent,white,132,72,156,2209.5690776605625,None,2209.5690776605625,None,1,0.6978357348125428,2209.5690776605625,None,2210.3173349590506,None,2210.8174211066216,None,2210.8174211066216,None,n,0.1532946031074971,2210.8174211066216,None,,,NC6,001,2019_Dec_04_1446,ProdSingRedo,3.2.4,59.976571981129325,
,,,,133,0,133,0,,,,,,,,,,,,,,,,,,,,,,,,2213.9851695429534,None,,,,,,,,,,,,,,,,,agreement,sing,white,133,6,5,2211.534313509008,None,2211.534313509008,None,6,1.1408669501543045,2211.534313509008,None,2212.7212943295017,None,2213.2350400106516,None,2213.2350400106516,None,r,0.7034745181445032,2213.2350400106516,None,,,NC6,001,2019_Dec_04_1446,ProdSingRedo,3.2.4,59.976571981129325,
,,,,134,0,134,0,,,,,,,,,,,,,,,,,,,,,,,,2216.602528138086,None,,,,,,,,,,,,,,,,,afternoon,new_b,white,134,125,3,2214.501905822428,None,2214.501905822428,None,1,1.4764751617331058,2214.501905822428,None,2216.006724492414,None,2216.5359615103807,None,2216.5359615103807,None,n,0.04235913930460811,2216.5359615103807,None,,,NC6,001,2019_Dec_04_1446,ProdSingRedo,3.2.4,59.976571981129325,
,,,,135,0,135,0,,,,,,,,,,,,,,,,,,,,,,,,2219.286874146899,None,,,,,,,,,,,,,,,,,short,aloud,white,135,31,285,2217.103551335633,None,2217.103551335633,None,3,1.5709610905032605,2217.103551335633,None,2218.7211155032273,None,2219.2368369819596,None,2219.2368369819596,None,f,0.013436855748295784,2219.2368369819596,None,,,NC6,001,2019_Dec_04_1446,ProdSingRedo,3.2.4,59.976571981129325,
,,,,136,0,136,0,,,,,,,,,,,,,,,,,,,,,,,,2221.4707925273106,None,,,,,,,,,,,,,,,,,reach,new_a,white,136,113,253,2219.803663607454,None,2219.803663607454,None,1,1.0305242566391826,2219.803663607454,None,2220.870520400349,None,2221.3874893093016,None,2221.3874893093016,None,n,0.03901524213142693,2221.3874893093016,None,,,NC6,001,2019_Dec_04_1446,ProdSingRedo,3.2.4,59.976571981129325,
,,,,137,0,137,0,,,,,,,,,,,,,,,,,,,,,,,,2223.6881685385015,None,,,,,,,,,,,,,,,,,notice,new_a,white,137,116,201,2221.98766782484,None,2221.98766782484,None,1,1.0224297989625484,2221.98766782484,None,2223.0563862775452,None,2223.5546017461456,None,2223.5546017461456,None,n,0.08736677444539964,2223.5546017461456,None,,,NC6,001,2019_Dec_04_1446,ProdSingRedo,3.2.4,59.976571981129325,
,,,,138,0,138,0,,,,,,,,,,,,,,,,,,,,,,,,2225.9221897053067,None,,,,,,,,,,,,,,,,,industry,new_b,white,138,122,161,2224.2050102476496,None,2224.2050102476496,None,1,1.0129949213005602,2224.2050102476496,None,2225.255250185961,None,2225.755420615198,None,2225.755420615198,None,n,0.11841289303265512,2225.755420615198,None,,,NC6,001,2019_Dec_04_1446,ProdSingRedo,3.2.4,59.976571981129325,
,,,,139,0,139,0,,,,,,,,,,,,,,,,,,,,,,,,2229.22309036809,None,,,,,,,,,,,,,,,,,beauty,sing,white,139,26,18,2226.439316603588,None,2226.439316603588,None,6,1.546363294357434,2226.439316603588,None,2228.029648163123,None,2228.539527463261,None,2228.539527463261,None,r,0.6545709567144513,2228.539527463261,None,,,NC6,001,2019_Dec_04_1446,ProdSingRedo,3.2.4,59.976571981129325,
,,,,140,0,140,0,,,,,,,,,,,,,,,,,,,,,,,,2232.840908313403,None,,,,,,,,,,,,,,,,,clean,new_c,white,140,175,51,2229.739923680201,None,2229.739923680201,None,1,2.2535169697366655,2229.739923680201,None,2232.042913656449,None,2232.557572751306,None,2232.557572751306,None,n,0.24388491665013134,2232.557572751306,None,,,NC6,001,2019_Dec_04_1446,ProdSingRedo,3.2.4,59.976571981129325,
,,,,141,0,141,0,,,,,,,,,,,,,,,,,,,,,,,,2235.29163590353,None,,,,,,,,,,,,,,,,,corner,silent,white,141,70,69,2233.357852964429,None,2233.357852964429,None,1,1.1717619213741273,2233.357852964429,None,2234.5757100961637,None,2235.0916001382284,None,2235.0916001382284,None,n,0.1578607391566038,2235.0916001382284,None,,,NC6,001,2019_Dec_04_1446,ProdSingRedo,3.2.4,59.976571981129325,
,,,,142,0,142,0,,,,,,,,,,,,,,,,,,,,,,,,2237.5924535286613,None,,,,,,,,,,,,,,,,,force,new_c,white,142,172,131,2235.8085326601285,None,2235.8085326601285,None,1,1.0408999163191766,2235.8085326601285,None,2236.8920971199404,None,2237.409050478833,None,2237.409050478833,None,n,0.13604672509245574,2237.409050478833,None,,,NC6,001,2019_Dec_04_1446,ProdSingRedo,3.2.4,59.976571981129325,
,,,,143,0,143,0,,,,,,,,,,,,,,,,,,,,,,,,2240.209939945489,None,,,,,,,,,,,,,,,,,express,aloud,white,143,46,124,2238.109153731726,None,2238.109153731726,None,1,1.163897916674614,2238.109153731726,None,2239.312362653669,None,2239.826350605581,None,2239.826350605581,None,n,0.33469417598098516,2239.826350605581,None,,,NC6,001,2019_Dec_04_1446,ProdSingRedo,3.2.4,59.976571981129325,
,,,,144,0,144,0,,,,,,,,,,,,,,,,,,,,,,,,2242.8605574406683,None,,,,,,,,,,,,,,,,,opening,new_c,white,144,163,205,2240.7266454356723,None,2240.7266454356723,None,2,1.44244404300116,2240.7266454356723,None,2242.2141745532863,None,2242.7273890422657,None,2242.7273890422657,None,n,0.09736238932237029,2242.7273890422657,None,,,NC6,001,2019_Dec_04_1446,ProdSingRedo,3.2.4,59.976571981129325,
,,,,145,0,145,0,,,,,,,,,,,,,,,,,,,,,,,,2245.8615884133615,None,,,,,,,,,,,,,,,,,council,sing,white,145,14,71,2243.3775751772337,None,2243.3775751772337,None,1,1.8310685106553137,2243.3775751772337,None,2245.2472026897594,None,2245.7616207576357,None,2245.7616207576357,None,n,0.07894109934568405,2245.7616207576357,None,,,NC6,001,2019_Dec_04_1446,ProdSingRedo,3.2.4,59.976571981129325,
,,,,146,0,146,0,,,,,,,,,,,,,,,,,,,,,,,,2249.045992579544,None,,,,,,,,,,,,,,,,,series,new_b,white,146,130,279,2246.3784761507995,None,2246.3784761507995,None,1,1.9501239345408976,2246.3784761507995,None,2248.365162763279,None,2248.8792651637923,None,2248.8792651637923,None,n,0.12920436263084412,2248.8792651637923,None,,,NC6,001,2019_Dec_04_1446,ProdSingRedo,3.2.4,59.976571981129325,
,,,,147,0,147,0,,,,,,,,,,,,,,,,,,,,,,,,2251.5633888058364,None,,,,,,,,,,,,,,,,,still,silent,white,147,73,304,2249.5628106526565,None,2249.5628106526565,None,1,1.2694723221939057,2249.5628106526565,None,2250.8816797859035,None,2251.3967074183747,None,2251.3967074183747,None,n,0.13161618588492274,2251.3967074183747,None,,,NC6,001,2019_Dec_04_1446,ProdSingRedo,3.2.4,59.976571981129325,
,,,,148,0,148,0,,,,,,,,,,,,,,,,,,,,,,,,2254.030849565286,None,,,,,,,,,,,,,,,,,instrument,sing,white,148,2,163,2252.0802218068857,None,2252.0802218068857,None,6,1.3118519876152277,2252.0802218068857,None,2253.413963382598,None,2253.913963071769,None,2253.913963071769,None,r,0.07012667134404182,2253.913963071769,None,,,NC6,001,2019_Dec_04_1446,ProdSingRedo,3.2.4,59.976571981129325,
,,,,149,0,149,0,,,,,,,,,,,,,,,,,,,,,,,,2257.698585250415,None,,,,,,,,,,,,,,,,,equipment,silent,white,149,76,116,2254.535234075971,None,2254.535234075971,None,1,1.5531400351319462,2254.535234075971,None,2256.14805950108,None,2256.648179547861,None,2256.648179547861,None,n,1.0157230338081717,2256.648179547861,None,,,NC6,001,2019_Dec_04_1446,ProdSingRedo,3.2.4,59.976571981129325,
,,,,150,0,150,0,,,,,,,,,,,,,,,,,,,,,,,,2260.1993717753794,None,,,,,,,,,,,,,,,,,minor,silent,white,150,84,191,2258.215286075603,None,2258.215286075603,None,1,0.9685085262171924,2258.215286075603,None,2259.2343131981324,None,2259.74918937264,None,2259.74918937264,None,n,0.40252564987167716,2259.74918937264,None,,,NC6,001,2019_Dec_04_1446,ProdSingRedo,3.2.4,59.976571981129325,
,,,,151,0,151,0,,,,,,,,,,,,,,,,,,,,,,,,2263.083548598923,None,,,,,,,,,,,,,,,,,safety,aloud,white,151,49,270,2260.7162206375506,None,2260.7162206375506,None,1,1.0274680368602276,2260.7162206375506,None,2261.7852774609346,None,2262.299903278472,None,2262.299903278472,None,n,0.7399208808783442,2262.299903278472,None,,,NC6,001,2019_Dec_04_1446,ProdSingRedo,3.2.4,59.976571981129325,
,,,,152,0,152,0,,,,,,,,,,,,,,,,,,,,,,,,2265.5009889875073,None,,,,,,,,,,,,,,,,,answer,new_c,white,152,173,8,2263.600434781285,None,2263.600434781285,None,1,1.0869988584890962,2263.600434781285,None,2264.7376216407865,None,2265.25091667939,None,2265.25091667939,None,n,0.2046522838063538,2265.25091667939,None,,,NC6,001,2019_Dec_04_1446,ProdSingRedo,3.2.4,59.976571981129325,
,,,,153,0,153,0,,,,,,,,,,,,,,,,,,,,,,,,2268.235178406583,None,,,,,,,,,,,,,,,,,speech,new_b,white,153,142,298,2266.0010157336947,None,2266.0010157336947,None,2,1.3904687114991248,2266.0010157336947,None,2267.4369654259644,None,2267.934928360628,None,2267.934928360628,None,n,0.26439178828150034,2267.934928360628,None,,,NC6,001,2019_Dec_04_1446,ProdSingRedo,3.2.4,59.976571981129325,
,,,,154,0,154,0,,,,,,,,,,,,,,,,,,,,,,,,2271.1027439737227,None,,,,,,,,,,,,,,,,,entrance,new_b,white,154,123,115,2268.751996168634,None,2268.751996168634,None,1,1.62348129786551,2268.751996168634,None,2270.419021524489,None,2270.9358654108364,None,2270.9358654108364,None,n,0.12726153107360005,2270.9358654108364,None,,,NC6,001,2019_Dec_04_1446,ProdSingRedo,3.2.4,59.976571981129325,
,,,,155,0,155,0,,,,,,,,,,,,,,,,,,,,,,,,2274.6377721659373,None,,,,,,,,,,,,,,,,,public,silent,white,155,66,244,2271.619956708513,None,2271.619956708513,None,2,2.202962608076632,2271.619956708513,None,2273.873811737867,None,2274.3869055579416,None,2274.3869055579416,None,f,0.22793018631637096,2274.3869055579416,None,,,NC6,001,2019_Dec_04_1446,ProdSingRedo,3.2.4,59.976571981129325,
,,,,156,0,156,0,,,,,,,,,,,,,,,,,,,,,,,,2277.0044286733028,None,,,,,,,,,,,,,,,,,touch,new_b,white,156,144,332,2275.1539495741017,None,2275.1539495741017,None,1,1.1807564198970795,2275.1539495741017,None,2276.3708923591767,None,2276.8878450961784,None,2276.8878450961784,None,n,0.08714596275240183,2276.8878450961784,None,,,NC6,001,2019_Dec_04_1446,ProdSingRedo,3.2.4,59.976571981129325,
,,,,157,0,157,0,,,,,,,,,,,,,,,,,,,,,,,,2279.672009790549,None,,,,,,,,,,,,,,,,,private,new_b,white,157,120,237,2277.5063366724644,None,2277.5063366724644,None,1,1.1244208361022174,2277.5063366724644,None,2278.675307970261,None,2279.1884406656027,None,2279.1884406656027,None,n,0.4503229761030525,2279.1884406656027,None,,,NC6,001,2019_Dec_04_1446,ProdSingRedo,3.2.4,59.976571981129325,
,,,,158,0,158,0,,,,,,,,,,,,,,,,,,,,,,,,2282.5562485035043,None,,,,,,,,,,,,,,,,,direction,aloud,white,158,41,94,2280.188847767655,None,2280.188847767655,None,3,1.7375308279879391,2280.188847767655,None,2281.974408551352,None,2282.489468217129,None,2282.489468217129,None,f,0.02893534558825195,2282.489468217129,None,,,NC6,001,2019_Dec_04_1446,ProdSingRedo,3.2.4,59.976571981129325,
,,,,159,0,159,0,,,,,,,,,,,,,,,,,,,,,,,,2285.2570561764296,None,,,,,,,,,,,,,,,,,sound,new_a,white,159,90,295,2283.073060667375,None,2283.073060667375,None,1,1.1412905352190137,2283.073060667375,None,2284.239888225915,None,2284.7569040963426,None,2284.7569040963426,None,n,0.4575733731035143,2284.7569040963426,None,,,NC6,001,2019_Dec_04_1446,ProdSingRedo,3.2.4,59.976571981129325,
,,,,160,0,160,0,,,,,,,,,,,,,,,,,,,,,,,,2287.907862761058,None,,,,,,,,,,,,,,,,,addition,silent,white,160,65,2,2285.7738798474893,None,2285.7738798474893,None,1,1.3041923113632947,2285.7738798474893,None,2287.128677835921,None,2287.6410215182696,None,2287.6410215182696,None,n,0.2290712536778301,2287.6410215182696,None,,,NC6,001,2019_Dec_04_1446,ProdSingRedo,3.2.4,59.976571981129325,
,,,,161,0,161,0,,,,,,,,,,,,,,,,,,,,,,,,2290.1918915472925,None,,,,,,,,,,,,,,,,,population,silent,white,161,61,227,2288.4245533230714,None,2288.4245533230714,None,1,1.1014386967290193,2288.4245533230714,None,2289.5618157561403,None,2290.0750905794557,None,2290.0750905794557,None,n,0.07509275642223656,2290.0750905794557,None,,,NC6,001,2019_Dec_04_1446,ProdSingRedo,3.2.4,59.976571981129325,
,,,,162,0,162,0,,,,,,,,,,,,,,,,,,,,,,,,2292.776045978768,None,,,,,,,,,,,,,,,,,distance,silent,white,162,68,100,2290.7086275157053,None,2290.7086275157053,None,1,1.313203914789483,2290.7086275157053,None,2292.05897350586,None,2292.575961697148,None,2292.575961697148,None,n,0.1580535606481135,2292.575961697148,None,,,NC6,001,2019_Dec_04_1446,ProdSingRedo,3.2.4,59.976571981129325,
,,,,163,0,163,0,,,,,,,,,,,,,,,,,,,,,,,,2295.1267738796305,None,,,,,,,,,,,,,,,,,curve,new_c,white,163,170,82,2293.293011155678,None,2293.293011155678,None,1,1.1446792164351791,2293.293011155678,None,2294.481355410535,None,2294.9932307233103,None,2294.9932307233103,None,n,0.08443153440020978,2294.9932307233103,None,,,NC6,001,2019_Dec_04_1446,ProdSingRedo,3.2.4,59.976571981129325,
,,,,164,0,164,0,,,,,,,,,,,,,,,,,,,,,,,,2297.1107180733234,None,,,,,,,,,,,,,,,,,crowd,new_c,white,164,158,81,2295.6435456131585,None,2295.6435456131585,None,1,0.6502337181009352,2295.6435456131585,None,2296.329888256965,None,2296.8439408971462,None,2296.8439408971462,None,n,0.21753026824444532,2296.8439408971462,None,,,NC6,001,2019_Dec_04_1446,ProdSingRedo,3.2.4,59.976571981129325,
,,,,165,0,165,0,,,,,,,,,,,,,,,,,,,,,,,,2299.0779589540325,None,,,,,,,,,,,,,,,,,chief,new_b,white,165,146,48,2297.6274033484515,None,2297.6274033484515,None,1,0.6179970826487988,2297.6274033484515,None,2298.2942505001556,None,2298.811242423253,None,2298.811242423253,None,n,0.2261664920952171,2298.811242423253,None,,,NC6,001,2019_Dec_04_1446,ProdSingRedo,3.2.4,59.976571981129325,
,,,,166,0,166,0,,,,,,,,,,,,,,,,,,,,,,,,2301.3786870103795,None,,,,,,,,,,,,,,,,,growth,new_b,white,166,133,144,2299.594758366933,None,2299.594758366933,None,1,0.714612755458802,2299.594758366933,None,2300.3468288648874,None,2300.8618403254077,None,2300.8618403254077,None,n,0.4794337269850075,2300.8618403254077,None,,,NC6,001,2019_Dec_04_1446,ProdSingRedo,3.2.4,59.976571981129325,
,,,,167,0,167,0,,,,,,,,,,,,,,,,,,,,,,,,2303.9127691336907,None,,,,,,,,,,,,,,,,,present,sing,white,167,13,231,2301.8953511372674,None,2301.8953511372674,None,6,1.3339505691546947,2301.8953511372674,None,2303.264820038574,None,2303.77940853592,None,2303.77940853592,None,r,0.09771319990977645,2303.77940853592,None,,,NC6,001,2019_Dec_04_1446,ProdSingRedo,3.2.4,59.976571981129325,
,,,,168,0,168,0,,,,,,,,,,,,,,,,,,,,,,,,2306.430232847575,None,,,,,,,,,,,,,,,,,center,new_b,white,168,149,44,2304.429636034183,None,2304.429636034183,None,1,1.3113833072129637,2304.429636034183,None,2305.7817911247257,None,2306.2967142604757,None,2306.2967142604757,None,n,0.10027865809388459,2306.2967142604757,None,,,NC6,001,2019_Dec_04_1446,ProdSingRedo,3.2.4,59.976571981129325,
,,,,169,0,169,0,,,,,,,,,,,,,,,,,,,,,,,,2308.6808046253864,None,,,,,,,,,,,,,,,,,heavy,new_a,white,169,117,151,2306.947060250677,None,2306.947060250677,None,1,1.0579957142472267,2306.947060250677,None,2308.047987037571,None,2308.564219804015,None,2308.564219804015,None,n,0.07289552479051054,2308.564219804015,None,,,NC6,001,2019_Dec_04_1446,ProdSingRedo,3.2.4,59.976571981129325,
,,,,170,0,170,0,,,,,,,,,,,,,,,,,,,,,,,,2311.131680874387,None,,,,,,,,,,,,,,,,,session,new_a,white,170,97,281,2309.1977066688705,None,2309.1977066688705,None,1,1.175199119374156,2309.1977066688705,None,2310.414568282198,None,2310.931618362898,None,2310.931618362898,None,n,0.16106903948821127,2310.931618362898,None,,,NC6,001,2019_Dec_04_1446,ProdSingRedo,3.2.4,59.976571981129325,
,,,,171,0,171,0,,,,,,,,,,,,,,,,,,,,,,,,2312.832199004246,None,,,,,,,,,,,,,,,,,piece,new_a,white,171,108,221,2311.6485092104413,None,2311.6485092104413,None,1,0.5001663863658905,2311.6485092104413,None,2312.181827512104,None,2312.6987992201466,None,2312.6987992201466,None,n,0.08998261485248804,2312.6987992201466,None,,,NC6,001,2019_Dec_04_1446,ProdSingRedo,3.2.4,59.976571981129325,
,,,,172,0,172,0,,,,,,,,,,,,,,,,,,,,,,,,2315.1495831015054,None,,,,,,,,,,,,,,,,,religion,new_c,white,172,171,258,2313.34885255713,None,2313.34885255713,None,1,0.7436560189817101,2313.34885255713,None,2314.1324288349133,None,2314.649421380367,None,2314.649421380367,None,n,0.45894862548448145,2314.649421380367,None,,,NC6,001,2019_Dec_04_1446,ProdSingRedo,3.2.4,59.976571981129325,
,,,,173,0,173,0,,,,,,,,,,,,,,,,,,,,,,,,2317.133409736445,None,,,,,,,,,,,,,,,,,whole,new_c,white,173,154,355,2315.6662559362594,None,2315.6662559362594,None,1,0.7140604152809829,2315.6662559362594,None,2316.4164940086193,None,2316.9334563866723,None,2316.9334563866723,None,n,0.16688602697104216,2316.9334563866723,None,,,NC6,001,2019_Dec_04_1446,ProdSingRedo,3.2.4,59.976571981129325,
,,,,174,0,174,0,,,,,,,,,,,,,,,,,,,,,,,,2323.7355351261795,None,,,,,,,,,,,,,,,,,majority,new_a,white,174,92,176,2317.6526722875424,None,2317.6526722875424,None,4,4.503244376275688,2317.6526722875424,None,2322.2047925461084,None,2322.718562174123,None,2322.718562174123,None,f,0.9736310453154147,2322.718562174123,None,,,NC6,001,2019_Dec_04_1446,ProdSingRedo,3.2.4,59.976571981129325,
,,,,175,0,175,0,,,,,,,,,,,,,,,,,,,,,,,,2327.2532712782267,None,,,,,,,,,,,,,,,,,stand,sing,white,175,8,302,2324.2523656394333,None,2324.2523656394333,None,1,1.0557978609576821,2324.2523656394333,None,2325.352515542414,None,2325.869474810548,None,2325.869474810548,None,n,1.3424085886217654,2325.869474810548,None,,,NC6,001,2019_Dec_04_1446,ProdSingRedo,3.2.4,59.976571981129325,
,,,,176,0,176,0,,,,,,,,,,,,,,,,,,,,,,,,2329.1372313329484,None,,,,,,,,,,,,,,,,,style,silent,white,176,89,311,2327.7709408754017,None,2327.7709408754017,None,1,0.6408265198115259,2327.7709408754017,None,2328.470160570694,None,2328.9704731279053,None,2328.9704731279053,None,n,0.12909240182489157,2328.9704731279053,None,,,NC6,001,2019_Dec_04_1446,ProdSingRedo,3.2.4,59.976571981129325,
,,,,177,0,177,0,,,,,,,,,,,,,,,,,,,,,,,,2330.9877247381955,None,,,,,,,,,,,,,,,,,travel,new_a,white,177,105,338,2329.6556737711653,None,2329.6556737711653,None,1,0.5240280400030315,2329.6556737711653,None,2330.227299784543,None,2330.7376863292884,None,2330.7376863292884,None,n,0.20978786516934633,2330.7376863292884,None,,,NC6,001,2019_Dec_04_1446,ProdSingRedo,3.2.4,59.976571981129325,
,,,,178,0,178,0,,,,,,,,,,,,,,,,,,,,,,,,2332.8049822575413,None,,,,,,,,,,,,,,,,,benefit,new_a,white,178,104,20,2331.5044286733028,None,2331.5044286733028,None,1,0.4912011222913861,2331.5044286733028,None,2332.0418929469306,None,2332.554757558275,None,2332.554757558275,None,n,0.2087761745788157,2332.554757558275,None,,,NC6,001,2019_Dec_04_1446,ProdSingRedo,3.2.4,59.976571981129325,
,,,,179,0,179,0,,,,,,,,,,,,,,,,,,,,,,,,2334.538720101118,None,,,,,,,,,,,,,,,,,childhood,new_c,white,179,167,49,2333.321743106004,None,2333.321743106004,None,1,0.6174767757765949,2333.321743106004,None,2333.9757928228937,None,2334.4888222652953,None,2334.4888222652953,None,n,0.0023418476339429617,2334.4888222652953,None,,,NC6,001,2019_Dec_04_1446,ProdSingRedo,3.2.4,59.976571981129325,
,,,,,,,,,,,,,,,,,,,,,,,,,,,,,,,,,,,,,,,,,,,,,,,,,,,,,,,,,,,,,,,,,,,,,,,,,2335.0390217734966,None,,,,,,,
