StudyLoop.thisRepN,StudyLoop.thisTrialN,StudyLoop.thisN,StudyLoop.thisIndex,TestLoop.thisRepN,TestLoop.thisTrialN,TestLoop.thisN,TestLoop.thisIndex,textCondition.started,textCondition.stopped,keyCondition.keys,keyCondition.rt,keyCondition.started,keyCondition.stopped,Condition,stim_colors,color_sing,color_aloud,color_silent,textWelcome.started,textWelcome.stopped,keyWelcome.keys,keyWelcome.rt,keyWelcome.started,keyWelcome.stopped,textAloud.started,textAloud.stopped,textSilent.started,textSilent.stopped,textSing.started,textSing.stopped,textBlank500.started,textBlank500.stopped,study_word,study_type,study_color,study_num,study_word_num,textStudy.started,textStudy.stopped,keyStudy.keys,keyStudy.started,keyStudy.stopped,textTestInstructions.started,textTestInstructions.stopped,key_resp_3.keys,key_resp_3.rt,key_resp_3.started,key_resp_3.stopped,testWord,testType,testColor,testN,test_num,test_word_num,textConf.started,textConf.stopped,textConfScale.started,textConfScale.stopped,keyConf.keys,keyConf.rt,keyConf.started,keyConf.stopped,textTestBlank.started,textTestBlank.stopped,textRKN.started,textRKN.stopped,textRKNScale.started,textRKNScale.stopped,keyRKN.keys,keyRKN.rt,keyRKN.started,keyRKN.stopped,textEnd.started,textEnd.stopped,participant,session,date,expName,psychopyVersion,frameRate,
,,,,,,,,36.55303460522555,None,n,12.882967957295477,36.55303460522555,None,,,,,,,,,,,,,,,,,,,,,,,,,,,,,,,,,,,,,,,,,,,,,,,,,,,,,,,,,,,,,,NC7,001,2019_Dec_05_1256,ProdSingRedo,3.2.4,59.92280912365884,
,,,,,,,,,,,,,,NeutralTest,"['blue', 'red', 'yellow']",blue,red,yellow,49.46113310591318,None,space,293.39714966365136,49.46113310591318,None,,,,,,,,,,,,,,,,,,,,,,,,,,,,,,,,,,,,,,,,,,,,,,,,,,,NC7,001,2019_Dec_05_1256,ProdSingRedo,3.2.4,59.92280912365884,
0,0,0,0,,,,,,,,,,,,,,,,,,,,,,49.46113310591318,None,49.46113310591318,None,49.46113310591318,None,345.39626921596937,None,guide,silent,yellow,65,147,343.3956608953886,None,None,343.3956608953886,None,,,,,,,,,,,,,,,,,,,,,,,,,,,,,,,,,NC7,001,2019_Dec_05_1256,ProdSingRedo,3.2.4,59.92280912365884,
1,0,1,0,,,,,,,,,,,,,,,,,,,,,,,,,,,,347.9137696281541,None,addition,sing,blue,8,2,345.91308417893015,None,None,345.91308417893015,None,,,,,,,,,,,,,,,,,,,,,,,,,,,,,,,,,NC7,001,2019_Dec_05_1256,ProdSingRedo,3.2.4,59.92280912365884,
2,0,2,0,,,,,,,,,,,,,,,,,,,,,,,,,,,,350.43120161956176,None,appeal,aloud,red,49,9,348.43053794070147,None,None,348.43053794070147,None,,,,,,,,,,,,,,,,,,,,,,,,,,,,,,,,,NC7,001,2019_Dec_05_1256,ProdSingRedo,3.2.4,59.92280912365884,
3,0,3,0,,,,,,,,,,,,,,,,,,,,,,,,,,,,352.9486292572692,None,close,aloud,red,50,53,350.9479724203702,None,None,350.9479724203702,None,,,,,,,,,,,,,,,,,,,,,,,,,,,,,,,,,NC7,001,2019_Dec_05_1256,ProdSingRedo,3.2.4,59.92280912365884,
4,0,4,0,,,,,,,,,,,,,,,,,,,,,,,,,,,,355.4660600046627,None,election,sing,blue,26,109,353.4654096988961,None,None,353.4654096988961,None,,,,,,,,,,,,,,,,,,,,,,,,,,,,,,,,,NC7,001,2019_Dec_05_1256,ProdSingRedo,3.2.4,59.92280912365884,
5,0,5,0,,,,,,,,,,,,,,,,,,,,,,,,,,,,357.98350785742514,None,watch,sing,blue,17,351,355.98283173842356,None,None,355.98283173842356,None,,,,,,,,,,,,,,,,,,,,,,,,,,,,,,,,,NC7,001,2019_Dec_05_1256,ProdSingRedo,3.2.4,59.92280912365884,
6,0,6,0,,,,,,,,,,,,,,,,,,,,,,,,,,,,360.5009059496224,None,plane,aloud,red,58,223,358.50028425618075,None,None,358.50028425618075,None,,,,,,,,,,,,,,,,,,,,,,,,,,,,,,,,,NC7,001,2019_Dec_05_1256,ProdSingRedo,3.2.4,59.92280912365884,
7,0,7,0,,,,,,,,,,,,,,,,,,,,,,,,,,,,363.0183802375104,None,audience,aloud,red,48,14,361.01766151119955,None,None,361.01766151119955,None,,,,,,,,,,,,,,,,,,,,,,,,,,,,,,,,,NC7,001,2019_Dec_05_1256,ProdSingRedo,3.2.4,59.92280912365884,
8,0,8,0,,,,,,,,,,,,,,,,,,,,,,,,,,,,365.53585794661194,None,engineer,aloud,red,52,114,363.53515974618495,None,None,363.53515974618495,None,,,,,,,,,,,,,,,,,,,,,,,,,,,,,,,,,NC7,001,2019_Dec_05_1256,ProdSingRedo,3.2.4,59.92280912365884,
9,0,9,0,,,,,,,,,,,,,,,,,,,,,,,,,,,,368.0532491968479,None,break,aloud,red,40,26,366.0545202633366,None,None,366.0545202633366,None,,,,,,,,,,,,,,,,,,,,,,,,,,,,,,,,,NC7,001,2019_Dec_05_1256,ProdSingRedo,3.2.4,59.92280912365884,
10,0,10,0,,,,,,,,,,,,,,,,,,,,,,,,,,,,370.57069082953967,None,institute,sing,blue,15,162,368.5699201656971,None,None,368.5699201656971,None,,,,,,,,,,,,,,,,,,,,,,,,,,,,,,,,,NC7,001,2019_Dec_05_1256,ProdSingRedo,3.2.4,59.92280912365884,
11,0,11,0,,,,,,,,,,,,,,,,,,,,,,,,,,,,373.08815920818597,None,angle,aloud,red,59,7,371.0874781131279,None,None,371.0874781131279,None,,,,,,,,,,,,,,,,,,,,,,,,,,,,,,,,,NC7,001,2019_Dec_05_1256,ProdSingRedo,3.2.4,59.92280912365884,
12,0,12,0,,,,,,,,,,,,,,,,,,,,,,,,,,,,375.6055856018793,None,murder,silent,yellow,61,195,373.60489828675054,None,None,373.60489828675054,None,,,,,,,,,,,,,,,,,,,,,,,,,,,,,,,,,NC7,001,2019_Dec_05_1256,ProdSingRedo,3.2.4,59.92280912365884,
13,0,13,0,,,,,,,,,,,,,,,,,,,,,,,,,,,,378.123001732165,None,citizen,sing,blue,1,50,376.12517315056175,None,None,376.12517315056175,None,,,,,,,,,,,,,,,,,,,,,,,,,,,,,,,,,NC7,001,2019_Dec_05_1256,ProdSingRedo,3.2.4,59.92280912365884,
14,0,14,0,,,,,,,,,,,,,,,,,,,,,,,,,,,,380.64045673795044,None,quarter,silent,yellow,71,246,378.639812030131,None,None,378.639812030131,None,,,,,,,,,,,,,,,,,,,,,,,,,,,,,,,,,NC7,001,2019_Dec_05_1256,ProdSingRedo,3.2.4,59.92280912365884,
15,0,15,0,,,,,,,,,,,,,,,,,,,,,,,,,,,,383.1578738014214,None,profession,silent,yellow,86,241,381.1572290936019,None,None,381.1572290936019,None,,,,,,,,,,,,,,,,,,,,,,,,,,,,,,,,,NC7,001,2019_Dec_05_1256,ProdSingRedo,3.2.4,59.92280912365884,
16,0,16,0,,,,,,,,,,,,,,,,,,,,,,,,,,,,385.6753459123429,None,group,silent,yellow,66,143,383.674677568255,None,None,383.674677568255,None,,,,,,,,,,,,,,,,,,,,,,,,,,,,,,,,,NC7,001,2019_Dec_05_1256,ProdSingRedo,3.2.4,59.92280912365884,
17,0,17,0,,,,,,,,,,,,,,,,,,,,,,,,,,,,388.1927782148123,None,background,sing,blue,5,16,386.1931336906273,None,None,386.1931336906273,None,,,,,,,,,,,,,,,,,,,,,,,,,,,,,,,,,NC7,001,2019_Dec_05_1256,ProdSingRedo,3.2.4,59.92280912365884,
18,0,18,0,,,,,,,,,,,,,,,,,,,,,,,,,,,,390.7102039863821,None,universal,sing,blue,3,345,388.7135615674779,None,None,388.7135615674779,None,,,,,,,,,,,,,,,,,,,,,,,,,,,,,,,,,NC7,001,2019_Dec_05_1256,ProdSingRedo,3.2.4,59.92280912365884,
19,0,19,0,,,,,,,,,,,,,,,,,,,,,,,,,,,,393.2276518391445,None,comfort,sing,blue,14,59,391.22698784898967,None,None,391.22698784898967,None,,,,,,,,,,,,,,,,,,,,,,,,,,,,,,,,,NC7,001,2019_Dec_05_1256,ProdSingRedo,3.2.4,59.92280912365884,
20,0,20,0,,,,,,,,,,,,,,,,,,,,,,,,,,,,395.7450956488028,None,permit,silent,yellow,80,218,393.74433960206807,None,None,393.74433960206807,None,,,,,,,,,,,,,,,,,,,,,,,,,,,,,,,,,NC7,001,2019_Dec_05_1256,ProdSingRedo,3.2.4,59.92280912365884,
21,0,21,0,,,,,,,,,,,,,,,,,,,,,,,,,,,,398.26252764021046,None,republic,aloud,red,35,260,396.26166305388324,None,None,396.26166305388324,None,,,,,,,,,,,,,,,,,,,,,,,,,,,,,,,,,NC7,001,2019_Dec_05_1256,ProdSingRedo,3.2.4,59.92280912365884,
22,0,22,0,,,,,,,,,,,,,,,,,,,,,,,,,,,,400.77996056480333,None,judge,silent,yellow,83,166,398.7797478393186,None,None,398.7797478393186,None,,,,,,,,,,,,,,,,,,,,,,,,,,,,,,,,,NC7,001,2019_Dec_05_1256,ProdSingRedo,3.2.4,59.92280912365884,
23,0,23,0,,,,,,,,,,,,,,,,,,,,,,,,,,,,403.2974398287479,None,tennis,aloud,red,51,323,401.2967220353894,None,None,401.2967220353894,None,,,,,,,,,,,,,,,,,,,,,,,,,,,,,,,,,NC7,001,2019_Dec_05_1256,ProdSingRedo,3.2.4,59.92280912365884,
24,0,24,0,,,,,,,,,,,,,,,,,,,,,,,,,,,,405.8148229930084,None,conference,sing,blue,19,66,403.81417424208485,None,None,403.81417424208485,None,,,,,,,,,,,,,,,,,,,,,,,,,,,,,,,,,NC7,001,2019_Dec_05_1256,ProdSingRedo,3.2.4,59.92280912365884,
25,0,25,0,,,,,,,,,,,,,,,,,,,,,,,,,,,,408.33228079765104,None,minor,sing,blue,0,191,406.33162085083313,None,None,406.33162085083313,None,,,,,,,,,,,,,,,,,,,,,,,,,,,,,,,,,NC7,001,2019_Dec_05_1256,ProdSingRedo,3.2.4,59.92280912365884,
26,0,26,0,,,,,,,,,,,,,,,,,,,,,,,,,,,,410.8496726700105,None,country,sing,blue,11,73,408.85289465403184,None,None,408.85289465403184,None,,,,,,,,,,,,,,,,,,,,,,,,,,,,,,,,,NC7,001,2019_Dec_05_1256,ProdSingRedo,3.2.4,59.92280912365884,
27,0,27,0,,,,,,,,,,,,,,,,,,,,,,,,,,,,413.3671634409111,None,throw,silent,yellow,77,330,411.3665196662769,None,None,411.3665196662769,None,,,,,,,,,,,,,,,,,,,,,,,,,,,,,,,,,NC7,001,2019_Dec_05_1256,ProdSingRedo,3.2.4,59.92280912365884,
28,0,28,0,,,,,,,,,,,,,,,,,,,,,,,,,,,,415.8846053846646,None,figure,aloud,red,37,128,413.88394108368084,None,None,413.88394108368084,None,,,,,,,,,,,,,,,,,,,,,,,,,,,,,,,,,NC7,001,2019_Dec_05_1256,ProdSingRedo,3.2.4,59.92280912365884,
29,0,29,0,,,,,,,,,,,,,,,,,,,,,,,,,,,,418.40203613229096,None,owner,aloud,red,43,208,416.4013789843302,None,None,416.4013789843302,None,,,,,,,,,,,,,,,,,,,,,,,,,,,,,,,,,NC7,001,2019_Dec_05_1256,ProdSingRedo,3.2.4,59.92280912365884,
30,0,30,0,,,,,,,,,,,,,,,,,,,,,,,,,,,,420.9194939369336,None,provision,aloud,red,47,243,418.91875250730664,None,None,418.91875250730664,None,,,,,,,,,,,,,,,,,,,,,,,,,,,,,,,,,NC7,001,2019_Dec_05_1256,ProdSingRedo,3.2.4,59.92280912365884,
31,0,31,0,,,,,,,,,,,,,,,,,,,,,,,,,,,,423.4369253064506,None,route,aloud,red,33,267,421.4362578955479,None,None,421.4362578955479,None,,,,,,,,,,,,,,,,,,,,,,,,,,,,,,,,,NC7,001,2019_Dec_05_1256,ProdSingRedo,3.2.4,59.92280912365884,
32,0,32,0,,,,,,,,,,,,,,,,,,,,,,,,,,,,425.9541591897141,None,command,aloud,red,55,60,423.9535402948968,None,None,423.9535402948968,None,,,,,,,,,,,,,,,,,,,,,,,,,,,,,,,,,NC7,001,2019_Dec_05_1256,ProdSingRedo,3.2.4,59.92280912365884,
33,0,33,0,,,,,,,,,,,,,,,,,,,,,,,,,,,,428.4551270287484,None,company,silent,yellow,62,64,426.45433210697956,None,None,426.45433210697956,None,,,,,,,,,,,,,,,,,,,,,,,,,,,,,,,,,NC7,001,2019_Dec_05_1256,ProdSingRedo,3.2.4,59.92280912365884,
34,0,34,0,,,,,,,,,,,,,,,,,,,,,,,,,,,,430.97258576657623,None,cover,aloud,red,32,77,428.97185242315754,None,None,428.97185242315754,None,,,,,,,,,,,,,,,,,,,,,,,,,,,,,,,,,NC7,001,2019_Dec_05_1256,ProdSingRedo,3.2.4,59.92280912365884,
35,0,35,0,,,,,,,,,,,,,,,,,,,,,,,,,,,,433.4899863470346,None,patient,aloud,red,36,213,431.4893301320262,None,None,431.4893301320262,None,,,,,,,,,,,,,,,,,,,,,,,,,,,,,,,,,NC7,001,2019_Dec_05_1256,ProdSingRedo,3.2.4,59.92280912365884,
36,0,36,0,,,,,,,,,,,,,,,,,,,,,,,,,,,,436.00743326661177,None,short,silent,yellow,63,285,434.0067711425945,None,None,434.0067711425945,None,,,,,,,,,,,,,,,,,,,,,,,,,,,,,,,,,NC7,001,2019_Dec_05_1256,ProdSingRedo,3.2.4,59.92280912365884,
37,0,37,0,,,,,,,,,,,,,,,,,,,,,,,,,,,,438.5248752103653,None,little,aloud,red,39,174,436.5242205504328,None,None,436.5242205504328,None,,,,,,,,,,,,,,,,,,,,,,,,,,,,,,,,,NC7,001,2019_Dec_05_1256,ProdSingRedo,3.2.4,59.92280912365884,
38,0,38,0,,,,,,,,,,,,,,,,,,,,,,,,,,,,441.04232181888074,None,running,silent,yellow,81,268,439.04151507886127,None,None,439.04151507886127,None,,,,,,,,,,,,,,,,,,,,,,,,,,,,,,,,,NC7,001,2019_Dec_05_1256,ProdSingRedo,3.2.4,59.92280912365884,
39,0,39,0,,,,,,,,,,,,,,,,,,,,,,,,,,,,443.55976376263425,None,division,silent,yellow,69,101,441.5589532905724,None,None,441.5589532905724,None,,,,,,,,,,,,,,,,,,,,,,,,,,,,,,,,,NC7,001,2019_Dec_05_1256,ProdSingRedo,3.2.4,59.92280912365884,
40,0,40,0,,,,,,,,,,,,,,,,,,,,,,,,,,,,446.077192644123,None,south,silent,yellow,72,296,444.0764876017347,None,None,444.0764876017347,None,,,,,,,,,,,,,,,,,,,,,,,,,,,,,,,,,NC7,001,2019_Dec_05_1256,ProdSingRedo,3.2.4,59.92280912365884,
41,0,41,0,,,,,,,,,,,,,,,,,,,,,,,,,,,,448.59460410964675,None,place,sing,blue,24,222,446.59397184173577,None,None,446.59397184173577,None,,,,,,,,,,,,,,,,,,,,,,,,,,,,,,,,,NC7,001,2019_Dec_05_1256,ProdSingRedo,3.2.4,59.92280912365884,
42,0,42,0,,,,,,,,,,,,,,,,,,,,,,,,,,,,451.1120706223883,None,month,aloud,red,54,193,449.11143400054425,None,None,449.11143400054425,None,,,,,,,,,,,,,,,,,,,,,,,,,,,,,,,,,NC7,001,2019_Dec_05_1256,ProdSingRedo,3.2.4,59.92280912365884,
43,0,43,0,,,,,,,,,,,,,,,,,,,,,,,,,,,,453.6294864418451,None,safety,aloud,red,34,270,451.62884982000105,None,None,451.62884982000105,None,,,,,,,,,,,,,,,,,,,,,,,,,,,,,,,,,NC7,001,2019_Dec_05_1256,ProdSingRedo,3.2.4,59.92280912365884,
44,0,44,0,,,,,,,,,,,,,,,,,,,,,,,,,,,,456.146929318551,None,thick,aloud,red,53,327,454.14628305565566,None,None,454.14628305565566,None,,,,,,,,,,,,,,,,,,,,,,,,,,,,,,,,,NC7,001,2019_Dec_05_1256,ProdSingRedo,3.2.4,59.92280912365884,
45,0,45,0,,,,,,,,,,,,,,,,,,,,,,,,,,,,458.6643920992501,None,damage,sing,blue,25,83,456.66372406622395,None,None,456.66372406622395,None,,,,,,,,,,,,,,,,,,,,,,,,,,,,,,,,,NC7,001,2019_Dec_05_1256,ProdSingRedo,3.2.4,59.92280912365884,
46,0,46,0,,,,,,,,,,,,,,,,,,,,,,,,,,,,461.18180854059756,None,captain,silent,yellow,87,41,459.18117285193875,None,None,459.18117285193875,None,,,,,,,,,,,,,,,,,,,,,,,,,,,,,,,,,NC7,001,2019_Dec_05_1256,ProdSingRedo,3.2.4,59.92280912365884,
47,0,47,0,,,,,,,,,,,,,,,,,,,,,,,,,,,,463.6992769194767,None,mechanical,silent,yellow,64,185,461.69859551335685,None,None,461.69859551335685,None,,,,,,,,,,,,,,,,,,,,,,,,,,,,,,,,,NC7,001,2019_Dec_05_1256,ProdSingRedo,3.2.4,59.92280912365884,
48,0,48,0,,,,,,,,,,,,,,,,,,,,,,,,,,,,466.2166995811276,None,spoke,sing,blue,29,300,464.2160312370397,None,None,464.2160312370397,None,,,,,,,,,,,,,,,,,,,,,,,,,,,,,,,,,NC7,001,2019_Dec_05_1256,ProdSingRedo,3.2.4,59.92280912365884,
49,0,49,0,,,,,,,,,,,,,,,,,,,,,,,,,,,,468.7341349935159,None,reach,sing,blue,23,253,466.7205485459417,None,None,466.7205485459417,None,,,,,,,,,,,,,,,,,,,,,,,,,,,,,,,,,NC7,001,2019_Dec_05_1256,ProdSingRedo,3.2.4,59.92280912365884,
50,0,50,0,,,,,,,,,,,,,,,,,,,,,,,,,,,,471.2515551671386,None,principal,silent,yellow,60,236,469.25079352245666,None,None,469.25079352245666,None,,,,,,,,,,,,,,,,,,,,,,,,,,,,,,,,,NC7,001,2019_Dec_05_1256,ProdSingRedo,3.2.4,59.92280912365884,
51,0,51,0,,,,,,,,,,,,,,,,,,,,,,,,,,,,473.7690061298199,None,crowd,silent,yellow,79,81,471.7683502258733,None,None,471.7683502258733,None,,,,,,,,,,,,,,,,,,,,,,,,,,,,,,,,,NC7,001,2019_Dec_05_1256,ProdSingRedo,3.2.4,59.92280912365884,
52,0,52,0,,,,,,,,,,,,,,,,,,,,,,,,,,,,476.28639333695173,None,measure,aloud,red,30,184,474.2857909256127,None,None,474.2857909256127,None,,,,,,,,,,,,,,,,,,,,,,,,,,,,,,,,,NC7,001,2019_Dec_05_1256,ProdSingRedo,3.2.4,59.92280912365884,
53,0,53,0,,,,,,,,,,,,,,,,,,,,,,,,,,,,478.80388752906583,None,service,aloud,red,42,280,476.80309509509243,None,None,476.80309509509243,None,,,,,,,,,,,,,,,,,,,,,,,,,,,,,,,,,NC7,001,2019_Dec_05_1256,ProdSingRedo,3.2.4,59.92280912365884,
54,0,54,0,,,,,,,,,,,,,,,,,,,,,,,,,,,,481.321337247733,None,entrance,sing,blue,28,115,479.3206654826645,None,None,479.3206654826645,None,,,,,,,,,,,,,,,,,,,,,,,,,,,,,,,,,NC7,001,2019_Dec_05_1256,ProdSingRedo,3.2.4,59.92280912365884,
55,0,55,0,,,,,,,,,,,,,,,,,,,,,,,,,,,,483.8387518231757,None,solution,sing,blue,18,294,481.83809654135257,None,None,481.83809654135257,None,,,,,,,,,,,,,,,,,,,,,,,,,,,,,,,,,NC7,001,2019_Dec_05_1256,ProdSingRedo,3.2.4,59.92280912365884,
56,0,56,0,,,,,,,,,,,,,,,,,,,,,,,,,,,,486.3561974989716,None,stranger,silent,yellow,78,309,484.35553537495434,None,None,484.35553537495434,None,,,,,,,,,,,,,,,,,,,,,,,,,,,,,,,,,NC7,001,2019_Dec_05_1256,ProdSingRedo,3.2.4,59.92280912365884,
57,0,57,0,,,,,,,,,,,,,,,,,,,,,,,,,,,,488.873632600531,None,atmosphere,silent,yellow,74,12,486.87298229453154,None,None,486.87298229453154,None,,,,,,,,,,,,,,,,,,,,,,,,,,,,,,,,,NC7,001,2019_Dec_05_1256,ProdSingRedo,3.2.4,59.92280912365884,
58,0,58,0,,,,,,,,,,,,,,,,,,,,,,,,,,,,491.39107547700405,None,blind,sing,blue,2,24,489.390404334059,None,None,489.390404334059,None,,,,,,,,,,,,,,,,,,,,,,,,,,,,,,,,,NC7,001,2019_Dec_05_1256,ProdSingRedo,3.2.4,59.92280912365884,
59,0,59,0,,,,,,,,,,,,,,,,,,,,,,,,,,,,493.90850777970627,None,state,aloud,red,57,303,491.90786151681095,None,None,491.90786151681095,None,,,,,,,,,,,,,,,,,,,,,,,,,,,,,,,,,NC7,001,2019_Dec_05_1256,ProdSingRedo,3.2.4,59.92280912365884,
60,0,60,0,,,,,,,,,,,,,,,,,,,,,,,,,,,,496.4259484792128,None,treatment,sing,blue,7,339,494.425249657128,None,None,494.425249657128,None,,,,,,,,,,,,,,,,,,,,,,,,,,,,,,,,,NC7,001,2019_Dec_05_1256,ProdSingRedo,3.2.4,59.92280912365884,
61,0,61,0,,,,,,,,,,,,,,,,,,,,,,,,,,,,498.9433826478198,None,master,sing,blue,27,180,496.9427401169669,None,None,496.9427401169669,None,,,,,,,,,,,,,,,,,,,,,,,,,,,,,,,,,NC7,001,2019_Dec_05_1256,ProdSingRedo,3.2.4,59.92280912365884,
62,0,62,0,,,,,,,,,,,,,,,,,,,,,,,,,,,,501.46084636170417,None,carry,silent,yellow,85,43,499.46006139181554,None,None,499.46006139181554,None,,,,,,,,,,,,,,,,,,,,,,,,,,,,,,,,,NC7,001,2019_Dec_05_1256,ProdSingRedo,3.2.4,59.92280912365884,
63,0,63,0,,,,,,,,,,,,,,,,,,,,,,,,,,,,503.9782488080673,None,territory,sing,blue,22,324,501.97746757022105,None,None,501.97746757022105,None,,,,,,,,,,,,,,,,,,,,,,,,,,,,,,,,,NC7,001,2019_Dec_05_1256,ProdSingRedo,3.2.4,59.92280912365884,
64,0,64,0,,,,,,,,,,,,,,,,,,,,,,,,,,,,506.4957022587769,None,character,silent,yellow,76,46,504.4949412359856,None,None,504.4949412359856,None,,,,,,,,,,,,,,,,,,,,,,,,,,,,,,,,,NC7,001,2019_Dec_05_1256,ProdSingRedo,3.2.4,59.92280912365884,
65,0,65,0,,,,,,,,,,,,,,,,,,,,,,,,,,,,509.0131463794969,None,hearing,sing,blue,4,150,507.0125125567429,None,None,507.0125125567429,None,,,,,,,,,,,,,,,,,,,,,,,,,,,,,,,,,NC7,001,2019_Dec_05_1256,ProdSingRedo,3.2.4,59.92280912365884,
66,0,66,0,,,,,,,,,,,,,,,,,,,,,,,,,,,,511.53057152894326,None,series,silent,yellow,67,279,509.5299383280799,None,None,509.5299383280799,None,,,,,,,,,,,,,,,,,,,,,,,,,,,,,,,,,NC7,001,2019_Dec_05_1256,ProdSingRedo,3.2.4,59.92280912365884,
67,0,67,0,,,,,,,,,,,,,,,,,,,,,,,,,,,,514.0480162715539,None,taste,sing,blue,6,322,512.0473525926936,None,None,512.0473525926936,None,,,,,,,,,,,,,,,,,,,,,,,,,,,,,,,,,NC7,001,2019_Dec_05_1256,ProdSingRedo,3.2.4,59.92280912365884,
68,0,68,0,,,,,,,,,,,,,,,,,,,,,,,,,,,,516.5654715884011,None,capital,aloud,red,31,40,514.5648128853645,None,None,514.5648128853645,None,,,,,,,,,,,,,,,,,,,,,,,,,,,,,,,,,NC7,001,2019_Dec_05_1256,ProdSingRedo,3.2.4,59.92280912365884,
69,0,69,0,,,,,,,,,,,,,,,,,,,,,,,,,,,,519.0829141540453,None,agency,sing,blue,12,4,517.0822153317276,None,None,517.0822153317276,None,,,,,,,,,,,,,,,,,,,,,,,,,,,,,,,,,NC7,001,2019_Dec_05_1256,ProdSingRedo,3.2.4,59.92280912365884,
70,0,70,0,,,,,,,,,,,,,,,,,,,,,,,,,,,,521.6003585855942,None,strength,sing,blue,21,310,519.5996846435592,None,None,519.5996846435592,None,,,,,,,,,,,,,,,,,,,,,,,,,,,,,,,,,NC7,001,2019_Dec_05_1256,ProdSingRedo,3.2.4,59.92280912365884,
71,0,71,0,,,,,,,,,,,,,,,,,,,,,,,,,,,,524.1177734720986,None,account,silent,yellow,89,1,522.1171213001944,None,None,522.1171213001944,None,,,,,,,,,,,,,,,,,,,,,,,,,,,,,,,,,NC7,001,2019_Dec_05_1256,ProdSingRedo,3.2.4,59.92280912365884,
72,0,72,0,,,,,,,,,,,,,,,,,,,,,,,,,,,,526.6351762295235,None,victory,aloud,red,56,346,524.6344823832624,None,None,524.6344823832624,None,,,,,,,,,,,,,,,,,,,,,,,,,,,,,,,,,NC7,001,2019_Dec_05_1256,ProdSingRedo,3.2.4,59.92280912365884,
73,0,73,0,,,,,,,,,,,,,,,,,,,,,,,,,,,,529.152652694378,None,smooth,sing,blue,9,292,527.1519924362656,None,None,527.1519924362656,None,,,,,,,,,,,,,,,,,,,,,,,,,,,,,,,,,NC7,001,2019_Dec_05_1256,ProdSingRedo,3.2.4,59.92280912365884,
74,0,74,0,,,,,,,,,,,,,,,,,,,,,,,,,,,,531.6700974369887,None,bucket,silent,yellow,88,33,529.669341390254,None,None,529.669341390254,None,,,,,,,,,,,,,,,,,,,,,,,,,,,,,,,,,NC7,001,2019_Dec_05_1256,ProdSingRedo,3.2.4,59.92280912365884,
75,0,75,0,,,,,,,,,,,,,,,,,,,,,,,,,,,,534.1875204094686,None,device,aloud,red,44,93,532.1867261095904,None,None,532.1867261095904,None,,,,,,,,,,,,,,,,,,,,,,,,,,,,,,,,,NC7,001,2019_Dec_05_1256,ProdSingRedo,3.2.4,59.92280912365884,
76,0,76,0,,,,,,,,,,,,,,,,,,,,,,,,,,,,536.7049701281358,None,number,sing,blue,13,203,534.7040971445385,None,None,534.7040971445385,None,,,,,,,,,,,,,,,,,,,,,,,,,,,,,,,,,NC7,001,2019_Dec_05_1256,ProdSingRedo,3.2.4,59.92280912365884,
77,0,77,0,,,,,,,,,,,,,,,,,,,,,,,,,,,,539.2224061628804,None,speech,silent,yellow,70,298,537.2217415508348,None,None,537.2217415508348,None,,,,,,,,,,,,,,,,,,,,,,,,,,,,,,,,,NC7,001,2019_Dec_05_1256,ProdSingRedo,3.2.4,59.92280912365884,
78,0,78,0,,,,,,,,,,,,,,,,,,,,,,,,,,,,541.7398403312545,None,escape,silent,yellow,68,118,539.7391747862566,None,None,539.7391747862566,None,,,,,,,,,,,,,,,,,,,,,,,,,,,,,,,,,NC7,001,2019_Dec_05_1256,ProdSingRedo,3.2.4,59.92280912365884,
79,0,79,0,,,,,,,,,,,,,,,,,,,,,,,,,,,,544.2572763659991,None,power,aloud,red,46,230,542.256634146208,None,None,542.256634146208,None,,,,,,,,,,,,,,,,,,,,,,,,,,,,,,,,,NC7,001,2019_Dec_05_1256,ProdSingRedo,3.2.4,59.92280912365884,
80,0,80,0,,,,,,,,,,,,,,,,,,,,,,,,,,,,546.774710845435,None,danger,silent,yellow,73,85,544.774012334412,None,None,544.774012334412,None,,,,,,,,,,,,,,,,,,,,,,,,,,,,,,,,,NC7,001,2019_Dec_05_1256,ProdSingRedo,3.2.4,59.92280912365884,
81,0,81,0,,,,,,,,,,,,,,,,,,,,,,,,,,,,549.2921244879253,None,voice,sing,blue,16,348,547.2915077703074,None,None,547.2915077703074,None,,,,,,,,,,,,,,,,,,,,,,,,,,,,,,,,,NC7,001,2019_Dec_05_1256,ProdSingRedo,3.2.4,59.92280912365884,
82,0,82,0,,,,,,,,,,,,,,,,,,,,,,,,,,,,551.8096109048929,None,empty,aloud,red,41,112,549.8089456709567,None,None,549.8089456709567,None,,,,,,,,,,,,,,,,,,,,,,,,,,,,,,,,,NC7,001,2019_Dec_05_1256,ProdSingRedo,3.2.4,59.92280912365884,
83,0,83,0,,,,,,,,,,,,,,,,,,,,,,,,,,,,554.3270046431571,None,trend,silent,yellow,75,340,552.3263552703429,None,None,552.3263552703429,None,,,,,,,,,,,,,,,,,,,,,,,,,,,,,,,,,NC7,001,2019_Dec_05_1256,ProdSingRedo,3.2.4,59.92280912365884,
84,0,84,0,,,,,,,,,,,,,,,,,,,,,,,,,,,,556.8444783091545,None,report,silent,yellow,84,259,554.843826448312,None,None,554.843826448312,None,,,,,,,,,,,,,,,,,,,,,,,,,,,,,,,,,NC7,001,2019_Dec_05_1256,ProdSingRedo,3.2.4,59.92280912365884,
85,0,85,0,,,,,,,,,,,,,,,,,,,,,,,,,,,,559.3619239847176,None,problem,aloud,red,45,238,557.3612009042408,None,None,557.3612009042408,None,,,,,,,,,,,,,,,,,,,,,,,,,,,,,,,,,NC7,001,2019_Dec_05_1256,ProdSingRedo,3.2.4,59.92280912365884,
86,0,86,0,,,,,,,,,,,,,,,,,,,,,,,,,,,,561.8793413592502,None,clean,silent,yellow,82,51,559.8787090915721,None,None,559.8787090915721,None,,,,,,,,,,,,,,,,,,,,,,,,,,,,,,,,,NC7,001,2019_Dec_05_1256,ProdSingRedo,3.2.4,59.92280912365884,
87,0,87,0,,,,,,,,,,,,,,,,,,,,,,,,,,,,564.3965500511695,None,chief,sing,blue,10,48,562.3961308200378,None,None,562.3961308200378,None,,,,,,,,,,,,,,,,,,,,,,,,,,,,,,,,,NC7,001,2019_Dec_05_1256,ProdSingRedo,3.2.4,59.92280912365884,
88,0,88,0,,,,,,,,,,,,,,,,,,,,,,,,,,,,566.9142896239646,None,range,sing,blue,20,251,564.9135687206872,None,None,564.9135687206872,None,,,,,,,,,,,,,,,,,,,,,,,,,,,,,,,,,NC7,001,2019_Dec_05_1256,ProdSingRedo,3.2.4,59.92280912365884,
89,0,89,0,,,,,,,,,,,,,,,,,,,,,,,,,,,,569.4316824292764,None,staff,aloud,red,38,301,567.4309885830153,None,None,567.4309885830153,None,,,,,,,,,,,,,,,,,,,,,,,,,,,,,,,,,NC7,001,2019_Dec_05_1256,ProdSingRedo,3.2.4,59.92280912365884,
,,,,,,,,,,,,,,,,,,,,,,,,,,,,,,,,,,,,,,,,,,,569.9318267342169,None,k,88.69995677075349,569.9318267342169,None,,,,,,,,,,,,,,,,,,,,,,,,,,,NC7,001,2019_Dec_05_1256,ProdSingRedo,3.2.4,59.92280912365884,
,,,,0,0,0,0,,,,,,,,,,,,,,,,,,,,,,,,676.7645025050733,None,,,,,,,,,,,,,,,,,threat,new_b,white,0,137,329,659.1775291487575,None,659.1775291487575,None,6,8.780816443264484,659.1775291487575,None,668.0016797236167,None,668.5285559229087,None,668.5285559229087,None,r,8.189160946756601,668.5285559229087,None,,,NC7,001,2019_Dec_05_1256,ProdSingRedo,3.2.4,59.92280912365884,
,,,,1,0,1,0,,,,,,,,,,,,,,,,,,,,,,,,683.5332710291259,None,,,,,,,,,,,,,,,,,stranger,silent,white,1,78,309,677.2813320851419,None,677.2813320851419,None,6,4.300228897714987,677.2813320851419,None,681.6207180421334,None,682.1328119896352,None,682.1328119896352,None,r,1.3524698249530047,682.1328119896352,None,,,NC7,001,2019_Dec_05_1256,ProdSingRedo,3.2.4,59.92280912365884,
,,,,2,0,2,0,,,,,,,,,,,,,,,,,,,,,,,,693.3863093664404,None,,,,,,,,,,,,,,,,,series,silent,white,2,67,279,684.0500953220762,None,684.0500953220762,None,5,3.3310240374412388,684.0500953220762,None,687.4218883439898,None,687.9346154921222,None,687.9346154921222,None,f,5.414161802036688,687.9346154921222,None,,,NC7,001,2019_Dec_05_1256,ProdSingRedo,3.2.4,59.92280912365884,
,,,,3,0,3,0,,,,,,,,,,,,,,,,,,,,,,,,707.4572480646893,None,,,,,,,,,,,,,,,,,force,new_a,white,3,103,131,693.9030288516078,None,693.9030288516078,None,2,5.62131516658701,693.9030288516078,None,699.5728022241965,None,700.0883274604566,None,700.0883274604566,None,n,7.323587660677731,700.0883274604566,None,,,NC7,001,2019_Dec_05_1256,ProdSingRedo,3.2.4,59.92280912365884,
,,,,4,0,4,0,,,,,,,,,,,,,,,,,,,,,,,,713.2423582063057,None,,,,,,,,,,,,,,,,,defeat,new_c,white,4,165,88,707.9739423587453,None,707.9739423587453,None,6,3.0778065626509488,707.9739423587453,None,711.0941568880808,None,711.6085553630255,None,711.6085553630255,None,r,1.5869117779657245,711.6085553630255,None,,,NC7,001,2019_Dec_05_1256,ProdSingRedo,3.2.4,59.92280912365884,
,,,,5,0,5,0,,,,,,,,,,,,,,,,,,,,,,,,722.3618033158127,None,,,,,,,,,,,,,,,,,mayor,new_a,white,5,99,183,713.7605537085328,None,713.7605537085328,None,4,6.394519205903634,713.7605537085328,None,720.20231230231,None,720.711275389418,None,720.711275389418,None,f,1.6116828026715666,720.711275389418,None,,,NC7,001,2019_Dec_05_1256,ProdSingRedo,3.2.4,59.92280912365884,
,,,,6,0,6,0,,,,,,,,,,,,,,,,,,,,,,,,726.6798277669586,None,,,,,,,,,,,,,,,,,comfort,sing,white,6,14,59,722.878520002123,None,722.878520002123,None,6,1.964292267570272,722.878520002123,None,724.8833871884272,None,725.3961516572163,None,725.3961516572163,None,r,1.2465399436187,725.3961516572163,None,,,NC7,001,2019_Dec_05_1256,ProdSingRedo,3.2.4,59.92280912365884,
,,,,7,0,7,0,,,,,,,,,,,,,,,,,,,,,,,,736.5328617501073,None,,,,,,,,,,,,,,,,,relation,new_c,white,7,178,257,727.1965217499528,None,727.1965217499528,None,3,5.294055190403014,727.1965217499528,None,732.5376353247557,None,733.0484485647175,None,733.0484485647175,None,f,3.4495687952730805,733.0484485647175,None,,,NC7,001,2019_Dec_05_1256,ProdSingRedo,3.2.4,59.92280912365884,
,,,,8,0,8,0,,,,,,,,,,,,,,,,,,,,,,,,741.2175952678081,None,,,,,,,,,,,,,,,,,problem,aloud,white,8,45,238,737.0522788695525,None,737.0522788695525,None,6,2.757841768208891,737.0522788695525,None,739.8544658378232,None,740.3672153784428,None,740.3672153784428,None,r,0.8107348675839603,740.3672153784428,None,,,NC7,001,2019_Dec_05_1256,ProdSingRedo,3.2.4,59.92280912365884,
,,,,9,0,9,0,,,,,,,,,,,,,,,,,,,,,,,,748.83662612224,None,,,,,,,,,,,,,,,,,election,sing,white,9,26,109,741.7344363548327,None,741.7344363548327,None,5,4.435195200610906,741.7344363548327,None,746.2072230291087,None,746.7193123116158,None,746.7193123116158,None,f,2.0743656328413635,746.7193123116158,None,,,NC7,001,2019_Dec_05_1256,ProdSingRedo,3.2.4,59.92280912365884,
,,,,10,0,10,0,,,,,,,,,,,,,,,,,,,,,,,,752.7711308978032,None,,,,,,,,,,,,,,,,,territory,sing,white,10,22,324,749.3554653993342,None,749.3554653993342,None,6,1.7419856253545731,749.3554653993342,None,751.1411571151111,None,751.653956416063,None,751.653956416063,None,r,1.0832749167457223,751.653956416063,None,,,NC7,001,2019_Dec_05_1256,ProdSingRedo,3.2.4,59.92280912365884,
,,,,11,0,11,0,,,,,,,,,,,,,,,,,,,,,,,,756.8890256606974,None,,,,,,,,,,,,,,,,,service,aloud,white,11,42,280,753.2903950039763,None,753.2903950039763,None,6,1.894616860896349,753.2903950039763,None,755.2257593898103,None,755.7387415601406,None,755.7387415601406,None,r,1.110315014142543,755.7387415601406,None,,,NC7,001,2019_Dec_05_1256,ProdSingRedo,3.2.4,59.92280912365884,
,,,,12,0,12,0,,,,,,,,,,,,,,,,,,,,,,,,763.2910254057497,None,,,,,,,,,,,,,,,,,union,new_a,white,12,107,344,757.4057824662887,None,757.4057824662887,None,1,3.1468552998267114,757.4057824662887,None,760.5908282301389,None,761.1070171454921,None,761.1070171454921,None,n,2.149460255401209,761.1070171454921,None,,,NC7,001,2019_Dec_05_1256,ProdSingRedo,3.2.4,59.92280912365884,
,,,,13,0,13,0,,,,,,,,,,,,,,,,,,,,,,,,771.7436588180717,None,,,,,,,,,,,,,,,,,welcome,new_c,white,13,168,354,763.8078997700941,None,763.8078997700941,None,6,6.416157193016261,763.8078997700941,None,770.2643003535923,None,770.7766956624109,None,770.7766956624109,None,r,0.9191994178108871,770.7766956624109,None,,,NC7,001,2019_Dec_05_1256,ProdSingRedo,3.2.4,59.92280912365884,
,,,,14,0,14,0,,,,,,,,,,,,,,,,,,,,,,,,776.5284570241347,None,,,,,,,,,,,,,,,,,center,new_a,white,14,108,44,772.260318279732,None,772.260318279732,None,6,2.7553845387883484,772.260318279732,None,775.0653129771817,None,775.5781387132592,None,775.5781387132592,None,r,0.9174752209801227,775.5781387132592,None,,,NC7,001,2019_Dec_05_1256,ProdSingRedo,3.2.4,59.92280912365884,
,,,,15,0,15,0,,,,,,,,,,,,,,,,,,,,,,,,783.5472661340609,None,,,,,,,,,,,,,,,,,running,silent,white,15,81,268,777.0452834940515,None,777.0452834940515,None,3,4.6020594572182745,777.0452834940515,None,781.7007790608332,None,782.2135292233434,None,782.2135292233434,None,f,1.2977107118349522,782.2135292233434,None,,,NC7,001,2019_Dec_05_1256,ProdSingRedo,3.2.4,59.92280912365884,
,,,,16,0,16,0,,,,,,,,,,,,,,,,,,,,,,,,787.7818666980602,None,,,,,,,,,,,,,,,,,break,aloud,white,16,40,26,784.0661906257737,None,784.0661906257737,None,6,2.1169132394716144,784.0661906257737,None,786.2374950628728,None,786.7480896681082,None,786.7480896681082,None,r,0.9949129347223788,786.7480896681082,None,,,NC7,001,2019_Dec_05_1256,ProdSingRedo,3.2.4,59.92280912365884,
,,,,17,0,17,0,,,,,,,,,,,,,,,,,,,,,,,,793.116836422123,None,,,,,,,,,,,,,,,,,recall,new_a,white,17,98,255,788.2986919241957,None,788.2986919241957,None,1,3.1161774080246687,788.2986919241957,None,791.4534846255556,None,791.9665420583915,None,791.9665420583915,None,n,1.1121443300507963,791.9665420583915,None,,,NC7,001,2019_Dec_05_1256,ProdSingRedo,3.2.4,59.92280912365884,
,,,,18,0,18,0,,,,,,,,,,,,,,,,,,,,,,,,799.5188274590764,None,,,,,,,,,,,,,,,,,report,silent,white,18,84,259,793.6336958582979,None,793.6336958582979,None,5,4.276822551386431,793.6336958582979,None,797.955237745773,None,798.4684808468446,None,798.4684808468446,None,f,1.0099203523714095,798.4684808468446,None,,,NC7,001,2019_Dec_05_1256,ProdSingRedo,3.2.4,59.92280912365884,
,,,,19,0,19,0,,,,,,,,,,,,,,,,,,,,,,,,804.0868520655204,None,,,,,,,,,,,,,,,,,mechanical,silent,white,19,64,185,800.0354085480794,None,800.0354085480794,None,1,2.4751179474405944,800.0354085480794,None,802.556649385253,None,803.0697575113736,None,803.0697575113736,None,n,0.9764639656059444,803.0697575113736,None,,,NC7,001,2019_Dec_05_1256,ProdSingRedo,3.2.4,59.92280912365884,
,,,,20,0,20,0,,,,,,,,,,,,,,,,,,,,,,,,811.0056966296397,None,,,,,,,,,,,,,,,,,native,new_b,white,20,148,199,804.6049374728464,None,804.6049374728464,None,1,4.7447588331997395,804.6049374728464,None,809.3956714696251,None,809.9051940499339,None,809.9051940499339,None,n,1.0604202887043357,809.9051940499339,None,,,NC7,001,2019_Dec_05_1256,ProdSingRedo,3.2.4,59.92280912365884,
,,,,21,0,21,0,,,,,,,,,,,,,,,,,,,,,,,,814.7234598386567,None,,,,,,,,,,,,,,,,,damage,sing,white,21,25,83,811.5223598233424,None,811.5223598233424,None,6,1.675340936286375,811.5223598233424,None,813.2395703813527,None,813.756523740245,None,813.756523740245,None,r,0.9287708254996687,813.756523740245,None,,,NC7,001,2019_Dec_05_1256,ProdSingRedo,3.2.4,59.92280912365884,
,,,,22,0,22,0,,,,,,,,,,,,,,,,,,,,,,,,818.2912431072909,None,,,,,,,,,,,,,,,,,travel,new_b,white,22,146,338,815.2424033016432,None,815.2424033016432,None,6,1.6347442474216223,815.2424033016432,None,816.929375724867,None,817.4408262087964,None,817.4408262087964,None,r,0.8042258997447789,817.4408262087964,None,,,NC7,001,2019_Dec_05_1256,ProdSingRedo,3.2.4,59.92280912365884,
,,,,23,0,23,0,,,,,,,,,,,,,,,,,,,,,,,,825.1600620138925,None,,,,,,,,,,,,,,,,,appeal,aloud,white,23,49,9,818.8079666355625,None,818.8079666355625,None,4,5.093142709694803,818.8079666355625,None,823.945704280166,None,824.4597771356348,None,824.4597771356348,None,f,0.6572745000012219,824.4597771356348,None,,,NC7,001,2019_Dec_05_1256,ProdSingRedo,3.2.4,59.92280912365884,
,,,,24,0,24,0,,,,,,,,,,,,,,,,,,,,,,,,828.4276879152749,None,,,,,,,,,,,,,,,,,generation,new_c,white,24,155,136,825.6767830541357,None,825.6767830541357,None,1,1.7118143565021455,825.6767830541357,None,827.4285027415026,None,827.9442018279806,None,827.9442018279806,None,n,0.44431192288175225,827.9442018279806,None,,,NC7,001,2019_Dec_05_1256,ProdSingRedo,3.2.4,59.92280912365884,
,,,,25,0,25,0,,,,,,,,,,,,,,,,,,,,,,,,833.7293069935404,None,,,,,,,,,,,,,,,,,victory,aloud,white,25,56,346,828.9467884344049,None,828.9467884344049,None,6,2.4738045847043395,828.9467884344049,None,831.4785327531863,None,831.9811305555049,None,831.9811305555049,None,r,1.7036259761080146,831.9811305555049,None,,,NC7,001,2019_Dec_05_1256,ProdSingRedo,3.2.4,59.92280912365884,
,,,,26,0,26,0,,,,,,,,,,,,,,,,,,,,,,,,838.4807128794491,None,,,,,,,,,,,,,,,,,drink,new_b,white,26,143,105,834.2469560645986,None,834.2469560645986,None,1,3.412994921207428,834.2469560645986,None,837.7049775922205,None,838.2139879516326,None,838.2139879516326,None,n,0.22992588812485337,838.2139879516326,None,,,NC7,001,2019_Dec_05_1256,ProdSingRedo,3.2.4,59.92280912365884,
,,,,27,0,27,0,,,,,,,,,,,,,,,,,,,,,,,,843.5823475078214,None,,,,,,,,,,,,,,,,,death,new_a,white,27,117,86,838.9975079381838,None,838.9975079381838,None,1,2.246252888580784,838.9975079381838,None,841.2842051247135,None,841.7984580504708,None,841.7984580504708,None,n,1.7413782379589975,841.7984580504708,None,,,NC7,001,2019_Dec_05_1256,ProdSingRedo,3.2.4,59.92280912365884,
,,,,28,0,28,0,,,,,,,,,,,,,,,,,,,,,,,,849.8675832941663,None,,,,,,,,,,,,,,,,,fashion,new_c,white,28,159,125,844.0990197206847,None,844.0990197206847,None,6,4.784338855650276,844.0990197206847,None,848.9219564534724,None,849.4341172664426,None,849.4341172664426,None,r,0.39311223151162267,849.4341172664426,None,,,NC7,001,2019_Dec_05_1256,ProdSingRedo,3.2.4,59.92280912365884,
,,,,29,0,29,0,,,,,,,,,,,,,,,,,,,,,,,,855.0358846927993,None,,,,,,,,,,,,,,,,,income,new_c,white,29,170,159,850.3844215823337,None,850.3844215823337,None,2,2.594547196291387,850.3844215823337,None,853.0187363352161,None,853.5353886440862,None,853.5353886440862,None,f,1.467551260953769,853.5353886440862,None,,,NC7,001,2019_Dec_05_1256,ProdSingRedo,3.2.4,59.92280912365884,
,,,,30,0,30,0,,,,,,,,,,,,,,,,,,,,,,,,858.9036884875968,None,,,,,,,,,,,,,,,,,power,aloud,white,30,46,230,855.5526427421719,None,855.5526427421719,None,6,2.2422975606750697,855.5526427421719,None,857.8401559987105,None,858.3535179027822,None,858.3535179027822,None,r,0.5053175177890807,858.3535179027822,None,,,NC7,001,2019_Dec_05_1256,ProdSingRedo,3.2.4,59.92280912365884,
,,,,31,0,31,0,,,,,,,,,,,,,,,,,,,,,,,,864.5554507821798,None,,,,,,,,,,,,,,,,,blind,sing,white,31,2,24,859.4210365084,None,859.4210365084,None,2,4.037246882915497,859.4210365084,None,863.511623400962,None,864.0218183684628,None,864.0218183684628,None,n,0.4926385749131441,864.0218183684628,None,,,NC7,001,2019_Dec_05_1256,ProdSingRedo,3.2.4,59.92280912365884,
,,,,32,0,32,0,,,,,,,,,,,,,,,,,,,,,,,,867.439627916785,None,,,,,,,,,,,,,,,,,tennis,aloud,white,32,51,323,865.0721239282284,None,865.0721239282284,None,6,1.650158455595374,865.0721239282284,None,866.7561772838235,None,867.2729188501835,None,867.2729188501835,None,r,0.12113665137439966,867.2729188501835,None,,,NC7,001,2019_Dec_05_1256,ProdSingRedo,3.2.4,59.92280912365884,
,,,,33,0,33,0,,,,,,,,,,,,,,,,,,,,,,,,872.6579173416831,None,,,,,,,,,,,,,,,,,phrase,new_b,white,33,147,220,867.9563324737828,None,867.9563324737828,None,1,3.8855467888060957,867.9563324737828,None,871.8941236110404,None,872.407828550553,None,872.407828550553,None,n,0.2019804627634585,872.407828550553,None,,,NC7,001,2019_Dec_05_1256,ProdSingRedo,3.2.4,59.92280912365884,
,,,,34,0,34,0,,,,,,,,,,,,,,,,,,,,,,,,876.2089556229766,None,,,,,,,,,,,,,,,,,resistance,new_b,white,34,123,262,873.1745991955977,None,873.1745991955977,None,5,2.0190796819515526,873.1745991955977,None,875.2439334329683,None,875.7588164494373,None,875.7588164494373,None,r,0.42656550789251924,875.7588164494373,None,,,NC7,001,2019_Dec_05_1256,ProdSingRedo,3.2.4,59.92280912365884,
,,,,35,0,35,0,,,,,,,,,,,,,,,,,,,,,,,,880.7270494275726,None,,,,,,,,,,,,,,,,,working,new_c,white,35,174,357,876.7257562798914,None,876.7257562798914,None,6,3.355505518615246,876.7257562798914,None,880.1434097050223,None,880.6435490341391,None,880.6435490341391,None,r,0.045779542764648795,880.6435490341391,None,,,NC7,001,2019_Dec_05_1256,ProdSingRedo,3.2.4,59.92280912365884,
,,,,36,0,36,0,,,,,,,,,,,,,,,,,,,,,,,,884.0447016088292,None,,,,,,,,,,,,,,,,,question,new_c,white,36,166,247,881.2436762340367,None,881.2436762340367,None,5,1.9014110176358372,881.2436762340367,None,883.1943450446706,None,883.6945064547472,None,883.6945064547472,None,f,0.3071555416099727,883.6945064547472,None,,,NC7,001,2019_Dec_05_1256,ProdSingRedo,3.2.4,59.92280912365884,
,,,,37,0,37,0,,,,,,,,,,,,,,,,,,,,,,,,886.7122366975527,None,,,,,,,,,,,,,,,,,danger,silent,white,37,73,85,884.5615296338219,None,884.5615296338219,None,6,1.3597404374741018,884.5615296338219,None,885.9656541466247,None,886.4787974162027,None,886.4787974162027,None,r,0.19410495087504387,886.4787974162027,None,,,NC7,001,2019_Dec_05_1256,ProdSingRedo,3.2.4,59.92280912365884,
,,,,38,0,38,0,,,,,,,,,,,,,,,,,,,,,,,,894.331193844555,None,,,,,,,,,,,,,,,,,grade,new_b,white,38,141,140,887.2290476174094,None,887.2290476174094,None,3,5.339895378798246,887.2290476174094,None,892.6142320884392,None,893.1308464549948,None,893.1308464549948,None,f,1.1655456069856882,893.1308464549948,None,,,NC7,001,2019_Dec_05_1256,ProdSingRedo,3.2.4,59.92280912365884,
,,,,39,0,39,0,,,,,,,,,,,,,,,,,,,,,,,,897.115362270968,None,,,,,,,,,,,,,,,,,minor,sing,white,39,0,191,894.8480374198407,None,894.8480374198407,None,6,1.6406539133749902,894.8480374198407,None,896.5359092620201,None,897.0487228687853,None,897.0487228687853,None,r,0.023941270308569074,897.0487228687853,None,,,NC7,001,2019_Dec_05_1256,ProdSingRedo,3.2.4,59.92280912365884,
,,,,40,0,40,0,,,,,,,,,,,,,,,,,,,,,,,,900.0829959476832,None,,,,,,,,,,,,,,,,,sunset,new_a,white,40,91,315,897.6322512524202,None,897.6322512524202,None,1,1.6159799215383828,897.6322512524202,None,899.2876283272635,None,899.7995540224947,None,899.7995540224947,None,n,0.24083491694182158,899.7995540224947,None,,,NC7,001,2019_Dec_05_1256,ProdSingRedo,3.2.4,59.92280912365884,
,,,,41,0,41,0,,,,,,,,,,,,,,,,,,,,,,,,903.0839115383569,None,,,,,,,,,,,,,,,,,character,silent,white,41,76,46,900.5998199295718,None,900.5998199295718,None,3,1.6321420909371227,900.5998199295718,None,902.2706472889986,None,902.7838126397692,None,902.7838126397692,None,f,0.2565934050362557,902.7838126397692,None,,,NC7,001,2019_Dec_05_1256,ProdSingRedo,3.2.4,59.92280912365884,
,,,,42,0,42,0,,,,,,,,,,,,,,,,,,,,,,,,906.0848299283534,None,,,,,,,,,,,,,,,,,disease,new_a,white,42,102,97,903.6007162383758,None,903.6007162383758,None,2,1.8150963641237468,903.6007162383758,None,905.4526912586298,None,905.9680967589375,None,905.9680967589375,None,n,0.0723183045629412,905.9680967589375,None,,,NC7,001,2019_Dec_05_1256,ProdSingRedo,3.2.4,59.92280912365884,
,,,,43,0,43,0,,,,,,,,,,,,,,,,,,,,,,,,910.4028235902078,None,,,,,,,,,,,,,,,,,track,new_a,white,43,113,334,906.6017938614823,None,906.6017938614823,None,2,2.581798899685964,906.6017938614823,None,909.2264109398238,None,909.7358386644628,None,909.7358386644628,None,n,0.6240103128366172,909.7358386644628,None,,,NC7,001,2019_Dec_05_1256,ProdSingRedo,3.2.4,59.92280912365884,
,,,,44,0,44,0,,,,,,,,,,,,,,,,,,,,,,,,914.7707191305235,None,,,,,,,,,,,,,,,,,congress,new_b,white,44,145,67,910.9196441511158,None,910.9196441511158,None,1,2.575898252427578,910.9196441511158,None,913.5427276769187,None,914.0539427320473,None,914.0539427320473,None,n,0.6813022289425135,914.0539427320473,None,,,NC7,001,2019_Dec_05_1256,ProdSingRedo,3.2.4,59.92280912365884,
,,,,45,0,45,0,,,,,,,,,,,,,,,,,,,,,,,,917.771756634349,None,,,,,,,,,,,,,,,,,society,new_a,white,45,119,293,915.2884745646734,None,915.2884745646734,None,6,1.446669320575893,915.2884745646734,None,916.7791973650455,None,917.2882512649521,None,917.2882512649521,None,r,0.4468120706733316,917.2882512649521,None,,,NC7,001,2019_Dec_05_1256,ProdSingRedo,3.2.4,59.92280912365884,
,,,,46,0,46,0,,,,,,,,,,,,,,,,,,,,,,,,921.0060769855045,None,,,,,,,,,,,,,,,,,curve,new_a,white,46,94,82,918.289537881501,None,918.289537881501,None,5,1.597373896278441,918.289537881501,None,919.9304676542524,None,920.4392674651463,None,920.4392674651463,None,f,0.5195116642862558,920.4392674651463,None,,,NC7,001,2019_Dec_05_1256,ProdSingRedo,3.2.4,59.92280912365884,
,,,,47,0,47,0,,,,,,,,,,,,,,,,,,,,,,,,924.7905781844165,None,,,,,,,,,,,,,,,,,sound,new_c,white,47,163,295,921.522774700541,None,921.522774700541,None,2,2.2119337813928723,921.522774700541,None,923.7774212309159,None,924.2903971809428,None,924.2903971809428,None,n,0.4604433027561754,924.2903971809428,None,,,NC7,001,2019_Dec_05_1256,ProdSingRedo,3.2.4,59.92280912365884,
,,,,48,0,48,0,,,,,,,,,,,,,,,,,,,,,,,,928.0248913823161,None,,,,,,,,,,,,,,,,,error,new_b,white,48,121,117,925.3071620725095,None,925.3071620725095,None,3,1.9239356722682714,925.3071620725095,None,927.2745671623852,None,927.7914794690441,None,927.7914794690441,None,f,0.19907134701497853,927.7914794690441,None,,,NC7,001,2019_Dec_05_1256,ProdSingRedo,3.2.4,59.92280912365884,
,,,,49,0,49,0,,,,,,,,,,,,,,,,,,,,,,,,936.2940915776417,None,,,,,,,,,,,,,,,,,treatment,sing,white,49,7,339,928.541591274552,None,928.541591274552,None,5,6.192737162578851,928.541591274552,None,934.7816583265085,None,935.2937858623918,None,935.2937858623918,None,f,0.9520611679181457,935.2937858623918,None,,,NC7,001,2019_Dec_05_1256,ProdSingRedo,3.2.4,59.92280912365884,
,,,,50,0,50,0,,,,,,,,,,,,,,,,,,,,,,,,945.1134691997431,None,,,,,,,,,,,,,,,,,close,aloud,white,50,50,53,936.8115503154695,None,936.8115503154695,None,5,6.978120986139402,936.8115503154695,None,943.8334455015138,None,944.3465315464418,None,944.3465315464418,None,f,0.7308452110737562,944.3465315464418,None,,,NC7,001,2019_Dec_05_1256,ProdSingRedo,3.2.4,59.92280912365884,
,,,,51,0,51,0,,,,,,,,,,,,,,,,,,,,,,,,951.7821344712283,None,,,,,,,,,,,,,,,,,bucket,silent,white,51,88,33,945.6324882362969,None,945.6324882362969,None,2,4.364668269408867,945.6324882362969,None,950.0363623923622,None,950.5484588278923,None,950.5484588278923,None,n,1.2006559039000422,950.5484588278923,None,,,NC7,001,2019_Dec_05_1256,ProdSingRedo,3.2.4,59.92280912365884,
,,,,52,0,52,0,,,,,,,,,,,,,,,,,,,,,,,,955.1165092475712,None,,,,,,,,,,,,,,,,,meeting,new_c,white,52,153,187,952.2989733812865,None,952.2989733812865,None,3,1.9618972386233509,952.2989733812865,None,954.3043030281551,None,954.8164389610756,None,954.8164389610756,None,f,0.26036088704131544,954.8164389610756,None,,,NC7,001,2019_Dec_05_1256,ProdSingRedo,3.2.4,59.92280912365884,
,,,,53,0,53,0,,,,,,,,,,,,,,,,,,,,,,,,957.9007156162988,None,,,,,,,,,,,,,,,,,angle,aloud,white,53,59,7,955.63319514459,None,955.63319514459,None,3,1.2596589548047632,955.63319514459,None,956.9374331734143,None,957.4505851508584,None,957.4505851508584,None,f,0.41007087752223015,957.4505851508584,None,,,NC7,001,2019_Dec_05_1256,ProdSingRedo,3.2.4,59.92280912365884,
,,,,54,0,54,0,,,,,,,,,,,,,,,,,,,,,,,,960.8016069489531,None,,,,,,,,,,,,,,,,,taste,sing,white,54,6,322,958.4175100531429,None,958.4175100531429,None,3,1.4830796071328223,958.4175100531429,None,959.9387972294353,None,960.4514516033232,None,960.4514516033232,None,f,0.305617013014853,960.4514516033232,None,,,NC7,001,2019_Dec_05_1256,ProdSingRedo,3.2.4,59.92280912365884,
,,,,55,0,55,0,,,,,,,,,,,,,,,,,,,,,,,,963.83583431039,None,,,,,,,,,,,,,,,,,level,new_b,white,55,120,170,961.3203395523597,None,961.3203395523597,None,1,1.6999633016530424,961.3203395523597,None,963.0756590915844,None,963.5856463094242,None,963.5856463094242,None,n,0.21055821818299592,963.5856463094242,None,,,NC7,001,2019_Dec_05_1256,ProdSingRedo,3.2.4,59.92280912365884,
,,,,56,0,56,0,,,,,,,,,,,,,,,,,,,,,,,,966.9701288482174,None,,,,,,,,,,,,,,,,,listen,new_c,white,56,175,172,964.3526890815701,None,964.3526890815701,None,2,1.667507098754868,964.3526890815701,None,966.0574449291453,None,966.5700420786161,None,966.5700420786161,None,n,0.36200515646487474,966.5700420786161,None,,,NC7,001,2019_Dec_05_1256,ProdSingRedo,3.2.4,59.92280912365884,
,,,,57,0,57,0,,,,,,,,,,,,,,,,,,,,,,,,971.6882618390955,None,,,,,,,,,,,,,,,,,chief,sing,white,57,10,48,967.4868757016957,None,967.4868757016957,None,3,3.468892924953252,967.4868757016957,None,971.0077666612342,None,971.5215639683884,None,971.5215639683884,None,f,0.13020236929878592,971.5215639683884,None,,,NC7,001,2019_Dec_05_1256,ProdSingRedo,3.2.4,59.92280912365884,
,,,,58,0,58,0,,,,,,,,,,,,,,,,,,,,,,,,976.9065335369669,None,,,,,,,,,,,,,,,,,burden,new_b,white,58,132,36,972.2051181653515,None,972.2051181653515,None,1,4.0382884298451245,972.2051181653515,None,976.2972846385092,None,976.8065049247816,None,976.8065049247816,None,n,0.05286137689836323,976.8065049247816,None,,,NC7,001,2019_Dec_05_1256,ProdSingRedo,3.2.4,59.92280912365884,
,,,,59,0,59,0,,,,,,,,,,,,,,,,,,,,,,,,979.9408050605562,None,,,,,,,,,,,,,,,,,space,new_b,white,59,133,297,977.4233656050637,None,977.4233656050637,None,4,1.5725304081570357,977.4233656050637,None,979.0411673781928,None,979.5573454084806,None,979.5573454084806,None,f,0.34208328020758927,979.5573454084806,None,,,NC7,001,2019_Dec_05_1256,ProdSingRedo,3.2.4,59.92280912365884,
,,,,60,0,60,0,,,,,,,,,,,,,,,,,,,,,,,,983.5752131142654,None,,,,,,,,,,,,,,,,,direction,new_b,white,60,125,94,980.4576309085824,None,980.4576309085824,None,5,2.409632985945791,980.4576309085824,None,982.9096193020232,None,983.4251594664529,None,983.4251594664529,None,f,0.11387381399981678,983.4251594664529,None,,,NC7,001,2019_Dec_05_1256,ProdSingRedo,3.2.4,59.92280912365884,
,,,,61,0,61,0,,,,,,,,,,,,,,,,,,,,,,,,986.8146466547623,None,,,,,,,,,,,,,,,,,institute,sing,white,61,15,162,984.0920461153146,None,984.0920461153146,None,6,1.7590932415332645,984.0920461153146,None,985.897401264403,None,986.4094470066484,None,986.4094470066484,None,r,0.3693143331911415,986.4094470066484,None,,,NC7,001,2019_Dec_05_1256,ProdSingRedo,3.2.4,59.92280912365884,
,,,,62,0,62,0,,,,,,,,,,,,,,,,,,,,,,,,991.060879949946,None,,,,,,,,,,,,,,,,,story,new_a,white,62,118,306,987.3430604494642,None,987.3430604494642,None,4,2.324016222031787,987.3430604494642,None,989.7155463844538,None,990.2271784935147,None,990.2271784935147,None,f,0.7916757115162909,990.2271784935147,None,,,NC7,001,2019_Dec_05_1256,ProdSingRedo,3.2.4,59.92280912365884,
,,,,63,0,63,0,,,,,,,,,,,,,,,,,,,,,,,,995.3622331211809,None,,,,,,,,,,,,,,,,,principal,silent,white,63,60,236,991.5775540289469,None,991.5775540289469,None,5,2.809125741245225,991.5775540289469,None,994.4300443800166,None,994.9453491156455,None,994.9453491156455,None,f,0.3692816779948771,994.9453491156455,None,,,NC7,001,2019_Dec_05_1256,ProdSingRedo,3.2.4,59.92280912365884,
,,,,64,0,64,0,,,,,,,,,,,,,,,,,,,,,,,,1000.4970610279124,None,,,,,,,,,,,,,,,,,country,sing,white,64,11,73,995.8790409308858,None,995.8790409308858,None,6,3.2112424231600016,995.8790409308858,None,999.135452399496,None,999.6467063298915,None,999.6467063298915,None,r,0.8112557963468134,999.6467063298915,None,,,NC7,001,2019_Dec_05_1256,ProdSingRedo,3.2.4,59.92280912365884,
,,,,65,0,65,0,,,,,,,,,,,,,,,,,,,,,,,,1003.1978640358429,None,,,,,,,,,,,,,,,,,republic,aloud,white,65,35,260,1001.0158048272133,None,1001.0158048272133,None,6,1.2180309821851552,1001.0158048272133,None,1002.2858425518498,None,1002.7976727695204,None,1002.7976727695204,None,r,0.3641747087240219,1002.7976727695204,None,,,NC7,001,2019_Dec_05_1256,ProdSingRedo,3.2.4,59.92280912365884,
,,,,66,0,66,0,,,,,,,,,,,,,,,,,,,,,,,,1005.8654062778223,None,,,,,,,,,,,,,,,,,throw,silent,white,66,77,330,1003.7146867739502,None,1003.7146867739502,None,6,1.2790630122181028,1003.7146867739502,None,1005.0352486930788,None,1005.5486532044597,None,1005.5486532044597,None,r,0.2689520155545324,1005.5486532044597,None,,,NC7,001,2019_Dec_05_1256,ProdSingRedo,3.2.4,59.92280912365884,
,,,,67,0,67,0,,,,,,,,,,,,,,,,,,,,,,,,1008.6329096443951,None,,,,,,,,,,,,,,,,,surprise,new_c,white,67,167,317,1006.382239900995,None,1006.382239900995,None,6,1.4112321601714939,1006.382239900995,None,1007.8357410095632,None,1008.3495258768089,None,1008.3495258768089,None,r,0.24400092056021094,1008.3495258768089,None,,,NC7,001,2019_Dec_05_1256,ProdSingRedo,3.2.4,59.92280912365884,
,,,,68,0,68,0,,,,,,,,,,,,,,,,,,,,,,,,1012.3841140009463,None,,,,,,,,,,,,,,,,,short,silent,white,68,63,285,1009.1496288187336,None,1009.1496288187336,None,4,2.5079999128356576,1009.1496288187336,None,1011.7032275821548,None,1012.2173713459633,None,1012.2173713459633,None,f,0.1198288865853101,1012.2173713459633,None,,,NC7,001,2019_Dec_05_1256,ProdSingRedo,3.2.4,59.92280912365884,
,,,,69,0,69,0,,,,,,,,,,,,,,,,,,,,,,,,1015.4183419842739,None,,,,,,,,,,,,,,,,,entrance,sing,white,69,28,115,1012.9007548026275,None,1012.9007548026275,None,3,1.8043160904198885,1012.9007548026275,None,1014.7556588428561,None,1015.268297666451,None,1015.268297666451,None,f,0.11699689948000014,1015.268297666451,None,,,NC7,001,2019_Dec_05_1256,ProdSingRedo,3.2.4,59.92280912365884,
,,,,70,0,70,0,,,,,,,,,,,,,,,,,,,,,,,,1021.0367430590559,None,,,,,,,,,,,,,,,,,watch,sing,white,70,17,351,1015.9350331684109,None,1015.9350331684109,None,6,4.489749363157898,1015.9350331684109,None,1020.473196886247,None,1020.9867323294748,None,1020.9867323294748,None,r,0.0140311811119318,1020.9867323294748,None,,,NC7,001,2019_Dec_05_1256,ProdSingRedo,3.2.4,59.92280912365884,
,,,,71,0,71,0,,,,,,,,,,,,,,,,,,,,,,,,1025.1880005970597,None,,,,,,,,,,,,,,,,,reach,sing,white,71,23,253,1021.5535567780025,None,1021.5535567780025,None,4,2.054951001657173,1021.5535567780025,None,1023.6580846610013,None,1024.1710158267524,None,1024.1710158267524,None,f,0.9738652303349227,1024.1710158267524,None,,,NC7,001,2019_Dec_05_1256,ProdSingRedo,3.2.4,59.92280912365884,
,,,,72,0,72,0,,,,,,,,,,,,,,,,,,,,,,,,1028.0555543459486,None,,,,,,,,,,,,,,,,,oxygen,new_a,white,72,115,209,1025.7059482305776,None,1025.7059482305776,None,1,1.3824243254493922,1025.7059482305776,None,1027.1068535582162,None,1027.6219527213834,None,1027.6219527213834,None,n,0.394362460821867,1027.6219527213834,None,,,NC7,001,2019_Dec_05_1256,ProdSingRedo,3.2.4,59.92280912365884,
,,,,73,0,73,0,,,,,,,,,,,,,,,,,,,,,,,,1031.1065055467188,None,,,,,,,,,,,,,,,,,piece,new_c,white,73,169,221,1028.5723609118722,None,1028.5723609118722,None,4,1.6838592900894582,1028.5723609118722,None,1030.2930674469098,None,1030.8063929637428,None,1030.8063929637428,None,f,0.26585256634280086,1030.8063929637428,None,,,NC7,001,2019_Dec_05_1256,ProdSingRedo,3.2.4,59.92280912365884,
,,,,74,0,74,0,,,,,,,,,,,,,,,,,,,,,,,,1034.0073788412847,None,,,,,,,,,,,,,,,,,cousin,new_a,white,74,111,76,1031.6237577788997,None,1031.6237577788997,None,5,1.7361782789230347,1031.6237577788997,None,1033.4104941515252,None,1033.924024929991,None,1033.924024929991,None,f,0.03584799449890852,1033.924024929991,None,,,NC7,001,2019_Dec_05_1256,ProdSingRedo,3.2.4,59.92280912365884,
,,,,75,0,75,0,,,,,,,,,,,,,,,,,,,,,,,,1037.5084527323488,None,,,,,,,,,,,,,,,,,place,sing,white,75,24,222,1034.5241969141643,None,1034.5241969141643,None,6,1.1316553722135723,1034.5241969141643,None,1035.6950140106492,None,1036.2080580703914,None,1036.2080580703914,None,r,1.2564335498027503,1036.2080580703914,None,,,NC7,001,2019_Dec_05_1256,ProdSingRedo,3.2.4,59.92280912365884,
,,,,76,0,76,0,,,,,,,,,,,,,,,,,,,,,,,,1040.8261036693584,None,,,,,,,,,,,,,,,,,addition,sing,white,76,8,2,1038.0252848004457,None,1038.0252848004457,None,4,1.9664092604070902,1038.0252848004457,None,1040.0264523031656,None,1040.542695643846,None,1040.542695643846,None,f,0.24112383811734617,1040.542695643846,None,,,NC7,001,2019_Dec_05_1256,ProdSingRedo,3.2.4,59.92280912365884,
,,,,77,0,77,0,,,,,,,,,,,,,,,,,,,,,,,,1043.9604268195108,None,,,,,,,,,,,,,,,,,skill,new_a,white,77,93,289,1041.3430623156019,None,1041.3430623156019,None,6,1.3202994330786169,1041.3430623156019,None,1042.7173557959031,None,1043.2267480662558,None,1043.2267480662558,None,r,0.6927922100294381,1043.2267480662558,None,,,NC7,001,2019_Dec_05_1256,ProdSingRedo,3.2.4,59.92280912365884,
,,,,78,0,78,0,,,,,,,,,,,,,,,,,,,,,,,,1048.5785165810958,None,,,,,,,,,,,,,,,,,spoke,sing,white,78,29,300,1044.4789068889804,None,1044.4789068889804,None,2,3.200227342778817,1044.4789068889804,None,1047.7328095017,None,1048.244930506451,None,1048.244930506451,None,n,0.2981585552915931,1048.244930506451,None,,,NC7,001,2019_Dec_05_1256,ProdSingRedo,3.2.4,59.92280912365884,
,,,,79,0,79,0,,,,,,,,,,,,,,,,,,,,,,,,1051.145963034127,None,,,,,,,,,,,,,,,,,provision,aloud,white,79,47,243,1049.0977181759663,None,1049.0977181759663,None,6,1.2772548445500433,1049.0977181759663,None,1050.4289372116327,None,1050.9292985964566,None,1050.9292985964566,None,r,0.18162847054190934,1050.9292985964566,None,,,NC7,001,2019_Dec_05_1256,ProdSingRedo,3.2.4,59.92280912365884,
,,,,80,0,80,0,,,,,,,,,,,,,,,,,,,,,,,,1053.8634357671253,None,,,,,,,,,,,,,,,,,audience,aloud,white,80,48,14,1051.6626287160907,None,1051.6626287160907,None,6,1.3201081664301455,1051.6626287160907,None,1053.033537558047,None,1053.5466711865738,None,1053.5466711865738,None,r,0.27619930263608694,1053.5466711865738,None,,,NC7,001,2019_Dec_05_1256,ProdSingRedo,3.2.4,59.92280912365884,
,,,,81,0,81,0,,,,,,,,,,,,,,,,,,,,,,,,1056.7641261923127,None,,,,,,,,,,,,,,,,,attack,new_a,white,81,96,13,1054.3808677587658,None,1054.3808677587658,None,1,1.5536730929743499,1054.3808677587658,None,1055.984014480142,None,1056.4976130570285,None,1056.4976130570285,None,n,0.22878046659752727,1056.4976130570285,None,,,NC7,001,2019_Dec_05_1256,ProdSingRedo,3.2.4,59.92280912365884,
,,,,82,0,82,0,,,,,,,,,,,,,,,,,,,,,,,,1062.782857862534,None,,,,,,,,,,,,,,,,,solution,sing,white,82,18,294,1057.281131177675,None,1057.281131177675,None,3,4.685040788026527,1057.281131177675,None,1062.004102742765,None,1062.5161453748588,None,1062.5161453748588,None,f,0.2179737575352192,1062.5161453748588,None,,,NC7,001,2019_Dec_05_1256,ProdSingRedo,3.2.4,59.92280912365884,
,,,,83,0,83,0,,,,,,,,,,,,,,,,,,,,,,,,1066.4173184756655,None,,,,,,,,,,,,,,,,,company,silent,white,83,62,64,1063.2995938309468,None,1063.2995938309468,None,6,2.3144625413697213,1063.2995938309468,None,1065.6670816473197,None,1066.167227507569,None,1066.167227507569,None,r,0.21475457260385156,1066.167227507569,None,,,NC7,001,2019_Dec_05_1256,ProdSingRedo,3.2.4,59.92280912365884,
,,,,84,0,84,0,,,,,,,,,,,,,,,,,,,,,,,,1071.1520960000344,None,,,,,,,,,,,,,,,,,capital,aloud,white,84,31,40,1066.9338697085623,None,1066.9338697085623,None,6,3.479890900431201,1066.9338697085623,None,1070.454794878373,None,1070.9686864193063,None,1070.9686864193063,None,r,0.1491075789090246,1070.9686864193063,None,,,NC7,001,2019_Dec_05_1256,ProdSingRedo,3.2.4,59.92280912365884,
,,,,85,0,85,0,,,,,,,,,,,,,,,,,,,,,,,,1073.502816437045,None,,,,,,,,,,,,,,,,,master,sing,white,85,27,180,1071.6687874952331,None,1071.6687874952331,None,6,1.144757900154218,1071.6687874952331,None,1072.8557160673663,None,1073.3694412221666,None,1073.3694412221666,None,r,0.10013279807753861,1073.3694412221666,None,,,NC7,001,2019_Dec_05_1256,ProdSingRedo,3.2.4,59.92280912365884,
,,,,86,0,86,0,,,,,,,,,,,,,,,,,,,,,,,,1076.270299588563,None,,,,,,,,,,,,,,,,,south,silent,white,86,72,296,1074.019619892817,None,1074.019619892817,None,6,1.3618232200387865,1074.019619892817,None,1075.4213985151146,None,1075.9368963832967,None,1075.9368963832967,None,r,0.30061205266974866,1075.9368963832967,None,,,NC7,001,2019_Dec_05_1256,ProdSingRedo,3.2.4,59.92280912365884,
,,,,87,0,87,0,,,,,,,,,,,,,,,,,,,,,,,,1079.8380968521815,None,,,,,,,,,,,,,,,,,division,silent,white,87,69,101,1076.789682808565,None,1076.789682808565,None,6,2.0397995898965746,1076.789682808565,None,1078.8752180903684,None,1079.387894545216,None,1079.387894545216,None,r,0.40119860298000276,1079.387894545216,None,,,NC7,001,2019_Dec_05_1256,ProdSingRedo,3.2.4,59.92280912365884,
,,,,88,0,88,0,,,,,,,,,,,,,,,,,,,,,,,,1082.922372885514,None,,,,,,,,,,,,,,,,,bureau,new_c,white,88,157,37,1080.3566860836,None,1080.3566860836,None,1,1.576276742387563,1080.3566860836,None,1081.9792262883857,None,1082.488901881734,None,1082.488901881734,None,n,0.3886798263993114,1082.488901881734,None,,,NC7,001,2019_Dec_05_1256,ProdSingRedo,3.2.4,59.92280912365884,
,,,,89,0,89,0,,,,,,,,,,,,,,,,,,,,,,,,1085.806564637227,None,,,,,,,,,,,,,,,,,object,new_c,white,89,164,204,1083.440792309586,None,1083.440792309586,None,3,1.476007414283231,1083.440792309586,None,1084.9616518577095,None,1085.4730099737644,None,1085.4730099737644,None,f,0.29209276591427624,1085.4730099737644,None,,,NC7,001,2019_Dec_05_1256,ProdSingRedo,3.2.4,59.92280912365884,
,,,,90,0,90,0,,,,,,,,,,,,,,,,,,,,,,,,1090.0245250216685,None,,,,,,,,,,,,,,,,,carry,silent,white,90,85,43,1086.3232480459847,None,1086.3232480459847,None,5,1.7134458746295422,1086.3232480459847,None,1088.079290665919,None,1088.5906655760482,None,1088.5906655760482,None,f,1.3978848732076585,1088.5906655760482,None,,,NC7,001,2019_Dec_05_1256,ProdSingRedo,3.2.4,59.92280912365884,
,,,,91,0,91,0,,,,,,,,,,,,,,,,,,,,,,,,1094.7259938856587,None,,,,,,,,,,,,,,,,,universal,sing,white,91,3,345,1090.5414454143029,None,1090.5414454143029,None,6,3.4468531229067594,1090.5414454143029,None,1094.0424356458243,None,1094.5425836828072,None,1094.5425836828072,None,r,0.14188517164438963,1094.5425836828072,None,,,NC7,001,2019_Dec_05_1256,ProdSingRedo,3.2.4,59.92280912365884,
,,,,92,0,92,0,,,,,,,,,,,,,,,,,,,,,,,,1097.4101554700173,None,,,,,,,,,,,,,,,,,general,new_b,white,92,122,135,1095.2426822707057,None,1095.2426822707057,None,5,1.4096245891414583,1095.2426822707057,None,1096.693497252185,None,1097.196696533123,None,1097.196696533123,None,f,0.16731956414878368,1097.196696533123,None,,,NC7,001,2019_Dec_05_1256,ProdSingRedo,3.2.4,59.92280912365884,
,,,,93,0,93,0,,,,,,,,,,,,,,,,,,,,,,,,1100.261016790988,None,,,,,,,,,,,,,,,,,pretty,new_a,white,93,105,233,1097.927433826495,None,1097.927433826495,None,2,1.532652445603162,1097.927433826495,None,1099.5011936267838,None,1100.0109510140028,None,1100.0109510140028,None,n,0.20914937742054462,1100.0109510140028,None,,,NC7,001,2019_Dec_05_1256,ProdSingRedo,3.2.4,59.92280912365884,
,,,,94,0,94,0,,,,,,,,,,,,,,,,,,,,,,,,1108.1967565566301,None,,,,,,,,,,,,,,,,,majority,new_c,white,94,171,176,1100.7814235198312,None,1100.7814235198312,None,6,5.038530700607225,1100.7814235198312,None,1105.87932580919,None,1106.379486597376,None,1106.379486597376,None,r,1.7761862406041473,1106.379486597376,None,,,NC7,001,2019_Dec_05_1256,ProdSingRedo,3.2.4,59.92280912365884,
,,,,95,0,95,0,,,,,,,,,,,,,,,,,,,,,,,,1110.8475970404688,None,,,,,,,,,,,,,,,,,month,aloud,white,95,54,193,1108.713469821727,None,1108.713469821727,None,5,1.4177383286878467,1108.713469821727,None,1110.1667491858825,None,1110.6808867298532,None,1110.6808867298532,None,f,0.12319330987520516,1110.6808867298532,None,,,NC7,001,2019_Dec_05_1256,ProdSingRedo,3.2.4,59.92280912365884,
,,,,96,0,96,0,,,,,,,,,,,,,,,,,,,,,,,,1114.0318995087873,None,,,,,,,,,,,,,,,,,write,new_a,white,96,104,358,1111.365614649374,None,1111.365614649374,None,2,1.42952531715855,1111.365614649374,None,1112.8313903980888,None,1113.3483515321277,None,1113.3483515321277,None,f,0.6395305732730776,1113.3483515321277,None,,,NC7,001,2019_Dec_05_1256,ProdSingRedo,3.2.4,59.92280912365884,
,,,,97,0,97,0,,,,,,,,,,,,,,,,,,,,,,,,1118.199852895923,None,,,,,,,,,,,,,,,,,opening,new_c,white,97,172,205,1114.5487281559035,None,1114.5487281559035,None,3,2.822790872771293,1114.5487281559035,None,1117.4180008147378,None,1117.9331167719793,None,1117.9331167719793,None,f,0.22235204838216305,1117.9331167719793,None,,,NC7,001,2019_Dec_05_1256,ProdSingRedo,3.2.4,59.92280912365884,
,,,,98,0,98,0,,,,,,,,,,,,,,,,,,,,,,,,1120.883996753022,None,,,,,,,,,,,,,,,,,profession,silent,white,98,86,241,1118.7166753227357,None,1118.7166753227357,None,5,1.3905884476844221,1118.7166753227357,None,1120.1510861755814,None,1120.6672943730373,None,1120.6672943730373,None,f,0.16730214818380773,1120.6672943730373,None,,,NC7,001,2019_Dec_05_1256,ProdSingRedo,3.2.4,59.92280912365884,
,,,,99,0,99,0,,,,,,,,,,,,,,,,,,,,,,,,1126.1522969077341,None,,,,,,,,,,,,,,,,,machinery,new_b,white,99,130,175,1121.402635433711,None,1121.402635433711,None,2,3.991979560814798,1121.402635433711,None,1125.443099946715,None,1125.9522315971553,None,1125.9522315971553,None,n,0.1621015672571957,1125.9522315971553,None,,,NC7,001,2019_Dec_05_1256,ProdSingRedo,3.2.4,59.92280912365884,
,,,,100,0,100,0,,,,,,,,,,,,,,,,,,,,,,,,1130.8203588344622,None,,,,,,,,,,,,,,,,,clean,silent,white,100,82,51,1126.669117468642,None,1126.669117468642,None,3,3.5091714586596936,1126.669117468642,None,1130.223941270262,None,1130.73703291337,None,1130.73703291337,None,f,0.04127249703742564,1130.73703291337,None,,,NC7,001,2019_Dec_05_1256,ProdSingRedo,3.2.4,59.92280912365884,
,,,,101,0,101,0,,,,,,,,,,,,,,,,,,,,,,,,1134.8549662407022,None,,,,,,,,,,,,,,,,,edition,new_b,white,101,135,107,1131.3370901376475,None,1131.3370901376475,None,4,2.1206763677764684,1131.3370901376475,None,1133.5044423572253,None,1134.0213403578382,None,1134.0213403578382,None,f,0.7964107221923769,1134.0213403578382,None,,,NC7,001,2019_Dec_05_1256,ProdSingRedo,3.2.4,59.92280912365884,
,,,,102,0,102,0,,,,,,,,,,,,,,,,,,,,,,,,1137.4224005646538,None,,,,,,,,,,,,,,,,,nature,new_a,white,102,110,200,1135.3717830695678,None,1135.3717830695678,None,5,1.3421563657466322,1135.3717830695678,None,1136.7587411869317,None,1137.2723438069224,None,1137.2723438069224,None,f,0.11330561270006001,1137.2723438069224,None,,,NC7,001,2019_Dec_05_1256,ProdSingRedo,3.2.4,59.92280912365884,
,,,,103,0,103,0,,,,,,,,,,,,,,,,,,,,,,,,1140.7901253649034,None,,,,,,,,,,,,,,,,,scale,new_a,white,103,90,272,1137.9390889497008,None,1137.9390889497008,None,6,1.5984288163017482,1137.9390889497008,None,1139.5765712615103,None,1140.0898946013767,None,1140.0898946013767,None,r,0.6563355838879943,1140.0898946013767,None,,,NC7,001,2019_Dec_05_1256,ProdSingRedo,3.2.4,59.92280912365884,
,,,,104,0,104,0,,,,,,,,,,,,,,,,,,,,,,,,1143.6242855498567,None,,,,,,,,,,,,,,,,,committee,new_c,white,104,162,62,1141.3069496580865,None,1141.3069496580865,None,1,1.4943105233833194,1141.3069496580865,None,1142.8454679185525,None,1143.3575587561354,None,1143.3575587561354,None,n,0.22764437505975366,1143.3575587561354,None,,,NC7,001,2019_Dec_05_1256,ProdSingRedo,3.2.4,59.92280912365884,
,,,,105,0,105,0,,,,,,,,,,,,,,,,,,,,,,,,1147.3254483875353,None,,,,,,,,,,,,,,,,,little,aloud,white,105,39,174,1144.1410118772183,None,1144.1410118772183,None,1,2.4200092679820955,1144.1410118772183,None,1146.60852612881,None,1147.1254054692108,None,1147.1254054692108,None,n,0.1636142823845148,1147.1254054692108,None,,,NC7,001,2019_Dec_05_1256,ProdSingRedo,3.2.4,59.92280912365884,
,,,,106,0,106,0,,,,,,,,,,,,,,,,,,,,,,,,1151.343335997546,None,,,,,,,,,,,,,,,,,figure,aloud,white,106,37,128,1147.8422422022559,None,1147.8422422022559,None,6,2.038592278957367,1147.8422422022559,None,1149.9298049081117,None,1150.4430952817202,None,1150.4430952817202,None,r,0.8536049835383892,1150.4430952817202,None,,,NC7,001,2019_Dec_05_1256,ProdSingRedo,3.2.4,59.92280912365884,
,,,,107,0,107,0,,,,,,,,,,,,,,,,,,,,,,,,1154.5443109897897,None,,,,,,,,,,,,,,,,,novel,new_a,white,107,109,202,1151.8600626357365,None,1151.8600626357365,None,1,1.9485941140446812,1151.8600626357365,None,1153.860789137194,None,1154.360946815461,None,1154.360946815461,None,n,0.13566699135117233,1154.360946815461,None,,,NC7,001,2019_Dec_05_1256,ProdSingRedo,3.2.4,59.92280912365884,
,,,,108,0,108,0,,,,,,,,,,,,,,,,,,,,,,,,1157.6619594390504,None,,,,,,,,,,,,,,,,,thing,new_c,white,108,160,328,1155.0610037287697,None,1155.0610037287697,None,1,1.6117521559353918,1155.0610037287697,None,1156.7144665843807,None,1157.2284909232985,None,1157.2284909232985,None,n,0.39588854904286563,1157.2284909232985,None,,,NC7,001,2019_Dec_05_1256,ProdSingRedo,3.2.4,59.92280912365884,
,,,,109,0,109,0,,,,,,,,,,,,,,,,,,,,,,,,1161.1463502321858,None,,,,,,,,,,,,,,,,,state,aloud,white,109,57,303,1158.1786686612759,None,1158.1786686612759,None,5,1.9579350689891726,1158.1786686612759,None,1160.1834130017087,None,1160.685007199645,None,1160.685007199645,None,r,0.4272829901892692,1160.685007199645,None,,,NC7,001,2019_Dec_05_1256,ProdSingRedo,3.2.4,59.92280912365884,
,,,,110,0,110,0,,,,,,,,,,,,,,,,,,,,,,,,1164.9808556295466,None,,,,,,,,,,,,,,,,,graduate,new_b,white,110,131,141,1161.662991344696,None,1161.662991344696,None,2,2.52095347084105,1161.662991344696,None,1164.2306013852358,None,1164.74745740043,None,1164.74745740043,None,n,0.18935656733810902,1164.74745740043,None,,,NC7,001,2019_Dec_05_1256,ProdSingRedo,3.2.4,59.92280912365884,
,,,,111,0,111,0,,,,,,,,,,,,,,,,,,,,,,,,1170.4325398625806,None,,,,,,,,,,,,,,,,,hunger,new_b,white,111,139,155,1165.4975685838144,None,1165.4975685838144,None,6,3.814097424503416,1165.4975685838144,None,1169.3491775542498,None,1169.8656955100596,None,1169.8656955100596,None,r,0.5339275551959872,1169.8656955100596,None,,,NC7,001,2019_Dec_05_1256,ProdSingRedo,3.2.4,59.92280912365884,
,,,,112,0,112,0,,,,,,,,,,,,,,,,,,,,,,,,1174.6338342544623,None,,,,,,,,,,,,,,,,,strain,new_b,white,112,142,308,1170.9493619785644,None,1170.9493619785644,None,3,2.99389906716533,1170.9493619785644,None,1173.9853026517667,None,1174.5004901397042,None,1174.5004901397042,None,f,0.09113581152632833,1174.5004901397042,None,,,NC7,001,2019_Dec_05_1256,ProdSingRedo,3.2.4,59.92280912365884,
,,,,113,0,113,0,,,,,,,,,,,,,,,,,,,,,,,,1178.3015733608045,None,,,,,,,,,,,,,,,,,judge,silent,white,113,83,166,1175.1506386431865,None,1175.1506386431865,None,1,2.3445025673136115,1175.1506386431865,None,1177.5378859927878,None,1178.051542415982,None,1178.051542415982,None,n,0.2035189913585782,1178.051542415982,None,,,NC7,001,2019_Dec_05_1256,ProdSingRedo,3.2.4,59.92280912365884,
,,,,114,0,114,0,,,,,,,,,,,,,,,,,,,,,,,,1189.0049309418537,None,,,,,,,,,,,,,,,,,captain,silent,white,114,87,41,1178.8182906690054,None,1178.8182906690054,None,6,9.29274027259089,1178.8182906690054,None,1188.1556961631868,None,1188.6714269719087,None,1188.6714269719087,None,r,0.28695438522845507,1188.6714269719087,None,,,NC7,001,2019_Dec_05_1256,ProdSingRedo,3.2.4,59.92280912365884,
,,,,115,0,115,0,,,,,,,,,,,,,,,,,,,,,,,,1191.605689165648,None,,,,,,,,,,,,,,,,,cover,aloud,white,115,32,77,1189.522507860558,None,1189.522507860558,None,6,1.2278872679453343,1189.522507860558,None,1190.7943173653912,None,1191.3054493828677,None,1191.3054493828677,None,r,0.25281348265707493,1191.3054493828677,None,,,NC7,001,2019_Dec_05_1256,ProdSingRedo,3.2.4,59.92280912365884,
,,,,116,0,116,0,,,,,,,,,,,,,,,,,,,,,,,,1194.0730986094568,None,,,,,,,,,,,,,,,,,quarter,silent,white,116,71,246,1192.1231021860149,None,1192.1231021860149,None,1,1.1791606668848544,1192.1231021860149,None,1193.344301348785,None,1193.8562628093641,None,1193.8562628093641,None,n,0.18196030985563993,1193.8562628093641,None,,,NC7,001,2019_Dec_05_1256,ProdSingRedo,3.2.4,59.92280912365884,
,,,,117,0,117,0,,,,,,,,,,,,,,,,,,,,,,,,1196.6239014619496,None,,,,,,,,,,,,,,,,,range,sing,white,117,20,251,1194.5899465386756,None,1194.5899465386756,None,1,1.3360367729328573,1194.5899465386756,None,1195.9770452289376,None,1196.4905290459283,None,1196.4905290459283,None,n,0.09171427600085735,1196.4905290459283,None,,,NC7,001,2019_Dec_05_1256,ProdSingRedo,3.2.4,59.92280912365884,
,,,,118,0,118,0,,,,,,,,,,,,,,,,,,,,,,,,1199.4080481182318,None,,,,,,,,,,,,,,,,,group,silent,white,118,66,143,1197.1407223339193,None,1197.1407223339193,None,3,1.6171981177758425,1197.1407223339193,None,1198.7955775468145,None,1199.3080266590696,None,1199.3080266590696,None,f,0.058115139370784163,1199.3080266590696,None,,,NC7,001,2019_Dec_05_1256,ProdSingRedo,3.2.4,59.92280912365884,
,,,,119,0,119,0,,,,,,,,,,,,,,,,,,,,,,,,1203.0091845206916,None,,,,,,,,,,,,,,,,,color,new_c,white,119,179,56,1199.9249231046997,None,1199.9249231046997,None,1,2.4411269479896873,1199.9249231046997,None,1202.4123163141776,None,1202.925827499479,None,1202.925827499479,None,n,0.04020327120088041,1202.925827499479,None,,,NC7,001,2019_Dec_05_1256,ProdSingRedo,3.2.4,59.92280912365884,
,,,,120,0,120,0,,,,,,,,,,,,,,,,,,,,,,,,1205.4766138687264,None,,,,,,,,,,,,,,,,,empty,aloud,white,120,41,112,1203.525929508265,None,1203.525929508265,None,1,1.2716132623609155,1203.525929508265,None,1204.8485312913544,None,1205.3598931394517,None,1205.3598931394517,None,n,0.06950746569782495,1205.3598931394517,None,,,NC7,001,2019_Dec_05_1256,ProdSingRedo,3.2.4,59.92280912365884,
,,,,121,0,121,0,,,,,,,,,,,,,,,,,,,,,,,,1209.9446577574126,None,,,,,,,,,,,,,,,,,broke,new_a,white,121,100,32,1206.0003921738826,None,1206.0003921738826,None,3,2.8049835013225675,1206.0003921738826,None,1208.860880882945,None,1209.3609900446609,None,1209.3609900446609,None,r,0.5482433035504073,1209.3609900446609,None,,,NC7,001,2019_Dec_05_1256,ProdSingRedo,3.2.4,59.92280912365884,
,,,,122,0,122,0,,,,,,,,,,,,,,,,,,,,,,,,1218.9140361570753,None,,,,,,,,,,,,,,,,,escape,silent,white,122,68,118,1210.461458725389,None,1210.461458725389,None,3,7.575619905488566,1210.461458725389,None,1218.084347252734,None,1218.597302987706,None,1218.597302987706,None,f,0.27127084881067276,1218.597302987706,None,,,NC7,001,2019_Dec_05_1256,ProdSingRedo,3.2.4,59.92280912365884,
,,,,123,0,123,0,,,,,,,,,,,,,,,,,,,,,,,,1222.031694869278,None,,,,,,,,,,,,,,,,,produce,new_b,white,123,126,239,1219.4308610721491,None,1219.4308610721491,None,5,1.6216146617662162,1219.4308610721491,None,1221.1021263229195,None,1221.614863423165,None,1221.614863423165,None,f,0.38155507389456034,1221.614863423165,None,,,NC7,001,2019_Dec_05_1256,ProdSingRedo,3.2.4,59.92280912365884,
,,,,124,0,124,0,,,,,,,,,,,,,,,,,,,,,,,,1224.5991310593672,None,,,,,,,,,,,,,,,,,staff,aloud,white,124,38,301,1222.5484998801257,None,1222.5484998801257,None,6,1.4403074567671865,1222.5484998801257,None,1224.0325715849176,None,1224.5491234399378,None,1224.5491234399378,None,r,0.007584413746371865,1224.5491234399378,None,,,NC7,001,2019_Dec_05_1256,ProdSingRedo,3.2.4,59.92280912365884,
,,,,125,0,125,0,,,,,,,,,,,,,,,,,,,,,,,,1227.466689162422,None,,,,,,,,,,,,,,,,,industry,new_b,white,125,129,161,1225.1158290854655,None,1225.1158290854655,None,1,1.6164815684314817,1225.1158290854655,None,1226.7831567358226,None,1227.2832948209252,None,1227.2832948209252,None,n,0.1448555551469326,1227.2832948209252,None,,,NC7,001,2019_Dec_05_1256,ProdSingRedo,3.2.4,59.92280912365884,
,,,,126,0,126,0,,,,,,,,,,,,,,,,,,,,,,,,1230.6509804348461,None,,,,,,,,,,,,,,,,,strength,sing,white,126,21,310,1227.9833598202094,None,1227.9833598202094,None,6,2.036559567786753,1227.9833598202094,None,1230.0674473862164,None,1230.584305578377,None,1230.584305578377,None,r,0.019559247652068734,1230.584305578377,None,,,NC7,001,2019_Dec_05_1256,ProdSingRedo,3.2.4,59.92280912365884,
,,,,127,0,127,0,,,,,,,,,,,,,,,,,,,,,,,,1233.5685657504946,None,,,,,,,,,,,,,,,,,quantity,new_c,white,127,176,245,1231.1697855016682,None,1231.1697855016682,None,1,1.3859899670351297,1231.1697855016682,None,1232.6181059335358,None,1233.11826641066,None,1233.11826641066,None,n,0.4064172222279012,1233.11826641066,None,,,NC7,001,2019_Dec_05_1256,ProdSingRedo,3.2.4,59.92280912365884,
,,,,128,0,128,0,,,,,,,,,,,,,,,,,,,,,,,,1237.2030058375094,None,,,,,,,,,,,,,,,,,guide,silent,white,128,65,147,1234.0853763595223,None,1234.0853763595223,None,3,2.1982331958133727,1234.0853763595223,None,1236.323363428004,None,1236.8362012931611,None,1236.8362012931611,None,f,0.3192678384948522,1236.8362012931611,None,,,NC7,001,2019_Dec_05_1256,ProdSingRedo,3.2.4,59.92280912365884,
,,,,129,0,129,0,,,,,,,,,,,,,,,,,,,,,,,,1245.1721108660568,None,,,,,,,,,,,,,,,,,engineer,aloud,white,129,52,114,1237.719792499207,None,1237.719792499207,None,6,6.363275911891833,1237.719792499207,None,1244.1266550766304,None,1244.638627422275,None,1244.638627422275,None,r,0.48434445378370583,1244.638627422275,None,,,NC7,001,2019_Dec_05_1256,ProdSingRedo,3.2.4,59.92280912365884,
,,,,130,0,130,0,,,,,,,,,,,,,,,,,,,,,,,,1247.8395734913647,None,,,,,,,,,,,,,,,,,community,new_a,white,130,97,63,1245.6890315697528,None,1245.6890315697528,None,6,1.3139450333546847,1245.6890315697528,None,1247.04336989671,None,1247.5561723075807,None,1247.5561723075807,None,r,0.23947365977801383,1247.5561723075807,None,,,NC7,001,2019_Dec_05_1256,ProdSingRedo,3.2.4,59.92280912365884,
,,,,131,0,131,0,,,,,,,,,,,,,,,,,,,,,,,,1253.0244973425288,None,,,,,,,,,,,,,,,,,equipment,new_a,white,131,112,116,1248.3584559978917,None,1248.3584559978917,None,5,4.0200988366268575,1248.3584559978917,None,1252.4408849882893,None,1252.9410924266558,None,1252.9410924266558,None,f,0.04550928180105984,1252.9410924266558,None,,,NC7,001,2019_Dec_05_1256,ProdSingRedo,3.2.4,59.92280912365884,
,,,,132,0,132,0,,,,,,,,,,,,,,,,,,,,,,,,1256.0254542964976,None,,,,,,,,,,,,,,,,,conference,sing,white,132,19,66,1253.5413029752672,None,1253.5413029752672,None,6,1.861107292585075,1253.5413029752672,None,1255.4423734452575,None,1255.9587225266732,None,1255.9587225266732,None,r,0.027677652426064014,1255.9587225266732,None,,,NC7,001,2019_Dec_05_1256,ProdSingRedo,3.2.4,59.92280912365884,
,,,,133,0,133,0,,,,,,,,,,,,,,,,,,,,,,,,1258.7762817183975,None,,,,,,,,,,,,,,,,,dispute,new_b,white,133,124,99,1256.5421094044577,None,1256.5421094044577,None,3,1.5245747820008546,1256.5421094044577,None,1258.1104814005084,None,1258.6262339793611,None,1258.6262339793611,None,f,0.10390401212498546,1258.6262339793611,None,,,NC7,001,2019_Dec_05_1256,ProdSingRedo,3.2.4,59.92280912365884,
,,,,134,0,134,0,,,,,,,,,,,,,,,,,,,,,,,,1261.893889115192,None,,,,,,,,,,,,,,,,,answer,new_c,white,134,152,8,1259.2930795762222,None,1259.2930795762222,None,6,1.517169194528833,1259.2930795762222,None,1260.8438758975826,None,1261.3604193555657,None,1261.3604193555657,None,r,0.49018694343976676,1261.3604193555657,None,,,NC7,001,2019_Dec_05_1256,ProdSingRedo,3.2.4,59.92280912365884,
,,,,135,0,135,0,,,,,,,,,,,,,,,,,,,,,,,,1265.1615775281098,None,,,,,,,,,,,,,,,,,hearing,sing,white,135,4,150,1262.4106925709639,None,1262.4106925709639,None,3,1.9433764279820025,1262.4106925709639,None,1264.398789578816,None,1264.911494024098,None,1264.911494024098,None,f,0.20226565189659595,1264.911494024098,None,,,NC7,001,2019_Dec_05_1256,ProdSingRedo,3.2.4,59.92280912365884,
,,,,136,0,136,0,,,,,,,,,,,,,,,,,,,,,,,,1267.7622642212082,None,,,,,,,,,,,,,,,,,citizen,sing,white,136,1,50,1265.680775390938,None,1265.680775390938,None,6,1.4731810251250863,1265.680775390938,None,1267.2009417149238,None,1267.7122143055312,None,1267.7122143055312,None,r,0.009562077699229121,1267.7122143055312,None,,,NC7,001,2019_Dec_05_1256,ProdSingRedo,3.2.4,59.92280912365884,
,,,,137,0,137,0,,,,,,,,,,,,,,,,,,,,,,,,1270.3131538433954,None,,,,,,,,,,,,,,,,,command,aloud,white,137,55,60,1268.27912770072,None,1268.27912770072,None,6,1.1624657509382814,1268.27912770072,None,1269.4802236729302,None,1269.9963880188297,None,1269.9963880188297,None,r,0.26906117727048695,1269.9963880188297,None,,,NC7,001,2019_Dec_05_1256,ProdSingRedo,3.2.4,59.92280912365884,
,,,,138,0,138,0,,,,,,,,,,,,,,,,,,,,,,,,1273.3807418027427,None,,,,,,,,,,,,,,,,,thick,aloud,white,138,53,327,1270.8297688318416,None,1270.8297688318416,None,6,1.715683225542307,1270.8297688318416,None,1272.5877157188952,None,1273.0973098299,None,1273.0973098299,None,r,0.24805017095059156,1273.0973098299,None,,,NC7,001,2019_Dec_05_1256,ProdSingRedo,3.2.4,59.92280912365884,
,,,,139,0,139,0,,,,,,,,,,,,,,,,,,,,,,,,1277.8821475331206,None,,,,,,,,,,,,,,,,,crowd,silent,white,139,79,81,1273.8975984400604,None,1273.8975984400604,None,2,2.911472564795986,1273.8975984400604,None,1276.8521784157492,None,1277.3653319482692,None,1277.3653319482692,None,n,0.4677303982898593,1277.3653319482692,None,,,NC7,001,2019_Dec_05_1256,ProdSingRedo,3.2.4,59.92280912365884,
,,,,140,0,140,0,,,,,,,,,,,,,,,,,,,,,,,,1281.1831505156588,None,,,,,,,,,,,,,,,,,growth,new_c,white,140,173,144,1278.398968716152,None,1278.398968716152,None,4,1.8742969015147537,1278.398968716152,None,1280.3199573303573,None,1280.833046485437,None,1280.833046485437,None,f,0.3037354489788413,1280.833046485437,None,,,NC7,001,2019_Dec_05_1256,ProdSingRedo,3.2.4,59.92280912365884,
,,,,141,0,141,0,,,,,,,,,,,,,,,,,,,,,,,,1288.4687001034617,None,,,,,,,,,,,,,,,,,rough,new_b,white,141,136,266,1281.6999536606018,None,1281.6999536606018,None,1,3.4928668504580855,1281.6999536606018,None,1285.2377388887107,None,1285.7512242605444,None,1285.7512242605444,None,n,2.681195555254817,1285.7512242605444,None,,,NC7,001,2019_Dec_05_1256,ProdSingRedo,3.2.4,59.92280912365884,
,,,,142,0,142,0,,,,,,,,,,,,,,,,,,,,,,,,1291.2862561850343,None,,,,,,,,,,,,,,,,,smooth,sing,white,142,9,292,1288.985531549668,None,1288.985531549668,None,6,1.4071138673461974,1288.985531549668,None,1290.4400095166638,None,1290.9528069514781,None,1290.9528069514781,None,r,0.2954319978598505,1290.9528069514781,None,,,NC7,001,2019_Dec_05_1256,ProdSingRedo,3.2.4,59.92280912365884,
,,,,143,0,143,0,,,,,,,,,,,,,,,,,,,,,,,,1294.9540335447527,None,,,,,,,,,,,,,,,,,production,new_b,white,143,144,240,1291.8030431577936,None,1291.8030431577936,None,6,2.2369554738979787,1291.8030431577936,None,1294.0922467119526,None,1294.6039136531763,None,1294.6039136531763,None,r,0.30836191959679127,1294.6039136531763,None,,,NC7,001,2019_Dec_05_1256,ProdSingRedo,3.2.4,59.92280912365884,
,,,,144,0,144,0,,,,,,,,,,,,,,,,,,,,,,,,1297.6546443533152,None,,,,,,,,,,,,,,,,,atmosphere,silent,white,144,74,12,1295.470869655721,None,1295.470869655721,None,1,1.3690596222877502,1295.470869655721,None,1296.8933933775406,None,1297.4046616139822,None,1297.4046616139822,None,n,0.21926690521650016,1297.4046616139822,None,,,NC7,001,2019_Dec_05_1256,ProdSingRedo,3.2.4,59.92280912365884,
,,,,145,0,145,0,,,,,,,,,,,,,,,,,,,,,,,,1301.689435561886,None,,,,,,,,,,,,,,,,,voice,sing,white,145,16,348,1298.1766987724695,None,1298.1766987724695,None,1,2.8309207847341895,1298.1766987724695,None,1301.0633297152817,None,1301.5726268189028,None,1301.5726268189028,None,n,0.07520565041340888,1301.5726268189028,None,,,NC7,001,2019_Dec_05_1256,ProdSingRedo,3.2.4,59.92280912365884,
,,,,146,0,146,0,,,,,,,,,,,,,,,,,,,,,,,,1305.9074012334459,None,,,,,,,,,,,,,,,,,drama,new_c,white,146,158,103,1302.2061174158007,None,1302.2061174158007,None,3,2.265354340430349,1302.2061174158007,None,1304.5108888135292,None,1305.0237985202111,None,1305.0237985202111,None,f,0.8398997329641134,1305.0237985202111,None,,,NC7,001,2019_Dec_05_1256,ProdSingRedo,3.2.4,59.92280912365884,
,,,,147,0,147,0,,,,,,,,,,,,,,,,,,,,,,,,1314.1265829240438,None,,,,,,,,,,,,,,,,,murder,silent,white,147,61,195,1306.424201268237,None,1306.424201268237,None,5,4.87878715316765,1306.424201268237,None,1311.3458423654083,None,1311.8592151545454,None,1311.8592151545454,None,f,2.227745139738545,1311.8592151545454,None,,,NC7,001,2019_Dec_05_1256,ProdSingRedo,3.2.4,59.92280912365884,
,,,,148,0,148,0,,,,,,,,,,,,,,,,,,,,,,,,1317.2442058711313,None,,,,,,,,,,,,,,,,,agency,sing,white,148,12,4,1314.6437636257615,None,1314.6437636257615,None,6,1.5708662348333746,1314.6437636257615,None,1316.2666058137547,None,1316.7774209198542,None,1316.7774209198542,None,r,0.4292376399971545,1316.7774209198542,None,,,NC7,001,2019_Dec_05_1256,ProdSingRedo,3.2.4,59.92280912365884,
,,,,149,0,149,0,,,,,,,,,,,,,,,,,,,,,,,,1324.7131594414823,None,,,,,,,,,,,,,,,,,background,sing,white,149,5,16,1317.7663417728618,None,1317.7663417728618,None,1,2.0001881564967334,1317.7663417728618,None,1319.817848112667,None,1320.3283208049834,None,1320.3283208049834,None,f,4.349955060053617,1320.3283208049834,None,,,NC7,001,2019_Dec_05_1256,ProdSingRedo,3.2.4,59.92280912365884,
,,,,150,0,150,0,,,,,,,,,,,,,,,,,,,,,,,,1328.5808960597496,None,,,,,,,,,,,,,,,,,education,new_c,white,150,150,108,1325.2299840454943,None,1325.2299840454943,None,3,2.535958711290732,1325.2299840454943,None,1327.8185285858344,None,1328.3308570291847,None,1328.3308570291847,None,f,0.22689641453325748,1328.3308570291847,None,,,NC7,001,2019_Dec_05_1256,ProdSingRedo,3.2.4,59.92280912365884,
,,,,151,0,151,0,,,,,,,,,,,,,,,,,,,,,,,,1334.8996121799573,None,,,,,,,,,,,,,,,,,device,aloud,white,151,44,93,1329.0810686661862,None,1329.0810686661862,None,5,4.388534588040784,1329.0810686661862,None,1333.5323992895428,None,1334.0325491926633,None,1334.0325491926633,None,f,0.8290522827301174,1334.0325491926633,None,,,NC7,001,2019_Dec_05_1256,ProdSingRedo,3.2.4,59.92280912365884,
,,,,152,0,152,0,,,,,,,,,,,,,,,,,,,,,,,,1337.9171468024142,None,,,,,,,,,,,,,,,,,waste,new_c,white,152,151,350,1335.4162545367144,None,1335.4162545367144,None,6,1.541530628921464,1335.4162545367144,None,1337.0031230852474,None,1337.5170870898291,None,1337.5170870898291,None,r,0.35223221918568015,1337.5170870898291,None,,,NC7,001,2019_Dec_05_1256,ProdSingRedo,3.2.4,59.92280912365884,
,,,,153,0,153,0,,,,,,,,,,,,,,,,,,,,,,,,1342.5519989675377,None,,,,,,,,,,,,,,,,,trend,silent,white,153,75,340,1338.4340171236545,None,1338.4340171236545,None,6,3.2433605666738003,1338.4340171236545,None,1341.7183566014282,None,1342.2352147938218,None,1342.2352147938218,None,r,0.2741665916983038,1342.2352147938218,None,,,NC7,001,2019_Dec_05_1256,ProdSingRedo,3.2.4,59.92280912365884,
,,,,154,0,154,0,,,,,,,,,,,,,,,,,,,,,,,,1347.2534190041479,None,,,,,,,,,,,,,,,,,under,new_b,white,154,138,343,1343.068784385221,None,1343.068784385221,None,1,3.168002836406231,1343.068784385221,None,1346.2725226331968,None,1346.7865961105563,None,1346.7865961105563,None,n,0.4181724882218987,1346.7865961105563,None,,,NC7,001,2019_Dec_05_1256,ProdSingRedo,3.2.4,59.92280912365884,
,,,,155,0,155,0,,,,,,,,,,,,,,,,,,,,,,,,1353.5219900417142,None,,,,,,,,,,,,,,,,,course,new_c,white,155,161,74,1347.770087173907,None,1347.770087173907,None,3,4.746418652590364,1347.770087173907,None,1352.559553524945,None,1353.0718676622491,None,1353.0718676622491,None,f,0.40499687450937927,1353.0718676622491,None,,,NC7,001,2019_Dec_05_1256,ProdSingRedo,3.2.4,59.92280912365884,
,,,,156,0,156,0,,,,,,,,,,,,,,,,,,,,,,,,1356.3061942332424,None,,,,,,,,,,,,,,,,,permit,silent,white,156,80,218,1354.0386681635864,None,1354.0386681635864,None,1,1.2456713141873479,1354.0386681635864,None,1355.325541999191,None,1355.8393545458093,None,1355.8393545458093,None,n,0.4209945232141763,1355.8393545458093,None,,,NC7,001,2019_Dec_05_1256,ProdSingRedo,3.2.4,59.92280912365884,
,,,,157,0,157,0,,,,,,,,,,,,,,,,,,,,,,,,1360.2907299534418,None,,,,,,,,,,,,,,,,,account,silent,white,157,89,1,1356.8230116842315,None,1356.8230116842315,None,6,2.3331839486490935,1356.8230116842315,None,1359.194455139339,None,1359.707209656015,None,1359.707209656015,None,r,0.544818545691669,1359.707209656015,None,,,NC7,001,2019_Dec_05_1256,ProdSingRedo,3.2.4,59.92280912365884,
,,,,158,0,158,0,,,,,,,,,,,,,,,,,,,,,,,,1365.7090675837826,None,,,,,,,,,,,,,,,,,speech,silent,white,158,70,298,1360.8075592226814,None,1360.8075592226814,None,3,3.820152950938791,1360.8075592226814,None,1364.6780155561864,None,1365.1922097026836,None,1365.1922097026836,None,f,0.4674249938689172,1365.1922097026836,None,,,NC7,001,2019_Dec_05_1256,ProdSingRedo,3.2.4,59.92280912365884,
,,,,159,0,159,0,,,,,,,,,,,,,,,,,,,,,,,,1371.0940610994585,None,,,,,,,,,,,,,,,,,safety,aloud,white,159,34,270,1366.2257404187694,None,1366.2257404187694,None,6,3.9137024516239762,1366.2257404187694,None,1370.1822035135701,None,1370.6938116755337,None,1370.6938116755337,None,r,0.36549180350266397,1370.6938116755337,None,,,NC7,001,2019_Dec_05_1256,ProdSingRedo,3.2.4,59.92280912365884,
,,,,160,0,160,0,,,,,,,,,,,,,,,,,,,,,,,,1374.1282685566694,None,,,,,,,,,,,,,,,,,route,aloud,white,160,33,267,1371.610877928324,None,1371.610877928324,None,6,1.6570225881878287,1371.610877928324,None,1373.314346226398,None,1373.828197959112,None,1373.828197959112,None,r,0.2550517662893981,1373.828197959112,None,,,NC7,001,2019_Dec_05_1256,ProdSingRedo,3.2.4,59.92280912365884,
,,,,161,0,161,0,,,,,,,,,,,,,,,,,,,,,,,,1377.2125924841966,None,,,,,,,,,,,,,,,,,trash,new_a,white,161,106,337,1374.6449314395431,None,1374.6449314395431,None,1,1.7102994641754776,1374.6449314395431,None,1376.3961812022608,None,1376.9125054036267,None,1376.9125054036267,None,n,0.26663349312730134,1376.9125054036267,None,,,NC7,001,2019_Dec_05_1256,ProdSingRedo,3.2.4,59.92280912365884,
,,,,162,0,162,0,,,,,,,,,,,,,,,,,,,,,,,,1382.5975741818547,None,,,,,,,,,,,,,,,,,trial,new_b,white,162,127,341,1377.7294186432846,None,1377.7294186432846,None,2,3.6812736166175455,1377.7294186432846,None,1381.450225632172,None,1381.964051862713,None,1381.964051862713,None,f,0.5985407771077007,1381.964051862713,None,,,NC7,001,2019_Dec_05_1256,ProdSingRedo,3.2.4,59.92280912365884,
,,,,163,0,163,0,,,,,,,,,,,,,,,,,,,,,,,,1385.8485664348118,None,,,,,,,,,,,,,,,,,number,sing,white,163,13,203,1383.1141988113523,None,1383.1141988113523,None,3,1.4324030217248946,1383.1141988113523,None,1384.5858512599953,None,1385.0982910422608,None,1385.0982910422608,None,f,0.7041021205950528,1385.0982910422608,None,,,NC7,001,2019_Dec_05_1256,ProdSingRedo,3.2.4,59.92280912365884,
,,,,164,0,164,0,,,,,,,,,,,,,,,,,,,,,,,,1389.9498365682084,None,,,,,,,,,,,,,,,,,prime,new_c,white,164,154,235,1386.3654050338082,None,1386.3654050338082,None,1,1.9412802723236382,1386.3654050338082,None,1388.3492864051368,None,1388.8661368223839,None,1388.8661368223839,None,n,1.0403936044313014,1388.8661368223839,None,,,NC7,001,2019_Dec_05_1256,ProdSingRedo,3.2.4,59.92280912365884,
,,,,165,0,165,0,,,,,,,,,,,,,,,,,,,,,,,,1393.4508977080695,None,,,,,,,,,,,,,,,,,patient,aloud,white,165,36,213,1390.4666521530598,None,1390.4666521530598,None,4,2.1193331487011164,1390.4666521530598,None,1392.6377401326317,None,1393.1508227565791,None,1393.1508227565791,None,f,0.2511968924663961,1393.1508227565791,None,,,NC7,001,2019_Dec_05_1256,ProdSingRedo,3.2.4,59.92280912365884,
,,,,166,0,166,0,,,,,,,,,,,,,,,,,,,,,,,,1398.068988091778,None,,,,,,,,,,,,,,,,,ground,new_a,white,166,114,142,1393.9677279102616,None,1393.9677279102616,None,3,3.177960820030421,1393.9677279102616,None,1397.1853720054496,None,1397.7021866573486,None,1397.7021866573486,None,f,0.3315443443134427,1397.7021866573486,None,,,NC7,001,2019_Dec_05_1256,ProdSingRedo,3.2.4,59.92280912365884,
,,,,167,0,167,0,,,,,,,,,,,,,,,,,,,,,,,,1401.7867898650002,None,,,,,,,,,,,,,,,,,substance,new_a,white,167,92,313,1398.588333991589,None,1398.588333991589,None,6,2.4537996710278094,1398.588333991589,None,1401.0910023916513,None,1401.603346074,None,1401.603346074,None,r,0.1501783598214388,1401.603346074,None,,,NC7,001,2019_Dec_05_1256,ProdSingRedo,3.2.4,59.92280912365884,
,,,,168,0,168,0,,,,,,,,,,,,,,,,,,,,,,,,1406.9717115389649,None,,,,,,,,,,,,,,,,,plane,aloud,white,168,58,223,1402.3035074842628,None,1402.3035074842628,None,4,3.553676825016737,1402.3035074842628,None,1405.9079451763537,None,1406.421541265212,None,1406.421541265212,None,f,0.5079162532929331,1406.421541265212,None,,,NC7,001,2019_Dec_05_1256,ProdSingRedo,3.2.4,59.92280912365884,
,,,,169,0,169,0,,,,,,,,,,,,,,,,,,,,,,,,1410.3727512198966,None,,,,,,,,,,,,,,,,,partner,new_a,white,169,101,211,1407.4885439181235,None,1407.4885439181235,None,6,2.184372443938628,1407.4885439181235,None,1409.7224808032624,None,1410.222713744035,None,1410.222713744035,None,r,0.114277184009552,1410.222713744035,None,,,NC7,001,2019_Dec_05_1256,ProdSingRedo,3.2.4,59.92280912365884,
,,,,170,0,170,0,,,,,,,,,,,,,,,,,,,,,,,,1413.4236996215768,None,,,,,,,,,,,,,,,,,owner,aloud,white,170,43,208,1410.88942343276,None,1410.88942343276,None,1,1.6954145818017423,1410.88942343276,None,1412.6273352387361,None,1413.1402682706248,None,1413.1402682706248,None,n,0.24451376358047128,1413.1402682706248,None,,,NC7,001,2019_Dec_05_1256,ProdSingRedo,3.2.4,59.92280912365884,
,,,,171,0,171,0,,,,,,,,,,,,,,,,,,,,,,,,1417.308212327538,None,,,,,,,,,,,,,,,,,touch,new_b,white,171,149,332,1413.940521426499,None,1413.940521426499,None,4,2.5480399078223854,1413.940521426499,None,1416.5275722225197,None,1417.0414587873966,None,1417.0414587873966,None,f,0.22350711119361222,1417.0414587873966,None,,,NC7,001,2019_Dec_05_1256,ProdSingRedo,3.2.4,59.92280912365884,
,,,,172,0,172,0,,,,,,,,,,,,,,,,,,,,,,,,1419.9590161130764,None,,,,,,,,,,,,,,,,,measure,aloud,white,172,30,184,1417.8250216923188,None,1417.8250216923188,None,6,1.4154543275944889,1417.8250216923188,None,1419.2755906712264,None,1419.7922970943619,None,1419.7922970943619,None,r,0.12803592695854604,1419.7922970943619,None,,,NC7,001,2019_Dec_05_1256,ProdSingRedo,3.2.4,59.92280912365884,
,,,,173,0,173,0,,,,,,,,,,,,,,,,,,,,,,,,1422.3430691575631,None,,,,,,,,,,,,,,,,,heavy,new_b,white,173,134,151,1420.4757822486572,None,1420.4757822486572,None,1,1.1323644574731588,1420.4757822486572,None,1421.648823944619,None,1422.159678237047,None,1422.159678237047,None,n,0.1445283805951476,1422.159678237047,None,,,NC7,001,2019_Dec_05_1256,ProdSingRedo,3.2.4,59.92280912365884,
,,,,174,0,174,0,,,,,,,,,,,,,,,,,,,,,,,,1427.1778892893344,None,,,,,,,,,,,,,,,,,instrument,new_a,white,174,95,163,1422.8597597195767,None,1422.8597597195767,None,3,3.4362575844861567,1422.8597597195767,None,1426.3495921203867,None,1426.8611495890655,None,1426.8611495890655,None,f,0.282868436537683,1426.8611495890655,None,,,NC7,001,2019_Dec_05_1256,ProdSingRedo,3.2.4,59.92280912365884,
,,,,175,0,175,0,,,,,,,,,,,,,,,,,,,,,,,,1430.045442105271,None,,,,,,,,,,,,,,,,,benefit,new_c,white,175,156,20,1427.694946834119,None,1427.694946834119,None,6,1.5448782581370324,1427.694946834119,None,1429.2816685896832,None,1429.7953306110576,None,1429.7953306110576,None,r,0.21243667206726968,1429.7953306110576,None,,,NC7,001,2019_Dec_05_1256,ProdSingRedo,3.2.4,59.92280912365884,
,,,,176,0,176,0,,,,,,,,,,,,,,,,,,,,,,,,1432.362806609366,None,,,,,,,,,,,,,,,,,poetry,new_b,white,176,140,225,1430.5632115344051,None,1430.5632115344051,None,1,1.005396512337029,1430.5632115344051,None,1431.6176636882592,None,1432.1292790032458,None,1432.1292790032458,None,n,0.19067863817326725,1432.1292790032458,None,,,NC7,001,2019_Dec_05_1256,ProdSingRedo,3.2.4,59.92280912365884,
,,,,177,0,177,0,,,,,,,,,,,,,,,,,,,,,,,,1435.4637918646913,None,,,,,,,,,,,,,,,,,nation,new_c,white,177,177,198,1432.8795198744629,None,1432.8795198744629,None,1,1.8566711556632072,1432.8795198744629,None,1434.7831791280769,None,1435.2970084685367,None,1435.2970084685367,None,n,0.12641125079244375,1435.2970084685367,None,,,NC7,001,2019_Dec_05_1256,ProdSingRedo,3.2.4,59.92280912365884,
,,,,178,0,178,0,,,,,,,,,,,,,,,,,,,,,,,,1438.1312423609197,None,,,,,,,,,,,,,,,,,household,new_a,white,178,116,154,1435.9806074497756,None,1435.9806074497756,None,1,1.2668353335466236,1435.9806074497756,None,1437.2852923888713,None,1437.797739323927,None,1437.797739323927,None,n,0.2900684515479952,1437.797739323927,None,,,NC7,001,2019_Dec_05_1256,ProdSingRedo,3.2.4,59.92280912365884,
,,,,179,0,179,0,,,,,,,,,,,,,,,,,,,,,,,,1441.2655891471077,None,,,,,,,,,,,,,,,,,career,new_b,white,179,128,42,1438.6480744290166,None,1438.6480744290166,None,6,1.7592210636939853,1438.6480744290166,None,1440.452283845516,None,1440.965464435285,None,1440.965464435285,None,r,0.2579014808870852,1440.965464435285,None,,,NC7,001,2019_Dec_05_1256,ProdSingRedo,3.2.4,59.92280912365884,
,,,,,,,,,,,,,,,,,,,,,,,,,,,,,,,,,,,,,,,,,,,,,,,,,,,,,,,,,,,,,,,,,,,,,,,,,1441.765759265516,None,,,,,,,
