StudyLoop.thisRepN,StudyLoop.thisTrialN,StudyLoop.thisN,StudyLoop.thisIndex,TestLoop.thisRepN,TestLoop.thisTrialN,TestLoop.thisN,TestLoop.thisIndex,textCondition.started,textCondition.stopped,keyCondition.keys,keyCondition.rt,keyCondition.started,keyCondition.stopped,Condition,stim_colors,color_sing,color_aloud,color_silent,textWelcome.started,textWelcome.stopped,keyWelcome.keys,keyWelcome.rt,keyWelcome.started,keyWelcome.stopped,textAloud.started,textAloud.stopped,textSilent.started,textSilent.stopped,textSing.started,textSing.stopped,textBlank500.started,textBlank500.stopped,study_word,study_type,study_color,study_num,study_word_num,textStudy.started,textStudy.stopped,keyStudy.keys,keyStudy.started,keyStudy.stopped,textTestInstructions.started,textTestInstructions.stopped,key_resp_3.keys,key_resp_3.rt,key_resp_3.started,key_resp_3.stopped,testWord,testType,testColor,testN,test_num,test_word_num,textConf.started,textConf.stopped,textConfScale.started,textConfScale.stopped,keyConf.keys,keyConf.rt,keyConf.started,keyConf.stopped,textTestBlank.started,textTestBlank.stopped,textRKN.started,textRKN.stopped,textRKNScale.started,textRKNScale.stopped,keyRKN.keys,keyRKN.rt,keyRKN.started,keyRKN.stopped,textEnd.started,textEnd.stopped,participant,session,date,expName,psychopyVersion,frameRate,
,,,,,,,,14.611795696429908,None,n,0.45968756708316505,14.611795696429908,None,,,,,,,,,,,,,,,,,,,,,,,,,,,,,,,,,,,,,,,,,,,,,,,,,,,,,,,,,,,,,,NC8,001,2019_Dec_05_1337,ProdSingRedo,3.2.4,59.917449364595164,
,,,,,,,,,,,,,,NeutralTest,"['red', 'blue', 'yellow']",red,blue,yellow,15.132598953321576,None,space,424.26538637373596,15.132598953321576,None,,,,,,,,,,,,,,,,,,,,,,,,,,,,,,,,,,,,,,,,,,,,,,,,,,,NC8,001,2019_Dec_05_1337,ProdSingRedo,3.2.4,59.917449364595164,
0,0,0,0,,,,,,,,,,,,,,,,,,,,,,15.132598953321576,None,15.132598953321576,None,15.132598953321576,None,441.94151974399574,None,marriage,aloud,blue,42,179,439.94074565917253,None,None,439.94074565917253,None,,,,,,,,,,,,,,,,,,,,,,,,,,,,,,,,,NC8,001,2019_Dec_05_1337,ProdSingRedo,3.2.4,59.917449364595164,
1,0,1,0,,,,,,,,,,,,,,,,,,,,,,,,,,,,444.4589738168288,None,chief,sing,red,15,48,442.4583014296368,None,None,442.4583014296368,None,,,,,,,,,,,,,,,,,,,,,,,,,,,,,,,,,NC8,001,2019_Dec_05_1337,ProdSingRedo,3.2.4,59.917449364595164,
2,0,2,0,,,,,,,,,,,,,,,,,,,,,,,,,,,,446.9763992773369,None,private,silent,yellow,72,237,444.9764185594395,None,None,444.9764185594395,None,,,,,,,,,,,,,,,,,,,,,,,,,,,,,,,,,NC8,001,2019_Dec_05_1337,ProdSingRedo,3.2.4,59.917449364595164,
3,0,3,0,,,,,,,,,,,,,,,,,,,,,,,,,,,,449.4938430869952,None,skill,aloud,blue,56,289,447.4931710108649,None,None,447.4931710108649,None,,,,,,,,,,,,,,,,,,,,,,,,,,,,,,,,,NC8,001,2019_Dec_05_1337,ProdSingRedo,3.2.4,59.917449364595164,
4,0,4,0,,,,,,,,,,,,,,,,,,,,,,,,,,,,452.01126730348915,None,tennis,silent,yellow,74,323,450.0106197965797,None,None,450.0106197965797,None,,,,,,,,,,,,,,,,,,,,,,,,,,,,,,,,,NC8,001,2019_Dec_05_1337,ProdSingRedo,3.2.4,59.917449364595164,
5,0,5,0,,,,,,,,,,,,,,,,,,,,,,,,,,,,454.5287241751794,None,dispute,silent,yellow,84,99,452.5280754242558,None,None,452.5280754242558,None,,,,,,,,,,,,,,,,,,,,,,,,,,,,,,,,,NC8,001,2019_Dec_05_1337,ProdSingRedo,3.2.4,59.917449364595164,
6,0,6,0,,,,,,,,,,,,,,,,,,,,,,,,,,,,457.0460180817172,None,south,sing,red,9,296,455.04547600471415,None,None,455.04547600471415,None,,,,,,,,,,,,,,,,,,,,,,,,,,,,,,,,,NC8,001,2019_Dec_05_1337,ProdSingRedo,3.2.4,59.917449364595164,
7,0,7,0,,,,,,,,,,,,,,,,,,,,,,,,,,,,459.563585981261,None,science,aloud,blue,43,275,457.5629534025211,None,None,457.5629534025211,None,,,,,,,,,,,,,,,,,,,,,,,,,,,,,,,,,NC8,001,2019_Dec_05_1337,ProdSingRedo,3.2.4,59.917449364595164,
8,0,8,0,,,,,,,,,,,,,,,,,,,,,,,,,,,,462.0810384990182,None,dream,sing,red,14,104,460.0803748201579,None,None,460.0803748201579,None,,,,,,,,,,,,,,,,,,,,,,,,,,,,,,,,,NC8,001,2019_Dec_05_1337,ProdSingRedo,3.2.4,59.917449364595164,
9,0,9,0,,,,,,,,,,,,,,,,,,,,,,,,,,,,464.59844623249955,None,opening,aloud,blue,38,205,462.59780401270837,None,None,462.59780401270837,None,,,,,,,,,,,,,,,,,,,,,,,,,,,,,,,,,NC8,001,2019_Dec_05_1337,ProdSingRedo,3.2.4,59.917449364595164,
10,0,10,0,,,,,,,,,,,,,,,,,,,,,,,,,,,,467.11591367819346,None,region,aloud,blue,39,256,465.11526834848337,None,None,465.11526834848337,None,,,,,,,,,,,,,,,,,,,,,,,,,,,,,,,,,NC8,001,2019_Dec_05_1337,ProdSingRedo,3.2.4,59.917449364595164,
11,0,11,0,,,,,,,,,,,,,,,,,,,,,,,,,,,,469.6333453587722,None,portion,sing,red,25,228,467.6326847898308,None,None,467.6326847898308,None,,,,,,,,,,,,,,,,,,,,,,,,,,,,,,,,,NC8,001,2019_Dec_05_1337,ProdSingRedo,3.2.4,59.917449364595164,
12,0,12,0,,,,,,,,,,,,,,,,,,,,,,,,,,,,472.1508019196335,None,novel,silent,yellow,64,202,470.1499883374199,None,None,470.1499883374199,None,,,,,,,,,,,,,,,,,,,,,,,,,,,,,,,,,NC8,001,2019_Dec_05_1337,ProdSingRedo,3.2.4,59.917449364595164,
13,0,13,0,,,,,,,,,,,,,,,,,,,,,,,,,,,,474.66826936532743,None,citizen,aloud,blue,55,50,472.6675692992285,None,None,472.6675692992285,None,,,,,,,,,,,,,,,,,,,,,,,,,,,,,,,,,NC8,001,2019_Dec_05_1337,ProdSingRedo,3.2.4,59.917449364595164,
14,0,14,0,,,,,,,,,,,,,,,,,,,,,,,,,,,,477.1856693236623,None,addition,silent,yellow,66,2,475.1850221278146,None,None,475.1850221278146,None,,,,,,,,,,,,,,,,,,,,,,,,,,,,,,,,,NC8,001,2019_Dec_05_1337,ProdSingRedo,3.2.4,59.917449364595164,
15,0,15,0,,,,,,,,,,,,,,,,,,,,,,,,,,,,479.7031187315006,None,instrument,silent,yellow,62,163,477.70228026923724,None,None,477.70228026923724,None,,,,,,,,,,,,,,,,,,,,,,,,,,,,,,,,,NC8,001,2019_Dec_05_1337,ProdSingRedo,3.2.4,59.917449364595164,
16,0,16,0,,,,,,,,,,,,,,,,,,,,,,,,,,,,482.2205068715848,None,engineer,silent,yellow,86,114,480.2198926419951,None,None,480.2198926419951,None,,,,,,,,,,,,,,,,,,,,,,,,,,,,,,,,,NC8,001,2019_Dec_05_1337,ProdSingRedo,3.2.4,59.917449364595164,
17,0,17,0,,,,,,,,,,,,,,,,,,,,,,,,,,,,484.7380038627889,None,employment,aloud,blue,48,111,482.7407668074593,None,None,482.7407668074593,None,,,,,,,,,,,,,,,,,,,,,,,,,,,,,,,,,NC8,001,2019_Dec_05_1337,ProdSingRedo,3.2.4,59.917449364595164,
18,0,18,0,,,,,,,,,,,,,,,,,,,,,,,,,,,,487.2552548509557,None,welcome,aloud,blue,33,354,485.2547588022426,None,None,485.2547588022426,None,,,,,,,,,,,,,,,,,,,,,,,,,,,,,,,,,NC8,001,2019_Dec_05_1337,ProdSingRedo,3.2.4,59.917449364595164,
19,0,19,0,,,,,,,,,,,,,,,,,,,,,,,,,,,,489.7728538508527,None,court,sing,red,3,75,487.77219763584435,None,None,487.77219763584435,None,,,,,,,,,,,,,,,,,,,,,,,,,,,,,,,,,NC8,001,2019_Dec_05_1337,ProdSingRedo,3.2.4,59.917449364595164,
20,0,20,0,,,,,,,,,,,,,,,,,,,,,,,,,,,,492.29027122515254,None,quiet,aloud,blue,40,249,490.2897275930736,None,None,490.2897275930736,None,,,,,,,,,,,,,,,,,,,,,,,,,,,,,,,,,NC8,001,2019_Dec_05_1337,ProdSingRedo,3.2.4,59.917449364595164,
21,0,21,0,,,,,,,,,,,,,,,,,,,,,,,,,,,,494.8077097479254,None,commercial,sing,red,12,61,492.80709240818396,None,None,492.80709240818396,None,,,,,,,,,,,,,,,,,,,,,,,,,,,,,,,,,NC8,001,2019_Dec_05_1337,ProdSingRedo,3.2.4,59.917449364595164,
22,0,22,0,,,,,,,,,,,,,,,,,,,,,,,,,,,,497.3251722175628,None,character,silent,yellow,83,46,495.32448552455753,None,None,495.32448552455753,None,,,,,,,,,,,,,,,,,,,,,,,,,,,,,,,,,NC8,001,2019_Dec_05_1337,ProdSingRedo,3.2.4,59.917449364595164,
23,0,23,0,,,,,,,,,,,,,,,,,,,,,,,,,,,,499.8425995442085,None,ground,sing,red,20,142,497.8420145488344,None,None,497.8420145488344,None,,,,,,,,,,,,,,,,,,,,,,,,,,,,,,,,,NC8,001,2019_Dec_05_1337,ProdSingRedo,3.2.4,59.917449364595164,
24,0,24,0,,,,,,,,,,,,,,,,,,,,,,,,,,,,502.360061703017,None,discovery,sing,red,8,95,500.35928450804204,None,None,500.35928450804204,None,,,,,,,,,,,,,,,,,,,,,,,,,,,,,,,,,NC8,001,2019_Dec_05_1337,ProdSingRedo,3.2.4,59.917449364595164,
25,0,25,0,,,,,,,,,,,,,,,,,,,,,,,,,,,,504.8608283237554,None,goose,sing,red,21,138,502.8600349568296,None,None,502.8600349568296,None,,,,,,,,,,,,,,,,,,,,,,,,,,,,,,,,,NC8,001,2019_Dec_05_1337,ProdSingRedo,3.2.4,59.917449364595164,
26,0,26,0,,,,,,,,,,,,,,,,,,,,,,,,,,,,507.37820091377944,None,series,silent,yellow,68,279,505.3775823302567,None,None,505.3775823302567,None,,,,,,,,,,,,,,,,,,,,,,,,,,,,,,,,,NC8,001,2019_Dec_05_1337,ProdSingRedo,3.2.4,59.917449364595164,
27,0,27,0,,,,,,,,,,,,,,,,,,,,,,,,,,,,509.8957072349731,None,owner,aloud,blue,46,208,507.895059106173,None,None,507.895059106173,None,,,,,,,,,,,,,,,,,,,,,,,,,,,,,,,,,NC8,001,2019_Dec_05_1337,ProdSingRedo,3.2.4,59.917449364595164,
28,0,28,0,,,,,,,,,,,,,,,,,,,,,,,,,,,,512.4131435805466,None,pattern,sing,red,6,214,510.4124752364587,None,None,510.4124752364587,None,,,,,,,,,,,,,,,,,,,,,,,,,,,,,,,,,NC8,001,2019_Dec_05_1337,ProdSingRedo,3.2.4,59.917449364595164,
29,0,29,0,,,,,,,,,,,,,,,,,,,,,,,,,,,,514.9305410508532,None,election,aloud,blue,35,109,512.9299314862583,None,None,512.9299314862583,None,,,,,,,,,,,,,,,,,,,,,,,,,,,,,,,,,NC8,001,2019_Dec_05_1337,ProdSingRedo,3.2.4,59.917449364595164,
30,0,30,0,,,,,,,,,,,,,,,,,,,,,,,,,,,,517.4480302669108,None,atmosphere,silent,yellow,69,12,515.4471706564073,None,None,515.4471706564073,None,,,,,,,,,,,,,,,,,,,,,,,,,,,,,,,,,NC8,001,2019_Dec_05_1337,ProdSingRedo,3.2.4,59.917449364595164,
31,0,31,0,,,,,,,,,,,,,,,,,,,,,,,,,,,,519.965454172343,None,colonel,silent,yellow,60,55,517.9648051103577,None,None,517.9648051103577,None,,,,,,,,,,,,,,,,,,,,,,,,,,,,,,,,,NC8,001,2019_Dec_05_1337,ProdSingRedo,3.2.4,59.917449364595164,
32,0,32,0,,,,,,,,,,,,,,,,,,,,,,,,,,,,522.4829119769856,None,passage,aloud,blue,36,212,520.4821329163387,None,None,520.4821329163387,None,,,,,,,,,,,,,,,,,,,,,,,,,,,,,,,,,NC8,001,2019_Dec_05_1337,ProdSingRedo,3.2.4,59.917449364595164,
33,0,33,0,,,,,,,,,,,,,,,,,,,,,,,,,,,,525.0003150454722,None,candidate,silent,yellow,85,39,522.9995701948646,None,None,522.9995701948646,None,,,,,,,,,,,,,,,,,,,,,,,,,,,,,,,,,NC8,001,2019_Dec_05_1337,ProdSingRedo,3.2.4,59.917449364595164,
34,0,34,0,,,,,,,,,,,,,,,,,,,,,,,,,,,,527.5177675632294,None,under,silent,yellow,71,343,525.5170883340761,None,None,525.5170883340761,None,,,,,,,,,,,,,,,,,,,,,,,,,,,,,,,,,NC8,001,2019_Dec_05_1337,ProdSingRedo,3.2.4,59.917449364595164,
35,0,35,0,,,,,,,,,,,,,,,,,,,,,,,,,,,,530.0351812054869,None,mechanical,aloud,blue,53,185,528.0345358757768,None,None,528.0345358757768,None,,,,,,,,,,,,,,,,,,,,,,,,,,,,,,,,,NC8,001,2019_Dec_05_1337,ProdSingRedo,3.2.4,59.917449364595164,
36,0,36,0,,,,,,,,,,,,,,,,,,,,,,,,,,,,532.5526526945177,None,native,silent,yellow,67,199,530.5520135846455,None,None,530.5520135846455,None,,,,,,,,,,,,,,,,,,,,,,,,,,,,,,,,,NC8,001,2019_Dec_05_1337,ProdSingRedo,3.2.4,59.917449364595164,
37,0,37,0,,,,,,,,,,,,,,,,,,,,,,,,,,,,535.0701241833158,None,color,silent,yellow,77,56,533.0694284711499,None,None,533.0694284711499,None,,,,,,,,,,,,,,,,,,,,,,,,,,,,,,,,,NC8,001,2019_Dec_05_1337,ProdSingRedo,3.2.4,59.917449364595164,
38,0,38,0,,,,,,,,,,,,,,,,,,,,,,,,,,,,537.587530672783,None,waste,aloud,blue,41,350,535.5868589077145,None,None,535.5868589077145,None,,,,,,,,,,,,,,,,,,,,,,,,,,,,,,,,,NC8,001,2019_Dec_05_1337,ProdSingRedo,3.2.4,59.917449364595164,
39,0,39,0,,,,,,,,,,,,,,,,,,,,,,,,,,,,540.1049583102576,None,taste,silent,yellow,89,322,538.104305205401,None,None,538.104305205401,None,,,,,,,,,,,,,,,,,,,,,,,,,,,,,,,,,NC8,001,2019_Dec_05_1337,ProdSingRedo,3.2.4,59.917449364595164,
40,0,40,0,,,,,,,,,,,,,,,,,,,,,,,,,,,,542.6223330772482,None,thick,sing,red,2,327,540.6217356419656,None,None,540.6217356419656,None,,,,,,,,,,,,,,,,,,,,,,,,,,,,,,,,,NC8,001,2019_Dec_05_1337,ProdSingRedo,3.2.4,59.917449364595164,
41,0,41,0,,,,,,,,,,,,,,,,,,,,,,,,,,,,545.1398397095036,None,drink,sing,red,19,105,543.1391713654157,None,None,543.1391713654157,None,,,,,,,,,,,,,,,,,,,,,,,,,,,,,,,,,NC8,001,2019_Dec_05_1337,ProdSingRedo,3.2.4,59.917449364595164,
42,0,42,0,,,,,,,,,,,,,,,,,,,,,,,,,,,,547.657277610153,None,session,sing,red,24,281,545.6566064669751,None,None,545.6566064669751,None,,,,,,,,,,,,,,,,,,,,,,,,,,,,,,,,,NC8,001,2019_Dec_05_1337,ProdSingRedo,3.2.4,59.917449364595164,
43,0,43,0,,,,,,,,,,,,,,,,,,,,,,,,,,,,550.1747242186684,None,contract,aloud,blue,34,68,548.1738957085181,None,None,548.1738957085181,None,,,,,,,,,,,,,,,,,,,,,,,,,,,,,,,,,NC8,001,2019_Dec_05_1337,ProdSingRedo,3.2.4,59.917449364595164,
44,0,44,0,,,,,,,,,,,,,,,,,,,,,,,,,,,,552.6921540333424,None,second,silent,yellow,78,278,550.6914937754627,None,None,550.6914937754627,None,,,,,,,,,,,,,,,,,,,,,,,,,,,,,,,,,NC8,001,2019_Dec_05_1337,ProdSingRedo,3.2.4,59.917449364595164,
45,0,45,0,,,,,,,,,,,,,,,,,,,,,,,,,,,,555.2095527476631,None,power,sing,red,7,230,553.208947848063,None,None,553.208947848063,None,,,,,,,,,,,,,,,,,,,,,,,,,,,,,,,,,NC8,001,2019_Dec_05_1337,ProdSingRedo,3.2.4,59.917449364595164,
46,0,46,0,,,,,,,,,,,,,,,,,,,,,,,,,,,,557.7269831842277,None,clean,aloud,blue,54,51,555.7263456294313,None,None,555.7263456294313,None,,,,,,,,,,,,,,,,,,,,,,,,,,,,,,,,,NC8,001,2019_Dec_05_1337,ProdSingRedo,3.2.4,59.917449364595164,
47,0,47,0,,,,,,,,,,,,,,,,,,,,,,,,,,,,560.2444748880807,None,force,silent,yellow,76,131,558.2438354673795,None,None,558.2438354673795,None,,,,,,,,,,,,,,,,,,,,,,,,,,,,,,,,,NC8,001,2019_Dec_05_1337,ProdSingRedo,3.2.4,59.917449364595164,
48,0,48,0,,,,,,,,,,,,,,,,,,,,,,,,,,,,562.7619124779012,None,problem,sing,red,18,238,560.7640988242347,None,None,560.7640988242347,None,,,,,,,,,,,,,,,,,,,,,,,,,,,,,,,,,NC8,001,2019_Dec_05_1337,ProdSingRedo,3.2.4,59.917449364595164,
49,0,49,0,,,,,,,,,,,,,,,,,,,,,,,,,,,,565.262695892714,None,breath,aloud,blue,32,27,563.2618048710283,None,None,563.2618048710283,None,,,,,,,,,,,,,,,,,,,,,,,,,,,,,,,,,NC8,001,2019_Dec_05_1337,ProdSingRedo,3.2.4,59.917449364595164,
50,0,50,0,,,,,,,,,,,,,,,,,,,,,,,,,,,,567.7800989609677,None,judge,aloud,blue,52,166,565.7794256410562,None,None,565.7794256410562,None,,,,,,,,,,,,,,,,,,,,,,,,,,,,,,,,,NC8,001,2019_Dec_05_1337,ProdSingRedo,3.2.4,59.917449364595164,
51,0,51,0,,,,,,,,,,,,,,,,,,,,,,,,,,,,570.2975499236491,None,brilliant,sing,red,17,30,568.2967394515872,None,None,568.2967394515872,None,,,,,,,,,,,,,,,,,,,,,,,,,,,,,,,,,NC8,001,2019_Dec_05_1337,ProdSingRedo,3.2.4,59.917449364595164,
52,0,52,0,,,,,,,,,,,,,,,,,,,,,,,,,,,,572.8149564131163,None,relation,sing,red,28,257,570.8143291214947,None,None,570.8143291214947,None,,,,,,,,,,,,,,,,,,,,,,,,,,,,,,,,,NC8,001,2019_Dec_05_1337,ProdSingRedo,3.2.4,59.917449364595164,
53,0,53,0,,,,,,,,,,,,,,,,,,,,,,,,,,,,575.3324397199322,None,history,aloud,blue,51,153,573.331748672761,None,None,573.331748672761,None,,,,,,,,,,,,,,,,,,,,,,,,,,,,,,,,,NC8,001,2019_Dec_05_1337,ProdSingRedo,3.2.4,59.917449364595164,
54,0,54,0,,,,,,,,,,,,,,,,,,,,,,,,,,,,577.8498751325533,None,business,aloud,blue,30,38,575.8492102096789,None,None,575.8492102096789,None,,,,,,,,,,,,,,,,,,,,,,,,,,,,,,,,,NC8,001,2019_Dec_05_1337,ProdSingRedo,3.2.4,59.917449364595164,
55,0,55,0,,,,,,,,,,,,,,,,,,,,,,,,,,,,580.3671864552889,None,course,silent,yellow,81,74,578.3665992829483,None,None,578.3665992829483,None,,,,,,,,,,,,,,,,,,,,,,,,,,,,,,,,,NC8,001,2019_Dec_05_1337,ProdSingRedo,3.2.4,59.917449364595164,
56,0,56,0,,,,,,,,,,,,,,,,,,,,,,,,,,,,582.8847574649844,None,expansion,silent,yellow,82,123,580.8840810349211,None,None,580.8840810349211,None,,,,,,,,,,,,,,,,,,,,,,,,,,,,,,,,,NC8,001,2019_Dec_05_1337,ProdSingRedo,3.2.4,59.917449364595164,
57,0,57,0,,,,,,,,,,,,,,,,,,,,,,,,,,,,585.4021406290121,None,school,aloud,blue,49,274,583.4015133373905,None,None,583.4015133373905,None,,,,,,,,,,,,,,,,,,,,,,,,,,,,,,,,,NC8,001,2019_Dec_05_1337,ProdSingRedo,3.2.4,59.917449364595164,
58,0,58,0,,,,,,,,,,,,,,,,,,,,,,,,,,,,587.9194793200586,None,pancakes,silent,yellow,79,210,585.9189602569677,None,None,585.9189602569677,None,,,,,,,,,,,,,,,,,,,,,,,,,,,,,,,,,NC8,001,2019_Dec_05_1337,ProdSingRedo,3.2.4,59.917449364595164,
59,0,59,0,,,,,,,,,,,,,,,,,,,,,,,,,,,,590.4368080587592,None,produce,sing,red,16,239,588.4219664055854,None,None,588.4219664055854,None,,,,,,,,,,,,,,,,,,,,,,,,,,,,,,,,,NC8,001,2019_Dec_05_1337,ProdSingRedo,3.2.4,59.917449364595164,
60,0,60,0,,,,,,,,,,,,,,,,,,,,,,,,,,,,592.9377000133973,None,suspect,sing,red,11,318,590.9374953738879,None,None,590.9374953738879,None,,,,,,,,,,,,,,,,,,,,,,,,,,,,,,,,,NC8,001,2019_Dec_05_1337,ProdSingRedo,3.2.4,59.917449364595164,
61,0,61,0,,,,,,,,,,,,,,,,,,,,,,,,,,,,595.4550132020377,None,appearance,sing,red,27,10,593.4412983104121,None,None,593.4412983104121,None,,,,,,,,,,,,,,,,,,,,,,,,,,,,,,,,,NC8,001,2019_Dec_05_1337,ProdSingRedo,3.2.4,59.917449364595164,
62,0,62,0,,,,,,,,,,,,,,,,,,,,,,,,,,,,597.955778578762,None,guard,sing,red,23,145,595.9551795884036,None,None,595.9551795884036,None,,,,,,,,,,,,,,,,,,,,,,,,,,,,,,,,,NC8,001,2019_Dec_05_1337,ProdSingRedo,3.2.4,59.917449364595164,
63,0,63,0,,,,,,,,,,,,,,,,,,,,,,,,,,,,600.4567834273912,None,crisis,sing,red,26,79,598.4559521181509,None,None,598.4559521181509,None,,,,,,,,,,,,,,,,,,,,,,,,,,,,,,,,,NC8,001,2019_Dec_05_1337,ProdSingRedo,3.2.4,59.917449364595164,
64,0,64,0,,,,,,,,,,,,,,,,,,,,,,,,,,,,602.9742387440056,None,column,aloud,blue,31,57,600.973503845511,None,None,600.973503845511,None,,,,,,,,,,,,,,,,,,,,,,,,,,,,,,,,,NC8,001,2019_Dec_05_1337,ProdSingRedo,3.2.4,59.917449364595164,
65,0,65,0,,,,,,,,,,,,,,,,,,,,,,,,,,,,605.4747319938615,None,edition,aloud,blue,44,107,603.4744387185201,None,None,603.4744387185201,None,,,,,,,,,,,,,,,,,,,,,,,,,,,,,,,,,NC8,001,2019_Dec_05_1337,ProdSingRedo,3.2.4,59.917449364595164,
66,0,66,0,,,,,,,,,,,,,,,,,,,,,,,,,,,,607.9921991287265,None,revolution,sing,red,0,264,605.9915366936475,None,None,605.9915366936475,None,,,,,,,,,,,,,,,,,,,,,,,,,,,,,,,,,NC8,001,2019_Dec_05_1337,ProdSingRedo,3.2.4,59.917449364595164,
67,0,67,0,,,,,,,,,,,,,,,,,,,,,,,,,,,,610.4929750794545,None,space,sing,red,13,297,608.4924186961725,None,None,608.4924186961725,None,,,,,,,,,,,,,,,,,,,,,,,,,,,,,,,,,NC8,001,2019_Dec_05_1337,ProdSingRedo,3.2.4,59.917449364595164,
68,0,68,0,,,,,,,,,,,,,,,,,,,,,,,,,,,,613.0106527628377,None,season,silent,yellow,88,277,611.0099769548979,None,None,611.0099769548979,None,,,,,,,,,,,,,,,,,,,,,,,,,,,,,,,,,NC8,001,2019_Dec_05_1337,ProdSingRedo,3.2.4,59.917449364595164,
69,0,69,0,,,,,,,,,,,,,,,,,,,,,,,,,,,,615.5280623622239,None,enemy,sing,red,1,113,613.5273731811903,None,None,613.5273731811903,None,,,,,,,,,,,,,,,,,,,,,,,,,,,,,,,,,NC8,001,2019_Dec_05_1337,ProdSingRedo,3.2.4,59.917449364595164,
70,0,70,0,,,,,,,,,,,,,,,,,,,,,,,,,,,,618.0455232770182,None,government,aloud,blue,47,139,616.0448141917586,None,None,616.0448141917586,None,,,,,,,,,,,,,,,,,,,,,,,,,,,,,,,,,NC8,001,2019_Dec_05_1337,ProdSingRedo,3.2.4,59.917449364595164,
71,0,71,0,,,,,,,,,,,,,,,,,,,,,,,,,,,,620.5628790729679,None,watch,aloud,blue,59,351,618.5622915895656,None,None,618.5622915895656,None,,,,,,,,,,,,,,,,,,,,,,,,,,,,,,,,,NC8,001,2019_Dec_05_1337,ProdSingRedo,3.2.4,59.917449364595164,
72,0,72,0,,,,,,,,,,,,,,,,,,,,,,,,,,,,623.0636634209659,None,community,aloud,blue,37,63,621.0629185703583,None,None,621.0629185703583,None,,,,,,,,,,,,,,,,,,,,,,,,,,,,,,,,,NC8,001,2019_Dec_05_1337,ProdSingRedo,3.2.4,59.917449364595164,
73,0,73,0,,,,,,,,,,,,,,,,,,,,,,,,,,,,625.5811663209461,None,trend,aloud,blue,45,340,623.5686304389965,None,None,623.5686304389965,None,,,,,,,,,,,,,,,,,,,,,,,,,,,,,,,,,NC8,001,2019_Dec_05_1337,ProdSingRedo,3.2.4,59.917449364595164,
74,0,74,0,,,,,,,,,,,,,,,,,,,,,,,,,,,,628.0983731469605,None,heavy,silent,yellow,63,151,626.0979582697619,None,None,626.0979582697619,None,,,,,,,,,,,,,,,,,,,,,,,,,,,,,,,,,NC8,001,2019_Dec_05_1337,ProdSingRedo,3.2.4,59.917449364595164,
75,0,75,0,,,,,,,,,,,,,,,,,,,,,,,,,,,,630.5993493832648,None,degree,silent,yellow,70,89,628.5986483839806,None,None,628.5986483839806,None,,,,,,,,,,,,,,,,,,,,,,,,,,,,,,,,,NC8,001,2019_Dec_05_1337,ProdSingRedo,3.2.4,59.917449364595164,
76,0,76,0,,,,,,,,,,,,,,,,,,,,,,,,,,,,633.1169057756197,None,voice,sing,red,29,348,631.1160041799303,None,None,631.1160041799303,None,,,,,,,,,,,,,,,,,,,,,,,,,,,,,,,,,NC8,001,2019_Dec_05_1337,ProdSingRedo,3.2.4,59.917449364595164,
77,0,77,0,,,,,,,,,,,,,,,,,,,,,,,,,,,,635.6343673125375,None,foundation,silent,yellow,80,132,633.633461673744,None,None,633.633461673744,None,,,,,,,,,,,,,,,,,,,,,,,,,,,,,,,,,NC8,001,2019_Dec_05_1337,ProdSingRedo,3.2.4,59.917449364595164,
78,0,78,0,,,,,,,,,,,,,,,,,,,,,,,,,,,,638.1516621520277,None,right,silent,yellow,73,265,636.1508883782662,None,None,636.1508883782662,None,,,,,,,,,,,,,,,,,,,,,,,,,,,,,,,,,NC8,001,2019_Dec_05_1337,ProdSingRedo,3.2.4,59.917449364595164,
79,0,79,0,,,,,,,,,,,,,,,,,,,,,,,,,,,,640.6691093826666,None,finish,aloud,blue,58,130,638.6684817799833,None,None,638.6684817799833,None,,,,,,,,,,,,,,,,,,,,,,,,,,,,,,,,,NC8,001,2019_Dec_05_1337,ProdSingRedo,3.2.4,59.917449364595164,
80,0,80,0,,,,,,,,,,,,,,,,,,,,,,,,,,,,643.1865535033867,None,personnel,aloud,blue,50,219,641.1858677433338,None,None,641.1858677433338,None,,,,,,,,,,,,,,,,,,,,,,,,,,,,,,,,,NC8,001,2019_Dec_05_1337,ProdSingRedo,3.2.4,59.917449364595164,
81,0,81,0,,,,,,,,,,,,,,,,,,,,,,,,,,,,645.7040010450874,None,provision,sing,red,22,243,643.7033855714835,None,None,643.7033855714835,None,,,,,,,,,,,,,,,,,,,,,,,,,,,,,,,,,NC8,001,2019_Dec_05_1337,ProdSingRedo,3.2.4,59.917449364595164,
82,0,82,0,,,,,,,,,,,,,,,,,,,,,,,,,,,,648.2214193525724,None,salary,sing,red,10,271,646.2207799316384,None,None,646.2207799316384,None,,,,,,,,,,,,,,,,,,,,,,,,,,,,,,,,,NC8,001,2019_Dec_05_1337,ProdSingRedo,3.2.4,59.917449364595164,
83,0,83,0,,,,,,,,,,,,,,,,,,,,,,,,,,,,650.7388625401072,None,surprise,silent,yellow,61,317,648.7382122343406,None,None,648.7382122343406,None,,,,,,,,,,,,,,,,,,,,,,,,,,,,,,,,,NC8,001,2019_Dec_05_1337,ProdSingRedo,3.2.4,59.917449364595164,
84,0,84,0,,,,,,,,,,,,,,,,,,,,,,,,,,,,653.2563166129403,None,solution,sing,red,5,294,651.2556448478717,None,None,651.2556448478717,None,,,,,,,,,,,,,,,,,,,,,,,,,,,,,,,,,NC8,001,2019_Dec_05_1337,ProdSingRedo,3.2.4,59.917449364595164,
85,0,85,0,,,,,,,,,,,,,,,,,,,,,,,,,,,,655.7736329114996,None,audience,silent,yellow,75,14,653.7730895904824,None,None,653.7730895904824,None,,,,,,,,,,,,,,,,,,,,,,,,,,,,,,,,,NC8,001,2019_Dec_05_1337,ProdSingRedo,3.2.4,59.917449364595164,
86,0,86,0,,,,,,,,,,,,,,,,,,,,,,,,,,,,658.2910686351825,None,committee,aloud,blue,57,62,656.2903971811756,None,None,656.2903971811756,None,,,,,,,,,,,,,,,,,,,,,,,,,,,,,,,,,NC8,001,2019_Dec_05_1337,ProdSingRedo,3.2.4,59.917449364595164,
87,0,87,0,,,,,,,,,,,,,,,,,,,,,,,,,,,,660.8085898843128,None,working,sing,red,4,357,658.807868048083,None,None,658.807868048083,None,,,,,,,,,,,,,,,,,,,,,,,,,,,,,,,,,NC8,001,2019_Dec_05_1337,ProdSingRedo,3.2.4,59.917449364595164,
88,0,88,0,,,,,,,,,,,,,,,,,,,,,,,,,,,,663.3092513864394,None,tragedy,silent,yellow,87,335,661.3084909857716,None,None,661.3084909857716,None,,,,,,,,,,,,,,,,,,,,,,,,,,,,,,,,,NC8,001,2019_Dec_05_1337,ProdSingRedo,3.2.4,59.917449364595164,
89,0,89,0,,,,,,,,,,,,,,,,,,,,,,,,,,,,665.8100444423035,None,generation,silent,yellow,65,136,663.8093213618267,None,None,663.8093213618267,None,,,,,,,,,,,,,,,,,,,,,,,,,,,,,,,,,NC8,001,2019_Dec_05_1337,ProdSingRedo,3.2.4,59.917449364595164,
,,,,,,,,,,,,,,,,,,,,,,,,,,,,,,,,,,,,,,,,,,,666.3099626486655,None,k,101.86746822344139,666.3099626486655,None,,,,,,,,,,,,,,,,,,,,,,,,,,,NC8,001,2019_Dec_05_1337,ProdSingRedo,3.2.4,59.917449364595164,
,,,,0,0,0,0,,,,,,,,,,,,,,,,,,,,,,,,775.743754606694,None,,,,,,,,,,,,,,,,,instrument,silent,white,0,62,163,768.7267605063971,None,768.7267605063971,None,6,3.8104145352263004,768.7267605063971,None,772.5927461816464,None,773.1096967416815,None,773.1096967416815,None,r,2.5953016879502684,773.1096967416815,None,,,NC8,001,2019_Dec_05_1337,ProdSingRedo,3.2.4,59.917449364595164,
,,,,1,0,1,0,,,,,,,,,,,,,,,,,,,,,,,,781.4288818533532,None,,,,,,,,,,,,,,,,,household,new_b,white,1,147,154,776.2606544734444,None,776.2606544734444,None,1,2.396156633272767,776.2606544734444,None,778.698810105212,None,779.2115727078635,None,779.2115727078635,None,n,2.1810814174823463,779.2115727078635,None,,,NC8,001,2019_Dec_05_1337,ProdSingRedo,3.2.4,59.917449364595164,
,,,,2,0,2,0,,,,,,,,,,,,,,,,,,,,,,,,787.9808515866753,None,,,,,,,,,,,,,,,,,balance,new_a,white,2,95,17,781.9456097357906,None,781.9456097357906,None,6,3.8867876881267875,781.9456097357906,None,785.8810055328067,None,786.3970902622677,None,786.3970902622677,None,f,1.539469305658713,786.3970902622677,None,,,NC8,001,2019_Dec_05_1337,ProdSingRedo,3.2.4,59.917449364595164,
,,,,3,0,3,0,,,,,,,,,,,,,,,,,,,,,,,,795.2831312336493,None,,,,,,,,,,,,,,,,,raise,new_b,white,3,124,250,788.4977349701803,None,788.4977349701803,None,1,2.342499090358615,788.4977349701803,None,790.8840636187233,None,791.398614173755,None,791.398614173755,None,n,3.8414410604164004,791.398614173755,None,,,NC8,001,2019_Dec_05_1337,ProdSingRedo,3.2.4,59.917449364595164,
,,,,4,0,4,0,,,,,,,,,,,,,,,,,,,,,,,,803.5856926490087,None,,,,,,,,,,,,,,,,,thick,sing,white,4,2,327,795.7997720353305,None,795.7997720353305,None,1,2.7679633391089737,795.7997720353305,None,798.6017011827789,None,799.1176173491403,None,799.1176173491403,None,n,4.4337981783319265,799.1176173491403,None,,,NC8,001,2019_Dec_05_1337,ProdSingRedo,3.2.4,59.917449364595164,
,,,,5,0,5,0,,,,,,,,,,,,,,,,,,,,,,,,812.0716288124677,None,,,,,,,,,,,,,,,,,budget,new_c,white,5,162,34,804.1024752676021,None,804.1024752676021,None,1,3.272687464253977,804.1024752676021,None,807.4217686080374,None,807.9370130093303,None,807.9370130093303,None,n,4.10166821652092,807.9370130093303,None,,,NC8,001,2019_Dec_05_1337,ProdSingRedo,3.2.4,59.917449364595164,
,,,,6,0,6,0,,,,,,,,,,,,,,,,,,,,,,,,819.0737171932124,None,,,,,,,,,,,,,,,,,heavy,silent,white,6,63,151,812.5884509286843,None,812.5884509286843,None,3,4.746018703794107,812.5884509286843,None,817.3772427155636,None,817.889922280563,None,817.889922280563,None,f,1.148400981677696,817.889922280563,None,,,NC8,001,2019_Dec_05_1337,ProdSingRedo,3.2.4,59.917449364595164,
,,,,7,0,7,0,,,,,,,,,,,,,,,,,,,,,,,,823.7752072054427,None,,,,,,,,,,,,,,,,,clean,aloud,white,7,54,51,819.5904488074593,None,819.5904488074593,None,1,2.59964421344921,819.5904488074593,None,822.2266469907481,None,822.7415729253553,None,822.7415729253553,None,n,1.000668965978548,822.7415729253553,None,,,NC8,001,2019_Dec_05_1337,ProdSingRedo,3.2.4,59.917449364595164,
,,,,8,0,8,0,,,,,,,,,,,,,,,,,,,,,,,,831.5942679161672,None,,,,,,,,,,,,,,,,,leader,new_c,white,8,174,168,824.2920454933774,None,824.2920454933774,None,5,4.793841220904142,824.2920454933774,None,829.1300163900014,None,829.6436749901623,None,829.6436749901623,None,f,1.913899005157873,829.6436749901623,None,,,NC8,001,2019_Dec_05_1337,ProdSingRedo,3.2.4,59.917449364595164,
,,,,9,0,9,0,,,,,,,,,,,,,,,,,,,,,,,,838.8464768102858,None,,,,,,,,,,,,,,,,,atmosphere,silent,white,9,69,12,832.1110747929197,None,832.1110747929197,None,1,1.8067229373846203,832.1110747929197,None,833.9640891831368,None,834.4783878261223,None,834.4783878261223,None,n,4.318694661138579,834.4783878261223,None,,,NC8,001,2019_Dec_05_1337,ProdSingRedo,3.2.4,59.917449364595164,
,,,,10,0,10,0,,,,,,,,,,,,,,,,,,,,,,,,846.7489377716556,None,,,,,,,,,,,,,,,,,comfort,new_a,white,10,104,59,839.3633116772398,None,839.3633116772398,None,6,3.7855458557605743,839.3633116772398,None,843.1845836145803,None,843.6980011879932,None,843.6980011879932,None,r,3.002669644076377,843.6980011879932,None,,,NC8,001,2019_Dec_05_1337,ProdSingRedo,3.2.4,59.917449364595164,
,,,,11,0,11,0,,,,,,,,,,,,,,,,,,,,,,,,853.9844520606566,None,,,,,,,,,,,,,,,,,period,new_a,white,11,114,217,847.2657421603799,None,847.2657421603799,None,1,2.786636230070144,847.2657421603799,None,850.1012312583625,None,850.6167599156033,None,850.6167599156033,None,n,3.32374285091646,850.6167599156033,None,,,NC8,001,2019_Dec_05_1337,ProdSingRedo,3.2.4,59.917449364595164,
,,,,12,0,12,0,,,,,,,,,,,,,,,,,,,,,,,,858.2191123373341,None,,,,,,,,,,,,,,,,,commercial,sing,white,12,12,61,854.5013167839497,None,854.5013167839497,None,6,1.9267465113662183,854.5013167839497,None,856.4684469476342,None,856.9853978187311,None,856.9853978187311,None,r,1.1864791738335043,856.9853978187311,None,,,NC8,001,2019_Dec_05_1337,ProdSingRedo,3.2.4,59.917449364595164,
,,,,13,0,13,0,,,,,,,,,,,,,,,,,,,,,,,,863.8041621441953,None,,,,,,,,,,,,,,,,,material,new_b,white,13,127,182,858.7357904592063,None,858.7357904592063,None,1,3.076130571309477,858.7357904592063,None,861.8577892088797,None,862.3702902584337,None,862.3702902584337,None,n,1.4013326449785382,862.3702902584337,None,,,NC8,001,2019_Dec_05_1337,ProdSingRedo,3.2.4,59.917449364595164,
,,,,14,0,14,0,,,,,,,,,,,,,,,,,,,,,,,,868.7056338072289,None,,,,,,,,,,,,,,,,,addition,silent,white,14,66,2,864.3208197399508,None,864.3208197399508,None,6,2.0908907416742295,864.3208197399508,None,866.4549833459314,None,866.9717889786698,None,866.9717889786698,None,r,1.6955364944878966,866.9717889786698,None,,,NC8,001,2019_Dec_05_1337,ProdSingRedo,3.2.4,59.917449364595164,
,,,,15,0,15,0,,,,,,,,,,,,,,,,,,,,,,,,872.3567831164692,None,,,,,,,,,,,,,,,,,under,silent,white,15,71,343,869.2224972865079,None,869.2224972865079,None,1,1.532777157612145,869.2224972865079,None,870.7925533603411,None,871.3064716474619,None,871.3064716474619,None,n,1.0167020689696074,871.3064716474619,None,,,NC8,001,2019_Dec_05_1337,ProdSingRedo,3.2.4,59.917449364595164,
,,,,16,0,16,0,,,,,,,,,,,,,,,,,,,,,,,,877.8251065961085,None,,,,,,,,,,,,,,,,,pattern,sing,white,16,6,214,872.8734295160975,None,872.8734295160975,None,6,2.2494176481850445,872.8734295160975,None,875.1606196411885,None,875.6744402735494,None,875.6744402735494,None,r,2.112329065334052,875.6744402735494,None,,,NC8,001,2019_Dec_05_1337,ProdSingRedo,3.2.4,59.917449364595164,
,,,,17,0,17,0,,,,,,,,,,,,,,,,,,,,,,,,880.6593156084418,None,,,,,,,,,,,,,,,,,detective,new_a,white,17,90,92,878.3444145538379,None,878.3444145538379,None,1,1.2181575598660856,878.3444145538379,None,879.6256014008541,None,880.1256673333701,None,880.1256673333701,None,n,0.4849347360432148,880.1256673333701,None,,,NC8,001,2019_Dec_05_1337,ProdSingRedo,3.2.4,59.917449364595164,
,,,,18,0,18,0,,,,,,,,,,,,,,,,,,,,,,,,883.8436155887321,None,,,,,,,,,,,,,,,,,passage,aloud,white,18,36,212,881.176002438413,None,881.176002438413,None,1,1.626414360711351,881.176002438413,None,882.846670253668,None,883.3601425634697,None,883.3601425634697,None,n,0.4502757035661489,883.3601425634697,None,,,NC8,001,2019_Dec_05_1337,ProdSingRedo,3.2.4,59.917449364595164,
,,,,19,0,19,0,,,,,,,,,,,,,,,,,,,,,,,,887.0946392528713,None,,,,,,,,,,,,,,,,,south,sing,white,19,9,296,884.3602598113939,None,884.3602598113939,None,1,1.2660587606951594,884.3602598113939,None,885.6635601681191,None,886.1776812288444,None,886.1776812288444,None,n,0.8805138380266726,886.1776812288444,None,,,NC8,001,2019_Dec_05_1337,ProdSingRedo,3.2.4,59.917449364595164,
,,,,20,0,20,0,,,,,,,,,,,,,,,,,,,,,,,,891.6293421369046,None,,,,,,,,,,,,,,,,,income,new_b,white,20,140,159,887.6114128525369,None,887.6114128525369,None,4,2.5587663780897856,887.6114128525369,None,890.2120227280539,None,890.729069387773,None,890.729069387773,None,f,0.8648159955628216,890.729069387773,None,,,NC8,001,2019_Dec_05_1337,ProdSingRedo,3.2.4,59.917449364595164,
,,,,21,0,21,0,,,,,,,,,,,,,,,,,,,,,,,,897.5644838451408,None,,,,,,,,,,,,,,,,,color,silent,white,21,77,56,892.1461648747791,None,892.1461648747791,None,1,2.463571675121784,892.1461648747791,None,894.648354642326,None,895.1637620085385,None,895.1637620085385,None,n,2.3580065993592143,895.1637620085385,None,,,NC8,001,2019_Dec_05_1337,ProdSingRedo,3.2.4,59.917449364595164,
,,,,22,0,22,0,,,,,,,,,,,,,,,,,,,,,,,,901.6490935836919,None,,,,,,,,,,,,,,,,,colonel,silent,white,22,60,55,898.0813367501833,None,898.0813367501833,None,6,2.119972569635138,898.0813367501833,None,900.2508846460842,None,900.7654659904074,None,900.7654659904074,None,r,0.8438308022450656,900.7654659904074,None,,,NC8,001,2019_Dec_05_1337,ProdSingRedo,3.2.4,59.917449364595164,
,,,,23,0,23,0,,,,,,,,,,,,,,,,,,,,,,,,906.6672965502366,None,,,,,,,,,,,,,,,,,break,new_b,white,23,148,26,902.1664633748587,None,902.1664633748587,None,1,2.882732839556411,902.1664633748587,None,905.0882705471013,None,905.600163587369,None,905.600163587369,None,n,1.0329351467080414,905.600163587369,None,,,NC8,001,2019_Dec_05_1337,ProdSingRedo,3.2.4,59.917449364595164,
,,,,24,0,24,0,,,,,,,,,,,,,,,,,,,,,,,,912.4690649092663,None,,,,,,,,,,,,,,,,,relation,sing,white,24,28,257,907.1839983081445,None,907.1839983081445,None,3,3.4886907113250345,907.1839983081445,None,910.7207544294652,None,911.2353164916858,None,911.2353164916858,None,f,1.1896803206764162,911.2353164916858,None,,,NC8,001,2019_Dec_05_1337,ProdSingRedo,3.2.4,59.917449364595164,
,,,,25,0,25,0,,,,,,,,,,,,,,,,,,,,,,,,917.1538544073701,None,,,,,,,,,,,,,,,,,space,sing,white,25,13,297,912.9859038195573,None,912.9859038195573,None,6,2.5825764054898173,912.9859038195573,None,915.6052674464881,None,916.1078167327214,None,916.1078167327214,None,r,1.0126963590737432,916.1078167327214,None,,,NC8,001,2019_Dec_05_1337,ProdSingRedo,3.2.4,59.917449364595164,
,,,,26,0,26,0,,,,,,,,,,,,,,,,,,,,,,,,923.4391076099128,None,,,,,,,,,,,,,,,,,listen,new_c,white,26,151,172,917.6706099689472,None,917.6706099689472,None,3,3.8016492454335093,917.6706099689472,None,921.5070171456318,None,922.0219993719365,None,922.0219993719365,None,f,1.3779695278499275,922.0219993719365,None,,,NC8,001,2019_Dec_05_1337,ProdSingRedo,3.2.4,59.917449364595164,
,,,,27,0,27,0,,,,,,,,,,,,,,,,,,,,,,,,926.6233920403756,None,,,,,,,,,,,,,,,,,personnel,aloud,white,27,50,219,923.9568428287748,None,923.9568428287748,None,6,1.4912113852333277,923.9568428287748,None,925.4908593306318,None,926.0065170538146,None,926.0065170538146,None,r,0.5692247645929456,926.0065170538146,None,,,NC8,001,2019_Dec_05_1337,ProdSingRedo,3.2.4,59.917449364595164,
,,,,28,0,28,0,,,,,,,,,,,,,,,,,,,,,,,,931.0414127593394,None,,,,,,,,,,,,,,,,,beginning,new_a,white,28,119,19,927.140064253239,None,927.140064253239,None,1,1.9315732675604522,927.140064253239,None,929.1136965425685,None,929.6241636371706,None,929.6241636371706,None,n,1.3755306475795805,929.6241636371706,None,,,NC8,001,2019_Dec_05_1337,ProdSingRedo,3.2.4,59.917449364595164,
,,,,29,0,29,0,,,,,,,,,,,,,,,,,,,,,,,,934.5091667936649,None,,,,,,,,,,,,,,,,,dispute,silent,white,29,84,99,931.5582264782861,None,931.5582264782861,None,1,1.3530800114385784,931.5582264782861,None,932.9584640839603,None,933.475470002275,None,933.475470002275,None,n,0.9878139956854284,933.475470002275,None,,,NC8,001,2019_Dec_05_1337,ProdSingRedo,3.2.4,59.917449364595164,
,,,,30,0,30,0,,,,,,,,,,,,,,,,,,,,,,,,937.9935529218055,None,,,,,,,,,,,,,,,,,tennis,silent,white,30,74,323,935.0258442936465,None,935.0258442936465,None,1,1.4453435176983476,935.0258442936465,None,936.5121900474187,None,937.0265888331924,None,937.0265888331924,None,n,0.9246599965263158,937.0265888331924,None,,,NC8,001,2019_Dec_05_1337,ProdSingRedo,3.2.4,59.917449364595164,
,,,,31,0,31,0,,,,,,,,,,,,,,,,,,,,,,,,941.9281136775389,None,,,,,,,,,,,,,,,,,produce,sing,white,31,16,239,938.5102531248704,None,938.5102531248704,None,6,1.8167959917336702,938.5102531248704,None,940.3642676984891,None,940.8777879027184,None,940.8777879027184,None,r,1.0170709178783,940.8777879027184,None,,,NC8,001,2019_Dec_05_1337,ProdSingRedo,3.2.4,59.917449364595164,
,,,,32,0,32,0,,,,,,,,,,,,,,,,,,,,,,,,945.3958359898534,None,,,,,,,,,,,,,,,,,victory,new_c,white,32,164,346,942.4459932015743,None,942.4459932015743,None,1,1.3767280068714172,942.4459932015743,None,943.8785467483103,None,944.3788204304874,None,944.3788204304874,None,n,0.9721236173063517,944.3788204304874,None,,,NC8,001,2019_Dec_05_1337,ProdSingRedo,3.2.4,59.917449364595164,
,,,,33,0,33,0,,,,,,,,,,,,,,,,,,,,,,,,953.3315844635945,None,,,,,,,,,,,,,,,,,waste,aloud,white,33,41,350,945.9125057146885,None,945.9125057146885,None,3,5.8457512417808175,945.9125057146885,None,951.7976251863874,None,952.3145754351281,None,952.3145754351281,None,f,0.979567457921803,952.3145754351281,None,,,NC8,001,2019_Dec_05_1337,ProdSingRedo,3.2.4,59.917449364595164,
,,,,34,0,34,0,,,,,,,,,,,,,,,,,,,,,,,,957.6829356132075,None,,,,,,,,,,,,,,,,,mechanical,aloud,white,34,53,185,953.848422751762,None,953.848422751762,None,6,2.213540419237688,953.848422751762,None,956.1029927753843,None,956.6159379363526,None,956.6159379363526,None,r,1.02993770618923,956.6159379363526,None,,,NC8,001,2019_Dec_05_1337,ProdSingRedo,3.2.4,59.917449364595164,
,,,,35,0,35,0,,,,,,,,,,,,,,,,,,,,,,,,962.417727754917,None,,,,,,,,,,,,,,,,,range,new_a,white,35,113,251,958.1997552411631,None,958.1997552411631,None,1,1.6459384651388973,958.1997552411631,None,959.8835706799291,None,960.4004322933033,None,960.4004322933033,None,n,1.981118737719953,960.4004322933033,None,,,NC8,001,2019_Dec_05_1337,ProdSingRedo,3.2.4,59.917449364595164,
,,,,36,0,36,0,,,,,,,,,,,,,,,,,,,,,,,,971.6038754000328,None,,,,,,,,,,,,,,,,,novel,silent,white,36,64,202,962.9350925700273,None,962.9350925700273,None,5,6.9262498405296355,962.9350925700273,None,969.9096995408181,None,970.4200350812171,None,970.4200350812171,None,f,1.1450138550717384,970.4200350812171,None,,,NC8,001,2019_Dec_05_1337,ProdSingRedo,3.2.4,59.917449364595164,
,,,,37,0,37,0,,,,,,,,,,,,,,,,,,,,,,,,977.5890023356769,None,,,,,,,,,,,,,,,,,watch,aloud,white,37,59,351,972.1206838320941,None,972.1206838320941,None,3,3.7404041786212474,972.1206838320941,None,975.9070637959521,None,976.4219642286189,None,976.4219642286189,None,f,1.1266528996638954,976.4219642286189,None,,,NC8,001,2019_Dec_05_1337,ProdSingRedo,3.2.4,59.917449364595164,
,,,,38,0,38,0,,,,,,,,,,,,,,,,,,,,,,,,981.2901564652566,None,,,,,,,,,,,,,,,,,crime,new_a,white,38,100,78,978.1057124908548,None,978.1057124908548,None,1,1.3070980061311275,978.1057124908548,None,979.4561573797837,None,979.9730783945415,None,979.9730783945415,None,n,1.279359397245571,979.9730783945415,None,,,NC8,001,2019_Dec_05_1337,ProdSingRedo,3.2.4,59.917449364595164,
,,,,39,0,39,0,,,,,,,,,,,,,,,,,,,,,,,,984.6745357513428,None,,,,,,,,,,,,,,,,,quarter,new_c,white,39,155,246,981.8069166918285,None,981.8069166918285,None,1,1.36547127738595,981.8069166918285,None,983.209795329487,None,983.7242603588384,None,983.7242603588384,None,n,0.9119592835195363,983.7242603588384,None,,,NC8,001,2019_Dec_05_1337,ProdSingRedo,3.2.4,59.917449364595164,
,,,,40,0,40,0,,,,,,,,,,,,,,,,,,,,,,,,988.3920821917709,None,,,,,,,,,,,,,,,,,column,aloud,white,40,31,57,985.1913059300277,None,985.1913059300277,None,6,1.7409761117305607,985.1913059300277,None,986.9768178863451,None,987.4920728616416,None,987.4920728616416,None,r,0.8797142510302365,987.4920728616416,None,,,NC8,001,2019_Dec_05_1337,ProdSingRedo,3.2.4,59.917449364595164,
,,,,41,0,41,0,,,,,,,,,,,,,,,,,,,,,,,,993.4772237443831,None,,,,,,,,,,,,,,,,,collection,new_c,white,41,156,54,988.9090719381347,None,988.9090719381347,None,3,2.9266805788502097,988.9090719381347,None,991.8765361183323,None,992.3935578977689,None,992.3935578977689,None,f,1.0502072831150144,992.3935578977689,None,,,NC8,001,2019_Dec_05_1337,ProdSingRedo,3.2.4,59.917449364595164,
,,,,42,0,42,0,,,,,,,,,,,,,,,,,,,,,,,,1000.9462037500925,None,,,,,,,,,,,,,,,,,incident,new_c,white,42,169,158,993.9940480375662,None,993.9940480375662,None,3,5.417385963257402,993.9940480375662,None,999.4489458575845,None,999.9625534536317,None,999.9625534536317,None,f,0.9446845036000013,999.9625534536317,None,,,NC8,001,2019_Dec_05_1337,ProdSingRedo,3.2.4,59.917449364595164,
,,,,43,0,43,0,,,,,,,,,,,,,,,,,,,,,,,,1007.2981296321377,None,,,,,,,,,,,,,,,,,drama,new_b,white,43,130,103,1001.4630009860266,None,1001.4630009860266,None,1,1.2601338552776724,1001.4630009860266,None,1002.7633402894717,None,1003.2801708024926,None,1003.2801708024926,None,f,3.9706164998933673,1003.2801708024926,None,,,NC8,001,2019_Dec_05_1337,ProdSingRedo,3.2.4,59.917449364595164,
,,,,44,0,44,0,,,,,,,,,,,,,,,,,,,,,,,,1012.5664213895798,None,,,,,,,,,,,,,,,,,piece,new_b,white,44,149,221,1007.8149477050174,None,1007.8149477050174,None,3,2.1157824352849275,1007.8149477050174,None,1009.9654317800887,None,1010.482449516654,None,1010.482449516654,None,f,2.0480675869621336,1010.482449516654,None,,,NC8,001,2019_Dec_05_1337,ProdSingRedo,3.2.4,59.917449364595164,
,,,,45,0,45,0,,,,,,,,,,,,,,,,,,,,,,,,1016.4508302207105,None,,,,,,,,,,,,,,,,,pancakes,silent,white,45,79,210,1013.083161090035,None,1013.083161090035,None,6,1.8471830964554101,1013.083161090035,None,1014.9837146741338,None,1015.4838232139591,None,1015.4838232139591,None,r,0.9185005957260728,1015.4838232139591,None,,,NC8,001,2019_Dec_05_1337,ProdSingRedo,3.2.4,59.917449364595164,
,,,,46,0,46,0,,,,,,,,,,,,,,,,,,,,,,,,1022.5694962695707,None,,,,,,,,,,,,,,,,,threat,new_b,white,46,136,329,1016.9677786037792,None,1016.9677786037792,None,3,3.9063979398924857,1016.9677786037792,None,1020.921757722972,None,1021.4357553159352,None,1021.4357553159352,None,f,1.094161553075537,1021.4357553159352,None,,,NC8,001,2019_Dec_05_1337,ProdSingRedo,3.2.4,59.917449364595164,
,,,,47,0,47,0,,,,,,,,,,,,,,,,,,,,,,,,1028.525298484601,None,,,,,,,,,,,,,,,,,brilliant,sing,white,47,17,30,1023.0866477370728,None,1023.0866477370728,None,6,3.9310000902041793,1023.0866477370728,None,1027.070750541985,None,1027.5708662348334,None,1027.5708662348334,None,r,0.918619709322229,1027.5708662348334,None,,,NC8,001,2019_Dec_05_1337,ProdSingRedo,3.2.4,59.917449364595164,
,,,,48,0,48,0,,,,,,,,,,,,,,,,,,,,,,,,1032.6559179078322,None,,,,,,,,,,,,,,,,,goose,sing,white,48,21,138,1029.0547426301055,None,1029.0547426301055,None,1,2.0909240192268044,1029.0547426301055,None,1031.190678949235,None,1031.7056182571687,None,1031.7056182571687,None,n,0.9116072289180011,1031.7056182571687,None,,,NC8,001,2019_Dec_05_1337,ProdSingRedo,3.2.4,59.917449364595164,
,,,,49,0,49,0,,,,,,,,,,,,,,,,,,,,,,,,1040.8250720747747,None,,,,,,,,,,,,,,,,,style,new_c,white,49,163,311,1033.1726759574376,None,1033.1726759574376,None,2,6.228178055025637,1033.1726759574376,None,1039.4435589862987,None,1039.9580106425565,None,1039.9580106425565,None,f,0.8187652584165335,1039.9580106425565,None,,,NC8,001,2019_Dec_05_1337,ProdSingRedo,3.2.4,59.917449364595164,
,,,,50,0,50,0,,,,,,,,,,,,,,,,,,,,,,,,1044.6926563021261,None,,,,,,,,,,,,,,,,,chief,sing,white,50,15,48,1041.3417548618745,None,1041.3417548618745,None,6,1.4751496699173003,1041.3417548618745,None,1042.8615856142715,None,1043.3758674634155,None,1043.3758674634155,None,r,1.2964452432934195,1043.3758674634155,None,,,NC8,001,2019_Dec_05_1337,ProdSingRedo,3.2.4,59.917449364595164,
,,,,51,0,51,0,,,,,,,,,,,,,,,,,,,,,,,,1050.4446462504566,None,,,,,,,,,,,,,,,,,split,new_a,white,51,97,299,1045.2096283212304,None,1045.2096283212304,None,1,3.318657340714708,1045.2096283212304,None,1048.594134807121,None,1049.0942965282593,None,1049.0942965282593,None,n,1.306218491634354,1049.0942965282593,None,,,NC8,001,2019_Dec_05_1337,ProdSingRedo,3.2.4,59.917449364595164,
,,,,52,0,52,0,,,,,,,,,,,,,,,,,,,,,,,,1056.5132138670888,None,,,,,,,,,,,,,,,,,dance,new_c,white,52,157,84,1050.9615311890375,None,1050.9615311890375,None,2,3.870324468705803,1050.9615311890375,None,1054.8811538808513,None,1055.396217900794,None,1055.396217900794,None,n,1.0758065066765994,1055.396217900794,None,,,NC8,001,2019_Dec_05_1337,ProdSingRedo,3.2.4,59.917449364595164,
,,,,53,0,53,0,,,,,,,,,,,,,,,,,,,,,,,,1067.3665862209164,None,,,,,,,,,,,,,,,,,entrance,new_a,white,53,92,115,1057.0300543322228,None,1057.0300543322228,None,3,8.769383064471185,1057.0300543322228,None,1065.8355429011863,None,1066.3495538672432,None,1066.3495538672432,None,f,0.9779707721900195,1066.3495538672432,None,,,NC8,001,2019_Dec_05_1337,ProdSingRedo,3.2.4,59.917449364595164,
,,,,54,0,54,0,,,,,,,,,,,,,,,,,,,,,,,,1072.984838947421,None,,,,,,,,,,,,,,,,,meeting,new_a,white,54,93,187,1067.8832428834867,None,1067.8832428834867,None,1,3.31569442152977,1067.8832428834867,None,1071.2375529094134,None,1071.7512422988657,None,1071.7512422988657,None,n,1.1997079686261714,1071.7512422988657,None,,,NC8,001,2019_Dec_05_1337,ProdSingRedo,3.2.4,59.917449364595164,
,,,,55,0,55,0,,,,,,,,,,,,,,,,,,,,,,,,1076.7360893324949,None,,,,,,,,,,,,,,,,,phrase,new_c,white,55,176,220,1073.501614724053,None,1073.501614724053,None,1,1.5052665134426206,1073.501614724053,None,1075.0544552640058,None,1075.5690776605625,None,1075.5690776605625,None,n,1.1257379308808595,1075.5690776605625,None,,,NC8,001,2019_Dec_05_1337,ProdSingRedo,3.2.4,59.917449364595164,
,,,,56,0,56,0,,,,,,,,,,,,,,,,,,,,,,,,1083.1380458481144,None,,,,,,,,,,,,,,,,,payment,new_a,white,56,105,215,1077.2527696313336,None,1077.2527696313336,None,6,4.233591983560473,1077.2527696313336,None,1081.5373516909312,None,1082.0376997024287,None,1082.0376997024287,None,r,1.0567566810641438,1082.0376997024287,None,,,NC8,001,2019_Dec_05_1337,ProdSingRedo,3.2.4,59.917449364595164,
,,,,57,0,57,0,,,,,,,,,,,,,,,,,,,,,,,,1087.289336974267,None,,,,,,,,,,,,,,,,,place,new_b,white,57,126,222,1083.6548729401547,None,1083.6548729401547,None,6,2.215114091290161,1083.6548729401547,None,1085.9074503718875,None,1086.4223993208725,None,1086.4223993208725,None,r,0.8237692860420793,1086.4223993208725,None,,,NC8,001,2019_Dec_05_1337,ProdSingRedo,3.2.4,59.917449364595164,
,,,,58,0,58,0,,,,,,,,,,,,,,,,,,,,,,,,1091.3738801584113,None,,,,,,,,,,,,,,,,,guide,new_c,white,58,153,147,1087.8060088760685,None,1087.8060088760685,None,3,2.0079943148884922,1087.8060088760685,None,1089.858511356404,None,1090.3735878162552,None,1090.3735878162552,None,f,0.9599998134654015,1090.3735878162552,None,,,NC8,001,2019_Dec_05_1337,ProdSingRedo,3.2.4,59.917449364595164,
,,,,59,0,59,0,,,,,,,,,,,,,,,,,,,,,,,,1100.3099884619005,None,,,,,,,,,,,,,,,,,science,aloud,white,59,43,275,1091.890587825561,None,1091.890587825561,None,3,6.946733698016033,1091.890587825561,None,1098.8779601980932,None,1099.3930431890767,None,1099.3930431890767,None,f,0.8840303414035589,1099.3930431890767,None,,,NC8,001,2019_Dec_05_1337,ProdSingRedo,3.2.4,59.917449364595164,
,,,,60,0,60,0,,,,,,,,,,,,,,,,,,,,,,,,1110.3297461287584,None,,,,,,,,,,,,,,,,,write,new_b,white,60,139,358,1100.8266684499104,None,1100.8266684499104,None,1,7.810178173240274,1100.8266684499104,None,1108.6815578730311,None,1109.1960614665877,None,1109.1960614665877,None,n,1.096499357605353,1109.1960614665877,None,,,NC8,001,2019_Dec_05_1337,ProdSingRedo,3.2.4,59.917449364595164,
,,,,61,0,61,0,,,,,,,,,,,,,,,,,,,,,,,,1116.8983638167847,None,,,,,,,,,,,,,,,,,session,sing,white,61,24,281,1110.8464301598724,None,1110.8464301598724,None,3,2.2538886175025254,1110.8464301598724,None,1113.1472281918395,None,1113.6640748770442,None,1113.6640748770442,None,f,3.196099097840488,1113.6640748770442,None,,,NC8,001,2019_Dec_05_1337,ProdSingRedo,3.2.4,59.917449364595164,
,,,,62,0,62,0,,,,,,,,,,,,,,,,,,,,,,,,1123.2002951411996,None,,,,,,,,,,,,,,,,,provision,sing,white,62,22,243,1117.4151741147507,None,1117.4151741147507,None,1,4.324862770270556,1117.4151741147507,None,1121.7998547619209,None,1122.2999570816755,None,1122.2999570816755,None,n,0.8638285628985614,1122.2999570816755,None,,,NC8,001,2019_Dec_05_1337,ProdSingRedo,3.2.4,59.917449364595164,
,,,,63,0,63,0,,,,,,,,,,,,,,,,,,,,,,,,1129.3855617169756,None,,,,,,,,,,,,,,,,,quiet,aloud,white,63,40,249,1123.7170929990243,None,1123.7170929990243,None,6,3.0225647741463035,1123.7170929990243,None,1126.7909038038924,None,1127.3015898440499,None,1127.3015898440499,None,r,2.037728314520791,1127.3015898440499,None,,,NC8,001,2019_Dec_05_1337,ProdSingRedo,3.2.4,59.917449364595164,
,,,,64,0,64,0,,,,,,,,,,,,,,,,,,,,,,,,1134.75387773267,None,,,,,,,,,,,,,,,,,primary,new_a,white,64,112,234,1129.902278403053,None,1129.902278403053,None,1,3.2930671360809356,1129.902278403053,None,1133.2533073544037,None,1133.7536006295122,None,1133.7536006295122,None,n,0.9533823058009148,1133.7536006295122,None,,,NC8,001,2019_Dec_05_1337,ProdSingRedo,3.2.4,59.917449364595164,
,,,,65,0,65,0,,,,,,,,,,,,,,,,,,,,,,,,1140.5722990226932,None,,,,,,,,,,,,,,,,,surprise,silent,white,65,61,317,1135.2705987729132,None,1135.2705987729132,None,1,3.796188044594601,1135.2705987729132,None,1139.10581823159,None,1139.6220429120585,None,1139.6220429120585,None,n,0.9088299782015383,1139.6220429120585,None,,,NC8,001,2019_Dec_05_1337,ProdSingRedo,3.2.4,59.917449364595164,
,,,,66,0,66,0,,,,,,,,,,,,,,,,,,,,,,,,1146.8742207060568,None,,,,,,,,,,,,,,,,,principal,new_c,white,66,171,236,1141.0890449429862,None,1141.0890449429862,None,1,4.68135758722201,1141.0890449429862,None,1145.80748520419,None,1146.324100814527,None,1146.324100814527,None,n,0.5022239778190851,1146.324100814527,None,,,NC8,001,2019_Dec_05_1337,ProdSingRedo,3.2.4,59.917449364595164,
,,,,67,0,67,0,,,,,,,,,,,,,,,,,,,,,,,,1150.308646797901,None,,,,,,,,,,,,,,,,,edition,aloud,white,67,44,107,1147.3910005255602,None,1147.3910005255602,None,1,1.8992215611506253,1147.3910005255602,None,1149.3249818840995,None,1149.8417203405406,None,1149.8417203405406,None,n,0.4246136574074626,1149.8417203405406,None,,,NC8,001,2019_Dec_05_1337,ProdSingRedo,3.2.4,59.917449364595164,
,,,,68,0,68,0,,,,,,,,,,,,,,,,,,,,,,,,1154.2098342047539,None,,,,,,,,,,,,,,,,,candidate,silent,white,68,85,39,1150.8255059230141,None,1150.8255059230141,None,1,2.3444304147269577,1150.8255059230141,None,1153.209360859124,None,1153.7263509165496,None,1153.7263509165496,None,n,0.4354496004525572,1153.7263509165496,None,,,NC8,001,2019_Dec_05_1337,ProdSingRedo,3.2.4,59.917449364595164,
,,,,69,0,69,0,,,,,,,,,,,,,,,,,,,,,,,,1158.3944682015572,None,,,,,,,,,,,,,,,,,season,silent,white,69,88,277,1154.7098904962186,None,1154.7098904962186,None,1,2.8919851589016616,1154.7098904962186,None,1157.6447883786168,None,1158.1610696613789,None,1158.1610696613789,None,n,0.18455095938406885,1158.1610696613789,None,,,NC8,001,2019_Dec_05_1337,ProdSingRedo,3.2.4,59.917449364595164,
,,,,70,0,70,0,,,,,,,,,,,,,,,,,,,,,,,,1161.2119888288435,None,,,,,,,,,,,,,,,,,second,silent,white,70,78,278,1158.911266059382,None,1158.911266059382,None,1,1.5302200962323695,1158.911266059382,None,1160.4810705322307,None,1160.9835974262096,None,1160.9835974262096,None,n,0.1938993784133345,1160.9835974262096,None,,,NC8,001,2019_Dec_05_1337,ProdSingRedo,3.2.4,59.917449364595164,
,,,,71,0,71,0,,,,,,,,,,,,,,,,,,,,,,,,1165.0462252092548,None,,,,,,,,,,,,,,,,,population,new_c,white,71,173,227,1161.7286961849313,None,1161.7286961849313,None,1,2.5685809897258878,1161.7286961849313,None,1164.332478595432,None,1164.8463138449006,None,1164.8463138449006,None,n,0.17114364891313016,1164.8463138449006,None,,,NC8,001,2019_Dec_05_1337,ProdSingRedo,3.2.4,59.917449364595164,
,,,,72,0,72,0,,,,,,,,,,,,,,,,,,,,,,,,1170.4648287466262,None,,,,,,,,,,,,,,,,,citizen,aloud,white,72,55,50,1165.5632239745464,None,1165.5632239745464,None,6,3.125943814404309,1165.5632239745464,None,1168.7475609641988,None,1169.247611968778,None,1169.247611968778,None,r,1.169217300368473,1169.247611968778,None,,,NC8,001,2019_Dec_05_1337,ProdSingRedo,3.2.4,59.917449364595164,
,,,,73,0,73,0,,,,,,,,,,,,,,,,,,,,,,,,1173.715852721827,None,,,,,,,,,,,,,,,,,audience,silent,white,73,75,14,1170.9816489967052,None,1170.9816489967052,None,6,1.6110803910996765,1170.9816489967052,None,1172.6351504162885,None,1173.1488491359632,None,1173.1488491359632,None,r,0.5317480508238077,1173.1488491359632,None,,,NC8,001,2019_Dec_05_1337,ProdSingRedo,3.2.4,59.917449364595164,
,,,,74,0,74,0,,,,,,,,,,,,,,,,,,,,,,,,1178.2505453426857,None,,,,,,,,,,,,,,,,,trail,new_b,white,74,138,336,1174.2325062744785,None,1174.2325062744785,None,3,2.640305279986933,1174.2325062744785,None,1176.9191166912206,None,1177.4216317671817,None,1177.4216317671817,None,f,0.7948964517563581,1177.4216317671817,None,,,NC8,001,2019_Dec_05_1337,ProdSingRedo,3.2.4,59.917449364595164,
,,,,75,0,75,0,,,,,,,,,,,,,,,,,,,,,,,,1181.768290202599,None,,,,,,,,,,,,,,,,,ground,sing,white,75,20,142,1178.7672810000367,None,1178.7672810000367,None,1,1.680992781650275,1178.7672810000367,None,1180.4881259312388,None,1181.0013755634427,None,1181.0013755634427,None,n,0.7188601142261177,1181.0013755634427,None,,,NC8,001,2019_Dec_05_1337,ProdSingRedo,3.2.4,59.917449364595164,
,,,,76,0,76,0,,,,,,,,,,,,,,,,,,,,,,,,1184.785880805226,None,,,,,,,,,,,,,,,,,solution,sing,white,76,5,294,1182.2855110235978,None,1182.2855110235978,None,6,1.5145651721395552,1182.2855110235978,None,1183.8355422792956,None,1184.3523749692831,None,1184.3523749692831,None,r,0.39162812824361026,1184.3523749692831,None,,,NC8,001,2019_Dec_05_1337,ProdSingRedo,3.2.4,59.917449364595164,
,,,,77,0,77,0,,,,,,,,,,,,,,,,,,,,,,,,1190.5376430999022,None,,,,,,,,,,,,,,,,,narrow,new_b,white,77,135,197,1185.3025716783013,None,1185.3025716783013,None,3,3.31323377112858,1185.3025716783013,None,1188.6571874194779,None,1189.1705511894543,None,1189.1705511894543,None,f,1.3252739154268056,1189.1705511894543,None,,,NC8,001,2019_Dec_05_1337,ProdSingRedo,3.2.4,59.917449364595164,
,,,,78,0,78,0,,,,,,,,,,,,,,,,,,,,,,,,1194.0720362255815,None,,,,,,,,,,,,,,,,,region,aloud,white,78,39,256,1191.0543554322794,None,1191.0543554322794,None,6,1.3931632358580828,1191.0543554322794,None,1192.4908655507024,None,1193.0050444579683,None,1193.0050444579683,None,r,1.026409073965624,1193.0050444579683,None,,,NC8,001,2019_Dec_05_1337,ProdSingRedo,3.2.4,59.917449364595164,
,,,,79,0,79,0,,,,,,,,,,,,,,,,,,,,,,,,1197.4564015164506,None,,,,,,,,,,,,,,,,,report,new_a,white,79,94,259,1194.5888987719081,None,1194.5888987719081,None,1,1.466503183124587,1194.5888987719081,None,1196.091729826061,None,1196.606170908315,None,1196.606170908315,None,n,0.8091188992839307,1196.606170908315,None,,,NC8,001,2019_Dec_05_1337,ProdSingRedo,3.2.4,59.917449364595164,
,,,,80,0,80,0,,,,,,,,,,,,,,,,,,,,,,,,1202.9747920173686,None,,,,,,,,,,,,,,,,,discussion,new_b,white,80,128,96,1197.973260019673,None,1197.973260019673,None,1,3.1857557822950184,1197.973260019673,None,1201.2111752468627,None,1201.7244006209075,None,1201.7244006209075,None,n,1.2105006827041507,1201.7244006209075,None,,,NC8,001,2019_Dec_05_1337,ProdSingRedo,3.2.4,59.917449364595164,
,,,,81,0,81,0,,,,,,,,,,,,,,,,,,,,,,,,1207.5762027238961,None,,,,,,,,,,,,,,,,,pressure,new_b,white,81,125,232,1203.4916128893383,None,1203.4916128893383,None,6,2.3394425592850894,1203.4916128893383,None,1205.8787834211253,None,1206.3924989348743,None,1206.3924989348743,None,r,1.150282856542617,1206.3924989348743,None,,,NC8,001,2019_Dec_05_1337,ProdSingRedo,3.2.4,59.917449364595164,
,,,,82,0,82,0,,,,,,,,,,,,,,,,,,,,,,,,1212.277613430284,None,,,,,,,,,,,,,,,,,dream,sing,white,82,14,104,1208.0928889317438,None,1208.0928889317438,None,1,1.497587244026363,1208.0928889317438,None,1209.628476928454,None,1210.1436585071497,None,1210.1436585071497,None,n,2.094637697795406,1210.1436585071497,None,,,NC8,001,2019_Dec_05_1337,ProdSingRedo,3.2.4,59.917449364595164,
,,,,83,0,83,0,,,,,,,,,,,,,,,,,,,,,,,,1216.7957025698852,None,,,,,,,,,,,,,,,,,profession,new_a,white,83,117,241,1212.794479397824,None,1212.794479397824,None,6,2.4597519445233047,1212.794479397824,None,1215.2984297492076,None,1215.8119431114756,None,1215.8119431114756,None,r,0.9381005843169987,1215.8119431114756,None,,,NC8,001,2019_Dec_05_1337,ProdSingRedo,3.2.4,59.917449364595164,
,,,,84,0,84,0,,,,,,,,,,,,,,,,,,,,,,,,1220.1800532436464,None,,,,,,,,,,,,,,,,,murder,new_c,white,84,168,195,1217.3123875339516,None,1217.3123875339516,None,1,1.2615818821359426,1217.3123875339516,None,1218.6147545725107,None,1219.1297573249321,None,1219.1297573249321,None,n,1.0040013559628278,1219.1297573249321,None,,,NC8,001,2019_Dec_05_1337,ProdSingRedo,3.2.4,59.917449364595164,
,,,,85,0,85,0,,,,,,,,,,,,,,,,,,,,,,,,1226.6153759551235,None,,,,,,,,,,,,,,,,,theme,new_b,white,85,143,326,1220.6967347864993,None,1220.6967347864993,None,1,1.501148531679064,1220.6967347864993,None,1222.2305581560358,None,1222.7475124478806,None,1222.7475124478806,None,f,3.834014946827665,1222.7475124478806,None,,,NC8,001,2019_Dec_05_1337,ProdSingRedo,3.2.4,59.917449364595164,
,,,,86,0,86,0,,,,,,,,,,,,,,,,,,,,,,,,1234.5011292495765,None,,,,,,,,,,,,,,,,,store,new_c,white,86,175,305,1227.1322133103386,None,1227.1322133103386,None,3,6.288735184585676,1227.1322133103386,None,1233.4692655059043,None,1233.9843006024603,None,1233.9843006024603,None,f,0.46866807038895786,1233.9843006024603,None,,,NC8,001,2019_Dec_05_1337,ProdSingRedo,3.2.4,59.917449364595164,
,,,,87,0,87,0,,,,,,,,,,,,,,,,,,,,,,,,1237.8354869207833,None,,,,,,,,,,,,,,,,,committee,aloud,white,87,57,62,1235.0179333274718,None,1235.0179333274718,None,6,1.4348562080413103,1235.0179333274718,None,1236.5053542160895,None,1237.0184489693493,None,1237.0184489693493,None,r,0.7702467180788517,1237.0184489693493,None,,,NC8,001,2019_Dec_05_1337,ProdSingRedo,3.2.4,59.917449364595164,
,,,,88,0,88,0,,,,,,,,,,,,,,,,,,,,,,,,1242.1867777360603,None,,,,,,,,,,,,,,,,,society,new_c,white,88,165,293,1238.3525709009264,None,1238.3525709009264,None,6,1.2922712811268866,1238.3525709009264,None,1239.6898345779628,None,1240.202706653392,None,1240.202706653392,None,r,1.9458149971906096,1240.202706653392,None,,,NC8,001,2019_Dec_05_1337,ProdSingRedo,3.2.4,59.917449364595164,
,,,,89,0,89,0,,,,,,,,,,,,,,,,,,,,,,,,1247.4050307737198,None,,,,,,,,,,,,,,,,,court,sing,white,89,3,75,1242.7036437033676,None,1242.7036437033676,None,6,3.6285786260850728,1242.7036437033676,None,1246.3749888816383,None,1246.8882462889887,None,1246.8882462889887,None,r,0.4838449840899557,1246.8882462889887,None,,,NC8,001,2019_Dec_05_1337,ProdSingRedo,3.2.4,59.917449364595164,
,,,,90,0,90,0,,,,,,,,,,,,,,,,,,,,,,,,1251.1395731805824,None,,,,,,,,,,,,,,,,,strain,new_c,white,90,167,308,1247.9219014060218,None,1247.9219014060218,None,1,1.8904503625817597,1247.9219014060218,None,1249.8573435426224,None,1250.3726722253487,None,1250.3726722253487,None,n,0.7273448798805475,1250.3726722253487,None,,,NC8,001,2019_Dec_05_1337,ProdSingRedo,3.2.4,59.917449364595164,
,,,,91,0,91,0,,,,,,,,,,,,,,,,,,,,,,,,1254.7073175739497,None,,,,,,,,,,,,,,,,,crisis,sing,white,91,26,79,1251.6562519243453,None,1251.6562519243453,None,3,1.739896933780983,1251.6562519243453,None,1253.4437558508944,None,1253.957078879699,None,1253.957078879699,None,f,0.7106630259659141,1253.957078879699,None,,,NC8,001,2019_Dec_05_1337,ProdSingRedo,3.2.4,59.917449364595164,
,,,,92,0,92,0,,,,,,,,,,,,,,,,,,,,,,,,1259.4754588061478,None,,,,,,,,,,,,,,,,,suspect,sing,white,92,11,318,1255.223990097642,None,1255.223990097642,None,3,2.555490279570222,1255.223990097642,None,1257.827875138959,None,1258.3417477088515,None,1258.3417477088515,None,f,1.0936997148673981,1258.3417477088515,None,,,NC8,001,2019_Dec_05_1337,ProdSingRedo,3.2.4,59.917449364595164,
,,,,93,0,93,0,,,,,,,,,,,,,,,,,,,,,,,,1268.2281083907,None,,,,,,,,,,,,,,,,,sunset,new_c,white,93,170,315,1259.9921363061294,None,1259.9921363061294,None,6,5.162982947891578,1259.9921363061294,None,1265.195503217401,None,1265.710667379899,None,1265.710667379899,None,f,2.4764213585294783,1265.710667379899,None,,,NC8,001,2019_Dec_05_1337,ProdSingRedo,3.2.4,59.917449364595164,
,,,,94,0,94,0,,,,,,,,,,,,,,,,,,,,,,,,1271.8458924368024,None,,,,,,,,,,,,,,,,,month,new_b,white,94,132,193,1268.7449541427195,None,1268.7449541427195,None,1,1.9618082919623703,1268.7449541427195,None,1270.7475942415185,None,1271.2624051054008,None,1271.2624051054008,None,n,0.548300527734682,1271.2624051054008,None,,,NC8,001,2019_Dec_05_1337,ProdSingRedo,3.2.4,59.917449364595164,
,,,,95,0,95,0,,,,,,,,,,,,,,,,,,,,,,,,1279.2148214380722,None,,,,,,,,,,,,,,,,,sound,new_b,white,95,123,295,1272.3626016590279,None,1272.3626016590279,None,6,5.103688487783074,1272.3626016590279,None,1277.515072105918,None,1278.0310672668274,None,1278.0310672668274,None,r,1.1394665066618472,1278.0310672668274,None,,,NC8,001,2019_Dec_05_1337,ProdSingRedo,3.2.4,59.917449364595164,
,,,,96,0,96,0,,,,,,,,,,,,,,,,,,,,,,,,1284.4831085305195,None,,,,,,,,,,,,,,,,,guard,sing,white,96,23,145,1279.7314880529884,None,1279.7314880529884,None,1,3.3427186580374837,1279.7314880529884,None,1283.1186193984468,None,1283.632848066045,None,1283.632848066045,None,n,0.8010788669344038,1283.632848066045,None,,,NC8,001,2019_Dec_05_1337,ProdSingRedo,3.2.4,59.917449364595164,
,,,,97,0,97,0,,,,,,,,,,,,,,,,,,,,,,,,1288.317609885009,None,,,,,,,,,,,,,,,,,center,new_c,white,97,152,44,1284.9999287805986,None,1284.9999287805986,None,3,1.753760795807466,1284.9999287805986,None,1286.8018395788968,None,1287.3173253177665,None,1287.3173253177665,None,f,0.9642602342646569,1287.3173253177665,None,,,NC8,001,2019_Dec_05_1337,ProdSingRedo,3.2.4,59.917449364595164,
,,,,98,0,98,0,,,,,,,,,,,,,,,,,,,,,,,,1295.9866265889723,None,,,,,,,,,,,,,,,,,individual,new_c,white,98,178,160,1288.8361027054489,None,1288.8361027054489,None,1,5.613205158850178,1288.8361027054489,None,1294.5027178493328,None,1295.0028593554161,None,1295.0028593554161,None,n,0.9504137884359807,1295.0028593554161,None,,,NC8,001,2019_Dec_05_1337,ProdSingRedo,3.2.4,59.917449364595164,
,,,,99,0,99,0,,,,,,,,,,,,,,,,,,,,,,,,1301.3382812768687,None,,,,,,,,,,,,,,,,,problem,sing,white,99,18,238,1296.5033152848482,None,1296.5033152848482,None,3,2.6740166884846985,1296.5033152848482,None,1299.237550421385,None,1299.737665181281,None,1299.737665181281,None,f,1.55118662933819,1299.737665181281,None,,,NC8,001,2019_Dec_05_1337,ProdSingRedo,3.2.4,59.917449364595164,
,,,,100,0,100,0,,,,,,,,,,,,,,,,,,,,,,,,1304.6226020944305,None,,,,,,,,,,,,,,,,,engineer,silent,white,100,86,114,1301.8551074357238,None,1301.8551074357238,None,6,1.3695656228810549,1301.8551074357238,None,1303.2750660104211,None,1303.7890269048512,None,1303.7890269048512,None,r,0.7956649386323988,1303.7890269048512,None,,,NC8,001,2019_Dec_05_1337,ProdSingRedo,3.2.4,59.917449364595164,
,,,,101,0,101,0,,,,,,,,,,,,,,,,,,,,,,,,1307.7068961656187,None,,,,,,,,,,,,,,,,,enemy,sing,white,101,1,113,1305.1392923453823,None,1305.1392923453823,None,6,1.5415489783044904,1305.1392923453823,None,1306.7397902600933,None,1307.2399721965194,None,1307.2399721965194,None,f,0.42475858447141945,1307.2399721965194,None,,,NC8,001,2019_Dec_05_1337,ProdSingRedo,3.2.4,59.917449364595164,
,,,,102,0,102,0,,,,,,,,,,,,,,,,,,,,,,,,1310.7244292329997,None,,,,,,,,,,,,,,,,,generation,silent,white,102,65,136,1308.2237304109149,None,1308.2237304109149,None,6,1.3286501565016806,1308.2237304109149,None,1309.5906378969084,None,1310.1076155141927,None,1310.1076155141927,None,r,0.5806991953868419,1310.1076155141927,None,,,NC8,001,2019_Dec_05_1337,ProdSingRedo,3.2.4,59.917449364595164,
,,,,103,0,103,0,,,,,,,,,,,,,,,,,,,,,,,,1313.9087970119435,None,,,,,,,,,,,,,,,,,master,new_a,white,103,101,180,1311.2412165168207,None,1311.2412165168207,None,1,1.5830705880653113,1311.2412165168207,None,1312.8583906874992,None,1313.3752743818332,None,1313.3752743818332,None,n,0.49684892455115914,1313.3752743818332,None,,,NC8,001,2019_Dec_05_1337,ProdSingRedo,3.2.4,59.917449364595164,
,,,,104,0,104,0,,,,,,,,,,,,,,,,,,,,,,,,1321.0109718511812,None,,,,,,,,,,,,,,,,,welcome,aloud,white,104,33,354,1314.425605443772,None,1314.425605443772,None,3,5.278166392352432,1314.425605443772,None,1319.7475311080925,None,1320.2607577261515,None,1320.2607577261515,None,f,0.714929977664724,1320.2607577261515,None,,,NC8,001,2019_Dec_05_1337,ProdSingRedo,3.2.4,59.917449364595164,
,,,,105,0,105,0,,,,,,,,,,,,,,,,,,,,,,,,1329.663641961757,None,,,,,,,,,,,,,,,,,point,new_c,white,105,177,226,1321.527693513548,None,1321.527693513548,None,2,6.615584637736902,1321.527693513548,None,1328.181971194921,None,1328.6966660551261,None,1328.6966660551261,None,f,0.9184486581943929,1328.6966660551261,None,,,NC8,001,2019_Dec_05_1337,ProdSingRedo,3.2.4,59.917449364595164,
,,,,106,0,106,0,,,,,,,,,,,,,,,,,,,,,,,,1334.1983187214937,None,,,,,,,,,,,,,,,,,disease,new_a,white,106,103,97,1330.18043950852,None,1330.18043950852,None,3,2.0908167231827974,1330.18043950852,None,1332.3175479955971,None,1332.831279370468,None,1332.831279370468,None,f,1.327538012061268,1332.831279370468,None,,,NC8,001,2019_Dec_05_1337,ProdSingRedo,3.2.4,59.917449364595164,
,,,,107,0,107,0,,,,,,,,,,,,,,,,,,,,,,,,1338.249592742417,None,,,,,,,,,,,,,,,,,error,new_a,white,107,115,117,1334.715115646366,None,1334.715115646366,None,6,2.0276017675641924,1334.715115646366,None,1336.7841674934607,None,1337.299285005778,None,1337.299285005778,None,r,0.9075477155856788,1337.299285005778,None,,,NC8,001,2019_Dec_05_1337,ProdSingRedo,3.2.4,59.917449364595164,
,,,,108,0,108,0,,,,,,,,,,,,,,,,,,,,,,,,1342.0173921834212,None,,,,,,,,,,,,,,,,,shear,new_a,white,108,106,283,1338.766256869305,None,1338.766256869305,None,1,1.8565610605292022,1338.766256869305,None,1340.6668723430485,None,1341.183786826674,None,1341.183786826674,None,n,0.7908269863110036,1341.183786826674,None,,,NC8,001,2019_Dec_05_1337,ProdSingRedo,3.2.4,59.917449364595164,
,,,,109,0,109,0,,,,,,,,,,,,,,,,,,,,,,,,1351.153562065214,None,,,,,,,,,,,,,,,,,foundation,silent,white,109,80,132,1342.5342211413663,None,1342.5342211413663,None,1,7.024098948575556,1342.5342211413663,None,1349.603657076368,None,1350.119905082276,None,1350.119905082276,None,n,0.9902171106077731,1350.119905082276,None,,,NC8,001,2019_Dec_05_1337,ProdSingRedo,3.2.4,59.917449364595164,
,,,,110,0,110,0,,,,,,,,,,,,,,,,,,,,,,,,1356.6385027104989,None,,,,,,,,,,,,,,,,,history,aloud,white,110,51,153,1351.670250450261,None,1351.670250450261,None,1,3.6474350083153695,1351.670250450261,None,1355.3714462541975,None,1355.8715205837507,None,1355.8715205837507,None,n,0.7263188830111176,1355.8715205837507,None,,,NC8,001,2019_Dec_05_1337,ProdSingRedo,3.2.4,59.917449364595164,
,,,,111,0,111,0,,,,,,,,,,,,,,,,,,,,,,,,1360.3563750812318,None,,,,,,,,,,,,,,,,,fight,new_a,white,111,108,127,1357.1551811434329,None,1357.1551811434329,None,1,2.114179218187928,1357.1551811434329,None,1359.3082378297113,None,1359.8106428107712,None,1359.8106428107712,None,n,0.5065182978287339,1359.8106428107712,None,,,NC8,001,2019_Dec_05_1337,ProdSingRedo,3.2.4,59.917449364595164,
,,,,112,0,112,0,,,,,,,,,,,,,,,,,,,,,,,,1368.9923571178224,None,,,,,,,,,,,,,,,,,employment,aloud,white,112,48,111,1360.8731860013213,None,1360.8731860013213,None,3,7.0276306909509,1360.8731860013213,None,1367.9585558297113,None,1368.4588556359522,None,1368.4588556359522,None,f,0.49782920395955443,1368.4588556359522,None,,,NC8,001,2019_Dec_05_1337,ProdSingRedo,3.2.4,59.917449364595164,
,,,,113,0,113,0,,,,,,,,,,,,,,,,,,,,,,,,1373.2102963542566,None,,,,,,,,,,,,,,,,,sight,new_b,white,113,120,286,1369.5091319615021,None,1369.5091319615021,None,1,2.3674620031379163,1369.5091319615021,None,1371.912098923698,None,1372.4267275403254,None,1372.4267275403254,None,n,0.7376875733025372,1372.4267275403254,None,,,NC8,001,2019_Dec_05_1337,ProdSingRedo,3.2.4,59.917449364595164,
,,,,114,0,114,0,,,,,,,,,,,,,,,,,,,,,,,,1378.7786683503073,None,,,,,,,,,,,,,,,,,suggestion,new_c,white,114,166,314,1373.7271243792493,None,1373.7271243792493,None,3,3.309281864669174,1373.7271243792493,None,1377.08056546445,None,1377.5949088919442,None,1377.5949088919442,None,f,1.137192768510431,1377.5949088919442,None,,,NC8,001,2019_Dec_05_1337,ProdSingRedo,3.2.4,59.917449364595164,
,,,,115,0,115,0,,,,,,,,,,,,,,,,,,,,,,,,1382.2797596575692,None,,,,,,,,,,,,,,,,,spoke,new_a,white,115,96,300,1379.2961678293068,None,1379.2961678293068,None,1,2.0037385588511825,1379.2961678293068,None,1381.346944246674,None,1381.8629748616368,None,1381.8629748616368,None,n,0.3809753656387329,1381.8629748616368,None,,,NC8,001,2019_Dec_05_1337,ProdSingRedo,3.2.4,59.917449364595164,
,,,,116,0,116,0,,,,,,,,,,,,,,,,,,,,,,,,1390.1321287176106,None,,,,,,,,,,,,,,,,,election,aloud,white,116,35,109,1382.796577730449,None,1382.796577730449,None,1,5.702973493374884,1382.796577730449,None,1388.548219667282,None,1389.06515343301,None,1389.06515343301,None,n,1.0263602463528514,1389.06515343301,None,,,NC8,001,2019_Dec_05_1337,ProdSingRedo,3.2.4,59.917449364595164,
,,,,117,0,117,0,,,,,,,,,,,,,,,,,,,,,,,,1395.7838941223454,None,,,,,,,,,,,,,,,,,general,new_c,white,117,159,135,1390.6490037040785,None,1390.6490037040785,None,3,3.674421924399212,1390.6490037040785,None,1394.3700423897244,None,1394.883617952466,None,1394.883617952466,None,f,0.8635172499343753,1394.883617952466,None,,,NC8,001,2019_Dec_05_1337,ProdSingRedo,3.2.4,59.917449364595164,
,,,,118,0,118,0,,,,,,,,,,,,,,,,,,,,,,,,1399.518382103648,None,,,,,,,,,,,,,,,,,partner,new_c,white,118,160,211,1396.3006932241842,None,1396.3006932241842,None,6,1.7343035568483174,1396.3006932241842,None,1398.0711094387807,None,1398.584767417051,None,1398.584767417051,None,r,0.8981150148902088,1398.584767417051,None,,,NC8,001,2019_Dec_05_1337,ProdSingRedo,3.2.4,59.917449364595164,
,,,,119,0,119,0,,,,,,,,,,,,,,,,,,,,,,,,1404.2198198675178,None,,,,,,,,,,,,,,,,,tragedy,silent,white,119,87,335,1400.0358395974617,None,1400.0358395974617,None,1,3.366888514952734,1400.0358395974617,None,1403.4426346872933,None,1403.952920156531,None,1403.952920156531,None,n,0.21762325800955296,1403.952920156531,None,,,NC8,001,2019_Dec_05_1337,ProdSingRedo,3.2.4,59.917449364595164,
,,,,120,0,120,0,,,,,,,,,,,,,,,,,,,,,,,,1407.4374801348895,None,,,,,,,,,,,,,,,,,marriage,aloud,white,120,42,179,1404.736520692706,None,1404.736520692706,None,6,1.2659834981895983,1404.736520692706,None,1406.0200786215719,None,1406.5370733437594,None,1406.5370733437594,None,f,0.865373000735417,1406.5370733437594,None,,,NC8,001,2019_Dec_05_1337,ProdSingRedo,3.2.4,59.917449364595164,
,,,,121,0,121,0,,,,,,,,,,,,,,,,,,,,,,,,1410.4550390152726,None,,,,,,,,,,,,,,,,,salary,sing,white,121,10,271,1407.9541986871045,None,1407.9541986871045,None,6,1.6242911480367184,1407.9541986871045,None,1409.6264037869405,None,1410.1381609188393,None,1410.1381609188393,None,r,0.28007470280863345,1410.1381609188393,None,,,NC8,001,2019_Dec_05_1337,ProdSingRedo,3.2.4,59.917449364595164,
,,,,122,0,122,0,,,,,,,,,,,,,,,,,,,,,,,,1414.4229283358436,None,,,,,,,,,,,,,,,,,right,silent,white,122,73,265,1410.9717525914311,None,1410.9717525914311,None,6,2.486214510630816,1410.9717525914311,None,1413.5074525489472,None,1414.0228225949686,None,1414.0228225949686,None,r,0.36317079328000546,1414.0228225949686,None,,,NC8,001,2019_Dec_05_1337,ProdSingRedo,3.2.4,59.917449364595164,
,,,,123,0,123,0,,,,,,,,,,,,,,,,,,,,,,,,1417.2071191542782,None,,,,,,,,,,,,,,,,,appearance,sing,white,123,27,10,1414.9396223188378,None,1414.9396223188378,None,6,1.2782646692357957,1414.9396223188378,None,1416.2582740616053,None,1416.7735520510469,None,1416.7735520510469,None,r,0.3881974616087973,1416.7735520510469,None,,,NC8,001,2019_Dec_05_1337,ProdSingRedo,3.2.4,59.917449364595164,
,,,,124,0,124,0,,,,,,,,,,,,,,,,,,,,,,,,1421.2249731761403,None,,,,,,,,,,,,,,,,,school,aloud,white,124,49,274,1417.723767731106,None,1417.723767731106,None,3,2.526033072033897,1417.723767731106,None,1420.2948914756998,None,1420.8082521359902,None,1420.8082521359902,None,f,0.3692390706855804,1420.8082521359902,None,,,NC8,001,2019_Dec_05_1337,ProdSingRedo,3.2.4,59.917449364595164,
,,,,125,0,125,0,,,,,,,,,,,,,,,,,,,,,,,,1424.5260262300726,None,,,,,,,,,,,,,,,,,force,silent,white,125,76,131,1421.7417508186772,None,1421.7417508186772,None,6,1.3956714696250856,1421.7417508186772,None,1423.1778637871612,None,1423.6923179314472,None,1423.6923179314472,None,r,0.7894103706348687,1423.6923179314472,None,,,NC8,001,2019_Dec_05_1337,ProdSingRedo,3.2.4,59.917449364595164,
,,,,126,0,126,0,,,,,,,,,,,,,,,,,,,,,,,,1428.6606470092665,None,,,,,,,,,,,,,,,,,interview,new_c,white,126,161,165,1425.0441688618157,None,1425.0441688618157,None,6,1.4213310277555138,1425.0441688618157,None,1426.5265636420809,None,1427.0266802678816,None,1427.0266802678816,None,r,1.5984387684147805,1427.0266802678816,None,,,NC8,001,2019_Dec_05_1337,ProdSingRedo,3.2.4,59.917449364595164,
,,,,127,0,127,0,,,,,,,,,,,,,,,,,,,,,,,,1431.8116202910896,None,,,,,,,,,,,,,,,,,private,silent,white,127,72,237,1429.1785890446045,None,1429.1785890446045,None,6,1.2387711054179817,1429.1785890446045,None,1430.4646272170357,None,1430.978004049277,None,1430.978004049277,None,r,0.7910975583363324,1430.978004049277,None,,,NC8,001,2019_Dec_05_1337,ProdSingRedo,3.2.4,59.917449364595164,
,,,,128,0,128,0,,,,,,,,,,,,,,,,,,,,,,,,1436.329674909357,None,,,,,,,,,,,,,,,,,character,silent,white,128,83,46,1432.3284091297537,None,1432.3284091297537,None,3,3.00037164776586,1432.3284091297537,None,1435.3651559210848,None,1435.8795254726429,None,1435.8795254726429,None,f,0.4171474245376885,1435.8795254726429,None,,,NC8,001,2019_Dec_05_1337,ProdSingRedo,3.2.4,59.917449364595164,
,,,,129,0,129,0,,,,,,,,,,,,,,,,,,,,,,,,1440.5642792056315,None,,,,,,,,,,,,,,,,,drink,sing,white,129,19,105,1436.8464957813267,None,1436.8464957813267,None,6,2.738274745643139,1436.8464957813267,None,1439.6327354833484,None,1440.1475090268068,None,1440.1475090268068,None,f,0.3733191101346165,1440.1475090268068,None,,,NC8,001,2019_Dec_05_1337,ProdSingRedo,3.2.4,59.917449364595164,
,,,,130,0,130,0,,,,,,,,,,,,,,,,,,,,,,,,1445.3491004258394,None,,,,,,,,,,,,,,,,,majority,new_c,white,130,172,176,1441.0836981909815,None,1441.0836981909815,None,3,3.356633835239336,1441.0836981909815,None,1444.4986975223292,None,1444.9988318753894,None,1444.9988318753894,None,f,0.3053747422527522,1444.9988318753894,None,,,NC8,001,2019_Dec_05_1337,ProdSingRedo,3.2.4,59.917449364595164,
,,,,131,0,131,0,,,,,,,,,,,,,,,,,,,,,,,,1452.2678607082926,None,,,,,,,,,,,,,,,,,defeat,new_b,white,131,121,88,1445.8657511796337,None,1445.8657511796337,None,4,3.726298978785053,1445.8657511796337,None,1449.6369013595395,None,1450.1505577827338,None,1450.1505577827338,None,f,2.073405568720773,1450.1505577827338,None,,,NC8,001,2019_Dec_05_1337,ProdSingRedo,3.2.4,59.917449364595164,
,,,,132,0,132,0,,,,,,,,,,,,,,,,,,,,,,,,1459.0699469118845,None,,,,,,,,,,,,,,,,,length,new_a,white,132,107,169,1452.7847002404742,None,1452.7847002404742,None,3,4.886568431509659,1452.7847002404742,None,1457.7194360906724,None,1458.236344665289,None,1458.236344665289,None,f,0.794898317893967,1458.236344665289,None,,,NC8,001,2019_Dec_05_1337,ProdSingRedo,3.2.4,59.917449364595164,
,,,,133,0,133,0,,,,,,,,,,,,,,,,,,,,,,,,1462.2208912705537,None,,,,,,,,,,,,,,,,,bitter,new_c,white,133,154,23,1459.5867528559174,None,1459.5867528559174,None,1,1.5566941695287824,1459.5867528559174,None,1461.2038402569015,None,1461.7039068113081,None,1461.7039068113081,None,n,0.47103853011503816,1461.7039068113081,None,,,NC8,001,2019_Dec_05_1337,ProdSingRedo,3.2.4,59.917449364595164,
,,,,134,0,134,0,,,,,,,,,,,,,,,,,,,,,,,,1466.2054745741189,None,,,,,,,,,,,,,,,,,management,new_a,white,134,91,177,1462.7377295587212,None,1462.7377295587212,None,6,1.341382903046906,1462.7377295587212,None,1464.1256884813774,None,1464.638333214214,None,1464.638333214214,None,r,1.5284800382796675,1464.638333214214,None,,,NC8,001,2019_Dec_05_1337,ProdSingRedo,3.2.4,59.917449364595164,
,,,,135,0,135,0,,,,,,,,,,,,,,,,,,,,,,,,1471.6237935442477,None,,,,,,,,,,,,,,,,,community,aloud,white,135,37,63,1466.722270565806,None,1466.722270565806,None,6,3.3162831489462405,1466.722270565806,None,1470.076994535746,None,1470.5901928525418,None,1470.5901928525418,None,f,1.000305404420942,1470.5901928525418,None,,,NC8,001,2019_Dec_05_1337,ProdSingRedo,3.2.4,59.917449364595164,
,,,,136,0,136,0,,,,,,,,,,,,,,,,,,,,,,,,1475.0248382010031,None,,,,,,,,,,,,,,,,,judge,aloud,white,136,52,166,1472.1406119281892,None,1472.1406119281892,None,6,1.8977191087324172,1472.1406119281892,None,1474.076528654201,None,1474.5914017185569,None,1474.5914017185569,None,r,0.39879237790592015,1474.5914017185569,None,,,NC8,001,2019_Dec_05_1337,ProdSingRedo,3.2.4,59.917449364595164,
,,,,137,0,137,0,,,,,,,,,,,,,,,,,,,,,,,,1479.3261745781638,None,,,,,,,,,,,,,,,,,account,new_b,white,137,146,1,1475.5416565851774,None,1475.5416565851774,None,1,1.2568344317842275,1475.5416565851774,None,1476.846519728424,None,1477.358910372248,None,1477.358910372248,None,f,1.9191026960033923,1477.358910372248,None,,,NC8,001,2019_Dec_05_1337,ProdSingRedo,3.2.4,59.917449364595164,
,,,,138,0,138,0,,,,,,,,,,,,,,,,,,,,,,,,1485.1112800545525,None,,,,,,,,,,,,,,,,,taste,silent,white,138,89,322,1479.8429886079393,None,1479.8429886079393,None,3,2.1308666702825576,1479.8429886079393,None,1482.0121502389666,None,1482.527148637455,None,1482.527148637455,None,f,2.5426692087203264,1482.527148637455,None,,,NC8,001,2019_Dec_05_1337,ProdSingRedo,3.2.4,59.917449364595164,
,,,,139,0,139,0,,,,,,,,,,,,,,,,,,,,,,,,1496.848224643385,None,,,,,,,,,,,,,,,,,track,new_b,white,139,142,334,1485.6281077684835,None,1485.6281077684835,None,1,3.6014141275081784,1485.6281077684835,None,1489.279157867888,None,1489.779281024821,None,1489.779281024821,None,n,7.025870106648654,1489.779281024821,None,,,NC8,001,2019_Dec_05_1337,ProdSingRedo,3.2.4,59.917449364595164,
,,,,140,0,140,0,,,,,,,,,,,,,,,,,,,,,,,,1500.649381571915,None,,,,,,,,,,,,,,,,,mankind,new_b,white,140,133,178,1497.3648953011725,None,1497.3648953011725,None,1,1.8159509983379394,1497.3648953011725,None,1499.2321436458733,None,1499.732452471042,None,1499.732452471042,None,n,0.880252285161987,1499.732452471042,None,,,NC8,001,2019_Dec_05_1337,ProdSingRedo,3.2.4,59.917449364595164,
,,,,141,0,141,0,,,,,,,,,,,,,,,,,,,,,,,,1503.6836453205906,None,,,,,,,,,,,,,,,,,throw,new_b,white,141,134,330,1501.166202132823,None,1501.166202132823,None,1,1.34253112366423,1501.166202132823,None,1502.5523961174767,None,1503.066786817275,None,1503.066786817275,None,n,0.5777375202160329,1503.066786817275,None,,,NC8,001,2019_Dec_05_1337,ProdSingRedo,3.2.4,59.917449364595164,
,,,,142,0,142,0,,,,,,,,,,,,,,,,,,,,,,,,1507.251405264018,None,,,,,,,,,,,,,,,,,title,new_b,white,142,122,331,1504.200490761781,None,1504.200490761781,None,1,1.419848168734461,1504.200490761781,None,1505.668951082509,None,1506.184407587396,None,1506.184407587396,None,n,1.0279112150892615,1506.184407587396,None,,,NC8,001,2019_Dec_05_1337,ProdSingRedo,3.2.4,59.917449364595164,
,,,,143,0,143,0,,,,,,,,,,,,,,,,,,,,,,,,1510.385687361937,None,,,,,,,,,,,,,,,,,hearing,new_a,white,143,110,150,1507.7682304901537,None,1507.7682304901537,None,1,1.7320640292018652,1507.7682304901537,None,1509.5384728542995,None,1510.0522343963385,None,1510.0522343963385,None,n,0.2878139957319945,1510.0522343963385,None,,,NC8,001,2019_Dec_05_1337,ProdSingRedo,3.2.4,59.917449364595164,
,,,,144,0,144,0,,,,,,,,,,,,,,,,,,,,,,,,1514.4202583807055,None,,,,,,,,,,,,,,,,,native,silent,white,144,67,199,1510.9024444783572,None,1510.9024444783572,None,3,2.6534224250353873,1510.9024444783572,None,1513.6055003872607,None,1514.1201943142805,None,1514.1201943142805,None,f,0.2596598877571523,1514.1201943142805,None,,,NC8,001,2019_Dec_05_1337,ProdSingRedo,3.2.4,59.917449364595164,
,,,,145,0,145,0,,,,,,,,,,,,,,,,,,,,,,,,1518.5882251409348,None,,,,,,,,,,,,,,,,,angle,new_a,white,145,99,7,1514.9370845397934,None,1514.9370845397934,None,1,2.8506485952530056,1514.9370845397934,None,1517.823467924958,None,1518.338133239653,None,1518.338133239653,None,n,0.20147819397971034,1518.338133239653,None,,,NC8,001,2019_Dec_05_1337,ProdSingRedo,3.2.4,59.917449364595164,
,,,,146,0,146,0,,,,,,,,,,,,,,,,,,,,,,,,1527.2241931823082,None,,,,,,,,,,,,,,,,,member,new_b,white,146,144,188,1519.1052043130621,None,1519.1052043130621,None,3,7.169681316008791,1519.1052043130621,None,1526.3069493470248,None,1526.8239151462913,None,1526.8239151462913,None,f,0.35550520778633654,1526.8239151462913,None,,,NC8,001,2019_Dec_05_1337,ProdSingRedo,3.2.4,59.917449364595164,
,,,,147,0,147,0,,,,,,,,,,,,,,,,,,,,,,,,1532.4424238277134,None,,,,,,,,,,,,,,,,,department,new_a,white,147,109,90,1527.7410292932764,None,1527.7410292932764,None,1,3.429822635371238,1527.7410292932764,None,1531.2108390531503,None,1531.7254471436609,None,1531.7254471436609,None,n,0.6773248200770468,1531.7254471436609,None,,,NC8,001,2019_Dec_05_1337,ProdSingRedo,3.2.4,59.917449364595164,
,,,,148,0,148,0,,,,,,,,,,,,,,,,,,,,,,,,1538.127521840157,None,,,,,,,,,,,,,,,,,expansion,silent,white,148,82,123,1532.95928917313,None,1532.95928917313,None,3,3.6433966429904103,1532.95928917313,None,1536.6457465765998,None,1537.160570191685,None,1537.160570191685,None,f,0.921801885124296,1537.160570191685,None,,,NC8,001,2019_Dec_05_1337,ProdSingRedo,3.2.4,59.917449364595164,
,,,,149,0,149,0,,,,,,,,,,,,,,,,,,,,,,,,1541.9286700608209,None,,,,,,,,,,,,,,,,,revolution,sing,white,149,0,264,1538.645139500266,None,1538.645139500266,None,1,1.8131746805738658,1538.645139500266,None,1540.5115994538646,None,1541.0117213667836,None,1541.0117213667836,None,n,0.8784879688173532,1541.0117213667836,None,,,NC8,001,2019_Dec_05_1337,ProdSingRedo,3.2.4,59.917449364595164,
,,,,150,0,150,0,,,,,,,,,,,,,,,,,,,,,,,,1545.7465243935585,None,,,,,,,,,,,,,,,,,search,new_c,white,150,179,276,1542.4455210999586,None,1542.4455210999586,None,1,2.300591215258464,1542.4455210999586,None,1544.7823160965927,None,1545.2963762008585,None,1545.2963762008585,None,n,0.4095247571822256,1545.2963762008585,None,,,NC8,001,2019_Dec_05_1337,ProdSingRedo,3.2.4,59.917449364595164,
,,,,151,0,151,0,,,,,,,,,,,,,,,,,,,,,,,,1553.2321374258026,None,,,,,,,,,,,,,,,,,afternoon,new_c,white,151,150,3,1546.2631698602345,None,1546.2631698602345,None,1,6.234517215518281,1546.2631698602345,None,1552.5352499370929,None,1553.0486662664916,None,1553.0486662664916,None,n,0.1368239198345691,1553.0486662664916,None,,,NC8,001,2019_Dec_05_1337,ProdSingRedo,3.2.4,59.917449364595164,
,,,,152,0,152,0,,,,,,,,,,,,,,,,,,,,,,,,1558.6671653070953,None,,,,,,,,,,,,,,,,,substance,new_a,white,152,116,313,1553.7501522356179,None,1553.7501522356179,None,1,4.0669846148230135,1553.7501522356179,None,1557.8539862723555,None,1558.3670533462428,None,1558.3670533462428,None,n,0.2662155060097575,1558.3670533462428,None,,,NC8,001,2019_Dec_05_1337,ProdSingRedo,3.2.4,59.917449364595164,
,,,,153,0,153,0,,,,,,,,,,,,,,,,,,,,,,,,1562.601696828846,None,,,,,,,,,,,,,,,,,discovery,sing,white,153,8,95,1559.1872215364128,None,1559.1872215364128,None,3,2.2298832808155566,1559.1872215364128,None,1561.4547084197402,None,1561.968189126812,None,1561.968189126812,None,f,0.5846660300157964,1561.968189126812,None,,,NC8,001,2019_Dec_05_1337,ProdSingRedo,3.2.4,59.917449364595164,
,,,,154,0,154,0,,,,,,,,,,,,,,,,,,,,,,,,1565.7526225273032,None,,,,,,,,,,,,,,,,,course,silent,white,154,81,74,1563.118514279835,None,1563.118514279835,None,3,1.8905374431051314,1563.118514279835,None,1565.0522415493615,None,1565.5692558647133,None,1565.5692558647133,None,f,0.1434799914713949,1565.5692558647133,None,,,NC8,001,2019_Dec_05_1337,ProdSingRedo,3.2.4,59.917449364595164,
,,,,155,0,155,0,,,,,,,,,,,,,,,,,,,,,,,,1569.3871154845692,None,,,,,,,,,,,,,,,,,harmony,new_b,white,155,131,148,1566.2694225620944,None,1566.2694225620944,None,1,2.467224708525464,1566.2694225620944,None,1568.7715706550516,None,1569.287096824497,None,1569.287096824497,None,n,0.06535216351039708,1569.287096824497,None,,,NC8,001,2019_Dec_05_1337,ProdSingRedo,3.2.4,59.917449364595164,
,,,,156,0,156,0,,,,,,,,,,,,,,,,,,,,,,,,1573.0049094827846,None,,,,,,,,,,,,,,,,,rough,new_b,white,156,145,266,1569.9038023145404,None,1569.9038023145404,None,6,2.2326238334644586,1569.9038023145404,None,1572.173941736808,None,1572.6881396153476,None,1572.6881396153476,None,r,0.28015245334245265,1572.6881396153476,None,,,NC8,001,2019_Dec_05_1337,ProdSingRedo,3.2.4,59.917449364595164,
,,,,157,0,157,0,,,,,,,,,,,,,,,,,,,,,,,,1577.572958969511,None,,,,,,,,,,,,,,,,,series,silent,white,157,68,279,1573.5217160487082,None,1573.5217160487082,None,3,2.814375149551779,1573.5217160487082,None,1576.3749755085446,None,1576.889364342438,None,1576.889364342438,None,f,0.6389813430141658,1576.889364342438,None,,,NC8,001,2019_Dec_05_1337,ProdSingRedo,3.2.4,59.917449364595164,
,,,,158,0,158,0,,,,,,,,,,,,,,,,,,,,,,,,1580.9572866291273,None,,,,,,,,,,,,,,,,,working,sing,white,158,4,357,1578.0910910272505,None,1578.0910910272505,None,1,2.116671280004084,1578.0910910272505,None,1580.260272251442,None,1580.7738328860141,None,1580.7738328860141,None,n,0.1380324747879058,1580.7738328860141,None,,,NC8,001,2019_Dec_05_1337,ProdSingRedo,3.2.4,59.917449364595164,
,,,,159,0,159,0,,,,,,,,,,,,,,,,,,,,,,,,1584.1082816810813,None,,,,,,,,,,,,,,,,,industry,new_a,white,159,111,161,1581.4742343900725,None,1581.4742343900725,None,6,1.7094662887975574,1581.4742343900725,None,1583.2280231758486,None,1583.741378237959,None,1583.741378237959,None,r,0.3302623927593231,1583.741378237959,None,,,NC8,001,2019_Dec_05_1337,ProdSingRedo,3.2.4,59.917449364595164,
,,,,160,0,160,0,,,,,,,,,,,,,,,,,,,,,,,,1587.526018454926,None,,,,,,,,,,,,,,,,,childhood,new_a,white,160,98,49,1584.6251510693692,None,1584.6251510693692,None,1,2.1504029035568237,1584.6251510693692,None,1586.81320298207,None,1587.3259624745697,None,1587.3259624745697,None,n,0.16147085442207754,1587.3259624745697,None,,,NC8,001,2019_Dec_05_1337,ProdSingRedo,3.2.4,59.917449364595164,
,,,,161,0,161,0,,,,,,,,,,,,,,,,,,,,,,,,1590.3935417255852,None,,,,,,,,,,,,,,,,,nation,new_c,white,161,158,198,1588.0428371499293,None,1588.0428371499293,None,6,1.3727677029091865,1588.0428371499293,None,1589.4619746783283,None,1589.976760661928,None,1589.976760661928,None,r,0.37466264027170837,1589.976760661928,None,,,NC8,001,2019_Dec_05_1337,ProdSingRedo,3.2.4,59.917449364595164,
,,,,162,0,162,0,,,,,,,,,,,,,,,,,,,,,,,,1594.9949813554995,None,,,,,,,,,,,,,,,,,degree,silent,white,162,70,89,1590.9102338426746,None,1590.9102338426746,None,3,2.4968392834998667,1590.9102338426746,None,1593.4481179695576,None,1593.9613029132597,None,1593.9613029132597,None,f,0.9898949123453349,1593.9613029132597,None,,,NC8,001,2019_Dec_05_1337,ProdSingRedo,3.2.4,59.917449364595164,
,,,,163,0,163,0,,,,,,,,,,,,,,,,,,,,,,,,1598.1125903073698,None,,,,,,,,,,,,,,,,,power,sing,white,163,7,230,1595.5117975624744,None,1595.5117975624744,None,6,1.279063945170492,1595.5117975624744,None,1596.8311142281163,None,1597.3456940173637,None,1597.3456940173637,None,r,0.7331708865240216,1597.3456940173637,None,,,NC8,001,2019_Dec_05_1337,ProdSingRedo,3.2.4,59.917449364595164,
,,,,164,0,164,0,,,,,,,,,,,,,,,,,,,,,,,,1601.2135065202601,None,,,,,,,,,,,,,,,,,trend,aloud,white,164,45,340,1598.629429217428,None,1598.629429217428,None,6,1.7371495391707867,1598.629429217428,None,1600.4147303143982,None,1600.93009662861,None,1600.93009662861,None,r,0.24447177816182375,1600.93009662861,None,,,NC8,001,2019_Dec_05_1337,ProdSingRedo,3.2.4,59.917449364595164,
,,,,165,0,165,0,,,,,,,,,,,,,,,,,,,,,,,,1603.6976426024921,None,,,,,,,,,,,,,,,,,government,aloud,white,165,47,139,1601.7332309100311,None,1601.7332309100311,None,6,1.1612743011210114,1601.7332309100311,None,1602.9472767082043,None,1603.4475046729203,None,1603.4475046729203,None,r,0.21494988189078867,1603.4475046729203,None,,,NC8,001,2019_Dec_05_1337,ProdSingRedo,3.2.4,59.917449364595164,
,,,,166,0,166,0,,,,,,,,,,,,,,,,,,,,,,,,1607.8989690274466,None,,,,,,,,,,,,,,,,,skill,aloud,white,166,56,289,1604.2161002797075,None,1604.2161002797075,None,3,2.910118771949783,1604.2161002797075,None,1607.1683505370747,None,1607.6820159794297,None,1607.6820159794297,None,f,0.18015836225822568,1607.6820159794297,None,,,NC8,001,2019_Dec_05_1337,ProdSingRedo,3.2.4,59.917449364595164,
,,,,167,0,167,0,,,,,,,,,,,,,,,,,,,,,,,,1612.5670051409397,None,,,,,,,,,,,,,,,,,territory,new_a,white,167,102,324,1608.4157914542593,None,1608.4157914542593,None,1,2.550250201486051,1608.4157914542593,None,1611.0049626643304,None,1611.5165614960715,None,1611.5165614960715,None,n,1.0095247572753578,1611.5165614960715,None,,,NC8,001,2019_Dec_05_1337,ProdSingRedo,3.2.4,59.917449364595164,
,,,,168,0,168,0,,,,,,,,,,,,,,,,,,,,,,,,1617.5518817196134,None,,,,,,,,,,,,,,,,,opening,aloud,white,168,38,205,1613.0838602231815,None,1613.0838602231815,None,1,3.6900578774511814,1613.0838602231815,None,1616.8211602875963,None,1617.3351401533,None,1617.3351401533,None,n,0.17460759286768734,1617.3351401533,None,,,NC8,001,2019_Dec_05_1337,ProdSingRedo,3.2.4,59.917449364595164,
,,,,169,0,169,0,,,,,,,,,,,,,,,,,,,,,,,,1621.8198630968109,None,,,,,,,,,,,,,,,,,voice,sing,white,169,29,348,1618.0687193858903,None,1618.0687193858903,None,1,2.8729197832290083,1618.0687193858903,None,1620.9918968344573,None,1621.502928398084,None,1621.502928398084,None,n,0.2784158163703978,1621.502928398084,None,,,NC8,001,2019_Dec_05_1337,ProdSingRedo,3.2.4,59.917449364595164,
,,,,170,0,170,0,,,,,,,,,,,,,,,,,,,,,,,,1624.8374512116425,None,,,,,,,,,,,,,,,,,breath,aloud,white,170,32,27,1622.3365517929196,None,1622.3365517929196,None,6,1.5167614705860615,1622.3365517929196,None,1623.8935267976485,None,1624.4039886048995,None,1624.4039886048995,None,r,0.3930882844142616,1624.4039886048995,None,,,NC8,001,2019_Dec_05_1337,ProdSingRedo,3.2.4,59.917449364595164,
,,,,171,0,171,0,,,,,,,,,,,,,,,,,,,,,,,,1630.2057790453546,None,,,,,,,,,,,,,,,,,military,new_b,white,171,141,190,1625.3594614684116,None,1625.3594614684116,None,1,4.053546204231679,1625.3594614684116,None,1629.458401261596,None,1629.9723064866848,None,1629.9723064866848,None,n,0.2005610482301563,1629.9723064866848,None,,,NC8,001,2019_Dec_05_1337,ProdSingRedo,3.2.4,59.917449364595164,
,,,,172,0,172,0,,,,,,,,,,,,,,,,,,,,,,,,1633.1233052706812,None,,,,,,,,,,,,,,,,,still,new_b,white,172,137,304,1630.7225806352217,None,1630.7225806352217,None,6,1.5063808348495513,1630.7225806352217,None,1632.2735159746371,None,1632.7898793623317,None,1632.7898793623317,None,r,0.2947605438530445,1632.7898793623317,None,,,NC8,001,2019_Dec_05_1337,ProdSingRedo,3.2.4,59.917449364595164,
,,,,173,0,173,0,,,,,,,,,,,,,,,,,,,,,,,,1637.7747624721378,None,,,,,,,,,,,,,,,,,finish,aloud,white,173,58,130,1633.6401093485765,None,1633.6401093485765,None,3,1.6122948550619185,1633.6401093485765,None,1635.2926320438273,None,1635.8074886251707,None,1635.8074886251707,None,r,1.925045950571075,1635.8074886251707,None,,,NC8,001,2019_Dec_05_1337,ProdSingRedo,3.2.4,59.917449364595164,
,,,,174,0,174,0,,,,,,,,,,,,,,,,,,,,,,,,1645.0602766056545,None,,,,,,,,,,,,,,,,,owner,aloud,white,174,46,208,1638.2915774350986,None,1638.2915774350986,None,3,5.944319697795436,1638.2915774350986,None,1644.2766185340006,None,1644.7935694048647,None,1644.7935694048647,None,f,0.23430106905288994,1644.7935694048647,None,,,NC8,001,2019_Dec_05_1337,ProdSingRedo,3.2.4,59.917449364595164,
,,,,175,0,175,0,,,,,,,,,,,,,,,,,,,,,,,,1649.0281852080952,None,,,,,,,,,,,,,,,,,portion,sing,white,175,25,228,1645.5770940564107,None,1645.5770940564107,None,6,2.410614509601146,1645.5770940564107,None,1648.0277771730907,None,1648.5446963219438,None,1648.5446963219438,None,r,0.4429077475797385,1648.5446963219438,None,,,NC8,001,2019_Dec_05_1337,ProdSingRedo,3.2.4,59.917449364595164,
,,,,176,0,176,0,,,,,,,,,,,,,,,,,,,,,,,,1651.645681577269,None,,,,,,,,,,,,,,,,,business,aloud,white,176,30,38,1649.5449653388932,None,1649.5449653388932,None,6,1.2265617758966982,1649.5449653388932,None,1650.8151479905937,None,1651.3287546534557,None,1651.3287546534557,None,r,0.2828591065481305,1651.3287546534557,None,,,NC8,001,2019_Dec_05_1337,ProdSingRedo,3.2.4,59.917449364595164,
,,,,177,0,177,0,,,,,,,,,,,,,,,,,,,,,,,,1654.7466292013414,None,,,,,,,,,,,,,,,,,mayor,new_a,white,177,118,183,1652.1624278086238,None,1652.1624278086238,None,1,1.841130058048293,1652.1624278086238,None,1654.0630040960386,None,1654.5630936645903,None,1654.5630936645903,None,n,0.13613847084343433,1654.5630936645903,None,,,NC8,001,2019_Dec_05_1337,ProdSingRedo,3.2.4,59.917449364595164,
,,,,178,0,178,0,,,,,,,,,,,,,,,,,,,,,,,,1657.7975583206862,None,,,,,,,,,,,,,,,,,union,new_b,white,178,129,344,1655.2634149300866,None,1655.2634149300866,None,1,1.7876619156450033,1655.2634149300866,None,1657.1000466505066,None,1657.614180462202,None,1657.614180462202,None,n,0.14905750728212297,1657.614180462202,None,,,NC8,001,2019_Dec_05_1337,ProdSingRedo,3.2.4,59.917449364595164,
,,,,179,0,179,0,,,,,,,,,,,,,,,,,,,,,,,,1660.798398960149,None,,,,,,,,,,,,,,,,,contract,aloud,white,179,34,68,1658.3142308446113,None,1658.3142308446113,None,6,1.5847761249169707,1658.3142308446113,None,1659.9334551426582,None,1660.4483708143234,None,1660.4483708143234,None,r,0.306759946513921,1660.4483708143234,None,,,NC8,001,2019_Dec_05_1337,ProdSingRedo,3.2.4,59.917449364595164,
,,,,,,,,,,,,,,,,,,,,,,,,,,,,,,,,,,,,,,,,,,,,,,,,,,,,,,,,,,,,,,,,,,,,,,,,,1661.29859831254,None,,,,,,,
