StudyLoop.thisRepN,StudyLoop.thisTrialN,StudyLoop.thisN,StudyLoop.thisIndex,TestLoop.thisRepN,TestLoop.thisTrialN,TestLoop.thisN,TestLoop.thisIndex,textCondition.started,textCondition.stopped,keyCondition.keys,keyCondition.rt,keyCondition.started,keyCondition.stopped,Condition,stim_colors,color_sing,color_aloud,color_silent,textWelcome.started,textWelcome.stopped,keyWelcome.keys,keyWelcome.rt,keyWelcome.started,keyWelcome.stopped,textAloud.started,textAloud.stopped,textSilent.started,textSilent.stopped,textSing.started,textSing.stopped,textBlank500.started,textBlank500.stopped,study_word,study_type,study_color,study_num,study_word_num,textStudy.started,textStudy.stopped,keyStudy.keys,keyStudy.started,keyStudy.stopped,textTestInstructions.started,textTestInstructions.stopped,key_resp_3.keys,key_resp_3.rt,key_resp_3.started,key_resp_3.stopped,testWord,testType,testColor,testN,test_num,test_word_num,textConf.started,textConf.stopped,textConfScale.started,textConfScale.stopped,keyConf.keys,keyConf.rt,keyConf.started,keyConf.stopped,textTestBlank.started,textTestBlank.stopped,textRKN.started,textRKN.stopped,textRKNScale.started,textRKNScale.stopped,keyRKN.keys,keyRKN.rt,keyRKN.started,keyRKN.stopped,textEnd.started,textEnd.stopped,participant,session,date,expName,psychopyVersion,frameRate,
,,,,,,,,10.800650927936658,None,n,4.788433512207121,10.800650927936658,None,,,,,,,,,,,,,,,,,,,,,,,,,,,,,,,,,,,,,,,,,,,,,,,,,,,,,,,,,,,,,,NC9,001,2019_Dec_05_1408,ProdSingRedo,3.2.4,59.88620279926669,
,,,,,,,,,,,,,,NeutralTest,"['blue', 'red', 'yellow']",blue,red,yellow,15.65227980259806,None,space,335.53248979127966,15.65227980259806,None,,,,,,,,,,,,,,,,,,,,,,,,,,,,,,,,,,,,,,,,,,,,,,,,,,,NC9,001,2019_Dec_05_1408,ProdSingRedo,3.2.4,59.88620279926669,
0,0,0,0,,,,,,,,,,,,,,,,,,,,,,15.65227980259806,None,15.65227980259806,None,15.65227980259806,None,353.7227482656017,None,childhood,sing,blue,9,49,351.72209982573986,None,None,351.72209982573986,None,,,,,,,,,,,,,,,,,,,,,,,,,,,,,,,,,NC9,001,2019_Dec_05_1408,ProdSingRedo,3.2.4,59.88620279926669,
1,0,1,0,,,,,,,,,,,,,,,,,,,,,,,,,,,,356.24018243397586,None,dozen,silent,yellow,60,102,354.24106350378133,None,None,354.24106350378133,None,,,,,,,,,,,,,,,,,,,,,,,,,,,,,,,,,NC9,001,2019_Dec_05_1408,ProdSingRedo,3.2.4,59.88620279926669,
2,0,2,0,,,,,,,,,,,,,,,,,,,,,,,,,,,,358.75762717681937,None,conference,silent,yellow,77,66,356.75695852166973,None,None,356.75695852166973,None,,,,,,,,,,,,,,,,,,,,,,,,,,,,,,,,,NC9,001,2019_Dec_05_1408,ProdSingRedo,3.2.4,59.88620279926669,
3,0,3,0,,,,,,,,,,,,,,,,,,,,,,,,,,,,361.2750625894405,None,tennis,sing,blue,4,323,359.2744163265452,None,None,359.2744163265452,None,,,,,,,,,,,,,,,,,,,,,,,,,,,,,,,,,NC9,001,2019_Dec_05_1408,ProdSingRedo,3.2.4,59.88620279926669,
4,0,4,0,,,,,,,,,,,,,,,,,,,,,,,,,,,,363.79249053797685,None,career,silent,yellow,63,42,361.7918137968518,None,None,361.7918137968518,None,,,,,,,,,,,,,,,,,,,,,,,,,,,,,,,,,NC9,001,2019_Dec_05_1408,ProdSingRedo,3.2.4,59.88620279926669,
5,0,5,0,,,,,,,,,,,,,,,,,,,,,,,,,,,,366.3096874116454,None,welcome,sing,blue,19,354,364.30919851595536,None,None,364.30919851595536,None,,,,,,,,,,,,,,,,,,,,,,,,,,,,,,,,,NC9,001,2019_Dec_05_1408,ProdSingRedo,3.2.4,59.88620279926669,
6,0,6,0,,,,,,,,,,,,,,,,,,,,,,,,,,,,368.82736509502865,None,running,aloud,red,47,268,366.8267011051066,None,None,366.8267011051066,None,,,,,,,,,,,,,,,,,,,,,,,,,,,,,,,,,NC9,001,2019_Dec_05_1408,ProdSingRedo,3.2.4,59.88620279926669,
7,0,7,0,,,,,,,,,,,,,,,,,,,,,,,,,,,,371.34477313957177,None,title,aloud,red,31,331,369.34413558477536,None,None,369.34413558477536,None,,,,,,,,,,,,,,,,,,,,,,,,,,,,,,,,,NC9,001,2019_Dec_05_1408,ProdSingRedo,3.2.4,59.88620279926669,
8,0,8,0,,,,,,,,,,,,,,,,,,,,,,,,,,,,373.86224804935046,None,raise,aloud,red,38,250,371.8616014753934,None,None,371.8616014753934,None,,,,,,,,,,,,,,,,,,,,,,,,,,,,,,,,,NC9,001,2019_Dec_05_1408,ProdSingRedo,3.2.4,59.88620279926669,
9,0,9,0,,,,,,,,,,,,,,,,,,,,,,,,,,,,376.37968004099093,None,impact,silent,yellow,75,157,374.37902911310084,None,None,374.37902911310084,None,,,,,,,,,,,,,,,,,,,,,,,,,,,,,,,,,NC9,001,2019_Dec_05_1408,ProdSingRedo,3.2.4,59.88620279926669,
10,0,10,0,,,,,,,,,,,,,,,,,,,,,,,,,,,,378.89711265452206,None,interior,silent,yellow,82,164,376.89647603267804,None,None,376.89647603267804,None,,,,,,,,,,,,,,,,,,,,,,,,,,,,,,,,,NC9,001,2019_Dec_05_1408,ProdSingRedo,3.2.4,59.88620279926669,
11,0,11,0,,,,,,,,,,,,,,,,,,,,,,,,,,,,381.4145813442301,None,figure,sing,blue,20,128,379.4139070913661,None,None,379.4139070913661,None,,,,,,,,,,,,,,,,,,,,,,,,,,,,,,,,,NC9,001,2019_Dec_05_1408,ProdSingRedo,3.2.4,59.88620279926669,
12,0,12,0,,,,,,,,,,,,,,,,,,,,,,,,,,,,383.9153361469507,None,level,aloud,red,46,170,381.9144724935759,None,None,381.9144724935759,None,,,,,,,,,,,,,,,,,,,,,,,,,,,,,,,,,NC9,001,2019_Dec_05_1408,ProdSingRedo,3.2.4,59.88620279926669,
13,0,13,0,,,,,,,,,,,,,,,,,,,,,,,,,,,,386.4327420142945,None,trail,silent,yellow,70,336,384.432179100113,None,None,384.432179100113,None,,,,,,,,,,,,,,,,,,,,,,,,,,,,,,,,,NC9,001,2019_Dec_05_1408,ProdSingRedo,3.2.4,59.88620279926669,
14,0,14,0,,,,,,,,,,,,,,,,,,,,,,,,,,,,388.9502060392406,None,device,silent,yellow,61,93,386.949554489227,None,None,386.949554489227,None,,,,,,,,,,,,,,,,,,,,,,,,,,,,,,,,,NC9,001,2019_Dec_05_1408,ProdSingRedo,3.2.4,59.88620279926669,
15,0,15,0,,,,,,,,,,,,,,,,,,,,,,,,,,,,391.4676255907398,None,industry,aloud,red,55,161,389.46708226948977,None,None,389.46708226948977,None,,,,,,,,,,,,,,,,,,,,,,,,,,,,,,,,,NC9,001,2019_Dec_05_1408,ProdSingRedo,3.2.4,59.88620279926669,
16,0,16,0,,,,,,,,,,,,,,,,,,,,,,,,,,,,393.9850958355237,None,taste,aloud,red,43,322,391.9844371324871,None,None,391.9844371324871,None,,,,,,,,,,,,,,,,,,,,,,,,,,,,,,,,,NC9,001,2019_Dec_05_1408,ProdSingRedo,3.2.4,59.88620279926669,
17,0,17,0,,,,,,,,,,,,,,,,,,,,,,,,,,,,396.50252689397894,None,block,sing,blue,26,25,394.5023511776235,None,None,394.5023511776235,None,,,,,,,,,,,,,,,,,,,,,,,,,,,,,,,,,NC9,001,2019_Dec_05_1408,ProdSingRedo,3.2.4,59.88620279926669,
18,0,18,0,,,,,,,,,,,,,,,,,,,,,,,,,,,,399.01997661264613,None,solution,aloud,red,35,294,397.01931231166236,None,None,397.01931231166236,None,,,,,,,,,,,,,,,,,,,,,,,,,,,,,,,,,NC9,001,2019_Dec_05_1408,ProdSingRedo,3.2.4,59.88620279926669,
19,0,19,0,,,,,,,,,,,,,,,,,,,,,,,,,,,,401.5374036282301,None,threat,aloud,red,42,329,399.5367380832322,None,None,399.5367380832322,None,,,,,,,,,,,,,,,,,,,,,,,,,,,,,,,,,NC9,001,2019_Dec_05_1408,ProdSingRedo,3.2.4,59.88620279926669,
20,0,20,0,,,,,,,,,,,,,,,,,,,,,,,,,,,,404.05483810789883,None,payment,sing,blue,27,215,402.0540724201128,None,None,402.0540724201128,None,,,,,,,,,,,,,,,,,,,,,,,,,,,,,,,,,NC9,001,2019_Dec_05_1408,ProdSingRedo,3.2.4,59.88620279926669,
21,0,21,0,,,,,,,,,,,,,,,,,,,,,,,,,,,,406.5722663674969,None,chief,silent,yellow,66,48,404.57159149227664,None,None,404.57159149227664,None,,,,,,,,,,,,,,,,,,,,,,,,,,,,,,,,,NC9,001,2019_Dec_05_1408,ProdSingRedo,3.2.4,59.88620279926669,
22,0,22,0,,,,,,,,,,,,,,,,,,,,,,,,,,,,409.0897052010987,None,shock,silent,yellow,68,284,407.08893858036026,None,None,407.08893858036026,None,,,,,,,,,,,,,,,,,,,,,,,,,,,,,,,,,NC9,001,2019_Dec_05_1408,ProdSingRedo,3.2.4,59.88620279926669,
23,0,23,0,,,,,,,,,,,,,,,,,,,,,,,,,,,,411.60714216856286,None,principal,silent,yellow,85,236,409.6063985619694,None,None,409.6063985619694,None,,,,,,,,,,,,,,,,,,,,,,,,,,,,,,,,,NC9,001,2019_Dec_05_1408,ProdSingRedo,3.2.4,59.88620279926669,
24,0,24,0,,,,,,,,,,,,,,,,,,,,,,,,,,,,414.12456358619966,None,review,silent,yellow,71,263,412.1238143814262,None,None,412.1238143814262,None,,,,,,,,,,,,,,,,,,,,,,,,,,,,,,,,,NC9,001,2019_Dec_05_1408,ProdSingRedo,3.2.4,59.88620279926669,
25,0,25,0,,,,,,,,,,,,,,,,,,,,,,,,,,,,416.64202512288466,None,permit,aloud,red,39,218,414.6413804150652,None,None,414.6413804150652,None,,,,,,,,,,,,,,,,,,,,,,,,,,,,,,,,,NC9,001,2019_Dec_05_1408,ProdSingRedo,3.2.4,59.88620279926669,
26,0,26,0,,,,,,,,,,,,,,,,,,,,,,,,,,,,419.1594975446351,None,thick,aloud,red,53,327,417.15885408082977,None,None,417.15885408082977,None,,,,,,,,,,,,,,,,,,,,,,,,,,,,,,,,,NC9,001,2019_Dec_05_1408,ProdSingRedo,3.2.4,59.88620279926669,
27,0,27,0,,,,,,,,,,,,,,,,,,,,,,,,,,,,421.6769093212206,None,orchestra,aloud,red,32,206,419.6762437762227,None,None,419.6762437762227,None,,,,,,,,,,,,,,,,,,,,,,,,,,,,,,,,,NC9,001,2019_Dec_05_1408,ProdSingRedo,3.2.4,59.88620279926669,
28,0,28,0,,,,,,,,,,,,,,,,,,,,,,,,,,,,424.1943602839019,None,track,aloud,red,33,334,422.19369131792337,None,None,422.19369131792337,None,,,,,,,,,,,,,,,,,,,,,,,,,,,,,,,,,NC9,001,2019_Dec_05_1408,ProdSingRedo,3.2.4,59.88620279926669,
29,0,29,0,,,,,,,,,,,,,,,,,,,,,,,,,,,,426.711663831491,None,session,aloud,red,37,281,424.71112641948275,None,None,424.71112641948275,None,,,,,,,,,,,,,,,,,,,,,,,,,,,,,,,,,NC9,001,2019_Dec_05_1408,ProdSingRedo,3.2.4,59.88620279926669,
30,0,30,0,,,,,,,,,,,,,,,,,,,,,,,,,,,,429.2292304870207,None,entrance,silent,yellow,88,115,427.2285098945722,None,None,427.2285098945722,None,,,,,,,,,,,,,,,,,,,,,,,,,,,,,,,,,NC9,001,2019_Dec_05_1408,ProdSingRedo,3.2.4,59.88620279926669,
31,0,31,0,,,,,,,,,,,,,,,,,,,,,,,,,,,,431.74666652153246,None,series,sing,blue,14,279,429.74599693366326,None,None,429.74599693366326,None,,,,,,,,,,,,,,,,,,,,,,,,,,,,,,,,,NC9,001,2019_Dec_05_1408,ProdSingRedo,3.2.4,59.88620279926669,
32,0,32,0,,,,,,,,,,,,,,,,,,,,,,,,,,,,434.264105666196,None,position,aloud,red,30,229,432.26338942791335,None,None,432.26338942791335,None,,,,,,,,,,,,,,,,,,,,,,,,,,,,,,,,,NC9,001,2019_Dec_05_1408,ProdSingRedo,3.2.4,59.88620279926669,
33,0,33,0,,,,,,,,,,,,,,,,,,,,,,,,,,,,436.7815146436915,None,opening,silent,yellow,65,205,434.7808773999568,None,None,434.7808773999568,None,,,,,,,,,,,,,,,,,,,,,,,,,,,,,,,,,NC9,001,2019_Dec_05_1408,ProdSingRedo,3.2.4,59.88620279926669,
34,0,34,0,,,,,,,,,,,,,,,,,,,,,,,,,,,,439.29896000842564,None,suggestion,sing,blue,7,314,437.29820862668566,None,None,437.29820862668566,None,,,,,,,,,,,,,,,,,,,,,,,,,,,,,,,,,NC9,001,2019_Dec_05_1408,ProdSingRedo,3.2.4,59.88620279926669,
35,0,35,0,,,,,,,,,,,,,,,,,,,,,,,,,,,,441.8163845357485,None,minor,sing,blue,17,191,439.81574946898036,None,None,439.81574946898036,None,,,,,,,,,,,,,,,,,,,,,,,,,,,,,,,,,NC9,001,2019_Dec_05_1408,ProdSingRedo,3.2.4,59.88620279926669,
36,0,36,0,,,,,,,,,,,,,,,,,,,,,,,,,,,,444.33385198167525,None,poetry,sing,blue,22,225,442.3330570596736,None,None,442.3330570596736,None,,,,,,,,,,,,,,,,,,,,,,,,,,,,,,,,,NC9,001,2019_Dec_05_1408,ProdSingRedo,3.2.4,59.88620279926669,
37,0,37,0,,,,,,,,,,,,,,,,,,,,,,,,,,,,446.85130076739006,None,department,silent,yellow,74,90,444.85067565273494,None,None,444.85067565273494,None,,,,,,,,,,,,,,,,,,,,,,,,,,,,,,,,,NC9,001,2019_Dec_05_1408,ProdSingRedo,3.2.4,59.88620279926669,
38,0,38,0,,,,,,,,,,,,,,,,,,,,,,,,,,,,449.3687159647234,None,dispute,silent,yellow,78,99,447.36809116113,None,None,447.36809116113,None,,,,,,,,,,,,,,,,,,,,,,,,,,,,,,,,,NC9,001,2019_Dec_05_1408,ProdSingRedo,3.2.4,59.88620279926669,
39,0,39,0,,,,,,,,,,,,,,,,,,,,,,,,,,,,451.88615977438167,None,household,aloud,red,56,154,449.8854945404455,None,None,449.8854945404455,None,,,,,,,,,,,,,,,,,,,,,,,,,,,,,,,,,NC9,001,2019_Dec_05_1408,ProdSingRedo,3.2.4,59.88620279926669,
40,0,40,0,,,,,,,,,,,,,,,,,,,,,,,,,,,,454.40362970833667,None,measure,aloud,red,51,184,452.40294457017444,None,None,452.40294457017444,None,,,,,,,,,,,,,,,,,,,,,,,,,,,,,,,,,NC9,001,2019_Dec_05_1408,ProdSingRedo,3.2.4,59.88620279926669,
41,0,41,0,,,,,,,,,,,,,,,,,,,,,,,,,,,,456.92105672392063,None,story,sing,blue,15,306,454.9203523036558,None,None,454.9203523036558,None,,,,,,,,,,,,,,,,,,,,,,,,,,,,,,,,,NC9,001,2019_Dec_05_1408,ProdSingRedo,3.2.4,59.88620279926669,
42,0,42,0,,,,,,,,,,,,,,,,,,,,,,,,,,,,459.4384657011833,None,appeal,sing,blue,12,9,457.437819438288,None,None,457.437819438288,None,,,,,,,,,,,,,,,,,,,,,,,,,,,,,,,,,NC9,001,2019_Dec_05_1408,ProdSingRedo,3.2.4,59.88620279926669,
43,0,43,0,,,,,,,,,,,,,,,,,,,,,,,,,,,,461.9559269270394,None,relation,sing,blue,18,257,459.9552495640237,None,None,459.9552495640237,None,,,,,,,,,,,,,,,,,,,,,,,,,,,,,,,,,NC9,001,2019_Dec_05_1408,ProdSingRedo,3.2.4,59.88620279926669,
44,0,44,0,,,,,,,,,,,,,,,,,,,,,,,,,,,,464.47332470840774,None,partner,sing,blue,21,211,462.47267782338895,None,None,462.47267782338895,None,,,,,,,,,,,,,,,,,,,,,,,,,,,,,,,,,NC9,001,2019_Dec_05_1408,ProdSingRedo,3.2.4,59.88620279926669,
45,0,45,0,,,,,,,,,,,,,,,,,,,,,,,,,,,,466.99080677120946,None,production,silent,yellow,73,240,464.99015148938634,None,None,464.99015148938634,None,,,,,,,,,,,,,,,,,,,,,,,,,,,,,,,,,NC9,001,2019_Dec_05_1408,ProdSingRedo,3.2.4,59.88620279926669,
46,0,46,0,,,,,,,,,,,,,,,,,,,,,,,,,,,,469.5082393847406,None,judge,silent,yellow,64,166,467.50746156810783,None,None,467.50746156810783,None,,,,,,,,,,,,,,,,,,,,,,,,,,,,,,,,,NC9,001,2019_Dec_05_1408,ProdSingRedo,3.2.4,59.88620279926669,
47,0,47,0,,,,,,,,,,,,,,,,,,,,,,,,,,,,472.02567884046584,None,cross,silent,yellow,69,80,470.02501547243446,None,None,470.02501547243446,None,,,,,,,,,,,,,,,,,,,,,,,,,,,,,,,,,NC9,001,2019_Dec_05_1408,ProdSingRedo,3.2.4,59.88620279926669,
48,0,48,0,,,,,,,,,,,,,,,,,,,,,,,,,,,,474.54312700405717,None,burden,sing,blue,5,36,472.5423473212868,None,None,472.5423473212868,None,,,,,,,,,,,,,,,,,,,,,,,,,,,,,,,,,NC9,001,2019_Dec_05_1408,ProdSingRedo,3.2.4,59.88620279926669,
49,0,49,0,,,,,,,,,,,,,,,,,,,,,,,,,,,,477.0605418905616,None,force,aloud,red,52,131,475.0598996707704,None,None,475.0598996707704,None,,,,,,,,,,,,,,,,,,,,,,,,,,,,,,,,,NC9,001,2019_Dec_05_1408,ProdSingRedo,3.2.4,59.88620279926669,
50,0,50,0,,,,,,,,,,,,,,,,,,,,,,,,,,,,479.5780006283894,None,pancakes,aloud,red,58,210,477.5772069504019,None,None,477.5772069504019,None,,,,,,,,,,,,,,,,,,,,,,,,,,,,,,,,,NC9,001,2019_Dec_05_1408,ProdSingRedo,3.2.4,59.88620279926669,
51,0,51,0,,,,,,,,,,,,,,,,,,,,,,,,,,,,482.09534802730195,None,victory,sing,blue,0,346,480.0947720508557,None,None,480.0947720508557,None,,,,,,,,,,,,,,,,,,,,,,,,,,,,,,,,,NC9,001,2019_Dec_05_1408,ProdSingRedo,3.2.4,59.88620279926669,
52,0,52,0,,,,,,,,,,,,,,,,,,,,,,,,,,,,484.6128876255825,None,bitter,silent,yellow,81,23,482.61217387532815,None,None,482.61217387532815,None,,,,,,,,,,,,,,,,,,,,,,,,,,,,,,,,,NC9,001,2019_Dec_05_1408,ProdSingRedo,3.2.4,59.88620279926669,
53,0,53,0,,,,,,,,,,,,,,,,,,,,,,,,,,,,487.13028696202673,None,strength,sing,blue,10,310,485.12964785215445,None,None,485.12964785215445,None,,,,,,,,,,,,,,,,,,,,,,,,,,,,,,,,,NC9,001,2019_Dec_05_1408,ProdSingRedo,3.2.4,59.88620279926669,
54,0,54,0,,,,,,,,,,,,,,,,,,,,,,,,,,,,489.6477422786411,None,build,sing,blue,2,35,487.6470972597599,None,None,487.6470972597599,None,,,,,,,,,,,,,,,,,,,,,,,,,,,,,,,,,NC9,001,2019_Dec_05_1408,ProdSingRedo,3.2.4,59.88620279926669,
55,0,55,0,,,,,,,,,,,,,,,,,,,,,,,,,,,,492.16515094507486,None,murder,sing,blue,16,195,490.1645292514004,None,None,490.1645292514004,None,,,,,,,,,,,,,,,,,,,,,,,,,,,,,,,,,NC9,001,2019_Dec_05_1408,ProdSingRedo,3.2.4,59.88620279926669,
56,0,56,0,,,,,,,,,,,,,,,,,,,,,,,,,,,,494.682629276067,None,benefit,sing,blue,1,20,492.68196310894564,None,None,492.68196310894564,None,,,,,,,,,,,,,,,,,,,,,,,,,,,,,,,,,NC9,001,2019_Dec_05_1408,ProdSingRedo,3.2.4,59.88620279926669,
57,0,57,0,,,,,,,,,,,,,,,,,,,,,,,,,,,,497.20006406656466,None,working,silent,yellow,76,357,495.1992856278084,None,None,495.1992856278084,None,,,,,,,,,,,,,,,,,,,,,,,,,,,,,,,,,NC9,001,2019_Dec_05_1408,ProdSingRedo,3.2.4,59.88620279926669,
58,0,58,0,,,,,,,,,,,,,,,,,,,,,,,,,,,,499.7174693120178,None,portion,silent,yellow,89,228,497.71685010637157,None,None,497.71685010637157,None,,,,,,,,,,,,,,,,,,,,,,,,,,,,,,,,,NC9,001,2019_Dec_05_1408,ProdSingRedo,3.2.4,59.88620279926669,
59,0,59,0,,,,,,,,,,,,,,,,,,,,,,,,,,,,502.23483848106116,None,light,sing,blue,3,171,500.23427152377553,None,None,500.23427152377553,None,,,,,,,,,,,,,,,,,,,,,,,,,,,,,,,,,NC9,001,2019_Dec_05_1408,ProdSingRedo,3.2.4,59.88620279926669,
60,0,60,0,,,,,,,,,,,,,,,,,,,,,,,,,,,,504.7523485342972,None,close,silent,yellow,62,53,502.75172621849924,None,None,502.75172621849924,None,,,,,,,,,,,,,,,,,,,,,,,,,,,,,,,,,NC9,001,2019_Dec_05_1408,ProdSingRedo,3.2.4,59.88620279926669,
61,0,61,0,,,,,,,,,,,,,,,,,,,,,,,,,,,,507.2698365061078,None,reach,silent,yellow,84,253,505.269132085843,None,None,505.269132085843,None,,,,,,,,,,,,,,,,,,,,,,,,,,,,,,,,,NC9,001,2019_Dec_05_1408,ProdSingRedo,3.2.4,59.88620279926669,
62,0,62,0,,,,,,,,,,,,,,,,,,,,,,,,,,,,509.78723584255204,None,direction,aloud,red,41,94,507.7865905126091,None,None,507.7865905126091,None,,,,,,,,,,,,,,,,,,,,,,,,,,,,,,,,,NC9,001,2019_Dec_05_1408,ProdSingRedo,3.2.4,59.88620279926669,
63,0,63,0,,,,,,,,,,,,,,,,,,,,,,,,,,,,512.3046914702281,None,history,aloud,red,44,153,510.304020638112,None,None,510.304020638112,None,,,,,,,,,,,,,,,,,,,,,,,,,,,,,,,,,NC9,001,2019_Dec_05_1408,ProdSingRedo,3.2.4,59.88620279926669,
64,0,64,0,,,,,,,,,,,,,,,,,,,,,,,,,,,,514.8220864525065,None,discovery,sing,blue,13,95,512.8214028694201,None,None,512.8214028694201,None,,,,,,,,,,,,,,,,,,,,,,,,,,,,,,,,,NC9,001,2019_Dec_05_1408,ProdSingRedo,3.2.4,59.88620279926669,
65,0,65,0,,,,,,,,,,,,,,,,,,,,,,,,,,,,517.3395716254599,None,majority,silent,yellow,79,176,515.3389135445468,None,None,515.3389135445468,None,,,,,,,,,,,,,,,,,,,,,,,,,,,,,,,,,NC9,001,2019_Dec_05_1408,ProdSingRedo,3.2.4,59.88620279926669,
66,0,66,0,,,,,,,,,,,,,,,,,,,,,,,,,,,,519.8570085931569,None,religion,silent,yellow,86,258,517.8563539332245,None,None,517.8563539332245,None,,,,,,,,,,,,,,,,,,,,,,,,,,,,,,,,,NC9,001,2019_Dec_05_1408,ProdSingRedo,3.2.4,59.88620279926669,
67,0,67,0,,,,,,,,,,,,,,,,,,,,,,,,,,,,522.3744496037252,None,crisis,aloud,red,45,79,520.373648150824,None,None,520.373648150824,None,,,,,,,,,,,,,,,,,,,,,,,,,,,,,,,,,NC9,001,2019_Dec_05_1408,ProdSingRedo,3.2.4,59.88620279926669,
68,0,68,0,,,,,,,,,,,,,,,,,,,,,,,,,,,,524.8918896813411,None,republic,silent,yellow,83,260,522.8912154282443,None,None,522.8912154282443,None,,,,,,,,,,,,,,,,,,,,,,,,,,,,,,,,,NC9,001,2019_Dec_05_1408,ProdSingRedo,3.2.4,59.88620279926669,
69,0,69,0,,,,,,,,,,,,,,,,,,,,,,,,,,,,527.4093331799377,None,incident,sing,blue,11,158,525.408661415102,None,None,525.408661415102,None,,,,,,,,,,,,,,,,,,,,,,,,,,,,,,,,,NC9,001,2019_Dec_05_1408,ProdSingRedo,3.2.4,59.88620279926669,
70,0,70,0,,,,,,,,,,,,,,,,,,,,,,,,,,,,529.9267651715782,None,search,silent,yellow,72,276,527.9260806555394,None,None,527.9260806555394,None,,,,,,,,,,,,,,,,,,,,,,,,,,,,,,,,,NC9,001,2019_Dec_05_1408,ProdSingRedo,3.2.4,59.88620279926669,
71,0,71,0,,,,,,,,,,,,,,,,,,,,,,,,,,,,532.4441869000439,None,smooth,aloud,red,57,292,530.4435474793427,None,None,530.4435474793427,None,,,,,,,,,,,,,,,,,,,,,,,,,,,,,,,,,NC9,001,2019_Dec_05_1408,ProdSingRedo,3.2.4,59.88620279926669,
72,0,72,0,,,,,,,,,,,,,,,,,,,,,,,,,,,,534.9616400396917,None,junior,silent,yellow,87,167,532.9607947354671,None,None,532.9607947354671,None,,,,,,,,,,,,,,,,,,,,,,,,,,,,,,,,,NC9,001,2019_Dec_05_1408,ProdSingRedo,3.2.4,59.88620279926669,
73,0,73,0,,,,,,,,,,,,,,,,,,,,,,,,,,,,537.4790617683902,None,agency,sing,blue,8,4,535.4782967024948,None,None,535.4782967024948,None,,,,,,,,,,,,,,,,,,,,,,,,,,,,,,,,,NC9,001,2019_Dec_05_1408,ProdSingRedo,3.2.4,59.88620279926669,
74,0,74,0,,,,,,,,,,,,,,,,,,,,,,,,,,,,539.9965102430433,None,signal,aloud,red,40,287,537.9958695780952,None,None,537.9958695780952,None,,,,,,,,,,,,,,,,,,,,,,,,,,,,,,,,,NC9,001,2019_Dec_05_1408,ProdSingRedo,3.2.4,59.88620279926669,
75,0,75,0,,,,,,,,,,,,,,,,,,,,,,,,,,,,542.5139145553112,None,atmosphere,sing,blue,25,12,540.5132900625467,None,None,540.5132900625467,None,,,,,,,,,,,,,,,,,,,,,,,,,,,,,,,,,NC9,001,2019_Dec_05_1408,ProdSingRedo,3.2.4,59.88620279926669,
76,0,76,0,,,,,,,,,,,,,,,,,,,,,,,,,,,,545.0313798240386,None,surprise,silent,yellow,67,317,543.0307379153091,None,None,543.0307379153091,None,,,,,,,,,,,,,,,,,,,,,,,,,,,,,,,,,NC9,001,2019_Dec_05_1408,ProdSingRedo,3.2.4,59.88620279926669,
77,0,77,0,,,,,,,,,,,,,,,,,,,,,,,,,,,,547.5488391839899,None,rural,sing,blue,6,269,545.5481767489109,None,None,545.5481767489109,None,,,,,,,,,,,,,,,,,,,,,,,,,,,,,,,,,NC9,001,2019_Dec_05_1408,ProdSingRedo,3.2.4,59.88620279926669,
78,0,78,0,,,,,,,,,,,,,,,,,,,,,,,,,,,,550.0662466064095,None,charter,silent,yellow,80,47,548.0656152716838,None,None,548.0656152716838,None,,,,,,,,,,,,,,,,,,,,,,,,,,,,,,,,,NC9,001,2019_Dec_05_1408,ProdSingRedo,3.2.4,59.88620279926669,
79,0,79,0,,,,,,,,,,,,,,,,,,,,,,,,,,,,552.5837040999904,None,property,aloud,red,36,242,550.5830279809888,None,None,550.5830279809888,None,,,,,,,,,,,,,,,,,,,,,,,,,,,,,,,,,NC9,001,2019_Dec_05_1408,ProdSingRedo,3.2.4,59.88620279926669,
80,0,80,0,,,,,,,,,,,,,,,,,,,,,,,,,,,,555.1011528857052,None,degree,aloud,red,48,89,553.1004814316984,None,None,553.1004814316984,None,,,,,,,,,,,,,,,,,,,,,,,,,,,,,,,,,NC9,001,2019_Dec_05_1408,ProdSingRedo,3.2.4,59.88620279926669,
81,0,81,0,,,,,,,,,,,,,,,,,,,,,,,,,,,,557.6185764803085,None,death,aloud,red,50,86,555.617897562217,None,None,555.617897562217,None,,,,,,,,,,,,,,,,,,,,,,,,,,,,,,,,,NC9,001,2019_Dec_05_1408,ProdSingRedo,3.2.4,59.88620279926669,
82,0,82,0,,,,,,,,,,,,,,,,,,,,,,,,,,,,560.1360094049014,None,gesture,aloud,red,59,137,558.1353706060909,None,None,558.1353706060909,None,,,,,,,,,,,,,,,,,,,,,,,,,,,,,,,,,NC9,001,2019_Dec_05_1408,ProdSingRedo,3.2.4,59.88620279926669,
83,0,83,0,,,,,,,,,,,,,,,,,,,,,,,,,,,,562.6534597454593,None,escape,aloud,red,34,118,560.6527870474383,None,None,560.6527870474383,None,,,,,,,,,,,,,,,,,,,,,,,,,,,,,,,,,NC9,001,2019_Dec_05_1408,ProdSingRedo,3.2.4,59.88620279926669,
84,0,84,0,,,,,,,,,,,,,,,,,,,,,,,,,,,,565.17086125887,None,executive,aloud,red,49,122,563.1701288484037,None,None,563.1701288484037,None,,,,,,,,,,,,,,,,,,,,,,,,,,,,,,,,,NC9,001,2019_Dec_05_1408,ProdSingRedo,3.2.4,59.88620279926669,
85,0,85,0,,,,,,,,,,,,,,,,,,,,,,,,,,,,567.6883361686487,None,weather,sing,blue,24,352,565.6876849299297,None,None,565.6876849299297,None,,,,,,,,,,,,,,,,,,,,,,,,,,,,,,,,,NC9,001,2019_Dec_05_1408,ProdSingRedo,3.2.4,59.88620279926669,
86,0,86,0,,,,,,,,,,,,,,,,,,,,,,,,,,,,570.2058073466178,None,native,sing,blue,28,199,568.204988166457,None,None,568.204988166457,None,,,,,,,,,,,,,,,,,,,,,,,,,,,,,,,,,NC9,001,2019_Dec_05_1408,ProdSingRedo,3.2.4,59.88620279926669,
87,0,87,0,,,,,,,,,,,,,,,,,,,,,,,,,,,,572.7232160130516,None,individual,sing,blue,29,160,570.7224273111206,None,None,570.7224273111206,None,,,,,,,,,,,,,,,,,,,,,,,,,,,,,,,,,NC9,001,2019_Dec_05_1408,ProdSingRedo,3.2.4,59.88620279926669,
88,0,88,0,,,,,,,,,,,,,,,,,,,,,,,,,,,,575.2406567125581,None,swift,sing,blue,23,320,573.2399998756591,None,None,573.2399998756591,None,,,,,,,,,,,,,,,,,,,,,,,,,,,,,,,,,NC9,001,2019_Dec_05_1408,ProdSingRedo,3.2.4,59.88620279926669,
89,0,89,0,,,,,,,,,,,,,,,,,,,,,,,,,,,,577.7580750200432,None,bucket,aloud,red,54,33,575.7574458622839,None,None,575.7574458622839,None,,,,,,,,,,,,,,,,,,,,,,,,,,,,,,,,,NC9,001,2019_Dec_05_1408,ProdSingRedo,3.2.4,59.88620279926669,
,,,,,,,,,,,,,,,,,,,,,,,,,,,,,,,,,,,,,,,,,,,578.2582339423243,None,k,93.2749584033154,578.2582339423243,None,,,,,,,,,,,,,,,,,,,,,,,,,,,NC9,001,2019_Dec_05_1408,ProdSingRedo,3.2.4,59.88620279926669,
,,,,0,0,0,0,,,,,,,,,,,,,,,,,,,,,,,,679.922575037228,None,,,,,,,,,,,,,,,,,direction,aloud,white,0,41,94,672.0709753967822,None,672.0709753967822,None,6,3.525779605144635,672.0709753967822,None,675.654730501119,None,676.1713902738411,None,676.1713902738411,None,r,3.7050982613582164,676.1713902738411,None,,,NC9,001,2019_Dec_05_1408,ProdSingRedo,3.2.4,59.88620279926669,
,,,,1,0,1,0,,,,,,,,,,,,,,,,,,,,,,,,685.9911964570638,None,,,,,,,,,,,,,,,,,passage,new_a,white,1,115,212,680.4395299511962,None,680.4395299511962,None,2,3.2929455342236906,680.4395299511962,None,683.7768825748935,None,684.2907069395296,None,684.2907069395296,None,f,1.6576747600920498,684.2907069395296,None,,,NC9,001,2019_Dec_05_1408,ProdSingRedo,3.2.4,59.88620279926669,
,,,,2,0,2,0,,,,,,,,,,,,,,,,,,,,,,,,691.1261266837828,None,,,,,,,,,,,,,,,,,reach,silent,white,2,84,253,686.5080540273339,None,686.5080540273339,None,1,2.8319337191060185,686.5080540273339,None,689.3754749784712,None,689.8924096771516,None,689.8924096771516,None,n,1.199563352856785,689.8924096771516,None,,,NC9,001,2019_Dec_05_1408,ProdSingRedo,3.2.4,59.88620279926669,
,,,,3,0,3,0,,,,,,,,,,,,,,,,,,,,,,,,696.3443896735553,None,,,,,,,,,,,,,,,,,incident,sing,white,3,11,158,691.6429176996462,None,691.6429176996462,None,6,2.760667535243556,691.6429176996462,None,694.4442456795368,None,694.9606379903853,None,694.9606379903853,None,r,1.3468615200836211,694.9606379903853,None,,,NC9,001,2019_Dec_05_1408,ProdSingRedo,3.2.4,59.88620279926669,
,,,,4,0,4,0,,,,,,,,,,,,,,,,,,,,,,,,699.5453637328465,None,,,,,,,,,,,,,,,,,burden,sing,white,4,5,36,696.8611897083465,None,696.8611897083465,None,6,1.6942309066653252,696.8611897083465,None,698.5993363212328,None,699.1119247623719,None,699.1119247623719,None,r,0.3954456818755716,699.1119247623719,None,,,NC9,001,2019_Dec_05_1408,ProdSingRedo,3.2.4,59.88620279926669,
,,,,5,0,5,0,,,,,,,,,,,,,,,,,,,,,,,,703.0131389154121,None,,,,,,,,,,,,,,,,,childhood,sing,white,5,9,49,700.0621758967172,None,700.0621758967172,None,6,1.5252558772917837,700.0621758967172,None,701.6317001564894,None,702.1461216455791,None,702.1461216455791,None,r,0.8330990448594093,702.1461216455791,None,,,NC9,001,2019_Dec_05_1408,ProdSingRedo,3.2.4,59.88620279926669,
,,,,6,0,6,0,,,,,,,,,,,,,,,,,,,,,,,,706.7475901986472,None,,,,,,,,,,,,,,,,,nation,new_b,white,6,122,198,703.5299377064221,None,703.5299377064221,None,6,2.1769939137157053,703.5299377064221,None,705.7484644260257,None,706.2641022452153,None,706.2641022452153,None,r,0.44276997330598533,706.2641022452153,None,,,NC9,001,2019_Dec_05_1408,ProdSingRedo,3.2.4,59.88620279926669,
,,,,7,0,7,0,,,,,,,,,,,,,,,,,,,,,,,,710.8821630834136,None,,,,,,,,,,,,,,,,,pancakes,aloud,white,7,58,210,707.2655054877978,None,707.2655054877978,None,6,1.9292326639406383,707.2655054877978,None,709.2342189643532,None,709.7484805982094,None,709.7484805982094,None,f,1.0861286739818752,709.7484805982094,None,,,NC9,001,2019_Dec_05_1408,ProdSingRedo,3.2.4,59.88620279926669,
,,,,8,0,8,0,,,,,,,,,,,,,,,,,,,,,,,,715.9170771380886,None,,,,,,,,,,,,,,,,,husband,new_b,white,8,140,156,711.3990103907418,None,711.3990103907418,None,1,1.9238383285701275,711.3990103907418,None,713.3697715066373,None,713.882932503242,None,713.882932503242,None,n,1.9993720862548798,713.882932503242,None,,,NC9,001,2019_Dec_05_1408,ProdSingRedo,3.2.4,59.88620279926669,
,,,,9,0,9,0,,,,,,,,,,,,,,,,,,,,,,,,720.7018685021903,None,,,,,,,,,,,,,,,,,foundation,new_c,white,9,159,132,716.4337496620137,None,716.4337496620137,None,2,1.632539551705122,716.4337496620137,None,718.1049620423,None,718.6177806253545,None,718.6177806253545,None,f,2.040493125328794,718.6177806253545,None,,,NC9,001,2019_Dec_05_1408,ProdSingRedo,3.2.4,59.88620279926669,
,,,,10,0,10,0,,,,,,,,,,,,,,,,,,,,,,,,725.0865363981575,None,,,,,,,,,,,,,,,,,pressure,new_c,white,10,176,232,721.2186915511265,None,721.2186915511265,None,5,2.071139916777611,721.2186915511265,None,723.335875673918,None,723.8527997985948,None,723.8527997985948,None,f,1.197017798665911,723.8527997985948,None,,,NC9,001,2019_Dec_05_1408,ProdSingRedo,3.2.4,59.88620279926669,
,,,,11,0,11,0,,,,,,,,,,,,,,,,,,,,,,,,729.9380131927319,None,,,,,,,,,,,,,,,,,power,new_a,white,11,91,230,725.603215453215,None,725.603215453215,None,2,2.1907147145830095,725.603215453215,None,727.8373520018067,None,728.3541955770925,None,728.3541955770925,None,f,1.5353164914995432,728.3541955770925,None,,,NC9,001,2019_Dec_05_1408,ProdSingRedo,3.2.4,59.88620279926669,
,,,,12,0,12,0,,,,,,,,,,,,,,,,,,,,,,,,733.389060493093,None,,,,,,,,,,,,,,,,,crisis,aloud,white,12,45,79,730.4548853801098,None,730.4548853801098,None,6,1.402519429801032,730.4548853801098,None,731.9061108848546,None,732.422110399697,None,732.422110399697,None,f,0.9312016195617616,732.422110399697,None,,,NC9,001,2019_Dec_05_1408,ProdSingRedo,3.2.4,59.88620279926669,
,,,,13,0,13,0,,,,,,,,,,,,,,,,,,,,,,,,736.5400263108313,None,,,,,,,,,,,,,,,,,executive,aloud,white,13,49,122,733.9063721268903,None,733.9063721268903,None,6,1.198952232953161,733.9063721268903,None,735.1561822600197,None,735.6563116367906,None,735.6563116367906,None,r,0.8488550449255854,735.6563116367906,None,,,NC9,001,2019_Dec_05_1408,ProdSingRedo,3.2.4,59.88620279926669,
,,,,14,0,14,0,,,,,,,,,,,,,,,,,,,,,,,,739.5909342821687,None,,,,,,,,,,,,,,,,,drove,new_b,white,14,147,106,737.0568826370873,None,737.0568826370873,None,1,1.4002030845731497,737.0568826370873,None,738.5072046800051,None,739.0074786732439,None,739.0074786732439,None,n,0.5373535568360239,739.0074786732439,None,,,NC9,001,2019_Dec_05_1408,ProdSingRedo,3.2.4,59.88620279926669,
,,,,15,0,15,0,,,,,,,,,,,,,,,,,,,,,,,,742.808651151834,None,,,,,,,,,,,,,,,,,personnel,new_b,white,15,141,219,740.1078235746827,None,740.1078235746827,None,1,1.2209068206138909,740.1078235746827,None,741.378354860004,None,741.8916977930348,None,741.8916977930348,None,n,0.8689513932913542,741.8916977930348,None,,,NC9,001,2019_Dec_05_1408,ProdSingRedo,3.2.4,59.88620279926669,
,,,,16,0,16,0,,,,,,,,,,,,,,,,,,,,,,,,747.7935044055339,None,,,,,,,,,,,,,,,,,threat,aloud,white,16,42,329,743.3254661147948,None,743.3254661147948,None,4,2.5149890682660043,743.3254661147948,None,745.8772747488692,None,746.3930357249919,None,746.3930357249919,None,f,1.3593914927914739,746.3930357249919,None,,,NC9,001,2019_Dec_05_1408,ProdSingRedo,3.2.4,59.88620279926669,
,,,,17,0,17,0,,,,,,,,,,,,,,,,,,,,,,,,751.1945450191852,None,,,,,,,,,,,,,,,,,state,new_c,white,17,174,303,748.3102198475972,None,748.3102198475972,None,1,1.2501901779323816,748.3102198475972,None,749.5952034112997,None,750.1108909905888,None,750.1108909905888,None,n,1.0414908207021654,750.1108909905888,None,,,NC9,001,2019_Dec_05_1408,ProdSingRedo,3.2.4,59.88620279926669,
,,,,18,0,18,0,,,,,,,,,,,,,,,,,,,,,,,,755.2958135977387,None,,,,,,,,,,,,,,,,,cover,new_b,white,18,146,77,751.7112299832515,None,751.7112299832515,None,3,2.2731511688325554,751.7112299832515,None,754.0453071305528,None,754.5455375832971,None,754.5455375832971,None,f,0.7023505556862801,754.5455375832971,None,,,NC9,001,2019_Dec_05_1408,ProdSingRedo,3.2.4,59.88620279926669,
,,,,19,0,19,0,,,,,,,,,,,,,,,,,,,,,,,,758.5634690443985,None,,,,,,,,,,,,,,,,,dozen,silent,white,19,60,102,755.8125193989836,None,755.8125193989836,None,3,1.8273091146256775,755.8125193989836,None,757.6806615642272,None,758.1966943563893,None,758.1966943563893,None,f,0.3233242416754365,758.1966943563893,None,,,NC9,001,2019_Dec_05_1408,ProdSingRedo,3.2.4,59.88620279926669,
,,,,20,0,20,0,,,,,,,,,,,,,,,,,,,,,,,,761.3142858920619,None,,,,,,,,,,,,,,,,,season,new_a,white,20,113,277,759.0801496545319,None,759.0801496545319,None,2,1.143438317347318,759.0801496545319,None,760.2638521993067,None,760.7807859652676,None,760.7807859652676,None,n,0.4987435503862798,760.7807859652676,None,,,NC9,001,2019_Dec_05_1408,ProdSingRedo,3.2.4,59.88620279926669,
,,,,21,0,21,0,,,,,,,,,,,,,,,,,,,,,,,,764.0818564351648,None,,,,,,,,,,,,,,,,,meeting,new_c,white,21,169,187,761.831143462332,None,761.831143462332,None,2,1.2886726732831448,761.831143462332,None,763.166074310895,None,763.6817177282646,None,763.6817177282646,None,n,0.36588086746633053,763.6817177282646,None,,,NC9,001,2019_Dec_05_1408,ProdSingRedo,3.2.4,59.88620279926669,
,,,,22,0,22,0,,,,,,,,,,,,,,,,,,,,,,,,767.4162091305479,None,,,,,,,,,,,,,,,,,leader,new_c,white,22,172,168,764.5986076425761,None,764.5986076425761,None,4,1.9126879619434476,764.5986076425761,None,766.551496387925,None,767.0660705789924,None,767.0660705789924,None,f,0.309277510503307,767.0660705789924,None,,,NC9,001,2019_Dec_05_1408,ProdSingRedo,3.2.4,59.88620279926669,
,,,,23,0,23,0,,,,,,,,,,,,,,,,,,,,,,,,770.6505213954952,None,,,,,,,,,,,,,,,,,rural,sing,white,23,6,269,767.9328583292663,None,767.9328583292663,None,6,1.4261717789340764,767.9328583292663,None,769.4017795554828,None,769.9169244358782,None,769.9169244358782,None,r,0.6903020143508911,769.9169244358782,None,,,NC9,001,2019_Dec_05_1408,ProdSingRedo,3.2.4,59.88620279926669,
,,,,24,0,24,0,,,,,,,,,,,,,,,,,,,,,,,,774.0848513876554,None,,,,,,,,,,,,,,,,,close,silent,white,24,62,53,771.1673366695177,None,771.1673366695177,None,4,1.9434908768162131,771.1673366695177,None,773.1534183821641,None,773.6681088882033,None,773.6681088882033,None,f,0.37060934701003134,773.6681088882033,None,,,NC9,001,2019_Dec_05_1408,ProdSingRedo,3.2.4,59.88620279926669,
,,,,25,0,25,0,,,,,,,,,,,,,,,,,,,,,,,,776.8357518948615,None,,,,,,,,,,,,,,,,,escape,aloud,white,25,34,118,774.6017297951039,None,774.6017297951039,None,6,1.1170077845454216,774.6017297951039,None,775.7529907540884,None,776.2688817291055,None,776.2688817291055,None,f,0.5220413571223617,776.2688817291055,None,,,NC9,001,2019_Dec_05_1408,ProdSingRedo,3.2.4,59.88620279926669,
,,,,26,0,26,0,,,,,,,,,,,,,,,,,,,,,,,,779.5198767809197,None,,,,,,,,,,,,,,,,,individual,sing,white,26,29,160,777.3553814289626,None,777.3553814289626,None,6,1.2431895155459642,777.3553814289626,None,778.6528927881736,None,779.1529736488592,None,779.1529736488592,None,r,0.325679462403059,779.1529736488592,None,,,NC9,001,2019_Dec_05_1408,ProdSingRedo,3.2.4,59.88620279926669,
,,,,27,0,27,0,,,,,,,,,,,,,,,,,,,,,,,,782.3040871927515,None,,,,,,,,,,,,,,,,,solution,aloud,white,27,35,294,780.0367321742233,None,780.0367321742233,None,6,1.3615992984268814,780.0367321742233,None,781.437063702615,None,781.9539797413163,None,781.9539797413163,None,r,0.3163963539991528,781.9539797413163,None,,,NC9,001,2019_Dec_05_1408,ProdSingRedo,3.2.4,59.88620279926669,
,,,,28,0,28,0,,,,,,,,,,,,,,,,,,,,,,,,785.1049225449096,None,,,,,,,,,,,,,,,,,gesture,aloud,white,28,59,137,782.8207793098409,None,782.8207793098409,None,6,1.2737392741255462,782.8207793098409,None,784.1377774530556,None,784.6547982995398,None,784.6547982995398,None,r,0.4153535629156977,784.6547982995398,None,,,NC9,001,2019_Dec_05_1408,ProdSingRedo,3.2.4,59.88620279926669,
,,,,29,0,29,0,,,,,,,,,,,,,,,,,,,,,,,,788.3391371553298,None,,,,,,,,,,,,,,,,,charter,silent,white,29,80,47,785.6217474599835,None,785.6217474599835,None,1,1.8562761824578047,785.6217474599835,None,787.5059385895729,None,788.0225125257857,None,788.0225125257857,None,n,0.2793292300775647,788.0225125257857,None,,,NC9,001,2019_Dec_05_1408,ProdSingRedo,3.2.4,59.88620279926669,
,,,,30,0,30,0,,,,,,,,,,,,,,,,,,,,,,,,791.857022899203,None,,,,,,,,,,,,,,,,,impact,silent,white,30,75,157,788.8560917582363,None,788.8560917582363,None,4,2.2776666118297726,788.8560917582363,None,791.1761722455267,None,791.6902976604179,None,791.6902976604179,None,f,0.13141185720451176,791.6902976604179,None,,,NC9,001,2019_Dec_05_1408,ProdSingRedo,3.2.4,59.88620279926669,
,,,,31,0,31,0,,,,,,,,,,,,,,,,,,,,,,,,794.5577792569529,None,,,,,,,,,,,,,,,,,property,aloud,white,31,36,242,792.3738089390099,None,792.3738089390099,None,5,1.4318006101530045,792.3738089390099,None,793.8463925286196,None,794.3577161233407,None,794.3577161233407,None,f,0.15184999722987413,794.3577161233407,None,,,NC9,001,2019_Dec_05_1408,ProdSingRedo,3.2.4,59.88620279926669,
,,,,32,0,32,0,,,,,,,,,,,,,,,,,,,,,,,,797.9922240087762,None,,,,,,,,,,,,,,,,,entrance,silent,white,32,88,115,795.0746352721471,None,795.0746352721471,None,3,1.5308128667529672,795.0746352721471,None,796.6428841112647,None,797.1586329583079,None,797.1586329583079,None,n,0.7987252012826502,797.1586329583079,None,,,NC9,001,2019_Dec_05_1408,ProdSingRedo,3.2.4,59.88620279926669,
,,,,33,0,33,0,,,,,,,,,,,,,,,,,,,,,,,,801.7767168106511,None,,,,,,,,,,,,,,,,,produce,new_c,white,33,166,239,798.5089518912137,None,798.5089518912137,None,4,2.4003166002221406,798.5089518912137,None,800.945053041447,None,801.4599596941844,None,801.4599596941844,None,f,0.28116258908994496,801.4599596941844,None,,,NC9,001,2019_Dec_05_1408,ProdSingRedo,3.2.4,59.88620279926669,
,,,,34,0,34,0,,,,,,,,,,,,,,,,,,,,,,,,804.5274832758587,None,,,,,,,,,,,,,,,,,balance,new_a,white,34,95,17,802.2935495008714,None,802.2935495008714,None,5,1.3995331856422126,802.2935495008714,None,803.7286025732756,None,804.2440995085053,None,804.2440995085053,None,f,0.24874028493650258,804.2440995085053,None,,,NC9,001,2019_Dec_05_1408,ProdSingRedo,3.2.4,59.88620279926669,
,,,,35,0,35,0,,,,,,,,,,,,,,,,,,,,,,,,806.9282937480602,None,,,,,,,,,,,,,,,,,notice,new_c,white,35,165,201,805.0442525215913,None,805.0442525215913,None,2,1.0247934167273343,805.0442525215913,None,806.1113428771496,None,806.6282250164077,None,806.6282250164077,None,n,0.26457030372694135,806.6282250164077,None,,,NC9,001,2019_Dec_05_1408,ProdSingRedo,3.2.4,59.88620279926669,
,,,,36,0,36,0,,,,,,,,,,,,,,,,,,,,,,,,812.6466957558878,None,,,,,,,,,,,,,,,,,collection,new_c,white,36,157,54,807.4449902190827,None,807.4449902190827,None,3,2.783714673947543,807.4449902190827,None,810.2642499713693,None,810.7793618855067,None,810.7793618855067,None,f,1.8252869772259146,810.7793618855067,None,,,NC9,001,2019_Dec_05_1408,ProdSingRedo,3.2.4,59.88620279926669,
,,,,37,0,37,0,,,,,,,,,,,,,,,,,,,,,,,,815.4809091221541,None,,,,,,,,,,,,,,,,,quick,new_c,white,37,160,248,813.1680594389327,None,813.1680594389327,None,2,1.2686192428227514,813.1680594389327,None,814.4865248911083,None,814.9973228920717,None,814.9973228920717,None,n,0.4469311845023185,814.9973228920717,None,,,NC9,001,2019_Dec_05_1408,ProdSingRedo,3.2.4,59.88620279926669,
,,,,38,0,38,0,,,,,,,,,,,,,,,,,,,,,,,,817.8649854918476,None,,,,,,,,,,,,,,,,,force,aloud,white,38,52,131,815.9976130572613,None,815.9976130572613,None,3,1.0145735691767186,815.9976130572613,None,817.047922660131,None,817.5648956121877,None,817.5648956121877,None,f,0.2555353748612106,817.5648956121877,None,,,NC9,001,2019_Dec_05_1408,ProdSingRedo,3.2.4,59.88620279926669,
,,,,39,0,39,0,,,,,,,,,,,,,,,,,,,,,,,,820.6325143605936,None,,,,,,,,,,,,,,,,,welcome,sing,white,39,19,354,818.381809473969,None,818.381809473969,None,5,1.3982039615511894,818.381809473969,None,819.8171828787308,None,820.3324244809337,None,820.3324244809337,None,r,0.2635334220249206,820.3324244809337,None,,,NC9,001,2019_Dec_05_1408,ProdSingRedo,3.2.4,59.88620279926669,
,,,,40,0,40,0,,,,,,,,,,,,,,,,,,,,,,,,824.1002422708552,None,,,,,,,,,,,,,,,,,corner,new_a,white,40,103,69,821.1491819084622,None,821.1491819084622,None,4,1.9986381207127124,821.1491819084622,None,823.1861719035078,None,823.7001020088792,None,823.7001020088792,None,f,0.36764331767335534,823.7001020088792,None,,,NC9,001,2019_Dec_05_1408,ProdSingRedo,3.2.4,59.88620279926669,
,,,,41,0,41,0,,,,,,,,,,,,,,,,,,,,,,,,826.6676607339177,None,,,,,,,,,,,,,,,,,community,new_a,white,41,109,63,824.6170954871923,None,824.6170954871923,None,1,1.2507767281495035,824.6170954871923,None,825.9174627808388,None,826.4175710098352,None,826.4175710098352,None,n,0.2099772656802088,826.4175710098352,None,,,NC9,001,2019_Dec_05_1408,ProdSingRedo,3.2.4,59.88620279926669,
,,,,42,0,42,0,,,,,,,,,,,,,,,,,,,,,,,,829.8686155111063,None,,,,,,,,,,,,,,,,,citizen,new_a,white,42,106,50,827.1843684010673,None,827.1843684010673,None,4,2.027030456578359,827.1843684010673,None,829.2546337794047,None,829.768480847124,None,829.768480847124,None,f,0.05909168650396168,829.768480847124,None,,,NC9,001,2019_Dec_05_1408,ProdSingRedo,3.2.4,59.88620279926669,
,,,,43,0,43,0,,,,,,,,,,,,,,,,,,,,,,,,832.4361173226498,None,,,,,,,,,,,,,,,,,goose,new_a,white,43,98,138,830.3853782257065,None,830.3853782257065,None,1,1.377936250763014,830.3853782257065,None,831.8024550525006,None,832.3194199185818,None,832.3194199185818,None,n,0.08374266419559717,832.3194199185818,None,,,NC9,001,2019_Dec_05_1408,ProdSingRedo,3.2.4,59.88620279926669,
,,,,44,0,44,0,,,,,,,,,,,,,,,,,,,,,,,,835.3536734040827,None,,,,,,,,,,,,,,,,,relation,sing,white,44,18,257,832.9529210894834,None,832.9529210894834,None,5,1.7226098692044616,832.9529210894834,None,834.7231273774523,None,835.236942411866,None,835.236942411866,None,f,0.07808086671866477,835.236942411866,None,,,NC9,001,2019_Dec_05_1408,ProdSingRedo,3.2.4,59.88620279926669,
,,,,45,0,45,0,,,,,,,,,,,,,,,,,,,,,,,,838.2879066744354,None,,,,,,,,,,,,,,,,,review,silent,white,45,71,263,835.8704410947394,None,835.8704410947394,None,4,1.564504060195759,835.8704410947394,None,837.4744405846577,None,837.9877051450312,None,837.9877051450312,None,f,0.25556243234314024,837.9877051450312,None,,,NC9,001,2019_Dec_05_1408,ProdSingRedo,3.2.4,59.88620279926669,
,,,,46,0,46,0,,,,,,,,,,,,,,,,,,,,,,,,841.5555431500543,None,,,,,,,,,,,,,,,,,debate,new_b,white,46,123,87,838.8047402976081,None,838.8047402976081,None,3,1.526175200007856,838.8047402976081,None,840.3884378664661,None,840.8885532484856,None,840.8885532484856,None,f,0.6181631579529494,840.8885532484856,None,,,NC9,001,2019_Dec_05_1408,ProdSingRedo,3.2.4,59.88620279926669,
,,,,47,0,47,0,,,,,,,,,,,,,,,,,,,,,,,,845.656835986767,None,,,,,,,,,,,,,,,,,institute,new_c,white,47,153,162,842.0724081844091,None,842.0724081844091,None,1,1.9141226157080382,842.0724081844091,None,844.0271582785062,None,844.5398334895726,None,844.5398334895726,None,n,1.07052630931139,844.5398334895726,None,,,NC9,001,2019_Dec_05_1408,ProdSingRedo,3.2.4,59.88620279926669,
,,,,48,0,48,0,,,,,,,,,,,,,,,,,,,,,,,,848.3576536120381,None,,,,,,,,,,,,,,,,,native,sing,white,48,28,199,846.1735044675879,None,846.1735044675879,None,6,1.3009482459165156,846.1735044675879,None,847.5239720596,None,848.0241166758351,None,848.0241166758351,None,r,0.29042983637191355,848.0241166758351,None,,,NC9,001,2019_Dec_05_1408,ProdSingRedo,3.2.4,59.88620279926669,
,,,,49,0,49,0,,,,,,,,,,,,,,,,,,,,,,,,851.2918896814808,None,,,,,,,,,,,,,,,,,discovery,sing,white,49,13,95,848.8759424148593,None,848.8759424148593,None,6,1.6063920308370143,848.8759424148593,None,850.5289381449111,None,851.0418285694905,None,851.0418285694905,None,r,0.20843998133204877,851.0418285694905,None,,,NC9,001,2019_Dec_05_1408,ProdSingRedo,3.2.4,59.88620279926669,
,,,,50,0,50,0,,,,,,,,,,,,,,,,,,,,,,,,854.2761619826779,None,,,,,,,,,,,,,,,,,degree,aloud,white,50,48,89,851.8085817983374,None,851.8085817983374,None,4,1.5293670170940459,851.8085817983374,None,853.375707608182,None,853.8926864692476,None,853.8926864692476,None,f,0.3415023279376328,853.8926864692476,None,,,NC9,001,2019_Dec_05_1408,ProdSingRedo,3.2.4,59.88620279926669,
,,,,51,0,51,0,,,,,,,,,,,,,,,,,,,,,,,,858.7775188856758,None,,,,,,,,,,,,,,,,,tennis,sing,white,51,4,323,854.7929819214623,None,854.7929819214623,None,6,1.5768163313623518,854.7929819214623,None,856.4123181803152,None,856.926954572089,None,856.926954572089,None,r,1.8106832411140203,856.926954572089,None,,,NC9,001,2019_Dec_05_1408,ProdSingRedo,3.2.4,59.88620279926669,
,,,,52,0,52,0,,,,,,,,,,,,,,,,,,,,,,,,862.845399498241,None,,,,,,,,,,,,,,,,,throw,new_c,white,52,158,330,859.2943571738433,None,859.2943571738433,None,3,1.4832344863098115,859.2943571738433,None,860.8113363459706,None,861.3282057342585,None,861.3282057342585,None,f,1.481215148465708,861.3282057342585,None,,,NC9,001,2019_Dec_05_1408,ProdSingRedo,3.2.4,59.88620279926669,
,,,,53,0,53,0,,,,,,,,,,,,,,,,,,,,,,,,867.3467551572248,None,,,,,,,,,,,,,,,,,judge,silent,white,53,64,166,863.3621398205869,None,863.3621398205869,None,1,1.8712310406845063,863.3621398205869,None,865.281384955626,None,865.7962975173723,None,865.7962975173723,None,n,1.5089954314753413,865.7962975173723,None,,,NC9,001,2019_Dec_05_1408,ProdSingRedo,3.2.4,59.88620279926669,
,,,,54,0,54,0,,,,,,,,,,,,,,,,,,,,,,,,870.9812552677467,None,,,,,,,,,,,,,,,,,surprise,silent,white,54,67,317,867.8634842836764,None,867.8634842836764,None,5,1.6335985148325562,867.8634842836764,None,869.5345333877485,None,870.0475507013034,None,870.0475507013034,None,f,0.8896622825413942,870.0475507013034,None,,,NC9,001,2019_Dec_05_1408,ProdSingRedo,3.2.4,59.88620279926669,
,,,,55,0,55,0,,,,,,,,,,,,,,,,,,,,,,,,873.8488174136728,None,,,,,,,,,,,,,,,,,article,new_c,white,55,175,11,871.4980291782413,None,871.4980291782413,None,1,1.3909557412844151,871.4980291782413,None,872.9317247257568,None,873.4487188260537,None,873.4487188260537,None,n,0.3519924364518374,873.4487188260537,None,,,NC9,001,2019_Dec_05_1408,ProdSingRedo,3.2.4,59.88620279926669,
,,,,56,0,56,0,,,,,,,,,,,,,,,,,,,,,,,,877.8833399163559,None,,,,,,,,,,,,,,,,,division,new_c,white,56,179,101,874.3671422929037,None,874.3671422929037,None,5,1.9217608331236988,874.3671422929037,None,876.349452480441,None,876.8497087464202,None,876.8497087464202,None,f,0.9910086116287857,876.8497087464202,None,,,NC9,001,2019_Dec_05_1408,ProdSingRedo,3.2.4,59.88620279926669,
,,,,57,0,57,0,,,,,,,,,,,,,,,,,,,,,,,,880.567496524658,None,,,,,,,,,,,,,,,,,orchestra,aloud,white,57,32,206,878.4002208118327,None,878.4002208118327,None,6,1.3200618270784616,878.4002208118327,None,879.7693096683361,None,880.2841124460101,None,880.2841124460101,None,r,0.24418907705694437,880.2841124460101,None,,,NC9,001,2019_Dec_05_1408,ProdSingRedo,3.2.4,59.88620279926669,
,,,,58,0,58,0,,,,,,,,,,,,,,,,,,,,,,,,884.3020283572841,None,,,,,,,,,,,,,,,,,republic,silent,white,58,83,260,881.0853819577023,None,881.0853819577023,None,6,2.3787684929557145,881.0853819577023,None,883.5182863150258,None,884.018572748173,None,884.018572748173,None,r,0.24550150684081018,884.018572748173,None,,,NC9,001,2019_Dec_05_1408,ProdSingRedo,3.2.4,59.88620279926669,
,,,,59,0,59,0,,,,,,,,,,,,,,,,,,,,,,,,887.2196040318813,None,,,,,,,,,,,,,,,,,count,new_c,white,59,178,72,884.8188364782836,None,884.8188364782836,None,4,1.5413026644382626,884.8188364782836,None,886.4024743346963,None,886.9194839850534,None,886.9194839850534,None,f,0.26438743411563337,886.9194839850534,None,,,NC9,001,2019_Dec_05_1408,ProdSingRedo,3.2.4,59.88620279926669,
,,,,60,0,60,0,,,,,,,,,,,,,,,,,,,,,,,,889.853725963505,None,,,,,,,,,,,,,,,,,weight,new_a,white,60,92,353,887.7363810525276,None,887.7363810525276,None,2,1.2953760172240436,887.7363810525276,None,889.06991456775,None,889.5869441223331,None,889.5869441223331,None,n,0.2207136880606413,889.5869441223331,None,,,NC9,001,2019_Dec_05_1408,ProdSingRedo,3.2.4,59.88620279926669,
,,,,61,0,61,0,,,,,,,,,,,,,,,,,,,,,,,,894.8219101142604,None,,,,,,,,,,,,,,,,,bitter,silent,white,61,81,23,890.3704622429796,None,890.3704622429796,None,4,2.197118563344702,890.3704622429796,None,892.6082956762984,None,893.1212227991782,None,893.1212227991782,None,f,1.6541573237627745,893.1212227991782,None,,,NC9,001,2019_Dec_05_1408,ProdSingRedo,3.2.4,59.88620279926669,
,,,,62,0,62,0,,,,,,,,,,,,,,,,,,,,,,,,897.956207140116,None,,,,,,,,,,,,,,,,,quantity,new_b,white,62,142,245,895.3385425189044,None,895.3385425189044,None,2,1.2288339589722455,895.3385425189044,None,896.6224475263152,None,897.1226089363918,None,897.1226089363918,None,n,0.7966355769895017,897.1226089363918,None,,,NC9,001,2019_Dec_05_1408,ProdSingRedo,3.2.4,59.88620279926669,
,,,,63,0,63,0,,,,,,,,,,,,,,,,,,,,,,,,900.7903850520961,None,,,,,,,,,,,,,,,,,revolution,new_a,white,63,101,264,898.4758046409115,None,898.4758046409115,None,4,1.4352511810138822,898.4758046409115,None,899.9605673928745,None,900.4735333907884,None,900.4735333907884,None,r,0.2775474980007857,900.4735333907884,None,,,NC9,001,2019_Dec_05_1408,ProdSingRedo,3.2.4,59.88620279926669,
,,,,64,0,64,0,,,,,,,,,,,,,,,,,,,,,,,,904.058073154185,None,,,,,,,,,,,,,,,,,health,new_c,white,64,168,149,901.3070588200353,None,901.3070588200353,None,3,1.3799391055945307,901.3070588200353,None,902.7261316599324,None,903.2411586702801,None,903.2411586702801,None,f,0.7816623696126044,903.2411586702801,None,,,NC9,001,2019_Dec_05_1408,ProdSingRedo,3.2.4,59.88620279926669,
,,,,65,0,65,0,,,,,,,,,,,,,,,,,,,,,,,,908.025950967567,None,,,,,,,,,,,,,,,,,angle,new_b,white,65,121,7,904.5747484769672,None,904.5747484769672,None,3,2.0402800887823105,904.5747484769672,None,906.6608028216287,None,907.1618891526014,None,907.1618891526014,None,f,0.828763983445242,907.1618891526014,None,,,NC9,001,2019_Dec_05_1408,ProdSingRedo,3.2.4,59.88620279926669,
,,,,66,0,66,0,,,,,,,,,,,,,,,,,,,,,,,,913.694355929736,None,,,,,,,,,,,,,,,,,majority,silent,white,66,79,176,908.542675428791,None,908.542675428791,None,5,3.8240171547513455,908.542675428791,None,912.4133758991957,None,912.9274148554541,None,912.9274148554541,None,f,0.718893080484122,912.9274148554541,None,,,NC9,001,2019_Dec_05_1408,ProdSingRedo,3.2.4,59.88620279926669,
,,,,67,0,67,0,,,,,,,,,,,,,,,,,,,,,,,,916.278487968957,None,,,,,,,,,,,,,,,,,number,new_c,white,67,173,203,914.210987090366,None,914.210987090366,None,5,1.2431419321801513,914.210987090366,None,915.4991285714786,None,916.0116193580907,None,916.0116193580907,None,f,0.21852267673239112,916.0116193580907,None,,,NC9,001,2019_Dec_05_1408,ProdSingRedo,3.2.4,59.88620279926669,
,,,,68,0,68,0,,,,,,,,,,,,,,,,,,,,,,,,918.9126214075368,None,,,,,,,,,,,,,,,,,raise,aloud,white,68,38,250,916.7953091519885,None,916.7953091519885,None,1,1.2987208475824445,916.7953091519885,None,918.1311036541592,None,918.6458849727642,None,918.6458849727642,None,n,0.22426875587552786,918.6458849727642,None,,,NC9,001,2019_Dec_05_1408,ProdSingRedo,3.2.4,59.88620279926669,
,,,,69,0,69,0,,,,,,,,,,,,,,,,,,,,,,,,923.9974886563141,None,,,,,,,,,,,,,,,,,carry,new_b,white,69,137,43,919.4293066826649,None,919.4293066826649,None,1,2.3684211345389485,919.4293066826649,None,921.8521693968214,None,922.3635673213284,None,922.3635673213284,None,n,1.5860667845699936,922.3635673213284,None,,,NC9,001,2019_Dec_05_1408,ProdSingRedo,3.2.4,59.88620279926669,
,,,,70,0,70,0,,,,,,,,,,,,,,,,,,,,,,,,927.3151815787423,None,,,,,,,,,,,,,,,,,taste,aloud,white,70,43,322,924.5143468484748,None,924.5143468484748,None,4,1.1073978124186397,924.5143468484748,None,925.6657085723709,None,926.1815022034571,None,926.1815022034571,None,f,1.0959709647577256,926.1815022034571,None,,,NC9,001,2019_Dec_05_1408,ProdSingRedo,3.2.4,59.88620279926669,
,,,,71,0,71,0,,,,,,,,,,,,,,,,,,,,,,,,930.5495090829208,None,,,,,,,,,,,,,,,,,addition,new_a,white,71,97,2,927.8320391490124,None,927.8320391490124,None,5,2.0452614130917937,927.8320391490124,None,929.9191266433336,None,930.4327553873882,None,930.4327553873882,None,f,0.06847929186187685,930.4327553873882,None,,,NC9,001,2019_Dec_05_1408,ProdSingRedo,3.2.4,59.88620279926669,
,,,,72,0,72,0,,,,,,,,,,,,,,,,,,,,,,,,933.5337540160399,None,,,,,,,,,,,,,,,,,position,aloud,white,72,30,229,931.0668014343828,None,931.0668014343828,None,5,1.7382906069979072,931.0668014343828,None,932.8501298436895,None,933.3555829583202,None,933.3555829583202,None,f,0.14546885155141354,933.3555829583202,None,,,NC9,001,2019_Dec_05_1408,ProdSingRedo,3.2.4,59.88620279926669,
,,,,73,0,73,0,,,,,,,,,,,,,,,,,,,,,,,,936.2679617840331,None,,,,,,,,,,,,,,,,,watch,new_c,white,73,162,351,934.0506072321441,None,934.0506072321441,None,3,1.450404147617519,934.0506072321441,None,935.5354999830015,None,936.0512373228557,None,936.0512373228557,None,f,0.1776607024949044,936.0512373228557,None,,,NC9,001,2019_Dec_05_1408,ProdSingRedo,3.2.4,59.88620279926669,
,,,,74,0,74,0,,,,,,,,,,,,,,,,,,,,,,,,939.969058067305,None,,,,,,,,,,,,,,,,,search,silent,white,74,72,276,936.784790742211,None,936.784790742211,None,3,2.18785504787229,936.784790742211,None,939.0186495657545,None,939.5355155330617,None,939.5355155330617,None,f,0.38934910320676863,939.5355155330617,None,,,NC9,001,2019_Dec_05_1408,ProdSingRedo,3.2.4,59.88620279926669,
,,,,75,0,75,0,,,,,,,,,,,,,,,,,,,,,,,,944.8539128759876,None,,,,,,,,,,,,,,,,,minor,sing,white,75,17,191,940.4857529834844,None,940.4857529834844,None,6,3.374922638060525,940.4857529834844,None,943.9046090545598,None,944.4204085948877,None,944.4204085948877,None,r,0.39202776621095836,944.4204085948877,None,,,NC9,001,2019_Dec_05_1408,ProdSingRedo,3.2.4,59.88620279926669,
,,,,76,0,76,0,,,,,,,,,,,,,,,,,,,,,,,,947.3546826066449,None,,,,,,,,,,,,,,,,,series,sing,white,76,14,279,945.3705853999127,None,945.3705853999127,None,6,1.2258729056920856,945.3705853999127,None,946.63758338755,None,947.1546169852372,None,947.1546169852372,None,r,0.15353096509352326,947.1546169852372,None,,,NC9,001,2019_Dec_05_1408,ProdSingRedo,3.2.4,59.88620279926669,
,,,,77,0,77,0,,,,,,,,,,,,,,,,,,,,,,,,950.709571407875,None,,,,,,,,,,,,,,,,,conference,silent,white,77,77,66,947.8714297711849,None,947.8714297711849,None,4,2.1729446633253247,947.8714297711849,None,950.0886711182538,None,950.6056325633544,None,950.6056325633544,None,r,0.07030985155142844,950.6056325633544,None,,,NC9,001,2019_Dec_05_1408,ProdSingRedo,3.2.4,59.88620279926669,
,,,,78,0,78,0,,,,,,,,,,,,,,,,,,,,,,,,956.157343542669,None,,,,,,,,,,,,,,,,,poetry,sing,white,78,22,225,951.2391492843162,None,951.2391492843162,None,6,1.3967811258044094,951.2391492843162,None,952.6781586175784,None,953.1898137407843,None,953.1898137407843,None,r,2.9260346270166337,953.1898137407843,None,,,NC9,001,2019_Dec_05_1408,ProdSingRedo,3.2.4,59.88620279926669,
,,,,79,0,79,0,,,,,,,,,,,,,,,,,,,,,,,,959.3916486545932,None,,,,,,,,,,,,,,,,,service,new_a,white,79,119,280,956.6756208385341,None,956.6756208385341,None,6,1.0799415938090533,956.6756208385341,None,957.7950003265869,None,958.3078773780726,None,958.3078773780726,None,r,1.0400057847145945,958.3078773780726,None,,,NC9,001,2019_Dec_05_1408,ProdSingRedo,3.2.4,59.88620279926669,
,,,,80,0,80,0,,,,,,,,,,,,,,,,,,,,,,,,962.726049244171,None,,,,,,,,,,,,,,,,,turkey,new_b,white,80,127,342,959.9097318849526,None,959.9097318849526,None,1,1.2695721541531384,959.9097318849526,None,961.2421115816105,None,961.7424129426945,None,961.7424129426945,None,n,0.9410423554945737,961.7424129426945,None,,,NC9,001,2019_Dec_05_1408,ProdSingRedo,3.2.4,59.88620279926669,
,,,,81,0,81,0,,,,,,,,,,,,,,,,,,,,,,,,966.0770732194651,None,,,,,,,,,,,,,,,,,touch,new_b,white,81,139,332,963.2428741592448,None,963.2428741592448,None,1,1.872466341825202,963.2428741592448,None,965.1617056613322,None,965.6769189622719,None,965.6769189622719,None,n,0.3662326110061258,965.6769189622719,None,,,NC9,001,2019_Dec_05_1408,ProdSingRedo,3.2.4,59.88620279926669,
,,,,82,0,82,0,,,,,,,,,,,,,,,,,,,,,,,,969.7782394781243,None,,,,,,,,,,,,,,,,,device,silent,white,82,61,93,966.5939087085426,None,966.5939087085426,None,5,2.225212025688961,966.5939087085426,None,968.8650066400878,None,969.3779427818954,None,969.3779427818954,None,f,0.3609567675739527,969.3779427818954,None,,,NC9,001,2019_Dec_05_1408,ProdSingRedo,3.2.4,59.88620279926669,
,,,,83,0,83,0,,,,,,,,,,,,,,,,,,,,,,,,972.7958002246451,None,,,,,,,,,,,,,,,,,equipment,new_c,white,83,151,116,970.2961190021597,None,970.2961190021597,None,5,1.6185543988831341,970.2961190021597,None,971.9633636146318,None,972.4790381321218,None,972.4790381321218,None,r,0.2675742751453072,972.4790381321218,None,,,NC9,001,2019_Dec_05_1408,ProdSingRedo,3.2.4,59.88620279926669,
,,,,84,0,84,0,,,,,,,,,,,,,,,,,,,,,,,,976.396879091626,None,,,,,,,,,,,,,,,,,block,sing,white,84,26,25,973.3127128423657,None,973.3127128423657,None,1,2.217695721425116,973.3127128423657,None,975.5799888661131,None,976.0801390802953,None,976.0801390802953,None,n,0.28237145487219095,976.0801390802953,None,,,NC9,001,2019_Dec_05_1408,ProdSingRedo,3.2.4,59.88620279926669,
,,,,85,0,85,0,,,,,,,,,,,,,,,,,,,,,,,,979.1811010106467,None,,,,,,,,,,,,,,,,,nature,new_a,white,85,116,200,976.9137413271237,None,976.9137413271237,None,3,1.36058854078874,976.9137413271237,None,978.3140554393176,None,978.8309378898703,None,978.8309378898703,None,f,0.31538621825166047,978.8309378898703,None,,,NC9,001,2019_Dec_05_1408,ProdSingRedo,3.2.4,59.88620279926669,
,,,,86,0,86,0,,,,,,,,,,,,,,,,,,,,,,,,984.1992638576776,None,,,,,,,,,,,,,,,,,provision,new_b,white,86,145,243,979.6977670034394,None,979.6977670034394,None,3,3.728274776833132,979.6977670034394,None,983.4823145417031,None,983.9824255695567,None,983.9824255695567,None,f,0.17957430006936193,983.9824255695567,None,,,NC9,001,2019_Dec_05_1408,ProdSingRedo,3.2.4,59.88620279926669,
,,,,87,0,87,0,,,,,,,,,,,,,,,,,,,,,,,,987.7337484178133,None,,,,,,,,,,,,,,,,,history,aloud,white,87,44,153,984.7160726005677,None,984.7160726005677,None,5,1.2217427950818092,984.7160726005677,None,985.9896218522917,None,986.4998746661004,None,986.4998746661004,None,f,1.1901586423628032,986.4998746661004,None,,,NC9,001,2019_Dec_05_1408,ProdSingRedo,3.2.4,59.88620279926669,
,,,,88,0,88,0,,,,,,,,,,,,,,,,,,,,,,,,991.4015223565511,None,,,,,,,,,,,,,,,,,track,aloud,white,88,33,334,988.2505571607035,None,988.2505571607035,None,5,2.3671202117111534,988.2505571607035,None,990.6560958011542,None,991.1681036013179,None,991.1681036013179,None,f,0.18536889529787004,991.1681036013179,None,,,NC9,001,2019_Dec_05_1408,ProdSingRedo,3.2.4,59.88620279926669,
,,,,89,0,89,0,,,,,,,,,,,,,,,,,,,,,,,,993.8522810467985,None,,,,,,,,,,,,,,,,,permit,aloud,white,89,39,218,991.9183435395826,None,991.9183435395826,None,6,1.2350157522596419,991.9183435395826,None,993.2041226469446,None,993.718868822325,None,993.718868822325,None,r,0.09855850413441658,993.718868822325,None,,,NC9,001,2019_Dec_05_1408,ProdSingRedo,3.2.4,59.88620279926669,
,,,,90,0,90,0,,,,,,,,,,,,,,,,,,,,,,,,997.6034300448373,None,,,,,,,,,,,,,,,,,suspect,new_c,white,90,171,318,994.3691221338231,None,994.3691221338231,None,4,2.3040106859989464,994.3691221338231,None,996.7221778873354,None,997.2366519356146,None,997.2366519356146,None,f,0.324656575685367,997.2366519356146,None,,,NC9,001,2019_Dec_05_1408,ProdSingRedo,3.2.4,59.88620279926669,
,,,,91,0,91,0,,,,,,,,,,,,,,,,,,,,,,,,1000.4042694400996,None,,,,,,,,,,,,,,,,,dispute,silent,white,91,78,99,998.1202443856746,None,998.1202443856746,None,6,1.4168945795390755,998.1202443856746,None,999.5738462591544,None,1000.0875244527124,None,1000.0875244527124,None,r,0.2736637007910758,1000.0875244527124,None,,,NC9,001,2019_Dec_05_1408,ProdSingRedo,3.2.4,59.88620279926669,
,,,,92,0,92,0,,,,,,,,,,,,,,,,,,,,,,,,1003.0050789790694,None,,,,,,,,,,,,,,,,,grade,new_a,white,92,110,140,1000.9210965321399,None,1000.9210965321399,None,1,1.295783119276166,1000.9210965321399,None,1002.2547056209296,None,1002.7716664439067,None,1002.7716664439067,None,n,0.19715526164509356,1002.7716664439067,None,,,NC9,001,2019_Dec_05_1408,ProdSingRedo,3.2.4,59.88620279926669,
,,,,93,0,93,0,,,,,,,,,,,,,,,,,,,,,,,,1007.5897891717032,None,,,,,,,,,,,,,,,,,display,new_b,white,93,128,98,1003.521885544993,None,1003.521885544993,None,3,2.654666434507817,1003.521885544993,None,1006.2249790851492,None,1006.739558252506,None,1006.739558252506,None,f,0.812988079385832,1006.739558252506,None,,,NC9,001,2019_Dec_05_1408,ProdSingRedo,3.2.4,59.88620279926669,
,,,,94,0,94,0,,,,,,,,,,,,,,,,,,,,,,,,1010.3739902533125,None,,,,,,,,,,,,,,,,,accident,new_b,white,94,132,0,1008.106532293139,None,1008.106532293139,None,3,1.3901878762990236,1008.106532293139,None,1009.5413322097156,None,1010.0572362467647,None,1010.0572362467647,None,f,0.2791043755132705,1010.0572362467647,None,,,NC9,001,2019_Dec_05_1408,ProdSingRedo,3.2.4,59.88620279926669,
,,,,95,0,95,0,,,,,,,,,,,,,,,,,,,,,,,,1013.3081949115731,None,,,,,,,,,,,,,,,,,benefit,sing,white,95,1,20,1010.8907392837573,None,1010.8907392837573,None,5,1.4615003995131701,1010.8907392837573,None,1012.3958953914698,None,1012.9080599364825,None,1012.9080599364825,None,f,0.3564397697336972,1012.9080599364825,None,,,NC9,001,2019_Dec_05_1408,ProdSingRedo,3.2.4,59.88620279926669,
,,,,96,0,96,0,,,,,,,,,,,,,,,,,,,,,,,,1016.8259826896247,None,,,,,,,,,,,,,,,,,sight,new_b,white,96,133,286,1013.8249563819263,None,1013.8249563819263,None,6,2.159244699869305,1013.8249563819263,None,1016.0255814967677,None,1016.542560668895,None,1016.542560668895,None,f,0.24953271890990436,1016.542560668895,None,,,NC9,001,2019_Dec_05_1408,ProdSingRedo,3.2.4,59.88620279926669,
,,,,97,0,97,0,,,,,,,,,,,,,,,,,,,,,,,,1019.6435387711972,None,,,,,,,,,,,,,,,,,career,silent,white,97,63,42,1017.3426259793341,None,1017.3426259793341,None,5,1.4491955924313515,1017.3426259793341,None,1018.8297044546343,None,1019.3434358295053,None,1019.3434358295053,None,f,0.2565759888384491,1019.3434358295053,None,,,NC9,001,2019_Dec_05_1408,ProdSingRedo,3.2.4,59.88620279926669,
,,,,98,0,98,0,,,,,,,,,,,,,,,,,,,,,,,,1025.3284980766475,None,,,,,,,,,,,,,,,,,scale,new_c,white,98,152,272,1020.1601867259014,None,1020.1601867259014,None,3,3.3675229595974088,1020.1601867259014,None,1023.5634989007376,None,1024.0782282820437,None,1024.0782282820437,None,f,1.2172376152593642,1024.0782282820437,None,,,NC9,001,2019_Dec_05_1408,ProdSingRedo,3.2.4,59.88620279926669,
,,,,99,0,99,0,,,,,,,,,,,,,,,,,,,,,,,,1027.929379768204,None,,,,,,,,,,,,,,,,,universal,new_a,white,99,94,345,1025.846235472476,None,1025.846235472476,None,1,1.3291362533345819,1025.846235472476,None,1027.2152021049988,None,1027.7293166345917,None,1027.7293166345917,None,n,0.15814530639909208,1027.7293166345917,None,,,NC9,001,2019_Dec_05_1408,ProdSingRedo,3.2.4,59.88620279926669,
,,,,100,0,100,0,,,,,,,,,,,,,,,,,,,,,,,,1030.980271256296,None,,,,,,,,,,,,,,,,,detective,new_b,white,100,144,92,1028.4461228896398,None,1028.4461228896398,None,4,1.1210564128123224,1028.4461228896398,None,1029.614415580174,None,1030.130045935046,None,1030.130045935046,None,f,0.8053728763479739,1030.130045935046,None,,,NC9,001,2019_Dec_05_1408,ProdSingRedo,3.2.4,59.88620279926669,
,,,,101,0,101,0,,,,,,,,,,,,,,,,,,,,,,,,1034.8148145959713,None,,,,,,,,,,,,,,,,,swift,sing,white,101,23,320,1031.4970019375905,None,1031.4970019375905,None,6,1.2223299671895802,1031.4970019375905,None,1032.7640708340332,None,1033.2810136189219,None,1033.2810136189219,None,r,1.4938642352353781,1033.2810136189219,None,,,NC9,001,2019_Dec_05_1408,ProdSingRedo,3.2.4,59.88620279926669,
,,,,102,0,102,0,,,,,,,,,,,,,,,,,,,,,,,,1038.2325146717485,None,,,,,,,,,,,,,,,,,payment,sing,white,102,27,215,1035.33230070211,None,1035.33230070211,None,6,2.1464425998274237,1035.33230070211,None,1037.5322879508603,None,1038.0324064427987,None,1038.0324064427987,None,r,0.1503836214542389,1038.0324064427987,None,,,NC9,001,2019_Dec_05_1408,ProdSingRedo,3.2.4,59.88620279926669,
,,,,103,0,103,0,,,,,,,,,,,,,,,,,,,,,,,,1040.9000118181575,None,,,,,,,,,,,,,,,,,generation,new_b,white,103,129,136,1038.7493454955984,None,1038.7493454955984,None,4,1.4652230977080762,1038.7493454955984,None,1040.2536503898446,None,1040.7664922981057,None,1040.7664922981057,None,f,0.09604031825438142,1040.7664922981057,None,,,NC9,001,2019_Dec_05_1408,ProdSingRedo,3.2.4,59.88620279926669,
,,,,104,0,104,0,,,,,,,,,,,,,,,,,,,,,,,,1043.6675276248716,None,,,,,,,,,,,,,,,,,stranger,new_b,white,104,130,309,1041.4168594363146,None,1041.4168594363146,None,1,1.437436594394967,1041.4168594363146,None,1042.9004674365278,None,1043.4174764649943,None,1043.4174764649943,None,n,0.2128814053721726,1043.4174764649943,None,,,NC9,001,2019_Dec_05_1408,ProdSingRedo,3.2.4,59.88620279926669,
,,,,105,0,105,0,,,,,,,,,,,,,,,,,,,,,,,,1046.3350219724234,None,,,,,,,,,,,,,,,,,stand,new_a,white,105,93,302,1044.1842334261164,None,1044.1842334261164,None,1,1.2620079554617405,1044.1842334261164,None,1045.4846741163637,None,1046.0015637199394,None,1046.0015637199394,None,n,0.29262489080429077,1046.0015637199394,None,,,NC9,001,2019_Dec_05_1408,ProdSingRedo,3.2.4,59.88620279926669,
,,,,106,0,106,0,,,,,,,,,,,,,,,,,,,,,,,,1050.7196973327082,None,,,,,,,,,,,,,,,,,voice,new_b,white,106,135,348,1046.8516693050042,None,1046.8516693050042,None,5,2.818258946761489,1046.8516693050042,None,1049.724655331811,None,1050.236215599347,None,1050.236215599347,None,f,0.44979333877563477,1050.236215599347,None,,,NC9,001,2019_Dec_05_1408,ProdSingRedo,3.2.4,59.88620279926669,
,,,,107,0,107,0,,,,,,,,,,,,,,,,,,,,,,,,1054.104083149694,None,,,,,,,,,,,,,,,,,theme,new_c,white,107,177,326,1051.2363580383826,None,1051.2363580383826,None,1,2.209486504085362,1051.2363580383826,None,1053.4891071435995,None,1054.004038365325,None,1054.004038365325,None,n,0.05786975845694542,1054.004038365325,None,,,NC9,001,2019_Dec_05_1408,ProdSingRedo,3.2.4,59.88620279926669,
,,,,108,0,108,0,,,,,,,,,,,,,,,,,,,,,,,,1058.0219377933536,None,,,,,,,,,,,,,,,,,atmosphere,sing,white,108,25,12,1054.6208853614517,None,1054.6208853614517,None,6,2.344663355499506,1054.6208853614517,None,1057.009304256877,None,1057.521733464906,None,1057.521733464906,None,f,0.4677335084415972,1057.521733464906,None,,,NC9,001,2019_Dec_05_1408,ProdSingRedo,3.2.4,59.88620279926669,
,,,,109,0,109,0,,,,,,,,,,,,,,,,,,,,,,,,1061.1395389703102,None,,,,,,,,,,,,,,,,,smooth,aloud,white,109,57,292,1058.5387714165263,None,1058.5387714165263,None,6,1.786485704826191,1058.5387714165263,None,1060.374949073419,None,1060.878083976917,None,1060.878083976917,None,r,0.21511844522319734,1060.878083976917,None,,,NC9,001,2019_Dec_05_1408,ProdSingRedo,3.2.4,59.88620279926669,
,,,,110,0,110,0,,,,,,,,,,,,,,,,,,,,,,,,1065.3908294744324,None,,,,,,,,,,,,,,,,,owner,new_b,white,110,120,208,1061.6564235978294,None,1061.6564235978294,None,2,2.164637169102207,1061.6564235978294,None,1063.859463645611,None,1064.3738540343475,None,1064.3738540343475,None,f,0.983231998514384,1064.3738540343475,None,,,NC9,001,2019_Dec_05_1408,ProdSingRedo,3.2.4,59.88620279926669,
,,,,111,0,111,0,,,,,,,,,,,,,,,,,,,,,,,,1068.4418139522895,None,,,,,,,,,,,,,,,,,victory,sing,white,111,0,346,1065.9076410164125,None,1065.9076410164125,None,6,1.6012265933677554,1065.9076410164125,None,1067.560483733192,None,1068.0750258909538,None,1068.0750258909538,None,r,0.32206499320454895,1068.0750258909538,None,,,NC9,001,2019_Dec_05_1408,ProdSingRedo,3.2.4,59.88620279926669,
,,,,112,0,112,0,,,,,,,,,,,,,,,,,,,,,,,,1073.9601646447554,None,,,,,,,,,,,,,,,,,religion,silent,white,112,86,258,1068.958612121176,None,1068.958612121176,None,2,2.710024537984282,1068.958612121176,None,1071.7123974859715,None,1072.2262977350038,None,1072.2262977350038,None,n,1.6981856124475598,1072.2262977350038,None,,,NC9,001,2019_Dec_05_1408,ProdSingRedo,3.2.4,59.88620279926669,
,,,,113,0,113,0,,,,,,,,,,,,,,,,,,,,,,,,1076.9277628669515,None,,,,,,,,,,,,,,,,,shock,silent,white,113,68,284,1074.476997334743,None,1074.476997334743,None,5,1.4154328687582165,1074.476997334743,None,1075.9286887210328,None,1076.4442615406588,None,1076.4442615406588,None,r,0.44805825711227953,1076.4442615406588,None,,,NC9,001,2019_Dec_05_1408,ProdSingRedo,3.2.4,59.88620279926669,
,,,,114,0,114,0,,,,,,,,,,,,,,,,,,,,,,,,1079.7285836022347,None,,,,,,,,,,,,,,,,,strength,sing,white,114,10,310,1077.4445212276187,None,1077.4445212276187,None,6,1.5676408295985311,1077.4445212276187,None,1079.046946112765,None,1079.5618829326704,None,1079.5618829326704,None,r,0.12258809921331704,1079.5618829326704,None,,,NC9,001,2019_Dec_05_1408,ProdSingRedo,3.2.4,59.88620279926669,
,,,,115,0,115,0,,,,,,,,,,,,,,,,,,,,,,,,1082.6461630088743,None,,,,,,,,,,,,,,,,,appeal,sing,white,115,12,9,1080.2452533270698,None,1080.2452533270698,None,4,1.6070569539442658,1080.2452533270698,None,1081.8967854799703,None,1082.4127439425793,None,1082.4127439425793,None,f,0.1993055318016559,1082.4127439425793,None,,,NC9,001,2019_Dec_05_1408,ProdSingRedo,3.2.4,59.88620279926669,
,,,,116,0,116,0,,,,,,,,,,,,,,,,,,,,,,,,1085.1469237206038,None,,,,,,,,,,,,,,,,,pattern,new_a,white,116,112,214,1083.1628772071563,None,1083.1628772071563,None,4,1.096996961394325,1083.1628772071563,None,1084.2972809066996,None,1084.8134604918305,None,1084.8134604918305,None,f,0.2943553077057004,1084.8134604918305,None,,,NC9,001,2019_Dec_05_1408,ProdSingRedo,3.2.4,59.88620279926669,
,,,,117,0,117,0,,,,,,,,,,,,,,,,,,,,,,,,1087.7477099343669,None,,,,,,,,,,,,,,,,,trail,silent,white,117,70,336,1085.6636920331512,None,1085.6636920331512,None,3,1.4120084219612181,1085.6636920331512,None,1087.1151803347748,None,1087.6310358555056,None,1087.6310358555056,None,f,0.07662910781800747,1087.6310358555056,None,,,NC9,001,2019_Dec_05_1408,ProdSingRedo,3.2.4,59.88620279926669,
,,,,118,0,118,0,,,,,,,,,,,,,,,,,,,,,,,,1090.1151119142305,None,,,,,,,,,,,,,,,,,interior,silent,white,118,82,164,1088.2644431036897,None,1088.2644431036897,None,1,1.1710285779554397,1088.2644431036897,None,1089.484154742444,None,1089.9983961610124,None,1089.9983961610124,None,n,0.07712640077807009,1089.9983961610124,None,,,NC9,001,2019_Dec_05_1408,ProdSingRedo,3.2.4,59.88620279926669,
,,,,119,0,119,0,,,,,,,,,,,,,,,,,,,,,,,,1092.399150652811,None,,,,,,,,,,,,,,,,,production,silent,white,119,73,240,1090.6318276675884,None,1090.6318276675884,None,4,1.1475870884023607,1090.6318276675884,None,1091.819188843947,None,1092.332384050591,None,1092.332384050591,None,f,0.02325146715156734,1092.332384050591,None,,,NC9,001,2019_Dec_05_1408,ProdSingRedo,3.2.4,59.88620279926669,
,,,,120,0,120,0,,,,,,,,,,,,,,,,,,,,,,,,1096.1502962298691,None,,,,,,,,,,,,,,,,,partner,sing,white,120,21,211,1092.9159379363991,None,1092.9159379363991,None,5,1.9352944104466587,1092.9159379363991,None,1094.9015693177935,None,1095.4167365904432,None,1095.4167365904432,None,f,0.6984098451212049,1095.4167365904432,None,,,NC9,001,2019_Dec_05_1408,ProdSingRedo,3.2.4,59.88620279926669,
,,,,121,0,121,0,,,,,,,,,,,,,,,,,,,,,,,,1099.66803455865,None,,,,,,,,,,,,,,,,,cross,silent,white,121,69,80,1096.6671329629607,None,1096.6671329629607,None,5,1.9117972513195127,1096.6671329629607,None,1098.6201227838174,None,1099.13453307678,None,1099.13453307678,None,f,0.5006055214907974,1099.13453307678,None,,,NC9,001,2019_Dec_05_1408,ProdSingRedo,3.2.4,59.88620279926669,
,,,,122,0,122,0,,,,,,,,,,,,,,,,,,,,,,,,1105.7366049743723,None,,,,,,,,,,,,,,,,,broad,new_a,white,122,104,31,1100.184804737335,None,1100.184804737335,None,5,3.8420664861332625,1100.184804737335,None,1104.0699108357076,None,1104.5862026927061,None,1104.5862026927061,None,f,1.1042632199823856,1104.5862026927061,None,,,NC9,001,2019_Dec_05_1408,ProdSingRedo,3.2.4,59.88620279926669,
,,,,123,0,123,0,,,,,,,,,,,,,,,,,,,,,,,,1108.5540693101939,None,,,,,,,,,,,,,,,,,weather,sing,white,123,24,352,1106.2532305368222,None,1106.2532305368222,None,6,1.4211366514209658,1106.2532305368222,None,1107.7228658243548,None,1108.2373146815225,None,1108.2373146815225,None,r,0.27706979820504785,1108.2373146815225,None,,,NC9,001,2019_Dec_05_1408,ProdSingRedo,3.2.4,59.88620279926669,
,,,,124,0,124,0,,,,,,,,,,,,,,,,,,,,,,,,1111.0715585260186,None,,,,,,,,,,,,,,,,,household,aloud,white,124,56,154,1109.0707729342394,None,1109.0707729342394,None,6,1.1874345729593188,1109.0707729342394,None,1110.3055265115108,None,1110.8214660028461,None,1110.8214660028461,None,r,0.21278157364577055,1110.8214660028461,None,,,NC9,001,2019_Dec_05_1408,ProdSingRedo,3.2.4,59.88620279926669,
,,,,125,0,125,0,,,,,,,,,,,,,,,,,,,,,,,,1114.889359988505,None,,,,,,,,,,,,,,,,,right,new_a,white,125,100,265,1111.5882186098024,None,1111.5882186098024,None,4,2.206132966093719,1111.5882186098024,None,1113.841371085029,None,1114.3558749896474,None,1114.3558749896474,None,r,0.48604439245536923,1114.3558749896474,None,,,NC9,001,2019_Dec_05_1408,ProdSingRedo,3.2.4,59.88620279926669,
,,,,126,0,126,0,,,,,,,,,,,,,,,,,,,,,,,,1118.7405481727328,None,,,,,,,,,,,,,,,,,region,new_a,white,126,114,256,1115.406049928395,None,1115.406049928395,None,2,2.29196027899161,1115.406049928395,None,1117.7425874150358,None,1118.2570891426876,None,1118.2570891426876,None,n,0.4486479174811393,1118.2570891426876,None,,,NC9,001,2019_Dec_05_1408,ProdSingRedo,3.2.4,59.88620279926669,
,,,,127,0,127,0,,,,,,,,,,,,,,,,,,,,,,,,1121.6914667182136,None,,,,,,,,,,,,,,,,,object,new_c,white,127,155,204,1119.2582563343458,None,1119.2582563343458,None,2,1.5353108935523778,1119.2582563343458,None,1120.8469678829424,None,1121.3580660009757,None,1121.3580660009757,None,n,0.29167882166802883,1121.3580660009757,None,,,NC9,001,2019_Dec_05_1408,ProdSingRedo,3.2.4,59.88620279926669,
,,,,128,0,128,0,,,,,,,,,,,,,,,,,,,,,,,,1124.4922737693414,None,,,,,,,,,,,,,,,,,running,aloud,white,128,47,268,1122.2081582131796,None,1122.2081582131796,None,4,1.32124363607727,1122.2081582131796,None,1123.577627114486,None,1124.0921720715705,None,1124.0921720715705,None,f,0.36518733226694167,1124.0921720715705,None,,,NC9,001,2019_Dec_05_1408,ProdSingRedo,3.2.4,59.88620279926669,
,,,,129,0,129,0,,,,,,,,,,,,,,,,,,,,,,,,1127.1430980809964,None,,,,,,,,,,,,,,,,,committee,new_a,white,129,107,62,1125.0090395938605,None,1125.0090395938605,None,1,1.3041904452256858,1125.0090395938605,None,1126.3627297920175,None,1126.8763691100758,None,1126.8763691100758,None,n,0.22887781029567122,1126.8763691100758,None,,,NC9,001,2019_Dec_05_1408,ProdSingRedo,3.2.4,59.88620279926669,
,,,,130,0,130,0,,,,,,,,,,,,,,,,,,,,,,,,1130.977622449398,None,,,,,,,,,,,,,,,,,session,aloud,white,130,37,281,1127.6599572061095,None,1127.6599572061095,None,1,2.2930599830579013,1127.6599572061095,None,1130.010673911078,None,1130.5108256801032,None,1130.5108256801032,None,n,0.4341881750151515,1130.5108256801032,None,,,NC9,001,2019_Dec_05_1408,ProdSingRedo,3.2.4,59.88620279926669,
,,,,131,0,131,0,,,,,,,,,,,,,,,,,,,,,,,,1133.57842856762,None,,,,,,,,,,,,,,,,,break,new_a,white,131,118,26,1131.495092383353,None,1131.495092383353,None,1,1.201745656086132,1131.495092383353,None,1132.7462886539288,None,1133.2616254226305,None,1133.2616254226305,None,n,0.28331907908432186,1133.2616254226305,None,,,NC9,001,2019_Dec_05_1408,ProdSingRedo,3.2.4,59.88620279926669,
,,,,132,0,132,0,,,,,,,,,,,,,,,,,,,,,,,,1136.1125206428114,None,,,,,,,,,,,,,,,,,agency,sing,white,132,8,4,1134.0950861633755,None,1134.0950861633755,None,4,1.121716359630227,1134.0950861633755,None,1135.265383263817,None,1135.7790039218962,None,1135.7790039218962,None,f,0.2936788776423782,1135.7790039218962,None,,,NC9,001,2019_Dec_05_1408,ProdSingRedo,3.2.4,59.88620279926669,
,,,,133,0,133,0,,,,,,,,,,,,,,,,,,,,,,,,1140.347071757773,None,,,,,,,,,,,,,,,,,level,aloud,white,133,46,170,1136.6300661503337,None,1136.6300661503337,None,6,2.5543877764139324,1136.6300661503337,None,1139.230648346711,None,1139.7469706819393,None,1139.7469706819393,None,r,0.5654345790389925,1139.7469706819393,None,,,NC9,001,2019_Dec_05_1408,ProdSingRedo,3.2.4,59.88620279926669,
,,,,134,0,134,0,,,,,,,,,,,,,,,,,,,,,,,,1145.948904805351,None,,,,,,,,,,,,,,,,,chief,silent,white,134,66,48,1140.8640179636423,None,1140.8640179636423,None,2,4.064146096352488,1140.8640179636423,None,1144.9669892799575,None,1145.482050811639,None,1145.482050811639,None,n,0.422380349598825,1145.482050811639,None,,,NC9,001,2019_Dec_05_1408,ProdSingRedo,3.2.4,59.88620279926669,
,,,,135,0,135,0,,,,,,,,,,,,,,,,,,,,,,,,1149.4332551681437,None,,,,,,,,,,,,,,,,,material,new_a,white,135,105,182,1146.4657119933981,None,1146.4657119933981,None,3,1.4622695085126907,1146.4657119933981,None,1147.9701045902912,None,1148.4673170764,None,1148.4673170764,None,n,0.9327121579553932,1148.4673170764,None,,,NC9,001,2019_Dec_05_1408,ProdSingRedo,3.2.4,59.88620279926669,
,,,,136,0,136,0,,,,,,,,,,,,,,,,,,,,,,,,1152.067426549038,None,,,,,,,,,,,,,,,,,south,new_b,white,136,138,296,1149.9500999874435,None,1149.9500999874435,None,1,1.1457045914139599,1149.9500999874435,None,1151.1336943034548,None,1151.6505988352,None,1151.6505988352,None,n,0.3810867043212056,1151.6505988352,None,,,NC9,001,2019_Dec_05_1408,ProdSingRedo,3.2.4,59.88620279926669,
,,,,137,0,137,0,,,,,,,,,,,,,,,,,,,,,,,,1159.3696940671653,None,,,,,,,,,,,,,,,,,safety,new_b,white,137,126,270,1152.5842054358218,None,1152.5842054358218,None,3,5.239098279969767,1152.5842054358218,None,1157.8738471921533,None,1158.3859206137713,None,1158.3859206137713,None,n,0.9415614183526486,1158.3859206137713,None,,,NC9,001,2019_Dec_05_1408,ProdSingRedo,3.2.4,59.88620279926669,
,,,,138,0,138,0,,,,,,,,,,,,,,,,,,,,,,,,1164.9547217930667,None,,,,,,,,,,,,,,,,,skill,new_a,white,138,102,289,1159.8871338337194,None,1159.8871338337194,None,2,2.879950923845172,1159.8871338337194,None,1162.8054506268818,None,1163.320896868594,None,1163.320896868594,None,n,1.5902762012556195,1163.320896868594,None,,,NC9,001,2019_Dec_05_1408,ProdSingRedo,3.2.4,59.88620279926669,
,,,,139,0,139,0,,,,,,,,,,,,,,,,,,,,,,,,1169.2393452157266,None,,,,,,,,,,,,,,,,,present,new_c,white,139,167,231,1165.4713980488013,None,1165.4713980488013,None,5,2.039719040505588,1165.4713980488013,None,1167.5576383727603,None,1168.0723742851987,None,1168.0723742851987,None,f,1.126241443445906,1168.0723742851987,None,,,NC9,001,2019_Dec_05_1408,ProdSingRedo,3.2.4,59.88620279926669,
,,,,140,0,140,0,,,,,,,,,,,,,,,,,,,,,,,,1172.8569790478796,None,,,,,,,,,,,,,,,,,light,sing,white,140,3,171,1169.7560721649788,None,1169.7560721649788,None,5,2.202389741782099,1169.7560721649788,None,1172.0088063420262,None,1172.5234912501182,None,1172.5234912501182,None,f,0.3070249205920845,1172.5234912501182,None,,,NC9,001,2019_Dec_05_1408,ProdSingRedo,3.2.4,59.88620279926669,
,,,,141,0,141,0,,,,,,,,,,,,,,,,,,,,,,,,1176.0080953908619,None,,,,,,,,,,,,,,,,,staff,new_a,white,141,108,301,1173.373899440514,None,1173.373899440514,None,3,1.3843472527805716,1173.373899440514,None,1174.8093732993584,None,1175.3245713610668,None,1175.3245713610668,None,f,0.6418285693507642,1175.3245713610668,None,,,NC9,001,2019_Dec_05_1408,ProdSingRedo,3.2.4,59.88620279926669,
,,,,142,0,142,0,,,,,,,,,,,,,,,,,,,,,,,,1182.6767858532257,None,,,,,,,,,,,,,,,,,death,aloud,white,142,50,86,1176.5249165736604,None,1176.5249165736604,None,1,5.225177193526179,1176.5249165736604,None,1181.7930686911568,None,1182.3100276482292,None,1182.3100276482292,None,n,0.31974460487253964,1182.3100276482292,None,,,NC9,001,2019_Dec_05_1408,ProdSingRedo,3.2.4,59.88620279926669,
,,,,143,0,143,0,,,,,,,,,,,,,,,,,,,,,,,,1185.3108863255475,None,,,,,,,,,,,,,,,,,junior,silent,white,143,87,167,1183.1934776592534,None,1183.1934776592534,None,1,1.2362059580627829,1183.1934776592534,None,1184.4783676110674,None,1184.9941136590205,None,1184.9941136590205,None,n,0.28363070357590914,1184.9941136590205,None,,,NC9,001,2019_Dec_05_1408,ProdSingRedo,3.2.4,59.88620279926669,
,,,,144,0,144,0,,,,,,,,,,,,,,,,,,,,,,,,1187.6449871091172,None,,,,,,,,,,,,,,,,,spoke,new_a,white,144,99,300,1185.8277737521566,None,1185.8277737521566,None,1,0.8177560560870916,1185.8277737521566,None,1186.7010418579448,None,1187.2115179714747,None,1187.2115179714747,None,n,0.38597441697493196,1187.2115179714747,None,,,NC9,001,2019_Dec_05_1408,ProdSingRedo,3.2.4,59.88620279926669,
,,,,145,0,145,0,,,,,,,,,,,,,,,,,,,,,,,,1190.6792726279236,None,,,,,,,,,,,,,,,,,union,new_c,white,145,150,344,1188.1618434353732,None,1188.1618434353732,None,1,1.6195116641465575,1188.1618434353732,None,1189.8292146259919,None,1190.345861647511,None,1190.345861647511,None,n,0.2995795246679336,1190.345861647511,None,,,NC9,001,2019_Dec_05_1408,ProdSingRedo,3.2.4,59.88620279926669,
,,,,146,0,146,0,,,,,,,,,,,,,,,,,,,,,,,,1193.6968283983879,None,,,,,,,,,,,,,,,,,working,silent,white,146,76,357,1191.1963873971254,None,1191.1963873971254,None,2,1.7367685614153743,1191.1963873971254,None,1192.9828102793545,None,1193.4967696189415,None,1193.4967696189415,None,n,0.16442910861223936,1193.4967696189415,None,,,NC9,001,2019_Dec_05_1408,ProdSingRedo,3.2.4,59.88620279926669,
,,,,147,0,147,0,,,,,,,,,,,,,,,,,,,,,,,,1197.714775720844,None,,,,,,,,,,,,,,,,,brief,new_c,white,147,163,28,1194.2135659216437,None,1194.2135659216437,None,1,2.7595214918255806,1194.2135659216437,None,1197.0310775297694,None,1197.5313810680527,None,1197.5313810680527,None,n,0.1375124789774418,1197.5313810680527,None,,,NC9,001,2019_Dec_05_1408,ProdSingRedo,3.2.4,59.88620279926669,
,,,,148,0,148,0,,,,,,,,,,,,,,,,,,,,,,,,1200.6156710966025,None,,,,,,,,,,,,,,,,,opening,silent,white,148,65,205,1198.2314569526352,None,1198.2314569526352,None,1,1.6293819448910654,1198.2314569526352,None,1199.9018573060166,None,1200.4155877479352,None,1200.4155877479352,None,n,0.1652230976615101,1200.4155877479352,None,,,NC9,001,2019_Dec_05_1408,ProdSingRedo,3.2.4,59.88620279926669,
,,,,149,0,149,0,,,,,,,,,,,,,,,,,,,,,,,,1203.3998090447858,None,,,,,,,,,,,,,,,,,group,new_c,white,149,164,143,1201.1323669455014,None,1201.1323669455014,None,3,1.5923869740217924,1201.1323669455014,None,1202.7662705534603,None,1203.2831054206472,None,1203.2831054206472,None,f,0.08148167724721134,1203.2831054206472,None,,,NC9,001,2019_Dec_05_1408,ProdSingRedo,3.2.4,59.88620279926669,
,,,,150,0,150,0,,,,,,,,,,,,,,,,,,,,,,,,1205.9006167177577,None,,,,,,,,,,,,,,,,,novel,new_b,white,150,134,202,1203.9167894609272,None,1203.9167894609272,None,1,1.2956826656591147,1203.9167894609272,None,1205.2519557382911,None,1205.7671793021727,None,1205.7671793021727,None,n,0.08514279662631452,1205.7671793021727,None,,,NC9,001,2019_Dec_05_1408,ProdSingRedo,3.2.4,59.88620279926669,
,,,,151,0,151,0,,,,,,,,,,,,,,,,,,,,,,,,1208.2846756712534,None,,,,,,,,,,,,,,,,,machinery,new_b,white,151,149,175,1206.4173729012255,None,1206.4173729012255,None,1,1.0108278570696712,1206.4173729012255,None,1207.4528697740752,None,1207.9844669888262,None,1207.9844669888262,None,n,0.25981196807697415,1207.9844669888262,None,,,NC9,001,2019_Dec_05_1408,ProdSingRedo,3.2.4,59.88620279926669,
,,,,152,0,152,0,,,,,,,,,,,,,,,,,,,,,,,,1210.385317269247,None,,,,,,,,,,,,,,,,,country,new_c,white,152,161,73,1208.7846557672601,None,1208.7846557672601,None,1,0.9398655225522816,1208.7846557672601,None,1209.769519283902,None,1210.285177940037,None,1210.285177940037,None,n,0.06298512476496398,1210.285177940037,None,,,NC9,001,2019_Dec_05_1408,ProdSingRedo,3.2.4,59.88620279926669,
,,,,153,0,153,0,,,,,,,,,,,,,,,,,,,,,,,,1213.2695304797962,None,,,,,,,,,,,,,,,,,signal,aloud,white,153,40,287,1210.9021552463528,None,1210.9021552463528,None,5,1.4938259818591177,1210.9021552463528,None,1212.4387623975053,None,1212.9527357320767,None,1212.9527357320767,None,f,0.26737336767837405,1212.9527357320767,None,,,NC9,001,2019_Dec_05_1408,ProdSingRedo,3.2.4,59.88620279926669,
,,,,154,0,154,0,,,,,,,,,,,,,,,,,,,,,,,,1216.8206670379732,None,,,,,,,,,,,,,,,,,under,new_a,white,154,111,343,1213.786368456902,None,1213.786368456902,None,1,1.9294867529533803,1213.786368456902,None,1215.753498931881,None,1216.2704837019555,None,1216.2704837019555,None,n,0.5171903427690268,1216.2704837019555,None,,,NC9,001,2019_Dec_05_1408,ProdSingRedo,3.2.4,59.88620279926669,
,,,,155,0,155,0,,,,,,,,,,,,,,,,,,,,,,,,1220.5884101872798,None,,,,,,,,,,,,,,,,,measure,aloud,white,155,51,184,1217.3373025525361,None,1217.3373025525361,None,4,2.402307326439768,1217.3373025525361,None,1219.7923026925419,None,1220.3049104157835,None,1220.3049104157835,None,f,0.2425867929123342,1220.3049104157835,None,,,NC9,001,2019_Dec_05_1408,ProdSingRedo,3.2.4,59.88620279926669,
,,,,156,0,156,0,,,,,,,,,,,,,,,,,,,,,,,,1223.4393184694927,None,,,,,,,,,,,,,,,,,thick,aloud,white,156,53,327,1221.1051965381484,None,1221.1051965381484,None,6,1.2343458533287048,1221.1051965381484,None,1222.3768122885376,None,1222.8890608041547,None,1222.8890608041547,None,r,0.5142638108227402,1222.8890608041547,None,,,NC9,001,2019_Dec_05_1408,ProdSingRedo,3.2.4,59.88620279926669,
,,,,157,0,157,0,,,,,,,,,,,,,,,,,,,,,,,,1226.1901664175093,None,,,,,,,,,,,,,,,,,bureau,new_c,white,157,154,37,1223.9560765190981,None,1223.9560765190981,None,1,1.31912913126871,1223.9560765190981,None,1225.3253202547785,None,1225.8400437270757,None,1225.8400437270757,None,n,0.30734463105909526,1225.8400437270757,None,,,NC9,001,2019_Dec_05_1408,ProdSingRedo,3.2.4,59.88620279926669,
,,,,158,0,158,0,,,,,,,,,,,,,,,,,,,,,,,,1229.191093515372,None,,,,,,,,,,,,,,,,,story,sing,white,158,15,306,1226.7069792032707,None,1226.7069792032707,None,4,1.840386762516573,1226.7069792032707,None,1228.5909834206104,None,1229.107695441693,None,1229.107695441693,None,f,0.0473233584780246,1229.107695441693,None,,,NC9,001,2019_Dec_05_1408,ProdSingRedo,3.2.4,59.88620279926669,
,,,,159,0,159,0,,,,,,,,,,,,,,,,,,,,,,,,1232.54210038553,None,,,,,,,,,,,,,,,,,department,silent,white,159,74,90,1229.7079255834688,None,1229.7079255834688,None,6,1.4392444510012865,1229.7079255834688,None,1231.1952376214322,None,1231.7084116800688,None,1231.7084116800688,None,r,0.7906226576305926,1231.7084116800688,None,,,NC9,001,2019_Dec_05_1408,ProdSingRedo,3.2.4,59.88620279926669,
,,,,160,0,160,0,,,,,,,,,,,,,,,,,,,,,,,,1236.559992038412,None,,,,,,,,,,,,,,,,,waste,new_b,white,160,148,350,1233.0587670002133,None,1233.0587670002133,None,5,2.5920091061852872,1233.0587670002133,None,1235.695173243992,None,1236.209907290293,None,1236.209907290293,None,f,0.30460034660063684,1236.209907290293,None,,,NC9,001,2019_Dec_05_1408,ProdSingRedo,3.2.4,59.88620279926669,
,,,,161,0,161,0,,,,,,,,,,,,,,,,,,,,,,,,1240.6946090857964,None,,,,,,,,,,,,,,,,,figure,sing,white,161,20,128,1237.076679179445,None,1237.076679179445,None,5,2.845705213258043,1237.076679179445,None,1239.9608914572746,None,1240.477863165317,None,1240.477863165317,None,f,0.17269741650670767,1240.477863165317,None,,,NC9,001,2019_Dec_05_1408,ProdSingRedo,3.2.4,59.88620279926669,
,,,,162,0,162,0,,,,,,,,,,,,,,,,,,,,,,,,1243.4121182058007,None,,,,,,,,,,,,,,,,,bucket,aloud,white,162,54,33,1241.212964443257,None,1241.212964443257,None,6,1.4692477786447853,1241.212964443257,None,1242.7323946247343,None,1243.2453596899286,None,1243.2453596899286,None,f,0.13290466857142746,1243.2453596899286,None,,,NC9,001,2019_Dec_05_1408,ProdSingRedo,3.2.4,59.88620279926669,
,,,,163,0,163,0,,,,,,,,,,,,,,,,,,,,,,,,1245.8295489533339,None,,,,,,,,,,,,,,,,,industry,aloud,white,163,55,161,1243.9295452213846,None,1243.9295452213846,None,6,1.1845123949460685,1243.9295452213846,None,1245.1685984060168,None,1245.6794881524984,None,1245.6794881524984,None,r,0.1145231865812093,1245.6794881524984,None,,,NC9,001,2019_Dec_05_1408,ProdSingRedo,3.2.4,59.88620279926669,
,,,,164,0,164,0,,,,,,,,,,,,,,,,,,,,,,,,1250.7809937146958,None,,,,,,,,,,,,,,,,,build,sing,white,164,2,35,1246.3463209981564,None,1246.3463209981564,None,4,2.2714636703021824,1246.3463209981564,None,1248.6635303120129,None,1249.180509795202,None,1249.180509795202,None,f,1.5574029439594597,1249.180509795202,None,,,NC9,001,2019_Dec_05_1408,ProdSingRedo,3.2.4,59.88620279926669,
,,,,165,0,165,0,,,,,,,,,,,,,,,,,,,,,,,,1254.8322786209174,None,,,,,,,,,,,,,,,,,design,new_b,white,165,136,91,1251.2976970279124,None,1251.2976970279124,None,3,1.8561402743216604,1251.2976970279124,None,1253.2006692772266,None,1253.7152674153913,None,1253.7152674153913,None,f,1.0781862966250628,1253.7152674153913,None,,,NC9,001,2019_Dec_05_1408,ProdSingRedo,3.2.4,59.88620279926669,
,,,,166,0,166,0,,,,,,,,,,,,,,,,,,,,,,,,1258.0499245820101,None,,,,,,,,,,,,,,,,,principal,silent,white,166,85,236,1255.3489284415264,None,1255.3489284415264,None,1,1.8925312792416662,1255.3489284415264,None,1257.2829813305289,None,1257.7998743550852,None,1257.7998743550852,None,n,0.20936801214702427,1257.7998743550852,None,,,NC9,001,2019_Dec_05_1408,ProdSingRedo,3.2.4,59.88620279926669,
,,,,167,0,167,0,,,,,,,,,,,,,,,,,,,,,,,,1260.650709551992,None,,,,,,,,,,,,,,,,,clean,new_b,white,167,125,51,1258.5667386120185,None,1258.5667386120185,None,1,1.2745774255599827,1258.5667386120185,None,1259.885567004094,None,1260.400630712742,None,1260.400630712742,None,n,0.20871677342802286,1260.400630712742,None,,,NC9,001,2019_Dec_05_1408,ProdSingRedo,3.2.4,59.88620279926669,
,,,,168,0,168,0,,,,,,,,,,,,,,,,,,,,,,,,1263.468297977699,None,,,,,,,,,,,,,,,,,mechanical,new_c,white,168,170,185,1261.1673817648552,None,1261.1673817648552,None,1,1.4497093681711704,1261.1673817648552,None,1262.6552700900938,None,1263.1681614476256,None,1263.1681614476256,None,n,0.25695012463256717,1263.1681614476256,None,,,NC9,001,2019_Dec_05_1408,ProdSingRedo,3.2.4,59.88620279926669,
,,,,169,0,169,0,,,,,,,,,,,,,,,,,,,,,,,,1269.1199766127393,None,,,,,,,,,,,,,,,,,style,new_b,white,169,124,311,1263.984977654647,None,1263.984977654647,None,1,3.295739268185571,1263.984977654647,None,1267.3213960274588,None,1267.8362305273768,None,1267.8362305273768,None,n,1.2362734456546605,1267.8362305273768,None,,,NC9,001,2019_Dec_05_1408,ProdSingRedo,3.2.4,59.88620279926669,
,,,,170,0,170,0,,,,,,,,,,,,,,,,,,,,,,,,1272.8377870940603,None,,,,,,,,,,,,,,,,,suggestion,sing,white,170,7,314,1269.6368192548398,None,1269.6368192548398,None,6,2.155886185588315,1269.6368192548398,None,1271.8414248884656,None,1272.3542229451705,None,1272.3542229451705,None,r,0.43805704405531287,1272.3542229451705,None,,,NC9,001,2019_Dec_05_1408,ProdSingRedo,3.2.4,59.88620279926669,
,,,,171,0,171,0,,,,,,,,,,,,,,,,,,,,,,,,1275.6886692522094,None,,,,,,,,,,,,,,,,,title,aloud,white,171,31,331,1273.3546014351305,None,1273.3546014351305,None,6,1.421493993140757,1273.3546014351305,None,1274.8216886806767,None,1275.33851732756,None,1275.33851732756,None,r,0.30961090489290655,1275.33851732756,None,,,NC9,001,2019_Dec_05_1408,ProdSingRedo,3.2.4,59.88620279926669,
,,,,172,0,172,0,,,,,,,,,,,,,,,,,,,,,,,,1279.4731160257943,None,,,,,,,,,,,,,,,,,empty,new_b,white,172,143,112,1276.2054574689828,None,1276.2054574689828,None,4,2.394507698714733,1276.2054574689828,None,1278.644994573202,None,1279.156371038407,None,1279.156371038407,None,f,0.28387079713866115,1279.156371038407,None,,,NC9,001,2019_Dec_05_1408,ProdSingRedo,3.2.4,59.88620279926669,
,,,,173,0,173,0,,,,,,,,,,,,,,,,,,,,,,,,1282.457427824149,None,,,,,,,,,,,,,,,,,rapid,new_c,white,173,156,252,1279.9899860362057,None,1279.9899860362057,None,1,1.4657508684322238,1279.9899860362057,None,1281.4924081221689,None,1282.007299535675,None,1282.007299535675,None,n,0.4165459459181875,1282.007299535675,None,,,NC9,001,2019_Dec_05_1408,ProdSingRedo,3.2.4,59.88620279926669,
,,,,174,0,174,0,,,,,,,,,,,,,,,,,,,,,,,,1284.6914163357578,None,,,,,,,,,,,,,,,,,music,new_b,white,174,131,196,1282.9740991040599,None,1282.9740991040599,None,1,0.9855962381698191,1282.9740991040599,None,1284.0099598497618,None,1284.5247253072448,None,1284.5247253072448,None,n,0.12307761679403484,1284.5247253072448,None,,,NC9,001,2019_Dec_05_1408,ProdSingRedo,3.2.4,59.88620279926669,
,,,,175,0,175,0,,,,,,,,,,,,,,,,,,,,,,,,1287.1588260906283,None,,,,,,,,,,,,,,,,,portion,silent,white,175,89,228,1285.2082695520949,None,1285.2082695520949,None,1,1.2312631981913,1285.2082695520949,None,1286.4785311983433,None,1286.9921447031666,None,1286.9921447031666,None,n,0.11925104423426092,1286.9921447031666,None,,,NC9,001,2019_Dec_05_1408,ProdSingRedo,3.2.4,59.88620279926669,
,,,,176,0,176,0,,,,,,,,,,,,,,,,,,,,,,,,1289.5095574127045,None,,,,,,,,,,,,,,,,,master,new_a,white,176,96,180,1287.675643852679,None,1287.675643852679,None,1,0.9957594831939787,1287.675643852679,None,1288.7091294734273,None,1289.2261531190015,None,1289.2261531190015,None,n,0.23709107073955238,1289.2261531190015,None,,,NC9,001,2019_Dec_05_1408,ProdSingRedo,3.2.4,59.88620279926669,
,,,,177,0,177,0,,,,,,,,,,,,,,,,,,,,,,,,1292.0436442010105,None,,,,,,,,,,,,,,,,,exchange,new_a,white,177,90,121,1290.0262429986615,None,1290.0262429986615,None,1,1.1171474244911224,1290.0262429986615,None,1291.176696284674,None,1291.6935177785344,None,1291.6935177785344,None,n,0.31365953339263797,1291.6935177785344,None,,,NC9,001,2019_Dec_05_1408,ProdSingRedo,3.2.4,59.88620279926669,
,,,,178,0,178,0,,,,,,,,,,,,,,,,,,,,,,,,1294.4610929866321,None,,,,,,,,,,,,,,,,,youth,new_a,white,178,117,359,1292.5604893311393,None,1292.5604893311393,None,1,1.110566926188767,1292.5604893311393,None,1293.7144584984053,None,1294.2275703565683,None,1294.2275703565683,None,n,0.1873795255087316,1294.2275703565683,None,,,NC9,001,2019_Dec_05_1408,ProdSingRedo,3.2.4,59.88620279926669,
,,,,179,0,179,0,,,,,,,,,,,,,,,,,,,,,,,,1297.4119913168252,None,,,,,,,,,,,,,,,,,murder,sing,white,179,16,195,1294.9777956777252,None,1294.9777956777252,None,6,1.3413020423613489,1294.9777956777252,None,1296.3633135433774,None,1296.8784606007393,None,1296.8784606007393,None,r,0.4963939278386533,1296.8784606007393,None,,,NC9,001,2019_Dec_05_1408,ProdSingRedo,3.2.4,59.88620279926669,
,,,,,,,,,,,,,,,,,,,,,,,,,,,,,,,,,,,,,,,,,,,,,,,,,,,,,,,,,,,,,,,,,,,,,,,,,1297.9121869374067,None,,,,,,,
