StudyLoop.thisRepN,StudyLoop.thisTrialN,StudyLoop.thisN,StudyLoop.thisIndex,TestLoop.thisRepN,TestLoop.thisTrialN,TestLoop.thisN,TestLoop.thisIndex,textCondition.started,textCondition.stopped,keyCondition.keys,keyCondition.rt,keyCondition.started,keyCondition.stopped,Condition,stim_colors,color_sing,color_aloud,color_silent,textWelcome.started,textWelcome.stopped,keyWelcome.keys,keyWelcome.rt,keyWelcome.started,keyWelcome.stopped,textAloud.started,textAloud.stopped,textSilent.started,textSilent.stopped,textSing.started,textSing.stopped,textBlank500.started,textBlank500.stopped,study_word,study_type,study_color,study_num,study_word_num,textStudy.started,textStudy.stopped,keyStudy.keys,keyStudy.started,keyStudy.stopped,textTestInstructions.started,textTestInstructions.stopped,key_resp_3.keys,key_resp_3.rt,key_resp_3.started,key_resp_3.stopped,testWord,testType,testColor,testN,test_num,test_word_num,textConf.started,textConf.stopped,textConfScale.started,textConfScale.stopped,keyConf.keys,keyConf.rt,keyConf.started,keyConf.stopped,textTestBlank.started,textTestBlank.stopped,textRKN.started,textRKN.stopped,textRKNScale.started,textRKNScale.stopped,keyRKN.keys,keyRKN.rt,keyRKN.started,keyRKN.stopped,textEnd.started,textEnd.stopped,participant,session,date,expName,psychopyVersion,frameRate,
,,,,,,,,27.1281604,None,n,1.3906178000000011,27.1281604,None,,,,,,,,,,,,,,,,,,,,,,,,,,,,,,,,,,,,,,,,,,,,,,,,,,,,,,,,,,,,,,NC_37,001,2022_Apr_19_1603,ProdSingRedo,3.2.3,60.299883380023516,
,,,,,,,,,,,,,,NeutralTest,"['yellow', 'red', 'blue']",yellow,red,blue,28.560709799999998,None,space,77.83799470000001,28.560709799999998,None,,,,,,,,,,,,,,,,,,,,,,,,,,,,,,,,,,,,,,,,,,,,,,,,,,,NC_37,001,2022_Apr_19_1603,ProdSingRedo,3.2.3,60.299883380023516,
0,0,0,0,,,,,,,,,,,,,,,,,,,,,,28.560709799999998,None,28.560709799999998,None,28.560709799999998,None,108.9457813,None,entrance,aloud,red,49,115,106.93711400000001,None,None,106.93711400000001,None,,,,,,,,,,,,,,,,,,,,,,,,,,,,,,,,,NC_37,001,2022_Apr_19_1603,ProdSingRedo,3.2.3,60.299883380023516,
1,0,1,0,,,,,,,,,,,,,,,,,,,,,,,,,,,,111.46370329999999,None,broad,sing,yellow,2,31,109.469426,None,None,109.469426,None,,,,,,,,,,,,,,,,,,,,,,,,,,,,,,,,,NC_37,001,2022_Apr_19_1603,ProdSingRedo,3.2.3,60.299883380023516,
2,0,2,0,,,,,,,,,,,,,,,,,,,,,,,,,,,,113.9805786,None,shear,sing,yellow,16,283,111.96933820000001,None,None,111.96933820000001,None,,,,,,,,,,,,,,,,,,,,,,,,,,,,,,,,,NC_37,001,2022_Apr_19_1603,ProdSingRedo,3.2.3,60.299883380023516,
3,0,3,0,,,,,,,,,,,,,,,,,,,,,,,,,,,,116.49670800000001,None,drink,silent,blue,66,105,114.5013318,None,None,114.5013318,None,,,,,,,,,,,,,,,,,,,,,,,,,,,,,,,,,NC_37,001,2022_Apr_19_1603,ProdSingRedo,3.2.3,60.299883380023516,
4,0,4,0,,,,,,,,,,,,,,,,,,,,,,,,,,,,119.01357530000001,None,election,aloud,red,42,109,117.0088356,None,None,117.0088356,None,,,,,,,,,,,,,,,,,,,,,,,,,,,,,,,,,NC_37,001,2022_Apr_19_1603,ProdSingRedo,3.2.3,60.299883380023516,
5,0,5,0,,,,,,,,,,,,,,,,,,,,,,,,,,,,121.52987189999999,None,comfort,aloud,red,36,59,119.52767170000001,None,None,119.52767170000001,None,,,,,,,,,,,,,,,,,,,,,,,,,,,,,,,,,NC_37,001,2022_Apr_19_1603,ProdSingRedo,3.2.3,60.299883380023516,
6,0,6,0,,,,,,,,,,,,,,,,,,,,,,,,,,,,124.04695420000002,None,scale,silent,blue,75,272,122.04384999999999,None,None,122.04384999999999,None,,,,,,,,,,,,,,,,,,,,,,,,,,,,,,,,,NC_37,001,2022_Apr_19_1603,ProdSingRedo,3.2.3,60.299883380023516,
7,0,7,0,,,,,,,,,,,,,,,,,,,,,,,,,,,,126.5474724,None,escape,sing,yellow,26,118,124.54846549999999,None,None,124.54846549999999,None,,,,,,,,,,,,,,,,,,,,,,,,,,,,,,,,,NC_37,001,2022_Apr_19_1603,ProdSingRedo,3.2.3,60.299883380023516,
8,0,8,0,,,,,,,,,,,,,,,,,,,,,,,,,,,,129.0650307,None,fellow,sing,yellow,29,126,127.05779509999999,None,None,127.05779509999999,None,,,,,,,,,,,,,,,,,,,,,,,,,,,,,,,,,NC_37,001,2022_Apr_19_1603,ProdSingRedo,3.2.3,60.299883380023516,
9,0,9,0,,,,,,,,,,,,,,,,,,,,,,,,,,,,131.5809873,None,science,sing,yellow,8,275,129.5764885,None,None,129.5764885,None,,,,,,,,,,,,,,,,,,,,,,,,,,,,,,,,,NC_37,001,2022_Apr_19_1603,ProdSingRedo,3.2.3,60.299883380023516,
10,0,10,0,,,,,,,,,,,,,,,,,,,,,,,,,,,,134.09749920000002,None,service,silent,blue,78,280,132.08873260000001,None,None,132.08873260000001,None,,,,,,,,,,,,,,,,,,,,,,,,,,,,,,,,,NC_37,001,2022_Apr_19_1603,ProdSingRedo,3.2.3,60.299883380023516,
11,0,11,0,,,,,,,,,,,,,,,,,,,,,,,,,,,,136.59744750000002,None,figure,silent,blue,79,128,134.5984899,None,None,134.5984899,None,,,,,,,,,,,,,,,,,,,,,,,,,,,,,,,,,NC_37,001,2022_Apr_19_1603,ProdSingRedo,3.2.3,60.299883380023516,
12,0,12,0,,,,,,,,,,,,,,,,,,,,,,,,,,,,139.11660030000002,None,center,sing,yellow,21,44,137.1161332,None,None,137.1161332,None,,,,,,,,,,,,,,,,,,,,,,,,,,,,,,,,,NC_37,001,2022_Apr_19_1603,ProdSingRedo,3.2.3,60.299883380023516,
13,0,13,0,,,,,,,,,,,,,,,,,,,,,,,,,,,,141.6314439,None,period,aloud,red,31,217,139.6249184,None,None,139.6249184,None,,,,,,,,,,,,,,,,,,,,,,,,,,,,,,,,,NC_37,001,2022_Apr_19_1603,ProdSingRedo,3.2.3,60.299883380023516,
14,0,14,0,,,,,,,,,,,,,,,,,,,,,,,,,,,,144.1487883,None,owner,sing,yellow,25,208,142.14440960000002,None,None,142.14440960000002,None,,,,,,,,,,,,,,,,,,,,,,,,,,,,,,,,,NC_37,001,2022_Apr_19_1603,ProdSingRedo,3.2.3,60.299883380023516,
15,0,15,0,,,,,,,,,,,,,,,,,,,,,,,,,,,,146.6655403,None,generation,aloud,red,32,136,144.6583202,None,None,144.6583202,None,,,,,,,,,,,,,,,,,,,,,,,,,,,,,,,,,NC_37,001,2022_Apr_19_1603,ProdSingRedo,3.2.3,60.299883380023516,
16,0,16,0,,,,,,,,,,,,,,,,,,,,,,,,,,,,149.1821204,None,treatment,aloud,red,44,339,147.179899,None,None,147.179899,None,,,,,,,,,,,,,,,,,,,,,,,,,,,,,,,,,NC_37,001,2022_Apr_19_1603,ProdSingRedo,3.2.3,60.299883380023516,
17,0,17,0,,,,,,,,,,,,,,,,,,,,,,,,,,,,151.6992466,None,bright,sing,yellow,12,29,149.6966957,None,None,149.6966957,None,,,,,,,,,,,,,,,,,,,,,,,,,,,,,,,,,NC_37,001,2022_Apr_19_1603,ProdSingRedo,3.2.3,60.299883380023516,
18,0,18,0,,,,,,,,,,,,,,,,,,,,,,,,,,,,154.2159112,None,finish,aloud,red,30,130,152.2122799,None,None,152.2122799,None,,,,,,,,,,,,,,,,,,,,,,,,,,,,,,,,,NC_37,001,2022_Apr_19_1603,ProdSingRedo,3.2.3,60.299883380023516,
19,0,19,0,,,,,,,,,,,,,,,,,,,,,,,,,,,,156.7326739,None,attack,silent,blue,74,13,154.7213983,None,None,154.7213983,None,,,,,,,,,,,,,,,,,,,,,,,,,,,,,,,,,NC_37,001,2022_Apr_19_1603,ProdSingRedo,3.2.3,60.299883380023516,
20,0,20,0,,,,,,,,,,,,,,,,,,,,,,,,,,,,159.2503504,None,tennis,sing,yellow,9,323,157.2423522,None,None,157.2423522,None,,,,,,,,,,,,,,,,,,,,,,,,,,,,,,,,,NC_37,001,2022_Apr_19_1603,ProdSingRedo,3.2.3,60.299883380023516,
21,0,21,0,,,,,,,,,,,,,,,,,,,,,,,,,,,,161.7663088,None,range,aloud,red,48,251,159.7600877,None,None,159.7600877,None,,,,,,,,,,,,,,,,,,,,,,,,,,,,,,,,,NC_37,001,2022_Apr_19_1603,ProdSingRedo,3.2.3,60.299883380023516,
22,0,22,0,,,,,,,,,,,,,,,,,,,,,,,,,,,,164.2833357,None,shock,aloud,red,41,284,162.2701874,None,None,162.2701874,None,,,,,,,,,,,,,,,,,,,,,,,,,,,,,,,,,NC_37,001,2022_Apr_19_1603,ProdSingRedo,3.2.3,60.299883380023516,
23,0,23,0,,,,,,,,,,,,,,,,,,,,,,,,,,,,166.8001776,None,sight,aloud,red,54,286,164.79712750000002,None,None,164.79712750000002,None,,,,,,,,,,,,,,,,,,,,,,,,,,,,,,,,,NC_37,001,2022_Apr_19_1603,ProdSingRedo,3.2.3,60.299883380023516,
24,0,24,0,,,,,,,,,,,,,,,,,,,,,,,,,,,,169.31730290000002,None,equipment,aloud,red,35,116,167.30211260000002,None,None,167.30211260000002,None,,,,,,,,,,,,,,,,,,,,,,,,,,,,,,,,,NC_37,001,2022_Apr_19_1603,ProdSingRedo,3.2.3,60.299883380023516,
25,0,25,0,,,,,,,,,,,,,,,,,,,,,,,,,,,,171.8345303,None,pretty,sing,yellow,11,233,169.8357714,None,None,169.8357714,None,,,,,,,,,,,,,,,,,,,,,,,,,,,,,,,,,NC_37,001,2022_Apr_19_1603,ProdSingRedo,3.2.3,60.299883380023516,
26,0,26,0,,,,,,,,,,,,,,,,,,,,,,,,,,,,174.3513095,None,patient,aloud,red,50,213,172.3486636,None,None,172.3486636,None,,,,,,,,,,,,,,,,,,,,,,,,,,,,,,,,,NC_37,001,2022_Apr_19_1603,ProdSingRedo,3.2.3,60.299883380023516,
27,0,27,0,,,,,,,,,,,,,,,,,,,,,,,,,,,,176.8681488,None,trash,aloud,red,45,337,174.8648078,None,None,174.8648078,None,,,,,,,,,,,,,,,,,,,,,,,,,,,,,,,,,NC_37,001,2022_Apr_19_1603,ProdSingRedo,3.2.3,60.299883380023516,
28,0,28,0,,,,,,,,,,,,,,,,,,,,,,,,,,,,179.384444,None,rapid,sing,yellow,5,252,177.3818328,None,None,177.3818328,None,,,,,,,,,,,,,,,,,,,,,,,,,,,,,,,,,NC_37,001,2022_Apr_19_1603,ProdSingRedo,3.2.3,60.299883380023516,
29,0,29,0,,,,,,,,,,,,,,,,,,,,,,,,,,,,181.9017394,None,management,silent,blue,64,177,179.9026245,None,None,179.9026245,None,,,,,,,,,,,,,,,,,,,,,,,,,,,,,,,,,NC_37,001,2022_Apr_19_1603,ProdSingRedo,3.2.3,60.299883380023516,
30,0,30,0,,,,,,,,,,,,,,,,,,,,,,,,,,,,184.4177492,None,direction,aloud,red,59,94,182.4075865,None,None,182.4075865,None,,,,,,,,,,,,,,,,,,,,,,,,,,,,,,,,,NC_37,001,2022_Apr_19_1603,ProdSingRedo,3.2.3,60.299883380023516,
31,0,31,0,,,,,,,,,,,,,,,,,,,,,,,,,,,,186.9346186,None,course,silent,blue,88,74,184.91956340000002,None,None,184.91956340000002,None,,,,,,,,,,,,,,,,,,,,,,,,,,,,,,,,,NC_37,001,2022_Apr_19_1603,ProdSingRedo,3.2.3,60.299883380023516,
32,0,32,0,,,,,,,,,,,,,,,,,,,,,,,,,,,,189.4523471,None,season,silent,blue,68,277,187.45172780000001,None,None,187.45172780000001,None,,,,,,,,,,,,,,,,,,,,,,,,,,,,,,,,,NC_37,001,2022_Apr_19_1603,ProdSingRedo,3.2.3,60.299883380023516,
33,0,33,0,,,,,,,,,,,,,,,,,,,,,,,,,,,,191.9685828,None,bureau,aloud,red,34,37,189.9666886,None,None,189.9666886,None,,,,,,,,,,,,,,,,,,,,,,,,,,,,,,,,,NC_37,001,2022_Apr_19_1603,ProdSingRedo,3.2.3,60.299883380023516,
34,0,34,0,,,,,,,,,,,,,,,,,,,,,,,,,,,,194.4849524,None,military,sing,yellow,4,190,192.4827762,None,None,192.4827762,None,,,,,,,,,,,,,,,,,,,,,,,,,,,,,,,,,NC_37,001,2022_Apr_19_1603,ProdSingRedo,3.2.3,60.299883380023516,
35,0,35,0,,,,,,,,,,,,,,,,,,,,,,,,,,,,196.9874061,None,finance,sing,yellow,20,129,194.98695049999998,None,None,194.98695049999998,None,,,,,,,,,,,,,,,,,,,,,,,,,,,,,,,,,NC_37,001,2022_Apr_19_1603,ProdSingRedo,3.2.3,60.299883380023516,
36,0,36,0,,,,,,,,,,,,,,,,,,,,,,,,,,,,199.5189858,None,majority,silent,blue,67,176,197.5250494,None,None,197.5250494,None,,,,,,,,,,,,,,,,,,,,,,,,,,,,,,,,,NC_37,001,2022_Apr_19_1603,ProdSingRedo,3.2.3,60.299883380023516,
37,0,37,0,,,,,,,,,,,,,,,,,,,,,,,,,,,,202.03570330000002,None,stand,silent,blue,70,302,200.0232626,None,None,200.0232626,None,,,,,,,,,,,,,,,,,,,,,,,,,,,,,,,,,NC_37,001,2022_Apr_19_1603,ProdSingRedo,3.2.3,60.299883380023516,
38,0,38,0,,,,,,,,,,,,,,,,,,,,,,,,,,,,204.55334700000003,None,series,aloud,red,58,279,202.54557720000003,None,None,202.54557720000003,None,,,,,,,,,,,,,,,,,,,,,,,,,,,,,,,,,NC_37,001,2022_Apr_19_1603,ProdSingRedo,3.2.3,60.299883380023516,
39,0,39,0,,,,,,,,,,,,,,,,,,,,,,,,,,,,207.07643760000002,None,salary,sing,yellow,15,271,205.0747167,None,None,205.0747167,None,,,,,,,,,,,,,,,,,,,,,,,,,,,,,,,,,NC_37,001,2022_Apr_19_1603,ProdSingRedo,3.2.3,60.299883380023516,
40,0,40,0,,,,,,,,,,,,,,,,,,,,,,,,,,,,209.5861979,None,profession,aloud,red,52,241,207.58570179999998,None,None,207.58570179999998,None,,,,,,,,,,,,,,,,,,,,,,,,,,,,,,,,,NC_37,001,2022_Apr_19_1603,ProdSingRedo,3.2.3,60.299883380023516,
41,0,41,0,,,,,,,,,,,,,,,,,,,,,,,,,,,,212.10295130000003,None,stranger,aloud,red,53,309,210.10617480000002,None,None,210.10617480000002,None,,,,,,,,,,,,,,,,,,,,,,,,,,,,,,,,,NC_37,001,2022_Apr_19_1603,ProdSingRedo,3.2.3,60.299883380023516,
42,0,42,0,,,,,,,,,,,,,,,,,,,,,,,,,,,,214.61945550000002,None,commercial,aloud,red,46,61,212.62102,None,None,212.62102,None,,,,,,,,,,,,,,,,,,,,,,,,,,,,,,,,,NC_37,001,2022_Apr_19_1603,ProdSingRedo,3.2.3,60.299883380023516,
43,0,43,0,,,,,,,,,,,,,,,,,,,,,,,,,,,,217.13693540000003,None,congress,silent,blue,63,67,215.1222214,None,None,215.1222214,None,,,,,,,,,,,,,,,,,,,,,,,,,,,,,,,,,NC_37,001,2022_Apr_19_1603,ProdSingRedo,3.2.3,60.299883380023516,
44,0,44,0,,,,,,,,,,,,,,,,,,,,,,,,,,,,219.65379130000002,None,partner,silent,blue,83,211,217.6515319,None,None,217.6515319,None,,,,,,,,,,,,,,,,,,,,,,,,,,,,,,,,,NC_37,001,2022_Apr_19_1603,ProdSingRedo,3.2.3,60.299883380023516,
45,0,45,0,,,,,,,,,,,,,,,,,,,,,,,,,,,,222.1712516,None,guard,silent,blue,69,145,220.1558119,None,None,220.1558119,None,,,,,,,,,,,,,,,,,,,,,,,,,,,,,,,,,NC_37,001,2022_Apr_19_1603,ProdSingRedo,3.2.3,60.299883380023516,
46,0,46,0,,,,,,,,,,,,,,,,,,,,,,,,,,,,224.68799260000003,None,review,sing,yellow,19,263,222.6887362,None,None,222.6887362,None,,,,,,,,,,,,,,,,,,,,,,,,,,,,,,,,,NC_37,001,2022_Apr_19_1603,ProdSingRedo,3.2.3,60.299883380023516,
47,0,47,0,,,,,,,,,,,,,,,,,,,,,,,,,,,,227.2038983,None,minor,sing,yellow,24,191,225.19689590000002,None,None,225.19689590000002,None,,,,,,,,,,,,,,,,,,,,,,,,,,,,,,,,,NC_37,001,2022_Apr_19_1603,ProdSingRedo,3.2.3,60.299883380023516,
48,0,48,0,,,,,,,,,,,,,,,,,,,,,,,,,,,,229.7050795,None,place,silent,blue,77,222,227.7056364,None,None,227.7056364,None,,,,,,,,,,,,,,,,,,,,,,,,,,,,,,,,,NC_37,001,2022_Apr_19_1603,ProdSingRedo,3.2.3,60.299883380023516,
49,0,49,0,,,,,,,,,,,,,,,,,,,,,,,,,,,,232.22196380000003,None,dispute,sing,yellow,23,99,230.2258963,None,None,230.2258963,None,,,,,,,,,,,,,,,,,,,,,,,,,,,,,,,,,NC_37,001,2022_Apr_19_1603,ProdSingRedo,3.2.3,60.299883380023516,
50,0,50,0,,,,,,,,,,,,,,,,,,,,,,,,,,,,234.73865990000002,None,state,silent,blue,86,303,232.7362958,None,None,232.7362958,None,,,,,,,,,,,,,,,,,,,,,,,,,,,,,,,,,NC_37,001,2022_Apr_19_1603,ProdSingRedo,3.2.3,60.299883380023516,
51,0,51,0,,,,,,,,,,,,,,,,,,,,,,,,,,,,237.2549083,None,point,silent,blue,85,226,235.2482394,None,None,235.2482394,None,,,,,,,,,,,,,,,,,,,,,,,,,,,,,,,,,NC_37,001,2022_Apr_19_1603,ProdSingRedo,3.2.3,60.299883380023516,
52,0,52,0,,,,,,,,,,,,,,,,,,,,,,,,,,,,239.77239300000002,None,suggestion,sing,yellow,13,314,237.77304320000002,None,None,237.77304320000002,None,,,,,,,,,,,,,,,,,,,,,,,,,,,,,,,,,NC_37,001,2022_Apr_19_1603,ProdSingRedo,3.2.3,60.299883380023516,
53,0,53,0,,,,,,,,,,,,,,,,,,,,,,,,,,,,242.28924239999998,None,number,sing,yellow,3,203,240.28082949999998,None,None,240.28082949999998,None,,,,,,,,,,,,,,,,,,,,,,,,,,,,,,,,,NC_37,001,2022_Apr_19_1603,ProdSingRedo,3.2.3,60.299883380023516,
54,0,54,0,,,,,,,,,,,,,,,,,,,,,,,,,,,,244.8050569,None,swift,aloud,red,37,320,242.79770080000003,None,None,242.79770080000003,None,,,,,,,,,,,,,,,,,,,,,,,,,,,,,,,,,NC_37,001,2022_Apr_19_1603,ProdSingRedo,3.2.3,60.299883380023516,
55,0,55,0,,,,,,,,,,,,,,,,,,,,,,,,,,,,247.32177480000001,None,agency,silent,blue,71,4,245.3232913,None,None,245.3232913,None,,,,,,,,,,,,,,,,,,,,,,,,,,,,,,,,,NC_37,001,2022_Apr_19_1603,ProdSingRedo,3.2.3,60.299883380023516,
56,0,56,0,,,,,,,,,,,,,,,,,,,,,,,,,,,,249.8245372,None,atmosphere,silent,blue,80,12,247.8221024,None,None,247.8221024,None,,,,,,,,,,,,,,,,,,,,,,,,,,,,,,,,,NC_37,001,2022_Apr_19_1603,ProdSingRedo,3.2.3,60.299883380023516,
57,0,57,0,,,,,,,,,,,,,,,,,,,,,,,,,,,,252.35594680000003,None,worker,silent,blue,87,356,250.35590100000002,None,None,250.35590100000002,None,,,,,,,,,,,,,,,,,,,,,,,,,,,,,,,,,NC_37,001,2022_Apr_19_1603,ProdSingRedo,3.2.3,60.299883380023516,
58,0,58,0,,,,,,,,,,,,,,,,,,,,,,,,,,,,254.87348530000003,None,sound,silent,blue,60,295,252.87110610000002,None,None,252.87110610000002,None,,,,,,,,,,,,,,,,,,,,,,,,,,,,,,,,,NC_37,001,2022_Apr_19_1603,ProdSingRedo,3.2.3,60.299883380023516,
59,0,59,0,,,,,,,,,,,,,,,,,,,,,,,,,,,,257.3729549,None,bitter,silent,blue,76,23,255.3725089,None,None,255.3725089,None,,,,,,,,,,,,,,,,,,,,,,,,,,,,,,,,,NC_37,001,2022_Apr_19_1603,ProdSingRedo,3.2.3,60.299883380023516,
60,0,60,0,,,,,,,,,,,,,,,,,,,,,,,,,,,,259.8892688,None,population,silent,blue,84,227,257.8941558,None,None,257.8941558,None,,,,,,,,,,,,,,,,,,,,,,,,,,,,,,,,,NC_37,001,2022_Apr_19_1603,ProdSingRedo,3.2.3,60.299883380023516,
61,0,61,0,,,,,,,,,,,,,,,,,,,,,,,,,,,,262.4071425,None,production,silent,blue,65,240,260.4027075,None,None,260.4027075,None,,,,,,,,,,,,,,,,,,,,,,,,,,,,,,,,,NC_37,001,2022_Apr_19_1603,ProdSingRedo,3.2.3,60.299883380023516,
62,0,62,0,,,,,,,,,,,,,,,,,,,,,,,,,,,,264.9241181,None,birth,silent,blue,81,22,262.9183043,None,None,262.9183043,None,,,,,,,,,,,,,,,,,,,,,,,,,,,,,,,,,NC_37,001,2022_Apr_19_1603,ProdSingRedo,3.2.3,60.299883380023516,
63,0,63,0,,,,,,,,,,,,,,,,,,,,,,,,,,,,267.4410395,None,symbol,aloud,red,43,321,265.4405238,None,None,265.4405238,None,,,,,,,,,,,,,,,,,,,,,,,,,,,,,,,,,NC_37,001,2022_Apr_19_1603,ProdSingRedo,3.2.3,60.299883380023516,
64,0,64,0,,,,,,,,,,,,,,,,,,,,,,,,,,,,269.9577113,None,search,sing,yellow,10,276,267.9573375,None,None,267.9573375,None,,,,,,,,,,,,,,,,,,,,,,,,,,,,,,,,,NC_37,001,2022_Apr_19_1603,ProdSingRedo,3.2.3,60.299883380023516,
65,0,65,0,,,,,,,,,,,,,,,,,,,,,,,,,,,,272.4574107,None,rough,sing,yellow,14,266,270.45776,None,None,270.45776,None,,,,,,,,,,,,,,,,,,,,,,,,,,,,,,,,,NC_37,001,2022_Apr_19_1603,ProdSingRedo,3.2.3,60.299883380023516,
66,0,66,0,,,,,,,,,,,,,,,,,,,,,,,,,,,,274.9733368,None,meeting,sing,yellow,1,187,272.9718758,None,None,272.9718758,None,,,,,,,,,,,,,,,,,,,,,,,,,,,,,,,,,NC_37,001,2022_Apr_19_1603,ProdSingRedo,3.2.3,60.299883380023516,
67,0,67,0,,,,,,,,,,,,,,,,,,,,,,,,,,,,277.476682,None,childhood,sing,yellow,7,49,275.474349,None,None,275.474349,None,,,,,,,,,,,,,,,,,,,,,,,,,,,,,,,,,NC_37,001,2022_Apr_19_1603,ProdSingRedo,3.2.3,60.299883380023516,
68,0,68,0,,,,,,,,,,,,,,,,,,,,,,,,,,,,280.0083955,None,answer,aloud,red,55,8,278.0079518,None,None,278.0079518,None,,,,,,,,,,,,,,,,,,,,,,,,,,,,,,,,,NC_37,001,2022_Apr_19_1603,ProdSingRedo,3.2.3,60.299883380023516,
69,0,69,0,,,,,,,,,,,,,,,,,,,,,,,,,,,,282.525245,None,republic,sing,yellow,27,260,280.527851,None,None,280.527851,None,,,,,,,,,,,,,,,,,,,,,,,,,,,,,,,,,NC_37,001,2022_Apr_19_1603,ProdSingRedo,3.2.3,60.299883380023516,
70,0,70,0,,,,,,,,,,,,,,,,,,,,,,,,,,,,285.0416567,None,poetry,sing,yellow,22,225,283.037453,None,None,283.037453,None,,,,,,,,,,,,,,,,,,,,,,,,,,,,,,,,,NC_37,001,2022_Apr_19_1603,ProdSingRedo,3.2.3,60.299883380023516,
71,0,71,0,,,,,,,,,,,,,,,,,,,,,,,,,,,,287.5586818,None,enemy,sing,yellow,0,113,285.5565128,None,None,285.5565128,None,,,,,,,,,,,,,,,,,,,,,,,,,,,,,,,,,NC_37,001,2022_Apr_19_1603,ProdSingRedo,3.2.3,60.299883380023516,
72,0,72,0,,,,,,,,,,,,,,,,,,,,,,,,,,,,290.0757579,None,debate,aloud,red,57,87,288.0751103,None,None,288.0751103,None,,,,,,,,,,,,,,,,,,,,,,,,,,,,,,,,,NC_37,001,2022_Apr_19_1603,ProdSingRedo,3.2.3,60.299883380023516,
73,0,73,0,,,,,,,,,,,,,,,,,,,,,,,,,,,,292.5925523,None,citizen,aloud,red,40,50,290.5882028,None,None,290.5882028,None,,,,,,,,,,,,,,,,,,,,,,,,,,,,,,,,,NC_37,001,2022_Apr_19_1603,ProdSingRedo,3.2.3,60.299883380023516,
74,0,74,0,,,,,,,,,,,,,,,,,,,,,,,,,,,,295.1086548,None,mankind,aloud,red,38,178,293.111911,None,None,293.111911,None,,,,,,,,,,,,,,,,,,,,,,,,,,,,,,,,,NC_37,001,2022_Apr_19_1603,ProdSingRedo,3.2.3,60.299883380023516,
75,0,75,0,,,,,,,,,,,,,,,,,,,,,,,,,,,,297.6262556,None,scene,sing,yellow,28,273,295.6184658,None,None,295.6184658,None,,,,,,,,,,,,,,,,,,,,,,,,,,,,,,,,,NC_37,001,2022_Apr_19_1603,ProdSingRedo,3.2.3,60.299883380023516,
76,0,76,0,,,,,,,,,,,,,,,,,,,,,,,,,,,,300.1425639,None,principal,aloud,red,39,236,298.1327493,None,None,298.1327493,None,,,,,,,,,,,,,,,,,,,,,,,,,,,,,,,,,NC_37,001,2022_Apr_19_1603,ProdSingRedo,3.2.3,60.299883380023516,
77,0,77,0,,,,,,,,,,,,,,,,,,,,,,,,,,,,302.65954370000003,None,prime,silent,blue,89,235,300.6505349,None,None,300.6505349,None,,,,,,,,,,,,,,,,,,,,,,,,,,,,,,,,,NC_37,001,2022_Apr_19_1603,ProdSingRedo,3.2.3,60.299883380023516,
78,0,78,0,,,,,,,,,,,,,,,,,,,,,,,,,,,,305.1767754,None,character,aloud,red,51,46,303.1658868,None,None,303.1658868,None,,,,,,,,,,,,,,,,,,,,,,,,,,,,,,,,,NC_37,001,2022_Apr_19_1603,ProdSingRedo,3.2.3,60.299883380023516,
79,0,79,0,,,,,,,,,,,,,,,,,,,,,,,,,,,,307.6929819,None,harmony,silent,blue,62,148,305.6837473,None,None,305.6837473,None,,,,,,,,,,,,,,,,,,,,,,,,,,,,,,,,,NC_37,001,2022_Apr_19_1603,ProdSingRedo,3.2.3,60.299883380023516,
80,0,80,0,,,,,,,,,,,,,,,,,,,,,,,,,,,,310.2104363,None,native,sing,yellow,18,199,308.1994177,None,None,308.1994177,None,,,,,,,,,,,,,,,,,,,,,,,,,,,,,,,,,NC_37,001,2022_Apr_19_1603,ProdSingRedo,3.2.3,60.299883380023516,
81,0,81,0,,,,,,,,,,,,,,,,,,,,,,,,,,,,312.7265808,None,quarter,silent,blue,73,246,310.7185948,None,None,310.7185948,None,,,,,,,,,,,,,,,,,,,,,,,,,,,,,,,,,NC_37,001,2022_Apr_19_1603,ProdSingRedo,3.2.3,60.299883380023516,
82,0,82,0,,,,,,,,,,,,,,,,,,,,,,,,,,,,315.2274509,None,fight,sing,yellow,6,127,313.228126,None,None,313.228126,None,,,,,,,,,,,,,,,,,,,,,,,,,,,,,,,,,NC_37,001,2022_Apr_19_1603,ProdSingRedo,3.2.3,60.299883380023516,
83,0,83,0,,,,,,,,,,,,,,,,,,,,,,,,,,,,317.7437137,None,literature,aloud,red,33,173,315.73991110000003,None,None,315.73991110000003,None,,,,,,,,,,,,,,,,,,,,,,,,,,,,,,,,,NC_37,001,2022_Apr_19_1603,ProdSingRedo,3.2.3,60.299883380023516,
84,0,84,0,,,,,,,,,,,,,,,,,,,,,,,,,,,,320.2601789,None,interview,sing,yellow,17,165,318.2502924,None,None,318.2502924,None,,,,,,,,,,,,,,,,,,,,,,,,,,,,,,,,,NC_37,001,2022_Apr_19_1603,ProdSingRedo,3.2.3,60.299883380023516,
85,0,85,0,,,,,,,,,,,,,,,,,,,,,,,,,,,,322.7772576,None,trial,silent,blue,82,341,320.7668425,None,None,320.7668425,None,,,,,,,,,,,,,,,,,,,,,,,,,,,,,,,,,NC_37,001,2022_Apr_19_1603,ProdSingRedo,3.2.3,60.299883380023516,
86,0,86,0,,,,,,,,,,,,,,,,,,,,,,,,,,,,325.2943118,None,chief,silent,blue,61,48,323.2859953,None,None,323.2859953,None,,,,,,,,,,,,,,,,,,,,,,,,,,,,,,,,,NC_37,001,2022_Apr_19_1603,ProdSingRedo,3.2.3,60.299883380023516,
87,0,87,0,,,,,,,,,,,,,,,,,,,,,,,,,,,,327.8117607,None,incident,aloud,red,56,158,325.80448160000003,None,None,325.80448160000003,None,,,,,,,,,,,,,,,,,,,,,,,,,,,,,,,,,NC_37,001,2022_Apr_19_1603,ProdSingRedo,3.2.3,60.299883380023516,
88,0,88,0,,,,,,,,,,,,,,,,,,,,,,,,,,,,330.3277332,None,quiet,aloud,red,47,249,328.3223654,None,None,328.3223654,None,,,,,,,,,,,,,,,,,,,,,,,,,,,,,,,,,NC_37,001,2022_Apr_19_1603,ProdSingRedo,3.2.3,60.299883380023516,
89,0,89,0,,,,,,,,,,,,,,,,,,,,,,,,,,,,332.8444047,None,running,silent,blue,72,268,330.8464762,None,None,330.8464762,None,,,,,,,,,,,,,,,,,,,,,,,,,,,,,,,,,NC_37,001,2022_Apr_19_1603,ProdSingRedo,3.2.3,60.299883380023516,
,,,,,,,,,,,,,,,,,,,,,,,,,,,,,,,,,,,,,,,,,,,333.3443633,None,k,142.20629180000003,333.3443633,None,,,,,,,,,,,,,,,,,,,,,,,,,,,NC_37,001,2022_Apr_19_1603,ProdSingRedo,3.2.3,60.299883380023516,
,,,,0,0,0,0,,,,,,,,,,,,,,,,,,,,,,,,482.2078015,None,,,,,,,,,,,,,,,,,emergency,new_a,white,0,99,110,476.09803370000003,None,476.09803370000003,None,1,3.50061740000001,476.09803370000003,None,479.6421847,None,480.15602830000006,None,480.15602830000006,None,f,2.0266215999999986,480.15602830000006,None,,,NC_37,001,2022_Apr_19_1603,ProdSingRedo,3.2.3,60.299883380023516,
,,,,1,0,1,0,,,,,,,,,,,,,,,,,,,,,,,,490.0050826,None,,,,,,,,,,,,,,,,,safety,new_b,white,1,134,270,482.7421265,None,482.7421265,None,2,5.008640000000014,482.7421265,None,487.7973169,None,488.3074493,None,488.3074493,None,f,1.6751327999999148,488.3074493,None,,,NC_37,001,2022_Apr_19_1603,ProdSingRedo,3.2.3,60.299883380023516,
,,,,2,0,2,0,,,,,,,,,,,,,,,,,,,,,,,,500.193111,None,,,,,,,,,,,,,,,,,detective,new_b,white,2,135,92,490.52514149999996,None,490.52514149999996,None,1,6.505424299999959,490.52514149999996,None,497.05893480000003,None,497.57262770000006,None,497.57262770000006,None,n,2.586091900000042,497.57262770000006,None,,,NC_37,001,2022_Apr_19_1603,ProdSingRedo,3.2.3,60.299883380023516,
,,,,3,0,3,0,,,,,,,,,,,,,,,,,,,,,,,,510.6737275,None,,,,,,,,,,,,,,,,,sweet,new_c,white,3,155,319,500.7238692,None,500.7238692,None,6,4.4347870000000285,500.7238692,None,505.2025012,None,505.70783179999995,None,505.70783179999995,None,f,4.946982800000001,505.70783179999995,None,,,NC_37,001,2022_Apr_19_1603,ProdSingRedo,3.2.3,60.299883380023516,
,,,,4,0,4,0,,,,,,,,,,,,,,,,,,,,,,,,515.3916572,None,,,,,,,,,,,,,,,,,power,new_a,white,4,93,230,511.18908619999996,None,511.18908619999996,None,1,2.3454320000000735,511.18908619999996,None,513.5674354,None,514.0873595999999,None,514.0873595999999,None,n,1.2792351000000508,514.0873595999999,None,,,NC_37,001,2022_Apr_19_1603,ProdSingRedo,3.2.3,60.299883380023516,
,,,,5,0,5,0,,,,,,,,,,,,,,,,,,,,,,,,521.4590860999999,None,,,,,,,,,,,,,,,,,childhood,sing,white,5,7,49,515.9212345000001,None,515.9212345000001,None,1,4.453563199999962,515.9212345000001,None,520.4022875999999,None,520.9165536999999,None,520.9165536999999,None,n,0.5223497999999154,520.9165536999999,None,,,NC_37,001,2022_Apr_19_1603,ProdSingRedo,3.2.3,60.299883380023516,
,,,,6,0,6,0,,,,,,,,,,,,,,,,,,,,,,,,533.4931713999999,None,,,,,,,,,,,,,,,,,business,new_a,white,6,106,38,521.9734598,None,521.9734598,None,6,7.537146600000028,521.9734598,None,529.5550479000001,None,530.0675702999999,None,530.0675702999999,None,r,3.395011199999999,530.0675702999999,None,,,NC_37,001,2022_Apr_19_1603,ProdSingRedo,3.2.3,60.299883380023516,
,,,,7,0,7,0,,,,,,,,,,,,,,,,,,,,,,,,540.6092197999999,None,,,,,,,,,,,,,,,,,review,sing,white,7,19,263,534.0133853,None,534.0133853,None,6,3.2651777000000948,534.0133853,None,537.3130008,None,537.8253453,None,537.8253453,None,r,2.7573476999999684,537.8253453,None,,,NC_37,001,2022_Apr_19_1603,ProdSingRedo,3.2.3,60.299883380023516,
,,,,8,0,8,0,,,,,,,,,,,,,,,,,,,,,,,,546.0188020999999,None,,,,,,,,,,,,,,,,,opening,new_b,white,8,144,205,541.1263005000001,None,541.1263005000001,None,3,3.4966823999999406,541.1263005000001,None,544.6558055999999,None,545.1705331999999,None,545.1705331999999,None,n,0.8122366000000056,545.1705331999999,None,,,NC_37,001,2022_Apr_19_1603,ProdSingRedo,3.2.3,60.299883380023516,
,,,,9,0,9,0,,,,,,,,,,,,,,,,,,,,,,,,552.8102501000001,None,,,,,,,,,,,,,,,,,birth,silent,white,9,81,22,546.5413887,None,546.5413887,None,6,3.9774084000000585,546.5413887,None,550.5551676,None,551.0599765,None,551.0599765,None,f,1.7224919000000227,551.0599765,None,,,NC_37,001,2022_Apr_19_1603,ProdSingRedo,3.2.3,60.299883380023516,
,,,,10,0,10,0,,,,,,,,,,,,,,,,,,,,,,,,558.3435003,None,,,,,,,,,,,,,,,,,rough,sing,white,10,14,266,553.3121695,None,553.3121695,None,1,3.9186164999999846,553.3121695,None,557.2750203,None,557.7759911999999,None,557.7759911999999,None,n,0.5504674000000023,557.7759911999999,None,,,NC_37,001,2022_Apr_19_1603,ProdSingRedo,3.2.3,60.299883380023516,
,,,,11,0,11,0,,,,,,,,,,,,,,,,,,,,,,,,564.323672,None,,,,,,,,,,,,,,,,,people,new_c,white,11,150,216,558.8604045,None,558.8604045,None,3,3.426072099999942,558.8604045,None,562.3115849999999,None,562.8421696,None,562.8421696,None,n,1.4526767999999493,562.8421696,None,,,NC_37,001,2022_Apr_19_1603,ProdSingRedo,3.2.3,60.299883380023516,
,,,,12,0,12,0,,,,,,,,,,,,,,,,,,,,,,,,567.7781325000001,None,,,,,,,,,,,,,,,,,sound,silent,white,12,60,295,564.8517208000001,None,564.8517208000001,None,1,2.018652599999996,564.8517208000001,None,566.8956227000001,None,567.4098163000001,None,567.4098163000001,None,n,0.34065290000000914,567.4098163000001,None,,,NC_37,001,2022_Apr_19_1603,ProdSingRedo,3.2.3,60.299883380023516,
,,,,13,0,13,0,,,,,,,,,,,,,,,,,,,,,,,,574.9460825000001,None,,,,,,,,,,,,,,,,,incident,aloud,white,13,56,158,568.2974165,None,568.2974165,None,6,3.2772910999999567,568.2974165,None,571.6004464,None,572.1106738999999,None,572.1106738999999,None,r,2.8077875999999833,572.1106738999999,None,,,NC_37,001,2022_Apr_19_1603,ProdSingRedo,3.2.3,60.299883380023516,
,,,,14,0,14,0,,,,,,,,,,,,,,,,,,,,,,,,579.7113382,None,,,,,,,,,,,,,,,,,beginning,new_b,white,14,147,19,575.4673986,None,575.4673986,None,1,2.6193796999999677,575.4673986,None,578.1349912999999,None,578.645162,None,578.645162,None,n,1.0412786000000551,578.645162,None,,,NC_37,001,2022_Apr_19_1603,ProdSingRedo,3.2.3,60.299883380023516,
,,,,15,0,15,0,,,,,,,,,,,,,,,,,,,,,,,,582.8964745000001,None,,,,,,,,,,,,,,,,,income,new_a,white,15,118,159,580.2125139,None,580.2125139,None,1,1.5699922000000015,580.2125139,None,581.8134438,None,582.3279614999999,None,582.3279614999999,None,n,0.5344393999999966,582.3279614999999,None,,,NC_37,001,2022_Apr_19_1603,ProdSingRedo,3.2.3,60.299883380023516,
,,,,16,0,16,0,,,,,,,,,,,,,,,,,,,,,,,,588.3968746,None,,,,,,,,,,,,,,,,,poetry,sing,white,16,22,225,583.4118900000001,None,583.4118900000001,None,6,3.1545618000000104,583.4118900000001,None,586.6023763999999,None,587.1124597,None,587.1124597,None,r,1.2542214000000058,587.1124597,None,,,NC_37,001,2022_Apr_19_1603,ProdSingRedo,3.2.3,60.299883380023516,
,,,,17,0,17,0,,,,,,,,,,,,,,,,,,,,,,,,597.9096861999999,None,,,,,,,,,,,,,,,,,agency,silent,white,17,71,4,588.9315498000001,None,588.9315498000001,None,1,5.554997000000071,588.9315498000001,None,594.5191408999999,None,595.0301990999999,None,595.0301990999999,None,n,2.8403304999999364,595.0301990999999,None,,,NC_37,001,2022_Apr_19_1603,ProdSingRedo,3.2.3,60.299883380023516,
,,,,18,0,18,0,,,,,,,,,,,,,,,,,,,,,,,,606.3818735,None,,,,,,,,,,,,,,,,,finish,aloud,white,18,30,130,598.4278747999999,None,598.4278747999999,None,5,4.754697400000055,598.4278747999999,None,603.2242526,None,603.7398837999999,None,603.7398837999999,None,f,2.6185991999999487,603.7398837999999,None,,,NC_37,001,2022_Apr_19_1603,ProdSingRedo,3.2.3,60.299883380023516,
,,,,19,0,19,0,,,,,,,,,,,,,,,,,,,,,,,,610.5736084,None,,,,,,,,,,,,,,,,,comfort,aloud,white,19,36,59,606.9152789,None,606.9152789,None,6,2.171191199999953,606.9152789,None,609.1155971000001,None,609.6327706,None,609.6327706,None,r,0.9099803999999949,609.6327706,None,,,NC_37,001,2022_Apr_19_1603,ProdSingRedo,3.2.3,60.299883380023516,
,,,,20,0,20,0,,,,,,,,,,,,,,,,,,,,,,,,618.5491442,None,,,,,,,,,,,,,,,,,vision,new_c,white,20,169,347,611.0972251999999,None,611.0972251999999,None,3,3.941216700000041,611.0972251999999,None,615.0651631000001,None,615.5834336,None,615.5834336,None,n,2.9351608999999144,615.5834336,None,,,NC_37,001,2022_Apr_19_1603,ProdSingRedo,3.2.3,60.299883380023516,
,,,,21,0,21,0,,,,,,,,,,,,,,,,,,,,,,,,623.3506077,None,,,,,,,,,,,,,,,,,whole,new_c,white,21,167,355,619.0832402000001,None,619.0832402000001,None,2,2.2995076999999355,619.0832402000001,None,621.4199569,None,621.9408456000001,None,621.9408456000001,None,n,1.385704300000043,621.9408456000001,None,,,NC_37,001,2022_Apr_19_1603,ProdSingRedo,3.2.3,60.299883380023516,
,,,,22,0,22,0,,,,,,,,,,,,,,,,,,,,,,,,629.3498038,None,,,,,,,,,,,,,,,,,center,sing,white,22,21,44,623.8784677000001,None,623.8784677000001,None,5,3.3042533999999932,623.8784677000001,None,627.2195342,None,627.7332925000001,None,627.7332925000001,None,f,1.5853729000000385,627.7332925000001,None,,,NC_37,001,2022_Apr_19_1603,ProdSingRedo,3.2.3,60.299883380023516,
,,,,23,0,23,0,,,,,,,,,,,,,,,,,,,,,,,,640.0823499999999,None,,,,,,,,,,,,,,,,,running,silent,white,23,72,268,629.8812805,None,629.8812805,None,1,7.109177599999953,629.8812805,None,637.0174666,None,637.5311225999999,None,637.5311225999999,None,n,2.5233329999999796,637.5311225999999,None,,,NC_37,001,2022_Apr_19_1603,ProdSingRedo,3.2.3,60.299883380023516,
,,,,24,0,24,0,,,,,,,,,,,,,,,,,,,,,,,,643.4771436999999,None,,,,,,,,,,,,,,,,,narrow,new_a,white,24,96,197,640.5854406999999,None,640.5854406999999,None,1,1.6851259999999684,640.5854406999999,None,642.3066670000001,None,642.8154683,None,642.8154683,None,n,0.6318838999999343,642.8154683,None,,,NC_37,001,2022_Apr_19_1603,ProdSingRedo,3.2.3,60.299883380023516,
,,,,25,0,25,0,,,,,,,,,,,,,,,,,,,,,,,,649.8528896,None,,,,,,,,,,,,,,,,,captain,new_b,white,25,132,41,644.0047483000001,None,644.0047483000001,None,3,3.969878699999981,644.0047483000001,None,648.0275575999999,None,648.5390132,None,648.5390132,None,n,1.2918028000000277,648.5390132,None,,,NC_37,001,2022_Apr_19_1603,ProdSingRedo,3.2.3,60.299883380023516,
,,,,26,0,26,0,,,,,,,,,,,,,,,,,,,,,,,,652.8676061000001,None,,,,,,,,,,,,,,,,,brilliant,new_c,white,26,165,30,650.3850743999999,None,650.3850743999999,None,1,1.5416229999999587,650.3850743999999,None,651.9690736,None,652.4866337000001,None,652.4866337000001,None,n,0.3601183000000674,652.4866337000001,None,,,NC_37,001,2022_Apr_19_1603,ProdSingRedo,3.2.3,60.299883380023516,
,,,,27,0,27,0,,,,,,,,,,,,,,,,,,,,,,,,658.1824136,None,,,,,,,,,,,,,,,,,broad,sing,white,27,2,31,653.3917326999999,None,653.3917326999999,None,4,3.390929700000015,653.3917326999999,None,656.8071596,None,657.315609,None,657.315609,None,f,0.850866300000007,657.315609,None,,,NC_37,001,2022_Apr_19_1603,ProdSingRedo,3.2.3,60.299883380023516,
,,,,28,0,28,0,,,,,,,,,,,,,,,,,,,,,,,,662.4392854,None,,,,,,,,,,,,,,,,,character,aloud,white,28,51,46,658.6845318000001,None,658.6845318000001,None,5,2.50595009999995,658.6845318000001,None,661.2215448,None,661.7452585000001,None,661.7452585000001,None,f,0.6695518999999877,661.7452585000001,None,,,NC_37,001,2022_Apr_19_1603,ProdSingRedo,3.2.3,60.299883380023516,
,,,,29,0,29,0,,,,,,,,,,,,,,,,,,,,,,,,668.1199158,None,,,,,,,,,,,,,,,,,staff,new_a,white,29,103,301,662.9669647000001,None,662.9669647000001,None,3,3.6396852999999965,662.9669647000001,None,666.6460886,None,667.1610171,None,667.1610171,None,n,0.9255696000000171,667.1610171,None,,,NC_37,001,2022_Apr_19_1603,ProdSingRedo,3.2.3,60.299883380023516,
,,,,30,0,30,0,,,,,,,,,,,,,,,,,,,,,,,,671.9542584000001,None,,,,,,,,,,,,,,,,,enemy,sing,white,30,0,113,668.6482424999999,None,668.6482424999999,None,6,1.7345004000000017,668.6482424999999,None,670.4136621,None,670.9277597,None,670.9277597,None,r,0.99889840000003,670.9277597,None,,,NC_37,001,2022_Apr_19_1603,ProdSingRedo,3.2.3,60.299883380023516,
,,,,31,0,31,0,,,,,,,,,,,,,,,,,,,,,,,,676.6348508000001,None,,,,,,,,,,,,,,,,,fight,sing,white,31,6,127,672.4858823,None,672.4858823,None,6,2.7446270999998887,672.4858823,None,675.2656387,None,675.7691038,None,675.7691038,None,r,0.845655699999952,675.7691038,None,,,NC_37,001,2022_Apr_19_1603,ProdSingRedo,3.2.3,60.299883380023516,
,,,,32,0,32,0,,,,,,,,,,,,,,,,,,,,,,,,682.1695502,None,,,,,,,,,,,,,,,,,skill,new_b,white,32,122,289,677.1421846000001,None,677.1421846000001,None,5,3.5362881999999445,677.1421846000001,None,680.7043701,None,681.2177693000001,None,681.2177693000001,None,f,0.9327343999999584,681.2177693000001,None,,,NC_37,001,2022_Apr_19_1603,ProdSingRedo,3.2.3,60.299883380023516,
,,,,33,0,33,0,,,,,,,,,,,,,,,,,,,,,,,,685.8367753,None,,,,,,,,,,,,,,,,,department,new_a,white,33,114,90,682.6850075,None,682.6850075,None,5,2.0897165000000086,682.6850075,None,684.8200228999999,None,685.3269540000001,None,685.3269540000001,None,f,0.48757880000005116,685.3269540000001,None,,,NC_37,001,2022_Apr_19_1603,ProdSingRedo,3.2.3,60.299883380023516,
,,,,34,0,34,0,,,,,,,,,,,,,,,,,,,,,,,,690.9379105999999,None,,,,,,,,,,,,,,,,,quick,new_c,white,34,168,248,686.3700374,None,686.3700374,None,4,3.180430900000033,686.3700374,None,689.5712060999999,None,690.0885307000001,None,690.0885307000001,None,f,0.8220426000000316,690.0885307000001,None,,,NC_37,001,2022_Apr_19_1603,ProdSingRedo,3.2.3,60.299883380023516,
,,,,35,0,35,0,,,,,,,,,,,,,,,,,,,,,,,,695.2550001,None,,,,,,,,,,,,,,,,,majority,silent,white,35,67,176,691.4532328,None,691.4532328,None,1,1.96934930000009,691.4532328,None,693.4599452,None,693.9767790000001,None,693.9767790000001,None,n,1.25379989999999,693.9767790000001,None,,,NC_37,001,2022_Apr_19_1603,ProdSingRedo,3.2.3,60.299883380023516,
,,,,36,0,36,0,,,,,,,,,,,,,,,,,,,,,,,,700.5954987,None,,,,,,,,,,,,,,,,,foundation,new_a,white,36,91,132,695.7915806000001,None,695.7915806000001,None,6,3.167011400000092,695.7915806000001,None,699.0033410000001,None,699.510151,None,699.510151,None,r,1.0486196000000518,699.510151,None,,,NC_37,001,2022_Apr_19_1603,ProdSingRedo,3.2.3,60.299883380023516,
,,,,37,0,37,0,,,,,,,,,,,,,,,,,,,,,,,,704.8766435,None,,,,,,,,,,,,,,,,,dispute,sing,white,37,23,99,701.1135333,None,701.1135333,None,6,2.221291899999983,701.1135333,None,703.3646793,None,703.8838808,None,703.8838808,None,r,0.9706783000000314,703.8838808,None,,,NC_37,001,2022_Apr_19_1603,ProdSingRedo,3.2.3,60.299883380023516,
,,,,38,0,38,0,,,,,,,,,,,,,,,,,,,,,,,,712.2058804999999,None,,,,,,,,,,,,,,,,,write,new_c,white,38,160,358,705.4043637,None,705.4043637,None,2,4.922221899999954,705.4043637,None,710.3564549,None,710.8789214000001,None,710.8789214000001,None,n,1.295711200000028,710.8789214000001,None,,,NC_37,001,2022_Apr_19_1603,ProdSingRedo,3.2.3,60.299883380023516,
,,,,39,0,39,0,,,,,,,,,,,,,,,,,,,,,,,,718.0893495,None,,,,,,,,,,,,,,,,,entrance,aloud,white,39,49,115,712.7286859000001,None,712.7286859000001,None,6,2.029795400000012,712.7286859000001,None,714.7931126000001,None,715.3113168,None,715.3113168,None,f,2.751194299999952,715.3113168,None,,,NC_37,001,2022_Apr_19_1603,ProdSingRedo,3.2.3,60.299883380023516,
,,,,40,0,40,0,,,,,,,,,,,,,,,,,,,,,,,,724.0468914,None,,,,,,,,,,,,,,,,,number,sing,white,40,3,203,718.620623,None,718.620623,None,6,3.1061035000000174,718.620623,None,721.776036,None,722.3019650000001,None,722.3019650000001,None,f,1.7048977000000605,722.3019650000001,None,,,NC_37,001,2022_Apr_19_1603,ProdSingRedo,3.2.3,60.299883380023516,
,,,,41,0,41,0,,,,,,,,,,,,,,,,,,,,,,,,729.5217275,None,,,,,,,,,,,,,,,,,crisis,new_c,white,41,175,79,724.5716504,None,724.5716504,None,1,3.4269587,724.5716504,None,728.0452602,None,728.5572755000001,None,728.5572755000001,None,n,0.9371607999999014,728.5572755000001,None,,,NC_37,001,2022_Apr_19_1603,ProdSingRedo,3.2.3,60.299883380023516,
,,,,42,0,42,0,,,,,,,,,,,,,,,,,,,,,,,,733.7233481000001,None,,,,,,,,,,,,,,,,,order,new_c,white,42,151,207,730.0365555999999,None,730.0365555999999,None,2,2.2980535000000373,730.0365555999999,None,732.3650384,None,732.8787890000001,None,732.8787890000001,None,n,0.8242076000000225,732.8787890000001,None,,,NC_37,001,2022_Apr_19_1603,ProdSingRedo,3.2.3,60.299883380023516,
,,,,43,0,43,0,,,,,,,,,,,,,,,,,,,,,,,,738.5725261,None,,,,,,,,,,,,,,,,,escape,sing,white,43,26,118,734.2407820000001,None,734.2407820000001,None,5,2.6056937999999263,734.2407820000001,None,736.8744846,None,737.3887502,None,737.3887502,None,f,1.1536462999999912,737.3887502,None,,,NC_37,001,2022_Apr_19_1603,ProdSingRedo,3.2.3,60.299883380023516,
,,,,44,0,44,0,,,,,,,,,,,,,,,,,,,,,,,,743.3233353999999,None,,,,,,,,,,,,,,,,,account,new_b,white,44,149,1,739.0944589000001,None,739.0944589000001,None,1,1.5519567000000052,739.0944589000001,None,740.6751466999999,None,741.2028565999999,None,741.2028565999999,None,n,2.0997621999999865,741.2028565999999,None,,,NC_37,001,2022_Apr_19_1603,ProdSingRedo,3.2.3,60.299883380023516,
,,,,45,0,45,0,,,,,,,,,,,,,,,,,,,,,,,,750.9823914000001,None,,,,,,,,,,,,,,,,,population,silent,white,45,84,227,743.8411538,None,743.8411538,None,6,4.2296142000000145,743.8411538,None,748.1074245,None,748.6129923000001,None,748.6129923000001,None,f,2.3296779999999444,748.6129923000001,None,,,NC_37,001,2022_Apr_19_1603,ProdSingRedo,3.2.3,60.299883380023516,
,,,,46,0,46,0,,,,,,,,,,,,,,,,,,,,,,,,755.7412885000001,None,,,,,,,,,,,,,,,,,search,sing,white,46,10,276,751.4989975000001,None,751.4989975000001,None,4,3.323647199999982,751.4989975000001,None,754.8543,None,755.3676493999999,None,755.3676493999999,None,f,0.3428830000000289,755.3676493999999,None,,,NC_37,001,2022_Apr_19_1603,ProdSingRedo,3.2.3,60.299883380023516,
,,,,47,0,47,0,,,,,,,,,,,,,,,,,,,,,,,,763.7429522,None,,,,,,,,,,,,,,,,,primary,new_c,white,47,166,234,756.2615208,None,756.2615208,None,6,4.745212100000003,756.2615208,None,761.0380543000001,None,761.5533879,None,761.5533879,None,r,2.1651394000000437,761.5533879,None,,,NC_37,001,2022_Apr_19_1603,ProdSingRedo,3.2.3,60.299883380023516,
,,,,48,0,48,0,,,,,,,,,,,,,,,,,,,,,,,,767.4258658000001,None,,,,,,,,,,,,,,,,,series,aloud,white,48,58,279,764.2688585999999,None,764.2688585999999,None,6,1.5615273000000798,764.2688585999999,None,765.8623663000001,None,766.3730138000001,None,766.3730138000001,None,r,1.0254469999999856,766.3730138000001,None,,,NC_37,001,2022_Apr_19_1603,ProdSingRedo,3.2.3,60.299883380023516,
,,,,49,0,49,0,,,,,,,,,,,,,,,,,,,,,,,,771.5255029,None,,,,,,,,,,,,,,,,,subject,new_a,white,49,108,312,767.9456660000001,None,767.9456660000001,None,2,2.0610656000000063,767.9456660000001,None,770.0389318,None,770.5508983,None,770.5508983,None,n,0.9278298000000404,770.5508983,None,,,NC_37,001,2022_Apr_19_1603,ProdSingRedo,3.2.3,60.299883380023516,
,,,,50,0,50,0,,,,,,,,,,,,,,,,,,,,,,,,776.0825808,None,,,,,,,,,,,,,,,,,testimony,new_a,white,50,110,325,772.0502262,None,772.0502262,None,6,2.164325299999973,772.0502262,None,774.2556752,None,774.7598214,None,774.7598214,None,r,1.2951663000000053,774.7598214,None,,,NC_37,001,2022_Apr_19_1603,ProdSingRedo,3.2.3,60.299883380023516,
,,,,51,0,51,0,,,,,,,,,,,,,,,,,,,,,,,,783.5598037,None,,,,,,,,,,,,,,,,,produce,new_c,white,51,159,239,776.6129486,None,776.6129486,None,6,3.073641899999984,776.6129486,None,779.7311734,None,780.2480281999999,None,780.2480281999999,None,f,3.286523500000044,780.2480281999999,None,,,NC_37,001,2022_Apr_19_1603,ProdSingRedo,3.2.3,60.299883380023516,
,,,,52,0,52,0,,,,,,,,,,,,,,,,,,,,,,,,788.0274079999999,None,,,,,,,,,,,,,,,,,still,new_a,white,52,100,304,784.0730073,None,784.0730073,None,2,1.83751129999996,784.0730073,None,785.9510822,None,786.4664631999999,None,786.4664631999999,None,n,1.532005300000037,786.4664631999999,None,,,NC_37,001,2022_Apr_19_1603,ProdSingRedo,3.2.3,60.299883380023516,
,,,,53,0,53,0,,,,,,,,,,,,,,,,,,,,,,,,791.1429820999999,None,,,,,,,,,,,,,,,,,store,new_a,white,53,112,305,788.5479831,None,788.5479831,None,3,1.6826072999999724,788.5479831,None,790.2693726,None,790.7776455999999,None,790.7776455999999,None,n,0.3328475000000708,790.7776455999999,None,,,NC_37,001,2022_Apr_19_1603,ProdSingRedo,3.2.3,60.299883380023516,
,,,,54,0,54,0,,,,,,,,,,,,,,,,,,,,,,,,795.6524761999999,None,,,,,,,,,,,,,,,,,meeting,sing,white,54,1,187,791.6611617000001,None,791.6611617000001,None,2,2.9456376000000546,791.6611617000001,None,794.6377362000001,None,795.1424728,None,795.1424728,None,n,0.48062879999997676,795.1424728,None,,,NC_37,001,2022_Apr_19_1603,ProdSingRedo,3.2.3,60.299883380023516,
,,,,55,0,55,0,,,,,,,,,,,,,,,,,,,,,,,,798.8619143999999,None,,,,,,,,,,,,,,,,,school,new_a,white,55,92,274,796.1627309999999,None,796.1627309999999,None,6,1.6676170999999158,796.1627309999999,None,797.8663269000001,None,798.3778751,None,798.3778751,None,f,0.4606522000000268,798.3778751,None,,,NC_37,001,2022_Apr_19_1603,ProdSingRedo,3.2.3,60.299883380023516,
,,,,56,0,56,0,,,,,,,,,,,,,,,,,,,,,,,,802.9284394000001,None,,,,,,,,,,,,,,,,,guard,silent,white,56,69,145,799.3911066000001,None,799.3911066000001,None,4,2.007265899999993,799.3911066000001,None,801.4371602000001,None,801.9431148000001,None,801.9431148000001,None,r,0.9594549000000825,801.9431148000001,None,,,NC_37,001,2022_Apr_19_1603,ProdSingRedo,3.2.3,60.299883380023516,
,,,,57,0,57,0,,,,,,,,,,,,,,,,,,,,,,,,816.3710223999999,None,,,,,,,,,,,,,,,,,agreement,new_b,white,57,140,5,803.4594933999999,None,803.4594933999999,None,5,10.163010399999962,803.4594933999999,None,813.6561684000001,None,814.1712513,None,814.1712513,None,f,2.171538700000042,814.1712513,None,,,NC_37,001,2022_Apr_19_1603,ProdSingRedo,3.2.3,60.299883380023516,
,,,,58,0,58,0,,,,,,,,,,,,,,,,,,,,,,,,823.1628551000001,None,,,,,,,,,,,,,,,,,congress,silent,white,58,63,67,816.8841113000001,None,816.8841113000001,None,2,4.1385380999998915,816.8841113000001,None,821.0574491,None,821.5726854,None,821.5726854,None,n,1.5698776000000407,821.5726854,None,,,NC_37,001,2022_Apr_19_1603,ProdSingRedo,3.2.3,60.299883380023516,
,,,,59,0,59,0,,,,,,,,,,,,,,,,,,,,,,,,827.6300389999999,None,,,,,,,,,,,,,,,,,trail,new_a,white,59,119,336,823.6778214000001,None,823.6778214000001,None,2,3.032677700000022,823.6778214000001,None,826.7297556000001,None,827.2567985999999,None,827.2567985999999,None,n,0.3417171999999482,827.2567985999999,None,,,NC_37,001,2022_Apr_19_1603,ProdSingRedo,3.2.3,60.299883380023516,
,,,,60,0,60,0,,,,,,,,,,,,,,,,,,,,,,,,831.4296744000001,None,,,,,,,,,,,,,,,,,science,sing,white,60,8,275,828.1588575000001,None,828.1588575000001,None,6,1.5681840999999395,828.1588575000001,None,829.7666004,None,830.2800039000001,None,830.2800039000001,None,r,1.1264535999999907,830.2800039000001,None,,,NC_37,001,2022_Apr_19_1603,ProdSingRedo,3.2.3,60.299883380023516,
,,,,61,0,61,0,,,,,,,,,,,,,,,,,,,,,,,,834.896814,None,,,,,,,,,,,,,,,,,portion,new_b,white,61,141,228,831.9595489000001,None,831.9595489000001,None,1,1.9430965000000242,831.9595489000001,None,833.9409476000001,None,834.4544414,None,834.4544414,None,n,0.41618099999993774,834.4544414,None,,,NC_37,001,2022_Apr_19_1603,ProdSingRedo,3.2.3,60.299883380023516,
,,,,62,0,62,0,,,,,,,,,,,,,,,,,,,,,,,,839.1394519,None,,,,,,,,,,,,,,,,,shock,aloud,white,62,41,284,835.4104463000001,None,835.4104463000001,None,6,2.388101800000072,835.4104463000001,None,837.8433775999999,None,838.3472955,None,838.3472955,None,r,0.7554033000000118,838.3472955,None,,,NC_37,001,2022_Apr_19_1603,ProdSingRedo,3.2.3,60.299883380023516,
,,,,63,0,63,0,,,,,,,,,,,,,,,,,,,,,,,,842.5325194,None,,,,,,,,,,,,,,,,,suggestion,sing,white,63,13,314,839.6668803,None,839.6668803,None,1,1.5716552000000092,839.6668803,None,841.2754913000001,None,841.7791666999999,None,841.7791666999999,None,n,0.7316144999999779,841.7791666999999,None,,,NC_37,001,2022_Apr_19_1603,ProdSingRedo,3.2.3,60.299883380023516,
,,,,64,0,64,0,,,,,,,,,,,,,,,,,,,,,,,,847.7810582,None,,,,,,,,,,,,,,,,,shear,sing,white,64,16,283,843.0633221,None,843.0633221,None,2,3.7354010000000244,843.0633221,None,846.8602598,None,847.3777115,None,847.3777115,None,n,0.37277050000000145,847.3777115,None,,,NC_37,001,2022_Apr_19_1603,ProdSingRedo,3.2.3,60.299883380023516,
,,,,65,0,65,0,,,,,,,,,,,,,,,,,,,,,,,,851.9068625,None,,,,,,,,,,,,,,,,,stranger,aloud,white,65,53,309,848.3133190000001,None,848.3133190000001,None,2,2.7335215000000517,848.3133190000001,None,851.0927463,None,851.6098022000001,None,851.6098022000001,None,n,0.26907699999992474,851.6098022000001,None,,,NC_37,001,2022_Apr_19_1603,ProdSingRedo,3.2.3,60.299883380023516,
,,,,66,0,66,0,,,,,,,,,,,,,,,,,,,,,,,,854.8390095,None,,,,,,,,,,,,,,,,,smooth,new_b,white,66,142,292,852.428017,None,852.428017,None,2,1.5544988999999987,852.428017,None,854.0247374999999,None,854.5302575000001,None,854.5302575000001,None,n,0.2761526999998978,854.5302575000001,None,,,NC_37,001,2022_Apr_19_1603,ProdSingRedo,3.2.3,60.299883380023516,
,,,,67,0,67,0,,,,,,,,,,,,,,,,,,,,,,,,861.5677456000001,None,,,,,,,,,,,,,,,,,music,new_b,white,67,148,196,855.362267,None,855.362267,None,5,2.348444299999983,855.362267,None,857.7567276,None,858.2628580999999,None,858.2628580999999,None,f,3.2796604000000116,858.2628580999999,None,,,NC_37,001,2022_Apr_19_1603,ProdSingRedo,3.2.3,60.299883380023516,
,,,,68,0,68,0,,,,,,,,,,,,,,,,,,,,,,,,870.4299384999999,None,,,,,,,,,,,,,,,,,welcome,new_b,white,68,146,354,862.0840426,None,862.0840426,None,2,6.394580399999995,862.0840426,None,868.5011391,None,869.0164279999999,None,869.0164279999999,None,n,1.381922599999939,869.0164279999999,None,,,NC_37,001,2022_Apr_19_1603,ProdSingRedo,3.2.3,60.299883380023516,
,,,,69,0,69,0,,,,,,,,,,,,,,,,,,,,,,,,876.1000351,None,,,,,,,,,,,,,,,,,object,new_a,white,69,111,204,870.9315651,None,870.9315651,None,5,4.018801000000053,870.9315651,None,874.9922498000001,None,875.5000362000001,None,875.5000362000001,None,f,0.5703168999999662,875.5000362000001,None,,,NC_37,001,2022_Apr_19_1603,ProdSingRedo,3.2.3,60.299883380023516,
,,,,70,0,70,0,,,,,,,,,,,,,,,,,,,,,,,,880.5660997,None,,,,,,,,,,,,,,,,,hearing,new_b,white,70,124,150,876.6150915000001,None,876.6150915000001,None,5,3.087324399999943,876.6150915000001,None,879.7367053,None,880.2473451999999,None,880.2473451999999,None,f,0.2870269999999664,880.2473451999999,None,,,NC_37,001,2022_Apr_19_1603,ProdSingRedo,3.2.3,60.299883380023516,
,,,,71,0,71,0,,,,,,,,,,,,,,,,,,,,,,,,884.2476466,None,,,,,,,,,,,,,,,,,cousin,new_b,white,71,129,76,881.0808233,None,881.0808233,None,1,1.6615633000000116,881.0808233,None,882.7701044,None,883.2809523000001,None,883.2809523000001,None,n,0.9496530999999777,883.2809523000001,None,,,NC_37,001,2022_Apr_19_1603,ProdSingRedo,3.2.3,60.299883380023516,
,,,,72,0,72,0,,,,,,,,,,,,,,,,,,,,,,,,889.7481488999999,None,,,,,,,,,,,,,,,,,period,aloud,white,72,31,217,884.7497406,None,884.7497406,None,6,2.7366157000000157,884.7497406,None,887.5168839,None,888.0310445,None,888.0310445,None,r,1.6953490000000784,888.0310445,None,,,NC_37,001,2022_Apr_19_1603,ProdSingRedo,3.2.3,60.299883380023516,
,,,,73,0,73,0,,,,,,,,,,,,,,,,,,,,,,,,893.2192001000001,None,,,,,,,,,,,,,,,,,history,new_c,white,73,174,153,890.2502506000001,None,890.2502506000001,None,1,1.5482242000000497,890.2502506000001,None,891.8176888,None,892.3316440000001,None,892.3316440000001,None,n,0.8586897000000135,892.3316440000001,None,,,NC_37,001,2022_Apr_19_1603,ProdSingRedo,3.2.3,60.299883380023516,
,,,,74,0,74,0,,,,,,,,,,,,,,,,,,,,,,,,898.1824747000001,None,,,,,,,,,,,,,,,,,harmony,silent,white,74,62,148,893.7340909,None,893.7340909,None,6,1.944240299999933,893.7340909,None,895.7057702,None,896.2193135,None,896.2193135,None,r,1.9390295999999125,896.2193135,None,,,NC_37,001,2022_Apr_19_1603,ProdSingRedo,3.2.3,60.299883380023516,
,,,,75,0,75,0,,,,,,,,,,,,,,,,,,,,,,,,901.2831276,None,,,,,,,,,,,,,,,,,bureau,aloud,white,75,34,37,898.6890979,None,898.6890979,None,6,1.773518299999978,898.6890979,None,900.4919950000001,None,901.0000114,None,901.0000114,None,r,0.25446899999997186,901.0000114,None,,,NC_37,001,2022_Apr_19_1603,ProdSingRedo,3.2.3,60.299883380023516,
,,,,76,0,76,0,,,,,,,,,,,,,,,,,,,,,,,,907.8027282999999,None,,,,,,,,,,,,,,,,,service,silent,white,76,78,280,901.7855096000001,None,901.7855096000001,None,5,4.516815199999996,901.7855096000001,None,906.3430229,None,906.8489623,None,906.8489623,None,f,0.9335870999999543,906.8489623,None,,,NC_37,001,2022_Apr_19_1603,ProdSingRedo,3.2.3,60.299883380023516,
,,,,77,0,77,0,,,,,,,,,,,,,,,,,,,,,,,,911.4879129999999,None,,,,,,,,,,,,,,,,,junior,new_c,white,77,162,167,908.3367238999999,None,908.3367238999999,None,1,1.8619044999999232,908.3367238999999,None,910.2234484,None,910.7437318,None,910.7437318,None,n,0.710837799999922,910.7437318,None,,,NC_37,001,2022_Apr_19_1603,ProdSingRedo,3.2.3,60.299883380023516,
,,,,78,0,78,0,,,,,,,,,,,,,,,,,,,,,,,,914.7509133000001,None,,,,,,,,,,,,,,,,,problem,new_c,white,78,152,238,912.0193948000001,None,912.0193948000001,None,1,1.7792011999999886,912.0193948000001,None,913.8203487999999,None,914.3335367,None,914.3335367,None,n,0.392934299999979,914.3335367,None,,,NC_37,001,2022_Apr_19_1603,ProdSingRedo,3.2.3,60.299883380023516,
,,,,79,0,79,0,,,,,,,,,,,,,,,,,,,,,,,,918.8339728000001,None,,,,,,,,,,,,,,,,,point,silent,white,79,85,226,915.2627273,None,915.2627273,None,1,2.2796592999999348,915.2627273,None,917.5692280000001,None,918.0834912,None,918.0834912,None,n,0.7229168999999729,918.0834912,None,,,NC_37,001,2022_Apr_19_1603,ProdSingRedo,3.2.3,60.299883380023516,
,,,,80,0,80,0,,,,,,,,,,,,,,,,,,,,,,,,922.7269701,None,,,,,,,,,,,,,,,,,atmosphere,silent,white,80,80,12,919.3365004,None,919.3365004,None,5,1.7981978000000254,919.3365004,None,921.1772134,None,921.6956045,None,921.6956045,None,f,1.006971300000032,921.6956045,None,,,NC_37,001,2022_Apr_19_1603,ProdSingRedo,3.2.3,60.299883380023516,
,,,,81,0,81,0,,,,,,,,,,,,,,,,,,,,,,,,927.0030881,None,,,,,,,,,,,,,,,,,length,new_c,white,81,161,169,923.2511732,None,923.2511732,None,2,2.8832622999999558,923.2511732,None,926.1539720000001,None,926.6836986999999,None,926.6836986999999,None,n,0.2989517999999407,926.6836986999999,None,,,NC_37,001,2022_Apr_19_1603,ProdSingRedo,3.2.3,60.299883380023516,
,,,,82,0,82,0,,,,,,,,,,,,,,,,,,,,,,,,931.2198877999999,None,,,,,,,,,,,,,,,,,mankind,aloud,white,82,38,178,927.5395490999999,None,927.5395490999999,None,6,1.9390922999999702,927.5395490999999,None,929.5253038999999,None,930.0372149,None,930.0372149,None,f,1.1615530000000263,930.0372149,None,,,NC_37,001,2022_Apr_19_1603,ProdSingRedo,3.2.3,60.299883380023516,
,,,,83,0,83,0,,,,,,,,,,,,,,,,,,,,,,,,935.0877471000001,None,,,,,,,,,,,,,,,,,weight,new_b,white,83,123,353,931.7406671000001,None,931.7406671000001,None,5,2.5138256000000183,931.7406671000001,None,934.2980476,None,934.8140353000001,None,934.8140353000001,None,f,0.24842679999994743,934.8140353000001,None,,,NC_37,001,2022_Apr_19_1603,ProdSingRedo,3.2.3,60.299883380023516,
,,,,84,0,84,0,,,,,,,,,,,,,,,,,,,,,,,,943.337542,None,,,,,,,,,,,,,,,,,pancakes,new_b,white,84,131,210,935.6255470000001,None,935.6255470000001,None,2,6.372999800000002,935.6255470000001,None,942.0403968999999,None,942.5571993000001,None,942.5571993000001,None,n,0.7532759999999143,942.5571993000001,None,,,NC_37,001,2022_Apr_19_1603,ProdSingRedo,3.2.3,60.299883380023516,
,,,,85,0,85,0,,,,,,,,,,,,,,,,,,,,,,,,947.6887798,None,,,,,,,,,,,,,,,,,election,aloud,white,85,42,109,943.8653629,None,943.8653629,None,5,1.7570961000000125,943.8653629,None,945.6772698,None,946.1854484,None,946.1854484,None,r,1.485019599999987,946.1854484,None,,,NC_37,001,2022_Apr_19_1603,ProdSingRedo,3.2.3,60.299883380023516,
,,,,86,0,86,0,,,,,,,,,,,,,,,,,,,,,,,,952.9216243999999,None,,,,,,,,,,,,,,,,,style,new_c,white,86,178,311,948.2235483,None,948.2235483,None,5,4.038923400000044,948.2235483,None,952.2939988999999,None,952.8055002000001,None,952.8055002000001,None,f,0.09710670000004029,952.8055002000001,None,,,NC_37,001,2022_Apr_19_1603,ProdSingRedo,3.2.3,60.299883380023516,
,,,,87,0,87,0,,,,,,,,,,,,,,,,,,,,,,,,958.2717545,None,,,,,,,,,,,,,,,,,partner,silent,white,87,83,211,953.4540417999999,None,953.4540417999999,None,3,3.000419000000079,953.4540417999999,None,956.4827754,None,956.9974943,None,956.9974943,None,n,1.256979900000033,956.9974943,None,,,NC_37,001,2022_Apr_19_1603,ProdSingRedo,3.2.3,60.299883380023516,
,,,,88,0,88,0,,,,,,,,,,,,,,,,,,,,,,,,962.8883668999999,None,,,,,,,,,,,,,,,,,attack,silent,white,88,74,13,958.7933112000001,None,958.7933112000001,None,3,3.1413404000001037,958.7933112000001,None,961.9666485999999,None,962.4856697,None,962.4856697,None,n,0.38466970000013134,962.4856697,None,,,NC_37,001,2022_Apr_19_1603,ProdSingRedo,3.2.3,60.299883380023516,
,,,,89,0,89,0,,,,,,,,,,,,,,,,,,,,,,,,969.2895443999998,None,,,,,,,,,,,,,,,,,community,new_b,white,89,127,63,963.4131061999999,None,963.4131061999999,None,5,4.7135249000000385,963.4131061999999,None,968.1708773,None,968.694006,None,968.694006,None,f,0.5765464000000975,968.694006,None,,,NC_37,001,2022_Apr_19_1603,ProdSingRedo,3.2.3,60.299883380023516,
,,,,90,0,90,0,,,,,,,,,,,,,,,,,,,,,,,,972.7729420000001,None,,,,,,,,,,,,,,,,,scene,sing,white,90,28,273,969.8164846,None,969.8164846,None,6,1.8540371999999934,969.8164846,None,971.6915603999998,None,972.2114975,None,972.2114975,None,r,0.5311041999998452,972.2114975,None,,,NC_37,001,2022_Apr_19_1603,ProdSingRedo,3.2.3,60.299883380023516,
,,,,91,0,91,0,,,,,,,,,,,,,,,,,,,,,,,,976.4204467,None,,,,,,,,,,,,,,,,,damage,new_a,white,91,115,83,973.3003194999999,None,973.3003194999999,None,3,2.3221886000001177,973.3003194999999,None,975.6527325,None,976.1558961999999,None,976.1558961999999,None,n,0.2424653999999009,976.1558961999999,None,,,NC_37,001,2022_Apr_19_1603,ProdSingRedo,3.2.3,60.299883380023516,
,,,,92,0,92,0,,,,,,,,,,,,,,,,,,,,,,,,979.6082899,None,,,,,,,,,,,,,,,,,course,silent,white,92,88,74,976.9320461,None,976.9320461,None,6,1.5865684000000329,976.9320461,None,978.5443284999999,None,979.0584988999999,None,979.0584988999999,None,r,0.5245065999999952,979.0584988999999,None,,,NC_37,001,2022_Apr_19_1603,ProdSingRedo,3.2.3,60.299883380023516,
,,,,93,0,93,0,,,,,,,,,,,,,,,,,,,,,,,,985.4072088,None,,,,,,,,,,,,,,,,,patient,aloud,white,93,50,213,980.1473013,None,980.1473013,None,3,4.091037599999936,980.1473013,None,984.2566176,None,984.7715490999999,None,984.7715490999999,None,n,0.6027802000000975,984.7715490999999,None,,,NC_37,001,2022_Apr_19_1603,ProdSingRedo,3.2.3,60.299883380023516,
,,,,94,0,94,0,,,,,,,,,,,,,,,,,,,,,,,,988.8229695999999,None,,,,,,,,,,,,,,,,,comedy,new_a,white,94,98,58,985.9243693999999,None,985.9243693999999,None,5,2.114228900000171,985.9243693999999,None,988.0667492999999,None,988.5751381999999,None,988.5751381999999,None,f,0.2075416000000132,988.5751381999999,None,,,NC_37,001,2022_Apr_19_1603,ProdSingRedo,3.2.3,60.299883380023516,
,,,,95,0,95,0,,,,,,,,,,,,,,,,,,,,,,,,992.7862097,None,,,,,,,,,,,,,,,,,finance,sing,white,95,20,129,989.3442599999998,None,989.3442599999998,None,6,2.5662746000000425,989.3442599999998,None,991.9595474999999,None,992.4863261,None,992.4863261,None,r,0.2563861999999517,992.4863261,None,,,NC_37,001,2022_Apr_19_1603,ProdSingRedo,3.2.3,60.299883380023516,
,,,,96,0,96,0,,,,,,,,,,,,,,,,,,,,,,,,996.8365876,None,,,,,,,,,,,,,,,,,chief,silent,white,96,61,48,993.3037597999999,None,993.3037597999999,None,5,2.742625400000179,993.3037597999999,None,996.0749576999999,None,996.5894387999999,None,996.5894387999999,None,f,0.21725889999993342,996.5894387999999,None,,,NC_37,001,2022_Apr_19_1603,ProdSingRedo,3.2.3,60.299883380023516,
,,,,97,0,97,0,,,,,,,,,,,,,,,,,,,,,,,,1001.5915513999998,None,,,,,,,,,,,,,,,,,threat,new_b,white,97,128,329,997.3544399999998,None,997.3544399999998,None,2,2.684052400000155,997.3544399999998,None,1000.0687230999999,None,1000.5845606,None,1000.5845606,None,n,0.9738612999999532,1000.5845606,None,,,NC_37,001,2022_Apr_19_1603,ProdSingRedo,3.2.3,60.299883380023516,
,,,,98,0,98,0,,,,,,,,,,,,,,,,,,,,,,,,1005.4755903,None,,,,,,,,,,,,,,,,,rapid,sing,white,98,5,252,1002.1146919999999,None,1002.1146919999999,None,1,2.3237693000000945,1002.1146919999999,None,1004.4619902,None,1004.9746494999999,None,1004.9746494999999,None,n,0.4799561999998332,1004.9746494999999,None,,,NC_37,001,2022_Apr_19_1603,ProdSingRedo,3.2.3,60.299883380023516,
,,,,99,0,99,0,,,,,,,,,,,,,,,,,,,,,,,,1008.9741199999999,None,,,,,,,,,,,,,,,,,background,new_c,white,99,163,16,1005.9966892,None,1005.9966892,None,3,2.0658269999998993,1005.9966892,None,1008.1028581,None,1008.6087255,None,1008.6087255,None,n,0.3417205999999169,1008.6087255,None,,,NC_37,001,2022_Apr_19_1603,ProdSingRedo,3.2.3,60.299883380023516,
,,,,100,0,100,0,,,,,,,,,,,,,,,,,,,,,,,,1012.6455013,None,,,,,,,,,,,,,,,,,swift,aloud,white,100,37,320,1009.4934390999999,None,1009.4934390999999,None,2,2.289022599999953,1009.4934390999999,None,1011.8220077999999,None,1012.3308301,None,1012.3308301,None,n,0.2917267999998785,1012.3308301,None,,,NC_37,001,2022_Apr_19_1603,ProdSingRedo,3.2.3,60.299883380023516,
,,,,101,0,101,0,,,,,,,,,,,,,,,,,,,,,,,,1015.5949823999999,None,,,,,,,,,,,,,,,,,quantity,new_c,white,101,176,245,1013.1608514,None,1013.1608514,None,1,1.6615309000001162,1013.1608514,None,1014.8458940999999,None,1015.3633975999999,None,1015.3633975999999,None,n,0.21102669999982027,1015.3633975999999,None,,,NC_37,001,2022_Apr_19_1603,ProdSingRedo,3.2.3,60.299883380023516,
,,,,102,0,102,0,,,,,,,,,,,,,,,,,,,,,,,,1020.7081059,None,,,,,,,,,,,,,,,,,candidate,new_c,white,102,158,39,1016.1359198999999,None,1016.1359198999999,None,2,3.638543400000117,1016.1359198999999,None,1019.8058223999999,None,1020.3085894999999,None,1020.3085894999999,None,n,0.3777808999998342,1020.3085894999999,None,,,NC_37,001,2022_Apr_19_1603,ProdSingRedo,3.2.3,60.299883380023516,
,,,,103,0,103,0,,,,,,,,,,,,,,,,,,,,,,,,1023.7580791999999,None,,,,,,,,,,,,,,,,,provision,new_b,white,103,137,243,1021.2275571999999,None,1021.2275571999999,None,1,1.6668736999999965,1021.2275571999999,None,1022.9305483,None,1023.4411869999999,None,1023.4411869999999,None,n,0.2852444000000105,1023.4411869999999,None,,,NC_37,001,2022_Apr_19_1603,ProdSingRedo,3.2.3,60.299883380023516,
,,,,104,0,104,0,,,,,,,,,,,,,,,,,,,,,,,,1028.1259212,None,,,,,,,,,,,,,,,,,charter,new_c,white,104,156,47,1024.2775453,None,1024.2775453,None,1,2.896973300000127,1024.2775453,None,1027.2026320999998,None,1027.7106127,None,1027.7106127,None,n,0.39173059999984616,1027.7106127,None,,,NC_37,001,2022_Apr_19_1603,ProdSingRedo,3.2.3,60.299883380023516,
,,,,105,0,105,0,,,,,,,,,,,,,,,,,,,,,,,,1031.5764078,None,,,,,,,,,,,,,,,,,height,new_c,white,105,177,152,1028.6462629999999,None,1028.6462629999999,None,4,2.1361742000001414,1028.6462629999999,None,1030.8215155,None,1031.3375882,None,1031.3375882,None,f,0.22100109999996675,1031.3375882,None,,,NC_37,001,2022_Apr_19_1603,ProdSingRedo,3.2.3,60.299883380023516,
,,,,106,0,106,0,,,,,,,,,,,,,,,,,,,,,,,,1035.7798249,None,,,,,,,,,,,,,,,,,direction,aloud,white,106,59,94,1032.1021381,None,1032.1021381,None,4,2.848339299999907,1032.1021381,None,1034.9860625,None,1035.5000593,None,1035.5000593,None,f,0.2585360999999011,1035.5000593,None,,,NC_37,001,2022_Apr_19_1603,ProdSingRedo,3.2.3,60.299883380023516,
,,,,107,0,107,0,,,,,,,,,,,,,,,,,,,,,,,,1038.5968864,None,,,,,,,,,,,,,,,,,stand,silent,white,107,70,302,1036.2948039999999,None,1036.2948039999999,None,5,1.4401844000001347,1036.2948039999999,None,1037.7869533,None,1038.2955339,None,1038.2955339,None,f,0.2709350000000086,1038.2955339,None,,,NC_37,001,2022_Apr_19_1603,ProdSingRedo,3.2.3,60.299883380023516,
,,,,108,0,108,0,,,,,,,,,,,,,,,,,,,,,,,,1044.5927757,None,,,,,,,,,,,,,,,,,place,silent,white,108,77,222,1039.119045,None,1039.119045,None,5,4.455445400000144,1039.119045,None,1043.6007435,None,1044.11277,None,1044.11277,None,f,0.46164150000004156,1044.11277,None,,,NC_37,001,2022_Apr_19_1603,ProdSingRedo,3.2.3,60.299883380023516,
,,,,109,0,109,0,,,,,,,,,,,,,,,,,,,,,,,,1050.9280363999999,None,,,,,,,,,,,,,,,,,theme,new_c,white,109,171,326,1045.1148297,None,1045.1148297,None,5,4.699623499999916,1045.1148297,None,1049.8532089999999,None,1050.3671106,None,1050.3671106,None,f,0.5432749999999942,1050.3671106,None,,,NC_37,001,2022_Apr_19_1603,ProdSingRedo,3.2.3,60.299883380023516,
,,,,110,0,110,0,,,,,,,,,,,,,,,,,,,,,,,,1053.8611855,None,,,,,,,,,,,,,,,,,sight,aloud,white,110,54,286,1051.4598362,None,1051.4598362,None,6,1.578667199999927,1051.4598362,None,1053.0740676,None,1053.5800827,None,1053.5800827,None,r,0.2504166000001078,1053.5800827,None,,,NC_37,001,2022_Apr_19_1603,ProdSingRedo,3.2.3,60.299883380023516,
,,,,111,0,111,0,,,,,,,,,,,,,,,,,,,,,,,,1056.6615485,None,,,,,,,,,,,,,,,,,signal,new_c,white,111,153,287,1054.3788333999998,None,1054.3788333999998,None,6,1.3796909000000142,1054.3788333999998,None,1055.784761,None,1056.3074969,None,1056.3074969,None,r,0.3230093999998189,1056.3074969,None,,,NC_37,001,2022_Apr_19_1603,ProdSingRedo,3.2.3,60.299883380023516,
,,,,112,0,112,0,,,,,,,,,,,,,,,,,,,,,,,,1060.9789815,None,,,,,,,,,,,,,,,,,region,new_b,white,112,121,256,1057.1752869,None,1057.1752869,None,2,1.9270733000000746,1057.1752869,None,1059.1357788,None,1059.6562053999999,None,1059.6562053999999,None,n,1.2942453000000569,1059.6562053999999,None,,,NC_37,001,2022_Apr_19_1603,ProdSingRedo,3.2.3,60.299883380023516,
,,,,113,0,113,0,,,,,,,,,,,,,,,,,,,,,,,,1066.1775361999998,None,,,,,,,,,,,,,,,,,commercial,aloud,white,113,46,61,1061.5042701,None,1061.5042701,None,6,3.326205299999856,1061.5042701,None,1064.8742554,None,1065.3903047,None,1065.3903047,None,r,0.7600723999998991,1065.3903047,None,,,NC_37,001,2022_Apr_19_1603,ProdSingRedo,3.2.3,60.299883380023516,
,,,,114,0,114,0,,,,,,,,,,,,,,,,,,,,,,,,1070.1133874,None,,,,,,,,,,,,,,,,,state,silent,white,114,86,303,1066.6805133999999,None,1066.6805133999999,None,1,1.542086100000006,1066.6805133999999,None,1068.2568414,None,1068.7726106,None,1068.7726106,None,n,1.3216697000000295,1068.7726106,None,,,NC_37,001,2022_Apr_19_1603,ProdSingRedo,3.2.3,60.299883380023516,
,,,,115,0,115,0,,,,,,,,,,,,,,,,,,,,,,,,1073.1638132,None,,,,,,,,,,,,,,,,,strain,new_a,white,115,107,308,1070.6406399,None,1070.6406399,None,1,1.4699843000000783,1070.6406399,None,1072.1470697,None,1072.6730694999999,None,1072.6730694999999,None,n,0.46131960000002437,1072.6730694999999,None,,,NC_37,001,2022_Apr_19_1603,ProdSingRedo,3.2.3,60.299883380023516,
,,,,116,0,116,0,,,,,,,,,,,,,,,,,,,,,,,,1075.8629551,None,,,,,,,,,,,,,,,,,youth,new_a,white,116,105,359,1073.6870013999999,None,1073.6870013999999,None,6,1.431352199999992,1073.6870013999999,None,1075.147986,None,1075.6757410999999,None,1075.6757410999999,None,f,0.16274160000011761,1075.6757410999999,None,,,NC_37,001,2022_Apr_19_1603,ProdSingRedo,3.2.3,60.299883380023516,
,,,,117,0,117,0,,,,,,,,,,,,,,,,,,,,,,,,1081.7632777,None,,,,,,,,,,,,,,,,,impact,new_c,white,117,172,157,1076.3748427,None,1076.3748427,None,2,3.927588399999877,1076.3748427,None,1080.3412687,None,1080.8591881999998,None,1080.8591881999998,None,n,0.8752018999998654,1080.8591881999998,None,,,NC_37,001,2022_Apr_19_1603,ProdSingRedo,3.2.3,60.299883380023516,
,,,,118,0,118,0,,,,,,,,,,,,,,,,,,,,,,,,1086.1635496,None,,,,,,,,,,,,,,,,,front,new_c,white,118,170,134,1082.2783888,None,1082.2783888,None,1,3.1364117999999053,1082.2783888,None,1085.4572339,None,1085.9711254,None,1085.9711254,None,n,0.16329610000002504,1085.9711254,None,,,NC_37,001,2022_Apr_19_1603,ProdSingRedo,3.2.3,60.299883380023516,
,,,,119,0,119,0,,,,,,,,,,,,,,,,,,,,,,,,1090.0853355,None,,,,,,,,,,,,,,,,,treatment,aloud,white,119,44,339,1086.6840616,None,1086.6840616,None,6,2.2746016000000964,1086.6840616,None,1089.0028441,None,1089.5251676999999,None,1089.5251676999999,None,r,0.5293429000000742,1089.5251676999999,None,,,NC_37,001,2022_Apr_19_1603,ProdSingRedo,3.2.3,60.299883380023516,
,,,,120,0,120,0,,,,,,,,,,,,,,,,,,,,,,,,1093.900378,None,,,,,,,,,,,,,,,,,surprise,new_a,white,120,94,317,1090.6140309999998,None,1090.6140309999998,None,6,2.5683599000001323,1090.6140309999998,None,1093.220374,None,1093.7330037,None,1093.7330037,None,r,0.1456286000000091,1093.7330037,None,,,NC_37,001,2022_Apr_19_1603,ProdSingRedo,3.2.3,60.299883380023516,
,,,,121,0,121,0,,,,,,,,,,,,,,,,,,,,,,,,1097.3478218,None,,,,,,,,,,,,,,,,,prime,silent,white,121,89,235,1094.4250155,None,1094.4250155,None,4,2.0534829999999147,1094.4250155,None,1096.4973754999999,None,1097.0050754,None,1097.0050754,None,f,0.31332990000009886,1097.0050754,None,,,NC_37,001,2022_Apr_19_1603,ProdSingRedo,3.2.3,60.299883380023516,
,,,,122,0,122,0,,,,,,,,,,,,,,,,,,,,,,,,1100.9556814999999,None,,,,,,,,,,,,,,,,,beauty,new_a,white,122,95,18,1097.8844876,None,1097.8844876,None,6,2.2979220999998233,1097.8844876,None,1100.2178754,None,1100.7424196,None,1100.7424196,None,r,0.17595170000004146,1100.7424196,None,,,NC_37,001,2022_Apr_19_1603,ProdSingRedo,3.2.3,60.299883380023516,
,,,,123,0,123,0,,,,,,,,,,,,,,,,,,,,,,,,1108.1068883,None,,,,,,,,,,,,,,,,,express,new_b,white,123,126,124,1101.4779644999999,None,1101.4779644999999,None,2,4.856772800000044,1101.4779644999999,None,1106.3849828999998,None,1106.8968926999999,None,1106.8968926999999,None,n,1.1734576000001198,1106.8968926999999,None,,,NC_37,001,2022_Apr_19_1603,ProdSingRedo,3.2.3,60.299883380023516,
,,,,124,0,124,0,,,,,,,,,,,,,,,,,,,,,,,,1114.9511068,None,,,,,,,,,,,,,,,,,personnel,new_c,white,124,154,219,1108.6152816,None,1108.6152816,None,4,4.895925799999986,1108.6152816,None,1113.5423225,None,1114.0555167999999,None,1114.0555167999999,None,f,0.8629106999999294,1114.0555167999999,None,,,NC_37,001,2022_Apr_19_1603,ProdSingRedo,3.2.3,60.299883380023516,
,,,,125,0,125,0,,,,,,,,,,,,,,,,,,,,,,,,1118.2321686999999,None,,,,,,,,,,,,,,,,,education,new_a,white,125,117,108,1115.4876305999999,None,1115.4876305999999,None,1,1.6147871999999097,1115.4876305999999,None,1117.1402684,None,1117.6479225,None,1117.6479225,None,n,0.5665166999999656,1117.6479225,None,,,NC_37,001,2022_Apr_19_1603,ProdSingRedo,3.2.3,60.299883380023516,
,,,,126,0,126,0,,,,,,,,,,,,,,,,,,,,,,,,1122.3086005,None,,,,,,,,,,,,,,,,,suspect,new_b,white,126,125,318,1118.7537792,None,1118.7537792,None,2,2.7006669999998394,1118.7537792,None,1121.4948101,None,1122.0006156,None,1122.0006156,None,n,0.2788889000000836,1122.0006156,None,,,NC_37,001,2022_Apr_19_1603,ProdSingRedo,3.2.3,60.299883380023516,
,,,,127,0,127,0,,,,,,,,,,,,,,,,,,,,,,,,1127.2175961,None,,,,,,,,,,,,,,,,,short,new_c,white,127,164,285,1122.8286871999999,None,1122.8286871999999,None,1,3.457625999999891,1122.8286871999999,None,1126.3192049,None,1126.8311689,None,1126.8311689,None,n,0.3673628000001372,1126.8311689,None,,,NC_37,001,2022_Apr_19_1603,ProdSingRedo,3.2.3,60.299883380023516,
,,,,128,0,128,0,,,,,,,,,,,,,,,,,,,,,,,,1131.8998356,None,,,,,,,,,,,,,,,,,native,sing,white,128,18,199,1127.7491401,None,1127.7491401,None,6,3.3052682000000004,1127.7491401,None,1131.0958172,None,1131.6070737999999,None,1131.6070737999999,None,r,0.2718192999998337,1131.6070737999999,None,,,NC_37,001,2022_Apr_19_1603,ProdSingRedo,3.2.3,60.299883380023516,
,,,,129,0,129,0,,,,,,,,,,,,,,,,,,,,,,,,1139.7397626,None,,,,,,,,,,,,,,,,,military,sing,white,129,4,190,1132.4194393,None,1132.4194393,None,4,6.459167600000001,1132.4194393,None,1138.9075498,None,1139.4171070999998,None,1139.4171070999998,None,f,0.29338110000003326,1139.4171070999998,None,,,NC_37,001,2022_Apr_19_1603,ProdSingRedo,3.2.3,60.299883380023516,
,,,,130,0,130,0,,,,,,,,,,,,,,,,,,,,,,,,1147.3009505999999,None,,,,,,,,,,,,,,,,,salary,sing,white,130,15,271,1140.2711092,None,1140.2711092,None,2,5.959392600000001,1140.2711092,None,1146.2584279999999,None,1146.7804457,None,1146.7804457,None,n,0.48994149999998626,1146.7804457,None,,,NC_37,001,2022_Apr_19_1603,ProdSingRedo,3.2.3,60.299883380023516,
,,,,131,0,131,0,,,,,,,,,,,,,,,,,,,,,,,,1150.5016117999999,None,,,,,,,,,,,,,,,,,religion,new_a,white,131,97,258,1147.8109038,None,1147.8109038,None,6,1.9634699999999157,1147.8109038,None,1149.8019341,None,1150.3282442,None,1150.3282442,None,r,0.14215790000002926,1150.3282442,None,,,NC_37,001,2022_Apr_19_1603,ProdSingRedo,3.2.3,60.299883380023516,
,,,,132,0,132,0,,,,,,,,,,,,,,,,,,,,,,,,1156.8835534,None,,,,,,,,,,,,,,,,,balance,new_b,white,132,138,17,1151.03646,None,1151.03646,None,5,5.02583709999999,1151.03646,None,1156.0847199,None,1156.5996828999998,None,1156.5996828999998,None,f,0.25472599999989143,1156.5996828999998,None,,,NC_37,001,2022_Apr_19_1603,ProdSingRedo,3.2.3,60.299883380023516,
,,,,133,0,133,0,,,,,,,,,,,,,,,,,,,,,,,,1161.0673296999998,None,,,,,,,,,,,,,,,,,quiet,aloud,white,133,47,249,1157.4009569,None,1157.4009569,None,6,2.8373911999999564,1157.4009569,None,1160.2695013,None,1160.78674,None,1160.78674,None,f,0.2595943000001171,1160.78674,None,,,NC_37,001,2022_Apr_19_1603,ProdSingRedo,3.2.3,60.299883380023516,
,,,,134,0,134,0,,,,,,,,,,,,,,,,,,,,,,,,1165.9689644999999,None,,,,,,,,,,,,,,,,,quarter,silent,white,134,73,246,1161.580238,None,1161.580238,None,5,3.4505260999999336,1161.580238,None,1165.0594128,None,1165.5688615,None,1165.5688615,None,f,0.3735639000001356,1165.5688615,None,,,NC_37,001,2022_Apr_19_1603,ProdSingRedo,3.2.3,60.299883380023516,
,,,,135,0,135,0,,,,,,,,,,,,,,,,,,,,,,,,1169.6015895,None,,,,,,,,,,,,,,,,,force,new_c,white,135,157,131,1166.4864883,None,1166.4864883,None,1,1.9919569999999567,1166.4864883,None,1168.5117473,None,1169.0268889,None,1169.0268889,None,n,0.5473969000001944,1169.0268889,None,,,NC_37,001,2022_Apr_19_1603,ProdSingRedo,3.2.3,60.299883380023516,
,,,,136,0,136,0,,,,,,,,,,,,,,,,,,,,,,,,1172.8678029,None,,,,,,,,,,,,,,,,,equipment,aloud,white,136,35,116,1170.1326746,None,1170.1326746,None,5,1.8817967999998473,1170.1326746,None,1172.037035,None,1172.5624327,None,1172.5624327,None,f,0.2757864999998674,1172.5624327,None,,,NC_37,001,2022_Apr_19_1603,ProdSingRedo,3.2.3,60.299883380023516,
,,,,137,0,137,0,,,,,,,,,,,,,,,,,,,,,,,,1176.369591,None,,,,,,,,,,,,,,,,,profession,aloud,white,137,52,241,1173.3748441999999,None,1173.3748441999999,None,6,2.223891400000184,1173.3748441999999,None,1175.6312668,None,1176.1480462,None,1176.1480462,None,r,0.19452160000014374,1176.1480462,None,,,NC_37,001,2022_Apr_19_1603,ProdSingRedo,3.2.3,60.299883380023516,
,,,,138,0,138,0,,,,,,,,,,,,,,,,,,,,,,,,1180.2518929999999,None,,,,,,,,,,,,,,,,,straight,new_b,white,138,145,307,1176.8821612,None,1176.8821612,None,1,2.2765536000001703,1176.8821612,None,1179.2124575,None,1179.7271228,None,1179.7271228,None,n,0.49527050000006057,1179.7271228,None,,,NC_37,001,2022_Apr_19_1603,ProdSingRedo,3.2.3,60.299883380023516,
,,,,139,0,139,0,,,,,,,,,,,,,,,,,,,,,,,,1184.6361352,None,,,,,,,,,,,,,,,,,literature,aloud,white,139,33,173,1180.7536321,None,1180.7536321,None,6,3.044811199999913,1180.7536321,None,1183.8321234,None,1184.3352605,None,1184.3352605,None,r,0.2710729000000356,1184.3352605,None,,,NC_37,001,2022_Apr_19_1603,ProdSingRedo,3.2.3,60.299883380023516,
,,,,140,0,140,0,,,,,,,,,,,,,,,,,,,,,,,,1188.8564536,None,,,,,,,,,,,,,,,,,republic,sing,white,140,27,260,1185.1521309,None,1185.1521309,None,1,2.2386406999999053,1185.1521309,None,1187.4481068999999,None,1187.9553965,None,1187.9553965,None,n,0.8670611000000008,1187.9553965,None,,,NC_37,001,2022_Apr_19_1603,ProdSingRedo,3.2.3,60.299883380023516,
,,,,141,0,141,0,,,,,,,,,,,,,,,,,,,,,,,,1192.0205779,None,,,,,,,,,,,,,,,,,generation,aloud,white,141,32,136,1189.392533,None,1189.392533,None,6,1.7978935999999521,1189.392533,None,1191.2325677,None,1191.7487288999998,None,1191.7487288999998,None,r,0.24961600000006,1191.7487288999998,None,,,NC_37,001,2022_Apr_19_1603,ProdSingRedo,3.2.3,60.299883380023516,
,,,,142,0,142,0,,,,,,,,,,,,,,,,,,,,,,,,1197.9047117,None,,,,,,,,,,,,,,,,,season,silent,white,142,68,277,1192.5342034,None,1192.5342034,None,4,4.224418200000173,1192.5342034,None,1196.8099981,None,1197.3234482,None,1197.3234482,None,f,0.5630082999998649,1197.3234482,None,,,NC_37,001,2022_Apr_19_1603,ProdSingRedo,3.2.3,60.299883380023516,
,,,,143,0,143,0,,,,,,,,,,,,,,,,,,,,,,,,1200.9375063,None,,,,,,,,,,,,,,,,,management,silent,white,143,64,177,1198.4223662,None,1198.4223662,None,6,1.7759112000001096,1198.4223662,None,1200.2243815,None,1200.7367147999998,None,1200.7367147999998,None,r,0.1815784000000349,1200.7367147999998,None,,,NC_37,001,2022_Apr_19_1603,ProdSingRedo,3.2.3,60.299883380023516,
,,,,144,0,144,0,,,,,,,,,,,,,,,,,,,,,,,,1204.888102,None,,,,,,,,,,,,,,,,,production,silent,white,144,65,240,1201.4576545,None,1201.4576545,None,5,2.228931300000113,1201.4576545,None,1203.7191457,None,1204.2314284,None,1204.2314284,None,r,0.6389211000000614,1204.2314284,None,,,NC_37,001,2022_Apr_19_1603,ProdSingRedo,3.2.3,60.299883380023516,
,,,,145,0,145,0,,,,,,,,,,,,,,,,,,,,,,,,1211.6563331,None,,,,,,,,,,,,,,,,,individual,new_b,white,145,120,160,1205.4062035,None,1205.4062035,None,5,5.4322157999999945,1205.4062035,None,1210.8704523,None,1211.3896843,None,1211.3896843,None,f,0.24876289999997425,1211.3896843,None,,,NC_37,001,2022_Apr_19_1603,ProdSingRedo,3.2.3,60.299883380023516,
,,,,146,0,146,0,,,,,,,,,,,,,,,,,,,,,,,,1216.6059739,None,,,,,,,,,,,,,,,,,trial,silent,white,146,82,341,1212.1893344999999,None,1212.1893344999999,None,1,3.2411281000001964,1212.1893344999999,None,1215.4730518,None,1215.9704685,None,1215.9704685,None,n,0.6118870000000243,1215.9704685,None,,,NC_37,001,2022_Apr_19_1603,ProdSingRedo,3.2.3,60.299883380023516,
,,,,147,0,147,0,,,,,,,,,,,,,,,,,,,,,,,,1220.2224979,None,,,,,,,,,,,,,,,,,drama,new_b,white,147,139,103,1217.1228157,None,1217.1228157,None,6,2.3155381999999918,1217.1228157,None,1219.4687408,None,1219.9711889,None,1219.9711889,None,r,0.22716680000007727,1219.9711889,None,,,NC_37,001,2022_Apr_19_1603,ProdSingRedo,3.2.3,60.299883380023516,
,,,,148,0,148,0,,,,,,,,,,,,,,,,,,,,,,,,1223.9316403,None,,,,,,,,,,,,,,,,,citizen,aloud,white,148,40,50,1220.7350881999998,None,1220.7350881999998,None,6,2.447392000000036,1220.7350881999998,None,1223.2220062,None,1223.7353303,None,1223.7353303,None,r,0.1675866999999016,1223.7353303,None,,,NC_37,001,2022_Apr_19_1603,ProdSingRedo,3.2.3,60.299883380023516,
,,,,149,0,149,0,,,,,,,,,,,,,,,,,,,,,,,,1230.0049797,None,,,,,,,,,,,,,,,,,household,new_b,white,149,136,154,1224.4539151,None,1224.4539151,None,4,4.272733700000117,1224.4539151,None,1228.7730637,None,1229.3033017,None,1229.3033017,None,n,0.6709529999998267,1229.3033017,None,,,NC_37,001,2022_Apr_19_1603,ProdSingRedo,3.2.3,60.299883380023516,
,,,,150,0,150,0,,,,,,,,,,,,,,,,,,,,,,,,1239.8994993,None,,,,,,,,,,,,,,,,,principal,aloud,white,150,39,236,1230.5144323,None,1230.5144323,None,5,8.363919200000055,1230.5144323,None,1238.9077664,None,1239.4219074,None,1239.4219074,None,f,0.4490928000000167,1239.4219074,None,,,NC_37,001,2022_Apr_19_1603,ProdSingRedo,3.2.3,60.299883380023516,
,,,,151,0,151,0,,,,,,,,,,,,,,,,,,,,,,,,1244.9831041999998,None,,,,,,,,,,,,,,,,,guide,new_b,white,151,130,147,1240.4298929,None,1240.4298929,None,1,3.2244247000000996,1240.4298929,None,1243.6792202,None,1244.1899061,None,1244.1899061,None,n,0.760711399999991,1244.1899061,None,,,NC_37,001,2022_Apr_19_1603,ProdSingRedo,3.2.3,60.299883380023516,
,,,,152,0,152,0,,,,,,,,,,,,,,,,,,,,,,,,1249.2667096999999,None,,,,,,,,,,,,,,,,,bright,sing,white,152,12,29,1245.4958417,None,1245.4958417,None,3,2.734494399999903,1245.4958417,None,1248.2641368,None,1248.7767859,None,1248.7767859,None,n,0.4618739000000005,1248.7767859,None,,,NC_37,001,2022_Apr_19_1603,ProdSingRedo,3.2.3,60.299883380023516,
,,,,153,0,153,0,,,,,,,,,,,,,,,,,,,,,,,,1253.1746526,None,,,,,,,,,,,,,,,,,group,new_a,white,153,104,143,1249.7857276,None,1249.7857276,None,4,2.1646353000001,1249.7857276,None,1251.9816895,None,1252.4899173,None,1252.4899173,None,f,0.6603599999998551,1252.4899173,None,,,NC_37,001,2022_Apr_19_1603,ProdSingRedo,3.2.3,60.299883380023516,
,,,,154,0,154,0,,,,,,,,,,,,,,,,,,,,,,,,1263.4970253,None,,,,,,,,,,,,,,,,,fashion,new_a,white,154,102,125,1253.7064501,None,1253.7064501,None,5,8.499979000000167,1253.7064501,None,1262.2264538,None,1262.7413761,None,1262.7413761,None,f,0.7211726999998973,1262.7413761,None,,,NC_37,001,2022_Apr_19_1603,ProdSingRedo,3.2.3,60.299883380023516,
,,,,155,0,155,0,,,,,,,,,,,,,,,,,,,,,,,,1282.2748507,None,,,,,,,,,,,,,,,,,fellow,sing,white,155,29,126,1264.0119049,None,1264.0119049,None,3,16.394615799999883,1264.0119049,None,1280.428391,None,1280.9413253,None,1280.9413253,None,n,1.3129734999999982,1280.9413253,None,,,NC_37,001,2022_Apr_19_1603,ProdSingRedo,3.2.3,60.299883380023516,
,,,,156,0,156,0,,,,,,,,,,,,,,,,,,,,,,,,1286.675221,None,,,,,,,,,,,,,,,,,graduate,new_c,white,156,179,141,1282.780199,None,1282.780199,None,1,2.9224384000001464,1282.780199,None,1285.7414667,None,1286.253874,None,1286.253874,None,n,0.3925116000000344,1286.253874,None,,,NC_37,001,2022_Apr_19_1603,ProdSingRedo,3.2.3,60.299883380023516,
,,,,157,0,157,0,,,,,,,,,,,,,,,,,,,,,,,,1289.2764364,None,,,,,,,,,,,,,,,,,motion,new_a,white,157,116,194,1287.1773329,None,1287.1773329,None,1,1.3570423999999548,1287.1773329,None,1288.5610219,None,1289.0753193,None,1289.0753193,None,n,0.17898540000010144,1289.0753193,None,,,NC_37,001,2022_Apr_19_1603,ProdSingRedo,3.2.3,60.299883380023516,
,,,,158,0,158,0,,,,,,,,,,,,,,,,,,,,,,,,1292.6130185,None,,,,,,,,,,,,,,,,,symbol,aloud,white,158,43,321,1289.799965,None,1289.799965,None,4,1.5345082999999704,1289.799965,None,1291.3888488999999,None,1291.9080973,None,1291.9080973,None,f,0.6824384999999893,1291.9080973,None,,,NC_37,001,2022_Apr_19_1603,ProdSingRedo,3.2.3,60.299883380023516,
,,,,159,0,159,0,,,,,,,,,,,,,,,,,,,,,,,,1297.8146087999999,None,,,,,,,,,,,,,,,,,scale,silent,white,159,75,272,1293.1431639999998,None,1293.1431639999998,None,4,3.3510989000001246,1293.1431639999998,None,1296.5286383,None,1297.0515112,None,1297.0515112,None,f,0.7392039999999724,1297.0515112,None,,,NC_37,001,2022_Apr_19_1603,ProdSingRedo,3.2.3,60.299883380023516,
,,,,160,0,160,0,,,,,,,,,,,,,,,,,,,,,,,,1302.0058821999999,None,,,,,,,,,,,,,,,,,range,aloud,white,160,48,251,1298.3463153999999,None,1298.3463153999999,None,6,2.8443402999998852,1298.3463153999999,None,1301.2233615999999,None,1301.7299865999998,None,1301.7299865999998,None,r,0.2448435999999674,1301.7299865999998,None,,,NC_37,001,2022_Apr_19_1603,ProdSingRedo,3.2.3,60.299883380023516,
,,,,161,0,161,0,,,,,,,,,,,,,,,,,,,,,,,,1305.6763905999999,None,,,,,,,,,,,,,,,,,trash,aloud,white,161,45,337,1302.5279593999999,None,1302.5279593999999,None,6,1.958321500000011,1302.5279593999999,None,1304.5132157,None,1305.0377256,None,1305.0377256,None,r,0.6086004999999659,1305.0377256,None,,,NC_37,001,2022_Apr_19_1603,ProdSingRedo,3.2.3,60.299883380023516,
,,,,162,0,162,0,,,,,,,,,,,,,,,,,,,,,,,,1309.8291014,None,,,,,,,,,,,,,,,,,pretty,sing,white,162,11,233,1306.1762864999998,None,1306.1762864999998,None,1,2.1421141000000716,1306.1762864999998,None,1308.3461571,None,1308.8597631,None,1308.8597631,None,n,0.9387658000000556,1308.8597631,None,,,NC_37,001,2022_Apr_19_1603,ProdSingRedo,3.2.3,60.299883380023516,
,,,,163,0,163,0,,,,,,,,,,,,,,,,,,,,,,,,1312.4936943999999,None,,,,,,,,,,,,,,,,,corner,new_b,white,163,143,69,1310.3557719,None,1310.3557719,None,1,1.4187168999999358,1310.3557719,None,1311.7959274,None,1312.3098361999998,None,1312.3098361999998,None,n,0.1605279000000337,1312.3098361999998,None,,,NC_37,001,2022_Apr_19_1603,ProdSingRedo,3.2.3,60.299883380023516,
,,,,164,0,164,0,,,,,,,,,,,,,,,,,,,,,,,,1315.5938916999999,None,,,,,,,,,,,,,,,,,worker,silent,white,164,87,356,1312.9965905,None,1312.9965905,None,1,1.8738952000001063,1312.9965905,None,1314.9122840999999,None,1315.4124734,None,1315.4124734,None,n,0.15381890000003295,1315.4124734,None,,,NC_37,001,2022_Apr_19_1603,ProdSingRedo,3.2.3,60.299883380023516,
,,,,165,0,165,0,,,,,,,,,,,,,,,,,,,,,,,,1318.2790756,None,,,,,,,,,,,,,,,,,blind,new_b,white,165,133,24,1316.1086214,None,1316.1086214,None,1,1.4339403000001312,1316.1086214,None,1317.5712721,None,1318.0798426,None,1318.0798426,None,n,0.17446989999984908,1318.0798426,None,,,NC_37,001,2022_Apr_19_1603,ProdSingRedo,3.2.3,60.299883380023516,
,,,,166,0,166,0,,,,,,,,,,,,,,,,,,,,,,,,1321.7118401,None,,,,,,,,,,,,,,,,,rural,new_a,white,166,101,269,1318.792864,None,1318.792864,None,1,1.4537562000000435,1318.792864,None,1320.290007,None,1320.81081,None,1320.81081,None,n,0.87552699999992,1320.81081,None,,,NC_37,001,2022_Apr_19_1603,ProdSingRedo,3.2.3,60.299883380023516,
,,,,167,0,167,0,,,,,,,,,,,,,,,,,,,,,,,,1326.6222120999998,None,,,,,,,,,,,,,,,,,master,new_c,white,167,173,180,1322.2216548,None,1322.2216548,None,1,3.6485903000000235,1322.2216548,None,1325.8992343999998,None,1326.4110749,None,1326.4110749,None,n,0.17956939999999122,1326.4110749,None,,,NC_37,001,2022_Apr_19_1603,ProdSingRedo,3.2.3,60.299883380023516,
,,,,168,0,168,0,,,,,,,,,,,,,,,,,,,,,,,,1329.813976,None,,,,,,,,,,,,,,,,,owner,sing,white,168,25,208,1327.1362451,None,1327.1362451,None,5,2.0940837000000556,1327.1362451,None,1329.2641498,None,1329.7785563999998,None,1329.7785563999998,None,f,0.011880999999902997,1329.7785563999998,None,,,NC_37,001,2022_Apr_19_1603,ProdSingRedo,3.2.3,60.299883380023516,
,,,,169,0,169,0,,,,,,,,,,,,,,,,,,,,,,,,1337.6447122,None,,,,,,,,,,,,,,,,,drink,silent,white,169,66,105,1330.3291271,None,1330.3291271,None,2,6.029528199999959,1330.3291271,None,1336.3872360999999,None,1336.8952829,None,1336.8952829,None,n,0.7269624000000476,1336.8952829,None,,,NC_37,001,2022_Apr_19_1603,ProdSingRedo,3.2.3,60.299883380023516,
,,,,170,0,170,0,,,,,,,,,,,,,,,,,,,,,,,,1341.5949405,None,,,,,,,,,,,,,,,,,figure,silent,white,170,79,128,1338.1466699999999,None,1338.1466699999999,None,5,1.907539899999847,1338.1466699999999,None,1340.0920048,None,1340.5948644,None,1340.5948644,None,f,0.9714034999999512,1340.5948644,None,,,NC_37,001,2022_Apr_19_1603,ProdSingRedo,3.2.3,60.299883380023516,
,,,,171,0,171,0,,,,,,,,,,,,,,,,,,,,,,,,1349.7456527,None,,,,,,,,,,,,,,,,,tennis,sing,white,171,9,323,1342.0951791999998,None,1342.0951791999998,None,2,6.24726499999997,1342.0951791999998,None,1348.3682062,None,1348.8794272,None,1348.8794272,None,n,0.8471695000000636,1348.8794272,None,,,NC_37,001,2022_Apr_19_1603,ProdSingRedo,3.2.3,60.299883380023516,
,,,,172,0,172,0,,,,,,,,,,,,,,,,,,,,,,,,1353.1321464999999,None,,,,,,,,,,,,,,,,,interview,sing,white,172,17,165,1350.2492356,None,1350.2492356,None,6,1.8210200999999415,1350.2492356,None,1352.1082073,None,1352.6128672,None,1352.6128672,None,r,0.4976100999999744,1352.6128672,None,,,NC_37,001,2022_Apr_19_1603,ProdSingRedo,3.2.3,60.299883380023516,
,,,,173,0,173,0,,,,,,,,,,,,,,,,,,,,,,,,1358.0189715,None,,,,,,,,,,,,,,,,,answer,aloud,white,173,55,8,1353.6473925,None,1353.6473925,None,5,2.1748099999999795,1353.6473925,None,1355.8483159,None,1356.3633034,None,1356.3633034,None,f,1.6194384999998874,1356.3633034,None,,,NC_37,001,2022_Apr_19_1603,ProdSingRedo,3.2.3,60.299883380023516,
,,,,174,0,174,0,,,,,,,,,,,,,,,,,,,,,,,,1362.2562024,None,,,,,,,,,,,,,,,,,bitter,silent,white,174,76,23,1358.5470754,None,1358.5470754,None,5,2.635384499999873,1358.5470754,None,1361.2240378,None,1361.7304855999998,None,1361.7304855999998,None,f,0.4998508999999558,1361.7304855999998,None,,,NC_37,001,2022_Apr_19_1603,ProdSingRedo,3.2.3,60.299883380023516,
,,,,175,0,175,0,,,,,,,,,,,,,,,,,,,,,,,,1366.2657262999999,None,,,,,,,,,,,,,,,,,debate,aloud,white,175,57,87,1362.7812402,None,1362.7812402,None,4,2.3931168999999954,1362.7812402,None,1365.2104258,None,1365.7139508999999,None,1365.7139508999999,None,f,0.5324568000000909,1365.7139508999999,None,,,NC_37,001,2022_Apr_19_1603,ProdSingRedo,3.2.3,60.299883380023516,
,,,,176,0,176,0,,,,,,,,,,,,,,,,,,,,,,,,1370.8498313999999,None,,,,,,,,,,,,,,,,,machinery,new_a,white,176,113,175,1366.7827639,None,1366.7827639,None,1,3.063761999999997,1366.7827639,None,1369.8800625,None,1370.3968002,None,1370.3968002,None,n,0.42555609999999433,1370.3968002,None,,,NC_37,001,2022_Apr_19_1603,ProdSingRedo,3.2.3,60.299883380023516,
,,,,177,0,177,0,,,,,,,,,,,,,,,,,,,,,,,,1374.049473,None,,,,,,,,,,,,,,,,,council,new_a,white,177,90,71,1371.3726053,None,1371.3726053,None,3,1.8577566999999817,1371.3726053,None,1373.2490583,None,1373.7652928999998,None,1373.7652928999998,None,n,0.257176999999956,1373.7652928999998,None,,,NC_37,001,2022_Apr_19_1603,ProdSingRedo,3.2.3,60.299883380023516,
,,,,178,0,178,0,,,,,,,,,,,,,,,,,,,,,,,,1378.7833747,None,,,,,,,,,,,,,,,,,author,new_a,white,178,109,15,1374.5658339,None,1374.5658339,None,2,2.888608299999987,1374.5658339,None,1377.4948104999999,None,1378.0089736999998,None,1378.0089736999998,None,n,0.7415286000000378,1378.0089736999998,None,,,NC_37,001,2022_Apr_19_1603,ProdSingRedo,3.2.3,60.299883380023516,
,,,,179,0,179,0,,,,,,,,,,,,,,,,,,,,,,,,1382.7153639,None,,,,,,,,,,,,,,,,,minor,sing,white,179,24,191,1379.3113226,None,1379.3113226,None,6,2.606905999999981,1379.3113226,None,1381.9501132999999,None,1382.4645329999998,None,1382.4645329999998,None,r,0.22172019999993609,1382.4645329999998,None,,,NC_37,001,2022_Apr_19_1603,ProdSingRedo,3.2.3,60.299883380023516,
,,,,,,,,,,,,,,,,,,,,,,,,,,,,,,,,,,,,,,,,,,,,,,,,,,,,,,,,,,,,,,,,,,,,,,,,,1383.2157946,None,,,,,,,
