StudyLoop.thisRepN,StudyLoop.thisTrialN,StudyLoop.thisN,StudyLoop.thisIndex,TestLoop.thisRepN,TestLoop.thisTrialN,TestLoop.thisN,TestLoop.thisIndex,textCondition.started,textCondition.stopped,keyCondition.keys,keyCondition.rt,keyCondition.started,keyCondition.stopped,Condition,stim_colors,color_sing,color_aloud,color_silent,textWelcome.started,textWelcome.stopped,keyWelcome.keys,keyWelcome.rt,keyWelcome.started,keyWelcome.stopped,textAloud.started,textAloud.stopped,textSilent.started,textSilent.stopped,textSing.started,textSing.stopped,textBlank500.started,textBlank500.stopped,study_word,study_type,study_color,study_num,study_word_num,textStudy.started,textStudy.stopped,keyStudy.keys,keyStudy.started,keyStudy.stopped,textTestInstructions.started,textTestInstructions.stopped,key_resp_3.keys,key_resp_3.rt,key_resp_3.started,key_resp_3.stopped,testWord,testType,testColor,testN,test_num,test_word_num,textConf.started,textConf.stopped,textConfScale.started,textConfScale.stopped,keyConf.keys,keyConf.rt,keyConf.started,keyConf.stopped,textTestBlank.started,textTestBlank.stopped,textRKN.started,textRKN.stopped,textRKNScale.started,textRKNScale.stopped,keyRKN.keys,keyRKN.rt,keyRKN.started,keyRKN.stopped,textEnd.started,textEnd.stopped,participant,session,date,expName,psychopyVersion,frameRate,
,,,,,,,,23.018653099999938,None,n,1.6294010999999955,23.018653099999938,None,,,,,,,,,,,,,,,,,,,,,,,,,,,,,,,,,,,,,,,,,,,,,,,,,,,,,,,,,,,,,,NC_38,001,2022_Apr_19_1627,ProdSingRedo,3.2.3,59.85303685327461,
,,,,,,,,,,,,,,NeutralTest,"['blue', 'yellow', 'red']",blue,yellow,red,24.710986000000048,None,space,131.51328719999992,24.710986000000048,None,,,,,,,,,,,,,,,,,,,,,,,,,,,,,,,,,,,,,,,,,,,,,,,,,,,NC_38,001,2022_Apr_19_1627,ProdSingRedo,3.2.3,59.85303685327461,
0,0,0,0,,,,,,,,,,,,,,,,,,,,,,24.710986000000048,None,24.710986000000048,None,24.710986000000048,None,158.76231400000006,None,place,silent,red,75,222,156.7567727999999,None,None,156.7567727999999,None,,,,,,,,,,,,,,,,,,,,,,,,,,,,,,,,,NC_38,001,2022_Apr_19_1627,ProdSingRedo,3.2.3,59.85303685327461,
1,0,1,0,,,,,,,,,,,,,,,,,,,,,,,,,,,,161.27914800000008,None,people,aloud,yellow,44,216,159.27190040000005,None,None,159.27190040000005,None,,,,,,,,,,,,,,,,,,,,,,,,,,,,,,,,,NC_38,001,2022_Apr_19_1627,ProdSingRedo,3.2.3,59.85303685327461,
2,0,2,0,,,,,,,,,,,,,,,,,,,,,,,,,,,,163.79630829999996,None,judge,aloud,yellow,36,166,161.8011692,None,None,161.8011692,None,,,,,,,,,,,,,,,,,,,,,,,,,,,,,,,,,NC_38,001,2022_Apr_19_1627,ProdSingRedo,3.2.3,59.85303685327461,
3,0,3,0,,,,,,,,,,,,,,,,,,,,,,,,,,,,166.31365430000005,None,smell,aloud,yellow,38,291,164.30615839999996,None,None,164.30615839999996,None,,,,,,,,,,,,,,,,,,,,,,,,,,,,,,,,,NC_38,001,2022_Apr_19_1627,ProdSingRedo,3.2.3,59.85303685327461,
4,0,4,0,,,,,,,,,,,,,,,,,,,,,,,,,,,,168.83048600000006,None,volume,aloud,yellow,57,349,166.83034380000004,None,None,166.83034380000004,None,,,,,,,,,,,,,,,,,,,,,,,,,,,,,,,,,NC_38,001,2022_Apr_19_1627,ProdSingRedo,3.2.3,59.85303685327461,
5,0,5,0,,,,,,,,,,,,,,,,,,,,,,,,,,,,171.3465529,None,estate,silent,red,76,119,169.3433321,None,None,169.3433321,None,,,,,,,,,,,,,,,,,,,,,,,,,,,,,,,,,NC_38,001,2022_Apr_19_1627,ProdSingRedo,3.2.3,59.85303685327461,
6,0,6,0,,,,,,,,,,,,,,,,,,,,,,,,,,,,173.86415749999992,None,pattern,sing,blue,16,214,171.84851149999986,None,None,171.84851149999986,None,,,,,,,,,,,,,,,,,,,,,,,,,,,,,,,,,NC_38,001,2022_Apr_19_1627,ProdSingRedo,3.2.3,59.85303685327461,
7,0,7,0,,,,,,,,,,,,,,,,,,,,,,,,,,,,176.37970670000004,None,break,silent,red,80,26,174.38917809999998,None,None,174.38917809999998,None,,,,,,,,,,,,,,,,,,,,,,,,,,,,,,,,,NC_38,001,2022_Apr_19_1627,ProdSingRedo,3.2.3,59.85303685327461,
8,0,8,0,,,,,,,,,,,,,,,,,,,,,,,,,,,,178.88127310000004,None,reading,aloud,yellow,30,254,176.88148780000006,None,None,176.88148780000006,None,,,,,,,,,,,,,,,,,,,,,,,,,,,,,,,,,NC_38,001,2022_Apr_19_1627,ProdSingRedo,3.2.3,59.85303685327461,
9,0,9,0,,,,,,,,,,,,,,,,,,,,,,,,,,,,181.39725939999994,None,course,sing,blue,8,74,179.39722239999992,None,None,179.39722239999992,None,,,,,,,,,,,,,,,,,,,,,,,,,,,,,,,,,NC_38,001,2022_Apr_19_1627,ProdSingRedo,3.2.3,59.85303685327461,
10,0,10,0,,,,,,,,,,,,,,,,,,,,,,,,,,,,183.9150568,None,patient,silent,red,87,213,181.91120909999995,None,None,181.91120909999995,None,,,,,,,,,,,,,,,,,,,,,,,,,,,,,,,,,NC_38,001,2022_Apr_19_1627,ProdSingRedo,3.2.3,59.85303685327461,
11,0,11,0,,,,,,,,,,,,,,,,,,,,,,,,,,,,186.4315913999999,None,birth,silent,red,78,22,184.4202628999999,None,None,184.4202628999999,None,,,,,,,,,,,,,,,,,,,,,,,,,,,,,,,,,NC_38,001,2022_Apr_19_1627,ProdSingRedo,3.2.3,59.85303685327461,
12,0,12,0,,,,,,,,,,,,,,,,,,,,,,,,,,,,188.94839649999994,None,suspect,silent,red,79,318,186.94780420000006,None,None,186.94780420000006,None,,,,,,,,,,,,,,,,,,,,,,,,,,,,,,,,,NC_38,001,2022_Apr_19_1627,ProdSingRedo,3.2.3,59.85303685327461,
13,0,13,0,,,,,,,,,,,,,,,,,,,,,,,,,,,,191.46531119999986,None,income,aloud,yellow,35,159,189.4571039,None,None,189.4571039,None,,,,,,,,,,,,,,,,,,,,,,,,,,,,,,,,,NC_38,001,2022_Apr_19_1627,ProdSingRedo,3.2.3,59.85303685327461,
14,0,14,0,,,,,,,,,,,,,,,,,,,,,,,,,,,,193.96607019999988,None,institute,aloud,yellow,33,162,191.9659706,None,None,191.9659706,None,,,,,,,,,,,,,,,,,,,,,,,,,,,,,,,,,NC_38,001,2022_Apr_19_1627,ProdSingRedo,3.2.3,59.85303685327461,
15,0,15,0,,,,,,,,,,,,,,,,,,,,,,,,,,,,196.48228919999997,None,throw,sing,blue,15,330,194.47908600000005,None,None,194.47908600000005,None,,,,,,,,,,,,,,,,,,,,,,,,,,,,,,,,,NC_38,001,2022_Apr_19_1627,ProdSingRedo,3.2.3,59.85303685327461,
16,0,16,0,,,,,,,,,,,,,,,,,,,,,,,,,,,,198.998067,None,afternoon,silent,red,86,3,196.99468109999998,None,None,196.99468109999998,None,,,,,,,,,,,,,,,,,,,,,,,,,,,,,,,,,NC_38,001,2022_Apr_19_1627,ProdSingRedo,3.2.3,59.85303685327461,
17,0,17,0,,,,,,,,,,,,,,,,,,,,,,,,,,,,201.49844480000002,None,committee,sing,blue,2,62,199.49881269999992,None,None,199.49881269999992,None,,,,,,,,,,,,,,,,,,,,,,,,,,,,,,,,,NC_38,001,2022_Apr_19_1627,ProdSingRedo,3.2.3,59.85303685327461,
18,0,18,0,,,,,,,,,,,,,,,,,,,,,,,,,,,,203.99878360000002,None,power,silent,red,71,230,202.00028040000007,None,None,202.00028040000007,None,,,,,,,,,,,,,,,,,,,,,,,,,,,,,,,,,NC_38,001,2022_Apr_19_1627,ProdSingRedo,3.2.3,59.85303685327461,
19,0,19,0,,,,,,,,,,,,,,,,,,,,,,,,,,,,206.51561709999987,None,provision,sing,blue,22,243,204.52039609999997,None,None,204.52039609999997,None,,,,,,,,,,,,,,,,,,,,,,,,,,,,,,,,,NC_38,001,2022_Apr_19_1627,ProdSingRedo,3.2.3,59.85303685327461,
20,0,20,0,,,,,,,,,,,,,,,,,,,,,,,,,,,,209.03309869999998,None,universal,sing,blue,19,345,207.02099870000006,None,None,207.02099870000006,None,,,,,,,,,,,,,,,,,,,,,,,,,,,,,,,,,NC_38,001,2022_Apr_19_1627,ProdSingRedo,3.2.3,59.85303685327461,
21,0,21,0,,,,,,,,,,,,,,,,,,,,,,,,,,,,211.54933959999994,None,plane,aloud,yellow,41,223,209.54602269999987,None,None,209.54602269999987,None,,,,,,,,,,,,,,,,,,,,,,,,,,,,,,,,,NC_38,001,2022_Apr_19_1627,ProdSingRedo,3.2.3,59.85303685327461,
22,0,22,0,,,,,,,,,,,,,,,,,,,,,,,,,,,,214.0668215999999,None,corner,sing,blue,13,69,212.05875509999987,None,None,212.05875509999987,None,,,,,,,,,,,,,,,,,,,,,,,,,,,,,,,,,NC_38,001,2022_Apr_19_1627,ProdSingRedo,3.2.3,59.85303685327461,
23,0,23,0,,,,,,,,,,,,,,,,,,,,,,,,,,,,216.58350440000004,None,threat,aloud,yellow,39,329,214.58086129999992,None,None,214.58086129999992,None,,,,,,,,,,,,,,,,,,,,,,,,,,,,,,,,,NC_38,001,2022_Apr_19_1627,ProdSingRedo,3.2.3,59.85303685327461,
24,0,24,0,,,,,,,,,,,,,,,,,,,,,,,,,,,,219.09968679999997,None,force,silent,red,84,131,217.09492249999994,None,None,217.09492249999994,None,,,,,,,,,,,,,,,,,,,,,,,,,,,,,,,,,NC_38,001,2022_Apr_19_1627,ProdSingRedo,3.2.3,59.85303685327461,
25,0,25,0,,,,,,,,,,,,,,,,,,,,,,,,,,,,221.61670159999994,None,scene,sing,blue,9,273,219.6091202,None,None,219.6091202,None,,,,,,,,,,,,,,,,,,,,,,,,,,,,,,,,,NC_38,001,2022_Apr_19_1627,ProdSingRedo,3.2.3,59.85303685327461,
26,0,26,0,,,,,,,,,,,,,,,,,,,,,,,,,,,,224.1332986,None,series,aloud,yellow,53,279,222.11930200000006,None,None,222.11930200000006,None,,,,,,,,,,,,,,,,,,,,,,,,,,,,,,,,,NC_38,001,2022_Apr_19_1627,ProdSingRedo,3.2.3,59.85303685327461,
27,0,27,0,,,,,,,,,,,,,,,,,,,,,,,,,,,,226.65100269999994,None,poetry,sing,blue,26,225,224.64192000000003,None,None,224.64192000000003,None,,,,,,,,,,,,,,,,,,,,,,,,,,,,,,,,,NC_38,001,2022_Apr_19_1627,ProdSingRedo,3.2.3,59.85303685327461,
28,0,28,0,,,,,,,,,,,,,,,,,,,,,,,,,,,,229.1684143,None,relation,silent,red,63,257,227.15791509999985,None,None,227.15791509999985,None,,,,,,,,,,,,,,,,,,,,,,,,,,,,,,,,,NC_38,001,2022_Apr_19_1627,ProdSingRedo,3.2.3,59.85303685327461,
29,0,29,0,,,,,,,,,,,,,,,,,,,,,,,,,,,,231.68331080000007,None,waste,silent,red,70,350,229.67921819999992,None,None,229.67921819999992,None,,,,,,,,,,,,,,,,,,,,,,,,,,,,,,,,,NC_38,001,2022_Apr_19_1627,ProdSingRedo,3.2.3,59.85303685327461,
30,0,30,0,,,,,,,,,,,,,,,,,,,,,,,,,,,,234.20066859999997,None,contract,silent,red,66,68,232.19823799999995,None,None,232.19823799999995,None,,,,,,,,,,,,,,,,,,,,,,,,,,,,,,,,,NC_38,001,2022_Apr_19_1627,ProdSingRedo,3.2.3,59.85303685327461,
31,0,31,0,,,,,,,,,,,,,,,,,,,,,,,,,,,,236.71732339999994,None,strain,aloud,yellow,46,308,234.7143309999999,None,None,234.7143309999999,None,,,,,,,,,,,,,,,,,,,,,,,,,,,,,,,,,NC_38,001,2022_Apr_19_1627,ProdSingRedo,3.2.3,59.85303685327461,
32,0,32,0,,,,,,,,,,,,,,,,,,,,,,,,,,,,239.22032339999987,None,defeat,silent,red,85,88,237.21947419999992,None,None,237.21947419999992,None,,,,,,,,,,,,,,,,,,,,,,,,,,,,,,,,,NC_38,001,2022_Apr_19_1627,ProdSingRedo,3.2.3,59.85303685327461,
33,0,33,0,,,,,,,,,,,,,,,,,,,,,,,,,,,,241.75143219999995,None,object,sing,blue,28,204,239.7535891,None,None,239.7535891,None,,,,,,,,,,,,,,,,,,,,,,,,,,,,,,,,,NC_38,001,2022_Apr_19_1627,ProdSingRedo,3.2.3,59.85303685327461,
34,0,34,0,,,,,,,,,,,,,,,,,,,,,,,,,,,,244.26813390000007,None,payment,sing,blue,5,215,242.26014770000006,None,None,242.26014770000006,None,,,,,,,,,,,,,,,,,,,,,,,,,,,,,,,,,NC_38,001,2022_Apr_19_1627,ProdSingRedo,3.2.3,59.85303685327461,
35,0,35,0,,,,,,,,,,,,,,,,,,,,,,,,,,,,246.7856672999999,None,region,aloud,yellow,45,256,244.7819030999999,None,None,244.7819030999999,None,,,,,,,,,,,,,,,,,,,,,,,,,,,,,,,,,NC_38,001,2022_Apr_19_1627,ProdSingRedo,3.2.3,59.85303685327461,
36,0,36,0,,,,,,,,,,,,,,,,,,,,,,,,,,,,249.30155530000002,None,sweet,sing,blue,6,319,247.29322679999996,None,None,247.29322679999996,None,,,,,,,,,,,,,,,,,,,,,,,,,,,,,,,,,NC_38,001,2022_Apr_19_1627,ProdSingRedo,3.2.3,59.85303685327461,
37,0,37,0,,,,,,,,,,,,,,,,,,,,,,,,,,,,251.81939119999993,None,tragedy,silent,red,62,335,249.8194899,None,None,249.8194899,None,,,,,,,,,,,,,,,,,,,,,,,,,,,,,,,,,NC_38,001,2022_Apr_19_1627,ProdSingRedo,3.2.3,59.85303685327461,
38,0,38,0,,,,,,,,,,,,,,,,,,,,,,,,,,,,254.33541139999988,None,heavy,aloud,yellow,56,151,252.32099549999998,None,None,252.32099549999998,None,,,,,,,,,,,,,,,,,,,,,,,,,,,,,,,,,NC_38,001,2022_Apr_19_1627,ProdSingRedo,3.2.3,59.85303685327461,
39,0,39,0,,,,,,,,,,,,,,,,,,,,,,,,,,,,256.8529051999999,None,marriage,silent,red,74,179,254.85318259999985,None,None,254.85318259999985,None,,,,,,,,,,,,,,,,,,,,,,,,,,,,,,,,,NC_38,001,2022_Apr_19_1627,ProdSingRedo,3.2.3,59.85303685327461,
40,0,40,0,,,,,,,,,,,,,,,,,,,,,,,,,,,,259.3699316,None,curve,silent,red,83,82,257.3663383999999,None,None,257.3663383999999,None,,,,,,,,,,,,,,,,,,,,,,,,,,,,,,,,,NC_38,001,2022_Apr_19_1627,ProdSingRedo,3.2.3,59.85303685327461,
41,0,41,0,,,,,,,,,,,,,,,,,,,,,,,,,,,,261.88553249999995,None,death,silent,red,82,86,259.8710056,None,None,259.8710056,None,,,,,,,,,,,,,,,,,,,,,,,,,,,,,,,,,NC_38,001,2022_Apr_19_1627,ProdSingRedo,3.2.3,59.85303685327461,
42,0,42,0,,,,,,,,,,,,,,,,,,,,,,,,,,,,264.4029653,None,meeting,aloud,yellow,51,187,262.39869339999996,None,None,262.39869339999996,None,,,,,,,,,,,,,,,,,,,,,,,,,,,,,,,,,NC_38,001,2022_Apr_19_1627,ProdSingRedo,3.2.3,59.85303685327461,
43,0,43,0,,,,,,,,,,,,,,,,,,,,,,,,,,,,266.91938060000007,None,present,sing,blue,27,231,264.91440020000005,None,None,264.91440020000005,None,,,,,,,,,,,,,,,,,,,,,,,,,,,,,,,,,NC_38,001,2022_Apr_19_1627,ProdSingRedo,3.2.3,59.85303685327461,
44,0,44,0,,,,,,,,,,,,,,,,,,,,,,,,,,,,269.4372670999999,None,guest,silent,red,81,146,267.4312098999999,None,None,267.4312098999999,None,,,,,,,,,,,,,,,,,,,,,,,,,,,,,,,,,NC_38,001,2022_Apr_19_1627,ProdSingRedo,3.2.3,59.85303685327461,
45,0,45,0,,,,,,,,,,,,,,,,,,,,,,,,,,,,271.953342,None,command,sing,blue,25,60,269.9445667,None,None,269.9445667,None,,,,,,,,,,,,,,,,,,,,,,,,,,,,,,,,,NC_38,001,2022_Apr_19_1627,ProdSingRedo,3.2.3,59.85303685327461,
46,0,46,0,,,,,,,,,,,,,,,,,,,,,,,,,,,,274.4708802,None,title,silent,red,61,331,272.4551305,None,None,272.4551305,None,,,,,,,,,,,,,,,,,,,,,,,,,,,,,,,,,NC_38,001,2022_Apr_19_1627,ProdSingRedo,3.2.3,59.85303685327461,
47,0,47,0,,,,,,,,,,,,,,,,,,,,,,,,,,,,276.971182,None,production,aloud,yellow,55,240,274.9705839999999,None,None,274.9705839999999,None,,,,,,,,,,,,,,,,,,,,,,,,,,,,,,,,,NC_38,001,2022_Apr_19_1627,ProdSingRedo,3.2.3,59.85303685327461,
48,0,48,0,,,,,,,,,,,,,,,,,,,,,,,,,,,,279.48794780000003,None,tough,sing,blue,0,333,277.4761816,None,None,277.4761816,None,,,,,,,,,,,,,,,,,,,,,,,,,,,,,,,,,NC_38,001,2022_Apr_19_1627,ProdSingRedo,3.2.3,59.85303685327461,
49,0,49,0,,,,,,,,,,,,,,,,,,,,,,,,,,,,282.0047907999999,None,congress,silent,red,89,67,280.0025209999999,None,None,280.0025209999999,None,,,,,,,,,,,,,,,,,,,,,,,,,,,,,,,,,NC_38,001,2022_Apr_19_1627,ProdSingRedo,3.2.3,59.85303685327461,
50,0,50,0,,,,,,,,,,,,,,,,,,,,,,,,,,,,284.52252939999994,None,watch,aloud,yellow,40,351,282.51649470000007,None,None,282.51649470000007,None,,,,,,,,,,,,,,,,,,,,,,,,,,,,,,,,,NC_38,001,2022_Apr_19_1627,ProdSingRedo,3.2.3,59.85303685327461,
51,0,51,0,,,,,,,,,,,,,,,,,,,,,,,,,,,,287.04033630000004,None,education,sing,blue,1,108,285.03923009999994,None,None,285.03923009999994,None,,,,,,,,,,,,,,,,,,,,,,,,,,,,,,,,,NC_38,001,2022_Apr_19_1627,ProdSingRedo,3.2.3,59.85303685327461,
52,0,52,0,,,,,,,,,,,,,,,,,,,,,,,,,,,,289.55494499999986,None,bicycle,silent,red,88,21,287.55374059999986,None,None,287.55374059999986,None,,,,,,,,,,,,,,,,,,,,,,,,,,,,,,,,,NC_38,001,2022_Apr_19_1627,ProdSingRedo,3.2.3,59.85303685327461,
53,0,53,0,,,,,,,,,,,,,,,,,,,,,,,,,,,,292.07110149999994,None,master,sing,blue,18,180,290.06788630000005,None,None,290.06788630000005,None,,,,,,,,,,,,,,,,,,,,,,,,,,,,,,,,,NC_38,001,2022_Apr_19_1627,ProdSingRedo,3.2.3,59.85303685327461,
54,0,54,0,,,,,,,,,,,,,,,,,,,,,,,,,,,,294.58887619999996,None,service,sing,blue,17,280,292.5855154000001,None,None,292.5855154000001,None,,,,,,,,,,,,,,,,,,,,,,,,,,,,,,,,,NC_38,001,2022_Apr_19_1627,ProdSingRedo,3.2.3,59.85303685327461,
55,0,55,0,,,,,,,,,,,,,,,,,,,,,,,,,,,,297.10575360000007,None,vision,aloud,yellow,47,347,295.10041739999997,None,None,295.10041739999997,None,,,,,,,,,,,,,,,,,,,,,,,,,,,,,,,,,NC_38,001,2022_Apr_19_1627,ProdSingRedo,3.2.3,59.85303685327461,
56,0,56,0,,,,,,,,,,,,,,,,,,,,,,,,,,,,299.62262310000006,None,machinery,sing,blue,11,175,297.62400879999996,None,None,297.62400879999996,None,,,,,,,,,,,,,,,,,,,,,,,,,,,,,,,,,NC_38,001,2022_Apr_19_1627,ProdSingRedo,3.2.3,59.85303685327461,
57,0,57,0,,,,,,,,,,,,,,,,,,,,,,,,,,,,302.12309519999985,None,short,sing,blue,21,285,300.1235322,None,None,300.1235322,None,,,,,,,,,,,,,,,,,,,,,,,,,,,,,,,,,NC_38,001,2022_Apr_19_1627,ProdSingRedo,3.2.3,59.85303685327461,
58,0,58,0,,,,,,,,,,,,,,,,,,,,,,,,,,,,304.64019540000004,None,election,aloud,yellow,49,109,302.63395689999993,None,None,302.63395689999993,None,,,,,,,,,,,,,,,,,,,,,,,,,,,,,,,,,NC_38,001,2022_Apr_19_1627,ProdSingRedo,3.2.3,59.85303685327461,
59,0,59,0,,,,,,,,,,,,,,,,,,,,,,,,,,,,307.1563919,None,close,aloud,yellow,59,53,305.14202869999986,None,None,305.14202869999986,None,,,,,,,,,,,,,,,,,,,,,,,,,,,,,,,,,NC_38,001,2022_Apr_19_1627,ProdSingRedo,3.2.3,59.85303685327461,
60,0,60,0,,,,,,,,,,,,,,,,,,,,,,,,,,,,309.6732611,None,little,sing,blue,4,174,307.66738469999996,None,None,307.66738469999996,None,,,,,,,,,,,,,,,,,,,,,,,,,,,,,,,,,NC_38,001,2022_Apr_19_1627,ProdSingRedo,3.2.3,59.85303685327461,
61,0,61,0,,,,,,,,,,,,,,,,,,,,,,,,,,,,312.18933190000007,None,trial,aloud,yellow,58,341,310.1857594999999,None,None,310.1857594999999,None,,,,,,,,,,,,,,,,,,,,,,,,,,,,,,,,,NC_38,001,2022_Apr_19_1627,ProdSingRedo,3.2.3,59.85303685327461,
62,0,62,0,,,,,,,,,,,,,,,,,,,,,,,,,,,,314.7069002999999,None,citizen,aloud,yellow,37,50,312.7113402,None,None,312.7113402,None,,,,,,,,,,,,,,,,,,,,,,,,,,,,,,,,,NC_38,001,2022_Apr_19_1627,ProdSingRedo,3.2.3,59.85303685327461,
63,0,63,0,,,,,,,,,,,,,,,,,,,,,,,,,,,,317.2240193,None,crowd,silent,red,73,81,315.21447769999986,None,None,315.21447769999986,None,,,,,,,,,,,,,,,,,,,,,,,,,,,,,,,,,NC_38,001,2022_Apr_19_1627,ProdSingRedo,3.2.3,59.85303685327461,
64,0,64,0,,,,,,,,,,,,,,,,,,,,,,,,,,,,319.74074389999987,None,business,sing,blue,14,38,317.73878190000005,None,None,317.73878190000005,None,,,,,,,,,,,,,,,,,,,,,,,,,,,,,,,,,NC_38,001,2022_Apr_19_1627,ProdSingRedo,3.2.3,59.85303685327461,
65,0,65,0,,,,,,,,,,,,,,,,,,,,,,,,,,,,322.25627959999997,None,background,aloud,yellow,54,16,320.26349170000003,None,None,320.26349170000003,None,,,,,,,,,,,,,,,,,,,,,,,,,,,,,,,,,NC_38,001,2022_Apr_19_1627,ProdSingRedo,3.2.3,59.85303685327461,
66,0,66,0,,,,,,,,,,,,,,,,,,,,,,,,,,,,324.77428829999985,None,shape,sing,blue,29,282,322.76637329999994,None,None,322.76637329999994,None,,,,,,,,,,,,,,,,,,,,,,,,,,,,,,,,,NC_38,001,2022_Apr_19_1627,ProdSingRedo,3.2.3,59.85303685327461,
67,0,67,0,,,,,,,,,,,,,,,,,,,,,,,,,,,,327.2911159,None,notice,sing,blue,24,201,325.28598050000005,None,None,325.28598050000005,None,,,,,,,,,,,,,,,,,,,,,,,,,,,,,,,,,NC_38,001,2022_Apr_19_1627,ProdSingRedo,3.2.3,59.85303685327461,
68,0,68,0,,,,,,,,,,,,,,,,,,,,,,,,,,,,329.80742110000006,None,oxygen,silent,red,65,209,327.8084283999999,None,None,327.8084283999999,None,,,,,,,,,,,,,,,,,,,,,,,,,,,,,,,,,NC_38,001,2022_Apr_19_1627,ProdSingRedo,3.2.3,59.85303685327461,
69,0,69,0,,,,,,,,,,,,,,,,,,,,,,,,,,,,332.32482529999993,None,gesture,silent,red,77,137,330.32252659999995,None,None,330.32252659999995,None,,,,,,,,,,,,,,,,,,,,,,,,,,,,,,,,,NC_38,001,2022_Apr_19_1627,ProdSingRedo,3.2.3,59.85303685327461,
70,0,70,0,,,,,,,,,,,,,,,,,,,,,,,,,,,,334.84104290000005,None,agreement,aloud,yellow,52,5,332.83255170000007,None,None,332.83255170000007,None,,,,,,,,,,,,,,,,,,,,,,,,,,,,,,,,,NC_38,001,2022_Apr_19_1627,ProdSingRedo,3.2.3,59.85303685327461,
71,0,71,0,,,,,,,,,,,,,,,,,,,,,,,,,,,,337.3584366,None,health,silent,red,69,149,335.36317499999996,None,None,335.36317499999996,None,,,,,,,,,,,,,,,,,,,,,,,,,,,,,,,,,NC_38,001,2022_Apr_19_1627,ProdSingRedo,3.2.3,59.85303685327461,
72,0,72,0,,,,,,,,,,,,,,,,,,,,,,,,,,,,339.87521249999986,None,sleep,silent,red,60,290,337.86651430000006,None,None,337.86651430000006,None,,,,,,,,,,,,,,,,,,,,,,,,,,,,,,,,,NC_38,001,2022_Apr_19_1627,ProdSingRedo,3.2.3,59.85303685327461,
73,0,73,0,,,,,,,,,,,,,,,,,,,,,,,,,,,,342.39157720000003,None,space,sing,blue,10,297,340.38320580000004,None,None,340.38320580000004,None,,,,,,,,,,,,,,,,,,,,,,,,,,,,,,,,,NC_38,001,2022_Apr_19_1627,ProdSingRedo,3.2.3,59.85303685327461,
74,0,74,0,,,,,,,,,,,,,,,,,,,,,,,,,,,,344.9090486,None,smooth,aloud,yellow,43,292,342.89407800000004,None,None,342.89407800000004,None,,,,,,,,,,,,,,,,,,,,,,,,,,,,,,,,,NC_38,001,2022_Apr_19_1627,ProdSingRedo,3.2.3,59.85303685327461,
75,0,75,0,,,,,,,,,,,,,,,,,,,,,,,,,,,,347.4256235999999,None,phrase,aloud,yellow,32,220,345.4232486000001,None,None,345.4232486000001,None,,,,,,,,,,,,,,,,,,,,,,,,,,,,,,,,,NC_38,001,2022_Apr_19_1627,ProdSingRedo,3.2.3,59.85303685327461,
76,0,76,0,,,,,,,,,,,,,,,,,,,,,,,,,,,,349.9427472,None,atmosphere,aloud,yellow,31,12,347.930253,None,None,347.930253,None,,,,,,,,,,,,,,,,,,,,,,,,,,,,,,,,,NC_38,001,2022_Apr_19_1627,ProdSingRedo,3.2.3,59.85303685327461,
77,0,77,0,,,,,,,,,,,,,,,,,,,,,,,,,,,,352.4587695,None,orchestra,sing,blue,23,206,350.45559520000006,None,None,350.45559520000006,None,,,,,,,,,,,,,,,,,,,,,,,,,,,,,,,,,NC_38,001,2022_Apr_19_1627,ProdSingRedo,3.2.3,59.85303685327461,
78,0,78,0,,,,,,,,,,,,,,,,,,,,,,,,,,,,354.97647269999993,None,conference,sing,blue,12,66,352.9750641999999,None,None,352.9750641999999,None,,,,,,,,,,,,,,,,,,,,,,,,,,,,,,,,,NC_38,001,2022_Apr_19_1627,ProdSingRedo,3.2.3,59.85303685327461,
79,0,79,0,,,,,,,,,,,,,,,,,,,,,,,,,,,,357.49318889999995,None,exchange,silent,red,72,121,355.47878130000004,None,None,355.47878130000004,None,,,,,,,,,,,,,,,,,,,,,,,,,,,,,,,,,NC_38,001,2022_Apr_19_1627,ProdSingRedo,3.2.3,59.85303685327461,
80,0,80,0,,,,,,,,,,,,,,,,,,,,,,,,,,,,360.0094772,None,beginning,sing,blue,3,19,358.01145610000003,None,None,358.01145610000003,None,,,,,,,,,,,,,,,,,,,,,,,,,,,,,,,,,NC_38,001,2022_Apr_19_1627,ProdSingRedo,3.2.3,59.85303685327461,
81,0,81,0,,,,,,,,,,,,,,,,,,,,,,,,,,,,362.52683709999997,None,benefit,silent,red,68,20,360.5197215999999,None,None,360.5197215999999,None,,,,,,,,,,,,,,,,,,,,,,,,,,,,,,,,,NC_38,001,2022_Apr_19_1627,ProdSingRedo,3.2.3,59.85303685327461,
82,0,82,0,,,,,,,,,,,,,,,,,,,,,,,,,,,,365.0429988000001,None,rough,aloud,yellow,48,266,363.02868149999995,None,None,363.02868149999995,None,,,,,,,,,,,,,,,,,,,,,,,,,,,,,,,,,NC_38,001,2022_Apr_19_1627,ProdSingRedo,3.2.3,59.85303685327461,
83,0,83,0,,,,,,,,,,,,,,,,,,,,,,,,,,,,367.5599144999999,None,crisis,aloud,yellow,50,79,365.5523857999999,None,None,365.5523857999999,None,,,,,,,,,,,,,,,,,,,,,,,,,,,,,,,,,NC_38,001,2022_Apr_19_1627,ProdSingRedo,3.2.3,59.85303685327461,
84,0,84,0,,,,,,,,,,,,,,,,,,,,,,,,,,,,370.07679099999996,None,religion,aloud,yellow,34,258,368.07391340000004,None,None,368.07391340000004,None,,,,,,,,,,,,,,,,,,,,,,,,,,,,,,,,,NC_38,001,2022_Apr_19_1627,ProdSingRedo,3.2.3,59.85303685327461,
85,0,85,0,,,,,,,,,,,,,,,,,,,,,,,,,,,,372.59357,None,author,sing,blue,20,15,370.57909760000007,None,None,370.57909760000007,None,,,,,,,,,,,,,,,,,,,,,,,,,,,,,,,,,NC_38,001,2022_Apr_19_1627,ProdSingRedo,3.2.3,59.85303685327461,
86,0,86,0,,,,,,,,,,,,,,,,,,,,,,,,,,,,375.1103077999999,None,sound,silent,red,67,295,373.10641039999996,None,None,373.10641039999996,None,,,,,,,,,,,,,,,,,,,,,,,,,,,,,,,,,NC_38,001,2022_Apr_19_1627,ProdSingRedo,3.2.3,59.85303685327461,
87,0,87,0,,,,,,,,,,,,,,,,,,,,,,,,,,,,377.6271941,None,comedy,aloud,yellow,42,58,375.6245349999999,None,None,375.6245349999999,None,,,,,,,,,,,,,,,,,,,,,,,,,,,,,,,,,NC_38,001,2022_Apr_19_1627,ProdSingRedo,3.2.3,59.85303685327461,
88,0,88,0,,,,,,,,,,,,,,,,,,,,,,,,,,,,380.1446211,None,minor,silent,red,64,191,378.1367828,None,None,378.1367828,None,,,,,,,,,,,,,,,,,,,,,,,,,,,,,,,,,NC_38,001,2022_Apr_19_1627,ProdSingRedo,3.2.3,59.85303685327461,
89,0,89,0,,,,,,,,,,,,,,,,,,,,,,,,,,,,382.6602189,None,safety,sing,blue,7,270,380.6589678999999,None,None,380.6589678999999,None,,,,,,,,,,,,,,,,,,,,,,,,,,,,,,,,,NC_38,001,2022_Apr_19_1627,ProdSingRedo,3.2.3,59.85303685327461,
,,,,,,,,,,,,,,,,,,,,,,,,,,,,,,,,,,,,,,,,,,,383.16066439999986,None,k,115.51937589999989,383.16066439999986,None,,,,,,,,,,,,,,,,,,,,,,,,,,,NC_38,001,2022_Apr_19_1627,ProdSingRedo,3.2.3,59.85303685327461,
,,,,0,0,0,0,,,,,,,,,,,,,,,,,,,,,,,,510.0550518,None,,,,,,,,,,,,,,,,,bicycle,silent,white,0,88,21,499.2255894,None,499.2255894,None,4,7.902593900000056,499.2255894,None,507.17203589999986,None,507.7031222999999,None,507.7031222999999,None,f,2.3207926999998563,507.7031222999999,None,,,NC_38,001,2022_Apr_19_1627,ProdSingRedo,3.2.3,59.85303685327461,
,,,,1,0,1,0,,,,,,,,,,,,,,,,,,,,,,,,516.9292367,None,,,,,,,,,,,,,,,,,medicine,new_a,white,1,102,186,510.57256269999993,None,510.57256269999993,None,1,3.315375299999914,510.57256269999993,None,513.9346108,None,514.4411857999999,None,514.4411857999999,None,n,2.4467981000000236,514.4411857999999,None,,,NC_38,001,2022_Apr_19_1627,ProdSingRedo,3.2.3,59.85303685327461,
,,,,2,0,2,0,,,,,,,,,,,,,,,,,,,,,,,,524.4392374999998,None,,,,,,,,,,,,,,,,,level,new_b,white,2,149,170,517.4399212000001,None,517.4399212000001,None,5,5.4801015000002735,517.4399212000001,None,522.9601947000001,None,523.4860543,None,523.4860543,None,f,0.9298276999998052,523.4860543,None,,,NC_38,001,2022_Apr_19_1627,ProdSingRedo,3.2.3,59.85303685327461,
,,,,3,0,3,0,,,,,,,,,,,,,,,,,,,,,,,,530.8057045999999,None,,,,,,,,,,,,,,,,,defeat,silent,white,3,85,88,524.9717282000001,None,524.9717282000001,None,6,4.036312899999757,524.9717282000001,None,529.0636737,None,529.5878484999998,None,529.5878484999998,None,r,1.1880608000001303,529.5878484999998,None,,,NC_38,001,2022_Apr_19_1627,ProdSingRedo,3.2.3,59.85303685327461,
,,,,4,0,4,0,,,,,,,,,,,,,,,,,,,,,,,,534.8058234999999,None,,,,,,,,,,,,,,,,,committee,sing,white,4,2,62,531.3202968,None,531.3202968,None,6,2.2879072000000633,531.3202968,None,533.6598306999999,None,534.1731260000001,None,534.1731260000001,None,r,0.6107749999996486,534.1731260000001,None,,,NC_38,001,2022_Apr_19_1627,ProdSingRedo,3.2.3,59.85303685327461,
,,,,5,0,5,0,,,,,,,,,,,,,,,,,,,,,,,,539.5563105000001,None,,,,,,,,,,,,,,,,,light,new_a,white,5,97,171,535.3207809999999,None,535.3207809999999,None,4,2.911033199999565,535.3207809999999,None,538.2589970999998,None,538.7821650000001,None,538.7821650000001,None,f,0.7538189000001694,538.7821650000001,None,,,NC_38,001,2022_Apr_19_1627,ProdSingRedo,3.2.3,59.85303685327461,
,,,,6,0,6,0,,,,,,,,,,,,,,,,,,,,,,,,544.4909309,None,,,,,,,,,,,,,,,,,division,new_a,white,6,106,101,540.0752539999999,None,540.0752539999999,None,5,2.532783399999971,540.0752539999999,None,542.6643715999999,None,543.1847151000002,None,543.1847151000002,None,f,1.2872614000002613,543.1847151000002,None,,,NC_38,001,2022_Apr_19_1627,ProdSingRedo,3.2.3,59.85303685327461,
,,,,7,0,7,0,,,,,,,,,,,,,,,,,,,,,,,,548.6740750999998,None,,,,,,,,,,,,,,,,,strain,aloud,white,7,46,308,545.0292601000001,None,545.0292601000001,None,6,2.819034300000112,545.0292601000001,None,547.8857324999999,None,548.3917289999999,None,548.3917289999999,None,r,0.2561172999999144,548.3917289999999,None,,,NC_38,001,2022_Apr_19_1627,ProdSingRedo,3.2.3,59.85303685327461,
,,,,8,0,8,0,,,,,,,,,,,,,,,,,,,,,,,,555.1492285999998,None,,,,,,,,,,,,,,,,,drink,new_b,white,8,132,105,549.2039887999999,None,549.2039887999999,None,4,4.252089699999942,549.2039887999999,None,553.4947818999999,None,554.0114472,None,554.0114472,None,f,1.1092862999998943,554.0114472,None,,,NC_38,001,2022_Apr_19_1627,ProdSingRedo,3.2.3,59.85303685327461,
,,,,9,0,9,0,,,,,,,,,,,,,,,,,,,,,,,,561.5238300999999,None,,,,,,,,,,,,,,,,,danger,new_b,white,9,131,85,555.6700624999999,None,555.6700624999999,None,5,3.8740303999998105,555.6700624999999,None,559.5871263999998,None,560.1000304999998,None,560.1000304999998,None,r,1.3957519999999022,560.1000304999998,None,,,NC_38,001,2022_Apr_19_1627,ProdSingRedo,3.2.3,59.85303685327461,
,,,,10,0,10,0,,,,,,,,,,,,,,,,,,,,,,,,566.4148510999999,None,,,,,,,,,,,,,,,,,short,sing,white,10,21,285,562.039961,None,562.039961,None,5,2.2000558999998248,562.039961,None,564.2667480999999,None,564.780593,None,564.780593,None,r,1.5952763999998751,564.780593,None,,,NC_38,001,2022_Apr_19_1627,ProdSingRedo,3.2.3,59.85303685327461,
,,,,11,0,11,0,,,,,,,,,,,,,,,,,,,,,,,,572.2521771000002,None,,,,,,,,,,,,,,,,,individual,new_c,white,11,158,160,566.9289214999999,None,566.9289214999999,None,5,3.703076599999804,566.9289214999999,None,570.6854196999998,None,571.1946855000001,None,571.1946855000001,None,f,1.021463600000061,571.1946855000001,None,,,NC_38,001,2022_Apr_19_1627,ProdSingRedo,3.2.3,59.85303685327461,
,,,,12,0,12,0,,,,,,,,,,,,,,,,,,,,,,,,577.6167421,None,,,,,,,,,,,,,,,,,place,silent,white,12,75,222,572.7752366,None,572.7752366,None,4,4.184935499999938,572.7752366,None,577.0145121999999,None,577.5360621999998,None,577.5360621999998,None,f,0.04809949999980745,577.5360621999998,None,,,NC_38,001,2022_Apr_19_1627,ProdSingRedo,3.2.3,59.85303685327461,
,,,,13,0,13,0,,,,,,,,,,,,,,,,,,,,,,,,585.2272628000001,None,,,,,,,,,,,,,,,,,number,new_b,white,13,139,203,578.1463585000001,None,578.1463585000001,None,5,4.91746830000011,578.1463585000001,None,583.1045773000001,None,583.6236583999998,None,583.6236583999998,None,r,1.5843482000000222,583.6236583999998,None,,,NC_38,001,2022_Apr_19_1627,ProdSingRedo,3.2.3,59.85303685327461,
,,,,14,0,14,0,,,,,,,,,,,,,,,,,,,,,,,,588.7430196999999,None,,,,,,,,,,,,,,,,,agreement,aloud,white,14,52,5,585.7436170000001,None,585.7436170000001,None,6,2.024441900000056,585.7436170000001,None,587.8174217999999,None,588.3377845,None,588.3377845,None,r,0.3741460000001098,588.3377845,None,,,NC_38,001,2022_Apr_19_1627,ProdSingRedo,3.2.3,59.85303685327461,
,,,,15,0,15,0,,,,,,,,,,,,,,,,,,,,,,,,593.0933822000002,None,,,,,,,,,,,,,,,,,growth,new_b,white,15,145,144,589.2596512999999,None,589.2596512999999,None,6,2.4680709999997816,589.2596512999999,None,591.7622704,None,592.2833050999998,None,592.2833050999998,None,r,0.7890861999999288,592.2833050999998,None,,,NC_38,001,2022_Apr_19_1627,ProdSingRedo,3.2.3,59.85303685327461,
,,,,16,0,16,0,,,,,,,,,,,,,,,,,,,,,,,,599.5779668,None,,,,,,,,,,,,,,,,,production,aloud,white,16,55,240,593.6105830000001,None,593.6105830000001,None,4,3.869405200000074,593.6105830000001,None,597.5367409,None,598.0526891,None,598.0526891,None,f,1.5072315000002163,598.0526891,None,,,NC_38,001,2022_Apr_19_1627,ProdSingRedo,3.2.3,59.85303685327461,
,,,,17,0,17,0,,,,,,,,,,,,,,,,,,,,,,,,606.8692697000001,None,,,,,,,,,,,,,,,,,author,sing,white,17,20,15,600.1001077999999,None,600.1001077999999,None,5,5.17169449999983,600.1001077999999,None,605.3038224000002,None,605.8179639,None,605.8179639,None,r,1.022678199999973,605.8179639,None,,,NC_38,001,2022_Apr_19_1627,ProdSingRedo,3.2.3,59.85303685327461,
,,,,18,0,18,0,,,,,,,,,,,,,,,,,,,,,,,,610.1519523000002,None,,,,,,,,,,,,,,,,,orchestra,sing,white,18,23,206,607.3963107,None,607.3963107,None,6,1.6996844000000237,607.3963107,None,609.1482034,None,609.6722255999998,None,609.6722255999998,None,r,0.4477928000001157,609.6722255999998,None,,,NC_38,001,2022_Apr_19_1627,ProdSingRedo,3.2.3,59.85303685327461,
,,,,19,0,19,0,,,,,,,,,,,,,,,,,,,,,,,,614.6288202999999,None,,,,,,,,,,,,,,,,,religion,aloud,white,19,34,258,610.6784501000002,None,610.6784501000002,None,6,2.9137304999999287,610.6784501000002,None,613.6348355999999,None,614.1580635,None,614.1580635,None,r,0.44997460000013234,614.1580635,None,,,NC_38,001,2022_Apr_19_1627,ProdSingRedo,3.2.3,59.85303685327461,
,,,,20,0,20,0,,,,,,,,,,,,,,,,,,,,,,,,621.8631580000001,None,,,,,,,,,,,,,,,,,present,sing,white,20,27,231,615.1565876,None,615.1565876,None,5,5.363269200000104,615.1565876,None,620.5579877,None,621.0599063,None,621.0599063,None,f,0.7717984000000797,621.0599063,None,,,NC_38,001,2022_Apr_19_1627,ProdSingRedo,3.2.3,59.85303685327461,
,,,,21,0,21,0,,,,,,,,,,,,,,,,,,,,,,,,624.9002781999998,None,,,,,,,,,,,,,,,,,drove,new_c,white,21,172,106,622.3827720999998,None,622.3827720999998,None,1,1.4413574000000153,622.3827720999998,None,623.8691887999998,None,624.3900783999998,None,624.3900783999998,None,n,0.45783590000019103,624.3900783999998,None,,,NC_38,001,2022_Apr_19_1627,ProdSingRedo,3.2.3,59.85303685327461,
,,,,22,0,22,0,,,,,,,,,,,,,,,,,,,,,,,,630.1588916999999,None,,,,,,,,,,,,,,,,,master,sing,white,22,18,180,625.4303168000001,None,625.4303168000001,None,3,3.8734306000001197,625.4303168000001,None,629.3321584,None,629.8460937,None,629.8460937,None,f,0.2659393999997519,629.8460937,None,,,NC_38,001,2022_Apr_19_1627,ProdSingRedo,3.2.3,59.85303685327461,
,,,,23,0,23,0,,,,,,,,,,,,,,,,,,,,,,,,634.9208469999999,None,,,,,,,,,,,,,,,,,management,new_a,white,23,103,177,630.6675501999998,None,630.6675501999998,None,1,3.32442170000013,630.6675501999998,None,634.0249669,None,634.5462790000001,None,634.5462790000001,None,n,0.3496930000001157,634.5462790000001,None,,,NC_38,001,2022_Apr_19_1627,ProdSingRedo,3.2.3,59.85303685327461,
,,,,24,0,24,0,,,,,,,,,,,,,,,,,,,,,,,,641.8297803,None,,,,,,,,,,,,,,,,,suggestion,new_c,white,24,152,314,635.4474759,None,635.4474759,None,5,5.208326800000123,635.4474759,None,640.6908859,None,641.2082958000001,None,641.2082958000001,None,f,0.5996099999997568,641.2082958000001,None,,,NC_38,001,2022_Apr_19_1627,ProdSingRedo,3.2.3,59.85303685327461,
,,,,25,0,25,0,,,,,,,,,,,,,,,,,,,,,,,,645.8544728000002,None,,,,,,,,,,,,,,,,,poetry,sing,white,25,26,225,642.3512962,None,642.3512962,None,6,2.2967247000001407,642.3512962,None,644.6890030999998,None,645.1975459999999,None,645.1975459999999,None,r,0.6184748999999101,645.1975459999999,None,,,NC_38,001,2022_Apr_19_1627,ProdSingRedo,3.2.3,59.85303685327461,
,,,,26,0,26,0,,,,,,,,,,,,,,,,,,,,,,,,649.9635091999999,None,,,,,,,,,,,,,,,,,provision,sing,white,26,22,243,646.3649418,None,646.3649418,None,5,2.851068899999973,646.3649418,None,649.2671397999998,None,649.7928993,None,649.7928993,None,r,0.1429560000001402,649.7928993,None,,,NC_38,001,2022_Apr_19_1627,ProdSingRedo,3.2.3,59.85303685327461,
,,,,27,0,27,0,,,,,,,,,,,,,,,,,,,,,,,,653.130694,None,,,,,,,,,,,,,,,,,mayor,new_c,white,27,176,183,650.4830028000001,None,650.4830028000001,None,4,1.796806700000161,650.4830028000001,None,652.3093776000001,None,652.8258363,None,652.8258363,None,f,0.28626029999986713,652.8258363,None,,,NC_38,001,2022_Apr_19_1627,ProdSingRedo,3.2.3,59.85303685327461,
,,,,28,0,28,0,,,,,,,,,,,,,,,,,,,,,,,,660.2206962999999,None,,,,,,,,,,,,,,,,,design,new_a,white,28,92,91,653.649191,None,653.649191,None,5,5.238502700000026,653.649191,None,658.9161359,None,659.4376548,None,659.4376548,None,r,0.7462475000002087,659.4376548,None,,,NC_38,001,2022_Apr_19_1627,ProdSingRedo,3.2.3,59.85303685327461,
,,,,29,0,29,0,,,,,,,,,,,,,,,,,,,,,,,,663.0267585000001,None,,,,,,,,,,,,,,,,,sunset,new_b,white,29,127,315,660.7404430000001,None,660.7404430000001,None,1,1.3155989000001682,660.7404430000001,None,662.1035763999998,None,662.6245626,None,662.6245626,None,n,0.3593882999998641,662.6245626,None,,,NC_38,001,2022_Apr_19_1627,ProdSingRedo,3.2.3,59.85303685327461,
,,,,30,0,30,0,,,,,,,,,,,,,,,,,,,,,,,,667.2016150999998,None,,,,,,,,,,,,,,,,,split,new_a,white,30,116,299,663.5453191000001,None,663.5453191000001,None,5,2.1354165000002467,663.5453191000001,None,665.7181172,None,666.2369404000001,None,666.2369404000001,None,f,0.9310736999996152,666.2369404000001,None,,,NC_38,001,2022_Apr_19_1627,ProdSingRedo,3.2.3,59.85303685327461,
,,,,31,0,31,0,,,,,,,,,,,,,,,,,,,,,,,,671.3566682000001,None,,,,,,,,,,,,,,,,,death,silent,white,31,82,86,667.7166357000001,None,667.7166357000001,None,1,2.795785000000251,667.7166357000001,None,670.5548776999999,None,671.0657434,None,671.0657434,None,n,0.26296959999990577,671.0657434,None,,,NC_38,001,2022_Apr_19_1627,ProdSingRedo,3.2.3,59.85303685327461,
,,,,32,0,32,0,,,,,,,,,,,,,,,,,,,,,,,,674.9561718999998,None,,,,,,,,,,,,,,,,,reading,aloud,white,32,30,254,671.8815866999998,None,671.8815866999998,None,5,1.854307399999925,671.8815866999998,None,673.7870487,None,674.2977341999999,None,674.2977341999999,None,r,0.6306701999997131,674.2977341999999,None,,,NC_38,001,2022_Apr_19_1627,ProdSingRedo,3.2.3,59.85303685327461,
,,,,33,0,33,0,,,,,,,,,,,,,,,,,,,,,,,,678.0829456000001,None,,,,,,,,,,,,,,,,,afternoon,silent,white,33,86,3,675.4799702,None,675.4799702,None,1,1.7841174000000137,675.4799702,None,677.3050924999998,None,677.8257632,None,677.8257632,None,n,0.23018259999980728,677.8257632,None,,,NC_38,001,2022_Apr_19_1627,ProdSingRedo,3.2.3,59.85303685327461,
,,,,34,0,34,0,,,,,,,,,,,,,,,,,,,,,,,,682.1172513000001,None,,,,,,,,,,,,,,,,,member,new_b,white,34,121,188,678.6078416,None,678.6078416,None,5,1.8242296999997052,678.6078416,None,680.4772011,None,680.9859065,None,680.9859065,None,f,1.110610799999904,680.9859065,None,,,NC_38,001,2022_Apr_19_1627,ProdSingRedo,3.2.3,59.85303685327461,
,,,,35,0,35,0,,,,,,,,,,,,,,,,,,,,,,,,689.1400459000001,None,,,,,,,,,,,,,,,,,whole,new_b,white,35,130,355,682.6445156999998,None,682.6445156999998,None,4,5.259485799999766,682.6445156999998,None,687.9530786999999,None,688.4739998,None,688.4739998,None,f,0.6300254000002496,688.4739998,None,,,NC_38,001,2022_Apr_19_1627,ProdSingRedo,3.2.3,59.85303685327461,
,,,,36,0,36,0,,,,,,,,,,,,,,,,,,,,,,,,693.3077865999999,None,,,,,,,,,,,,,,,,,material,new_b,white,36,148,182,689.6689704,None,689.6689704,None,1,2.9069242000000486,689.6689704,None,692.6146404000001,None,693.1303551999999,None,693.1303551999999,None,n,0.15000719999989087,693.1303551999999,None,,,NC_38,001,2022_Apr_19_1627,ProdSingRedo,3.2.3,59.85303685327461,
,,,,37,0,37,0,,,,,,,,,,,,,,,,,,,,,,,,695.9744003999999,None,,,,,,,,,,,,,,,,,smell,aloud,white,37,38,291,693.8308508999999,None,693.8308508999999,None,1,1.401159000000007,693.8308508999999,None,695.2704211,None,695.7836968000001,None,695.7836968000001,None,n,0.1523059999999532,695.7836968000001,None,,,NC_38,001,2022_Apr_19_1627,ProdSingRedo,3.2.3,59.85303685327461,
,,,,38,0,38,0,,,,,,,,,,,,,,,,,,,,,,,,700.1349716999998,None,,,,,,,,,,,,,,,,,institute,aloud,white,38,33,162,696.4938157000001,None,696.4938157000001,None,5,2.95393520000016,696.4938157000001,None,699.4736155,None,699.9974928000001,None,699.9974928000001,None,r,0.11428569999998217,699.9974928000001,None,,,NC_38,001,2022_Apr_19_1627,ProdSingRedo,3.2.3,59.85303685327461,
,,,,39,0,39,0,,,,,,,,,,,,,,,,,,,,,,,,705.5085411999999,None,,,,,,,,,,,,,,,,,meeting,aloud,white,39,51,187,700.6567184999999,None,700.6567184999999,None,3,1.9431018999998741,700.6567184999999,None,702.6270657999999,None,703.136489,None,703.136489,None,f,2.3439140999998926,703.136489,None,,,NC_38,001,2022_Apr_19_1627,ProdSingRedo,3.2.3,59.85303685327461,
,,,,40,0,40,0,,,,,,,,,,,,,,,,,,,,,,,,708.2438504000002,None,,,,,,,,,,,,,,,,,relation,silent,white,40,63,257,706.0287448999998,None,706.0287448999998,None,1,1.467116199999964,706.0287448999998,None,707.5256546,None,708.0468566,None,708.0468566,None,n,0.1611041999999543,708.0468566,None,,,NC_38,001,2022_Apr_19_1627,ProdSingRedo,3.2.3,59.85303685327461,
,,,,41,0,41,0,,,,,,,,,,,,,,,,,,,,,,,,712.5845295999998,None,,,,,,,,,,,,,,,,,finish,new_a,white,41,117,130,708.7680455,None,708.7680455,None,3,1.9356704000001628,708.7680455,None,710.7425205,None,711.2489964000001,None,711.2489964000001,None,f,1.3107961000000614,711.2489964000001,None,,,NC_38,001,2022_Apr_19_1627,ProdSingRedo,3.2.3,59.85303685327461,
,,,,42,0,42,0,,,,,,,,,,,,,,,,,,,,,,,,716.5016099,None,,,,,,,,,,,,,,,,,shape,sing,white,42,29,282,713.1041022999998,None,713.1041022999998,None,2,2.0801465999998072,713.1041022999998,None,715.2247723,None,715.7404683,None,715.7404683,None,n,0.7314965000000484,715.7404683,None,,,NC_38,001,2022_Apr_19_1627,ProdSingRedo,3.2.3,59.85303685327461,
,,,,43,0,43,0,,,,,,,,,,,,,,,,,,,,,,,,722.2424566,None,,,,,,,,,,,,,,,,,shock,new_b,white,43,137,284,717.0108055000001,None,717.0108055000001,None,3,2.268970300000092,717.0108055000001,None,719.3126799000001,None,719.8229719000001,None,719.8229719000001,None,n,2.3850069000000076,719.8229719000001,None,,,NC_38,001,2022_Apr_19_1627,ProdSingRedo,3.2.3,59.85303685327461,
,,,,44,0,44,0,,,,,,,,,,,,,,,,,,,,,,,,728.4596188999999,None,,,,,,,,,,,,,,,,,break,silent,white,44,80,26,722.7621073999999,None,722.7621073999999,None,4,3.870140200000151,722.7621073999999,None,726.6780939999999,None,727.1884153000001,None,727.1884153000001,None,f,1.23558950000006,727.1884153000001,None,,,NC_38,001,2022_Apr_19_1627,ProdSingRedo,3.2.3,59.85303685327461,
,,,,45,0,45,0,,,,,,,,,,,,,,,,,,,,,,,,733.7026418,None,,,,,,,,,,,,,,,,,benefit,silent,white,45,68,20,728.9820919999997,None,728.9820919999997,None,3,2.6178006000000096,728.9820919999997,None,731.6335994000001,None,732.1489004999999,None,732.1489004999999,None,n,1.5230702999997447,732.1489004999999,None,,,NC_38,001,2022_Apr_19_1627,ProdSingRedo,3.2.3,59.85303685327461,
,,,,46,0,46,0,,,,,,,,,,,,,,,,,,,,,,,,738.9868035999998,None,,,,,,,,,,,,,,,,,judge,aloud,white,46,36,166,734.2274246000002,None,734.2274246000002,None,5,2.284384300000056,734.2274246000002,None,736.5479065,None,737.0542946,None,737.0542946,None,f,1.9055615000002035,737.0542946,None,,,NC_38,001,2022_Apr_19_1627,ProdSingRedo,3.2.3,59.85303685327461,
,,,,47,0,47,0,,,,,,,,,,,,,,,,,,,,,,,,745.4535892999997,None,,,,,,,,,,,,,,,,,cover,new_b,white,47,146,77,739.5101976000001,None,739.5101976000001,None,4,4.0337642999998025,739.5101976000001,None,743.5929486999999,None,744.1054051000001,None,744.1054051000001,None,f,1.3184409999998934,744.1054051000001,None,,,NC_38,001,2022_Apr_19_1627,ProdSingRedo,3.2.3,59.85303685327461,
,,,,48,0,48,0,,,,,,,,,,,,,,,,,,,,,,,,750.6039357,None,,,,,,,,,,,,,,,,,escape,new_a,white,48,107,118,745.9827584999998,None,745.9827584999998,None,3,3.0970202999997127,745.9827584999998,None,749.1089655999999,None,749.6310604999999,None,749.6310604999999,None,f,0.9528729000003295,749.6310604999999,None,,,NC_38,001,2022_Apr_19_1627,ProdSingRedo,3.2.3,59.85303685327461,
,,,,49,0,49,0,,,,,,,,,,,,,,,,,,,,,,,,755.4220142999998,None,,,,,,,,,,,,,,,,,majority,new_b,white,49,138,176,751.1481850999999,None,751.1481850999999,None,5,2.2756423000000723,751.1481850999999,None,753.4664643000001,None,753.9844499999999,None,753.9844499999999,None,r,1.407634700000017,753.9844499999999,None,,,NC_38,001,2022_Apr_19_1627,ProdSingRedo,3.2.3,59.85303685327461,
,,,,50,0,50,0,,,,,,,,,,,,,,,,,,,,,,,,758.2799804000001,None,,,,,,,,,,,,,,,,,budget,new_b,white,50,133,34,755.9488569,None,755.9488569,None,3,1.6671606999998403,755.9488569,None,757.6476735000001,None,758.1555248999998,None,758.1555248999998,None,n,0.0924801999999545,758.1555248999998,None,,,NC_38,001,2022_Apr_19_1627,ProdSingRedo,3.2.3,59.85303685327461,
,,,,51,0,51,0,,,,,,,,,,,,,,,,,,,,,,,,762.9802378999998,None,,,,,,,,,,,,,,,,,cross,new_a,white,51,104,80,758.7996746999997,None,758.7996746999997,None,4,2.592027899999721,758.7996746999997,None,761.4290184000001,None,761.9408558999999,None,761.9408558999999,None,f,1.0113546000002316,761.9408558999999,None,,,NC_38,001,2022_Apr_19_1627,ProdSingRedo,3.2.3,59.85303685327461,
,,,,52,0,52,0,,,,,,,,,,,,,,,,,,,,,,,,768.6295787999998,None,,,,,,,,,,,,,,,,,sweet,sing,white,52,6,319,763.5048391999999,None,763.5048391999999,None,5,3.8708560999998554,763.5048391999999,None,767.4261056999999,None,767.9507632,None,767.9507632,None,r,0.6492511000001286,767.9507632,None,,,NC_38,001,2022_Apr_19_1627,ProdSingRedo,3.2.3,59.85303685327461,
,,,,53,0,53,0,,,,,,,,,,,,,,,,,,,,,,,,774.0388816999998,None,,,,,,,,,,,,,,,,,contract,silent,white,53,66,68,769.1570777000002,None,769.1570777000002,None,5,2.362736600000062,769.1570777000002,None,771.5403158999998,None,772.0538839999999,None,772.0538839999999,None,f,1.9540766000000076,772.0538839999999,None,,,NC_38,001,2022_Apr_19_1627,ProdSingRedo,3.2.3,59.85303685327461,
,,,,54,0,54,0,,,,,,,,,,,,,,,,,,,,,,,,777.9724099,None,,,,,,,,,,,,,,,,,minute,new_a,white,54,100,192,774.5712834999999,None,774.5712834999999,None,1,2.60455120000006,774.5712834999999,None,777.2223499000002,None,777.7337999000001,None,777.7337999000001,None,n,0.21816420000004655,777.7337999000001,None,,,NC_38,001,2022_Apr_19_1627,ProdSingRedo,3.2.3,59.85303685327461,
,,,,55,0,55,0,,,,,,,,,,,,,,,,,,,,,,,,783.2232755999999,None,,,,,,,,,,,,,,,,,husband,new_b,white,55,124,156,778.4952776,None,778.4952776,None,3,2.841162499999882,778.4952776,None,781.3795553,None,781.9058313999999,None,781.9058313999999,None,n,1.2941109000003053,781.9058313999999,None,,,NC_38,001,2022_Apr_19_1627,ProdSingRedo,3.2.3,59.85303685327461,
,,,,56,0,56,0,,,,,,,,,,,,,,,,,,,,,,,,788.8311604,None,,,,,,,,,,,,,,,,,emergency,new_c,white,56,159,110,783.7494409000001,None,783.7494409000001,None,5,4.050584799999797,783.7494409000001,None,787.8498807999999,None,788.3720392999999,None,788.3720392999999,None,f,0.42798579999998765,788.3720392999999,None,,,NC_38,001,2022_Apr_19_1627,ProdSingRedo,3.2.3,59.85303685327461,
,,,,57,0,57,0,,,,,,,,,,,,,,,,,,,,,,,,793.5737881,None,,,,,,,,,,,,,,,,,phrase,aloud,white,57,32,220,789.3557663000001,None,789.3557663000001,None,6,3.2281669999997575,789.3557663000001,None,792.6286378999998,None,793.1499585000001,None,793.1499585000001,None,r,0.3940136999999595,793.1499585000001,None,,,NC_38,001,2022_Apr_19_1627,ProdSingRedo,3.2.3,59.85303685327461,
,,,,58,0,58,0,,,,,,,,,,,,,,,,,,,,,,,,796.2730765000001,None,,,,,,,,,,,,,,,,,payment,sing,white,58,5,215,794.1086088000002,None,794.1086088000002,None,6,1.5871968000001289,794.1086088000002,None,795.7309910999998,None,796.2431576999998,None,796.2431576999998,None,r,0.004583000000366155,796.2431576999998,None,,,NC_38,001,2022_Apr_19_1627,ProdSingRedo,3.2.3,59.85303685327461,
,,,,59,0,59,0,,,,,,,,,,,,,,,,,,,,,,,,799.0147355999998,None,,,,,,,,,,,,,,,,,guide,new_a,white,59,114,147,796.7948634999998,None,796.7948634999998,None,1,1.5331952000001365,796.7948634999998,None,798.3788332999998,None,798.8974263999999,None,798.8974263999999,None,n,0.07839930000000095,798.8974263999999,None,,,NC_38,001,2022_Apr_19_1627,ProdSingRedo,3.2.3,59.85303685327461,
,,,,60,0,60,0,,,,,,,,,,,,,,,,,,,,,,,,802.6073999999999,None,,,,,,,,,,,,,,,,,education,sing,white,60,1,108,799.5443128000002,None,799.5443128000002,None,5,2.1594961999999214,799.5443128000002,None,801.7316295,None,802.2396902,None,802.2396902,None,r,0.3363030999998955,802.2396902,None,,,NC_38,001,2022_Apr_19_1627,ProdSingRedo,3.2.3,59.85303685327461,
,,,,61,0,61,0,,,,,,,,,,,,,,,,,,,,,,,,805.5998712999999,None,,,,,,,,,,,,,,,,,equipment,new_c,white,61,153,116,803.1509175000001,None,803.1509175000001,None,3,1.5210393000002114,803.1509175000001,None,804.7167685999998,None,805.2297248999998,None,805.2297248999998,None,n,0.3383718999998564,805.2297248999998,None,,,NC_38,001,2022_Apr_19_1627,ProdSingRedo,3.2.3,59.85303685327461,
,,,,62,0,62,0,,,,,,,,,,,,,,,,,,,,,,,,814.3429851000001,None,,,,,,,,,,,,,,,,,birth,silent,white,62,78,22,806.1232221999999,None,806.1232221999999,None,5,6.77249989999973,806.1232221999999,None,812.9251706,None,813.4489162999998,None,813.4489162999998,None,r,0.8710938999997779,813.4489162999998,None,,,NC_38,001,2022_Apr_19_1627,ProdSingRedo,3.2.3,59.85303685327461,
,,,,63,0,63,0,,,,,,,,,,,,,,,,,,,,,,,,817.1492308000002,None,,,,,,,,,,,,,,,,,empty,new_c,white,63,163,112,814.8588933000001,None,814.8588933000001,None,1,1.4208720999999969,814.8588933000001,None,816.3179343000002,None,816.8340432999998,None,816.8340432999998,None,n,0.2859390000003259,816.8340432999998,None,,,NC_38,001,2022_Apr_19_1627,ProdSingRedo,3.2.3,59.85303685327461,
,,,,64,0,64,0,,,,,,,,,,,,,,,,,,,,,,,,822.6840455000001,None,,,,,,,,,,,,,,,,,smooth,aloud,white,64,43,292,817.6724418999997,None,817.6724418999997,None,5,3.4474066000002495,817.6724418999997,None,821.1498775999999,None,821.6620880999999,None,821.6620880999999,None,f,0.9860346000000391,821.6620880999999,None,,,NC_38,001,2022_Apr_19_1627,ProdSingRedo,3.2.3,59.85303685327461,
,,,,65,0,65,0,,,,,,,,,,,,,,,,,,,,,,,,825.9172033999998,None,,,,,,,,,,,,,,,,,service,sing,white,65,17,280,823.1981145999998,None,823.1981145999998,None,3,1.6096581000001606,823.1981145999998,None,824.8380438999998,None,825.3437328999998,None,825.3437328999998,None,f,0.5362647000001743,825.3437328999998,None,,,NC_38,001,2022_Apr_19_1627,ProdSingRedo,3.2.3,59.85303685327461,
,,,,66,0,66,0,,,,,,,,,,,,,,,,,,,,,,,,834.8605155999999,None,,,,,,,,,,,,,,,,,patient,silent,white,66,87,213,826.4430321,None,826.4430321,None,4,7.316840599999978,826.4430321,None,833.8052136000001,None,834.3215909,None,834.3215909,None,n,0.5101786000000175,834.3215909,None,,,NC_38,001,2022_Apr_19_1627,ProdSingRedo,3.2.3,59.85303685327461,
,,,,67,0,67,0,,,,,,,,,,,,,,,,,,,,,,,,839.1269004999999,None,,,,,,,,,,,,,,,,,personnel,new_c,white,67,165,219,835.3797482999998,None,835.3797482999998,None,2,3.1400266999999076,835.3797482999998,None,838.5530777999998,None,839.0665963000001,None,839.0665963000001,None,n,0.036990200000218465,839.0665963000001,None,,,NC_38,001,2022_Apr_19_1627,ProdSingRedo,3.2.3,59.85303685327461,
,,,,68,0,68,0,,,,,,,,,,,,,,,,,,,,,,,,842.9844465000001,None,,,,,,,,,,,,,,,,,discussion,new_b,white,68,147,96,839.6612727000002,None,839.6612727000002,None,4,1.682525700000042,839.6612727000002,None,841.3731558999998,None,841.8887184999999,None,841.8887184999999,None,r,1.0711732999998276,841.8887184999999,None,,,NC_38,001,2022_Apr_19_1627,ProdSingRedo,3.2.3,59.85303685327461,
,,,,69,0,69,0,,,,,,,,,,,,,,,,,,,,,,,,847.8278424,None,,,,,,,,,,,,,,,,,guest,silent,white,69,81,146,843.5079372,None,843.5079372,None,2,2.403903700000228,843.5079372,None,845.9486505999998,None,846.4773277999998,None,846.4773277999998,None,f,1.3306256000000758,846.4773277999998,None,,,NC_38,001,2022_Apr_19_1627,ProdSingRedo,3.2.3,59.85303685327461,
,,,,70,0,70,0,,,,,,,,,,,,,,,,,,,,,,,,851.2849950999998,None,,,,,,,,,,,,,,,,,tragedy,silent,white,70,62,335,848.3523593,None,848.3523593,None,6,2.111669299999903,848.3523593,None,850.5197742999999,None,851.0432258999999,None,851.0432258999999,None,r,0.21262209999986226,851.0432258999999,None,,,NC_38,001,2022_Apr_19_1627,ProdSingRedo,3.2.3,59.85303685327461,
,,,,71,0,71,0,,,,,,,,,,,,,,,,,,,,,,,,854.3284841,None,,,,,,,,,,,,,,,,,tough,sing,white,71,0,333,851.8106908999998,None,851.8106908999998,None,5,1.4612539999998262,851.8106908999998,None,853.3162974000002,None,853.8324112,None,853.8324112,None,r,0.47145309999996243,853.8324112,None,,,NC_38,001,2022_Apr_19_1627,ProdSingRedo,3.2.3,59.85303685327461,
,,,,72,0,72,0,,,,,,,,,,,,,,,,,,,,,,,,858.1360352000002,None,,,,,,,,,,,,,,,,,produce,new_a,white,72,90,239,854.8608488,None,854.8608488,None,3,1.8428960000001098,854.8608488,None,856.7377157999999,None,857.2558663,None,857.2558663,None,n,0.8480377999999291,857.2558663,None,,,NC_38,001,2022_Apr_19_1627,ProdSingRedo,3.2.3,59.85303685327461,
,,,,73,0,73,0,,,,,,,,,,,,,,,,,,,,,,,,863.7314888000001,None,,,,,,,,,,,,,,,,,music,new_a,white,73,109,196,858.6585273000001,None,858.6585273000001,None,4,3.797234000000117,858.6585273000001,None,862.4886053,None,862.9967536999998,None,862.9967536999998,None,f,0.699106799999754,862.9967536999998,None,,,NC_38,001,2022_Apr_19_1627,ProdSingRedo,3.2.3,59.85303685327461,
,,,,74,0,74,0,,,,,,,,,,,,,,,,,,,,,,,,867.8788476999998,None,,,,,,,,,,,,,,,,,appeal,new_c,white,74,166,9,864.2628101999999,None,864.2628101999999,None,4,2.417055800000071,864.2628101999999,None,866.7340232000001,None,867.2452936999998,None,867.2452936999998,None,f,0.6104771999998775,867.2452936999998,None,,,NC_38,001,2022_Apr_19_1627,ProdSingRedo,3.2.3,59.85303685327461,
,,,,75,0,75,0,,,,,,,,,,,,,,,,,,,,,,,,872.0624059000002,None,,,,,,,,,,,,,,,,,business,sing,white,75,14,38,868.4130522,None,868.4130522,None,5,2.218992099999923,868.4130522,None,870.685958,None,871.2044093,None,871.2044093,None,f,0.827398599999924,871.2044093,None,,,NC_38,001,2022_Apr_19_1627,ProdSingRedo,3.2.3,59.85303685327461,
,,,,76,0,76,0,,,,,,,,,,,,,,,,,,,,,,,,877.1544923000001,None,,,,,,,,,,,,,,,,,corner,sing,white,76,13,69,872.5843581999998,None,872.5843581999998,None,2,1.6474309000000176,872.5843581999998,None,874.2688174,None,874.7839352999999,None,874.7839352999999,None,f,2.3358432999998513,874.7839352999999,None,,,NC_38,001,2022_Apr_19_1627,ProdSingRedo,3.2.3,59.85303685327461,
,,,,77,0,77,0,,,,,,,,,,,,,,,,,,,,,,,,880.6650162999999,None,,,,,,,,,,,,,,,,,recall,new_c,white,77,156,255,877.6781332,None,877.6781332,None,5,2.161684199999854,877.6781332,None,879.8754631000002,None,880.3801530999999,None,880.3801530999999,None,r,0.2515504000002693,880.3801530999999,None,,,NC_38,001,2022_Apr_19_1627,ProdSingRedo,3.2.3,59.85303685327461,
,,,,78,0,78,0,,,,,,,,,,,,,,,,,,,,,,,,887.4874494999999,None,,,,,,,,,,,,,,,,,ground,new_a,white,78,111,142,881.1848126999998,None,881.1848126999998,None,3,3.559168899999804,881.1848126999998,None,884.7870133000001,None,885.2970851,None,885.2970851,None,f,2.1591284999999516,885.2970851,None,,,NC_38,001,2022_Apr_19_1627,ProdSingRedo,3.2.3,59.85303685327461,
,,,,79,0,79,0,,,,,,,,,,,,,,,,,,,,,,,,890.3639029000001,None,,,,,,,,,,,,,,,,,health,silent,white,79,69,149,888.0132613999999,None,888.0132613999999,None,5,1.714611700000205,888.0132613999999,None,889.7576998,None,890.2737674999998,None,890.2737674999998,None,r,0.061977399999705085,890.2737674999998,None,,,NC_38,001,2022_Apr_19_1627,ProdSingRedo,3.2.3,59.85303685327461,
,,,,80,0,80,0,,,,,,,,,,,,,,,,,,,,,,,,894.8191794999998,None,,,,,,,,,,,,,,,,,dozen,new_a,white,80,99,102,890.8962891000001,None,890.8962891000001,None,3,1.7435252999998738,890.8962891000001,None,892.6742156999999,None,893.1891746000001,None,893.1891746000001,None,f,1.6028670999999122,893.1891746000001,None,,,NC_38,001,2022_Apr_19_1627,ProdSingRedo,3.2.3,59.85303685327461,
,,,,81,0,81,0,,,,,,,,,,,,,,,,,,,,,,,,901.7148634,None,,,,,,,,,,,,,,,,,marriage,silent,white,81,74,179,895.3488880999998,None,895.3488880999998,None,5,3.555050299999948,895.3488880999998,None,898.9517952000001,None,899.4639855,None,899.4639855,None,r,2.2318829999999252,899.4639855,None,,,NC_38,001,2022_Apr_19_1627,ProdSingRedo,3.2.3,59.85303685327461,
,,,,82,0,82,0,,,,,,,,,,,,,,,,,,,,,,,,904.7720951000001,None,,,,,,,,,,,,,,,,,atmosphere,aloud,white,82,31,12,902.2477429,None,902.2477429,None,5,1.8001154999997198,902.2477429,None,904.0754931000001,None,904.5898646999999,None,904.5898646999999,None,r,0.14641459999984363,904.5898646999999,None,,,NC_38,001,2022_Apr_19_1627,ProdSingRedo,3.2.3,59.85303685327461,
,,,,83,0,83,0,,,,,,,,,,,,,,,,,,,,,,,,907.4643639999999,None,,,,,,,,,,,,,,,,,exchange,silent,white,83,72,121,905.3025693999998,None,905.3025693999998,None,3,1.497374900000068,905.3025693999998,None,906.8508265999999,None,907.3768236999999,None,907.3768236999999,None,n,0.07093570000006366,907.3768236999999,None,,,NC_38,001,2022_Apr_19_1627,ProdSingRedo,3.2.3,59.85303685327461,
,,,,84,0,84,0,,,,,,,,,,,,,,,,,,,,,,,,911.0649127000001,None,,,,,,,,,,,,,,,,,background,aloud,white,84,54,16,907.9940754999998,None,907.9940754999998,None,5,2.413901000000351,907.9940754999998,None,910.4645775999998,None,910.9715507000001,None,910.9715507000001,None,r,0.06028650000007474,910.9715507000001,None,,,NC_38,001,2022_Apr_19_1627,ProdSingRedo,3.2.3,59.85303685327461,
,,,,85,0,85,0,,,,,,,,,,,,,,,,,,,,,,,,915.975003,None,,,,,,,,,,,,,,,,,store,new_b,white,85,129,305,911.5923085,None,911.5923085,None,4,2.263370500000292,911.5923085,None,913.8896894,None,914.4037536999999,None,914.4037536999999,None,r,1.5402242999998634,914.4037536999999,None,,,NC_38,001,2022_Apr_19_1627,ProdSingRedo,3.2.3,59.85303685327461,
,,,,86,0,86,0,,,,,,,,,,,,,,,,,,,,,,,,918.5993374999998,None,,,,,,,,,,,,,,,,,series,aloud,white,86,53,279,916.4947007000001,None,916.4947007000001,None,3,1.3371901999998954,916.4947007000001,None,917.8569284999999,None,918.3713776,None,918.3713776,None,n,0.20428560000027574,918.3713776,None,,,NC_38,001,2022_Apr_19_1627,ProdSingRedo,3.2.3,59.85303685327461,
,,,,87,0,87,0,,,,,,,,,,,,,,,,,,,,,,,,925.2390646999997,None,,,,,,,,,,,,,,,,,stand,new_a,white,87,112,302,919.1214638000001,None,919.1214638000001,None,2,3.71820149999985,919.1214638000001,None,922.8861132000002,None,923.4109431000002,None,923.4109431000002,None,f,1.7889820999998847,923.4109431000002,None,,,NC_38,001,2022_Apr_19_1627,ProdSingRedo,3.2.3,59.85303685327461,
,,,,88,0,88,0,,,,,,,,,,,,,,,,,,,,,,,,929.6012144000001,None,,,,,,,,,,,,,,,,,congress,silent,white,88,89,67,925.765468,None,925.765468,None,5,2.6902329999998074,925.765468,None,928.4977177000001,None,929.0086415999999,None,929.0086415999999,None,f,0.5672360999997181,929.0086415999999,None,,,NC_38,001,2022_Apr_19_1627,ProdSingRedo,3.2.3,59.85303685327461,
,,,,89,0,89,0,,,,,,,,,,,,,,,,,,,,,,,,932.3678522999999,None,,,,,,,,,,,,,,,,,space,sing,white,89,10,297,930.1321708999999,None,930.1321708999999,None,5,1.5237906000002113,930.1321708999999,None,931.7094779999998,None,932.2232155000002,None,932.2232155000002,None,f,0.12060590000010052,932.2232155000002,None,,,NC_38,001,2022_Apr_19_1627,ProdSingRedo,3.2.3,59.85303685327461,
,,,,90,0,90,0,,,,,,,,,,,,,,,,,,,,,,,,935.2540752999998,None,,,,,,,,,,,,,,,,,signal,new_b,white,90,143,287,932.9025117000001,None,932.9025117000001,None,3,1.4175710999998046,932.9025117000001,None,934.3739451000001,None,934.8922484,None,934.8922484,None,f,0.33152479999989737,934.8922484,None,,,NC_38,001,2022_Apr_19_1627,ProdSingRedo,3.2.3,59.85303685327461,
,,,,91,0,91,0,,,,,,,,,,,,,,,,,,,,,,,,939.75461,None,,,,,,,,,,,,,,,,,pretty,new_c,white,91,162,233,935.7818902999998,None,935.7818902999998,None,4,2.466049699999985,935.7818902999998,None,938.2810743999999,None,938.7922398000001,None,938.7922398000001,None,f,0.9276066999996146,938.7922398000001,None,,,NC_38,001,2022_Apr_19_1627,ProdSingRedo,3.2.3,59.85303685327461,
,,,,92,0,92,0,,,,,,,,,,,,,,,,,,,,,,,,945.5841869999999,None,,,,,,,,,,,,,,,,,goose,new_c,white,92,155,138,940.2733048,None,940.2733048,None,3,2.734444799999892,940.2733048,None,943.0453320000001,None,943.5585783000001,None,943.5585783000001,None,n,1.9931964000002154,943.5585783000001,None,,,NC_38,001,2022_Apr_19_1627,ProdSingRedo,3.2.3,59.85303685327461,
,,,,93,0,93,0,,,,,,,,,,,,,,,,,,,,,,,,952.3744032999998,None,,,,,,,,,,,,,,,,,oxygen,silent,white,93,65,209,946.1237583000002,None,946.1237583000002,None,4,4.028025900000102,946.1237583000002,None,950.2063180999999,None,950.7007794000001,None,950.7007794000001,None,n,1.6351818000002822,950.7007794000001,None,,,NC_38,001,2022_Apr_19_1627,ProdSingRedo,3.2.3,59.85303685327461,
,,,,94,0,94,0,,,,,,,,,,,,,,,,,,,,,,,,959.5904452999998,None,,,,,,,,,,,,,,,,,damage,new_a,white,94,98,83,952.9022476999999,None,952.9022476999999,None,5,3.617677400000048,952.9022476999999,None,956.5750380999998,None,957.0975127000002,None,957.0975127000002,None,f,2.4383867999999893,957.0975127000002,None,,,NC_38,001,2022_Apr_19_1627,ProdSingRedo,3.2.3,59.85303685327461,
,,,,95,0,95,0,,,,,,,,,,,,,,,,,,,,,,,,962.2769821000002,None,,,,,,,,,,,,,,,,,platform,new_c,white,95,178,224,960.1179134999998,None,960.1179134999998,None,3,1.4258604999999989,960.1179134999998,None,961.5804988999998,None,962.0970115,None,962.0970115,None,f,0.151261599999998,962.0970115,None,,,NC_38,001,2022_Apr_19_1627,ProdSingRedo,3.2.3,59.85303685327461,
,,,,96,0,96,0,,,,,,,,,,,,,,,,,,,,,,,,966.2517185000002,None,,,,,,,,,,,,,,,,,figure,new_a,white,96,94,128,962.8031685000001,None,962.8031685000001,None,5,1.8450596000002406,962.8031685000001,None,964.6924647999999,None,965.2135717000001,None,965.2135717000001,None,f,1.018358000000262,965.2135717000001,None,,,NC_38,001,2022_Apr_19_1627,ProdSingRedo,3.2.3,59.85303685327461,
,,,,97,0,97,0,,,,,,,,,,,,,,,,,,,,,,,,969.0519236999999,None,,,,,,,,,,,,,,,,,angle,new_c,white,97,167,7,966.7629754,None,966.7629754,None,4,1.588819600000079,966.7629754,None,968.3872149999997,None,968.8967312999998,None,968.8967312999998,None,f,0.13517739999997502,968.8967312999998,None,,,NC_38,001,2022_Apr_19_1627,ProdSingRedo,3.2.3,59.85303685327461,
,,,,98,0,98,0,,,,,,,,,,,,,,,,,,,,,,,,972.3931628,None,,,,,,,,,,,,,,,,,theme,new_a,white,98,110,326,969.5637087,None,969.5637087,None,2,1.916228200000205,969.5637087,None,971.5191737999999,None,972.0404918999998,None,972.0404918999998,None,n,0.31941050000023097,972.0404918999998,None,,,NC_38,001,2022_Apr_19_1627,ProdSingRedo,3.2.3,59.85303685327461,
,,,,99,0,99,0,,,,,,,,,,,,,,,,,,,,,,,,975.5930060999999,None,,,,,,,,,,,,,,,,,rural,new_c,white,99,161,269,972.9122309999998,None,972.9122309999998,None,5,2.03956479999988,972.9122309999998,None,974.9916920999999,None,975.4956950000001,None,975.4956950000001,None,f,0.07221879999997327,975.4956950000001,None,,,NC_38,001,2022_Apr_19_1627,ProdSingRedo,3.2.3,59.85303685327461,
,,,,100,0,100,0,,,,,,,,,,,,,,,,,,,,,,,,980.5030443999999,None,,,,,,,,,,,,,,,,,little,sing,white,100,4,174,976.1083079999999,None,976.1083079999999,None,2,3.667566199999783,976.1083079999999,None,979.8225191000001,None,980.3419727,None,980.3419727,None,n,0.13801860000012312,980.3419727,None,,,NC_38,001,2022_Apr_19_1627,ProdSingRedo,3.2.3,59.85303685327461,
,,,,101,0,101,0,,,,,,,,,,,,,,,,,,,,,,,,985.1033896999998,None,,,,,,,,,,,,,,,,,leader,new_a,white,101,101,168,981.0388926,None,981.0388926,None,4,2.7370326000000205,981.0388926,None,983.8217113999999,None,984.3467780999999,None,984.3467780999999,None,f,0.7249557000000095,984.3467780999999,None,,,NC_38,001,2022_Apr_19_1627,ProdSingRedo,3.2.3,59.85303685327461,
,,,,102,0,102,0,,,,,,,,,,,,,,,,,,,,,,,,989.3106597000001,None,,,,,,,,,,,,,,,,,minor,silent,white,102,64,191,985.6301488999998,None,985.6301488999998,None,2,2.849648100000195,985.6301488999998,None,988.5122941999998,None,989.0253419000001,None,989.0253419000001,None,n,0.24654210000016974,989.0253419000001,None,,,NC_38,001,2022_Apr_19_1627,ProdSingRedo,3.2.3,59.85303685327461,
,,,,103,0,103,0,,,,,,,,,,,,,,,,,,,,,,,,992.5246315999998,None,,,,,,,,,,,,,,,,,south,new_c,white,103,175,296,989.8391599000001,None,989.8391599000001,None,1,1.9451229999999669,989.8391599000001,None,991.8266536000001,None,992.3461969,None,992.3461969,None,n,0.15776629999982106,992.3461969,None,,,NC_38,001,2022_Apr_19_1627,ProdSingRedo,3.2.3,59.85303685327461,
,,,,104,0,104,0,,,,,,,,,,,,,,,,,,,,,,,,995.3702315,None,,,,,,,,,,,,,,,,,sound,silent,white,104,67,295,993.0524602999999,None,993.0524602999999,None,1,1.4993969000001925,993.0524602999999,None,994.5782496000002,None,995.0874555999999,None,995.0874555999999,None,n,0.26442320000023756,995.0874555999999,None,,,NC_38,001,2022_Apr_19_1627,ProdSingRedo,3.2.3,59.85303685327461,
,,,,105,0,105,0,,,,,,,,,,,,,,,,,,,,,,,,998.4918862999998,None,,,,,,,,,,,,,,,,,error,new_b,white,105,136,117,995.8864644999999,None,995.8864644999999,None,3,1.8732412999997905,995.8864644999999,None,997.8017414000001,None,998.3019777999998,None,998.3019777999998,None,f,0.15397429999984524,998.3019777999998,None,,,NC_38,001,2022_Apr_19_1627,ProdSingRedo,3.2.3,59.85303685327461,
,,,,106,0,106,0,,,,,,,,,,,,,,,,,,,,,,,,1001.2157886,None,,,,,,,,,,,,,,,,,conference,sing,white,106,12,66,999.0164048000001,None,999.0164048000001,None,4,1.5196043999999347,999.0164048000001,None,1000.5635329000002,None,1001.0828704,None,1001.0828704,None,f,0.10154459999967003,1001.0828704,None,,,NC_38,001,2022_Apr_19_1627,ProdSingRedo,3.2.3,59.85303685327461,
,,,,107,0,107,0,,,,,,,,,,,,,,,,,,,,,,,,1007.0051269999999,None,,,,,,,,,,,,,,,,,force,silent,white,107,84,131,1001.7374405999999,None,1001.7374405999999,None,2,4.390342299999702,1001.7374405999999,None,1006.1655688999999,None,1006.6782011999999,None,1006.6782011999999,None,n,0.3058000999999422,1006.6782011999999,None,,,NC_38,001,2022_Apr_19_1627,ProdSingRedo,3.2.3,59.85303685327461,
,,,,108,0,108,0,,,,,,,,,,,,,,,,,,,,,,,,1013.9223748999998,None,,,,,,,,,,,,,,,,,direction,new_b,white,108,144,94,1007.5336521999998,None,1007.5336521999998,None,3,5.458106399999906,1007.5336521999998,None,1013.0298844999998,None,1013.5384367000001,None,1013.5384367000001,None,f,0.36538100000007034,1013.5384367000001,None,,,NC_38,001,2022_Apr_19_1627,ProdSingRedo,3.2.3,59.85303685327461,
,,,,109,0,109,0,,,,,,,,,,,,,,,,,,,,,,,,1017.8217721999999,None,,,,,,,,,,,,,,,,,object,sing,white,109,28,204,1014.4575626999999,None,1014.4575626999999,None,2,2.4540749000002506,1014.4575626999999,None,1016.9542842000001,None,1017.4673305000001,None,1017.4673305000001,None,n,0.3244270999998662,1017.4673305000001,None,,,NC_38,001,2022_Apr_19_1627,ProdSingRedo,3.2.3,59.85303685327461,
,,,,110,0,110,0,,,,,,,,,,,,,,,,,,,,,,,,1021.7890570999998,None,,,,,,,,,,,,,,,,,income,aloud,white,110,35,159,1018.3447155999997,None,1018.3447155999997,None,5,2.3830480000001444,1018.3447155999997,None,1020.7735299999999,None,1021.2942165999998,None,1021.2942165999998,None,r,0.4737950000003366,1021.2942165999998,None,,,NC_38,001,2022_Apr_19_1627,ProdSingRedo,3.2.3,59.85303685327461,
,,,,111,0,111,0,,,,,,,,,,,,,,,,,,,,,,,,1025.0399619,None,,,,,,,,,,,,,,,,,finance,new_c,white,111,170,129,1022.3224961999999,None,1022.3224961999999,None,4,1.8772837000001346,1022.3224961999999,None,1024.2396244000001,None,1024.7409047,None,1024.7409047,None,r,0.2750003999999535,1024.7409047,None,,,NC_38,001,2022_Apr_19_1627,ProdSingRedo,3.2.3,59.85303685327461,
,,,,112,0,112,0,,,,,,,,,,,,,,,,,,,,,,,,1029.8394356999997,None,,,,,,,,,,,,,,,,,department,new_b,white,112,134,90,1025.5719559,None,1025.5719559,None,2,3.427824299999884,1025.5719559,None,1029.0362104,None,1029.5516567999998,None,1029.5516567999998,None,n,0.2644804000001386,1029.5516567999998,None,,,NC_38,001,2022_Apr_19_1627,ProdSingRedo,3.2.3,59.85303685327461,
,,,,113,0,113,0,,,,,,,,,,,,,,,,,,,,,,,,1033.8141337000002,None,,,,,,,,,,,,,,,,,route,new_a,white,113,93,267,1030.3715902999998,None,1030.3715902999998,None,3,2.660167300000012,1030.3715902999998,None,1033.0668385,None,1033.5732578000002,None,1033.5732578000002,None,n,0.21075610000025335,1033.5732578000002,None,,,NC_38,001,2022_Apr_19_1627,ProdSingRedo,3.2.3,59.85303685327461,
,,,,114,0,114,0,,,,,,,,,,,,,,,,,,,,,,,,1040.5311428999998,None,,,,,,,,,,,,,,,,,concern,new_c,white,114,169,65,1034.3351969999999,None,1034.3351969999999,None,3,5.42461830000002,1034.3351969999999,None,1039.8120410000001,None,1040.3284651,None,1040.3284651,None,f,0.1759292000001551,1040.3284651,None,,,NC_38,001,2022_Apr_19_1627,ProdSingRedo,3.2.3,59.85303685327461,
,,,,115,0,115,0,,,,,,,,,,,,,,,,,,,,,,,,1042.9058862000002,None,,,,,,,,,,,,,,,,,session,new_a,white,115,115,281,1041.0595109,None,1041.0595109,None,5,1.1883315000000039,1041.0595109,None,1042.2877659,None,1042.7928668,None,1042.7928668,None,f,0.08689800000001924,1042.7928668,None,,,NC_38,001,2022_Apr_19_1627,ProdSingRedo,3.2.3,59.85303685327461,
,,,,116,0,116,0,,,,,,,,,,,,,,,,,,,,,,,,1048.3915837,None,,,,,,,,,,,,,,,,,threat,aloud,white,116,39,329,1043.4165152,None,1043.4165152,None,5,3.311529100000371,1043.4165152,None,1046.7730517,None,1047.2844952,None,1047.2844952,None,r,1.0832625000002736,1047.2844952,None,,,NC_38,001,2022_Apr_19_1627,ProdSingRedo,3.2.3,59.85303685327461,
,,,,117,0,117,0,,,,,,,,,,,,,,,,,,,,,,,,1053.5918625,None,,,,,,,,,,,,,,,,,close,aloud,white,117,59,53,1048.9174945,None,1048.9174945,None,5,2.578408599999875,1048.9174945,None,1051.5419621,None,1052.0560689999998,None,1052.0560689999998,None,f,1.5117307000000437,1052.0560689999998,None,,,NC_38,001,2022_Apr_19_1627,ProdSingRedo,3.2.3,59.85303685327461,
,,,,118,0,118,0,,,,,,,,,,,,,,,,,,,,,,,,1057.7084344,None,,,,,,,,,,,,,,,,,crisis,aloud,white,118,50,79,1054.1142931999998,None,1054.1142931999998,None,5,2.1743445000001884,1054.1142931999998,None,1056.3285144000001,None,1056.8398161999999,None,1056.8398161999999,None,r,0.8325447000001986,1056.8398161999999,None,,,NC_38,001,2022_Apr_19_1627,ProdSingRedo,3.2.3,59.85303685327461,
,,,,119,0,119,0,,,,,,,,,,,,,,,,,,,,,,,,1060.9258341999998,None,,,,,,,,,,,,,,,,,turkey,new_c,white,119,160,342,1058.233956,None,1058.233956,None,1,1.4459661999999298,1058.233956,None,1059.7356747999997,None,1060.2565872,None,1060.2565872,None,n,0.6473204999997506,1060.2565872,None,,,NC_38,001,2022_Apr_19_1627,ProdSingRedo,3.2.3,59.85303685327461,
,,,,120,0,120,0,,,,,,,,,,,,,,,,,,,,,,,,1067.8597831000002,None,,,,,,,,,,,,,,,,,pattern,sing,white,120,16,214,1061.4406020000001,None,1061.4406020000001,None,5,4.679302199999711,1061.4406020000001,None,1066.1668871000002,None,1066.6861497,None,1066.6861497,None,f,1.1455581000000166,1066.6861497,None,,,NC_38,001,2022_Apr_19_1627,ProdSingRedo,3.2.3,59.85303685327461,
,,,,121,0,121,0,,,,,,,,,,,,,,,,,,,,,,,,1072.9248739999998,None,,,,,,,,,,,,,,,,,sleep,silent,white,121,60,290,1068.3858002000002,None,1068.3858002000002,None,6,3.8058287000003475,1068.3858002000002,None,1072.2088269,None,1072.7175824,None,1072.7175824,None,r,0.18631469999991168,1072.7175824,None,,,NC_38,001,2022_Apr_19_1627,ProdSingRedo,3.2.3,59.85303685327461,
,,,,122,0,122,0,,,,,,,,,,,,,,,,,,,,,,,,1076.1937795999997,None,,,,,,,,,,,,,,,,,trial,aloud,white,122,58,341,1073.4420303000002,None,1073.4420303000002,None,4,1.9817826000003151,1073.4420303000002,None,1075.4536319,None,1075.958447,None,1075.958447,None,f,0.2013265999999021,1075.958447,None,,,NC_38,001,2022_Apr_19_1627,ProdSingRedo,3.2.3,59.85303685327461,
,,,,123,0,123,0,,,,,,,,,,,,,,,,,,,,,,,,1080.4082254999998,None,,,,,,,,,,,,,,,,,literature,new_c,white,123,164,173,1076.728545,None,1076.728545,None,5,2.1591824000001907,1076.728545,None,1078.9227938999998,None,1079.4416747999999,None,1079.4416747999999,None,r,0.9419746000003215,1079.4416747999999,None,,,NC_38,001,2022_Apr_19_1627,ProdSingRedo,3.2.3,59.85303685327461,
,,,,124,0,124,0,,,,,,,,,,,,,,,,,,,,,,,,1084.3102337999999,None,,,,,,,,,,,,,,,,,crowd,silent,white,124,73,81,1080.9253063,None,1080.9253063,None,4,2.474557999999888,1080.9253063,None,1083.4402881,None,1083.9436762999999,None,1083.9436762999999,None,r,0.336029999999937,1083.9436762999999,None,,,NC_38,001,2022_Apr_19_1627,ProdSingRedo,3.2.3,59.85303685327461,
,,,,125,0,125,0,,,,,,,,,,,,,,,,,,,,,,,,1088.7610159,None,,,,,,,,,,,,,,,,,command,sing,white,125,25,60,1084.8431538999998,None,1084.8431538999998,None,2,2.6927442000001065,1084.8431538999998,None,1087.5709256999999,None,1088.0766388000002,None,1088.0766388000002,None,n,0.6592129999999088,1088.0766388000002,None,,,NC_38,001,2022_Apr_19_1627,ProdSingRedo,3.2.3,59.85303685327461,
,,,,126,0,126,0,,,,,,,,,,,,,,,,,,,,,,,,1092.2646802999998,None,,,,,,,,,,,,,,,,,fight,new_a,white,126,91,127,1089.2931568999998,None,1089.2931568999998,None,3,1.6827358000000459,1089.2931568999998,None,1091.0154428,None,1091.5376095000001,None,1091.5376095000001,None,f,0.7026000000000749,1091.5376095000001,None,,,NC_38,001,2022_Apr_19_1627,ProdSingRedo,3.2.3,59.85303685327461,
,,,,127,0,127,0,,,,,,,,,,,,,,,,,,,,,,,,1095.9267269000002,None,,,,,,,,,,,,,,,,,general,new_a,white,127,105,135,1092.7936756999998,None,1092.7936756999998,None,4,2.2782357999999476,1092.7936756999998,None,1095.1174142,None,1095.6342206,None,1095.6342206,None,f,0.26158600000007937,1095.6342206,None,,,NC_38,001,2022_Apr_19_1627,ProdSingRedo,3.2.3,59.85303685327461,
,,,,128,0,128,0,,,,,,,,,,,,,,,,,,,,,,,,1101.3753262999999,None,,,,,,,,,,,,,,,,,pressure,new_c,white,128,150,232,1096.4509526000002,None,1096.4509526000002,None,3,3.205097399999886,1096.4509526000002,None,1099.6848510999998,None,1100.1944184,None,1100.1944184,None,n,1.1571833000002698,1100.1944184,None,,,NC_38,001,2022_Apr_19_1627,ProdSingRedo,3.2.3,59.85303685327461,
,,,,129,0,129,0,,,,,,,,,,,,,,,,,,,,,,,,1104.4282938000001,None,,,,,,,,,,,,,,,,,notice,sing,white,129,24,201,1101.8790238000001,None,1101.8790238000001,None,4,1.6646813999996084,1101.8790238000001,None,1103.568284,None,1104.0772567999998,None,1104.0772567999998,None,f,0.322447099999863,1104.0772567999998,None,,,NC_38,001,2022_Apr_19_1627,ProdSingRedo,3.2.3,59.85303685327461,
,,,,130,0,130,0,,,,,,,,,,,,,,,,,,,,,,,,1112.969251,None,,,,,,,,,,,,,,,,,surprise,new_b,white,130,122,317,1104.9600458999998,None,1104.9600458999998,None,5,4.999735899999905,1104.9600458999998,None,1109.9885217,None,1110.4965858,None,1110.4965858,None,r,2.4393105999997715,1110.4965858,None,,,NC_38,001,2022_Apr_19_1627,ProdSingRedo,3.2.3,59.85303685327461,
,,,,131,0,131,0,,,,,,,,,,,,,,,,,,,,,,,,1115.6952345999998,None,,,,,,,,,,,,,,,,,rough,aloud,white,131,48,266,1113.4940757,None,1113.4940757,None,2,1.3055782999999792,1113.4940757,None,1114.8429244999998,None,1115.3555654000002,None,1115.3555654000002,None,n,0.3082462000002124,1115.3555654000002,None,,,NC_38,001,2022_Apr_19_1627,ProdSingRedo,3.2.3,59.85303685327461,
,,,,132,0,132,0,,,,,,,,,,,,,,,,,,,,,,,,1120.6621848,None,,,,,,,,,,,,,,,,,rapid,new_b,white,132,120,252,1116.2093958,None,1116.2093958,None,3,1.294825899999978,1116.2093958,None,1117.5520652999999,None,1118.0742179,None,1118.0742179,None,n,2.5654782000001433,1118.0742179,None,,,NC_38,001,2022_Apr_19_1627,ProdSingRedo,3.2.3,59.85303685327461,
,,,,133,0,133,0,,,,,,,,,,,,,,,,,,,,,,,,1126.1133885,None,,,,,,,,,,,,,,,,,estate,silent,white,133,76,119,1121.1723858,None,1121.1723858,None,3,3.275326600000426,1121.1723858,None,1124.4890319,None,1125.0075096,None,1125.0075096,None,f,1.0882305000000088,1125.0075096,None,,,NC_38,001,2022_Apr_19_1627,ProdSingRedo,3.2.3,59.85303685327461,
,,,,134,0,134,0,,,,,,,,,,,,,,,,,,,,,,,,1131.1613191000001,None,,,,,,,,,,,,,,,,,vision,aloud,white,134,47,347,1126.6340596999999,None,1126.6340596999999,None,3,1.957952700000078,1126.6340596999999,None,1128.6244812,None,1129.1396836,None,1129.1396836,None,f,1.995931300000393,1129.1396836,None,,,NC_38,001,2022_Apr_19_1627,ProdSingRedo,3.2.3,59.85303685327461,
,,,,135,0,135,0,,,,,,,,,,,,,,,,,,,,,,,,1133.9707958,None,,,,,,,,,,,,,,,,,household,new_c,white,135,151,154,1131.6644047,None,1131.6644047,None,1,1.4875126000001728,1131.6644047,None,1133.2047493999999,None,1133.7244151,None,1133.7244151,None,n,0.2195144000002074,1133.7244151,None,,,NC_38,001,2022_Apr_19_1627,ProdSingRedo,3.2.3,59.85303685327461,
,,,,136,0,136,0,,,,,,,,,,,,,,,,,,,,,,,,1136.6298536,None,,,,,,,,,,,,,,,,,commercial,new_c,white,136,171,61,1134.4993519,None,1134.4993519,None,1,1.2927829999998721,1134.4993519,None,1135.8250236999997,None,1136.3287449999998,None,1136.3287449999998,None,n,0.27893829999993613,1136.3287449999998,None,,,NC_38,001,2022_Apr_19_1627,ProdSingRedo,3.2.3,59.85303685327461,
,,,,137,0,137,0,,,,,,,,,,,,,,,,,,,,,,,,1139.8885864,None,,,,,,,,,,,,,,,,,throw,sing,white,137,15,330,1137.1598184999998,None,1137.1598184999998,None,4,1.7439668000001802,1137.1598184999998,None,1138.9517504,None,1139.4783892,None,1139.4783892,None,f,0.3856544999998732,1139.4783892,None,,,NC_38,001,2022_Apr_19_1627,ProdSingRedo,3.2.3,59.85303685327461,
,,,,138,0,138,0,,,,,,,,,,,,,,,,,,,,,,,,1144.4547447999998,None,,,,,,,,,,,,,,,,,generation,new_c,white,138,173,136,1140.4048889,None,1140.4048889,None,3,2.434930699999768,1140.4048889,None,1142.8769054999998,None,1143.3857153,None,1143.3857153,None,f,1.0380584999998064,1143.3857153,None,,,NC_38,001,2022_Apr_19_1627,ProdSingRedo,3.2.3,59.85303685327461,
,,,,139,0,139,0,,,,,,,,,,,,,,,,,,,,,,,,1149.0816857999998,None,,,,,,,,,,,,,,,,,hunger,new_a,white,139,118,155,1144.9848775,None,1144.9848775,None,1,3.167001999999684,1144.9848775,None,1148.1950278,None,1148.696594,None,1148.696594,None,n,0.36714260000007926,1148.696594,None,,,NC_38,001,2022_Apr_19_1627,ProdSingRedo,3.2.3,59.85303685327461,
,,,,140,0,140,0,,,,,,,,,,,,,,,,,,,,,,,,1152.86458,None,,,,,,,,,,,,,,,,,burden,new_b,white,140,140,36,1149.6070249,None,1149.6070249,None,3,1.9207865999997011,1149.6070249,None,1151.5605756,None,1152.0627679999998,None,1152.0627679999998,None,f,0.769126800000322,1152.0627679999998,None,,,NC_38,001,2022_Apr_19_1627,ProdSingRedo,3.2.3,59.85303685327461,
,,,,141,0,141,0,,,,,,,,,,,,,,,,,,,,,,,,1158.2228736000002,None,,,,,,,,,,,,,,,,,silence,new_c,white,141,177,288,1153.3938091999999,None,1153.3938091999999,None,5,1.9179414999998698,1153.3938091999999,None,1155.3412081000001,None,1155.854604,None,1155.854604,None,f,2.3292649999998503,1155.854604,None,,,NC_38,001,2022_Apr_19_1627,ProdSingRedo,3.2.3,59.85303685327461,
,,,,142,0,142,0,,,,,,,,,,,,,,,,,,,,,,,,1162.1720175,None,,,,,,,,,,,,,,,,,safety,sing,white,142,7,270,1158.7519174999998,None,1158.7519174999998,None,3,2.0317691000000195,1158.7519174999998,None,1160.8309408999999,None,1161.329122,None,1161.329122,None,f,0.8068085999998402,1161.329122,None,,,NC_38,001,2022_Apr_19_1627,ProdSingRedo,3.2.3,59.85303685327461,
,,,,143,0,143,0,,,,,,,,,,,,,,,,,,,,,,,,1165.6985839,None,,,,,,,,,,,,,,,,,engineer,new_c,white,143,168,114,1162.7029638,None,1162.7029638,None,5,1.5047320999997282,1162.7029638,None,1164.2523815,None,1164.7594024999999,None,1164.7594024999999,None,f,0.9203962999999931,1164.7594024999999,None,,,NC_38,001,2022_Apr_19_1627,ProdSingRedo,3.2.3,59.85303685327461,
,,,,144,0,144,0,,,,,,,,,,,,,,,,,,,,,,,,1169.5484867,None,,,,,,,,,,,,,,,,,device,new_b,white,144,123,93,1166.2319567999998,None,1166.2319567999998,None,3,1.9599229999998897,1166.2319567999998,None,1168.2370548999997,None,1168.7596007000002,None,1168.7596007000002,None,f,0.7600569999999607,1168.7596007000002,None,,,NC_38,001,2022_Apr_19_1627,ProdSingRedo,3.2.3,59.85303685327461,
,,,,145,0,145,0,,,,,,,,,,,,,,,,,,,,,,,,1172.5821243999999,None,,,,,,,,,,,,,,,,,murder,new_c,white,145,157,195,1170.0699470999998,None,1170.0699470999998,None,1,1.4337275999996564,1170.0699470999998,None,1171.5459752000002,None,1172.0517552000001,None,1172.0517552000001,None,n,0.5079355000002579,1172.0517552000001,None,,,NC_38,001,2022_Apr_19_1627,ProdSingRedo,3.2.3,59.85303685327461,
,,,,146,0,146,0,,,,,,,,,,,,,,,,,,,,,,,,1175.6162051000001,None,,,,,,,,,,,,,,,,,watch,aloud,white,146,40,351,1173.1021802,None,1173.1021802,None,3,1.5696047999999792,1173.1021802,None,1174.7158642999998,None,1175.2417569999998,None,1175.2417569999998,None,f,0.35005379999984143,1175.2417569999998,None,,,NC_38,001,2022_Apr_19_1627,ProdSingRedo,3.2.3,59.85303685327461,
,,,,147,0,147,0,,,,,,,,,,,,,,,,,,,,,,,,1178.4568909999998,None,,,,,,,,,,,,,,,,,comedy,aloud,white,147,42,58,1176.1330466999998,None,1176.1330466999998,None,1,1.346990200000164,1176.1330466999998,None,1177.5230628999998,None,1178.0395760000001,None,1178.0395760000001,None,n,0.38429949999999735,1178.0395760000001,None,,,NC_38,001,2022_Apr_19_1627,ProdSingRedo,3.2.3,59.85303685327461,
,,,,148,0,148,0,,,,,,,,,,,,,,,,,,,,,,,,1181.4668023,None,,,,,,,,,,,,,,,,,volume,aloud,white,148,57,349,1178.9746939000001,None,1178.9746939000001,None,1,1.561200000000099,1178.9746939000001,None,1180.5891068,None,1181.111092,None,1181.111092,None,n,0.3366361999997025,1181.111092,None,,,NC_38,001,2022_Apr_19_1627,ProdSingRedo,3.2.3,59.85303685327461,
,,,,149,0,149,0,,,,,,,,,,,,,,,,,,,,,,,,1185.3567348000001,None,,,,,,,,,,,,,,,,,order,new_b,white,149,126,207,1181.9832523,None,1181.9832523,None,4,2.6323139000000992,1181.9832523,None,1184.6435166,None,1185.1483864000002,None,1185.1483864000002,None,f,0.17204780000020037,1185.1483864000002,None,,,NC_38,001,2022_Apr_19_1627,ProdSingRedo,3.2.3,59.85303685327461,
,,,,150,0,150,0,,,,,,,,,,,,,,,,,,,,,,,,1188.7915188000002,None,,,,,,,,,,,,,,,,,election,aloud,white,150,49,109,1185.8802320999998,None,1185.8802320999998,None,5,1.8954534999998032,1185.8802320999998,None,1187.8176595999998,None,1188.3463183999997,None,1188.3463183999997,None,r,0.4055892000001222,1188.3463183999997,None,,,NC_38,001,2022_Apr_19_1627,ProdSingRedo,3.2.3,59.85303685327461,
,,,,151,0,151,0,,,,,,,,,,,,,,,,,,,,,,,,1193.1962964,None,,,,,,,,,,,,,,,,,people,aloud,white,151,44,216,1189.3138193999998,None,1189.3138193999998,None,5,2.942109199999777,1189.3138193999998,None,1192.3035177000002,None,1192.8174362,None,1192.8174362,None,r,0.3427771000001485,1192.8174362,None,,,NC_38,001,2022_Apr_19_1627,ProdSingRedo,3.2.3,59.85303685327461,
,,,,152,0,152,0,,,,,,,,,,,,,,,,,,,,,,,,1198.8418843,None,,,,,,,,,,,,,,,,,expansion,new_c,white,152,174,123,1193.7213084999999,None,1193.7213084999999,None,2,3.5264563999999154,1193.7213084999999,None,1197.2854670000002,None,1197.8014385000001,None,1197.8014385000001,None,f,1.014682200000152,1197.8014385000001,None,,,NC_38,001,2022_Apr_19_1627,ProdSingRedo,3.2.3,59.85303685327461,
,,,,153,0,153,0,,,,,,,,,,,,,,,,,,,,,,,,1204.0009839999998,None,,,,,,,,,,,,,,,,,quantity,new_a,white,153,113,245,1199.369006,None,1199.369006,None,3,3.038654100000258,1199.369006,None,1202.4403856999998,None,1202.955896,None,1202.955896,None,n,1.0277774999999565,1202.955896,None,,,NC_38,001,2022_Apr_19_1627,ProdSingRedo,3.2.3,59.85303685327461,
,,,,154,0,154,0,,,,,,,,,,,,,,,,,,,,,,,,1206.9537289,None,,,,,,,,,,,,,,,,,council,new_b,white,154,142,71,1204.5342851999999,None,1204.5342851999999,None,2,1.5613461999996616,1204.5342851999999,None,1206.1331317,None,1206.6507055000002,None,1206.6507055000002,None,n,0.26904819999981555,1206.6507055000002,None,,,NC_38,001,2022_Apr_19_1627,ProdSingRedo,3.2.3,59.85303685327461,
,,,,155,0,155,0,,,,,,,,,,,,,,,,,,,,,,,,1209.7013336999999,None,,,,,,,,,,,,,,,,,waste,silent,white,155,70,350,1207.4720538000001,None,1207.4720538000001,None,1,1.2476348000000144,1207.4720538000001,None,1208.7720745000001,None,1209.2853383000001,None,1209.2853383000001,None,n,0.3951460000002953,1209.2853383000001,None,,,NC_38,001,2022_Apr_19_1627,ProdSingRedo,3.2.3,59.85303685327461,
,,,,156,0,156,0,,,,,,,,,,,,,,,,,,,,,,,,1212.6506722999998,None,,,,,,,,,,,,,,,,,curve,silent,white,156,83,82,1210.220784,None,1210.220784,None,5,1.595059499999934,1210.220784,None,1211.8456852,None,1212.3496286999998,None,1212.3496286999998,None,r,0.27397510000037073,1212.3496286999998,None,,,NC_38,001,2022_Apr_19_1627,ProdSingRedo,3.2.3,59.85303685327461,
,,,,157,0,157,0,,,,,,,,,,,,,,,,,,,,,,,,1221.2204619,None,,,,,,,,,,,,,,,,,region,aloud,white,157,45,256,1213.1664643999998,None,1213.1664643999998,None,3,6.537393300000076,1213.1664643999998,None,1219.7585052999998,None,1220.2702175999998,None,1220.2702175999998,None,f,0.9213325999999142,1220.2702175999998,None,,,NC_38,001,2022_Apr_19_1627,ProdSingRedo,3.2.3,59.85303685327461,
,,,,158,0,158,0,,,,,,,,,,,,,,,,,,,,,,,,1225.8617754000002,None,,,,,,,,,,,,,,,,,title,silent,white,158,61,331,1221.7346056000001,None,1221.7346056000001,None,2,2.433092900000247,1221.7346056000001,None,1224.1936836999998,None,1224.7101082999998,None,1224.7101082999998,None,n,1.1137165999998615,1224.7101082999998,None,,,NC_38,001,2022_Apr_19_1627,ProdSingRedo,3.2.3,59.85303685327461,
,,,,159,0,159,0,,,,,,,,,,,,,,,,,,,,,,,,1230.4863214000002,None,,,,,,,,,,,,,,,,,plane,aloud,white,159,41,223,1226.3863606,None,1226.3863606,None,4,2.3252418000001853,1226.3863606,None,1228.7404702999997,None,1229.2538294,None,1229.2538294,None,f,1.2019653000002108,1229.2538294,None,,,NC_38,001,2022_Apr_19_1627,ProdSingRedo,3.2.3,59.85303685327461,
,,,,160,0,160,0,,,,,,,,,,,,,,,,,,,,,,,,1234.4273045,None,,,,,,,,,,,,,,,,,sight,new_c,white,160,154,286,1231.0164479999999,None,1231.0164479999999,None,2,1.5113968000000568,1231.0164479999999,None,1232.5749799,None,1233.0971177000001,None,1233.0971177000001,None,f,1.2946869999996125,1233.0971177000001,None,,,NC_38,001,2022_Apr_19_1627,ProdSingRedo,3.2.3,59.85303685327461,
,,,,161,0,161,0,,,,,,,,,,,,,,,,,,,,,,,,1240.254539,None,,,,,,,,,,,,,,,,,machinery,sing,white,161,11,175,1234.9556324,None,1234.9556324,None,3,3.156184200000098,1234.9556324,None,1238.1607018999998,None,1238.6847318999999,None,1238.6847318999999,None,f,1.5470041999997193,1238.6847318999999,None,,,NC_38,001,2022_Apr_19_1627,ProdSingRedo,3.2.3,59.85303685327461,
,,,,162,0,162,0,,,,,,,,,,,,,,,,,,,,,,,,1245.6541521999998,None,,,,,,,,,,,,,,,,,heavy,aloud,white,162,56,151,1240.7869409,None,1240.7869409,None,4,1.628883500000029,1240.7869409,None,1242.4439094,None,1242.9653831,None,1242.9653831,None,r,2.6581687999996575,1242.9653831,None,,,NC_38,001,2022_Apr_19_1627,ProdSingRedo,3.2.3,59.85303685327461,
,,,,163,0,163,0,,,,,,,,,,,,,,,,,,,,,,,,1248.3283123,None,,,,,,,,,,,,,,,,,crime,new_a,white,163,96,78,1246.1704495999998,None,1246.1704495999998,None,1,1.293422599999758,1246.1704495999998,None,1247.4979011,None,1248.0100601,None,1248.0100601,None,n,0.2940395000000535,1248.0100601,None,,,NC_38,001,2022_Apr_19_1627,ProdSingRedo,3.2.3,59.85303685327461,
,,,,164,0,164,0,,,,,,,,,,,,,,,,,,,,,,,,1252.5717813,None,,,,,,,,,,,,,,,,,gesture,silent,white,164,77,137,1248.8569045,None,1248.8569045,None,3,2.2227852999999413,1248.8569045,None,1251.1319199,None,1251.6361576,None,1251.6361576,None,f,0.9075565000002825,1251.6361576,None,,,NC_38,001,2022_Apr_19_1627,ProdSingRedo,3.2.3,59.85303685327461,
,,,,165,0,165,0,,,,,,,,,,,,,,,,,,,,,,,,1257.1124696000002,None,,,,,,,,,,,,,,,,,profession,new_a,white,165,108,241,1253.1009150999998,None,1253.1009150999998,None,1,2.5628142999999,1253.1009150999998,None,1255.6985141999999,None,1256.2158322,None,1256.2158322,None,n,0.8719935000003716,1256.2158322,None,,,NC_38,001,2022_Apr_19_1627,ProdSingRedo,3.2.3,59.85303685327461,
,,,,166,0,166,0,,,,,,,,,,,,,,,,,,,,,,,,1261.1536694000001,None,,,,,,,,,,,,,,,,,scene,sing,white,166,9,273,1257.6221271999998,None,1257.6221271999998,None,4,2.673662400000012,1257.6221271999998,None,1260.3402676,None,1260.8537695,None,1260.8537695,None,r,0.27385929999991276,1260.8537695,None,,,NC_38,001,2022_Apr_19_1627,ProdSingRedo,3.2.3,59.85303685327461,
,,,,167,0,167,0,,,,,,,,,,,,,,,,,,,,,,,,1264.8469172999999,None,,,,,,,,,,,,,,,,,citizen,aloud,white,167,37,50,1261.6740403,None,1261.6740403,None,5,2.22996349999994,1261.6740403,None,1263.9398161,None,1264.4647236,None,1264.4647236,None,f,0.3511745000000701,1264.4647236,None,,,NC_38,001,2022_Apr_19_1627,ProdSingRedo,3.2.3,59.85303685327461,
,,,,168,0,168,0,,,,,,,,,,,,,,,,,,,,,,,,1268.6557161,None,,,,,,,,,,,,,,,,,power,silent,white,168,71,230,1265.3751333999999,None,1265.3751333999999,None,2,2.3770229000001564,1265.3751333999999,None,1267.7953429,None,1268.3074222,None,1268.3074222,None,n,0.31644219999998313,1268.3074222,None,,,NC_38,001,2022_Apr_19_1627,ProdSingRedo,3.2.3,59.85303685327461,
,,,,169,0,169,0,,,,,,,,,,,,,,,,,,,,,,,,1272.4394309,None,,,,,,,,,,,,,,,,,display,new_a,white,169,119,98,1269.1907258,None,1269.1907258,None,4,1.3770002999999633,1269.1907258,None,1270.6151573000002,None,1271.1233759000002,None,1271.1233759000002,None,f,1.2923209999999017,1271.1233759000002,None,,,NC_38,001,2022_Apr_19_1627,ProdSingRedo,3.2.3,59.85303685327461,
,,,,170,0,170,0,,,,,,,,,,,,,,,,,,,,,,,,1276.1803529,None,,,,,,,,,,,,,,,,,dance,new_b,white,170,128,84,1272.9854036000002,None,1272.9854036000002,None,2,2.318395899999814,1272.9854036000002,None,1275.3342853,None,1275.8392055,None,1275.8392055,None,n,0.3134936999999809,1275.8392055,None,,,NC_38,001,2022_Apr_19_1627,ProdSingRedo,3.2.3,59.85303685327461,
,,,,171,0,171,0,,,,,,,,,,,,,,,,,,,,,,,,1279.0140446999999,None,,,,,,,,,,,,,,,,,suspect,silent,white,171,79,318,1276.7082314,None,1276.7082314,None,5,1.4754032999999254,1276.7082314,None,1278.2176851,None,1278.7440404999998,None,1278.7440404999998,None,r,0.23979600000029677,1278.7440404999998,None,,,NC_38,001,2022_Apr_19_1627,ProdSingRedo,3.2.3,59.85303685327461,
,,,,172,0,172,0,,,,,,,,,,,,,,,,,,,,,,,,1281.7561893000002,None,,,,,,,,,,,,,,,,,search,new_b,white,172,141,276,1279.5419401999998,None,1279.5419401999998,None,5,1.3459122999997817,1279.5419401999998,None,1280.9304886,None,1281.4373169,None,1281.4373169,None,r,0.2985879000002569,1281.4373169,None,,,NC_38,001,2022_Apr_19_1627,ProdSingRedo,3.2.3,59.85303685327461,
,,,,173,0,173,0,,,,,,,,,,,,,,,,,,,,,,,,1285.5075089000002,None,,,,,,,,,,,,,,,,,charter,new_a,white,173,95,47,1282.2886230999998,None,1282.2886230999998,None,2,1.5750539000000572,1282.2886230999998,None,1283.9050406000001,None,1284.4161777,None,1284.4161777,None,f,1.0716115999998692,1284.4161777,None,,,NC_38,001,2022_Apr_19_1627,ProdSingRedo,3.2.3,59.85303685327461,
,,,,174,0,174,0,,,,,,,,,,,,,,,,,,,,,,,,1290.290865,None,,,,,,,,,,,,,,,,,course,sing,white,174,8,74,1286.0287929,None,1286.0287929,None,5,2.354885700000068,1286.0287929,None,1288.4196960999998,None,1288.9371333999998,None,1288.9371333999998,None,n,1.3345430999997916,1288.9371333999998,None,,,NC_38,001,2022_Apr_19_1627,ProdSingRedo,3.2.3,59.85303685327461,
,,,,175,0,175,0,,,,,,,,,,,,,,,,,,,,,,,,1295.8245489,None,,,,,,,,,,,,,,,,,junior,new_b,white,175,135,167,1290.8212294,None,1290.8212294,None,3,3.290429099999983,1290.8212294,None,1294.1501087000001,None,1294.6654012,None,1294.6654012,None,f,1.1343128999997134,1294.6654012,None,,,NC_38,001,2022_Apr_19_1627,ProdSingRedo,3.2.3,59.85303685327461,
,,,,176,0,176,0,,,,,,,,,,,,,,,,,,,,,,,,1300.4076433999999,None,,,,,,,,,,,,,,,,,chief,new_b,white,176,125,48,1296.3548485000001,None,1296.3548485000001,None,5,1.8048306999999113,1296.3548485000001,None,1298.2014058999998,None,1298.7171727,None,1298.7171727,None,n,1.658549199999925,1298.7171727,None,,,NC_38,001,2022_Apr_19_1627,ProdSingRedo,3.2.3,59.85303685327461,
,,,,177,0,177,0,,,,,,,,,,,,,,,,,,,,,,,,1305.8472487,None,,,,,,,,,,,,,,,,,universal,sing,white,177,19,345,1300.9456085000002,None,1300.9456085000002,None,2,2.670144100000016,1300.9456085000002,None,1303.6566656999998,None,1304.1658306,None,1304.1658306,None,f,1.6497839000003296,1304.1658306,None,,,NC_38,001,2022_Apr_19_1627,ProdSingRedo,3.2.3,59.85303685327461,
,,,,178,0,178,0,,,,,,,,,,,,,,,,,,,,,,,,1308.592071,None,,,,,,,,,,,,,,,,,employment,new_c,white,178,179,111,1306.3751025000001,None,1306.3751025000001,None,1,1.3524603000000752,1306.3751025000001,None,1307.7764425999999,None,1308.2770672000001,None,1308.2770672000001,None,n,0.2826225999997405,1308.2770672000001,None,,,NC_38,001,2022_Apr_19_1627,ProdSingRedo,3.2.3,59.85303685327461,
,,,,179,0,179,0,,,,,,,,,,,,,,,,,,,,,,,,1311.4226442,None,,,,,,,,,,,,,,,,,beginning,sing,white,179,3,19,1309.1211211,None,1309.1211211,None,1,1.2625585000000683,1309.1211211,None,1310.4351249000001,None,1310.9460847999999,None,1310.9460847999999,None,n,0.4534269000000677,1310.9460847999999,None,,,NC_38,001,2022_Apr_19_1627,ProdSingRedo,3.2.3,59.85303685327461,
,,,,,,,,,,,,,,,,,,,,,,,,,,,,,,,,,,,,,,,,,,,,,,,,,,,,,,,,,,,,,,,,,,,,,,,,,1311.9228521,None,,,,,,,
