StudyLoop.thisRepN,StudyLoop.thisTrialN,StudyLoop.thisN,StudyLoop.thisIndex,TestLoop.thisRepN,TestLoop.thisTrialN,TestLoop.thisN,TestLoop.thisIndex,textCondition.started,textCondition.stopped,keyCondition.keys,keyCondition.rt,keyCondition.started,keyCondition.stopped,Condition,stim_colors,color_sing,color_aloud,color_silent,textWelcome.started,textWelcome.stopped,keyWelcome.keys,keyWelcome.rt,keyWelcome.started,keyWelcome.stopped,textAloud.started,textAloud.stopped,textSilent.started,textSilent.stopped,textSing.started,textSing.stopped,textBlank500.started,textBlank500.stopped,study_word,study_type,study_color,study_num,study_word_num,textStudy.started,textStudy.stopped,keyStudy.keys,keyStudy.started,keyStudy.stopped,textTestInstructions.started,textTestInstructions.stopped,key_resp_3.keys,key_resp_3.rt,key_resp_3.started,key_resp_3.stopped,testWord,testType,testColor,testN,test_num,test_word_num,textConf.started,textConf.stopped,textConfScale.started,textConfScale.stopped,keyConf.keys,keyConf.rt,keyConf.started,keyConf.stopped,textTestBlank.started,textTestBlank.stopped,textRKN.started,textRKN.stopped,textRKNScale.started,textRKNScale.stopped,keyRKN.keys,keyRKN.rt,keyRKN.started,keyRKN.stopped,textEnd.started,textEnd.stopped,participant,session,date,expName,psychopyVersion,frameRate,
,,,,,,,,411.0238984990865,None,n,4.4655779004096985,411.0238984990865,None,,,,,,,,,,,,,,,,,,,,,,,,,,,,,,,,,,,,,,,,,,,,,,,,,,,,,,,,,,,,,,NC_31,001,2022_Mar_24_1203,ProdSingRedo,3.2.3,59.79180521440633,
,,,,,,,,,,,,,,NeutralTest,"['blue', 'yellow', 'red']",blue,yellow,red,415.5511976983398,None,space,14.352025400847197,415.5511976983398,None,,,,,,,,,,,,,,,,,,,,,,,,,,,,,,,,,,,,,,,,,,,,,,,,,,,NC_31,001,2022_Mar_24_1203,ProdSingRedo,3.2.3,59.79180521440633,
0,0,0,0,,,,,,,,,,,,,,,,,,,,,,415.5511976983398,None,415.5511976983398,None,415.5511976983398,None,432.4350021984428,None,oxygen,sing,blue,24,209,430.42957629822195,None,None,430.42957629822195,None,,,,,,,,,,,,,,,,,,,,,,,,,,,,,,,,,NC_31,001,2022_Mar_24_1203,ProdSingRedo,3.2.3,59.79180521440633,
1,0,1,0,,,,,,,,,,,,,,,,,,,,,,,,,,,,434.9519215989858,None,silence,silent,red,64,288,432.9372713994235,None,None,432.9372713994235,None,,,,,,,,,,,,,,,,,,,,,,,,,,,,,,,,,NC_31,001,2022_Mar_24_1203,ProdSingRedo,3.2.3,59.79180521440633,
2,0,2,0,,,,,,,,,,,,,,,,,,,,,,,,,,,,437.468237798661,None,commercial,sing,blue,14,61,435.4548526983708,None,None,435.4548526983708,None,,,,,,,,,,,,,,,,,,,,,,,,,,,,,,,,,NC_31,001,2022_Mar_24_1203,ProdSingRedo,3.2.3,59.79180521440633,
3,0,3,0,,,,,,,,,,,,,,,,,,,,,,,,,,,,439.9857535995543,None,match,sing,blue,20,181,437.97114219889045,None,None,437.97114219889045,None,,,,,,,,,,,,,,,,,,,,,,,,,,,,,,,,,NC_31,001,2022_Mar_24_1203,ProdSingRedo,3.2.3,59.79180521440633,
4,0,4,0,,,,,,,,,,,,,,,,,,,,,,,,,,,,442.4855309985578,None,personnel,sing,blue,21,219,440.48537939973176,None,None,440.48537939973176,None,,,,,,,,,,,,,,,,,,,,,,,,,,,,,,,,,NC_31,001,2022_Mar_24_1203,ProdSingRedo,3.2.3,59.79180521440633,
5,0,5,0,,,,,,,,,,,,,,,,,,,,,,,,,,,,444.98704809881747,None,household,silent,red,85,154,442.9860151987523,None,None,442.9860151987523,None,,,,,,,,,,,,,,,,,,,,,,,,,,,,,,,,,NC_31,001,2022_Mar_24_1203,ProdSingRedo,3.2.3,59.79180521440633,
6,0,6,0,,,,,,,,,,,,,,,,,,,,,,,,,,,,447.5038380995393,None,problem,silent,red,87,238,445.51261209882796,None,None,445.51261209882796,None,,,,,,,,,,,,,,,,,,,,,,,,,,,,,,,,,NC_31,001,2022_Mar_24_1203,ProdSingRedo,3.2.3,59.79180521440633,
7,0,7,0,,,,,,,,,,,,,,,,,,,,,,,,,,,,450.0209591984749,None,bright,silent,red,88,29,448.01964689977467,None,None,448.01964689977467,None,,,,,,,,,,,,,,,,,,,,,,,,,,,,,,,,,NC_31,001,2022_Mar_24_1203,ProdSingRedo,3.2.3,59.79180521440633,
8,0,8,0,,,,,,,,,,,,,,,,,,,,,,,,,,,,452.5541744995862,None,weather,silent,red,71,352,450.5469398982823,None,None,450.5469398982823,None,,,,,,,,,,,,,,,,,,,,,,,,,,,,,,,,,NC_31,001,2022_Mar_24_1203,ProdSingRedo,3.2.3,59.79180521440633,
9,0,9,0,,,,,,,,,,,,,,,,,,,,,,,,,,,,455.05444789864123,None,interior,aloud,yellow,59,164,453.05072099901736,None,None,453.05072099901736,None,,,,,,,,,,,,,,,,,,,,,,,,,,,,,,,,,NC_31,001,2022_Mar_24_1203,ProdSingRedo,3.2.3,59.79180521440633,
10,0,10,0,,,,,,,,,,,,,,,,,,,,,,,,,,,,457.5713708996773,None,country,sing,blue,25,73,455.5670033991337,None,None,455.5670033991337,None,,,,,,,,,,,,,,,,,,,,,,,,,,,,,,,,,NC_31,001,2022_Mar_24_1203,ProdSingRedo,3.2.3,59.79180521440633,
11,0,11,0,,,,,,,,,,,,,,,,,,,,,,,,,,,,460.08808149956167,None,under,sing,blue,7,343,458.08279129862785,None,None,458.08279129862785,None,,,,,,,,,,,,,,,,,,,,,,,,,,,,,,,,,NC_31,001,2022_Mar_24_1203,ProdSingRedo,3.2.3,59.79180521440633,
12,0,12,0,,,,,,,,,,,,,,,,,,,,,,,,,,,,462.6040226984769,None,write,sing,blue,18,358,460.6041611991823,None,None,460.6041611991823,None,,,,,,,,,,,,,,,,,,,,,,,,,,,,,,,,,NC_31,001,2022_Mar_24_1203,ProdSingRedo,3.2.3,59.79180521440633,
13,0,13,0,,,,,,,,,,,,,,,,,,,,,,,,,,,,465.1038790997118,None,split,aloud,yellow,39,299,463.10358859971166,None,None,463.10358859971166,None,,,,,,,,,,,,,,,,,,,,,,,,,,,,,,,,,NC_31,001,2022_Mar_24_1203,ProdSingRedo,3.2.3,59.79180521440633,
14,0,14,0,,,,,,,,,,,,,,,,,,,,,,,,,,,,467.6206242982298,None,corner,silent,red,82,69,465.6063219998032,None,None,465.6063219998032,None,,,,,,,,,,,,,,,,,,,,,,,,,,,,,,,,,NC_31,001,2022_Mar_24_1203,ProdSingRedo,3.2.3,59.79180521440633,
15,0,15,0,,,,,,,,,,,,,,,,,,,,,,,,,,,,470.1205592993647,None,history,aloud,yellow,42,153,468.12047609873116,None,None,468.12047609873116,None,,,,,,,,,,,,,,,,,,,,,,,,,,,,,,,,,NC_31,001,2022_Mar_24_1203,ProdSingRedo,3.2.3,59.79180521440633,
16,0,16,0,,,,,,,,,,,,,,,,,,,,,,,,,,,,472.6209341995418,None,sleep,sing,blue,15,290,470.62079229950905,None,None,470.62079229950905,None,,,,,,,,,,,,,,,,,,,,,,,,,,,,,,,,,NC_31,001,2022_Mar_24_1203,ProdSingRedo,3.2.3,59.79180521440633,
17,0,17,0,,,,,,,,,,,,,,,,,,,,,,,,,,,,475.12261039949954,None,republic,aloud,yellow,46,260,473.1223577000201,None,None,473.1223577000201,None,,,,,,,,,,,,,,,,,,,,,,,,,,,,,,,,,NC_31,001,2022_Mar_24_1203,ProdSingRedo,3.2.3,59.79180521440633,
18,0,18,0,,,,,,,,,,,,,,,,,,,,,,,,,,,,477.6375320982188,None,cross,sing,blue,16,80,475.6330565996468,None,None,475.6330565996468,None,,,,,,,,,,,,,,,,,,,,,,,,,,,,,,,,,NC_31,001,2022_Mar_24_1203,ProdSingRedo,3.2.3,59.79180521440633,
19,0,19,0,,,,,,,,,,,,,,,,,,,,,,,,,,,,480.1542024984956,None,cover,sing,blue,27,77,478.1448075994849,None,None,478.1448075994849,None,,,,,,,,,,,,,,,,,,,,,,,,,,,,,,,,,NC_31,001,2022_Mar_24_1203,ProdSingRedo,3.2.3,59.79180521440633,
20,0,20,0,,,,,,,,,,,,,,,,,,,,,,,,,,,,482.6719252988696,None,center,sing,blue,17,44,480.66248659975827,None,None,480.66248659975827,None,,,,,,,,,,,,,,,,,,,,,,,,,,,,,,,,,NC_31,001,2022_Mar_24_1203,ProdSingRedo,3.2.3,59.79180521440633,
21,0,21,0,,,,,,,,,,,,,,,,,,,,,,,,,,,,485.1728011984378,None,title,sing,blue,12,331,483.1713769994676,None,None,483.1713769994676,None,,,,,,,,,,,,,,,,,,,,,,,,,,,,,,,,,NC_31,001,2022_Mar_24_1203,ProdSingRedo,3.2.3,59.79180521440633,
22,0,22,0,,,,,,,,,,,,,,,,,,,,,,,,,,,,487.68857129849494,None,quarter,silent,red,83,246,485.6977018993348,None,None,485.6977018993348,None,,,,,,,,,,,,,,,,,,,,,,,,,,,,,,,,,NC_31,001,2022_Mar_24_1203,ProdSingRedo,3.2.3,59.79180521440633,
23,0,23,0,,,,,,,,,,,,,,,,,,,,,,,,,,,,490.2066521998495,None,force,sing,blue,23,131,488.20419709943235,None,None,488.20419709943235,None,,,,,,,,,,,,,,,,,,,,,,,,,,,,,,,,,NC_31,001,2022_Mar_24_1203,ProdSingRedo,3.2.3,59.79180521440633,
24,0,24,0,,,,,,,,,,,,,,,,,,,,,,,,,,,,492.7236012984067,None,generation,aloud,yellow,55,136,490.7254075985402,None,None,490.7254075985402,None,,,,,,,,,,,,,,,,,,,,,,,,,,,,,,,,,NC_31,001,2022_Mar_24_1203,ProdSingRedo,3.2.3,59.79180521440633,
25,0,25,0,,,,,,,,,,,,,,,,,,,,,,,,,,,,495.2439901996404,None,worker,silent,red,69,356,493.2456353995949,None,None,493.2456353995949,None,,,,,,,,,,,,,,,,,,,,,,,,,,,,,,,,,NC_31,001,2022_Mar_24_1203,ProdSingRedo,3.2.3,59.79180521440633,
26,0,26,0,,,,,,,,,,,,,,,,,,,,,,,,,,,,497.7573558986187,None,sound,sing,blue,0,295,495.75409499928355,None,None,495.75409499928355,None,,,,,,,,,,,,,,,,,,,,,,,,,,,,,,,,,NC_31,001,2022_Mar_24_1203,ProdSingRedo,3.2.3,59.79180521440633,
27,0,27,0,,,,,,,,,,,,,,,,,,,,,,,,,,,,500.27272239886224,None,management,sing,blue,29,177,498.2590373996645,None,None,498.2590373996645,None,,,,,,,,,,,,,,,,,,,,,,,,,,,,,,,,,NC_31,001,2022_Mar_24_1203,ProdSingRedo,3.2.3,59.79180521440633,
28,0,28,0,,,,,,,,,,,,,,,,,,,,,,,,,,,,502.7726573999971,None,growth,sing,blue,3,144,500.77254929952323,None,None,500.77254929952323,None,,,,,,,,,,,,,,,,,,,,,,,,,,,,,,,,,NC_31,001,2022_Mar_24_1203,ProdSingRedo,3.2.3,59.79180521440633,
29,0,29,0,,,,,,,,,,,,,,,,,,,,,,,,,,,,505.274115299806,None,brief,silent,red,77,28,503.27406549826264,None,None,503.27406549826264,None,,,,,,,,,,,,,,,,,,,,,,,,,,,,,,,,,NC_31,001,2022_Mar_24_1203,ProdSingRedo,3.2.3,59.79180521440633,
30,0,30,0,,,,,,,,,,,,,,,,,,,,,,,,,,,,507.7903128992766,None,education,sing,blue,9,108,505.79488339833915,None,None,505.79488339833915,None,,,,,,,,,,,,,,,,,,,,,,,,,,,,,,,,,NC_31,001,2022_Mar_24_1203,ProdSingRedo,3.2.3,59.79180521440633,
31,0,31,0,,,,,,,,,,,,,,,,,,,,,,,,,,,,510.30676589906216,None,suggestion,aloud,yellow,31,314,508.3079288993031,None,None,508.3079288993031,None,,,,,,,,,,,,,,,,,,,,,,,,,,,,,,,,,NC_31,001,2022_Mar_24_1203,ProdSingRedo,3.2.3,59.79180521440633,
32,0,32,0,,,,,,,,,,,,,,,,,,,,,,,,,,,,512.8245171997696,None,evidence,aloud,yellow,48,120,510.81366069987416,None,None,510.81366069987416,None,,,,,,,,,,,,,,,,,,,,,,,,,,,,,,,,,NC_31,001,2022_Mar_24_1203,ProdSingRedo,3.2.3,59.79180521440633,
33,0,33,0,,,,,,,,,,,,,,,,,,,,,,,,,,,,515.3416172992438,None,dozen,sing,blue,1,102,513.3316123988479,None,None,513.3316123988479,None,,,,,,,,,,,,,,,,,,,,,,,,,,,,,,,,,NC_31,001,2022_Mar_24_1203,ProdSingRedo,3.2.3,59.79180521440633,
34,0,34,0,,,,,,,,,,,,,,,,,,,,,,,,,,,,517.8575927000493,None,executive,silent,red,81,122,515.8710411991924,None,None,515.8710411991924,None,,,,,,,,,,,,,,,,,,,,,,,,,,,,,,,,,NC_31,001,2022_Mar_24_1203,ProdSingRedo,3.2.3,59.79180521440633,
35,0,35,0,,,,,,,,,,,,,,,,,,,,,,,,,,,,520.3734198994935,None,comfort,sing,blue,4,59,518.3583804983646,None,None,518.3583804983646,None,,,,,,,,,,,,,,,,,,,,,,,,,,,,,,,,,NC_31,001,2022_Mar_24_1203,ProdSingRedo,3.2.3,59.79180521440633,
36,0,36,0,,,,,,,,,,,,,,,,,,,,,,,,,,,,522.8736243993044,None,style,sing,blue,28,311,520.8733115997165,None,None,520.8733115997165,None,,,,,,,,,,,,,,,,,,,,,,,,,,,,,,,,,NC_31,001,2022_Mar_24_1203,ProdSingRedo,3.2.3,59.79180521440633,
37,0,37,0,,,,,,,,,,,,,,,,,,,,,,,,,,,,525.373764898628,None,colonel,aloud,yellow,30,55,523.3736620992422,None,None,523.3736620992422,None,,,,,,,,,,,,,,,,,,,,,,,,,,,,,,,,,NC_31,001,2022_Mar_24_1203,ProdSingRedo,3.2.3,59.79180521440633,
38,0,38,0,,,,,,,,,,,,,,,,,,,,,,,,,,,,527.8743068985641,None,minor,aloud,yellow,50,191,525.8742117993534,None,None,525.8742117993534,None,,,,,,,,,,,,,,,,,,,,,,,,,,,,,,,,,NC_31,001,2022_Mar_24_1203,ProdSingRedo,3.2.3,59.79180521440633,
39,0,39,0,,,,,,,,,,,,,,,,,,,,,,,,,,,,530.374951498583,None,running,sing,blue,8,268,528.3751288987696,None,None,528.3751288987696,None,,,,,,,,,,,,,,,,,,,,,,,,,,,,,,,,,NC_31,001,2022_Mar_24_1203,ProdSingRedo,3.2.3,59.79180521440633,
40,0,40,0,,,,,,,,,,,,,,,,,,,,,,,,,,,,532.8912044987082,None,background,aloud,yellow,40,16,530.8767084982246,None,None,530.8767084982246,None,,,,,,,,,,,,,,,,,,,,,,,,,,,,,,,,,NC_31,001,2022_Mar_24_1203,ProdSingRedo,3.2.3,59.79180521440633,
41,0,41,0,,,,,,,,,,,,,,,,,,,,,,,,,,,,535.3915323987603,None,question,aloud,yellow,53,247,533.3914033994079,None,None,533.3914033994079,None,,,,,,,,,,,,,,,,,,,,,,,,,,,,,,,,,NC_31,001,2022_Mar_24_1203,ProdSingRedo,3.2.3,59.79180521440633,
42,0,42,0,,,,,,,,,,,,,,,,,,,,,,,,,,,,537.9082566983998,None,rural,aloud,yellow,43,269,535.9061039984226,None,None,535.9061039984226,None,,,,,,,,,,,,,,,,,,,,,,,,,,,,,,,,,NC_31,001,2022_Mar_24_1203,ProdSingRedo,3.2.3,59.79180521440633,
43,0,43,0,,,,,,,,,,,,,,,,,,,,,,,,,,,,540.4095007982105,None,owner,silent,red,66,208,538.4084931984544,None,None,538.4084931984544,None,,,,,,,,,,,,,,,,,,,,,,,,,,,,,,,,,NC_31,001,2022_Mar_24_1203,ProdSingRedo,3.2.3,59.79180521440633,
44,0,44,0,,,,,,,,,,,,,,,,,,,,,,,,,,,,542.9256218988448,None,quick,sing,blue,26,248,540.91178580001,None,None,540.91178580001,None,,,,,,,,,,,,,,,,,,,,,,,,,,,,,,,,,NC_31,001,2022_Mar_24_1203,ProdSingRedo,3.2.3,59.79180521440633,
45,0,45,0,,,,,,,,,,,,,,,,,,,,,,,,,,,,545.4258502982557,None,close,silent,red,76,53,543.4261230994016,None,None,543.4261230994016,None,,,,,,,,,,,,,,,,,,,,,,,,,,,,,,,,,NC_31,001,2022_Mar_24_1203,ProdSingRedo,3.2.3,59.79180521440633,
46,0,46,0,,,,,,,,,,,,,,,,,,,,,,,,,,,,547.9256836995482,None,provision,silent,red,75,243,545.9264780990779,None,None,545.9264780990779,None,,,,,,,,,,,,,,,,,,,,,,,,,,,,,,,,,NC_31,001,2022_Mar_24_1203,ProdSingRedo,3.2.3,59.79180521440633,
47,0,47,0,,,,,,,,,,,,,,,,,,,,,,,,,,,,550.4440699983388,None,comedy,silent,red,72,58,548.438213698566,None,None,548.438213698566,None,,,,,,,,,,,,,,,,,,,,,,,,,,,,,,,,,NC_31,001,2022_Mar_24_1203,ProdSingRedo,3.2.3,59.79180521440633,
48,0,48,0,,,,,,,,,,,,,,,,,,,,,,,,,,,,552.9607094991952,None,burden,sing,blue,22,36,550.956688599661,None,None,550.956688599661,None,,,,,,,,,,,,,,,,,,,,,,,,,,,,,,,,,NC_31,001,2022_Mar_24_1203,ProdSingRedo,3.2.3,59.79180521440633,
49,0,49,0,,,,,,,,,,,,,,,,,,,,,,,,,,,,555.4772777985781,None,member,sing,blue,10,188,553.4757137000561,None,None,553.4757137000561,None,,,,,,,,,,,,,,,,,,,,,,,,,,,,,,,,,NC_31,001,2022_Mar_24_1203,ProdSingRedo,3.2.3,59.79180521440633,
50,0,50,0,,,,,,,,,,,,,,,,,,,,,,,,,,,,557.9783114995807,None,material,silent,red,86,182,555.9781120996922,None,None,555.9781120996922,None,,,,,,,,,,,,,,,,,,,,,,,,,,,,,,,,,NC_31,001,2022_Mar_24_1203,ProdSingRedo,3.2.3,59.79180521440633,
51,0,51,0,,,,,,,,,,,,,,,,,,,,,,,,,,,,560.4943827986717,None,pretty,sing,blue,2,233,558.4922652989626,None,None,558.4922652989626,None,,,,,,,,,,,,,,,,,,,,,,,,,,,,,,,,,NC_31,001,2022_Mar_24_1203,ProdSingRedo,3.2.3,59.79180521440633,
52,0,52,0,,,,,,,,,,,,,,,,,,,,,,,,,,,,562.9954405985773,None,afternoon,silent,red,63,3,560.9937423989177,None,None,560.9937423989177,None,,,,,,,,,,,,,,,,,,,,,,,,,,,,,,,,,NC_31,001,2022_Mar_24_1203,ProdSingRedo,3.2.3,59.79180521440633,
53,0,53,0,,,,,,,,,,,,,,,,,,,,,,,,,,,,565.510584898293,None,payment,aloud,yellow,37,215,563.5124385990202,None,None,563.5124385990202,None,,,,,,,,,,,,,,,,,,,,,,,,,,,,,,,,,NC_31,001,2022_Mar_24_1203,ProdSingRedo,3.2.3,59.79180521440633,
54,0,54,0,,,,,,,,,,,,,,,,,,,,,,,,,,,,568.0288242995739,None,clean,aloud,yellow,45,51,566.0250984989107,None,None,566.0250984989107,None,,,,,,,,,,,,,,,,,,,,,,,,,,,,,,,,,NC_31,001,2022_Mar_24_1203,ProdSingRedo,3.2.3,59.79180521440633,
55,0,55,0,,,,,,,,,,,,,,,,,,,,,,,,,,,,570.5453210994601,None,watch,silent,red,70,351,568.5413906984031,None,None,568.5413906984031,None,,,,,,,,,,,,,,,,,,,,,,,,,,,,,,,,,NC_31,001,2022_Mar_24_1203,ProdSingRedo,3.2.3,59.79180521440633,
56,0,56,0,,,,,,,,,,,,,,,,,,,,,,,,,,,,573.0620333999395,None,figure,aloud,yellow,36,128,571.0773190986365,None,None,571.0773190986365,None,,,,,,,,,,,,,,,,,,,,,,,,,,,,,,,,,NC_31,001,2022_Mar_24_1203,ProdSingRedo,3.2.3,59.79180521440633,
57,0,57,0,,,,,,,,,,,,,,,,,,,,,,,,,,,,575.5782145988196,None,impact,aloud,yellow,44,157,573.5733420997858,None,None,573.5733420997858,None,,,,,,,,,,,,,,,,,,,,,,,,,,,,,,,,,NC_31,001,2022_Mar_24_1203,ProdSingRedo,3.2.3,59.79180521440633,
58,0,58,0,,,,,,,,,,,,,,,,,,,,,,,,,,,,578.0957916993648,None,scene,aloud,yellow,35,273,576.0885569993407,None,None,576.0885569993407,None,,,,,,,,,,,,,,,,,,,,,,,,,,,,,,,,,NC_31,001,2022_Mar_24_1203,ProdSingRedo,3.2.3,59.79180521440633,
59,0,59,0,,,,,,,,,,,,,,,,,,,,,,,,,,,,580.6126548983157,None,device,sing,blue,6,93,578.6121583990753,None,None,578.6121583990753,None,,,,,,,,,,,,,,,,,,,,,,,,,,,,,,,,,NC_31,001,2022_Mar_24_1203,ProdSingRedo,3.2.3,59.79180521440633,
60,0,60,0,,,,,,,,,,,,,,,,,,,,,,,,,,,,583.1294825989753,None,capital,sing,blue,11,40,581.1285706982017,None,None,581.1285706982017,None,,,,,,,,,,,,,,,,,,,,,,,,,,,,,,,,,NC_31,001,2022_Mar_24_1203,ProdSingRedo,3.2.3,59.79180521440633,
61,0,61,0,,,,,,,,,,,,,,,,,,,,,,,,,,,,585.6462488994002,None,tough,silent,red,79,333,583.6416037995368,None,None,583.6416037995368,None,,,,,,,,,,,,,,,,,,,,,,,,,,,,,,,,,NC_31,001,2022_Mar_24_1203,ProdSingRedo,3.2.3,59.79180521440633,
62,0,62,0,,,,,,,,,,,,,,,,,,,,,,,,,,,,588.1629747990519,None,individual,silent,red,68,160,586.1656748987734,None,None,586.1656748987734,None,,,,,,,,,,,,,,,,,,,,,,,,,,,,,,,,,NC_31,001,2022_Mar_24_1203,ProdSingRedo,3.2.3,59.79180521440633,
63,0,63,0,,,,,,,,,,,,,,,,,,,,,,,,,,,,590.6821248997003,None,place,silent,red,65,222,588.6775397993624,None,None,588.6775397993624,None,,,,,,,,,,,,,,,,,,,,,,,,,,,,,,,,,NC_31,001,2022_Mar_24_1203,ProdSingRedo,3.2.3,59.79180521440633,
64,0,64,0,,,,,,,,,,,,,,,,,,,,,,,,,,,,593.1969652995467,None,frank,aloud,yellow,52,133,591.1874126996845,None,None,591.1874126996845,None,,,,,,,,,,,,,,,,,,,,,,,,,,,,,,,,,NC_31,001,2022_Mar_24_1203,ProdSingRedo,3.2.3,59.79180521440633,
65,0,65,0,,,,,,,,,,,,,,,,,,,,,,,,,,,,595.7136829998344,None,hearing,silent,red,78,150,593.7127405982465,None,None,593.7127405982465,None,,,,,,,,,,,,,,,,,,,,,,,,,,,,,,,,,NC_31,001,2022_Mar_24_1203,ProdSingRedo,3.2.3,59.79180521440633,
66,0,66,0,,,,,,,,,,,,,,,,,,,,,,,,,,,,598.2330334987491,None,taste,aloud,yellow,41,322,596.2274578996003,None,None,596.2274578996003,None,,,,,,,,,,,,,,,,,,,,,,,,,,,,,,,,,NC_31,001,2022_Mar_24_1203,ProdSingRedo,3.2.3,59.79180521440633,
67,0,67,0,,,,,,,,,,,,,,,,,,,,,,,,,,,,600.7471898999065,None,travel,silent,red,62,338,598.7448605988175,None,None,598.7448605988175,None,,,,,,,,,,,,,,,,,,,,,,,,,,,,,,,,,NC_31,001,2022_Mar_24_1203,ProdSingRedo,3.2.3,59.79180521440633,
68,0,68,0,,,,,,,,,,,,,,,,,,,,,,,,,,,,603.2632754985243,None,rapid,silent,red,67,252,601.2595907989889,None,None,601.2595907989889,None,,,,,,,,,,,,,,,,,,,,,,,,,,,,,,,,,NC_31,001,2022_Mar_24_1203,ProdSingRedo,3.2.3,59.79180521440633,
69,0,69,0,,,,,,,,,,,,,,,,,,,,,,,,,,,,605.7659929990768,None,power,sing,blue,13,230,603.7647795993835,None,None,603.7647795993835,None,,,,,,,,,,,,,,,,,,,,,,,,,,,,,,,,,NC_31,001,2022_Mar_24_1203,ProdSingRedo,3.2.3,59.79180521440633,
70,0,70,0,,,,,,,,,,,,,,,,,,,,,,,,,,,,608.2977086994797,None,solution,aloud,yellow,32,294,606.296334899962,None,None,606.296334899962,None,,,,,,,,,,,,,,,,,,,,,,,,,,,,,,,,,NC_31,001,2022_Mar_24_1203,ProdSingRedo,3.2.3,59.79180521440633,
71,0,71,0,,,,,,,,,,,,,,,,,,,,,,,,,,,,610.8136044982821,None,staff,sing,blue,19,301,608.8100731000304,None,None,608.8100731000304,None,,,,,,,,,,,,,,,,,,,,,,,,,,,,,,,,,NC_31,001,2022_Mar_24_1203,ProdSingRedo,3.2.3,59.79180521440633,
72,0,72,0,,,,,,,,,,,,,,,,,,,,,,,,,,,,613.3301493991166,None,career,silent,red,60,42,611.3298565987498,None,None,611.3298565987498,None,,,,,,,,,,,,,,,,,,,,,,,,,,,,,,,,,NC_31,001,2022_Mar_24_1203,ProdSingRedo,3.2.3,59.79180521440633,
73,0,73,0,,,,,,,,,,,,,,,,,,,,,,,,,,,,615.8483259994537,None,theme,aloud,yellow,54,326,613.8429955989122,None,None,613.8429955989122,None,,,,,,,,,,,,,,,,,,,,,,,,,,,,,,,,,NC_31,001,2022_Mar_24_1203,ProdSingRedo,3.2.3,59.79180521440633,
74,0,74,0,,,,,,,,,,,,,,,,,,,,,,,,,,,,618.366895198822,None,subject,aloud,yellow,49,312,616.372137799859,None,None,616.372137799859,None,,,,,,,,,,,,,,,,,,,,,,,,,,,,,,,,,NC_31,001,2022_Mar_24_1203,ProdSingRedo,3.2.3,59.79180521440633,
75,0,75,0,,,,,,,,,,,,,,,,,,,,,,,,,,,,620.8819611985236,None,birth,aloud,yellow,57,22,618.8781609982252,None,None,618.8781609982252,None,,,,,,,,,,,,,,,,,,,,,,,,,,,,,,,,,NC_31,001,2022_Mar_24_1203,ProdSingRedo,3.2.3,59.79180521440633,
76,0,76,0,,,,,,,,,,,,,,,,,,,,,,,,,,,,623.3984382990748,None,guard,aloud,yellow,34,145,621.3948953989893,None,None,621.3948953989893,None,,,,,,,,,,,,,,,,,,,,,,,,,,,,,,,,,NC_31,001,2022_Mar_24_1203,ProdSingRedo,3.2.3,59.79180521440633,
77,0,77,0,,,,,,,,,,,,,,,,,,,,,,,,,,,,625.9005203992128,None,reading,silent,red,73,254,623.8985942993313,None,None,623.8985942993313,None,,,,,,,,,,,,,,,,,,,,,,,,,,,,,,,,,NC_31,001,2022_Mar_24_1203,ProdSingRedo,3.2.3,59.79180521440633,
78,0,78,0,,,,,,,,,,,,,,,,,,,,,,,,,,,,628.4315788988024,None,victory,silent,red,61,346,626.4392048995942,None,None,626.4392048995942,None,,,,,,,,,,,,,,,,,,,,,,,,,,,,,,,,,NC_31,001,2022_Mar_24_1203,ProdSingRedo,3.2.3,59.79180521440633,
79,0,79,0,,,,,,,,,,,,,,,,,,,,,,,,,,,,630.948292599991,None,goose,aloud,yellow,33,138,628.9435915984213,None,None,628.9435915984213,None,,,,,,,,,,,,,,,,,,,,,,,,,,,,,,,,,NC_31,001,2022_Mar_24_1203,ProdSingRedo,3.2.3,59.79180521440633,
80,0,80,0,,,,,,,,,,,,,,,,,,,,,,,,,,,,633.4705722983927,None,discussion,silent,red,74,96,631.451793698594,None,None,631.451793698594,None,,,,,,,,,,,,,,,,,,,,,,,,,,,,,,,,,NC_31,001,2022_Mar_24_1203,ProdSingRedo,3.2.3,59.79180521440633,
81,0,81,0,,,,,,,,,,,,,,,,,,,,,,,,,,,,635.9829203989357,None,trash,aloud,yellow,51,337,633.9790177997202,None,None,633.9790177997202,None,,,,,,,,,,,,,,,,,,,,,,,,,,,,,,,,,NC_31,001,2022_Mar_24_1203,ProdSingRedo,3.2.3,59.79180521440633,
82,0,82,0,,,,,,,,,,,,,,,,,,,,,,,,,,,,638.4983967989683,None,fight,silent,red,84,127,636.4963838998228,None,None,636.4963838998228,None,,,,,,,,,,,,,,,,,,,,,,,,,,,,,,,,,NC_31,001,2022_Mar_24_1203,ProdSingRedo,3.2.3,59.79180521440633,
83,0,83,0,,,,,,,,,,,,,,,,,,,,,,,,,,,,641.0165126994252,None,budget,aloud,yellow,47,34,639.012455098331,None,None,639.012455098331,None,,,,,,,,,,,,,,,,,,,,,,,,,,,,,,,,,NC_31,001,2022_Mar_24_1203,ProdSingRedo,3.2.3,59.79180521440633,
84,0,84,0,,,,,,,,,,,,,,,,,,,,,,,,,,,,643.5326060988009,None,death,aloud,yellow,38,86,641.5315020997077,None,None,641.5315020997077,None,,,,,,,,,,,,,,,,,,,,,,,,,,,,,,,,,NC_31,001,2022_Mar_24_1203,ProdSingRedo,3.2.3,59.79180521440633,
85,0,85,0,,,,,,,,,,,,,,,,,,,,,,,,,,,,646.0502367988229,None,dream,aloud,yellow,56,104,644.0410323999822,None,None,644.0410323999822,None,,,,,,,,,,,,,,,,,,,,,,,,,,,,,,,,,NC_31,001,2022_Mar_24_1203,ProdSingRedo,3.2.3,59.79180521440633,
86,0,86,0,,,,,,,,,,,,,,,,,,,,,,,,,,,,648.5676466990262,None,brilliant,silent,red,80,30,646.5522197987884,None,None,646.5522197987884,None,,,,,,,,,,,,,,,,,,,,,,,,,,,,,,,,,NC_31,001,2022_Mar_24_1203,ProdSingRedo,3.2.3,59.79180521440633,
87,0,87,0,,,,,,,,,,,,,,,,,,,,,,,,,,,,651.0839424990118,None,union,sing,blue,5,344,649.0795339997858,None,None,649.0795339997858,None,,,,,,,,,,,,,,,,,,,,,,,,,,,,,,,,,NC_31,001,2022_Mar_24_1203,ProdSingRedo,3.2.3,59.79180521440633,
88,0,88,0,,,,,,,,,,,,,,,,,,,,,,,,,,,,653.5993796996772,None,speech,aloud,yellow,58,298,651.594074498862,None,None,651.594074498862,None,,,,,,,,,,,,,,,,,,,,,,,,,,,,,,,,,NC_31,001,2022_Mar_24_1203,ProdSingRedo,3.2.3,59.79180521440633,
89,0,89,0,,,,,,,,,,,,,,,,,,,,,,,,,,,,656.117511799559,None,meeting,silent,red,89,187,654.1089216992259,None,None,654.1089216992259,None,,,,,,,,,,,,,,,,,,,,,,,,,,,,,,,,,NC_31,001,2022_Mar_24_1203,ProdSingRedo,3.2.3,59.79180521440633,
,,,,,,,,,,,,,,,,,,,,,,,,,,,,,,,,,,,,,,,,,,,656.6161541994661,None,k,124.92065699957311,656.6161541994661,None,,,,,,,,,,,,,,,,,,,,,,,,,,,NC_31,001,2022_Mar_24_1203,ProdSingRedo,3.2.3,59.79180521440633,
,,,,0,0,0,0,,,,,,,,,,,,,,,,,,,,,,,,794.2748131994158,None,,,,,,,,,,,,,,,,,member,sing,white,0,10,188,782.0820159986615,None,782.0820159986615,None,2,8.66272239945829,782.0820159986615,None,790.789657799527,None,791.305835198611,None,791.305835198611,None,f,2.926987698301673,791.305835198611,None,,,NC_31,001,2022_Mar_24_1203,ProdSingRedo,3.2.3,59.79180521440633,
,,,,1,0,1,0,,,,,,,,,,,,,,,,,,,,,,,,803.6549199000001,None,,,,,,,,,,,,,,,,,close,silent,white,1,76,53,794.7906472999603,None,794.7906472999603,None,4,4.097767299041152,794.7906472999603,None,798.9115064982325,None,799.4283562991768,None,799.4283562991768,None,f,4.196770800277591,799.4283562991768,None,,,NC_31,001,2022_Mar_24_1203,ProdSingRedo,3.2.3,59.79180521440633,
,,,,2,0,2,0,,,,,,,,,,,,,,,,,,,,,,,,810.8066379986703,None,,,,,,,,,,,,,,,,,military,new_a,white,2,108,190,804.1808616984636,None,804.1808616984636,None,4,4.771786499768496,804.1808616984636,None,809.0095823984593,None,809.5228937994689,None,809.5228937994689,None,f,1.245702501386404,809.5228937994689,None,,,NC_31,001,2022_Mar_24_1203,ProdSingRedo,3.2.3,59.79180521440633,
,,,,3,0,3,0,,,,,,,,,,,,,,,,,,,,,,,,821.0269734989852,None,,,,,,,,,,,,,,,,,commercial,sing,white,3,14,61,811.3374748993665,None,811.3374748993665,None,4,5.127102000638843,811.3374748993665,None,816.5084051992744,None,817.0230336990207,None,817.0230336990207,None,f,3.9855674002319574,817.0230336990207,None,,,NC_31,001,2022_Mar_24_1203,ProdSingRedo,3.2.3,59.79180521440633,
,,,,4,0,4,0,,,,,,,,,,,,,,,,,,,,,,,,830.7432547993958,None,,,,,,,,,,,,,,,,,comedy,silent,white,4,72,58,821.5356110986322,None,821.5356110986322,None,4,4.504991699010134,821.5356110986322,None,826.0806159991771,None,826.6066660992801,None,826.6066660992801,None,f,4.097976999357343,826.6066660992801,None,,,NC_31,001,2022_Mar_24_1203,ProdSingRedo,3.2.3,59.79180521440633,
,,,,5,0,5,0,,,,,,,,,,,,,,,,,,,,,,,,840.2116215992719,None,,,,,,,,,,,,,,,,,fellow,new_a,white,5,101,126,831.2637876998633,None,831.2637876998633,None,1,4.6651109997183084,831.2637876998633,None,835.9713658988476,None,836.4922430999577,None,836.4922430999577,None,f,3.7003949005156755,836.4922430999577,None,,,NC_31,001,2022_Mar_24_1203,ProdSingRedo,3.2.3,59.79180521440633,
,,,,6,0,6,0,,,,,,,,,,,,,,,,,,,,,,,,848.9007999990135,None,,,,,,,,,,,,,,,,,management,sing,white,6,29,177,840.7241485994309,None,840.7241485994309,None,4,4.532481199130416,840.7241485994309,None,845.3122862000018,None,845.8249805998057,None,845.8249805998057,None,r,3.0474679991602898,845.8249805998057,None,,,NC_31,001,2022_Mar_24_1203,ProdSingRedo,3.2.3,59.79180521440633,
,,,,7,0,7,0,,,,,,,,,,,,,,,,,,,,,,,,857.7955071981996,None,,,,,,,,,,,,,,,,,blind,new_c,white,7,167,24,849.4215798992664,None,849.4215798992664,None,1,4.763002200052142,849.4215798992664,None,854.2361063994467,None,854.7550708986819,None,854.7550708986819,None,n,3.0055762995034456,854.7550708986819,None,,,NC_31,001,2022_Mar_24_1203,ProdSingRedo,3.2.3,59.79180521440633,
,,,,8,0,8,0,,,,,,,,,,,,,,,,,,,,,,,,865.7467600982636,None,,,,,,,,,,,,,,,,,brief,silent,white,8,77,28,858.3183539994061,None,858.3183539994061,None,2,4.33811610005796,858.3183539994061,None,862.6994039993733,None,863.2107322998345,None,863.2107322998345,None,n,2.5097214989364147,863.2107322998345,None,,,NC_31,001,2022_Mar_24_1203,ProdSingRedo,3.2.3,59.79180521440633,
,,,,9,0,9,0,,,,,,,,,,,,,,,,,,,,,,,,875.6494562998414,None,,,,,,,,,,,,,,,,,trail,new_c,white,9,159,336,866.2612316999584,None,866.2612316999584,None,1,2.9871396999806166,866.2612316999584,None,869.2829987984151,None,869.8060807995498,None,869.8060807995498,None,n,5.794618600979447,869.8060807995498,None,,,NC_31,001,2022_Mar_24_1203,ProdSingRedo,3.2.3,59.79180521440633,
,,,,10,0,10,0,,,,,,,,,,,,,,,,,,,,,,,,890.4982670992613,None,,,,,,,,,,,,,,,,,drink,new_b,white,10,135,105,876.166206099093,None,876.166206099093,None,1,7.49002149887383,876.166206099093,None,883.6829668991268,None,884.1983660999686,None,884.1983660999686,None,n,6.282101400196552,884.1983660999686,None,,,NC_31,001,2022_Mar_24_1203,ProdSingRedo,3.2.3,59.79180521440633,
,,,,11,0,11,0,,,,,,,,,,,,,,,,,,,,,,,,896.1813292987645,None,,,,,,,,,,,,,,,,,government,new_b,white,11,137,139,891.0283212997019,None,891.0283212997019,None,1,2.0598864015191793,891.0283212997019,None,893.1381056997925,None,893.6691814996302,None,893.6691814996302,None,n,2.4753783997148275,893.6691814996302,None,,,NC_31,001,2022_Mar_24_1203,ProdSingRedo,3.2.3,59.79180521440633,
,,,,12,0,12,0,,,,,,,,,,,,,,,,,,,,,,,,904.3003151994199,None,,,,,,,,,,,,,,,,,solution,aloud,white,12,32,294,896.6869867984205,None,896.6869867984205,None,2,5.177607599645853,896.6869867984205,None,901.8954240996391,None,902.40048699826,None,902.40048699826,None,n,1.8799717016518116,902.40048699826,None,,,NC_31,001,2022_Mar_24_1203,ProdSingRedo,3.2.3,59.79180521440633,
,,,,13,0,13,0,,,,,,,,,,,,,,,,,,,,,,,,913.9089322984219,None,,,,,,,,,,,,,,,,,review,new_b,white,13,121,263,904.8162697982043,None,904.8162697982043,None,2,5.936289900913835,904.8162697982043,None,910.8101160991937,None,911.3314403984696,None,911.3314403984696,None,n,2.5411292985081673,911.3314403984696,None,,,NC_31,001,2022_Mar_24_1203,ProdSingRedo,3.2.3,59.79180521440633,
,,,,14,0,14,0,,,,,,,,,,,,,,,,,,,,,,,,922.445860799402,None,,,,,,,,,,,,,,,,,piece,new_a,white,14,111,221,914.429675899446,None,914.429675899446,None,1,4.250655300915241,914.429675899446,None,918.7174941990525,None,919.2274495996535,None,919.2274495996535,None,n,3.1891264989972115,919.2274495996535,None,,,NC_31,001,2022_Mar_24_1203,ProdSingRedo,3.2.3,59.79180521440633,
,,,,15,0,15,0,,,,,,,,,,,,,,,,,,,,,,,,929.0978830996901,None,,,,,,,,,,,,,,,,,accident,new_b,white,15,122,0,922.9767356999218,None,922.9767356999218,None,1,2.4564516991376877,922.9767356999218,None,925.4736563991755,None,925.9974220991135,None,925.9974220991135,None,n,3.0590729992836714,925.9974220991135,None,,,NC_31,001,2022_Mar_24_1203,ProdSingRedo,3.2.3,59.79180521440633,
,,,,16,0,16,0,,,,,,,,,,,,,,,,,,,,,,,,938.2674957998097,None,,,,,,,,,,,,,,,,,front,new_b,white,16,149,134,929.6203209999949,None,929.6203209999949,None,1,5.772053800523281,929.6203209999949,None,935.4428000990301,None,935.9618403986096,None,935.9618403986096,None,n,2.262661499902606,935.9618403986096,None,,,NC_31,001,2022_Mar_24_1203,ProdSingRedo,3.2.3,59.79180521440633,
,,,,17,0,17,0,,,,,,,,,,,,,,,,,,,,,,,,945.0638430994004,None,,,,,,,,,,,,,,,,,break,new_b,white,17,144,26,938.7912082988769,None,938.7912082988769,None,4,4.649279000237584,938.7912082988769,None,943.5000978987664,None,944.0171628985554,None,944.0171628985554,None,f,1.0073012001812458,944.0171628985554,None,,,NC_31,001,2022_Mar_24_1203,ProdSingRedo,3.2.3,59.79180521440633,
,,,,18,0,18,0,,,,,,,,,,,,,,,,,,,,,,,,952.4990137983114,None,,,,,,,,,,,,,,,,,instrument,new_a,white,18,105,163,945.5936154983938,None,945.5936154983938,None,1,2.3987805992364883,945.5936154983938,None,948.0460182987154,None,948.5661007985473,None,948.5661007985473,None,n,3.898316200822592,948.5661007985473,None,,,NC_31,001,2022_Mar_24_1203,ProdSingRedo,3.2.3,59.79180521440633,
,,,,19,0,19,0,,,,,,,,,,,,,,,,,,,,,,,,957.4041386991739,None,,,,,,,,,,,,,,,,,message,new_a,white,19,100,189,953.0222200993448,None,953.0222200993448,None,1,2.5941268000751734,953.0222200993448,None,955.6576294992119,None,956.1828475985676,None,956.1828475985676,None,n,1.1933793015778065,956.1828475985676,None,,,NC_31,001,2022_Mar_24_1203,ProdSingRedo,3.2.3,59.79180521440633,
,,,,20,0,20,0,,,,,,,,,,,,,,,,,,,,,,,,973.6104473993182,None,,,,,,,,,,,,,,,,,travel,silent,white,20,62,338,957.9274397995323,None,957.9274397995323,None,4,11.225320300087333,957.9274397995323,None,969.2053972985595,None,969.7167023997754,None,969.7167023997754,None,f,3.8674906007945538,969.7167023997754,None,,,NC_31,001,2022_Mar_24_1203,ProdSingRedo,3.2.3,59.79180521440633,
,,,,21,0,21,0,,,,,,,,,,,,,,,,,,,,,,,,981.4466359987855,None,,,,,,,,,,,,,,,,,broke,new_b,white,21,140,32,974.127346098423,None,974.127346098423,None,5,5.368922600522637,974.127346098423,None,979.5457961000502,None,980.0660834982991,None,980.0660834982991,None,f,1.3424684014171362,980.0660834982991,None,,,NC_31,001,2022_Mar_24_1203,ProdSingRedo,3.2.3,59.79180521440633,
,,,,22,0,22,0,,,,,,,,,,,,,,,,,,,,,,,,991.4352855999023,None,,,,,,,,,,,,,,,,,display,new_a,white,22,119,98,981.9735831990838,None,981.9735831990838,None,3,5.77049140073359,981.9735831990838,None,987.7865311987698,None,988.3004826996475,None,988.3004826996475,None,n,3.0918204989284277,988.3004826996475,None,,,NC_31,001,2022_Mar_24_1203,ProdSingRedo,3.2.3,59.79180521440633,
,,,,23,0,23,0,,,,,,,,,,,,,,,,,,,,,,,,999.5824031997472,None,,,,,,,,,,,,,,,,,frank,aloud,white,23,52,133,991.966272899881,None,991.966272899881,None,5,5.906127100810409,991.966272899881,None,997.9149253983051,None,998.4377825986594,None,998.4377825986594,None,r,1.1145568005740643,998.4377825986594,None,,,NC_31,001,2022_Mar_24_1203,ProdSingRedo,3.2.3,59.79180521440633,
,,,,24,0,24,0,,,,,,,,,,,,,,,,,,,,,,,,1005.2881243992597,None,,,,,,,,,,,,,,,,,period,new_c,white,24,153,217,1000.1061329990625,None,1000.1061329990625,None,5,3.5502875987440348,1000.1061329990625,None,1003.695100998506,None,1004.2144938986748,None,1004.2144938986748,None,r,1.03378039970994,1004.2144938986748,None,,,NC_31,001,2022_Mar_24_1203,ProdSingRedo,3.2.3,59.79180521440633,
,,,,25,0,25,0,,,,,,,,,,,,,,,,,,,,,,,,1009.421509699896,None,,,,,,,,,,,,,,,,,trash,aloud,white,25,51,337,1005.8082203995436,None,1005.8082203995436,None,5,2.2966176997870207,1005.8082203995436,None,1008.1522881984711,None,1008.6708024982363,None,1008.6708024982363,None,r,0.7056165002286434,1008.6708024982363,None,,,NC_31,001,2022_Mar_24_1203,ProdSingRedo,3.2.3,59.79180521440633,
,,,,26,0,26,0,,,,,,,,,,,,,,,,,,,,,,,,1019.5292893983424,None,,,,,,,,,,,,,,,,,power,sing,white,26,13,230,1009.941602198407,None,1009.941602198407,None,2,6.834247000515461,1009.941602198407,None,1016.8126983996481,None,1017.32327519916,None,1017.32327519916,None,n,2.1728278007358313,1017.32327519916,None,,,NC_31,001,2022_Mar_24_1203,ProdSingRedo,3.2.3,59.79180521440633,
,,,,27,0,27,0,,,,,,,,,,,,,,,,,,,,,,,,1025.5158352982253,None,,,,,,,,,,,,,,,,,subject,aloud,white,27,49,312,1020.0580303985626,None,1020.0580303985626,None,6,3.678270500153303,1020.0580303985626,None,1023.784585699439,None,1024.3057255987078,None,1024.3057255987078,None,r,1.1746213007718325,1024.3057255987078,None,,,NC_31,001,2022_Mar_24_1203,ProdSingRedo,3.2.3,59.79180521440633,
,,,,28,0,28,0,,,,,,,,,,,,,,,,,,,,,,,,1034.4204899985343,None,,,,,,,,,,,,,,,,,executive,silent,white,28,81,122,1026.0528423991054,None,1026.0528423991054,None,5,3.6914211995899677,1026.0528423991054,None,1029.809183999896,None,1030.3213338982314,None,1030.3213338982314,None,f,4.070917598903179,1030.3213338982314,None,,,NC_31,001,2022_Mar_24_1203,ProdSingRedo,3.2.3,59.79180521440633,
,,,,29,0,29,0,,,,,,,,,,,,,,,,,,,,,,,,1039.7870426997542,None,,,,,,,,,,,,,,,,,growth,sing,white,29,3,144,1034.9425075985491,None,1034.9425075985491,None,6,3.1936006005853415,1034.9425075985491,None,1038.1826705988497,None,1038.6948005985469,None,1038.6948005985469,None,r,1.0653623007237911,1038.6948005985469,None,,,NC_31,001,2022_Mar_24_1203,ProdSingRedo,3.2.3,59.79180521440633,
,,,,30,0,30,0,,,,,,,,,,,,,,,,,,,,,,,,1049.8737653996795,None,,,,,,,,,,,,,,,,,place,silent,white,30,65,222,1040.310536198318,None,1040.310536198318,None,3,4.5459361001849174,1040.310536198318,None,1044.900025198236,None,1045.4210269991308,None,1045.4210269991308,None,n,4.41120140068233,1045.4210269991308,None,,,NC_31,001,2022_Mar_24_1203,ProdSingRedo,3.2.3,59.79180521440633,
,,,,31,0,31,0,,,,,,,,,,,,,,,,,,,,,,,,1056.669865898788,None,,,,,,,,,,,,,,,,,marriage,new_b,white,31,142,179,1050.3977177999914,None,1050.3977177999914,None,3,4.594831999391317,1050.3977177999914,None,1055.04087619856,None,1055.5599570982158,None,1055.5599570982158,None,n,1.080460999161005,1055.5599570982158,None,,,NC_31,001,2022_Mar_24_1203,ProdSingRedo,3.2.3,59.79180521440633,
,,,,32,0,32,0,,,,,,,,,,,,,,,,,,,,,,,,1062.801873298362,None,,,,,,,,,,,,,,,,,impact,aloud,white,32,44,157,1057.194536499679,None,1057.194536499679,None,5,2.757942099124193,1057.194536499679,None,1059.993953898549,None,1060.5104833990335,None,1060.5104833990335,None,r,2.2576652988791466,1060.5104833990335,None,,,NC_31,001,2022_Mar_24_1203,ProdSingRedo,3.2.3,59.79180521440633,
,,,,33,0,33,0,,,,,,,,,,,,,,,,,,,,,,,,1067.5294810999185,None,,,,,,,,,,,,,,,,,literature,new_c,white,33,168,173,1063.3352961987257,None,1063.3352961987257,None,1,2.160971399396658,1063.3352961987257,None,1065.5542877987027,None,1066.075500998646,None,1066.075500998646,None,n,1.4364350009709597,1066.075500998646,None,,,NC_31,001,2022_Mar_24_1203,ProdSingRedo,3.2.3,59.79180521440633,
,,,,34,0,34,0,,,,,,,,,,,,,,,,,,,,,,,,1078.2899445984513,None,,,,,,,,,,,,,,,,,union,sing,white,34,5,344,1068.0598788987845,None,1068.0598788987845,None,2,7.316574700176716,1068.0598788987845,None,1075.4119034986943,None,1075.9241015985608,None,1075.9241015985608,None,n,2.332066500559449,1075.9241015985608,None,,,NC_31,001,2022_Mar_24_1203,ProdSingRedo,3.2.3,59.79180521440633,
,,,,35,0,35,0,,,,,,,,,,,,,,,,,,,,,,,,1089.1766216997057,None,,,,,,,,,,,,,,,,,service,new_a,white,35,116,280,1078.818493399769,None,1078.818493399769,None,3,8.20554899983108,1078.818493399769,None,1087.0779629983008,None,1087.5914625991136,None,1087.5914625991136,None,n,1.5529287997633219,1087.5914625991136,None,,,NC_31,001,2022_Mar_24_1203,ProdSingRedo,3.2.3,59.79180521440633,
,,,,36,0,36,0,,,,,,,,,,,,,,,,,,,,,,,,1095.5223283991218,None,,,,,,,,,,,,,,,,,strength,new_b,white,36,128,310,1089.7021291982383,None,1089.7021291982383,None,1,2.48993849940598,1089.7021291982383,None,1092.2397724986076,None,1092.7703109998256,None,1092.7703109998256,None,n,2.7179147992283106,1092.7703109998256,None,,,NC_31,001,2022_Mar_24_1203,ProdSingRedo,3.2.3,59.79180521440633,
,,,,37,0,37,0,,,,,,,,,,,,,,,,,,,,,,,,1104.0896520987153,None,,,,,,,,,,,,,,,,,center,sing,white,37,17,44,1096.0466847997159,None,1096.0466847997159,None,2,6.505340799689293,1096.0466847997159,None,1102.6009514983743,None,1103.1209264993668,None,1103.1209264993668,None,n,0.9351355992257595,1103.1209264993668,None,,,NC_31,001,2022_Mar_24_1203,ProdSingRedo,3.2.3,59.79180521440633,
,,,,38,0,38,0,,,,,,,,,,,,,,,,,,,,,,,,1111.4097545985132,None,,,,,,,,,,,,,,,,,sound,sing,white,38,0,295,1104.6162423994392,None,1104.6162423994392,None,1,1.8877028990536928,1104.6162423994392,None,1106.549566699192,None,1107.0482136998326,None,1107.0482136998326,None,n,4.328029500320554,1107.0482136998326,None,,,NC_31,001,2022_Mar_24_1203,ProdSingRedo,3.2.3,59.79180521440633,
,,,,39,0,39,0,,,,,,,,,,,,,,,,,,,,,,,,1116.8157629985362,None,,,,,,,,,,,,,,,,,health,new_c,white,39,178,149,1111.936752198264,None,1111.936752198264,None,1,3.3673954997211695,1111.936752198264,None,1115.3488399982452,None,1115.8751707989722,None,1115.8751707989722,None,n,0.9165848009288311,1115.8751707989722,None,,,NC_31,001,2022_Mar_24_1203,ProdSingRedo,3.2.3,59.79180521440633,
,,,,40,0,40,0,,,,,,,,,,,,,,,,,,,,,,,,1121.8137975987047,None,,,,,,,,,,,,,,,,,watch,silent,white,40,70,351,1117.3319055996835,None,1117.3319055996835,None,1,2.524148501455784,1117.3319055996835,None,1119.9040357992053,None,1120.4247241988778,None,1120.4247241988778,None,n,1.3515058010816574,1120.4247241988778,None,,,NC_31,001,2022_Mar_24_1203,ProdSingRedo,3.2.3,59.79180521440633,
,,,,41,0,41,0,,,,,,,,,,,,,,,,,,,,,,,,1128.380079999566,None,,,,,,,,,,,,,,,,,tough,silent,white,41,79,333,1122.334269599989,None,1122.334269599989,None,4,4.433681199327111,1122.334269599989,None,1126.8196461983025,None,1127.3471393994987,None,1127.3471393994987,None,f,0.9889569003134966,1127.3471393994987,None,,,NC_31,001,2022_Mar_24_1203,ProdSingRedo,3.2.3,59.79180521440633,
,,,,42,0,42,0,,,,,,,,,,,,,,,,,,,,,,,,1133.0762799996883,None,,,,,,,,,,,,,,,,,mechanical,new_a,white,42,114,185,1128.9025307986885,None,1128.9025307986885,None,1,1.7855923995375633,1128.9025307986885,None,1130.7386135999113,None,1131.2644298989326,None,1131.2644298989326,None,f,1.775535499677062,1131.2644298989326,None,,,NC_31,001,2022_Mar_24_1203,ProdSingRedo,3.2.3,59.79180521440633,
,,,,43,0,43,0,,,,,,,,,,,,,,,,,,,,,,,,1143.5577743984759,None,,,,,,,,,,,,,,,,,mayor,new_c,white,43,158,183,1133.6029137987643,None,1133.6029137987643,None,5,8.269095400348306,1133.6029137987643,None,1141.9224771000445,None,1142.444110399112,None,1142.444110399112,None,f,1.0760316010564566,1142.444110399112,None,,,NC_31,001,2022_Mar_24_1203,ProdSingRedo,3.2.3,59.79180521440633,
,,,,44,0,44,0,,,,,,,,,,,,,,,,,,,,,,,,1150.163952799514,None,,,,,,,,,,,,,,,,,interior,aloud,white,44,59,164,1144.0804937984794,None,1144.0804937984794,None,6,4.327731700614095,1144.0804937984794,None,1148.458395799622,None,1148.977079698816,None,1148.977079698816,None,r,1.1510893013328314,1148.977079698816,None,,,NC_31,001,2022_Mar_24_1203,ProdSingRedo,3.2.3,59.79180521440633,
,,,,45,0,45,0,,,,,,,,,,,,,,,,,,,,,,,,1157.8108374997973,None,,,,,,,,,,,,,,,,,worker,silent,white,45,69,356,1150.6850768998265,None,1150.6850768998265,None,4,5.410963099449873,1150.6850768998265,None,1156.1395334992558,None,1156.6654825992882,None,1156.6654825992882,None,f,1.11866569891572,1156.6654825992882,None,,,NC_31,001,2022_Mar_24_1203,ProdSingRedo,3.2.3,59.79180521440633,
,,,,46,0,46,0,,,,,,,,,,,,,,,,,,,,,,,,1163.9983747992665,None,,,,,,,,,,,,,,,,,suggestion,aloud,white,46,31,314,1158.3409122992307,None,1158.3409122992307,None,5,4.547036699950695,1158.3409122992307,None,1162.9478908982128,None,1163.4604081995785,None,1163.4604081995785,None,f,0.499966898933053,1163.4604081995785,None,,,NC_31,001,2022_Mar_24_1203,ProdSingRedo,3.2.3,59.79180521440633,
,,,,47,0,47,0,,,,,,,,,,,,,,,,,,,,,,,,1173.2004888989031,None,,,,,,,,,,,,,,,,,equipment,new_b,white,47,129,116,1164.5241730995476,None,1164.5241730995476,None,5,6.659784300252795,1164.5241730995476,None,1171.2320418991148,None,1171.7554200999439,None,1171.7554200999439,None,f,1.404816199094057,1171.7554200999439,None,,,NC_31,001,2022_Mar_24_1203,ProdSingRedo,3.2.3,59.79180521440633,
,,,,48,0,48,0,,,,,,,,,,,,,,,,,,,,,,,,1184.097292399034,None,,,,,,,,,,,,,,,,,bright,silent,white,48,88,29,1173.7344454992563,None,1173.7344454992563,None,4,7.8822223003953695,1173.7344454992563,None,1181.6619281992316,None,1182.17870509997,None,1182.17870509997,None,f,1.8772813007235527,1182.17870509997,None,,,NC_31,001,2022_Mar_24_1203,ProdSingRedo,3.2.3,59.79180521440633,
,,,,49,0,49,0,,,,,,,,,,,,,,,,,,,,,,,,1198.36247699894,None,,,,,,,,,,,,,,,,,write,sing,white,49,18,358,1184.6243191994727,None,1184.6243191994727,None,4,11.767633000388741,1184.6243191994727,None,1196.435001598671,None,1196.937156399712,None,1196.937156399712,None,f,1.3988378010690212,1196.937156399712,None,,,NC_31,001,2022_Mar_24_1203,ProdSingRedo,3.2.3,59.79180521440633,
,,,,50,0,50,0,,,,,,,,,,,,,,,,,,,,,,,,1202.797393899411,None,,,,,,,,,,,,,,,,,thick,new_a,white,50,110,327,1198.8875309992582,None,1198.8875309992582,None,1,1.632464999333024,1198.8875309992582,None,1200.564663298428,None,1201.0792217999697,None,1201.0792217999697,None,n,1.688910599797964,1201.0792217999697,None,,,NC_31,001,2022_Mar_24_1203,ProdSingRedo,3.2.3,59.79180521440633,
,,,,51,0,51,0,,,,,,,,,,,,,,,,,,,,,,,,1206.3631186988205,None,,,,,,,,,,,,,,,,,smell,new_a,white,51,98,291,1203.3170690983534,None,1203.3170690983534,None,1,1.6267275996506214,1203.3170690983534,None,1204.989380698651,None,1205.510217698291,None,1205.510217698291,None,n,0.8261037990450859,1205.510217698291,None,,,NC_31,001,2022_Mar_24_1203,ProdSingRedo,3.2.3,59.79180521440633,
,,,,52,0,52,0,,,,,,,,,,,,,,,,,,,,,,,,1212.3842928986996,None,,,,,,,,,,,,,,,,,comfort,sing,white,52,4,59,1206.878404499963,None,1206.878404499963,None,2,3.9454940985888243,1206.878404499963,None,1210.8786263987422,None,1211.3973766993731,None,1211.3973766993731,None,n,0.9547518994659185,1211.3973766993731,None,,,NC_31,001,2022_Mar_24_1203,ProdSingRedo,3.2.3,59.79180521440633,
,,,,53,0,53,0,,,,,,,,,,,,,,,,,,,,,,,,1229.1640556994826,None,,,,,,,,,,,,,,,,,clean,aloud,white,53,45,51,1212.8925190996379,None,1212.8925190996379,None,4,9.355472100898623,1212.8925190996379,None,1222.2909857984632,None,1222.8039552997798,None,1222.8039552997798,None,f,6.323956901207566,1222.8039552997798,None,,,NC_31,001,2022_Mar_24_1203,ProdSingRedo,3.2.3,59.79180521440633,
,,,,54,0,54,0,,,,,,,,,,,,,,,,,,,,,,,,1234.4475233983248,None,,,,,,,,,,,,,,,,,goose,aloud,white,54,33,138,1229.6902888994664,None,1229.6902888994664,None,6,1.9655071999877691,1229.6902888994664,None,1231.6975804995745,None,1232.2176371999085,None,1232.2176371999085,None,r,2.1903403010219336,1232.2176371999085,None,,,NC_31,001,2022_Mar_24_1203,ProdSingRedo,3.2.3,59.79180521440633,
,,,,55,0,55,0,,,,,,,,,,,,,,,,,,,,,,,,1239.7153315991163,None,,,,,,,,,,,,,,,,,theme,aloud,white,55,54,326,1234.9695882983506,None,1234.9695882983506,None,5,3.150711100548506,1234.9695882983506,None,1238.1570872999728,None,1238.6791647989303,None,1238.6791647989303,None,f,1.0005488991737366,1238.6791647989303,None,,,NC_31,001,2022_Mar_24_1203,ProdSingRedo,3.2.3,59.79180521440633,
,,,,56,0,56,0,,,,,,,,,,,,,,,,,,,,,,,,1246.260582799092,None,,,,,,,,,,,,,,,,,light,new_c,white,56,160,171,1240.228778898716,None,1240.228778898716,None,2,3.2190863993018866,1240.228778898716,None,1243.484826799482,None,1244.0007316991687,None,1244.0007316991687,None,n,2.238791199401021,1244.0007316991687,None,,,NC_31,001,2022_Mar_24_1203,ProdSingRedo,3.2.3,59.79180521440633,
,,,,57,0,57,0,,,,,,,,,,,,,,,,,,,,,,,,1254.4349104985595,None,,,,,,,,,,,,,,,,,corner,silent,white,57,82,69,1246.7865138985217,None,1246.7865138985217,None,4,3.28528350032866,1246.7865138985217,None,1250.1111378986388,None,1250.6311123985797,None,1250.6311123985797,None,r,3.776580998674035,1250.6311123985797,None,,,NC_31,001,2022_Mar_24_1203,ProdSingRedo,3.2.3,59.79180521440633,
,,,,58,0,58,0,,,,,,,,,,,,,,,,,,,,,,,,1264.4294211994857,None,,,,,,,,,,,,,,,,,material,silent,white,58,86,182,1254.9596983995289,None,1254.9596983995289,None,4,5.568200500681996,1254.9596983995289,None,1260.576381098479,None,1261.1051560994238,None,1261.1051560994238,None,f,3.3026685006916523,1261.1051560994238,None,,,NC_31,001,2022_Mar_24_1203,ProdSingRedo,3.2.3,59.79180521440633,
,,,,59,0,59,0,,,,,,,,,,,,,,,,,,,,,,,,1269.2330424990505,None,,,,,,,,,,,,,,,,,trend,new_a,white,59,109,340,1264.9539418984205,None,1264.9539418984205,None,1,2.045941499993205,1264.9539418984205,None,1267.046050298959,None,1267.564170198515,None,1267.564170198515,None,n,1.6355705000460148,1267.564170198515,None,,,NC_31,001,2022_Mar_24_1203,ProdSingRedo,3.2.3,59.79180521440633,
,,,,60,0,60,0,,,,,,,,,,,,,,,,,,,,,,,,1272.6185426991433,None,,,,,,,,,,,,,,,,,south,new_b,white,60,120,296,1269.7635224983096,None,1269.7635224983096,None,1,1.4441988002508879,1269.7635224983096,None,1271.2465265989304,None,1271.7691667992622,None,1271.7691667992622,None,n,0.8145419992506504,1271.7691667992622,None,,,NC_31,001,2022_Mar_24_1203,ProdSingRedo,3.2.3,59.79180521440633,
,,,,61,0,61,0,,,,,,,,,,,,,,,,,,,,,,,,1283.9189322981983,None,,,,,,,,,,,,,,,,,under,sing,white,61,7,343,1273.1405892986804,None,1273.1405892986804,None,2,4.91581760160625,1273.1405892986804,None,1278.0976017992944,None,1278.6182227991521,None,1278.6182227991521,None,n,5.2614344991743565,1278.6182227991521,None,,,NC_31,001,2022_Mar_24_1203,ProdSingRedo,3.2.3,59.79180521440633,
,,,,62,0,62,0,,,,,,,,,,,,,,,,,,,,,,,,1301.6191882994026,None,,,,,,,,,,,,,,,,,reading,silent,white,62,73,254,1284.4470424987376,None,1284.4470424987376,None,4,15.440812800079584,1284.4470424987376,None,1299.9368258994073,None,1300.4563758987933,None,1300.4563758987933,None,f,1.1353794988244772,1300.4563758987933,None,,,NC_31,001,2022_Mar_24_1203,ProdSingRedo,3.2.3,59.79180521440633,
,,,,63,0,63,0,,,,,,,,,,,,,,,,,,,,,,,,1305.6523934993893,None,,,,,,,,,,,,,,,,,harmony,new_c,white,63,163,148,1302.1481987982988,None,1302.1481987982988,None,1,1.6116308998316526,1302.1481987982988,None,1303.808198099956,None,1304.324451699853,None,1304.324451699853,None,n,1.3001833017915487,1304.324451699853,None,,,NC_31,001,2022_Mar_24_1203,ProdSingRedo,3.2.3,59.79180521440633,
,,,,64,0,64,0,,,,,,,,,,,,,,,,,,,,,,,,1317.7182538993657,None,,,,,,,,,,,,,,,,,month,new_b,white,64,148,193,1306.1779954992235,None,1306.1779954992235,None,1,9.053671499714255,1306.1779954992235,None,1315.280949799344,None,1315.8011654987931,None,1315.8011654987931,None,n,1.8783433008939028,1315.8011654987931,None,,,NC_31,001,2022_Mar_24_1203,ProdSingRedo,3.2.3,59.79180521440633,
,,,,65,0,65,0,,,,,,,,,,,,,,,,,,,,,,,,1321.9514516983181,None,,,,,,,,,,,,,,,,,poetry,new_b,white,65,138,225,1318.2482278998941,None,1318.2482278998941,None,1,1.8075019996613264,1318.2482278998941,None,1320.098754098639,None,1320.6238547991961,None,1320.6238547991961,None,n,1.2958678994327784,1320.6238547991961,None,,,NC_31,001,2022_Mar_24_1203,ProdSingRedo,3.2.3,59.79180521440633,
,,,,66,0,66,0,,,,,,,,,,,,,,,,,,,,,,,,1328.576386699453,None,,,,,,,,,,,,,,,,,balance,new_b,white,66,146,17,1322.4859991986305,None,1322.4859991986305,None,2,3.849558500573039,1322.4859991986305,None,1326.387112800032,None,1326.9109779000282,None,1326.9109779000282,None,n,1.6245213989168406,1326.9109779000282,None,,,NC_31,001,2022_Mar_24_1203,ProdSingRedo,3.2.3,59.79180521440633,
,,,,67,0,67,0,,,,,,,,,,,,,,,,,,,,,,,,1336.876483598724,None,,,,,,,,,,,,,,,,,principal,new_c,white,67,170,236,1329.0964348986745,None,1329.0964348986745,None,3,4.487183500081301,1329.0964348986745,None,1333.6374866999686,None,1334.1560059990734,None,1334.1560059990734,None,f,2.6836655996739864,1334.1560059990734,None,,,NC_31,001,2022_Mar_24_1203,ProdSingRedo,3.2.3,59.79180521440633,
,,,,68,0,68,0,,,,,,,,,,,,,,,,,,,,,,,,1343.6219500992447,None,,,,,,,,,,,,,,,,,quarter,silent,white,68,83,246,1337.3993505984545,None,1337.3993505984545,None,4,3.4562395997345448,1337.3993505984545,None,1340.9046581983566,None,1341.4254008997232,None,1341.4254008997232,None,f,2.1661721002310514,1341.4254008997232,None,,,NC_31,001,2022_Mar_24_1203,ProdSingRedo,3.2.3,59.79180521440633,
,,,,69,0,69,0,,,,,,,,,,,,,,,,,,,,,,,,1350.7127046994865,None,,,,,,,,,,,,,,,,,relation,new_b,white,69,126,257,1344.1455536987633,None,1344.1455536987633,None,3,4.9579782001674175,1344.1455536987633,None,1349.1577025987208,None,1349.6829437986016,None,1349.6829437986016,None,n,0.9886745996773243,1349.6829437986016,None,,,NC_31,001,2022_Mar_24_1203,ProdSingRedo,3.2.3,59.79180521440633,
,,,,70,0,70,0,,,,,,,,,,,,,,,,,,,,,,,,1357.677283199504,None,,,,,,,,,,,,,,,,,column,new_b,white,70,132,57,1351.2309840992093,None,1351.2309840992093,None,1,4.656555600464344,1351.2309840992093,None,1355.9401180986315,None,1356.459289798513,None,1356.459289798513,None,n,1.1802957002073526,1356.459289798513,None,,,NC_31,001,2022_Mar_24_1203,ProdSingRedo,3.2.3,59.79180521440633,
,,,,71,0,71,0,,,,,,,,,,,,,,,,,,,,,,,,1363.2556281983852,None,,,,,,,,,,,,,,,,,match,sing,white,71,20,181,1358.2004587985575,None,1358.2004587985575,None,4,3.3990775998681784,1358.2004587985575,None,1361.6550223995,None,1362.1741115991026,None,1362.1741115991026,None,f,1.0573840998113155,1362.1741115991026,None,,,NC_31,001,2022_Mar_24_1203,ProdSingRedo,3.2.3,59.79180521440633,
,,,,72,0,72,0,,,,,,,,,,,,,,,,,,,,,,,,1368.4767953995615,None,,,,,,,,,,,,,,,,,short,new_a,white,72,91,285,1363.7801777999848,None,1363.7801777999848,None,1,3.2033645007759333,1363.7801777999848,None,1367.0354012995958,None,1367.5533162988722,None,1367.5533162988722,None,n,0.8864075001329184,1367.5533162988722,None,,,NC_31,001,2022_Mar_24_1203,ProdSingRedo,3.2.3,59.79180521440633,
,,,,73,0,73,0,,,,,,,,,,,,,,,,,,,,,,,,1373.2450253982097,None,,,,,,,,,,,,,,,,,quiet,new_c,white,73,162,249,1369.0043504983187,None,1369.0043504983187,None,5,2.283413600176573,1369.0043504983187,None,1371.333038598299,None,1371.8606904000044,None,1371.8606904000044,None,f,1.346901100128889,1371.8606904000044,None,,,NC_31,001,2022_Mar_24_1203,ProdSingRedo,3.2.3,59.79180521440633,
,,,,74,0,74,0,,,,,,,,,,,,,,,,,,,,,,,,1377.2302178982645,None,,,,,,,,,,,,,,,,,recall,new_a,white,74,107,255,1373.7700393982232,None,1373.7700393982232,None,1,2.078135199844837,1373.7700393982232,None,1375.8881457988173,None,1376.4125162996352,None,1376.4125162996352,None,n,0.7946633007377386,1376.4125162996352,None,,,NC_31,001,2022_Mar_24_1203,ProdSingRedo,3.2.3,59.79180521440633,
,,,,75,0,75,0,,,,,,,,,,,,,,,,,,,,,,,,1383.1750480998307,None,,,,,,,,,,,,,,,,,death,aloud,white,75,38,86,1377.7479856982827,None,1377.7479856982827,None,6,2.4596416987478733,1377.7479856982827,None,1380.2485397998244,None,1380.7650063987821,None,1380.7650063987821,None,r,2.3785523008555174,1380.7650063987821,None,,,NC_31,001,2022_Mar_24_1203,ProdSingRedo,3.2.3,59.79180521440633,
,,,,76,0,76,0,,,,,,,,,,,,,,,,,,,,,,,,1387.9567276984453,None,,,,,,,,,,,,,,,,,silence,silent,white,76,64,288,1383.7002828996629,None,1383.7002828996629,None,6,2.51536319963634,1383.7002828996629,None,1386.2539500985295,None,1386.7737076990306,None,1386.7737076990306,None,r,1.145940100774169,1386.7737076990306,None,,,NC_31,001,2022_Mar_24_1203,ProdSingRedo,3.2.3,59.79180521440633,
,,,,77,0,77,0,,,,,,,,,,,,,,,,,,,,,,,,1400.0590926986188,None,,,,,,,,,,,,,,,,,swift,new_b,white,77,125,320,1388.4914463981986,None,1388.4914463981986,None,1,4.428159700706601,1388.4914463981986,None,1392.9790649991482,None,1393.4946633987129,None,1393.4946633987129,None,n,6.537080999463797,1393.4946633987129,None,,,NC_31,001,2022_Mar_24_1203,ProdSingRedo,3.2.3,59.79180521440633,
,,,,78,0,78,0,,,,,,,,,,,,,,,,,,,,,,,,1404.1298806983978,None,,,,,,,,,,,,,,,,,shear,new_a,white,78,113,283,1400.5806248988956,None,1400.5806248988956,None,1,1.8748036995530128,1400.5806248988956,None,1402.5104597993195,None,1403.027837999165,None,1403.027837999165,None,n,1.0598428007215261,1403.027837999165,None,,,NC_31,001,2022_Mar_24_1203,ProdSingRedo,3.2.3,59.79180521440633,
,,,,79,0,79,0,,,,,,,,,,,,,,,,,,,,,,,,1410.4783392995596,None,,,,,,,,,,,,,,,,,present,new_a,white,79,118,231,1404.6506124995649,None,1404.6506124995649,None,4,4.340812999755144,1404.6506124995649,None,1409.0365861989558,None,1409.556970698759,None,1409.556970698759,None,f,0.8825851995497942,1409.556970698759,None,,,NC_31,001,2022_Mar_24_1203,ProdSingRedo,3.2.3,59.79180521440633,
,,,,80,0,80,0,,,,,,,,,,,,,,,,,,,,,,,,1416.2332926988602,None,,,,,,,,,,,,,,,,,public,new_b,white,80,131,244,1411.0064290985465,None,1411.0064290985465,None,4,4.129141500219703,1411.0064290985465,None,1415.1900979988277,None,1415.7143832985312,None,1415.7143832985312,None,f,0.48512439988553524,1415.7143832985312,None,,,NC_31,001,2022_Mar_24_1203,ProdSingRedo,3.2.3,59.79180521440633,
,,,,81,0,81,0,,,,,,,,,,,,,,,,,,,,,,,,1422.4471923988312,None,,,,,,,,,,,,,,,,,general,new_c,white,81,179,135,1416.7518642991781,None,1416.7518642991781,None,4,4.775767499580979,1416.7518642991781,None,1421.578249398619,None,1422.0865127984434,None,1422.0865127984434,None,f,0.3210105001926422,1422.0865127984434,None,,,NC_31,001,2022_Mar_24_1203,ProdSingRedo,3.2.3,59.79180521440633,
,,,,82,0,82,0,,,,,,,,,,,,,,,,,,,,,,,,1434.060677798465,None,,,,,,,,,,,,,,,,,provision,silent,white,82,75,243,1422.9705125000328,None,1422.9705125000328,None,3,6.516896700486541,1422.9705125000328,None,1429.5415844991803,None,1430.0660669989884,None,1430.0660669989884,None,n,3.9654073994606733,1430.0660669989884,None,,,NC_31,001,2022_Mar_24_1203,ProdSingRedo,3.2.3,59.79180521440633,
,,,,83,0,83,0,,,,,,,,,,,,,,,,,,,,,,,,1449.4212733991444,None,,,,,,,,,,,,,,,,,judge,new_a,white,83,95,166,1434.593730399385,None,1434.593730399385,None,4,11.56580850109458,1434.593730399385,None,1446.212077498436,None,1446.735507298261,None,1446.735507298261,None,f,2.6640670988708735,1446.735507298261,None,,,NC_31,001,2022_Mar_24_1203,ProdSingRedo,3.2.3,59.79180521440633,
,,,,84,0,84,0,,,,,,,,,,,,,,,,,,,,,,,,1455.7618823982775,None,,,,,,,,,,,,,,,,,length,new_a,white,84,112,169,1449.9585954993963,None,1449.9585954993963,None,2,3.2488509006798267,1449.9585954993963,None,1453.2581003997475,None,1453.7810082994401,None,1453.7810082994401,None,n,1.9544124994426966,1453.7810082994401,None,,,NC_31,001,2022_Mar_24_1203,ProdSingRedo,3.2.3,59.79180521440633,
,,,,85,0,85,0,,,,,,,,,,,,,,,,,,,,,,,,1460.0788016989827,None,,,,,,,,,,,,,,,,,guard,aloud,white,85,34,145,1456.2857436984777,None,1456.2857436984777,None,6,2.1136150006204844,1456.2857436984777,None,1458.4384645987302,None,1458.9631605986506,None,1458.9631605986506,None,r,1.084315499290824,1458.9631605986506,None,,,NC_31,001,2022_Mar_24_1203,ProdSingRedo,3.2.3,59.79180521440633,
,,,,86,0,86,0,,,,,,,,,,,,,,,,,,,,,,,,1466.0916452985257,None,,,,,,,,,,,,,,,,,stranger,new_c,white,86,174,309,1460.609168998897,None,1460.609168998897,None,2,3.046203799545765,1460.609168998897,None,1463.7110119983554,None,1464.2340834997594,None,1464.2340834997594,None,n,1.8290781993418932,1464.2340834997594,None,,,NC_31,001,2022_Mar_24_1203,ProdSingRedo,3.2.3,59.79180521440633,
,,,,87,0,87,0,,,,,,,,,,,,,,,,,,,,,,,,1471.0358792990446,None,,,,,,,,,,,,,,,,,career,silent,white,87,60,42,1466.6089263986796,None,1466.6089263986796,None,4,2.622443100437522,1466.6089263986796,None,1469.279631698504,None,1469.8001391999424,None,1469.8001391999424,None,f,1.1991958003491163,1469.8001391999424,None,,,NC_31,001,2022_Mar_24_1203,ProdSingRedo,3.2.3,59.79180521440633,
,,,,88,0,88,0,,,,,,,,,,,,,,,,,,,,,,,,1478.336197098717,None,,,,,,,,,,,,,,,,,voice,new_b,white,88,123,348,1471.5538711994886,None,1471.5538711994886,None,1,3.9178023990243673,1471.5538711994886,None,1475.5103146992624,None,1476.0314646996558,None,1476.0314646996558,None,n,2.2638035006821156,1476.0314646996558,None,,,NC_31,001,2022_Mar_24_1203,ProdSingRedo,3.2.3,59.79180521440633,
,,,,89,0,89,0,,,,,,,,,,,,,,,,,,,,,,,,1484.6526094991714,None,,,,,,,,,,,,,,,,,figure,aloud,white,89,36,128,1478.861433999613,None,1478.861433999613,None,4,3.905917000025511,1478.861433999613,None,1482.8121181987226,None,1483.336169499904,None,1483.336169499904,None,f,1.2712616007775068,1483.336169499904,None,,,NC_31,001,2022_Mar_24_1203,ProdSingRedo,3.2.3,59.79180521440633,
,,,,90,0,90,0,,,,,,,,,,,,,,,,,,,,,,,,1489.4031992983073,None,,,,,,,,,,,,,,,,,colonel,aloud,white,90,30,55,1485.1721303984523,None,1485.1721303984523,None,6,2.003157200291753,1485.1721303984523,None,1487.2210480999202,None,1487.7209480982274,None,1487.7209480982274,None,r,1.6463332008570433,1487.7209480982274,None,,,NC_31,001,2022_Mar_24_1203,ProdSingRedo,3.2.3,59.79180521440633,
,,,,91,0,91,0,,,,,,,,,,,,,,,,,,,,,,,,1493.5321172997355,None,,,,,,,,,,,,,,,,,character,new_c,white,91,172,46,1489.9253688994795,None,1489.9253688994795,None,1,1.6900091003626585,1489.9253688994795,None,1491.6610400993377,None,1492.1962703987956,None,1492.1962703987956,None,n,1.307404201477766,1492.1962703987956,None,,,NC_31,001,2022_Mar_24_1203,ProdSingRedo,3.2.3,59.79180521440633,
,,,,92,0,92,0,,,,,,,,,,,,,,,,,,,,,,,,1500.4188824985176,None,,,,,,,,,,,,,,,,,discussion,silent,white,92,74,96,1494.0612144991755,None,1494.0612144991755,None,5,4.658317601308227,1494.0612144991755,None,1498.7658842988312,None,1499.2859763987362,None,1499.2859763987362,None,f,1.097240200266242,1499.2859763987362,None,,,NC_31,001,2022_Mar_24_1203,ProdSingRedo,3.2.3,59.79180521440633,
,,,,93,0,93,0,,,,,,,,,,,,,,,,,,,,,,,,1505.8392073996365,None,,,,,,,,,,,,,,,,,crowd,new_c,white,93,177,81,1500.9282607994974,None,1500.9282607994974,None,4,3.7991380989551544,1500.9282607994974,None,1504.777034400031,None,1505.3012452982366,None,1505.3012452982366,None,f,0.5061425995081663,1505.3012452982366,None,,,NC_31,001,2022_Mar_24_1203,ProdSingRedo,3.2.3,59.79180521440633,
,,,,94,0,94,0,,,,,,,,,,,,,,,,,,,,,,,,1515.402138998732,None,,,,,,,,,,,,,,,,,order,new_c,white,94,165,207,1506.353444499895,None,1506.353444499895,None,2,7.093773500993848,1506.353444499895,None,1513.493122998625,None,1514.0145973991603,None,1514.0145973991603,None,n,1.3527808003127575,1514.0145973991603,None,,,NC_31,001,2022_Mar_24_1203,ProdSingRedo,3.2.3,59.79180521440633,
,,,,95,0,95,0,,,,,,,,,,,,,,,,,,,,,,,,1524.4195409994572,None,,,,,,,,,,,,,,,,,religion,new_b,white,95,130,258,1515.927815599367,None,1515.927815599367,None,4,6.783493099734187,1515.927815599367,None,1522.7675203997642,None,1523.2823686990887,None,1523.2823686990887,None,f,1.1090665999799967,1523.2823686990887,None,,,NC_31,001,2022_Mar_24_1203,ProdSingRedo,3.2.3,59.79180521440633,
,,,,96,0,96,0,,,,,,,,,,,,,,,,,,,,,,,,1528.7739405985922,None,,,,,,,,,,,,,,,,,oxygen,sing,white,96,24,209,1524.9478078000247,None,1524.9478078000247,None,5,2.0991107001900673,1524.9478078000247,None,1527.076681599021,None,1527.5904690995812,None,1527.5904690995812,None,f,1.144794100895524,1527.5904690995812,None,,,NC_31,001,2022_Mar_24_1203,ProdSingRedo,3.2.3,59.79180521440633,
,,,,97,0,97,0,,,,,,,,,,,,,,,,,,,,,,,,1534.5833586994559,None,,,,,,,,,,,,,,,,,fight,silent,white,97,84,127,1529.2962960992008,None,1529.2962960992008,None,2,2.878930401057005,1529.2962960992008,None,1532.2147122994065,None,1532.7387313991785,None,1532.7387313991785,None,n,1.8203842006623745,1532.7387313991785,None,,,NC_31,001,2022_Mar_24_1203,ProdSingRedo,3.2.3,59.79180521440633,
,,,,98,0,98,0,,,,,,,,,,,,,,,,,,,,,,,,1546.1941143982112,None,,,,,,,,,,,,,,,,,minor,aloud,white,98,50,191,1535.1075899992138,None,1535.1075899992138,None,3,6.747685801237822,1535.1075899992138,None,1541.883028799668,None,1542.3934015985578,None,1542.3934015985578,None,f,3.781675299629569,1542.3934015985578,None,,,NC_31,001,2022_Mar_24_1203,ProdSingRedo,3.2.3,59.79180521440633,
,,,,99,0,99,0,,,,,,,,,,,,,,,,,,,,,,,,1552.4253199994564,None,,,,,,,,,,,,,,,,,guide,new_b,white,99,124,147,1546.7085458990186,None,1546.7085458990186,None,5,3.490498600527644,1546.7085458990186,None,1550.235750099644,None,1550.7444393988699,None,1550.7444393988699,None,f,1.6627851016819477,1550.7444393988699,None,,,NC_31,001,2022_Mar_24_1203,ProdSingRedo,3.2.3,59.79180521440633,
,,,,100,0,100,0,,,,,,,,,,,,,,,,,,,,,,,,1557.3090143986046,None,,,,,,,,,,,,,,,,,problem,silent,white,100,87,238,1552.9352040998638,None,1552.9352040998638,None,2,2.935996999964118,1552.9352040998638,None,1555.9166082981974,None,1556.429035698995,None,1556.429035698995,None,n,0.8498211000114679,1556.429035698995,None,,,NC_31,001,2022_Mar_24_1203,ProdSingRedo,3.2.3,59.79180521440633,
,,,,101,0,101,0,,,,,,,,,,,,,,,,,,,,,,,,1560.944313498214,None,,,,,,,,,,,,,,,,,rural,aloud,white,101,43,269,1557.810852298513,None,1557.810852298513,None,6,1.6360551994293928,1557.810852298513,None,1559.4787404984236,None,1560.0055962987244,None,1560.0055962987244,None,r,0.9134784992784262,1560.0055962987244,None,,,NC_31,001,2022_Mar_24_1203,ProdSingRedo,3.2.3,59.79180521440633,
,,,,102,0,102,0,,,,,,,,,,,,,,,,,,,,,,,,1565.4449758995324,None,,,,,,,,,,,,,,,,,phrase,new_a,white,102,102,220,1561.4526080992073,None,1561.4526080992073,None,1,2.050569500774145,1561.4526080992073,None,1563.535348398611,None,1564.0474615991116,None,1564.0474615991116,None,n,1.3675133995711803,1564.0474615991116,None,,,NC_31,001,2022_Mar_24_1203,ProdSingRedo,3.2.3,59.79180521440633,
,,,,103,0,103,0,,,,,,,,,,,,,,,,,,,,,,,,1569.00910339877,None,,,,,,,,,,,,,,,,,spoke,new_b,white,103,136,300,1565.9598562996835,None,1565.9598562996835,None,1,1.5831243991851807,1565.9598562996835,None,1567.5682293996215,None,1568.0762196984142,None,1568.0762196984142,None,n,0.9148721005767584,1568.0762196984142,None,,,NC_31,001,2022_Mar_24_1203,ProdSingRedo,3.2.3,59.79180521440633,
,,,,104,0,104,0,,,,,,,,,,,,,,,,,,,,,,,,1576.8267445992678,None,,,,,,,,,,,,,,,,,sleep,sing,white,104,15,290,1569.5098867993802,None,1569.5098867993802,None,4,6.353013601154089,1569.5098867993802,None,1575.8951456993818,None,1576.4098565988243,None,1576.4098565988243,None,f,0.38901439867913723,1576.4098565988243,None,,,NC_31,001,2022_Mar_24_1203,ProdSingRedo,3.2.3,59.79180521440633,
,,,,105,0,105,0,,,,,,,,,,,,,,,,,,,,,,,,1581.5108706988394,None,,,,,,,,,,,,,,,,,hearing,silent,white,105,78,150,1577.335951399058,None,1577.335951399058,None,1,2.655129699036479,1577.335951399058,None,1580.0125055983663,None,1580.5267897993326,None,1580.5267897993326,None,n,0.9681243002414703,1580.5267897993326,None,,,NC_31,001,2022_Mar_24_1203,ProdSingRedo,3.2.3,59.79180521440633,
,,,,106,0,106,0,,,,,,,,,,,,,,,,,,,,,,,,1588.127308698371,None,,,,,,,,,,,,,,,,,speech,aloud,white,106,58,298,1582.0125698000193,None,1582.0125698000193,None,2,4.970212399959564,1582.0125698000193,None,1587.0195452999324,None,1587.5307234991342,None,1587.5307234991342,None,n,0.5801072996109724,1587.5307234991342,None,,,NC_31,001,2022_Mar_24_1203,ProdSingRedo,3.2.3,59.79180521440633,
,,,,107,0,107,0,,,,,,,,,,,,,,,,,,,,,,,,1592.2943277992308,None,,,,,,,,,,,,,,,,,drove,new_a,white,107,96,106,1588.6274838000536,None,1588.6274838000536,None,1,1.7316759005188942,1588.6274838000536,None,1590.3801601994783,None,1590.8943979982287,None,1590.8943979982287,None,n,1.3844670001417398,1590.8943979982287,None,,,NC_31,001,2022_Mar_24_1203,ProdSingRedo,3.2.3,59.79180521440633,
,,,,108,0,108,0,,,,,,,,,,,,,,,,,,,,,,,,1599.3615449983627,None,,,,,,,,,,,,,,,,,household,silent,white,108,85,154,1592.7974872998893,None,1592.7974872998893,None,2,5.161620698869228,1592.7974872998893,None,1597.9801912996918,None,1598.4948148988187,None,1598.4948148988187,None,n,0.8481628000736237,1598.4948148988187,None,,,NC_31,001,2022_Mar_24_1203,ProdSingRedo,3.2.3,59.79180521440633,
,,,,109,0,109,0,,,,,,,,,,,,,,,,,,,,,,,,1605.2283532992005,None,,,,,,,,,,,,,,,,,burden,sing,white,109,22,36,1599.864015199244,None,1599.864015199244,None,3,3.5987576004117727,1599.864015199244,None,1603.4817033987492,None,1603.9971779994667,None,1603.9971779994667,None,f,1.2096002008765936,1603.9971779994667,None,,,NC_31,001,2022_Mar_24_1203,ProdSingRedo,3.2.3,59.79180521440633,
,,,,110,0,110,0,,,,,,,,,,,,,,,,,,,,,,,,1612.3971602991223,None,,,,,,,,,,,,,,,,,cross,sing,white,110,16,80,1605.7318762987852,None,1605.7318762987852,None,4,5.130918400362134,1605.7318762987852,None,1610.8823402989656,None,1611.3957047984004,None,1611.3957047984004,None,f,0.9711584001779556,1611.3957047984004,None,,,NC_31,001,2022_Mar_24_1203,ProdSingRedo,3.2.3,59.79180521440633,
,,,,111,0,111,0,,,,,,,,,,,,,,,,,,,,,,,,1617.2626603990793,None,,,,,,,,,,,,,,,,,cover,sing,white,111,27,77,1612.914703099057,None,1612.914703099057,None,2,3.2040471006184816,1612.914703099057,None,1616.1532072983682,None,1616.6647457983345,None,1616.6647457983345,None,n,0.5659753996878862,1616.6647457983345,None,,,NC_31,001,2022_Mar_24_1203,ProdSingRedo,3.2.3,59.79180521440633,
,,,,112,0,112,0,,,,,,,,,,,,,,,,,,,,,,,,1622.73095529899,None,,,,,,,,,,,,,,,,,payment,aloud,white,112,37,215,1617.765326499939,None,1617.765326499939,None,2,3.5853804014623165,1617.765326499939,None,1621.382537998259,None,1621.8970814999193,None,1621.8970814999193,None,n,0.8057786989957094,1621.8970814999193,None,,,NC_31,001,2022_Mar_24_1203,ProdSingRedo,3.2.3,59.79180521440633,
,,,,113,0,113,0,,,,,,,,,,,,,,,,,,,,,,,,1633.945746799931,None,,,,,,,,,,,,,,,,,company,new_b,white,113,139,64,1623.2319746986032,None,1623.2319746986032,None,3,9.007016699761152,1623.2319746986032,None,1632.295249298215,None,1632.8138817995787,None,1632.8138817995787,None,f,1.0891842003911734,1632.8138817995787,None,,,NC_31,001,2022_Mar_24_1203,ProdSingRedo,3.2.3,59.79180521440633,
,,,,114,0,114,0,,,,,,,,,,,,,,,,,,,,,,,,1637.9467676989734,None,,,,,,,,,,,,,,,,,novel,new_c,white,114,152,202,1634.4656851999462,None,1634.4656851999462,None,1,1.9493505991995335,1634.4656851999462,None,1636.461196999997,None,1636.9750121999532,None,1636.9750121999532,None,n,0.9360213000327349,1636.9750121999532,None,,,NC_31,001,2022_Mar_24_1203,ProdSingRedo,3.2.3,59.79180521440633,
,,,,115,0,115,0,,,,,,,,,,,,,,,,,,,,,,,,1642.7433050982654,None,,,,,,,,,,,,,,,,,dispute,new_a,white,115,106,99,1638.4675979986787,None,1638.4675979986787,None,1,2.4514568001031876,1638.4675979986787,None,1640.9748287983239,None,1641.4990372993052,None,1641.4990372993052,None,n,1.2118857000023127,1641.4990372993052,None,,,NC_31,001,2022_Mar_24_1203,ProdSingRedo,3.2.3,59.79180521440633,
,,,,116,0,116,0,,,,,,,,,,,,,,,,,,,,,,,,1650.0279202982783,None,,,,,,,,,,,,,,,,,surface,new_a,white,116,115,316,1643.2703268993646,None,1643.2703268993646,None,3,4.712923901155591,1643.2703268993646,None,1648.0227954983711,None,1648.531918598339,None,1648.531918598339,None,f,1.4590537995100021,1648.531918598339,None,,,NC_31,001,2022_Mar_24_1203,ProdSingRedo,3.2.3,59.79180521440633,
,,,,117,0,117,0,,,,,,,,,,,,,,,,,,,,,,,,1656.4757666997612,None,,,,,,,,,,,,,,,,,afternoon,silent,white,117,63,3,1650.5515637993813,None,1650.5515637993813,None,1,4.319578900933266,1650.5515637993813,None,1654.9286639988422,None,1655.440441498533,None,1655.440441498533,None,n,0.9985787011682987,1655.440441498533,None,,,NC_31,001,2022_Mar_24_1203,ProdSingRedo,3.2.3,59.79180521440633,
,,,,118,0,118,0,,,,,,,,,,,,,,,,,,,,,,,,1667.6257735993713,None,,,,,,,,,,,,,,,,,style,sing,white,118,28,311,1657.0018304996192,None,1657.0018304996192,None,5,8.50115630030632,1657.0018304996192,None,1665.5575571991503,None,1666.0770536996424,None,1666.0770536996424,None,f,1.5138402003794909,1666.0770536996424,None,,,NC_31,001,2022_Mar_24_1203,ProdSingRedo,3.2.3,59.79180521440633,
,,,,119,0,119,0,,,,,,,,,,,,,,,,,,,,,,,,1676.4107974991202,None,,,,,,,,,,,,,,,,,force,sing,white,119,23,131,1668.147864498198,None,1668.147864498198,None,4,6.907328801229596,1668.147864498198,None,1675.1056510992348,None,1675.6276958994567,None,1675.6276958994567,None,f,0.7557241003960371,1675.6276958994567,None,,,NC_31,001,2022_Mar_24_1203,ProdSingRedo,3.2.3,59.79180521440633,
,,,,120,0,120,0,,,,,,,,,,,,,,,,,,,,,,,,1680.276476599276,None,,,,,,,,,,,,,,,,,taste,aloud,white,120,41,322,1676.9182564988732,None,1676.9182564988732,None,6,1.5047155003994703,1676.9182564988732,None,1678.4685569982976,None,1678.9816618990153,None,1678.9816618990153,None,r,1.2652541007846594,1678.9816618990153,None,,,NC_31,001,2022_Mar_24_1203,ProdSingRedo,3.2.3,59.79180521440633,
,,,,121,0,121,0,,,,,,,,,,,,,,,,,,,,,,,,1688.5103990994394,None,,,,,,,,,,,,,,,,,appearance,new_a,white,121,92,10,1680.8067002985626,None,1680.8067002985626,None,3,5.984336098656058,1680.8067002985626,None,1686.8418660983443,None,1687.3689540997148,None,1687.3689540997148,None,f,1.109969498589635,1687.3689540997148,None,,,NC_31,001,2022_Mar_24_1203,ProdSingRedo,3.2.3,59.79180521440633,
,,,,122,0,122,0,,,,,,,,,,,,,,,,,,,,,,,,1692.378367299214,None,,,,,,,,,,,,,,,,,history,aloud,white,122,42,153,1689.0369128994644,None,1689.0369128994644,None,6,1.673939399421215,1689.0369128994644,None,1690.7641101982445,None,1691.2776638995856,None,1691.2776638995856,None,r,1.0653009992092848,1691.2776638995856,None,,,NC_31,001,2022_Mar_24_1203,ProdSingRedo,3.2.3,59.79180521440633,
,,,,123,0,123,0,,,,,,,,,,,,,,,,,,,,,,,,1698.8614764995873,None,,,,,,,,,,,,,,,,,detective,new_b,white,123,133,92,1692.9022913984954,None,1692.9022913984954,None,4,4.040533499792218,1692.9022913984954,None,1696.9920780993998,None,1697.5051773991436,None,1697.5051773991436,None,f,1.3257653005421162,1697.5051773991436,None,,,NC_31,001,2022_Mar_24_1203,ProdSingRedo,3.2.3,59.79180521440633,
,,,,124,0,124,0,,,,,,,,,,,,,,,,,,,,,,,,1703.5536360982805,None,,,,,,,,,,,,,,,,,measure,new_b,white,124,134,184,1699.3922648988664,None,1699.3922648988664,None,4,2.270729700103402,1699.3922648988664,None,1701.7138109989464,None,1702.2311147991568,None,1702.2311147991568,None,f,1.295592799782753,1702.2311147991568,None,,,NC_31,001,2022_Mar_24_1203,ProdSingRedo,3.2.3,59.79180521440633,
,,,,125,0,125,0,,,,,,,,,,,,,,,,,,,,,,,,1708.1461929995567,None,,,,,,,,,,,,,,,,,quick,sing,white,125,26,248,1704.0778662990779,None,1704.0778662990779,None,4,3.1767111998051405,1704.0778662990779,None,1707.2880014982074,None,1707.817560998723,None,1707.817560998723,None,f,0.30146099999547005,1707.817560998723,None,,,NC_31,001,2022_Mar_24_1203,ProdSingRedo,3.2.3,59.79180521440633,
,,,,126,0,126,0,,,,,,,,,,,,,,,,,,,,,,,,1712.1528174988925,None,,,,,,,,,,,,,,,,,husband,new_c,white,126,176,156,1708.6752530988306,None,1708.6752530988306,None,2,2.163747899234295,1708.6752530988306,None,1710.9019903987646,None,1711.4206444993615,None,1711.4206444993615,None,n,0.6984077990055084,1711.4206444993615,None,,,NC_31,001,2022_Mar_24_1203,ProdSingRedo,3.2.3,59.79180521440633,
,,,,127,0,127,0,,,,,,,,,,,,,,,,,,,,,,,,1717.1131905987859,None,,,,,,,,,,,,,,,,,enemy,new_b,white,127,145,113,1712.6707464996725,None,1712.6707464996725,None,2,2.8807252012193203,1712.6707464996725,None,1715.590273199603,None,1716.114426098764,None,1716.114426098764,None,n,0.9643566999584436,1716.114426098764,None,,,NC_31,001,2022_Mar_24_1203,ProdSingRedo,3.2.3,59.79180521440633,
,,,,128,0,128,0,,,,,,,,,,,,,,,,,,,,,,,,1721.120494298637,None,,,,,,,,,,,,,,,,,personnel,sing,white,128,21,219,1717.6355305984616,None,1717.6355305984616,None,6,1.6674540005624294,1717.6355305984616,None,1719.3474150989205,None,1719.862471299246,None,1719.862471299246,None,r,1.2244796995073557,1719.862471299246,None,,,NC_31,001,2022_Mar_24_1203,ProdSingRedo,3.2.3,59.79180521440633,
,,,,129,0,129,0,,,,,,,,,,,,,,,,,,,,,,,,1728.8345160000026,None,,,,,,,,,,,,,,,,,country,sing,white,129,25,73,1721.6380941998214,None,1721.6380941998214,None,5,5.744784699752927,1721.6380941998214,None,1727.4310062993318,None,1727.9511535987258,None,1727.9511535987258,None,f,0.8397061992436647,1727.9511535987258,None,,,NC_31,001,2022_Mar_24_1203,ProdSingRedo,3.2.3,59.79180521440633,
,,,,130,0,130,0,,,,,,,,,,,,,,,,,,,,,,,,1733.1800956986845,None,,,,,,,,,,,,,,,,,pretty,sing,white,130,2,233,1729.3524041995406,None,1729.3524041995406,None,2,2.038671500980854,1729.3524041995406,None,1731.444515498355,None,1731.9657258000225,None,1731.9657258000225,None,n,1.185122000053525,1731.9657258000225,None,,,NC_31,001,2022_Mar_24_1203,ProdSingRedo,3.2.3,59.79180521440633,
,,,,131,0,131,0,,,,,,,,,,,,,,,,,,,,,,,,1741.1026535984129,None,,,,,,,,,,,,,,,,,sweet,new_c,white,131,166,319,1733.7026555985212,None,1733.7026555985212,None,2,5.240295799449086,1733.7026555985212,None,1738.9975768998265,None,1739.5150208994746,None,1739.5150208994746,None,n,1.5478109996765852,1739.5150208994746,None,,,NC_31,001,2022_Mar_24_1203,ProdSingRedo,3.2.3,59.79180521440633,
,,,,132,0,132,0,,,,,,,,,,,,,,,,,,,,,,,,1745.38802799955,None,,,,,,,,,,,,,,,,,scene,aloud,white,132,35,273,1741.6188238989562,None,1741.6188238989562,None,1,2.0362196005880833,1741.6188238989562,None,1743.6956701986492,None,1744.217889899388,None,1744.217889899388,None,n,1.1329255010932684,1744.217889899388,None,,,NC_31,001,2022_Mar_24_1203,ProdSingRedo,3.2.3,59.79180521440633,
,,,,133,0,133,0,,,,,,,,,,,,,,,,,,,,,,,,1749.3864641990513,None,,,,,,,,,,,,,,,,,rapid,silent,white,133,67,252,1745.91395659931,None,1745.91395659931,None,1,1.8688618000596762,1745.91395659931,None,1747.8310045991093,None,1748.3546033985913,None,1748.3546033985913,None,n,0.9881905000656843,1748.3546033985913,None,,,NC_31,001,2022_Mar_24_1203,ProdSingRedo,3.2.3,59.79180521440633,
,,,,134,0,134,0,,,,,,,,,,,,,,,,,,,,,,,,1755.8676545992494,None,,,,,,,,,,,,,,,,,empty,new_c,white,134,175,112,1749.908004898578,None,1749.908004898578,None,1,3.283219698816538,1749.908004898578,None,1753.2438626997173,None,1753.767627099529,None,1753.767627099529,None,n,2.071406999602914,1753.767627099529,None,,,NC_31,001,2022_Mar_24_1203,ProdSingRedo,3.2.3,59.79180521440633,
,,,,135,0,135,0,,,,,,,,,,,,,,,,,,,,,,,,1765.1347451992333,None,,,,,,,,,,,,,,,,,division,new_b,white,135,147,101,1756.3921702988446,None,1756.3921702988446,None,3,5.3027218002825975,1756.3921702988446,None,1761.749513298273,None,1762.2717630993575,None,1762.2717630993575,None,f,2.82306469976902,1762.2717630993575,None,,,NC_31,001,2022_Mar_24_1203,ProdSingRedo,3.2.3,59.79180521440633,
,,,,136,0,136,0,,,,,,,,,,,,,,,,,,,,,,,,1768.9320397991687,None,,,,,,,,,,,,,,,,,school,new_b,white,136,141,274,1765.657971298322,None,1765.657971298322,None,1,1.7805501986294985,1765.657971298322,None,1767.4597821999341,None,1767.9802720993757,None,1767.9802720993757,None,n,0.9146067015826702,1767.9802720993757,None,,,NC_31,001,2022_Mar_24_1203,ProdSingRedo,3.2.3,59.79180521440633,
,,,,137,0,137,0,,,,,,,,,,,,,,,,,,,,,,,,1772.9712772984058,None,,,,,,,,,,,,,,,,,running,sing,white,137,8,268,1769.4602293986827,None,1769.4602293986827,None,1,1.690566498786211,1769.4602293986827,None,1771.197143599391,None,1771.7111514993012,None,1771.7111514993012,None,n,1.2156109996140003,1771.7111514993012,None,,,NC_31,001,2022_Mar_24_1203,ProdSingRedo,3.2.3,59.79180521440633,
,,,,138,0,138,0,,,,,,,,,,,,,,,,,,,,,,,,1778.0824874993414,None,,,,,,,,,,,,,,,,,owner,silent,white,138,66,208,1773.4945679996163,None,1773.4945679996163,None,4,3.095803700387478,1773.4945679996163,None,1776.6139296982437,None,1777.134510498494,None,1777.134510498494,None,f,0.9122902993112803,1777.134510498494,None,,,NC_31,001,2022_Mar_24_1203,ProdSingRedo,3.2.3,59.79180521440633,
,,,,139,0,139,0,,,,,,,,,,,,,,,,,,,,,,,,1781.7872407995164,None,,,,,,,,,,,,,,,,,device,sing,white,139,6,93,1778.6076828986406,None,1778.6076828986406,None,4,1.9990928005427122,1778.6076828986406,None,1780.6475217994303,None,1781.1702970992774,None,1781.1702970992774,None,f,0.5804473999887705,1781.1702970992774,None,,,NC_31,001,2022_Mar_24_1203,ProdSingRedo,3.2.3,59.79180521440633,
,,,,140,0,140,0,,,,,,,,,,,,,,,,,,,,,,,,1786.568951498717,None,,,,,,,,,,,,,,,,,exchange,new_a,white,140,90,121,1782.3014498986304,None,1782.3014498986304,None,2,2.513587299734354,1782.3014498986304,None,1784.872660599649,None,1785.3871325999498,None,1785.3871325999498,None,n,1.1555644981563091,1785.3871325999498,None,,,NC_31,001,2022_Mar_24_1203,ProdSingRedo,3.2.3,59.79180521440633,
,,,,141,0,141,0,,,,,,,,,,,,,,,,,,,,,,,,1792.3349500000477,None,,,,,,,,,,,,,,,,,background,aloud,white,141,40,16,1787.1013802997768,None,1787.1013802997768,None,2,3.7455448992550373,1787.1013802997768,None,1790.904940098524,None,1791.4143812991679,None,1791.4143812991679,None,n,0.8803444001823664,1791.4143812991679,None,,,NC_31,001,2022_Mar_24_1203,ProdSingRedo,3.2.3,59.79180521440633,
,,,,142,0,142,0,,,,,,,,,,,,,,,,,,,,,,,,1797.4094495996833,None,,,,,,,,,,,,,,,,,defeat,new_c,white,142,157,88,1792.8640721999109,None,1792.8640721999109,None,1,2.614595901221037,1792.8640721999109,None,1795.5410373993218,None,1796.0553896985948,None,1796.0553896985948,None,n,1.3270621001720428,1796.0553896985948,None,,,NC_31,001,2022_Mar_24_1203,ProdSingRedo,3.2.3,59.79180521440633,
,,,,143,0,143,0,,,,,,,,,,,,,,,,,,,,,,,,1801.3744176998734,None,,,,,,,,,,,,,,,,,resistance,new_c,white,143,154,262,1797.9264906998724,None,1797.9264906998724,None,4,1.9842897988855839,1797.9264906998724,None,1799.945709599182,None,1800.4608473982662,None,1800.4608473982662,None,f,0.8738770000636578,1800.4608473982662,None,,,NC_31,001,2022_Mar_24_1203,ProdSingRedo,3.2.3,59.79180521440633,
,,,,144,0,144,0,,,,,,,,,,,,,,,,,,,,,,,,1810.0185902994126,None,,,,,,,,,,,,,,,,,question,aloud,white,144,53,247,1801.8944073989987,None,1801.8944073989987,None,6,6.424298100173473,1801.8944073989987,None,1808.3718973994255,None,1808.8904328998178,None,1808.8904328998178,None,r,1.1006099991500378,1808.8904328998178,None,,,NC_31,001,2022_Mar_24_1203,ProdSingRedo,3.2.3,59.79180521440633,
,,,,145,0,145,0,,,,,,,,,,,,,,,,,,,,,,,,1815.4869320988655,None,,,,,,,,,,,,,,,,,evidence,aloud,white,145,48,120,1810.5483144000173,None,1810.5483144000173,None,4,4.082394398748875,1810.5483144000173,None,1814.6907559987158,None,1815.2051375992596,None,1815.2051375992596,None,f,0.24964920058846474,1815.2051375992596,None,,,NC_31,001,2022_Mar_24_1203,ProdSingRedo,3.2.3,59.79180521440633,
,,,,146,0,146,0,,,,,,,,,,,,,,,,,,,,,,,,1829.9532011989504,None,,,,,,,,,,,,,,,,,foundation,new_a,white,146,99,132,1816.018860399723,None,1816.018860399723,None,3,12.675826800987124,1816.018860399723,None,1828.7386670988053,None,1829.261032199487,None,1829.261032199487,None,f,0.6659546997398138,1829.261032199487,None,,,NC_31,001,2022_Mar_24_1203,ProdSingRedo,3.2.3,59.79180521440633,
,,,,147,0,147,0,,,,,,,,,,,,,,,,,,,,,,,,1832.8196967989206,None,,,,,,,,,,,,,,,,,birth,aloud,white,147,57,22,1830.4777777995914,None,1830.4777777995914,None,6,1.4249952994287014,1830.4777777995914,None,1831.9481873996556,None,1832.4605199992657,None,1832.4605199992657,None,r,0.32207849994301796,1832.4605199992657,None,,,NC_31,001,2022_Mar_24_1203,ProdSingRedo,3.2.3,59.79180521440633,
,,,,148,0,148,0,,,,,,,,,,,,,,,,,,,,,,,,1836.691161699593,None,,,,,,,,,,,,,,,,,native,new_c,white,148,171,199,1833.354747299105,None,1833.354747299105,None,4,1.7724248003214598,1833.354747299105,None,1835.166946399957,None,1835.693961199373,None,1835.693961199373,None,f,0.9526003003120422,1835.693961199373,None,,,NC_31,001,2022_Mar_24_1203,ProdSingRedo,3.2.3,59.79180521440633,
,,,,149,0,149,0,,,,,,,,,,,,,,,,,,,,,,,,1841.104660898447,None,,,,,,,,,,,,,,,,,edition,new_a,white,149,104,107,1837.2095527984202,None,1837.2095527984202,None,3,1.669258700683713,1837.2095527984202,None,1838.9145597983152,None,1839.4351221993566,None,1839.4351221993566,None,n,1.643691100180149,1839.4351221993566,None,,,NC_31,001,2022_Mar_24_1203,ProdSingRedo,3.2.3,59.79180521440633,
,,,,150,0,150,0,,,,,,,,,,,,,,,,,,,,,,,,1844.7210231982172,None,,,,,,,,,,,,,,,,,height,new_a,white,150,97,152,1841.6204345989972,None,1841.6204345989972,None,3,2.0821051001548767,1841.6204345989972,None,1843.7523471992463,None,1844.274311998859,None,1844.274311998859,None,f,0.420362900942564,1844.274311998859,None,,,NC_31,001,2022_Mar_24_1203,ProdSingRedo,3.2.3,59.79180521440633,
,,,,151,0,151,0,,,,,,,,,,,,,,,,,,,,,,,,1848.3434825986624,None,,,,,,,,,,,,,,,,,title,sing,white,151,12,331,1845.2445978987962,None,1845.2445978987962,None,4,2.154049700126052,1845.2445978987962,None,1847.452926998958,None,1847.9685353990644,None,1847.9685353990644,None,f,0.34234380163252354,1847.9685353990644,None,,,NC_31,001,2022_Mar_24_1203,ProdSingRedo,3.2.3,59.79180521440633,
,,,,152,0,152,0,,,,,,,,,,,,,,,,,,,,,,,,1852.1941739991307,None,,,,,,,,,,,,,,,,,private,new_c,white,152,164,237,1848.8683109991252,None,1848.8683109991252,None,4,2.338299000635743,1848.8683109991252,None,1851.2568058986217,None,1851.7758116982877,None,1851.7758116982877,None,f,0.38273119926452637,1851.7758116982877,None,,,NC_31,001,2022_Mar_24_1203,ProdSingRedo,3.2.3,59.79180521440633,
,,,,153,0,153,0,,,,,,,,,,,,,,,,,,,,,,,,1856.2080395985395,None,,,,,,,,,,,,,,,,,answer,new_c,white,153,156,8,1852.7120014987886,None,1852.7120014987886,None,4,2.494599301367998,1852.7120014987886,None,1855.2588072996587,None,1855.767664398998,None,1855.767664398998,None,f,0.4068938009440899,1855.767664398998,None,,,NC_31,001,2022_Mar_24_1203,ProdSingRedo,3.2.3,59.79180521440633,
,,,,154,0,154,0,,,,,,,,,,,,,,,,,,,,,,,,1859.8542986996472,None,,,,,,,,,,,,,,,,,trial,new_c,white,154,161,341,1856.7187962997705,None,1856.7187962997705,None,5,1.7761430013924837,1856.7187962997705,None,1858.5326257999986,None,1859.0576013997197,None,1859.0576013997197,None,f,0.7569734007120132,1859.0576013997197,None,,,NC_31,001,2022_Mar_24_1203,ProdSingRedo,3.2.3,59.79180521440633,
,,,,155,0,155,0,,,,,,,,,,,,,,,,,,,,,,,,1863.238732298836,None,,,,,,,,,,,,,,,,,entrance,new_c,white,155,150,115,1860.3865075986832,None,1860.3865075986832,None,5,1.9246539007872343,1860.3865075986832,None,1862.3486010991037,None,1862.8789446987212,None,1862.8789446987212,None,f,0.319725401699543,1862.8789446987212,None,,,NC_31,001,2022_Mar_24_1203,ProdSingRedo,3.2.3,59.79180521440633,
,,,,156,0,156,0,,,,,,,,,,,,,,,,,,,,,,,,1866.6730624996126,None,,,,,,,,,,,,,,,,,victory,silent,white,156,61,346,1863.7695546988398,None,1863.7695546988398,None,2,1.757039999589324,1863.7695546988398,None,1865.5740300994366,None,1866.089666198939,None,1866.089666198939,None,n,0.5489170998334885,1866.089666198939,None,,,NC_31,001,2022_Mar_24_1203,ProdSingRedo,3.2.3,59.79180521440633,
,,,,157,0,157,0,,,,,,,,,,,,,,,,,,,,,,,,1870.979899900034,None,,,,,,,,,,,,,,,,,meeting,silent,white,157,89,187,1867.1983071994036,None,1867.1983071994036,None,3,1.6643749997019768,1867.1983071994036,None,1868.907501399517,None,1869.435590999201,None,1869.435590999201,None,f,1.5227103997021914,1869.435590999201,None,,,NC_31,001,2022_Mar_24_1203,ProdSingRedo,3.2.3,59.79180521440633,
,,,,158,0,158,0,,,,,,,,,,,,,,,,,,,,,,,,1874.6795580983162,None,,,,,,,,,,,,,,,,,music,new_a,white,158,117,196,1871.4994591996074,None,1871.4994591996074,None,1,1.8352467995136976,1871.4994591996074,None,1873.385590499267,None,1873.9086012989283,None,1873.9086012989283,None,n,0.7299279998987913,1873.9086012989283,None,,,NC_31,001,2022_Mar_24_1203,ProdSingRedo,3.2.3,59.79180521440633,
,,,,159,0,159,0,,,,,,,,,,,,,,,,,,,,,,,,1878.4229034986347,None,,,,,,,,,,,,,,,,,finance,new_c,white,159,151,129,1875.204211499542,None,1875.204211499542,None,1,1.7464248016476631,1875.204211499542,None,1877.007577398792,None,1877.5275288987905,None,1877.5275288987905,None,n,0.8630202002823353,1877.5275288987905,None,,,NC_31,001,2022_Mar_24_1203,ProdSingRedo,3.2.3,59.79180521440633,
,,,,160,0,160,0,,,,,,,,,,,,,,,,,,,,,,,,1881.8087444994599,None,,,,,,,,,,,,,,,,,republic,aloud,white,160,46,260,1878.9545963983983,None,1878.9545963983983,None,4,1.6760969012975693,1878.9545963983983,None,1880.6707632988691,None,1881.1960727982223,None,1881.1960727982223,None,f,0.5706456005573273,1881.1960727982223,None,,,NC_31,001,2022_Mar_24_1203,ProdSingRedo,3.2.3,59.79180521440633,
,,,,161,0,161,0,,,,,,,,,,,,,,,,,,,,,,,,1885.4133405983448,None,,,,,,,,,,,,,,,,,split,aloud,white,161,39,299,1882.3315632995218,None,1882.3315632995218,None,6,2.074941501021385,1882.3315632995218,None,1884.4516847990453,None,1884.9712498988956,None,1884.9712498988956,None,r,0.41123840026557446,1884.9712498988956,None,,,NC_31,001,2022_Mar_24_1203,ProdSingRedo,3.2.3,59.79180521440633,
,,,,162,0,162,0,,,,,,,,,,,,,,,,,,,,,,,,1891.0620627999306,None,,,,,,,,,,,,,,,,,capital,sing,white,162,11,40,1885.9419342000037,None,1885.9419342000037,None,4,2.792831100523472,1885.9419342000037,None,1888.7940460983664,None,1889.3123337998986,None,1889.3123337998986,None,f,1.7183234002441168,1889.3123337998986,None,,,NC_31,001,2022_Mar_24_1203,ProdSingRedo,3.2.3,59.79180521440633,
,,,,163,0,163,0,,,,,,,,,,,,,,,,,,,,,,,,1894.5094780996442,None,,,,,,,,,,,,,,,,,education,sing,white,163,9,108,1891.587522899732,None,1891.587522899732,None,4,1.9869436006993055,1891.587522899732,None,1893.625540599227,None,1894.1489608995616,None,1894.1489608995616,None,f,0.32156969979405403,1894.1489608995616,None,,,NC_31,001,2022_Mar_24_1203,ProdSingRedo,3.2.3,59.79180521440633,
,,,,164,0,164,0,,,,,,,,,,,,,,,,,,,,,,,,1899.1078077983111,None,,,,,,,,,,,,,,,,,dozen,sing,white,164,1,102,1895.0349915996194,None,1895.0349915996194,None,6,2.379866100847721,1895.0349915996194,None,1897.455164398998,None,1897.9772510994226,None,1897.9772510994226,None,r,1.0933370012789965,1897.9772510994226,None,,,NC_31,001,2022_Mar_24_1203,ProdSingRedo,3.2.3,59.79180521440633,
,,,,165,0,165,0,,,,,,,,,,,,,,,,,,,,,,,,1901.7610712982714,None,,,,,,,,,,,,,,,,,staff,sing,white,165,19,301,1899.6318964995444,None,1899.6318964995444,None,6,1.4225690998136997,1899.6318964995444,None,1901.102478498593,None,1901.6252211984247,None,1901.6252211984247,None,r,0.10120849870145321,1901.6252211984247,None,,,NC_31,001,2022_Mar_24_1203,ProdSingRedo,3.2.3,59.79180521440633,
,,,,166,0,166,0,,,,,,,,,,,,,,,,,,,,,,,,1906.1850416995585,None,,,,,,,,,,,,,,,,,youth,new_c,white,166,169,359,1902.289131399244,None,1902.289131399244,None,1,2.0936951991170645,1902.289131399244,None,1904.4310477990657,None,1904.9445786997676,None,1904.9445786997676,None,n,1.1978957001119852,1904.9445786997676,None,,,NC_31,001,2022_Mar_24_1203,ProdSingRedo,3.2.3,59.79180521440633,
,,,,167,0,167,0,,,,,,,,,,,,,,,,,,,,,,,,1908.8761239983141,None,,,,,,,,,,,,,,,,,dream,aloud,white,167,56,104,1906.7181953992695,None,1906.7181953992695,None,6,1.400331700220704,1906.7181953992695,None,1908.176670499146,None,1908.6934792995453,None,1908.6934792995453,None,r,0.15359360165894032,1908.6934792995453,None,,,NC_31,001,2022_Mar_24_1203,ProdSingRedo,3.2.3,59.79180521440633,
,,,,168,0,168,0,,,,,,,,,,,,,,,,,,,,,,,,1912.7419411987066,None,,,,,,,,,,,,,,,,,graduate,new_b,white,168,143,141,1909.4060800988227,None,1909.4060800988227,None,2,1.6249951012432575,1909.4060800988227,None,1911.078695198521,None,1911.596451299265,None,1911.596451299265,None,n,1.114063799381256,1911.596451299265,None,,,NC_31,001,2022_Mar_24_1203,ProdSingRedo,3.2.3,59.79180521440633,
,,,,169,0,169,0,,,,,,,,,,,,,,,,,,,,,,,,1917.5827072989196,None,,,,,,,,,,,,,,,,,motion,new_c,white,169,155,194,1913.2668012995273,None,1913.2668012995273,None,4,2.339633598923683,1913.2668012995273,None,1915.6418730989099,None,1916.1559019982815,None,1916.1559019982815,None,f,1.410275299102068,1916.1559019982815,None,,,NC_31,001,2022_Mar_24_1203,ProdSingRedo,3.2.3,59.79180521440633,
,,,,170,0,170,0,,,,,,,,,,,,,,,,,,,,,,,,1920.631985399872,None,,,,,,,,,,,,,,,,,listen,new_a,white,170,93,172,1918.1037286985666,None,1918.1037286985666,None,6,1.4472008012235165,1918.1037286985666,None,1919.5825211983174,None,1920.092928899452,None,1920.092928899452,None,r,0.4974872004240751,1920.092928899452,None,,,NC_31,001,2022_Mar_24_1203,ProdSingRedo,3.2.3,59.79180521440633,
,,,,171,0,171,0,,,,,,,,,,,,,,,,,,,,,,,,1923.1996147986501,None,,,,,,,,,,,,,,,,,generation,aloud,white,171,55,136,1921.1561600994319,None,1921.1561600994319,None,6,1.1463187001645565,1921.1561600994319,None,1922.3617923986167,None,1922.8795488998294,None,1922.8795488998294,None,r,0.2870598006993532,1922.8795488998294,None,,,NC_31,001,2022_Mar_24_1203,ProdSingRedo,3.2.3,59.79180521440633,
,,,,172,0,172,0,,,,,,,,,,,,,,,,,,,,,,,,1927.6002035997808,None,,,,,,,,,,,,,,,,,command,new_c,white,172,173,60,1923.7169149983674,None,1923.7169149983674,None,2,2.2896078005433083,1923.7169149983674,None,1926.0608850996941,None,1926.5787623990327,None,1926.5787623990327,None,n,0.9796268995851278,1926.5787623990327,None,,,NC_31,001,2022_Mar_24_1203,ProdSingRedo,3.2.3,59.79180521440633,
,,,,173,0,173,0,,,,,,,,,,,,,,,,,,,,,,,,1931.0482725985348,None,,,,,,,,,,,,,,,,,revolution,new_a,white,173,94,264,1928.1254371982068,None,1928.1254371982068,None,5,1.9209896996617317,1928.1254371982068,None,1930.0903177987784,None,1930.6164836995304,None,1930.6164836995304,None,f,0.3899870999157429,1930.6164836995304,None,,,NC_31,001,2022_Mar_24_1203,ProdSingRedo,3.2.3,59.79180521440633,
,,,,174,0,174,0,,,,,,,,,,,,,,,,,,,,,,,,1933.9110715985298,None,,,,,,,,,,,,,,,,,department,new_a,white,174,103,90,1931.5732186995447,None,1931.5732186995447,None,5,1.3532638996839523,1931.5732186995447,None,1932.983211999759,None,1933.496183199808,None,1933.496183199808,None,f,0.3822657987475395,1933.496183199808,None,,,NC_31,001,2022_Mar_24_1203,ProdSingRedo,3.2.3,59.79180521440633,
,,,,175,0,175,0,,,,,,,,,,,,,,,,,,,,,,,,1937.0769363995641,None,,,,,,,,,,,,,,,,,brilliant,silent,white,175,80,30,1934.4429423995316,None,1934.4429423995316,None,5,1.7236888986080885,1934.4429423995316,None,1936.205983499065,None,1936.733943298459,None,1936.733943298459,None,f,0.3124956004321575,1936.733943298459,None,,,NC_31,001,2022_Mar_24_1203,ProdSingRedo,3.2.3,59.79180521440633,
,,,,176,0,176,0,,,,,,,,,,,,,,,,,,,,,,,,1939.5675593987107,None,,,,,,,,,,,,,,,,,individual,silent,white,176,68,160,1937.6088686995208,None,1937.6088686995208,None,6,1.2216350995004177,1937.6088686995208,None,1938.874499399215,None,1939.4035909995437,None,1939.4035909995437,None,r,0.12289649993181229,1939.4035909995437,None,,,NC_31,001,2022_Mar_24_1203,ProdSingRedo,3.2.3,59.79180521440633,
,,,,177,0,177,0,,,,,,,,,,,,,,,,,,,,,,,,1944.3271766994148,None,,,,,,,,,,,,,,,,,budget,aloud,white,177,47,34,1940.093703398481,None,1940.093703398481,None,6,3.3847516998648643,1940.093703398481,None,1943.526335099712,None,1944.0505943000317,None,1944.0505943000317,None,r,0.25211890041828156,1944.0505943000317,None,,,NC_31,001,2022_Mar_24_1203,ProdSingRedo,3.2.3,59.79180521440633,
,,,,178,0,178,0,,,,,,,,,,,,,,,,,,,,,,,,1947.6369706988335,None,,,,,,,,,,,,,,,,,weather,silent,white,178,71,352,1944.8596368990839,None,1944.8596368990839,None,1,1.4431280009448528,1944.8596368990839,None,1946.34324769862,None,1946.8509283997118,None,1946.8509283997118,None,n,0.7631503008306026,1946.8509283997118,None,,,NC_31,001,2022_Mar_24_1203,ProdSingRedo,3.2.3,59.79180521440633,
,,,,179,0,179,0,,,,,,,,,,,,,,,,,,,,,,,,1952.7278373986483,None,,,,,,,,,,,,,,,,,discovery,new_b,white,179,127,95,1948.1740060988814,None,1948.1740060988814,None,2,2.200485600158572,1948.1740060988814,None,1950.4228728991002,None,1950.9517316985875,None,1950.9517316985875,None,f,1.7426239997148514,1950.9517316985875,None,,,NC_31,001,2022_Mar_24_1203,ProdSingRedo,3.2.3,59.79180521440633,
,,,,,,,,,,,,,,,,,,,,,,,,,,,,,,,,,,,,,,,,,,,,,,,,,,,,,,,,,,,,,,,,,,,,,,,,,1953.238785598427,None,,,,,,,
