StudyLoop.thisRepN,StudyLoop.thisTrialN,StudyLoop.thisN,StudyLoop.thisIndex,TestLoop.thisRepN,TestLoop.thisTrialN,TestLoop.thisN,TestLoop.thisIndex,textCondition.started,textCondition.stopped,keyCondition.keys,keyCondition.rt,keyCondition.started,keyCondition.stopped,Condition,stim_colors,color_sing,color_aloud,color_silent,textWelcome.started,textWelcome.stopped,keyWelcome.keys,keyWelcome.rt,keyWelcome.started,keyWelcome.stopped,textAloud.started,textAloud.stopped,textSilent.started,textSilent.stopped,textSing.started,textSing.stopped,textBlank500.started,textBlank500.stopped,study_word,study_type,study_color,study_num,study_word_num,textStudy.started,textStudy.stopped,keyStudy.keys,keyStudy.started,keyStudy.stopped,textTestInstructions.started,textTestInstructions.stopped,key_resp_3.keys,key_resp_3.rt,key_resp_3.started,key_resp_3.stopped,testWord,testType,testColor,testN,test_num,test_word_num,textConf.started,textConf.stopped,textConfScale.started,textConfScale.stopped,keyConf.keys,keyConf.rt,keyConf.started,keyConf.stopped,textTestBlank.started,textTestBlank.stopped,textRKN.started,textRKN.stopped,textRKNScale.started,textRKNScale.stopped,keyRKN.keys,keyRKN.rt,keyRKN.started,keyRKN.stopped,textEnd.started,textEnd.stopped,participant,session,date,expName,psychopyVersion,frameRate,
,,,,,,,,17.111323399934918,None,n,1.3878332001622766,17.111323399934918,None,,,,,,,,,,,,,,,,,,,,,,,,,,,,,,,,,,,,,,,,,,,,,,,,,,,,,,,,,,,,,,NC_52,001,2022_May_03_1652,ProdSingRedo,3.2.3,59.95588444537765,
,,,,,,,,,,,,,,NeutralTest,"['red', 'yellow', 'blue']",red,yellow,blue,18.55335810012184,None,space,738.153369900072,18.55335810012184,None,,,,,,,,,,,,,,,,,,,,,,,,,,,,,,,,,,,,,,,,,,,,,,,,,,,NC_52,001,2022_May_03_1652,ProdSingRedo,3.2.3,59.95588444537765,
0,0,0,0,,,,,,,,,,,,,,,,,,,,,,18.55335810012184,None,18.55335810012184,None,18.55335810012184,None,759.252024400048,None,interior,sing,red,4,164,757.2488311000634,None,None,757.2488311000634,None,,,,,,,,,,,,,,,,,,,,,,,,,,,,,,,,,NC_52,001,2022_May_03_1652,ProdSingRedo,3.2.3,59.95588444537765,
1,0,1,0,,,,,,,,,,,,,,,,,,,,,,,,,,,,761.7689503999427,None,smell,silent,blue,64,291,759.7604307001457,None,None,759.7604307001457,None,,,,,,,,,,,,,,,,,,,,,,,,,,,,,,,,,NC_52,001,2022_May_03_1652,ProdSingRedo,3.2.3,59.95588444537765,
2,0,2,0,,,,,,,,,,,,,,,,,,,,,,,,,,,,764.2991436999291,None,clear,aloud,yellow,44,52,762.2819654999766,None,None,762.2819654999766,None,,,,,,,,,,,,,,,,,,,,,,,,,,,,,,,,,NC_52,001,2022_May_03_1652,ProdSingRedo,3.2.3,59.95588444537765,
3,0,3,0,,,,,,,,,,,,,,,,,,,,,,,,,,,,766.8031782000326,None,trend,sing,red,29,340,764.7944992999546,None,None,764.7944992999546,None,,,,,,,,,,,,,,,,,,,,,,,,,,,,,,,,,NC_52,001,2022_May_03_1652,ProdSingRedo,3.2.3,59.95588444537765,
4,0,4,0,,,,,,,,,,,,,,,,,,,,,,,,,,,,769.3196533999871,None,device,sing,red,20,93,767.3271645000204,None,None,767.3271645000204,None,,,,,,,,,,,,,,,,,,,,,,,,,,,,,,,,,NC_52,001,2022_May_03_1652,ProdSingRedo,3.2.3,59.95588444537765,
5,0,5,0,,,,,,,,,,,,,,,,,,,,,,,,,,,,771.8194941000547,None,position,silent,blue,66,229,769.820069800131,None,None,769.820069800131,None,,,,,,,,,,,,,,,,,,,,,,,,,,,,,,,,,NC_52,001,2022_May_03_1652,ProdSingRedo,3.2.3,59.95588444537765,
6,0,6,0,,,,,,,,,,,,,,,,,,,,,,,,,,,,774.3362984999549,None,mankind,silent,blue,73,178,772.3443297999911,None,None,772.3443297999911,None,,,,,,,,,,,,,,,,,,,,,,,,,,,,,,,,,NC_52,001,2022_May_03_1652,ProdSingRedo,3.2.3,59.95588444537765,
7,0,7,0,,,,,,,,,,,,,,,,,,,,,,,,,,,,776.8536328000482,None,election,silent,blue,71,109,774.8444223999977,None,None,774.8444223999977,None,,,,,,,,,,,,,,,,,,,,,,,,,,,,,,,,,NC_52,001,2022_May_03_1652,ProdSingRedo,3.2.3,59.95588444537765,
8,0,8,0,,,,,,,,,,,,,,,,,,,,,,,,,,,,779.3688575001433,None,volume,sing,red,3,349,777.367476799991,None,None,777.367476799991,None,,,,,,,,,,,,,,,,,,,,,,,,,,,,,,,,,NC_52,001,2022_May_03_1652,ProdSingRedo,3.2.3,59.95588444537765,
9,0,9,0,,,,,,,,,,,,,,,,,,,,,,,,,,,,781.8704518999439,None,degree,silent,blue,89,89,779.8693377000745,None,None,779.8693377000745,None,,,,,,,,,,,,,,,,,,,,,,,,,,,,,,,,,NC_52,001,2022_May_03_1652,ProdSingRedo,3.2.3,59.95588444537765,
10,0,10,0,,,,,,,,,,,,,,,,,,,,,,,,,,,,784.3871079999954,None,number,sing,red,13,203,782.3950623001438,None,None,782.3950623001438,None,,,,,,,,,,,,,,,,,,,,,,,,,,,,,,,,,NC_52,001,2022_May_03_1652,ProdSingRedo,3.2.3,59.95588444537765,
11,0,11,0,,,,,,,,,,,,,,,,,,,,,,,,,,,,786.9042495000176,None,build,sing,red,28,35,784.9072390999645,None,None,784.9072390999645,None,,,,,,,,,,,,,,,,,,,,,,,,,,,,,,,,,NC_52,001,2022_May_03_1652,ProdSingRedo,3.2.3,59.95588444537765,
12,0,12,0,,,,,,,,,,,,,,,,,,,,,,,,,,,,789.4040733000729,None,sight,silent,blue,88,286,787.4047697000206,None,None,787.4047697000206,None,,,,,,,,,,,,,,,,,,,,,,,,,,,,,,,,,NC_52,001,2022_May_03_1652,ProdSingRedo,3.2.3,59.95588444537765,
13,0,13,0,,,,,,,,,,,,,,,,,,,,,,,,,,,,791.9208698000293,None,motion,silent,blue,67,194,789.9147604000755,None,None,789.9147604000755,None,,,,,,,,,,,,,,,,,,,,,,,,,,,,,,,,,NC_52,001,2022_May_03_1652,ProdSingRedo,3.2.3,59.95588444537765,
14,0,14,0,,,,,,,,,,,,,,,,,,,,,,,,,,,,794.4377484000288,None,smooth,silent,blue,85,292,792.4306475999765,None,None,792.4306475999765,None,,,,,,,,,,,,,,,,,,,,,,,,,,,,,,,,,NC_52,001,2022_May_03_1652,ProdSingRedo,3.2.3,59.95588444537765,
15,0,15,0,,,,,,,,,,,,,,,,,,,,,,,,,,,,796.9546304000542,None,length,aloud,yellow,47,169,794.9529258999974,None,None,794.9529258999974,None,,,,,,,,,,,,,,,,,,,,,,,,,,,,,,,,,NC_52,001,2022_May_03_1652,ProdSingRedo,3.2.3,59.95588444537765,
16,0,16,0,,,,,,,,,,,,,,,,,,,,,,,,,,,,799.4712776001543,None,phrase,silent,blue,79,220,797.4677343000658,None,None,797.4677343000658,None,,,,,,,,,,,,,,,,,,,,,,,,,,,,,,,,,NC_52,001,2022_May_03_1652,ProdSingRedo,3.2.3,59.95588444537765,
17,0,17,0,,,,,,,,,,,,,,,,,,,,,,,,,,,,801.9882660000585,None,defeat,silent,blue,75,88,799.9849916000385,None,None,799.9849916000385,None,,,,,,,,,,,,,,,,,,,,,,,,,,,,,,,,,NC_52,001,2022_May_03_1652,ProdSingRedo,3.2.3,59.95588444537765,
18,0,18,0,,,,,,,,,,,,,,,,,,,,,,,,,,,,804.488464999944,None,grade,aloud,yellow,54,140,802.488406599965,None,None,802.488406599965,None,,,,,,,,,,,,,,,,,,,,,,,,,,,,,,,,,NC_52,001,2022_May_03_1652,ProdSingRedo,3.2.3,59.95588444537765,
19,0,19,0,,,,,,,,,,,,,,,,,,,,,,,,,,,,807.0051525000017,None,welcome,aloud,yellow,34,354,805.0027908000629,None,None,805.0027908000629,None,,,,,,,,,,,,,,,,,,,,,,,,,,,,,,,,,NC_52,001,2022_May_03_1652,ProdSingRedo,3.2.3,59.95588444537765,
20,0,20,0,,,,,,,,,,,,,,,,,,,,,,,,,,,,809.5210889000446,None,addition,aloud,yellow,59,2,807.5166360000148,None,None,807.5166360000148,None,,,,,,,,,,,,,,,,,,,,,,,,,,,,,,,,,NC_52,001,2022_May_03_1652,ProdSingRedo,3.2.3,59.95588444537765,
21,0,21,0,,,,,,,,,,,,,,,,,,,,,,,,,,,,812.0224997999612,None,machinery,aloud,yellow,48,175,810.0228898001369,None,None,810.0228898001369,None,,,,,,,,,,,,,,,,,,,,,,,,,,,,,,,,,NC_52,001,2022_May_03_1652,ProdSingRedo,3.2.3,59.95588444537765,
22,0,22,0,,,,,,,,,,,,,,,,,,,,,,,,,,,,814.5392895000987,None,division,silent,blue,65,101,812.5388146000914,None,None,812.5388146000914,None,,,,,,,,,,,,,,,,,,,,,,,,,,,,,,,,,NC_52,001,2022_May_03_1652,ProdSingRedo,3.2.3,59.95588444537765,
23,0,23,0,,,,,,,,,,,,,,,,,,,,,,,,,,,,817.0559700999875,None,childhood,sing,red,21,49,815.0488686999306,None,None,815.0488686999306,None,,,,,,,,,,,,,,,,,,,,,,,,,,,,,,,,,NC_52,001,2022_May_03_1652,ProdSingRedo,3.2.3,59.95588444537765,
24,0,24,0,,,,,,,,,,,,,,,,,,,,,,,,,,,,819.5730612000916,None,court,silent,blue,86,75,817.5661939999554,None,None,817.5661939999554,None,,,,,,,,,,,,,,,,,,,,,,,,,,,,,,,,,NC_52,001,2022_May_03_1652,ProdSingRedo,3.2.3,59.95588444537765,
25,0,25,0,,,,,,,,,,,,,,,,,,,,,,,,,,,,822.0897886999883,None,stand,aloud,yellow,32,302,820.0849876999855,None,None,820.0849876999855,None,,,,,,,,,,,,,,,,,,,,,,,,,,,,,,,,,NC_52,001,2022_May_03_1652,ProdSingRedo,3.2.3,59.95588444537765,
26,0,26,0,,,,,,,,,,,,,,,,,,,,,,,,,,,,824.6065710999537,None,management,sing,red,16,177,822.6057351001073,None,None,822.6057351001073,None,,,,,,,,,,,,,,,,,,,,,,,,,,,,,,,,,NC_52,001,2022_May_03_1652,ProdSingRedo,3.2.3,59.95588444537765,
27,0,27,0,,,,,,,,,,,,,,,,,,,,,,,,,,,,827.123173299944,None,evidence,silent,blue,82,120,825.1228003001306,None,None,825.1228003001306,None,,,,,,,,,,,,,,,,,,,,,,,,,,,,,,,,,NC_52,001,2022_May_03_1652,ProdSingRedo,3.2.3,59.95588444537765,
28,0,28,0,,,,,,,,,,,,,,,,,,,,,,,,,,,,829.6404166999273,None,height,silent,blue,68,152,827.636905600084,None,None,827.636905600084,None,,,,,,,,,,,,,,,,,,,,,,,,,,,,,,,,,NC_52,001,2022_May_03_1652,ProdSingRedo,3.2.3,59.95588444537765,
29,0,29,0,,,,,,,,,,,,,,,,,,,,,,,,,,,,832.1568024000153,None,recall,sing,red,23,255,830.15363169997,None,None,830.15363169997,None,,,,,,,,,,,,,,,,,,,,,,,,,,,,,,,,,NC_52,001,2022_May_03_1652,ProdSingRedo,3.2.3,59.95588444537765,
30,0,30,0,,,,,,,,,,,,,,,,,,,,,,,,,,,,834.6738251000643,None,still,sing,red,11,304,832.6666685000528,None,None,832.6666685000528,None,,,,,,,,,,,,,,,,,,,,,,,,,,,,,,,,,NC_52,001,2022_May_03_1652,ProdSingRedo,3.2.3,59.95588444537765,
31,0,31,0,,,,,,,,,,,,,,,,,,,,,,,,,,,,837.1905923001468,None,state,sing,red,1,303,835.1871333001181,None,None,835.1871333001181,None,,,,,,,,,,,,,,,,,,,,,,,,,,,,,,,,,NC_52,001,2022_May_03_1652,ProdSingRedo,3.2.3,59.95588444537765,
32,0,32,0,,,,,,,,,,,,,,,,,,,,,,,,,,,,839.706064300146,None,production,aloud,yellow,41,240,837.7068724001292,None,None,837.7068724001292,None,,,,,,,,,,,,,,,,,,,,,,,,,,,,,,,,,NC_52,001,2022_May_03_1652,ProdSingRedo,3.2.3,59.95588444537765,
33,0,33,0,,,,,,,,,,,,,,,,,,,,,,,,,,,,842.2246765000746,None,harmony,aloud,yellow,45,148,840.2240836999845,None,None,840.2240836999845,None,,,,,,,,,,,,,,,,,,,,,,,,,,,,,,,,,NC_52,001,2022_May_03_1652,ProdSingRedo,3.2.3,59.95588444537765,
34,0,34,0,,,,,,,,,,,,,,,,,,,,,,,,,,,,844.740956600057,None,estate,sing,red,12,119,842.7378682000563,None,None,842.7378682000563,None,,,,,,,,,,,,,,,,,,,,,,,,,,,,,,,,,NC_52,001,2022_May_03_1652,ProdSingRedo,3.2.3,59.95588444537765,
35,0,35,0,,,,,,,,,,,,,,,,,,,,,,,,,,,,847.2580270001199,None,passage,silent,blue,83,212,845.2550413000863,None,None,845.2550413000863,None,,,,,,,,,,,,,,,,,,,,,,,,,,,,,,,,,NC_52,001,2022_May_03_1652,ProdSingRedo,3.2.3,59.95588444537765,
36,0,36,0,,,,,,,,,,,,,,,,,,,,,,,,,,,,849.7747826999985,None,skill,silent,blue,61,289,847.7677972000092,None,None,847.7677972000092,None,,,,,,,,,,,,,,,,,,,,,,,,,,,,,,,,,NC_52,001,2022_May_03_1652,ProdSingRedo,3.2.3,59.95588444537765,
37,0,37,0,,,,,,,,,,,,,,,,,,,,,,,,,,,,852.2917574001476,None,husband,sing,red,9,156,850.2939391001128,None,None,850.2939391001128,None,,,,,,,,,,,,,,,,,,,,,,,,,,,,,,,,,NC_52,001,2022_May_03_1652,ProdSingRedo,3.2.3,59.95588444537765,
38,0,38,0,,,,,,,,,,,,,,,,,,,,,,,,,,,,854.8100338999648,None,commercial,silent,blue,87,61,852.8082574999426,None,None,852.8082574999426,None,,,,,,,,,,,,,,,,,,,,,,,,,,,,,,,,,NC_52,001,2022_May_03_1652,ProdSingRedo,3.2.3,59.95588444537765,
39,0,39,0,,,,,,,,,,,,,,,,,,,,,,,,,,,,857.3251887999941,None,budget,sing,red,7,34,855.3315767999738,None,None,855.3315767999738,None,,,,,,,,,,,,,,,,,,,,,,,,,,,,,,,,,NC_52,001,2022_May_03_1652,ProdSingRedo,3.2.3,59.95588444537765,
40,0,40,0,,,,,,,,,,,,,,,,,,,,,,,,,,,,859.8420394000132,None,watch,silent,blue,76,351,857.837990900036,None,None,857.837990900036,None,,,,,,,,,,,,,,,,,,,,,,,,,,,,,,,,,NC_52,001,2022_May_03_1652,ProdSingRedo,3.2.3,59.95588444537765,
41,0,41,0,,,,,,,,,,,,,,,,,,,,,,,,,,,,862.3589469001163,None,trash,aloud,yellow,53,337,860.3569772001356,None,None,860.3569772001356,None,,,,,,,,,,,,,,,,,,,,,,,,,,,,,,,,,NC_52,001,2022_May_03_1652,ProdSingRedo,3.2.3,59.95588444537765,
42,0,42,0,,,,,,,,,,,,,,,,,,,,,,,,,,,,864.8757832001429,None,strain,silent,blue,62,308,862.8600634001195,None,None,862.8600634001195,None,,,,,,,,,,,,,,,,,,,,,,,,,,,,,,,,,NC_52,001,2022_May_03_1652,ProdSingRedo,3.2.3,59.95588444537765,
43,0,43,0,,,,,,,,,,,,,,,,,,,,,,,,,,,,867.3925205001142,None,debate,sing,red,25,87,865.3906018000562,None,None,865.3906018000562,None,,,,,,,,,,,,,,,,,,,,,,,,,,,,,,,,,NC_52,001,2022_May_03_1652,ProdSingRedo,3.2.3,59.95588444537765,
44,0,44,0,,,,,,,,,,,,,,,,,,,,,,,,,,,,869.9087008000351,None,pressure,sing,red,15,232,867.9088365000207,None,None,867.9088365000207,None,,,,,,,,,,,,,,,,,,,,,,,,,,,,,,,,,NC_52,001,2022_May_03_1652,ProdSingRedo,3.2.3,59.95588444537765,
45,0,45,0,,,,,,,,,,,,,,,,,,,,,,,,,,,,872.426273399964,None,partner,silent,blue,60,211,870.4227622000035,None,None,870.4227622000035,None,,,,,,,,,,,,,,,,,,,,,,,,,,,,,,,,,NC_52,001,2022_May_03_1652,ProdSingRedo,3.2.3,59.95588444537765,
46,0,46,0,,,,,,,,,,,,,,,,,,,,,,,,,,,,874.9431092999876,None,guard,silent,blue,84,145,872.9369169999845,None,None,872.9369169999845,None,,,,,,,,,,,,,,,,,,,,,,,,,,,,,,,,,NC_52,001,2022_May_03_1652,ProdSingRedo,3.2.3,59.95588444537765,
47,0,47,0,,,,,,,,,,,,,,,,,,,,,,,,,,,,877.4604839000385,None,straight,silent,blue,70,307,875.4585919999518,None,None,875.4585919999518,None,,,,,,,,,,,,,,,,,,,,,,,,,,,,,,,,,NC_52,001,2022_May_03_1652,ProdSingRedo,3.2.3,59.95588444537765,
48,0,48,0,,,,,,,,,,,,,,,,,,,,,,,,,,,,879.9768380001187,None,bright,silent,blue,72,29,877.9787445000838,None,None,877.9787445000838,None,,,,,,,,,,,,,,,,,,,,,,,,,,,,,,,,,NC_52,001,2022_May_03_1652,ProdSingRedo,3.2.3,59.95588444537765,
49,0,49,0,,,,,,,,,,,,,,,,,,,,,,,,,,,,882.4926686000545,None,congress,aloud,yellow,40,67,880.4912397000007,None,None,880.4912397000007,None,,,,,,,,,,,,,,,,,,,,,,,,,,,,,,,,,NC_52,001,2022_May_03_1652,ProdSingRedo,3.2.3,59.95588444537765,
50,0,50,0,,,,,,,,,,,,,,,,,,,,,,,,,,,,885.0106683999766,None,under,sing,red,5,343,883.0081730000675,None,None,883.0081730000675,None,,,,,,,,,,,,,,,,,,,,,,,,,,,,,,,,,NC_52,001,2022_May_03_1652,ProdSingRedo,3.2.3,59.95588444537765,
51,0,51,0,,,,,,,,,,,,,,,,,,,,,,,,,,,,887.5273432999384,None,course,aloud,yellow,58,74,885.5117935999297,None,None,885.5117935999297,None,,,,,,,,,,,,,,,,,,,,,,,,,,,,,,,,,NC_52,001,2022_May_03_1652,ProdSingRedo,3.2.3,59.95588444537765,
52,0,52,0,,,,,,,,,,,,,,,,,,,,,,,,,,,,890.0440353001468,None,accident,aloud,yellow,56,0,888.041063599987,None,None,888.041063599987,None,,,,,,,,,,,,,,,,,,,,,,,,,,,,,,,,,NC_52,001,2022_May_03_1652,ProdSingRedo,3.2.3,59.95588444537765,
53,0,53,0,,,,,,,,,,,,,,,,,,,,,,,,,,,,892.561010299949,None,income,aloud,yellow,30,159,890.5537769000512,None,None,890.5537769000512,None,,,,,,,,,,,,,,,,,,,,,,,,,,,,,,,,,NC_52,001,2022_May_03_1652,ProdSingRedo,3.2.3,59.95588444537765,
54,0,54,0,,,,,,,,,,,,,,,,,,,,,,,,,,,,895.0776963001117,None,review,sing,red,27,263,893.0747885000892,None,None,893.0747885000892,None,,,,,,,,,,,,,,,,,,,,,,,,,,,,,,,,,NC_52,001,2022_May_03_1652,ProdSingRedo,3.2.3,59.95588444537765,
55,0,55,0,,,,,,,,,,,,,,,,,,,,,,,,,,,,897.5937155000865,None,portion,aloud,yellow,42,228,895.5876094000414,None,None,895.5876094000414,None,,,,,,,,,,,,,,,,,,,,,,,,,,,,,,,,,NC_52,001,2022_May_03_1652,ProdSingRedo,3.2.3,59.95588444537765,
56,0,56,0,,,,,,,,,,,,,,,,,,,,,,,,,,,,900.1113551999442,None,force,aloud,yellow,37,131,898.1073503999505,None,None,898.1073503999505,None,,,,,,,,,,,,,,,,,,,,,,,,,,,,,,,,,NC_52,001,2022_May_03_1652,ProdSingRedo,3.2.3,59.95588444537765,
57,0,57,0,,,,,,,,,,,,,,,,,,,,,,,,,,,,902.6282278001308,None,edition,aloud,yellow,38,107,900.6213315001223,None,None,900.6213315001223,None,,,,,,,,,,,,,,,,,,,,,,,,,,,,,,,,,NC_52,001,2022_May_03_1652,ProdSingRedo,3.2.3,59.95588444537765,
58,0,58,0,,,,,,,,,,,,,,,,,,,,,,,,,,,,905.1453889000695,None,mechanical,sing,red,8,185,903.1451016999781,None,None,903.1451016999781,None,,,,,,,,,,,,,,,,,,,,,,,,,,,,,,,,,NC_52,001,2022_May_03_1652,ProdSingRedo,3.2.3,59.95588444537765,
59,0,59,0,,,,,,,,,,,,,,,,,,,,,,,,,,,,907.6622584001161,None,interview,silent,blue,74,165,905.6633033000398,None,None,905.6633033000398,None,,,,,,,,,,,,,,,,,,,,,,,,,,,,,,,,,NC_52,001,2022_May_03_1652,ProdSingRedo,3.2.3,59.95588444537765,
60,0,60,0,,,,,,,,,,,,,,,,,,,,,,,,,,,,910.1804961001035,None,owner,aloud,yellow,57,208,908.1804760000668,None,None,908.1804760000668,None,,,,,,,,,,,,,,,,,,,,,,,,,,,,,,,,,NC_52,001,2022_May_03_1652,ProdSingRedo,3.2.3,59.95588444537765,
61,0,61,0,,,,,,,,,,,,,,,,,,,,,,,,,,,,912.6957396001089,None,concern,aloud,yellow,33,65,910.6912353001535,None,None,910.6912353001535,None,,,,,,,,,,,,,,,,,,,,,,,,,,,,,,,,,NC_52,001,2022_May_03_1652,ProdSingRedo,3.2.3,59.95588444537765,
62,0,62,0,,,,,,,,,,,,,,,,,,,,,,,,,,,,915.2124244000297,None,reach,sing,red,6,253,913.2099868999794,None,None,913.2099868999794,None,,,,,,,,,,,,,,,,,,,,,,,,,,,,,,,,,NC_52,001,2022_May_03_1652,ProdSingRedo,3.2.3,59.95588444537765,
63,0,63,0,,,,,,,,,,,,,,,,,,,,,,,,,,,,917.7296772999689,None,working,aloud,yellow,50,357,915.7274430999532,None,None,915.7274430999532,None,,,,,,,,,,,,,,,,,,,,,,,,,,,,,,,,,NC_52,001,2022_May_03_1652,ProdSingRedo,3.2.3,59.95588444537765,
64,0,64,0,,,,,,,,,,,,,,,,,,,,,,,,,,,,920.2461697000545,None,junior,aloud,yellow,31,167,918.2480020001531,None,None,918.2480020001531,None,,,,,,,,,,,,,,,,,,,,,,,,,,,,,,,,,NC_52,001,2022_May_03_1652,ProdSingRedo,3.2.3,59.95588444537765,
65,0,65,0,,,,,,,,,,,,,,,,,,,,,,,,,,,,922.7630223000888,None,bicycle,silent,blue,69,21,920.7672411000822,None,None,920.7672411000822,None,,,,,,,,,,,,,,,,,,,,,,,,,,,,,,,,,NC_52,001,2022_May_03_1652,ProdSingRedo,3.2.3,59.95588444537765,
66,0,66,0,,,,,,,,,,,,,,,,,,,,,,,,,,,,925.2797517001163,None,colonel,sing,red,26,55,923.2718923001084,None,None,923.2718923001084,None,,,,,,,,,,,,,,,,,,,,,,,,,,,,,,,,,NC_52,001,2022_May_03_1652,ProdSingRedo,3.2.3,59.95588444537765,
67,0,67,0,,,,,,,,,,,,,,,,,,,,,,,,,,,,927.7966976000462,None,short,aloud,yellow,49,285,925.7888565999456,None,None,925.7888565999456,None,,,,,,,,,,,,,,,,,,,,,,,,,,,,,,,,,NC_52,001,2022_May_03_1652,ProdSingRedo,3.2.3,59.95588444537765,
68,0,68,0,,,,,,,,,,,,,,,,,,,,,,,,,,,,930.3133936999366,None,hunger,silent,blue,80,155,928.3128273999318,None,None,928.3128273999318,None,,,,,,,,,,,,,,,,,,,,,,,,,,,,,,,,,NC_52,001,2022_May_03_1652,ProdSingRedo,3.2.3,59.95588444537765,
69,0,69,0,,,,,,,,,,,,,,,,,,,,,,,,,,,,932.8303193999454,None,quarter,silent,blue,77,246,930.8377497999463,None,None,930.8377497999463,None,,,,,,,,,,,,,,,,,,,,,,,,,,,,,,,,,NC_52,001,2022_May_03_1652,ProdSingRedo,3.2.3,59.95588444537765,
70,0,70,0,,,,,,,,,,,,,,,,,,,,,,,,,,,,935.347081999993,None,goose,sing,red,19,138,933.3420168999583,None,None,933.3420168999583,None,,,,,,,,,,,,,,,,,,,,,,,,,,,,,,,,,NC_52,001,2022_May_03_1652,ProdSingRedo,3.2.3,59.95588444537765,
71,0,71,0,,,,,,,,,,,,,,,,,,,,,,,,,,,,937.8639971001539,None,throw,sing,red,17,330,935.8575061000884,None,None,935.8575061000884,None,,,,,,,,,,,,,,,,,,,,,,,,,,,,,,,,,NC_52,001,2022_May_03_1652,ProdSingRedo,3.2.3,59.95588444537765,
72,0,72,0,,,,,,,,,,,,,,,,,,,,,,,,,,,,940.3807985000312,None,shape,aloud,yellow,52,282,938.3797816999722,None,None,938.3797816999722,None,,,,,,,,,,,,,,,,,,,,,,,,,,,,,,,,,NC_52,001,2022_May_03_1652,ProdSingRedo,3.2.3,59.95588444537765,
73,0,73,0,,,,,,,,,,,,,,,,,,,,,,,,,,,,942.8976018000394,None,minute,aloud,yellow,51,192,940.8949563000351,None,None,940.8949563000351,None,,,,,,,,,,,,,,,,,,,,,,,,,,,,,,,,,NC_52,001,2022_May_03_1652,ProdSingRedo,3.2.3,59.95588444537765,
74,0,74,0,,,,,,,,,,,,,,,,,,,,,,,,,,,,945.4156732999254,None,shear,silent,blue,63,283,943.4134184001014,None,None,943.4134184001014,None,,,,,,,,,,,,,,,,,,,,,,,,,,,,,,,,,NC_52,001,2022_May_03_1652,ProdSingRedo,3.2.3,59.95588444537765,
75,0,75,0,,,,,,,,,,,,,,,,,,,,,,,,,,,,947.9312690000515,None,clean,aloud,yellow,55,51,945.9351447999943,None,None,945.9351447999943,None,,,,,,,,,,,,,,,,,,,,,,,,,,,,,,,,,NC_52,001,2022_May_03_1652,ProdSingRedo,3.2.3,59.95588444537765,
76,0,76,0,,,,,,,,,,,,,,,,,,,,,,,,,,,,950.448083900148,None,brilliant,aloud,yellow,43,30,948.457200899953,None,None,948.457200899953,None,,,,,,,,,,,,,,,,,,,,,,,,,,,,,,,,,NC_52,001,2022_May_03_1652,ProdSingRedo,3.2.3,59.95588444537765,
77,0,77,0,,,,,,,,,,,,,,,,,,,,,,,,,,,,952.9650359000079,None,curve,aloud,yellow,39,82,950.9643363000359,None,None,950.9643363000359,None,,,,,,,,,,,,,,,,,,,,,,,,,,,,,,,,,NC_52,001,2022_May_03_1652,ProdSingRedo,3.2.3,59.95588444537765,
78,0,78,0,,,,,,,,,,,,,,,,,,,,,,,,,,,,955.4823750001378,None,subject,sing,red,0,312,953.4833196001127,None,None,953.4833196001127,None,,,,,,,,,,,,,,,,,,,,,,,,,,,,,,,,,NC_52,001,2022_May_03_1652,ProdSingRedo,3.2.3,59.95588444537765,
79,0,79,0,,,,,,,,,,,,,,,,,,,,,,,,,,,,957.9986881001387,None,account,aloud,yellow,36,1,956.0000927001238,None,None,956.0000927001238,None,,,,,,,,,,,,,,,,,,,,,,,,,,,,,,,,,NC_52,001,2022_May_03_1652,ProdSingRedo,3.2.3,59.95588444537765,
80,0,80,0,,,,,,,,,,,,,,,,,,,,,,,,,,,,960.5156217000913,None,present,sing,red,2,231,958.5084651999641,None,None,958.5084651999641,None,,,,,,,,,,,,,,,,,,,,,,,,,,,,,,,,,NC_52,001,2022_May_03_1652,ProdSingRedo,3.2.3,59.95588444537765,
81,0,81,0,,,,,,,,,,,,,,,,,,,,,,,,,,,,963.0323960001115,None,second,sing,red,18,278,961.0251202001236,None,None,961.0251202001236,None,,,,,,,,,,,,,,,,,,,,,,,,,,,,,,,,,NC_52,001,2022_May_03_1652,ProdSingRedo,3.2.3,59.95588444537765,
82,0,82,0,,,,,,,,,,,,,,,,,,,,,,,,,,,,965.5492974000517,None,blind,sing,red,24,24,963.5448104001116,None,None,963.5448104001116,None,,,,,,,,,,,,,,,,,,,,,,,,,,,,,,,,,NC_52,001,2022_May_03_1652,ProdSingRedo,3.2.3,59.95588444537765,
83,0,83,0,,,,,,,,,,,,,,,,,,,,,,,,,,,,968.0659978000913,None,danger,sing,red,22,85,966.0642184999306,None,None,966.0642184999306,None,,,,,,,,,,,,,,,,,,,,,,,,,,,,,,,,,NC_52,001,2022_May_03_1652,ProdSingRedo,3.2.3,59.95588444537765,
84,0,84,0,,,,,,,,,,,,,,,,,,,,,,,,,,,,970.5829823999666,None,generation,aloud,yellow,35,136,968.5823934001382,None,None,968.5823934001382,None,,,,,,,,,,,,,,,,,,,,,,,,,,,,,,,,,NC_52,001,2022_May_03_1652,ProdSingRedo,3.2.3,59.95588444537765,
85,0,85,0,,,,,,,,,,,,,,,,,,,,,,,,,,,,973.0997657999396,None,corner,sing,red,14,69,971.0843625999987,None,None,971.0843625999987,None,,,,,,,,,,,,,,,,,,,,,,,,,,,,,,,,,NC_52,001,2022_May_03_1652,ProdSingRedo,3.2.3,59.95588444537765,
86,0,86,0,,,,,,,,,,,,,,,,,,,,,,,,,,,,975.6165354000404,None,burden,silent,blue,81,36,973.6163985999301,None,None,973.6163985999301,None,,,,,,,,,,,,,,,,,,,,,,,,,,,,,,,,,NC_52,001,2022_May_03_1652,ProdSingRedo,3.2.3,59.95588444537765,
87,0,87,0,,,,,,,,,,,,,,,,,,,,,,,,,,,,978.1333379999269,None,answer,sing,red,10,8,976.1330691000912,None,None,976.1330691000912,None,,,,,,,,,,,,,,,,,,,,,,,,,,,,,,,,,NC_52,001,2022_May_03_1652,ProdSingRedo,3.2.3,59.95588444537765,
88,0,88,0,,,,,,,,,,,,,,,,,,,,,,,,,,,,980.6502553001046,None,heavy,silent,blue,78,151,978.6497025999706,None,None,978.6497025999706,None,,,,,,,,,,,,,,,,,,,,,,,,,,,,,,,,,NC_52,001,2022_May_03_1652,ProdSingRedo,3.2.3,59.95588444537765,
89,0,89,0,,,,,,,,,,,,,,,,,,,,,,,,,,,,983.1670792000368,None,native,aloud,yellow,46,199,981.1666230999399,None,None,981.1666230999399,None,,,,,,,,,,,,,,,,,,,,,,,,,,,,,,,,,NC_52,001,2022_May_03_1652,ProdSingRedo,3.2.3,59.95588444537765,
,,,,,,,,,,,,,,,,,,,,,,,,,,,,,,,,,,,,,,,,,,,983.6673817001283,None,k,102.12713459995575,983.6673817001283,None,,,,,,,,,,,,,,,,,,,,,,,,,,,NC_52,001,2022_May_03_1652,ProdSingRedo,3.2.3,59.95588444537765,
,,,,0,0,0,0,,,,,,,,,,,,,,,,,,,,,,,,1098.4053396000527,None,,,,,,,,,,,,,,,,,watch,silent,white,0,76,351,1086.340098200133,None,1086.340098200133,None,1,8.774133699946105,1086.340098200133,None,1095.1533944001421,None,1095.67068380001,None,1095.67068380001,None,n,2.6999719999730587,1095.67068380001,None,,,NC_52,001,2022_May_03_1652,ProdSingRedo,3.2.3,59.95588444537765,
,,,,1,0,1,0,,,,,,,,,,,,,,,,,,,,,,,,1106.3685854999349,None,,,,,,,,,,,,,,,,,evidence,silent,white,1,82,120,1098.930728700012,None,1098.930728700012,None,6,4.2637536998372525,1098.930728700012,None,1103.248511499958,None,1103.760238399962,None,1103.760238399962,None,f,2.5702772999648005,1103.760238399962,None,,,NC_52,001,2022_May_03_1652,ProdSingRedo,3.2.3,59.95588444537765,
,,,,2,0,2,0,,,,,,,,,,,,,,,,,,,,,,,,1112.0272635000292,None,,,,,,,,,,,,,,,,,cross,new_a,white,2,91,80,1106.8878729999997,None,1106.8878729999997,None,1,2.922295000171289,1106.8878729999997,None,1109.8424718999304,None,1110.350789200049,None,1110.350789200049,None,n,1.65956910001114,1110.350789200049,None,,,NC_52,001,2022_May_03_1652,ProdSingRedo,3.2.3,59.95588444537765,
,,,,3,0,3,0,,,,,,,,,,,,,,,,,,,,,,,,1118.8387687001377,None,,,,,,,,,,,,,,,,,growth,new_a,white,3,96,144,1112.5582944001071,None,1112.5582944001071,None,6,3.9003558999393135,1112.5582944001071,None,1116.496294300072,None,1117.0216797001194,None,1117.0216797001194,None,r,1.77281490014866,1117.0216797001194,None,,,NC_52,001,2022_May_03_1652,ProdSingRedo,3.2.3,59.95588444537765,
,,,,4,0,4,0,,,,,,,,,,,,,,,,,,,,,,,,1125.536278200103,None,,,,,,,,,,,,,,,,,brilliant,aloud,white,4,43,30,1119.3449675000738,None,1119.3449675000738,None,6,2.777452499838546,1119.3449675000738,None,1122.1695093000308,None,1122.690874800086,None,1122.690874800086,None,r,2.8156165999826044,1122.690874800086,None,,,NC_52,001,2022_May_03_1652,ProdSingRedo,3.2.3,59.95588444537765,
,,,,5,0,5,0,,,,,,,,,,,,,,,,,,,,,,,,1131.7682497000787,None,,,,,,,,,,,,,,,,,mechanical,sing,white,5,8,185,1126.0655555000994,None,1126.0655555000994,None,6,2.0409779001493007,1126.0655555000994,None,1128.1543185000774,None,1128.6734110999387,None,1128.6734110999387,None,f,3.056997099891305,1128.6734110999387,None,,,NC_52,001,2022_May_03_1652,ProdSingRedo,3.2.3,59.95588444537765,
,,,,6,0,6,0,,,,,,,,,,,,,,,,,,,,,,,,1136.9199330999982,None,,,,,,,,,,,,,,,,,pressure,sing,white,6,15,232,1132.294819300063,None,1132.294819300063,None,6,2.531726300017908,1132.294819300063,None,1134.8697838000953,None,1135.3878961999435,None,1135.3878961999435,None,r,1.4945760001428425,1135.3878961999435,None,,,NC_52,001,2022_May_03_1652,ProdSingRedo,3.2.3,59.95588444537765,
,,,,7,0,7,0,,,,,,,,,,,,,,,,,,,,,,,,1141.5533815999515,None,,,,,,,,,,,,,,,,,religion,new_a,white,7,99,258,1137.4455987999681,None,1137.4455987999681,None,1,2.100469700060785,1137.4455987999681,None,1139.57897770009,None,1140.0942043000832,None,1140.0942043000832,None,n,1.4284359000157565,1140.0942043000832,None,,,NC_52,001,2022_May_03_1652,ProdSingRedo,3.2.3,59.95588444537765,
,,,,8,0,8,0,,,,,,,,,,,,,,,,,,,,,,,,1147.7537052000407,None,,,,,,,,,,,,,,,,,congress,aloud,white,8,40,67,1142.0787436000537,None,1142.0787436000537,None,1,3.0038763999473304,1142.0787436000537,None,1145.1343074000906,None,1145.657782500144,None,1145.657782500144,None,n,2.0650377001147717,1145.657782500144,None,,,NC_52,001,2022_May_03_1652,ProdSingRedo,3.2.3,59.95588444537765,
,,,,9,0,9,0,,,,,,,,,,,,,,,,,,,,,,,,1158.3543066000566,None,,,,,,,,,,,,,,,,,build,sing,white,9,28,35,1148.280606900109,None,1148.280606900109,None,4,4.625939599936828,1148.280606900109,None,1152.9477914001327,None,1153.463117300067,None,1153.463117300067,None,f,4.867387300124392,1153.463117300067,None,,,NC_52,001,2022_May_03_1652,ProdSingRedo,3.2.3,59.95588444537765,
,,,,10,0,10,0,,,,,,,,,,,,,,,,,,,,,,,,1166.5211325001437,None,,,,,,,,,,,,,,,,,junior,aloud,white,10,31,167,1158.8782641999424,None,1158.8782641999424,None,4,3.7801989999134094,1158.8782641999424,None,1162.704095999943,None,1163.225406399928,None,1163.225406399928,None,f,3.2650171001441777,1163.225406399928,None,,,NC_52,001,2022_May_03_1652,ProdSingRedo,3.2.3,59.95588444537765,
,,,,11,0,11,0,,,,,,,,,,,,,,,,,,,,,,,,1171.2373935999349,None,,,,,,,,,,,,,,,,,alert,new_c,white,11,169,6,1167.0431792000309,None,1167.0431792000309,None,1,1.8555028000846505,1167.0431792000309,None,1168.9561469000764,None,1169.4619364000391,None,1169.4619364000391,None,n,1.74883639998734,1169.4619364000391,None,,,NC_52,001,2022_May_03_1652,ProdSingRedo,3.2.3,59.95588444537765,
,,,,12,0,12,0,,,,,,,,,,,,,,,,,,,,,,,,1175.7053160001524,None,,,,,,,,,,,,,,,,,theme,new_a,white,12,95,326,1171.755596500123,None,1171.755596500123,None,1,1.9429454999044538,1171.755596500123,None,1173.7510293000378,None,1174.269425699953,None,1174.269425699953,None,n,1.4052165998145938,1174.269425699953,None,,,NC_52,001,2022_May_03_1652,ProdSingRedo,3.2.3,59.95588444537765,
,,,,13,0,13,0,,,,,,,,,,,,,,,,,,,,,,,,1181.6575820001308,None,,,,,,,,,,,,,,,,,broad,new_b,white,13,120,31,1176.2341215999331,None,1176.2341215999331,None,1,2.832194000016898,1176.2341215999331,None,1179.1188231001142,None,1179.6275377999991,None,1179.6275377999991,None,n,1.998914900003001,1179.6275377999991,None,,,NC_52,001,2022_May_03_1652,ProdSingRedo,3.2.3,59.95588444537765,
,,,,14,0,14,0,,,,,,,,,,,,,,,,,,,,,,,,1186.4490712999832,None,,,,,,,,,,,,,,,,,suspect,new_c,white,14,175,318,1182.185701499926,None,1182.185701499926,None,1,2.304800200043246,1182.185701499926,None,1184.5323816000018,None,1185.0615703000221,None,1185.0615703000221,None,n,1.356916799908504,1185.0615703000221,None,,,NC_52,001,2022_May_03_1652,ProdSingRedo,3.2.3,59.95588444537765,
,,,,15,0,15,0,,,,,,,,,,,,,,,,,,,,,,,,1195.3239035999868,None,,,,,,,,,,,,,,,,,bucket,new_b,white,15,142,33,1186.9833446000703,None,1186.9833446000703,None,2,4.6751771999988705,1186.9833446000703,None,1191.7021925000008,None,1192.2294809001032,None,1192.2294809001032,None,f,3.068845000118017,1192.2294809001032,None,,,NC_52,001,2022_May_03_1652,ProdSingRedo,3.2.3,59.95588444537765,
,,,,16,0,16,0,,,,,,,,,,,,,,,,,,,,,,,,1199.3801891000476,None,,,,,,,,,,,,,,,,,agency,new_a,white,16,93,4,1195.8502229000442,None,1195.8502229000442,None,1,1.9291314999572933,1195.8502229000442,None,1197.8237561001442,None,1198.3456031000242,None,1198.3456031000242,None,n,1.0085471998900175,1198.3456031000242,None,,,NC_52,001,2022_May_03_1652,ProdSingRedo,3.2.3,59.95588444537765,
,,,,17,0,17,0,,,,,,,,,,,,,,,,,,,,,,,,1207.691473199986,None,,,,,,,,,,,,,,,,,minute,aloud,white,17,51,192,1199.885275800014,None,1199.885275800014,None,3,4.949202600168064,1199.885275800014,None,1204.8888990001287,None,1205.4095672999974,None,1205.4095672999974,None,f,2.2489833999425173,1205.4095672999974,None,,,NC_52,001,2022_May_03_1652,ProdSingRedo,3.2.3,59.95588444537765,
,,,,18,0,18,0,,,,,,,,,,,,,,,,,,,,,,,,1214.2921937999781,None,,,,,,,,,,,,,,,,,interior,sing,white,18,4,164,1208.213319499977,None,1208.213319499977,None,2,2.8211823999881744,1208.213319499977,None,1211.0822582999244,None,1211.591574799968,None,1211.591574799968,None,n,2.6750503999646753,1211.591574799968,None,,,NC_52,001,2022_May_03_1652,ProdSingRedo,3.2.3,59.95588444537765,
,,,,19,0,19,0,,,,,,,,,,,,,,,,,,,,,,,,1221.6079248001333,None,,,,,,,,,,,,,,,,,smell,silent,white,19,64,291,1214.8119511001278,None,1214.8119511001278,None,5,4.286943499930203,1214.8119511001278,None,1219.1389186999295,None,1219.6550414999947,None,1219.6550414999947,None,f,1.9156839998904616,1219.6550414999947,None,,,NC_52,001,2022_May_03_1652,ProdSingRedo,3.2.3,59.95588444537765,
,,,,20,0,20,0,,,,,,,,,,,,,,,,,,,,,,,,1230.4269125999417,None,,,,,,,,,,,,,,,,,device,sing,white,20,20,93,1222.1347296000458,None,1222.1347296000458,None,4,4.147824200103059,1222.1347296000458,None,1226.3193016001023,None,1226.847630500095,None,1226.847630500095,None,r,3.5468188000377268,1226.847630500095,None,,,NC_52,001,2022_May_03_1652,ProdSingRedo,3.2.3,59.95588444537765,
,,,,21,0,21,0,,,,,,,,,,,,,,,,,,,,,,,,1234.8419369000476,None,,,,,,,,,,,,,,,,,murder,new_c,white,21,162,195,1230.9506841001566,None,1230.9506841001566,None,1,1.9480780998710543,1230.9506841001566,None,1232.9494469000492,None,1233.4604585999623,None,1233.4604585999623,None,n,1.3420082998927683,1233.4604585999623,None,,,NC_52,001,2022_May_03_1652,ProdSingRedo,3.2.3,59.95588444537765,
,,,,22,0,22,0,,,,,,,,,,,,,,,,,,,,,,,,1240.7103268001229,None,,,,,,,,,,,,,,,,,subject,sing,white,22,0,312,1235.370722600026,None,1235.370722600026,None,5,3.1997297999914736,1235.370722600026,None,1238.6217734001111,None,1239.1367444000207,None,1239.1367444000207,None,f,1.5459232002031058,1239.1367444000207,None,,,NC_52,001,2022_May_03_1652,ProdSingRedo,3.2.3,59.95588444537765,
,,,,23,0,23,0,,,,,,,,,,,,,,,,,,,,,,,,1249.185126000084,None,,,,,,,,,,,,,,,,,estate,sing,white,23,12,119,1241.2312984999735,None,1241.2312984999735,None,3,3.531348899938166,1241.2312984999735,None,1244.8028961999808,None,1245.331597500015,None,1245.331597500015,None,f,3.8225962000433356,1245.331597500015,None,,,NC_52,001,2022_May_03_1652,ProdSingRedo,3.2.3,59.95588444537765,
,,,,24,0,24,0,,,,,,,,,,,,,,,,,,,,,,,,1253.9456043001264,None,,,,,,,,,,,,,,,,,quarter,silent,white,24,77,246,1249.7138823999558,None,1249.7138823999558,None,6,2.2887522999662906,1249.7138823999558,None,1252.039326700149,None,1252.5658055001404,None,1252.5658055001404,None,r,1.3486203998327255,1252.5658055001404,None,,,NC_52,001,2022_May_03_1652,ProdSingRedo,3.2.3,59.95588444537765,
,,,,25,0,25,0,,,,,,,,,,,,,,,,,,,,,,,,1262.7280935000163,None,,,,,,,,,,,,,,,,,trial,new_c,white,25,152,341,1254.4684640001506,None,1254.4684640001506,None,3,5.829992200015113,1254.4684640001506,None,1260.340335200075,None,1260.8636392999906,None,1260.8636392999906,None,n,1.8347933001350611,1260.8636392999906,None,,,NC_52,001,2022_May_03_1652,ProdSingRedo,3.2.3,59.95588444537765,
,,,,26,0,26,0,,,,,,,,,,,,,,,,,,,,,,,,1275.611666199984,None,,,,,,,,,,,,,,,,,detective,new_a,white,26,103,92,1263.2542673000135,None,1263.2542673000135,None,6,8.188220200128853,1263.2542673000135,None,1271.4942072001286,None,1272.0173037000932,None,1272.0173037000932,None,f,3.5694108000025153,1272.0173037000932,None,,,NC_52,001,2022_May_03_1652,ProdSingRedo,3.2.3,59.95588444537765,
,,,,27,0,27,0,,,,,,,,,,,,,,,,,,,,,,,,1280.9115452000406,None,,,,,,,,,,,,,,,,,height,silent,white,27,68,152,1276.1385465001222,None,1276.1385465001222,None,1,3.0398093999829143,1276.1385465001222,None,1279.2418514001183,None,1279.7647480999585,None,1279.7647480999585,None,n,1.109908499987796,1279.7647480999585,None,,,NC_52,001,2022_May_03_1652,ProdSingRedo,3.2.3,59.95588444537765,
,,,,28,0,28,0,,,,,,,,,,,,,,,,,,,,,,,,1287.4309390999842,None,,,,,,,,,,,,,,,,,crime,new_a,white,28,107,78,1281.434479800053,None,1281.434479800053,None,6,3.26395420008339,1281.434479800053,None,1284.7379114001524,None,1285.2448808001354,None,1285.2448808001354,None,f,2.157923199934885,1285.2448808001354,None,,,NC_52,001,2022_May_03_1652,ProdSingRedo,3.2.3,59.95588444537765,
,,,,29,0,29,0,,,,,,,,,,,,,,,,,,,,,,,,1295.2144435001537,None,,,,,,,,,,,,,,,,,state,sing,white,29,1,303,1287.9570039999671,None,1287.9570039999671,None,3,5.125534599879757,1287.9570039999671,None,1293.1287092999555,None,1293.6559218999464,None,1293.6559218999464,None,n,1.5306575999129564,1293.6559218999464,None,,,NC_52,001,2022_May_03_1652,ProdSingRedo,3.2.3,59.95588444537765,
,,,,30,0,30,0,,,,,,,,,,,,,,,,,,,,,,,,1300.7394133000635,None,,,,,,,,,,,,,,,,,power,new_c,white,30,163,230,1295.7374049001373,None,1295.7374049001373,None,1,3.504996499978006,1295.7374049001373,None,1299.2975383000448,None,1299.8166289001238,None,1299.8166289001238,None,n,0.8976459999103099,1299.8166289001238,None,,,NC_52,001,2022_May_03_1652,ProdSingRedo,3.2.3,59.95588444537765,
,,,,31,0,31,0,,,,,,,,,,,,,,,,,,,,,,,,1305.7987331999466,None,,,,,,,,,,,,,,,,,division,silent,white,31,65,101,1301.2554616001435,None,1301.2554616001435,None,6,2.363299700198695,1301.2554616001435,None,1303.659893900156,None,1304.184913800098,None,1304.184913800098,None,r,1.5858736999798566,1304.184913800098,None,,,NC_52,001,2022_May_03_1652,ProdSingRedo,3.2.3,59.95588444537765,
,,,,32,0,32,0,,,,,,,,,,,,,,,,,,,,,,,,1309.8737210999243,None,,,,,,,,,,,,,,,,,bitter,new_b,white,32,143,23,1306.3222352000885,None,1306.3222352000885,None,1,2.000521200010553,1306.3222352000885,None,1308.3632785000373,None,1308.879872099962,None,1308.879872099962,None,n,0.9623795999214053,1308.879872099962,None,,,NC_52,001,2022_May_03_1652,ProdSingRedo,3.2.3,59.95588444537765,
,,,,33,0,33,0,,,,,,,,,,,,,,,,,,,,,,,,1314.313888600096,None,,,,,,,,,,,,,,,,,discovery,new_c,white,33,151,95,1310.407617900055,None,1310.407617900055,None,1,2.5228581000119448,1310.407617900055,None,1312.9830096000805,None,1313.5009264000691,None,1313.5009264000691,None,n,0.7736217000056058,1313.5009264000691,None,,,NC_52,001,2022_May_03_1652,ProdSingRedo,3.2.3,59.95588444537765,
,,,,34,0,34,0,,,,,,,,,,,,,,,,,,,,,,,,1327.367515699938,None,,,,,,,,,,,,,,,,,count,new_c,white,34,176,72,1314.8411228000186,None,1314.8411228000186,None,3,7.1210270000156015,1314.8411228000186,None,1321.9968503001146,None,1322.5207589999773,None,1322.5207589999773,None,f,4.80956649989821,1322.5207589999773,None,,,NC_52,001,2022_May_03_1652,ProdSingRedo,3.2.3,59.95588444537765,
,,,,35,0,35,0,,,,,,,,,,,,,,,,,,,,,,,,1335.5994619999547,None,,,,,,,,,,,,,,,,,production,aloud,white,35,41,240,1327.8934641000815,None,1327.8934641000815,None,3,4.0850977001246065,1327.8934641000815,None,1332.031490500085,None,1332.5514338000212,None,1332.5514338000212,None,r,3.0191150000318885,1332.5514338000212,None,,,NC_52,001,2022_May_03_1652,ProdSingRedo,3.2.3,59.95588444537765,
,,,,36,0,36,0,,,,,,,,,,,,,,,,,,,,,,,,1340.1210537999868,None,,,,,,,,,,,,,,,,,force,aloud,white,36,37,131,1336.1247622999363,None,1336.1247622999363,None,1,2.2856449999380857,1336.1247622999363,None,1338.459359700093,None,1338.9836321000475,None,1338.9836321000475,None,n,1.098811199888587,1338.9836321000475,None,,,NC_52,001,2022_May_03_1652,ProdSingRedo,3.2.3,59.95588444537765,
,,,,37,0,37,0,,,,,,,,,,,,,,,,,,,,,,,,1347.016077300068,None,,,,,,,,,,,,,,,,,colonel,sing,white,37,26,55,1340.6389355000574,None,1340.6389355000574,None,6,4.979515899904072,1340.6389355000574,None,1345.6618654001504,None,1346.1945589999668,None,1346.1945589999668,None,r,0.7838307998608798,1346.1945589999668,None,,,NC_52,001,2022_May_03_1652,ProdSingRedo,3.2.3,59.95588444537765,
,,,,38,0,38,0,,,,,,,,,,,,,,,,,,,,,,,,1354.267038000049,None,,,,,,,,,,,,,,,,,right,new_a,white,38,104,265,1347.5446099000983,None,1347.5446099000983,None,2,3.730029300088063,1347.5446099000983,None,1351.316165199969,None,1351.8367808000185,None,1351.8367808000185,None,n,2.397630099905655,1351.8367808000185,None,,,NC_52,001,2022_May_03_1652,ProdSingRedo,3.2.3,59.95588444537765,
,,,,39,0,39,0,,,,,,,,,,,,,,,,,,,,,,,,1359.349214399932,None,,,,,,,,,,,,,,,,,goose,sing,white,39,19,138,1354.7927538000513,None,1354.7927538000513,None,6,2.5855646000709385,1354.7927538000513,None,1357.4308694000356,None,1357.9538027001545,None,1357.9538027001545,None,r,1.3697903000283986,1357.9538027001545,None,,,NC_52,001,2022_May_03_1652,ProdSingRedo,3.2.3,59.95588444537765,
,,,,40,0,40,0,,,,,,,,,,,,,,,,,,,,,,,,1368.8850885999855,None,,,,,,,,,,,,,,,,,history,new_c,white,40,178,153,1359.8772841000464,None,1359.8772841000464,None,3,4.253151900134981,1359.8772841000464,None,1364.183130600024,None,1364.7053342999425,None,1364.7053342999425,None,f,4.145069899968803,1364.7053342999425,None,,,NC_52,001,2022_May_03_1652,ProdSingRedo,3.2.3,59.95588444537765,
,,,,41,0,41,0,,,,,,,,,,,,,,,,,,,,,,,,1374.235527300043,None,,,,,,,,,,,,,,,,,management,sing,white,41,16,177,1369.4144830000587,None,1369.4144830000587,None,6,2.4678680000361055,1369.4144830000587,None,1371.9377020001411,None,1372.4615408000536,None,1372.4615408000536,None,f,1.7489261000882834,1372.4615408000536,None,,,NC_52,001,2022_May_03_1652,ProdSingRedo,3.2.3,59.95588444537765,
,,,,42,0,42,0,,,,,,,,,,,,,,,,,,,,,,,,1382.5036363999825,None,,,,,,,,,,,,,,,,,birth,new_b,white,42,137,22,1374.7575256000273,None,1374.7575256000273,None,4,5.740970200160518,1374.7575256000273,None,1380.5473148000892,None,1381.0726737999357,None,1381.0726737999357,None,f,1.4022858999669552,1381.0726737999357,None,,,NC_52,001,2022_May_03_1652,ProdSingRedo,3.2.3,59.95588444537765,
,,,,43,0,43,0,,,,,,,,,,,,,,,,,,,,,,,,1389.6362751999404,None,,,,,,,,,,,,,,,,,column,new_c,white,43,158,57,1383.0287842000835,None,1383.0287842000835,None,4,3.8055296998936683,1383.0287842000835,None,1386.8859862999525,None,1387.4054002999328,None,1387.4054002999328,None,f,2.196963099995628,1387.4054002999328,None,,,NC_52,001,2022_May_03_1652,ProdSingRedo,3.2.3,59.95588444537765,
,,,,44,0,44,0,,,,,,,,,,,,,,,,,,,,,,,,1397.502864900045,None,,,,,,,,,,,,,,,,,drink,new_a,white,44,102,105,1390.1713581001386,None,1390.1713581001386,None,2,5.159069699933752,1390.1713581001386,None,1395.3831832001451,None,1395.904956100043,None,1395.904956100043,None,n,1.5616071000695229,1395.904956100043,None,,,NC_52,001,2022_May_03_1652,ProdSingRedo,3.2.3,59.95588444537765,
,,,,45,0,45,0,,,,,,,,,,,,,,,,,,,,,,,,1403.5707056000829,None,,,,,,,,,,,,,,,,,recall,sing,white,45,23,255,1398.0307351001538,None,1398.0307351001538,None,1,4.043620200129226,1398.0307351001538,None,1402.1177397000138,None,1402.6408754999284,None,1402.6408754999284,None,n,0.8976986999623477,1402.6408754999284,None,,,NC_52,001,2022_May_03_1652,ProdSingRedo,3.2.3,59.95588444537765,
,,,,46,0,46,0,,,,,,,,,,,,,,,,,,,,,,,,1409.5122869999614,None,,,,,,,,,,,,,,,,,trend,sing,white,46,29,340,1404.084255099995,None,1404.084255099995,None,5,2.702157000079751,1404.084255099995,None,1406.8384521999396,None,1407.3506458001211,None,1407.3506458001211,None,f,2.1394763998687267,1407.3506458001211,None,,,NC_52,001,2022_May_03_1652,ProdSingRedo,3.2.3,59.95588444537765,
,,,,47,0,47,0,,,,,,,,,,,,,,,,,,,,,,,,1415.705101000145,None,,,,,,,,,,,,,,,,,smooth,silent,white,47,85,292,1410.013458600035,None,1410.013458600035,None,2,2.397320599993691,1410.013458600035,None,1412.4465340001043,None,1412.9563724000473,None,1412.9563724000473,None,n,2.7182475000154227,1412.9563724000473,None,,,NC_52,001,2022_May_03_1652,ProdSingRedo,3.2.3,59.95588444537765,
,,,,48,0,48,0,,,,,,,,,,,,,,,,,,,,,,,,1421.4720787000842,None,,,,,,,,,,,,,,,,,running,new_b,white,48,144,268,1416.2346566000488,None,1416.2346566000488,None,6,2.911843600217253,1416.2346566000488,None,1419.1876489999704,None,1419.7104033001233,None,1419.7104033001233,None,r,1.7319499000441283,1419.7104033001233,None,,,NC_52,001,2022_May_03_1652,ProdSingRedo,3.2.3,59.95588444537765,
,,,,49,0,49,0,,,,,,,,,,,,,,,,,,,,,,,,1428.0644273001235,None,,,,,,,,,,,,,,,,,payment,new_b,white,49,133,215,1421.9922907000873,None,1421.9922907000873,None,3,4.04228139994666,1421.9922907000873,None,1426.078868499957,None,1426.595768300118,None,1426.595768300118,None,n,1.438431499991566,1426.595768300118,None,,,NC_52,001,2022_May_03_1652,ProdSingRedo,3.2.3,59.95588444537765,
,,,,50,0,50,0,,,,,,,,,,,,,,,,,,,,,,,,1435.9238289000932,None,,,,,,,,,,,,,,,,,military,new_b,white,50,128,190,1428.584552400047,None,1428.584552400047,None,6,5.25784149998799,1428.584552400047,None,1433.889336900087,None,1434.417302499991,None,1434.417302499991,None,r,1.4810434998944402,1434.417302499991,None,,,NC_52,001,2022_May_03_1652,ProdSingRedo,3.2.3,59.95588444537765,
,,,,51,0,51,0,,,,,,,,,,,,,,,,,,,,,,,,1442.7951418999583,None,,,,,,,,,,,,,,,,,tough,new_c,white,51,179,333,1436.4492470999248,None,1436.4492470999248,None,4,4.177105400012806,1436.4492470999248,None,1440.66866700002,None,1441.1912211999297,None,1441.1912211999297,None,f,1.5714267001021653,1441.1912211999297,None,,,NC_52,001,2022_May_03_1652,ProdSingRedo,3.2.3,59.95588444537765,
,,,,52,0,52,0,,,,,,,,,,,,,,,,,,,,,,,,1447.7741453000344,None,,,,,,,,,,,,,,,,,throw,sing,white,52,17,330,1443.319049499929,None,1443.319049499929,None,6,2.5872796999756247,1443.319049499929,None,1445.9523281999864,None,1446.4811351001263,None,1446.4811351001263,None,r,1.257301599951461,1446.4811351001263,None,,,NC_52,001,2022_May_03_1652,ProdSingRedo,3.2.3,59.95588444537765,
,,,,53,0,53,0,,,,,,,,,,,,,,,,,,,,,,,,1453.294482700061,None,,,,,,,,,,,,,,,,,collection,new_a,white,53,108,54,1448.2978507999796,None,1448.2978507999796,None,1,3.2566714000422508,1448.2978507999796,None,1451.6042945000809,None,1452.1253816001117,None,1452.1253816001117,None,n,1.1331889999564737,1452.1253816001117,None,,,NC_52,001,2022_May_03_1652,ProdSingRedo,3.2.3,59.95588444537765,
,,,,54,0,54,0,,,,,,,,,,,,,,,,,,,,,,,,1458.1734400000423,None,,,,,,,,,,,,,,,,,interview,silent,white,54,74,165,1453.8243208001368,None,1453.8243208001368,None,6,2.2340285000391304,1453.8243208001368,None,1456.1087676000316,None,1456.6293939000461,None,1456.6293939000461,None,f,1.5091623000334948,1456.6293939000461,None,,,NC_52,001,2022_May_03_1652,ProdSingRedo,3.2.3,59.95588444537765,
,,,,55,0,55,0,,,,,,,,,,,,,,,,,,,,,,,,1463.5748721000273,None,,,,,,,,,,,,,,,,,corner,sing,white,55,14,69,1458.6959887000266,None,1458.6959887000266,None,1,2.962392000015825,1458.6959887000266,None,1461.698905600002,None,1462.2013888999354,None,1462.2013888999354,None,n,1.3457495998591185,1462.2013888999354,None,,,NC_52,001,2022_May_03_1652,ProdSingRedo,3.2.3,59.95588444537765,
,,,,56,0,56,0,,,,,,,,,,,,,,,,,,,,,,,,1469.7322565999348,None,,,,,,,,,,,,,,,,,ground,new_b,white,56,147,142,1464.0986727001145,None,1464.0986727001145,None,1,3.7839314001612365,1464.0986727001145,None,1467.924619599944,None,1468.4471967001446,None,1468.4471967001446,None,n,1.266902199946344,1468.4471967001446,None,,,NC_52,001,2022_May_03_1652,ProdSingRedo,3.2.3,59.95588444537765,
,,,,57,0,57,0,,,,,,,,,,,,,,,,,,,,,,,,1474.5924025999848,None,,,,,,,,,,,,,,,,,blind,sing,white,57,24,24,1470.248214900028,None,1470.248214900028,None,6,2.642134299967438,1470.248214900028,None,1472.9437041999772,None,1473.4621888000984,None,1473.4621888000984,None,r,1.0922697000205517,1473.4621888000984,None,,,NC_52,001,2022_May_03_1652,ProdSingRedo,3.2.3,59.95588444537765,
,,,,58,0,58,0,,,,,,,,,,,,,,,,,,,,,,,,1483.7281261000317,None,,,,,,,,,,,,,,,,,victory,new_a,white,58,116,346,1475.123499599984,None,1475.123499599984,None,2,5.902586700161919,1475.123499599984,None,1481.0524880001321,None,1481.583699000068,None,1481.583699000068,None,n,2.1149845998734236,1481.583699000068,None,,,NC_52,001,2022_May_03_1652,ProdSingRedo,3.2.3,59.95588444537765,
,,,,59,0,59,0,,,,,,,,,,,,,,,,,,,,,,,,1490.2933515999466,None,,,,,,,,,,,,,,,,,accident,aloud,white,59,56,0,1484.2506743001286,None,1484.2506743001286,None,4,4.183879300020635,1484.2506743001286,None,1488.473533099983,None,1488.996853100136,None,1488.996853100136,None,f,1.2614140999503434,1488.996853100136,None,,,NC_52,001,2022_May_03_1652,ProdSingRedo,3.2.3,59.95588444537765,
,,,,60,0,60,0,,,,,,,,,,,,,,,,,,,,,,,,1498.2106939000078,None,,,,,,,,,,,,,,,,,taste,new_c,white,60,166,322,1490.8185634999536,None,1490.8185634999536,None,3,4.959869500016794,1490.8185634999536,None,1495.8247827999294,None,1496.344259200152,None,1496.344259200152,None,n,1.842177600134164,1496.344259200152,None,,,NC_52,001,2022_May_03_1652,ProdSingRedo,3.2.3,59.95588444537765,
,,,,61,0,61,0,,,,,,,,,,,,,,,,,,,,,,,,1503.629101500148,None,,,,,,,,,,,,,,,,,whole,new_a,white,61,109,355,1498.733974199975,None,1498.733974199975,None,1,3.052575800102204,1498.733974199975,None,1501.8243096000515,None,1502.3448964999989,None,1502.3448964999989,None,n,1.25781420012936,1502.3448964999989,None,,,NC_52,001,2022_May_03_1652,ProdSingRedo,3.2.3,59.95588444537765,
,,,,62,0,62,0,,,,,,,,,,,,,,,,,,,,,,,,1510.8938158999663,None,,,,,,,,,,,,,,,,,position,silent,white,62,66,229,1504.1517744001467,None,1504.1517744001467,None,1,4.402783100027591,1504.1517744001467,None,1508.6061813000124,None,1509.127927500056,None,1509.127927500056,None,n,1.7305582000408322,1509.127927500056,None,,,NC_52,001,2022_May_03_1652,ProdSingRedo,3.2.3,59.95588444537765,
,,,,63,0,63,0,,,,,,,,,,,,,,,,,,,,,,,,1516.381393500138,None,,,,,,,,,,,,,,,,,level,new_b,white,63,141,170,1511.4162397000473,None,1511.4162397000473,None,5,2.8183087001089007,1511.4162397000473,None,1514.2744764999952,None,1514.796603600029,None,1514.796603600029,None,f,1.541753999888897,1514.796603600029,None,,,NC_52,001,2022_May_03_1652,ProdSingRedo,3.2.3,59.95588444537765,
,,,,64,0,64,0,,,,,,,,,,,,,,,,,,,,,,,,1521.9984244999941,None,,,,,,,,,,,,,,,,,bright,silent,white,64,72,29,1516.9027887999546,None,1516.9027887999546,None,2,3.0197339998558164,1516.9027887999546,None,1519.978396099992,None,1520.5025955000892,None,1520.5025955000892,None,n,1.4596863999031484,1520.5025955000892,None,,,NC_52,001,2022_May_03_1652,ProdSingRedo,3.2.3,59.95588444537765,
,,,,65,0,65,0,,,,,,,,,,,,,,,,,,,,,,,,1528.5030501000583,None,,,,,,,,,,,,,,,,,south,new_c,white,65,167,296,1522.5204082999844,None,1522.5204082999844,None,1,3.930731500033289,1522.5204082999844,None,1526.4942087000236,None,1527.0135441999882,None,1527.0135441999882,None,n,1.460590299917385,1527.0135441999882,None,,,NC_52,001,2022_May_03_1652,ProdSingRedo,3.2.3,59.95588444537765,
,,,,66,0,66,0,,,,,,,,,,,,,,,,,,,,,,,,1535.0828861999325,None,,,,,,,,,,,,,,,,,mayor,new_c,white,66,177,183,1529.0194000001065,None,1529.0194000001065,None,1,4.023160800104961,1529.0194000001065,None,1533.0954432000872,None,1533.6189805001486,None,1533.6189805001486,None,n,1.431429399875924,1533.6189805001486,None,,,NC_52,001,2022_May_03_1652,ProdSingRedo,3.2.3,59.95588444537765,
,,,,67,0,67,0,,,,,,,,,,,,,,,,,,,,,,,,1540.0134074001107,None,,,,,,,,,,,,,,,,,beginning,new_c,white,67,159,19,1535.610286399955,None,1535.610286399955,None,1,2.9680341000203043,1535.610286399955,None,1538.6337572999764,None,1539.1570590001065,None,1539.1570590001065,None,n,0.8294897000305355,1539.1570590001065,None,,,NC_52,001,2022_May_03_1652,ProdSingRedo,3.2.3,59.95588444537765,
,,,,68,0,68,0,,,,,,,,,,,,,,,,,,,,,,,,1550.2139242999256,None,,,,,,,,,,,,,,,,,motion,silent,white,68,67,194,1540.5346010001376,None,1540.5346010001376,None,2,6.4437478999607265,1540.5346010001376,None,1547.0255126000848,None,1547.5393542000093,None,1547.5393542000093,None,f,2.647366200108081,1547.5393542000093,None,,,NC_52,001,2022_May_03_1652,ProdSingRedo,3.2.3,59.95588444537765,
,,,,69,0,69,0,,,,,,,,,,,,,,,,,,,,,,,,1557.8152737000491,None,,,,,,,,,,,,,,,,,trail,new_a,white,69,110,336,1550.7458769001532,None,1550.7458769001532,None,2,5.016381099820137,1550.7458769001532,None,1555.8088551999535,None,1556.3344201000873,None,1556.3344201000873,None,n,1.4523769998922944,1556.3344201000873,None,,,NC_52,001,2022_May_03_1652,ProdSingRedo,3.2.3,59.95588444537765,
,,,,70,0,70,0,,,,,,,,,,,,,,,,,,,,,,,,1563.6305100999307,None,,,,,,,,,,,,,,,,,welcome,aloud,white,70,34,354,1558.3434407000896,None,1558.3434407000896,None,6,3.4750628999900073,1558.3434407000896,None,1561.8636020000558,None,1562.3833046001382,None,1562.3833046001382,None,r,1.211103399982676,1562.3833046001382,None,,,NC_52,001,2022_May_03_1652,ProdSingRedo,3.2.3,59.95588444537765,
,,,,71,0,71,0,,,,,,,,,,,,,,,,,,,,,,,,1570.4906477001496,None,,,,,,,,,,,,,,,,,discussion,new_c,white,71,165,96,1564.1578728000168,None,1564.1578728000168,None,4,4.60476340004243,1564.1578728000168,None,1568.8142689999659,None,1569.3370430001523,None,1569.3370430001523,None,f,1.12112329993397,1569.3370430001523,None,,,NC_52,001,2022_May_03_1652,ProdSingRedo,3.2.3,59.95588444537765,
,,,,72,0,72,0,,,,,,,,,,,,,,,,,,,,,,,,1578.7831441001035,None,,,,,,,,,,,,,,,,,edition,aloud,white,72,38,107,1571.004920199979,None,1571.004920199979,None,6,4.637392800068483,1571.004920199979,None,1575.694131199969,None,1576.216395500116,None,1576.216395500116,None,f,2.5385637001600116,1576.216395500116,None,,,NC_52,001,2022_May_03_1652,ProdSingRedo,3.2.3,59.95588444537765,
,,,,73,0,73,0,,,,,,,,,,,,,,,,,,,,,,,,1585.167404799955,None,,,,,,,,,,,,,,,,,straight,silent,white,73,70,307,1579.3111837001052,None,1579.3111837001052,None,1,3.7793318999465555,1579.3111837001052,None,1583.13633200014,None,1583.6584137999453,None,1583.6584137999453,None,n,1.4802962001413107,1583.6584137999453,None,,,NC_52,001,2022_May_03_1652,ProdSingRedo,3.2.3,59.95588444537765,
,,,,74,0,74,0,,,,,,,,,,,,,,,,,,,,,,,,1593.133420499973,None,,,,,,,,,,,,,,,,,region,new_c,white,74,154,256,1585.689225200098,None,1585.689225200098,None,3,4.857350999955088,1585.689225200098,None,1590.6009370000102,None,1591.1188171000686,None,1591.1188171000686,None,n,1.979393000015989,1591.1188171000686,None,,,NC_52,001,2022_May_03_1652,ProdSingRedo,3.2.3,59.95588444537765,
,,,,75,0,75,0,,,,,,,,,,,,,,,,,,,,,,,,1598.5172168000136,None,,,,,,,,,,,,,,,,,heavy,silent,white,75,78,151,1593.6604247000068,None,1593.6604247000068,None,2,3.014263099990785,1593.6604247000068,None,1596.707286400022,None,1597.2190523999743,None,1597.2190523999743,None,n,1.2714036998804659,1597.2190523999743,None,,,NC_52,001,2022_May_03_1652,ProdSingRedo,3.2.3,59.95588444537765,
,,,,76,0,76,0,,,,,,,,,,,,,,,,,,,,,,,,1603.0107122000773,None,,,,,,,,,,,,,,,,,court,silent,white,76,86,75,1599.0391683001071,None,1599.0391683001071,None,5,2.251301199896261,1599.0391683001071,None,1601.3317861999385,None,1601.854666700121,None,1601.854666700121,None,f,1.1316490001045167,1601.854666700121,None,,,NC_52,001,2022_May_03_1652,ProdSingRedo,3.2.3,59.95588444537765,
,,,,77,0,77,0,,,,,,,,,,,,,,,,,,,,,,,,1609.185740899993,None,,,,,,,,,,,,,,,,,debate,sing,white,77,25,87,1603.5424000001512,None,1603.5424000001512,None,2,2.323875500122085,1603.5424000001512,None,1605.91846480011,None,1606.4411261000205,None,1606.4411261000205,None,n,2.7052132000681013,1606.4411261000205,None,,,NC_52,001,2022_May_03_1652,ProdSingRedo,3.2.3,59.95588444537765,
,,,,78,0,78,0,,,,,,,,,,,,,,,,,,,,,,,,1614.418665900128,None,,,,,,,,,,,,,,,,,danger,sing,white,78,22,85,1609.712968399981,None,1609.712968399981,None,6,2.2975508000236005,1609.712968399981,None,1612.0544960000552,None,1612.5721682999283,None,1612.5721682999283,None,f,1.814213200006634,1612.5721682999283,None,,,NC_52,001,2022_May_03_1652,ProdSingRedo,3.2.3,59.95588444537765,
,,,,79,0,79,0,,,,,,,,,,,,,,,,,,,,,,,,1619.2118796000723,None,,,,,,,,,,,,,,,,,husband,sing,white,79,9,156,1614.9434809000231,None,1614.9434809000231,None,6,2.6991393000353128,1614.9434809000231,None,1617.6824247001205,None,1618.2088514000643,None,1618.2088514000643,None,r,0.9771465000230819,1618.2088514000643,None,,,NC_52,001,2022_May_03_1652,ProdSingRedo,3.2.3,59.95588444537765,
,,,,80,0,80,0,,,,,,,,,,,,,,,,,,,,,,,,1625.2195111999754,None,,,,,,,,,,,,,,,,,safety,new_b,white,80,135,270,1619.7276836000383,None,1619.7276836000383,None,2,3.250597600126639,1619.7276836000383,None,1623.022616600152,None,1623.5392583999783,None,1623.5392583999783,None,n,1.6469958999659866,1623.5392583999783,None,,,NC_52,001,2022_May_03_1652,ProdSingRedo,3.2.3,59.95588444537765,
,,,,81,0,81,0,,,,,,,,,,,,,,,,,,,,,,,,1631.4194972999394,None,,,,,,,,,,,,,,,,,stand,aloud,white,81,32,302,1625.7437901000958,None,1625.7437901000958,None,6,3.99470470007509,1625.7437901000958,None,1629.7838280999567,None,1630.295096399961,None,1630.295096399961,None,r,1.0912501998245716,1630.295096399961,None,,,NC_52,001,2022_May_03_1652,ProdSingRedo,3.2.3,59.95588444537765,
,,,,82,0,82,0,,,,,,,,,,,,,,,,,,,,,,,,1637.636559800012,None,,,,,,,,,,,,,,,,,story,new_a,white,82,98,306,1631.9475406000856,None,1631.9475406000856,None,1,3.5428436999209225,1631.9475406000856,None,1635.5384877999313,None,1636.0554585999344,None,1636.0554585999344,None,n,1.546854600077495,1636.0554585999344,None,,,NC_52,001,2022_May_03_1652,ProdSingRedo,3.2.3,59.95588444537765,
,,,,83,0,83,0,,,,,,,,,,,,,,,,,,,,,,,,1643.0047162000556,None,,,,,,,,,,,,,,,,,partner,silent,white,83,60,211,1638.164125500014,None,1638.164125500014,None,1,2.9742731999140233,1638.164125500014,None,1641.1863723001443,None,1641.7075358999427,None,1641.7075358999427,None,n,1.271026600152254,1641.7075358999427,None,,,NC_52,001,2022_May_03_1652,ProdSingRedo,3.2.3,59.95588444537765,
,,,,84,0,84,0,,,,,,,,,,,,,,,,,,,,,,,,1649.7627878999338,None,,,,,,,,,,,,,,,,,strength,new_c,white,84,155,310,1643.5317065999843,None,1643.5317065999843,None,6,4.382652500178665,1643.5317065999843,None,1647.9673657999374,None,1648.4907548001502,None,1648.4907548001502,None,r,1.2392298001796007,1648.4907548001502,None,,,NC_52,001,2022_May_03_1652,ProdSingRedo,3.2.3,59.95588444537765,
,,,,85,0,85,0,,,,,,,,,,,,,,,,,,,,,,,,1657.1084859999828,None,,,,,,,,,,,,,,,,,color,new_b,white,85,138,56,1650.274656899972,None,1650.274656899972,None,3,4.591306599788368,1650.274656899972,None,1654.9026063000783,None,1655.4183768001385,None,1655.4183768001385,None,f,1.6559861998539418,1655.4183768001385,None,,,NC_52,001,2022_May_03_1652,ProdSingRedo,3.2.3,59.95588444537765,
,,,,86,0,86,0,,,,,,,,,,,,,,,,,,,,,,,,1662.3876005001366,None,,,,,,,,,,,,,,,,,member,new_b,white,86,145,188,1657.6307586000767,None,1657.6307586000767,None,1,2.835625800071284,1657.6307586000767,None,1660.5147742999252,None,1661.042331200093,None,1661.042331200093,None,n,1.312065799953416,1661.042331200093,None,,,NC_52,001,2022_May_03_1652,ProdSingRedo,3.2.3,59.95588444537765,
,,,,87,0,87,0,,,,,,,,,,,,,,,,,,,,,,,,1667.231823200127,None,,,,,,,,,,,,,,,,,route,new_a,white,87,118,267,1662.9140795001294,None,1662.9140795001294,None,1,2.6402689998503774,1662.9140795001294,None,1665.6071172000375,None,1666.1262600999326,None,1666.1262600999326,None,n,1.0758907000999898,1666.1262600999326,None,,,NC_52,001,2022_May_03_1652,ProdSingRedo,3.2.3,59.95588444537765,
,,,,88,0,88,0,,,,,,,,,,,,,,,,,,,,,,,,1671.7550341000315,None,,,,,,,,,,,,,,,,,election,silent,white,88,71,109,1667.7607760999817,None,1667.7607760999817,None,6,2.2895901000592858,1667.7607760999817,None,1670.0881511000916,None,1670.6051948000677,None,1670.6051948000677,None,r,1.1253165998496115,1670.6051948000677,None,,,NC_52,001,2022_May_03_1652,ProdSingRedo,3.2.3,59.95588444537765,
,,,,89,0,89,0,,,,,,,,,,,,,,,,,,,,,,,,1678.2234497999307,None,,,,,,,,,,,,,,,,,defeat,silent,white,89,75,88,1672.2851263999473,None,1672.2851263999473,None,4,4.2051967000588775,1672.2851263999473,None,1676.5456453999504,None,1677.0624083001167,None,1677.0624083001167,None,f,1.132709100143984,1677.0624083001167,None,,,NC_52,001,2022_May_03_1652,ProdSingRedo,3.2.3,59.95588444537765,
,,,,90,0,90,0,,,,,,,,,,,,,,,,,,,,,,,,1683.3941647999454,None,,,,,,,,,,,,,,,,,number,sing,white,90,13,203,1678.7482305001467,None,1678.7482305001467,None,1,2.678056300152093,1678.7482305001467,None,1681.4737720000558,None,1681.9912054000888,None,1681.9912054000888,None,n,1.3714656999800354,1681.9912054000888,None,,,NC_52,001,2022_May_03_1652,ProdSingRedo,3.2.3,59.95588444537765,
,,,,91,0,91,0,,,,,,,,,,,,,,,,,,,,,,,,1687.8464292001445,None,,,,,,,,,,,,,,,,,answer,sing,white,91,10,8,1683.916968600126,None,1683.916968600126,None,1,2.3175578999798745,1683.916968600126,None,1686.2916769001167,None,1686.8156618999783,None,1686.8156618999783,None,n,0.9868498998694122,1686.8156618999783,None,,,NC_52,001,2022_May_03_1652,ProdSingRedo,3.2.3,59.95588444537765,
,,,,92,0,92,0,,,,,,,,,,,,,,,,,,,,,,,,1692.4060925999656,None,,,,,,,,,,,,,,,,,science,new_c,white,92,171,275,1688.363735300023,None,1688.363735300023,None,6,2.2625025999732316,1688.363735300023,None,1690.6638867000584,None,1691.1736735999584,None,1691.1736735999584,None,r,1.1965680001303554,1691.1736735999584,None,,,NC_52,001,2022_May_03_1652,ProdSingRedo,3.2.3,59.95588444537765,
,,,,93,0,93,0,,,,,,,,,,,,,,,,,,,,,,,,1701.0904751000926,None,,,,,,,,,,,,,,,,,problem,new_b,white,93,131,238,1692.9341023999732,None,1692.9341023999732,None,4,3.308242900064215,1692.9341023999732,None,1696.2891995001119,None,1696.808607700048,None,1696.808607700048,None,f,4.249699300155044,1696.808607700048,None,,,NC_52,001,2022_May_03_1652,ProdSingRedo,3.2.3,59.95588444537765,
,,,,94,0,94,0,,,,,,,,,,,,,,,,,,,,,,,,1705.4751029000618,None,,,,,,,,,,,,,,,,,childhood,sing,white,94,21,49,1701.614119600039,None,1701.614119600039,None,1,2.0282201999798417,1701.614119600039,None,1703.6822532999795,None,1704.1913777000736,None,1704.1913777000736,None,n,1.2589708999730647,1704.1913777000736,None,,,NC_52,001,2022_May_03_1652,ProdSingRedo,3.2.3,59.95588444537765,
,,,,95,0,95,0,,,,,,,,,,,,,,,,,,,,,,,,1709.5837463999633,None,,,,,,,,,,,,,,,,,express,new_b,white,95,121,124,1705.9958941999357,None,1705.9958941999357,None,6,1.6783621998038143,1705.9958941999357,None,1707.7212650000583,None,1708.2424850999378,None,1708.2424850999378,None,r,1.3197806999087334,1708.2424850999378,None,,,NC_52,001,2022_May_03_1652,ProdSingRedo,3.2.3,59.95588444537765,
,,,,96,0,96,0,,,,,,,,,,,,,,,,,,,,,,,,1714.2251039000694,None,,,,,,,,,,,,,,,,,harmony,aloud,white,96,45,148,1710.1005623000674,None,1710.1005623000674,None,6,1.9094696999527514,1710.1005623000674,None,1712.0435301000252,None,1712.5637052000966,None,1712.5637052000966,None,r,1.6307934999931604,1712.5637052000966,None,,,NC_52,001,2022_May_03_1652,ProdSingRedo,3.2.3,59.95588444537765,
,,,,97,0,97,0,,,,,,,,,,,,,,,,,,,,,,,,1722.4439886000473,None,,,,,,,,,,,,,,,,,shape,aloud,white,97,52,282,1714.7497596000321,None,1714.7497596000321,None,6,5.628541899845004,1714.7497596000321,None,1720.4199167999905,None,1720.9458598999772,None,1720.9458598999772,None,r,1.4724582000635564,1720.9458598999772,None,,,NC_52,001,2022_May_03_1652,ProdSingRedo,3.2.3,59.95588444537765,
,,,,98,0,98,0,,,,,,,,,,,,,,,,,,,,,,,,1727.3596064001322,None,,,,,,,,,,,,,,,,,owner,aloud,white,98,57,208,1722.9676457000896,None,1722.9676457000896,None,6,2.2906291000545025,1722.9676457000896,None,1725.311076800106,None,1725.8284591000993,None,1725.8284591000993,None,r,1.4938101000152528,1725.8284591000993,None,,,NC_52,001,2022_May_03_1652,ProdSingRedo,3.2.3,59.95588444537765,
,,,,99,0,99,0,,,,,,,,,,,,,,,,,,,,,,,,1734.1183500001207,None,,,,,,,,,,,,,,,,,review,sing,white,99,27,263,1727.8845422000159,None,1727.8845422000159,None,1,4.198043999960646,1727.8845422000159,None,1732.1218906999566,None,1732.6483861000743,None,1732.6483861000743,None,n,1.4416916999034584,1732.6483861000743,None,,,NC_52,001,2022_May_03_1652,ProdSingRedo,3.2.3,59.95588444537765,
,,,,100,0,100,0,,,,,,,,,,,,,,,,,,,,,,,,1741.8605432000477,None,,,,,,,,,,,,,,,,,department,new_b,white,100,126,90,1734.6388518000022,None,1734.6388518000022,None,1,5.2351297999266535,1734.6388518000022,None,1739.9021976001095,None,1740.4134395001456,None,1740.4134395001456,None,n,1.420929600019008,1740.4134395001456,None,,,NC_52,001,2022_May_03_1652,ProdSingRedo,3.2.3,59.95588444537765,
,,,,101,0,101,0,,,,,,,,,,,,,,,,,,,,,,,,1748.51092050015,None,,,,,,,,,,,,,,,,,budget,sing,white,101,7,34,1742.3899141999427,None,1742.3899141999427,None,1,4.316411799984053,1742.3899141999427,None,1746.7590310000814,None,1747.282300000079,None,1747.282300000079,None,n,1.200680200010538,1747.282300000079,None,,,NC_52,001,2022_May_03_1652,ProdSingRedo,3.2.3,59.95588444537765,
,,,,102,0,102,0,,,,,,,,,,,,,,,,,,,,,,,,1756.0788160001393,None,,,,,,,,,,,,,,,,,under,sing,white,102,5,343,1749.0345761999488,None,1749.0345761999488,None,1,5.135807299986482,1749.0345761999488,None,1754.2264994001016,None,1754.7468443999533,None,1754.7468443999533,None,n,1.3039971000980586,1754.7468443999533,None,,,NC_52,001,2022_May_03_1652,ProdSingRedo,3.2.3,59.95588444537765,
,,,,103,0,103,0,,,,,,,,,,,,,,,,,,,,,,,,1760.8121615001,None,,,,,,,,,,,,,,,,,addition,aloud,white,103,59,2,1756.6000411999412,None,1756.6000411999412,None,5,2.1303286999464035,1756.6000411999412,None,1758.7748877999838,None,1759.2949673000257,None,1759.2949673000257,None,f,1.4833237999118865,1759.2949673000257,None,,,NC_52,001,2022_May_03_1652,ProdSingRedo,3.2.3,59.95588444537765,
,,,,104,0,104,0,,,,,,,,,,,,,,,,,,,,,,,,1768.537956400076,None,,,,,,,,,,,,,,,,,disease,new_c,white,104,174,97,1761.3453436000273,None,1761.3453436000273,None,2,3.5215189999435097,1761.3453436000273,None,1764.9080998999998,None,1765.4320430001244,None,1765.4320430001244,None,n,3.0742535998579115,1765.4320430001244,None,,,NC_52,001,2022_May_03_1652,ProdSingRedo,3.2.3,59.95588444537765,
,,,,105,0,105,0,,,,,,,,,,,,,,,,,,,,,,,,1772.9778142001014,None,,,,,,,,,,,,,,,,,oxygen,new_c,white,105,173,209,1769.0739112000447,None,1769.0739112000447,None,1,2.104391099885106,1769.0739112000447,None,1771.2303643000778,None,1771.7484317999333,None,1771.7484317999333,None,n,1.1898584999144077,1771.7484317999333,None,,,NC_52,001,2022_May_03_1652,ProdSingRedo,3.2.3,59.95588444537765,
,,,,106,0,106,0,,,,,,,,,,,,,,,,,,,,,,,,1778.9150445000269,None,,,,,,,,,,,,,,,,,present,sing,white,106,2,231,1773.489667700138,None,1773.489667700138,None,1,3.5765881999395788,1773.489667700138,None,1777.1078157001175,None,1777.627375900047,None,1777.627375900047,None,n,1.2468905998393893,1777.627375900047,None,,,NC_52,001,2022_May_03_1652,ProdSingRedo,3.2.3,59.95588444537765,
,,,,107,0,107,0,,,,,,,,,,,,,,,,,,,,,,,,1785.696740400046,None,,,,,,,,,,,,,,,,,burden,silent,white,107,81,36,1779.4230762000661,None,1779.4230762000661,None,1,3.547388300066814,1779.4230762000661,None,1783.012380399974,None,1783.5346689000726,None,1783.5346689000726,None,n,2.1236256998963654,1783.5346689000726,None,,,NC_52,001,2022_May_03_1652,ProdSingRedo,3.2.3,59.95588444537765,
,,,,108,0,108,0,,,,,,,,,,,,,,,,,,,,,,,,1791.6423331000842,None,,,,,,,,,,,,,,,,,session,new_b,white,108,146,281,1786.222911800025,None,1786.222911800025,None,6,3.196091099875048,1786.222911800025,None,1789.4586130001117,None,1789.977612100076,None,1789.977612100076,None,f,1.6255276999436319,1789.977612100076,None,,,NC_52,001,2022_May_03_1652,ProdSingRedo,3.2.3,59.95588444537765,
,,,,109,0,109,0,,,,,,,,,,,,,,,,,,,,,,,,1796.49690080015,None,,,,,,,,,,,,,,,,,government,new_a,white,109,106,139,1792.1749253000598,None,1792.1749253000598,None,6,2.2195737999863923,1792.1749253000598,None,1794.4476165999658,None,1794.9675803999417,None,1794.9675803999417,None,r,1.49887889996171,1794.9675803999417,None,,,NC_52,001,2022_May_03_1652,ProdSingRedo,3.2.3,59.95588444537765,
,,,,110,0,110,0,,,,,,,,,,,,,,,,,,,,,,,,1801.8858448001556,None,,,,,,,,,,,,,,,,,piece,new_a,white,110,90,221,1797.0176176000386,None,1797.0176176000386,None,1,3.2486771000549197,1797.0176176000386,None,1800.307224499993,None,1800.8299738999922,None,1800.8299738999922,None,n,1.0124533998314291,1800.8299738999922,None,,,NC_52,001,2022_May_03_1652,ProdSingRedo,3.2.3,59.95588444537765,
,,,,111,0,111,0,,,,,,,,,,,,,,,,,,,,,,,,1806.4467422999442,None,,,,,,,,,,,,,,,,,strain,silent,white,111,62,308,1802.4079318000004,None,1802.4079318000004,None,5,2.234417899977416,1802.4079318000004,None,1804.6964463000186,None,1805.220956500154,None,1805.220956500154,None,f,1.1893989997915924,1805.220956500154,None,,,NC_52,001,2022_May_03_1652,ProdSingRedo,3.2.3,59.95588444537765,
,,,,112,0,112,0,,,,,,,,,,,,,,,,,,,,,,,,1811.898634799989,None,,,,,,,,,,,,,,,,,bicycle,silent,white,112,69,21,1806.9709105000366,None,1806.9709105000366,None,1,1.9114922999870032,1806.9709105000366,None,1808.926027300069,None,1809.4539606999606,None,1809.4539606999606,None,n,2.412383899791166,1809.4539606999606,None,,,NC_52,001,2022_May_03_1652,ProdSingRedo,3.2.3,59.95588444537765,
,,,,113,0,113,0,,,,,,,,,,,,,,,,,,,,,,,,1818.832178800134,None,,,,,,,,,,,,,,,,,concern,aloud,white,113,33,65,1812.422878399957,None,1812.422878399957,None,4,3.811682099942118,1812.422878399957,None,1816.2727057000156,None,1816.7813554999884,None,1816.7813554999884,None,f,2.013029200024903,1816.7813554999884,None,,,NC_52,001,2022_May_03_1652,ProdSingRedo,3.2.3,59.95588444537765,
,,,,114,0,114,0,,,,,,,,,,,,,,,,,,,,,,,,1826.3491881999653,None,,,,,,,,,,,,,,,,,close,new_b,white,114,125,53,1819.3523888001218,None,1819.3523888001218,None,2,4.161956700030714,1819.3523888001218,None,1823.5586244000588,None,1824.081068499945,None,1824.081068499945,None,n,2.241381299914792,1824.081068499945,None,,,NC_52,001,2022_May_03_1652,ProdSingRedo,3.2.3,59.95588444537765,
,,,,115,0,115,0,,,,,,,,,,,,,,,,,,,,,,,,1834.6658208000008,None,,,,,,,,,,,,,,,,,style,new_a,white,115,111,311,1826.8689270999748,None,1826.8689270999748,None,5,5.8696957000065595,1826.8689270999748,None,1832.7734175000805,None,1833.2824444000144,None,1833.2824444000144,None,f,1.3440558000002056,1833.2824444000144,None,,,NC_52,001,2022_May_03_1652,ProdSingRedo,3.2.3,59.95588444537765,
,,,,116,0,116,0,,,,,,,,,,,,,,,,,,,,,,,,1841.268792600138,None,,,,,,,,,,,,,,,,,sight,silent,white,116,88,286,1835.180493999971,None,1835.180493999971,None,2,4.061805200064555,1835.180493999971,None,1839.279831000138,None,1839.802791000111,None,1839.802791000111,None,n,1.43960090004839,1839.802791000111,None,,,NC_52,001,2022_May_03_1652,ProdSingRedo,3.2.3,59.95588444537765,
,,,,117,0,117,0,,,,,,,,,,,,,,,,,,,,,,,,1846.3168222000822,None,,,,,,,,,,,,,,,,,income,aloud,white,117,30,159,1841.7880520001054,None,1841.7880520001054,None,6,2.2382689001969993,1841.7880520001054,None,1844.062041300116,None,1844.5813710000366,None,1844.5813710000366,None,f,1.7093325001187623,1844.5813710000366,None,,,NC_52,001,2022_May_03_1652,ProdSingRedo,3.2.3,59.95588444537765,
,,,,118,0,118,0,,,,,,,,,,,,,,,,,,,,,,,,1851.9521970001515,None,,,,,,,,,,,,,,,,,clear,aloud,white,118,44,52,1846.8391114000697,None,1846.8391114000697,None,2,3.2271048999391496,1846.8391114000697,None,1850.1158501999453,None,1850.6353762999643,None,1850.6353762999643,None,n,1.2788520997855812,1850.6353762999643,None,,,NC_52,001,2022_May_03_1652,ProdSingRedo,3.2.3,59.95588444537765,
,,,,119,0,119,0,,,,,,,,,,,,,,,,,,,,,,,,1856.4515213000122,None,,,,,,,,,,,,,,,,,minor,new_b,white,119,127,191,1852.4713494000025,None,1852.4713494000025,None,1,2.3628849000670016,1852.4713494000025,None,1854.8774073000532,None,1855.4007503001485,None,1855.4007503001485,None,n,1.0099796999711543,1855.4007503001485,None,,,NC_52,001,2022_May_03_1652,ProdSingRedo,3.2.3,59.95588444537765,
,,,,120,0,120,0,,,,,,,,,,,,,,,,,,,,,,,,1860.3182953000069,None,,,,,,,,,,,,,,,,,leader,new_c,white,120,153,168,1856.9762216999661,None,1856.9762216999661,None,6,1.4900675001554191,1856.9762216999661,None,1858.5116610000841,None,1859.0405562000815,None,1859.0405562000815,None,r,1.250260500004515,1859.0405562000815,None,,,NC_52,001,2022_May_03_1652,ProdSingRedo,3.2.3,59.95588444537765,
,,,,121,0,121,0,,,,,,,,,,,,,,,,,,,,,,,,1865.7864036001265,None,,,,,,,,,,,,,,,,,charter,new_b,white,121,124,47,1860.8438766000327,None,1860.8438766000327,None,1,2.2384874001145363,1860.8438766000327,None,1863.1310159999412,None,1863.655212600017,None,1863.655212600017,None,n,2.0911330999806523,1863.655212600017,None,,,NC_52,001,2022_May_03_1652,ProdSingRedo,3.2.3,59.95588444537765,
,,,,122,0,122,0,,,,,,,,,,,,,,,,,,,,,,,,1870.0014539000113,None,,,,,,,,,,,,,,,,,native,aloud,white,122,46,199,1866.3128333000932,None,1866.3128333000932,None,6,1.9295854000374675,1866.3128333000932,None,1868.2850226999726,None,1868.8142093000934,None,1868.8142093000934,None,r,1.148124200059101,1868.8142093000934,None,,,NC_52,001,2022_May_03_1652,ProdSingRedo,3.2.3,59.95588444537765,
,,,,123,0,123,0,,,,,,,,,,,,,,,,,,,,,,,,1874.504587000003,None,,,,,,,,,,,,,,,,,rural,new_c,white,123,161,269,1870.5304243001156,None,1870.5304243001156,None,1,2.328068200033158,1870.5304243001156,None,1872.9030232001096,None,1873.4220213000663,None,1873.4220213000663,None,n,1.05281289992854,1873.4220213000663,None,,,NC_52,001,2022_May_03_1652,ProdSingRedo,3.2.3,59.95588444537765,
,,,,124,0,124,0,,,,,,,,,,,,,,,,,,,,,,,,1878.8284396000672,None,,,,,,,,,,,,,,,,,short,aloud,white,124,49,285,1875.022887900006,None,1875.022887900006,None,1,2.1875012000091374,1875.022887900006,None,1877.254240399925,None,1877.768777300138,None,1877.768777300138,None,n,1.0258977999910712,1877.768777300138,None,,,NC_52,001,2022_May_03_1652,ProdSingRedo,3.2.3,59.95588444537765,
,,,,125,0,125,0,,,,,,,,,,,,,,,,,,,,,,,,1883.0706472001038,None,,,,,,,,,,,,,,,,,couch,new_b,white,125,148,70,1879.3609442999586,None,1879.3609442999586,None,1,2.393368200166151,1879.3609442999586,None,1881.80362910009,None,1882.323268600041,None,1882.323268600041,None,n,0.7192993999924511,1882.323268600041,None,,,NC_52,001,2022_May_03_1652,ProdSingRedo,3.2.3,59.95588444537765,
,,,,126,0,126,0,,,,,,,,,,,,,,,,,,,,,,,,1890.3859042001422,None,,,,,,,,,,,,,,,,,property,new_b,white,126,139,242,1883.590647400124,None,1883.590647400124,None,3,3.5872835000045598,1883.590647400124,None,1887.2039687000215,None,1887.7252382999286,None,1887.7252382999286,None,f,2.6208916001487523,1887.7252382999286,None,,,NC_52,001,2022_May_03_1652,ProdSingRedo,3.2.3,59.95588444537765,
,,,,127,0,127,0,,,,,,,,,,,,,,,,,,,,,,,,1898.8951453000773,None,,,,,,,,,,,,,,,,,course,aloud,white,127,58,74,1890.9150738001335,None,1890.9150738001335,None,3,5.68716729991138,1890.9150738001335,None,1896.6584254000336,None,1897.160749600036,None,1897.160749600036,None,f,1.697567299939692,1897.160749600036,None,,,NC_52,001,2022_May_03_1652,ProdSingRedo,3.2.3,59.95588444537765,
,,,,128,0,128,0,,,,,,,,,,,,,,,,,,,,,,,,1902.9373288999777,None,,,,,,,,,,,,,,,,,literature,new_b,white,128,122,173,1899.4169413000345,None,1899.4169413000345,None,1,1.7613686001859605,1899.4169413000345,None,1901.2270802001003,None,1901.7402927000076,None,1901.7402927000076,None,n,1.1659622001461685,1901.7402927000076,None,,,NC_52,001,2022_May_03_1652,ProdSingRedo,3.2.3,59.95588444537765,
,,,,129,0,129,0,,,,,,,,,,,,,,,,,,,,,,,,1907.0202997999731,None,,,,,,,,,,,,,,,,,degree,silent,white,129,89,89,1903.4650578000583,None,1903.4650578000583,None,6,2.20125520019792,1903.4650578000583,None,1905.7180713000707,None,1906.2389978999272,None,1906.2389978999272,None,r,0.7475368999876082,1906.2389978999272,None,,,NC_52,001,2022_May_03_1652,ProdSingRedo,3.2.3,59.95588444537765,
,,,,130,0,130,0,,,,,,,,,,,,,,,,,,,,,,,,1911.0045553999953,None,,,,,,,,,,,,,,,,,machinery,aloud,white,130,48,175,1907.552890599938,None,1907.552890599938,None,6,1.545216599944979,1907.552890599938,None,1909.1545700000133,None,1909.6591153000481,None,1909.6591153000481,None,r,1.3192555999848992,1909.6591153000481,None,,,NC_52,001,2022_May_03_1652,ProdSingRedo,3.2.3,59.95588444537765,
,,,,131,0,131,0,,,,,,,,,,,,,,,,,,,,,,,,1917.2565798999276,None,,,,,,,,,,,,,,,,,little,new_a,white,131,115,174,1911.5254029000644,None,1911.5254029000644,None,3,3.7808548999018967,1911.5254029000644,None,1915.3519405999687,None,1915.875566800125,None,1915.875566800125,None,f,1.3509308001957834,1915.875566800125,None,,,NC_52,001,2022_May_03_1652,ProdSingRedo,3.2.3,59.95588444537765,
,,,,132,0,132,0,,,,,,,,,,,,,,,,,,,,,,,,1924.5388714999426,None,,,,,,,,,,,,,,,,,sound,new_b,white,132,123,295,1917.7819932000712,None,1917.7819932000712,None,4,4.5722180001903325,1917.7819932000712,None,1922.4029980001505,None,1922.9248335999437,None,1922.9248335999437,None,f,1.5893524999264628,1922.9248335999437,None,,,NC_52,001,2022_May_03_1652,ProdSingRedo,3.2.3,59.95588444537765,
,,,,133,0,133,0,,,,,,,,,,,,,,,,,,,,,,,,1929.1556627999526,None,,,,,,,,,,,,,,,,,council,new_b,white,133,132,71,1925.0652865001466,None,1925.0652865001466,None,1,2.5050802000332624,1925.0652865001466,None,1927.6225636999588,None,1928.1395233001094,None,1928.1395233001094,None,n,0.9827535999938846,1928.1395233001094,None,,,NC_52,001,2022_May_03_1652,ProdSingRedo,3.2.3,59.95588444537765,
,,,,134,0,134,0,,,,,,,,,,,,,,,,,,,,,,,,1937.1561895001214,None,,,,,,,,,,,,,,,,,hunger,silent,white,134,80,155,1929.6838038000278,None,1929.6838038000278,None,1,5.646689599845558,1929.6838038000278,None,1935.3756325000431,None,1935.8823096000124,None,1935.8823096000124,None,n,1.248256599996239,1935.8823096000124,None,,,NC_52,001,2022_May_03_1652,ProdSingRedo,3.2.3,59.95588444537765,
,,,,135,0,135,0,,,,,,,,,,,,,,,,,,,,,,,,1949.4975374999922,None,,,,,,,,,,,,,,,,,angle,new_a,white,135,112,7,1937.683136299951,None,1937.683136299951,None,1,9.19909939984791,1937.683136299951,None,1946.9196685000788,None,1947.4308811000083,None,1947.4308811000083,None,n,2.043056400027126,1947.4308811000083,None,,,NC_52,001,2022_May_03_1652,ProdSingRedo,3.2.3,59.95588444537765,
,,,,136,0,136,0,,,,,,,,,,,,,,,,,,,,,,,,1953.9755013000686,None,,,,,,,,,,,,,,,,,generation,aloud,white,136,35,136,1950.0013232000638,None,1950.0013232000638,None,6,1.9929942998569459,1950.0013232000638,None,1952.0430517001078,None,1952.562010300113,None,1952.562010300113,None,r,1.3847733999136835,1952.562010300113,None,,,NC_52,001,2022_May_03_1652,ProdSingRedo,3.2.3,59.95588444537765,
,,,,137,0,137,0,,,,,,,,,,,,,,,,,,,,,,,,1958.6147652000654,None,,,,,,,,,,,,,,,,,testimony,new_b,white,137,134,325,1954.5003160000779,None,1954.5003160000779,None,6,1.941977099981159,1954.5003160000779,None,1956.4893835000694,None,1957.0114929000847,None,1957.0114929000847,None,r,1.5743827000260353,1957.0114929000847,None,,,NC_52,001,2022_May_03_1652,ProdSingRedo,3.2.3,59.95588444537765,
,,,,138,0,138,0,,,,,,,,,,,,,,,,,,,,,,,,1964.5592299001291,None,,,,,,,,,,,,,,,,,guard,silent,white,138,84,145,1959.1380716999993,None,1959.1380716999993,None,3,3.024126800009981,1959.1380716999993,None,1962.205700200051,None,1962.7292647000868,None,1962.7292647000868,None,n,1.801551700104028,1962.7292647000868,None,,,NC_52,001,2022_May_03_1652,ProdSingRedo,3.2.3,59.95588444537765,
,,,,139,0,139,0,,,,,,,,,,,,,,,,,,,,,,,,1968.6925788000226,None,,,,,,,,,,,,,,,,,grade,aloud,white,139,54,140,1965.0850390000269,None,1965.0850390000269,None,6,1.765313500072807,1965.0850390000269,None,1966.8907906000968,None,1967.416643799981,None,1967.416643799981,None,f,1.2415632999036461,1967.416643799981,None,,,NC_52,001,2022_May_03_1652,ProdSingRedo,3.2.3,59.95588444537765,
,,,,140,0,140,0,,,,,,,,,,,,,,,,,,,,,,,,1975.4080392001197,None,,,,,,,,,,,,,,,,,fight,new_a,white,140,113,127,1969.2184401999693,None,1969.2184401999693,None,2,3.7198591998312622,1969.2184401999693,None,1972.9908787999302,None,1973.5109627000056,None,1973.5109627000056,None,n,1.8592653998639435,1973.5109627000056,None,,,NC_52,001,2022_May_03_1652,ProdSingRedo,3.2.3,59.95588444537765,
,,,,141,0,141,0,,,,,,,,,,,,,,,,,,,,,,,,1982.601648800075,None,,,,,,,,,,,,,,,,,portion,aloud,white,141,42,228,1975.9312374000438,None,1975.9312374000438,None,4,4.807147799991071,1975.9312374000438,None,1980.7864409000613,None,1981.3103593999986,None,1981.3103593999986,None,f,1.2598035000264645,1981.3103593999986,None,,,NC_52,001,2022_May_03_1652,ProdSingRedo,3.2.3,59.95588444537765,
,,,,142,0,142,0,,,,,,,,,,,,,,,,,,,,,,,,1988.8944715999532,None,,,,,,,,,,,,,,,,,phrase,silent,white,142,79,220,1983.119410800049,None,1983.119410800049,None,2,4.194942299975082,1983.119410800049,None,1987.359249799978,None,1987.880945699988,None,1987.880945699988,None,n,0.9855351001024246,1987.880945699988,None,,,NC_52,001,2022_May_03_1652,ProdSingRedo,3.2.3,59.95588444537765,
,,,,143,0,143,0,,,,,,,,,,,,,,,,,,,,,,,,1993.1108085000888,None,,,,,,,,,,,,,,,,,account,aloud,white,143,36,1,1989.4208247000352,None,1989.4208247000352,None,5,1.9813944001216441,1989.4208247000352,None,1991.4409128001425,None,1991.9641334000044,None,1991.9641334000044,None,f,1.1103803999722004,1991.9641334000044,None,,,NC_52,001,2022_May_03_1652,ProdSingRedo,3.2.3,59.95588444537765,
,,,,144,0,144,0,,,,,,,,,,,,,,,,,,,,,,,,2000.2280091999564,None,,,,,,,,,,,,,,,,,curve,aloud,white,144,39,82,1993.6413024000358,None,1993.6413024000358,None,5,4.768921500071883,1993.6413024000358,None,1998.4576739999466,None,1998.9836228000931,None,1998.9836228000931,None,f,1.2188071999698877,1998.9836228000931,None,,,NC_52,001,2022_May_03_1652,ProdSingRedo,3.2.3,59.95588444537765,
,,,,145,0,145,0,,,,,,,,,,,,,,,,,,,,,,,,2007.7706969000865,None,,,,,,,,,,,,,,,,,company,new_c,white,145,170,64,2000.768864700105,None,2000.768864700105,None,4,5.369399799965322,2000.768864700105,None,2006.1945634000003,None,2006.7198508000001,None,2006.7198508000001,None,f,1.0179786998778582,2006.7198508000001,None,,,NC_52,001,2022_May_03_1652,ProdSingRedo,3.2.3,59.95588444537765,
,,,,146,0,146,0,,,,,,,,,,,,,,,,,,,,,,,,2012.9051190000027,None,,,,,,,,,,,,,,,,,solution,new_c,white,146,160,294,2008.3050021999516,None,2008.3050021999516,None,6,2.9773459997959435,2008.3050021999516,None,2011.3152916999534,None,2011.8336221999489,None,2011.8336221999489,None,r,1.0484009000938386,2011.8336221999489,None,,,NC_52,001,2022_May_03_1652,ProdSingRedo,3.2.3,59.95588444537765,
,,,,147,0,147,0,,,,,,,,,,,,,,,,,,,,,,,,2018.8961380999535,None,,,,,,,,,,,,,,,,,resistance,new_a,white,147,97,262,2013.4427318000235,None,2013.4427318000235,None,1,3.5832617001142353,2013.4427318000235,None,2017.0631912001409,None,2017.5902621999849,None,2017.5902621999849,None,n,1.2760330999735743,2017.5902621999849,None,,,NC_52,001,2022_May_03_1652,ProdSingRedo,3.2.3,59.95588444537765,
,,,,148,0,148,0,,,,,,,,,,,,,,,,,,,,,,,,2024.7958148999605,None,,,,,,,,,,,,,,,,,citizen,new_b,white,148,140,50,2019.4272956999484,None,2019.4272956999484,None,3,3.1029695000033826,2019.4272956999484,None,2022.5764318001457,None,2023.0981839001179,None,2023.0981839001179,None,n,1.6642006000038236,2023.0981839001179,None,,,NC_52,001,2022_May_03_1652,ProdSingRedo,3.2.3,59.95588444537765,
,,,,149,0,149,0,,,,,,,,,,,,,,,,,,,,,,,,2032.6297230001073,None,,,,,,,,,,,,,,,,,skill,silent,white,149,61,289,2025.3200908999424,None,2025.3200908999424,None,6,5.0343040998559445,2025.3200908999424,None,2030.396176500013,None,2030.9157467000186,None,2030.9157467000186,None,f,1.6785414000041783,2030.9157467000186,None,,,NC_52,001,2022_May_03_1652,ProdSingRedo,3.2.3,59.95588444537765,
,,,,150,0,150,0,,,,,,,,,,,,,,,,,,,,,,,,2039.536930500064,None,,,,,,,,,,,,,,,,,clean,aloud,white,150,55,51,2033.1564939999953,None,2033.1564939999953,None,6,3.237722499994561,2033.1564939999953,None,2036.4401186001487,None,2036.9682479000185,None,2036.9682479000185,None,f,2.5536114999558777,2036.9682479000185,None,,,NC_52,001,2022_May_03_1652,ProdSingRedo,3.2.3,59.95588444537765,
,,,,151,0,151,0,,,,,,,,,,,,,,,,,,,,,,,,2045.8289584000595,None,,,,,,,,,,,,,,,,,trash,aloud,white,151,53,337,2040.0405737000983,None,2040.0405737000983,None,3,3.681796999881044,2040.0405737000983,None,2043.7608485000674,None,2044.2830523999874,None,2044.2830523999874,None,n,1.519952300004661,2044.2830523999874,None,,,NC_52,001,2022_May_03_1652,ProdSingRedo,3.2.3,59.95588444537765,
,,,,152,0,152,0,,,,,,,,,,,,,,,,,,,,,,,,2052.696813300019,None,,,,,,,,,,,,,,,,,commercial,silent,white,152,87,61,2046.3603644999675,None,2046.3603644999675,None,6,4.27382029988803,2046.3603644999675,None,2050.6805724999867,None,2051.199398800032,None,2051.199398800032,None,n,1.4588311999104917,2051.199398800032,None,,,NC_52,001,2022_May_03_1652,ProdSingRedo,3.2.3,59.95588444537765,
,,,,153,0,153,0,,,,,,,,,,,,,,,,,,,,,,,,2058.6659355000593,None,,,,,,,,,,,,,,,,,still,sing,white,153,11,304,2053.2190493999515,None,2053.2190493999515,None,6,2.8316428000107408,2053.2190493999515,None,2056.0887279999442,None,2056.5963397999294,None,2056.5963397999294,None,r,2.0379998001735657,2056.5963397999294,None,,,NC_52,001,2022_May_03_1652,ProdSingRedo,3.2.3,59.95588444537765,
,,,,154,0,154,0,,,,,,,,,,,,,,,,,,,,,,,,2064.264956000028,None,,,,,,,,,,,,,,,,,speech,new_b,white,154,129,298,2059.185351599939,None,2059.185351599939,None,1,3.3130262000486255,2059.185351599939,None,2062.5475385999307,None,2063.0637898999266,None,2063.0637898999266,None,n,1.1623658000025898,2063.0637898999266,None,,,NC_52,001,2022_May_03_1652,ProdSingRedo,3.2.3,59.95588444537765,
,,,,155,0,155,0,,,,,,,,,,,,,,,,,,,,,,,,2071.7325528000947,None,,,,,,,,,,,,,,,,,attack,new_a,white,155,101,13,2064.7922165000346,None,2064.7922165000346,None,1,5.233731399988756,2064.7922165000346,None,2070.0632540001534,None,2070.5851052000653,None,2070.5851052000653,None,n,1.1212448999285698,2070.5851052000653,None,,,NC_52,001,2022_May_03_1652,ProdSingRedo,3.2.3,59.95588444537765,
,,,,156,0,156,0,,,,,,,,,,,,,,,,,,,,,,,,2076.782502700109,None,,,,,,,,,,,,,,,,,length,aloud,white,156,47,169,2072.2562218001112,None,2072.2562218001112,None,2,2.762113200034946,2072.2562218001112,None,2075.064243100118,None,2075.5871006001253,None,2075.5871006001253,None,n,1.1680212998762727,2075.5871006001253,None,,,NC_52,001,2022_May_03_1652,ProdSingRedo,3.2.3,59.95588444537765,
,,,,157,0,157,0,,,,,,,,,,,,,,,,,,,,,,,,2081.4484669000376,None,,,,,,,,,,,,,,,,,volume,sing,white,157,3,349,2077.309954999946,None,2077.309954999946,None,6,2.1242770000826567,2077.309954999946,None,2079.4819678999484,None,2080.002299200045,None,2080.002299200045,None,f,1.4079217000398785,2080.002299200045,None,,,NC_52,001,2022_May_03_1652,ProdSingRedo,3.2.3,59.95588444537765,
,,,,158,0,158,0,,,,,,,,,,,,,,,,,,,,,,,,2085.7491955999285,None,,,,,,,,,,,,,,,,,crisis,new_a,white,158,105,79,2081.9586134001147,None,2081.9586134001147,None,1,1.8515681000426412,2081.9586134001147,None,2083.8607663000003,None,2084.381446799962,None,2084.381446799962,None,n,1.332939299987629,2084.381446799962,None,,,NC_52,001,2022_May_03_1652,ProdSingRedo,3.2.3,59.95588444537765,
,,,,159,0,159,0,,,,,,,,,,,,,,,,,,,,,,,,2089.9683270000387,None,,,,,,,,,,,,,,,,,rough,new_c,white,159,150,266,2086.276405400131,None,2086.276405400131,None,5,2.1418763999827206,2086.276405400131,None,2088.460116600152,None,2088.9873480000533,None,2088.9873480000533,None,f,0.9429214000701904,2088.9873480000533,None,,,NC_52,001,2022_May_03_1652,ProdSingRedo,3.2.3,59.95588444537765,
,,,,160,0,160,0,,,,,,,,,,,,,,,,,,,,,,,,2095.6668513000477,None,,,,,,,,,,,,,,,,,command,new_a,white,160,114,60,2090.4939870000817,None,2090.4939870000817,None,2,3.004238900030032,2090.4939870000817,None,2093.549116200069,None,2094.0697596999817,None,2094.0697596999817,None,n,1.5644777999259531,2094.0697596999817,None,,,NC_52,001,2022_May_03_1652,ProdSingRedo,3.2.3,59.95588444537765,
,,,,161,0,161,0,,,,,,,,,,,,,,,,,,,,,,,,2101.167551700026,None,,,,,,,,,,,,,,,,,passage,silent,white,161,83,212,2096.1952974000014,None,2096.1952974000014,None,2,3.054576399968937,2096.1952974000014,None,2099.30126149999,None,2099.8089157999493,None,2099.8089157999493,None,n,1.3293359000235796,2099.8089157999493,None,,,NC_52,001,2022_May_03_1652,ProdSingRedo,3.2.3,59.95588444537765,
,,,,162,0,162,0,,,,,,,,,,,,,,,,,,,,,,,,2106.651053500129,None,,,,,,,,,,,,,,,,,shear,silent,white,162,63,283,2101.6894243001007,None,2101.6894243001007,None,6,3.024880100041628,2101.6894243001007,None,2104.766570900101,None,2105.285741500091,None,2105.285741500091,None,r,1.3324414999224246,2105.285741500091,None,,,NC_52,001,2022_May_03_1652,ProdSingRedo,3.2.3,59.95588444537765,
,,,,163,0,163,0,,,,,,,,,,,,,,,,,,,,,,,,2112.8605394000188,None,,,,,,,,,,,,,,,,,nation,new_a,white,163,119,198,2107.1660199000034,None,2107.1660199000034,None,6,3.2443154000211507,2107.1660199000034,None,2110.448873100104,None,2110.971739300061,None,2110.971739300061,None,f,1.8703806998673826,2110.971739300061,None,,,NC_52,001,2022_May_03_1652,ProdSingRedo,3.2.3,59.95588444537765,
,,,,164,0,164,0,,,,,,,,,,,,,,,,,,,,,,,,2119.3014678999316,None,,,,,,,,,,,,,,,,,second,sing,white,164,18,278,2113.3797474999446,None,2113.3797474999446,None,3,3.85442559979856,2113.3797474999446,None,2117.2793362000957,None,2117.7997058001347,None,2117.7997058001347,None,n,1.4666943000629544,2117.7997058001347,None,,,NC_52,001,2022_May_03_1652,ProdSingRedo,3.2.3,59.95588444537765,
,,,,165,0,165,0,,,,,,,,,,,,,,,,,,,,,,,,2126.0203448999673,None,,,,,,,,,,,,,,,,,shock,new_a,white,165,117,284,2119.8236438999884,None,2119.8236438999884,None,1,4.354708699975163,2119.8236438999884,None,2124.2161590000615,None,2124.7365516000427,None,2124.7365516000427,None,n,1.2578348000533879,2124.7365516000427,None,,,NC_52,001,2022_May_03_1652,ProdSingRedo,3.2.3,59.95588444537765,
,,,,166,0,166,0,,,,,,,,,,,,,,,,,,,,,,,,2132.286559500033,None,,,,,,,,,,,,,,,,,broke,new_c,white,166,172,32,2126.5461259000003,None,2126.5461259000003,None,1,3.5596957998350263,2126.5461259000003,None,2130.13326589996,None,2130.6465209000744,None,2130.6465209000744,None,n,1.6123160000424832,2130.6465209000744,None,,,NC_52,001,2022_May_03_1652,ProdSingRedo,3.2.3,59.95588444537765,
,,,,167,0,167,0,,,,,,,,,,,,,,,,,,,,,,,,2138.921089099953,None,,,,,,,,,,,,,,,,,search,new_a,white,167,92,276,2132.8127448000014,None,2132.8127448000014,None,4,4.109460099833086,2132.8127448000014,None,2136.9675086000934,None,2137.4800406000577,None,2137.4800406000577,None,f,1.4101378999184817,2137.4800406000577,None,,,NC_52,001,2022_May_03_1652,ProdSingRedo,3.2.3,59.95588444537765,
,,,,168,0,168,0,,,,,,,,,,,,,,,,,,,,,,,,2143.163578600157,None,,,,,,,,,,,,,,,,,equipment,new_a,white,168,100,116,2139.448936200002,None,2139.448936200002,None,6,1.9371853000484407,2139.448936200002,None,2141.438361100154,None,2141.961801199941,None,2141.961801199941,None,f,1.1840761001221836,2141.961801199941,None,,,NC_52,001,2022_May_03_1652,ProdSingRedo,3.2.3,59.95588444537765,
,,,,169,0,169,0,,,,,,,,,,,,,,,,,,,,,,,,2148.8708103001118,None,,,,,,,,,,,,,,,,,mankind,silent,white,169,73,178,2143.6794141000137,None,2143.6794141000137,None,1,2.1310379998758435,2143.6794141000137,None,2145.8441437000874,None,2146.358336500125,None,2146.358336500125,None,f,2.484334399923682,2146.358336500125,None,,,NC_52,001,2022_May_03_1652,ProdSingRedo,3.2.3,59.95588444537765,
,,,,170,0,170,0,,,,,,,,,,,,,,,,,,,,,,,,2158.432615299942,None,,,,,,,,,,,,,,,,,profession,new_c,white,170,168,241,2149.398306600051,None,2149.398306600051,None,3,5.443909299792722,2149.398306600051,None,2154.882307500113,None,2155.40970920003,None,2155.40970920003,None,n,3.000695199938491,2155.40970920003,None,,,NC_52,001,2022_May_03_1652,ProdSingRedo,3.2.3,59.95588444537765,
,,,,171,0,171,0,,,,,,,,,,,,,,,,,,,,,,,,2162.9067305999342,None,,,,,,,,,,,,,,,,,match,new_c,white,171,156,181,2158.961139000021,None,2158.961139000021,None,5,2.225028899963945,2158.961139000021,None,2161.2360291001387,None,2161.7588577000424,None,2161.7588577000424,None,f,1.1155086001381278,2161.7588577000424,None,,,NC_52,001,2022_May_03_1652,ProdSingRedo,3.2.3,59.95588444537765,
,,,,172,0,172,0,,,,,,,,,,,,,,,,,,,,,,,,2167.854424600024,None,,,,,,,,,,,,,,,,,atmosphere,new_b,white,172,136,12,2163.428561999928,None,2163.428561999928,None,2,2.77371079986915,2163.428561999928,None,2166.252206900157,None,2166.7801354001276,None,2166.7801354001276,None,n,1.0380368998739868,2166.7801354001276,None,,,NC_52,001,2022_May_03_1652,ProdSingRedo,3.2.3,59.95588444537765,
,,,,173,0,173,0,,,,,,,,,,,,,,,,,,,,,,,,2176.157452299958,None,,,,,,,,,,,,,,,,,working,aloud,white,173,50,357,2168.3744330999907,None,2168.3744330999907,None,6,5.099795799935237,2168.3744330999907,None,2173.524715400068,None,2174.0474690999836,None,2174.0474690999836,None,f,2.074642099905759,2174.0474690999836,None,,,NC_52,001,2022_May_03_1652,ProdSingRedo,3.2.3,59.95588444537765,
,,,,174,0,174,0,,,,,,,,,,,,,,,,,,,,,,,,2180.5905295999255,None,,,,,,,,,,,,,,,,,staff,new_b,white,174,149,301,2176.682025700109,None,2176.682025700109,None,5,2.2245487000327557,2176.682025700109,None,2178.9528413000517,None,2179.4757912999485,None,2179.4757912999485,None,f,1.0867911998648196,2179.4757912999485,None,,,NC_52,001,2022_May_03_1652,ProdSingRedo,3.2.3,59.95588444537765,
,,,,175,0,175,0,,,,,,,,,,,,,,,,,,,,,,,,2185.7567306000274,None,,,,,,,,,,,,,,,,,object,new_a,white,175,94,204,2181.1175963999704,None,2181.1175963999704,None,1,2.6209840001538396,2181.1175963999704,None,2183.7884478999767,None,2184.307467600098,None,2184.307467600098,None,n,1.4147342999931425,2184.307467600098,None,,,NC_52,001,2022_May_03_1652,ProdSingRedo,3.2.3,59.95588444537765,
,,,,176,0,176,0,,,,,,,,,,,,,,,,,,,,,,,,2194.424536000006,None,,,,,,,,,,,,,,,,,silence,new_c,white,176,164,288,2186.279084699927,None,2186.279084699927,None,6,5.1151665998622775,2186.279084699927,None,2191.4355452000163,None,2191.954716300126,None,2191.954716300126,None,n,2.4395391999278218,2191.954716300126,None,,,NC_52,001,2022_May_03_1652,ProdSingRedo,3.2.3,59.95588444537765,
,,,,177,0,177,0,,,,,,,,,,,,,,,,,,,,,,,,2200.641454800032,None,,,,,,,,,,,,,,,,,dispute,new_b,white,177,130,99,2194.950826599961,None,2194.950826599961,None,1,3.0034294000361115,2194.950826599961,None,2198.007189300144,None,2198.528101200005,None,2198.528101200005,None,n,2.0821861000731587,2198.528101200005,None,,,NC_52,001,2022_May_03_1652,ProdSingRedo,3.2.3,59.95588444537765,
,,,,178,0,178,0,,,,,,,,,,,,,,,,,,,,,,,,2207.0416015000083,None,,,,,,,,,,,,,,,,,reach,sing,white,178,6,253,2201.1714622001164,None,2201.1714622001164,None,6,3.591059400001541,2201.1714622001164,None,2204.791836200049,None,2205.3160904999822,None,2205.3160904999822,None,f,1.6861441999208182,2205.3160904999822,None,,,NC_52,001,2022_May_03_1652,ProdSingRedo,3.2.3,59.95588444537765,
,,,,179,0,179,0,,,,,,,,,,,,,,,,,,,,,,,,2211.80857870006,None,,,,,,,,,,,,,,,,,escape,new_c,white,179,157,118,2207.56681400002,None,2207.56681400002,None,1,1.7798947000410408,2207.56681400002,None,2209.3931587999687,None,2209.9125564999413,None,2209.9125564999413,None,n,1.8655810998752713,2209.9125564999413,None,,,NC_52,001,2022_May_03_1652,ProdSingRedo,3.2.3,59.95588444537765,
,,,,,,,,,,,,,,,,,,,,,,,,,,,,,,,,,,,,,,,,,,,,,,,,,,,,,,,,,,,,,,,,,,,,,,,,,2212.317248000065,None,,,,,,,
