StudyLoop.thisRepN,StudyLoop.thisTrialN,StudyLoop.thisN,StudyLoop.thisIndex,TestLoop.thisRepN,TestLoop.thisTrialN,TestLoop.thisN,TestLoop.thisIndex,textCondition.started,textCondition.stopped,keyCondition.keys,keyCondition.rt,keyCondition.started,keyCondition.stopped,Condition,stim_colors,color_sing,color_aloud,color_silent,textWelcome.started,textWelcome.stopped,keyWelcome.keys,keyWelcome.rt,keyWelcome.started,keyWelcome.stopped,textAloud.started,textAloud.stopped,textSilent.started,textSilent.stopped,textSing.started,textSing.stopped,textBlank500.started,textBlank500.stopped,study_word,study_type,study_color,study_num,study_word_num,textStudy.started,textStudy.stopped,keyStudy.keys,keyStudy.started,keyStudy.stopped,keyStudy.rt,textTestInstructions.started,textTestInstructions.stopped,key_resp_3.keys,key_resp_3.rt,key_resp_3.started,key_resp_3.stopped,testWord,testType,testColor,testN,test_num,test_word_num,textConf.started,textConf.stopped,textConfScale.started,textConfScale.stopped,keyConf.keys,keyConf.rt,keyConf.started,keyConf.stopped,textTestBlank.started,textTestBlank.stopped,textRKN.started,textRKN.stopped,textRKNScale.started,textRKNScale.stopped,keyRKN.keys,keyRKN.rt,keyRKN.started,keyRKN.stopped,textEnd.started,textEnd.stopped,participant,session,date,expName,psychopyVersion,frameRate,
,,,,,,,,30.874581099953502,None,n,1.234324799850583,30.874581099953502,None,,,,,,,,,,,,,,,,,,,,,,,,,,,,,,,,,,,,,,,,,,,,,,,,,,,,,,,,,,,,,,,NC_56,001,2022_May_05_1249,ProdSingRedo,3.2.3,59.98318069978884,
,,,,,,,,,,,,,,NeutralTest,"['red', 'yellow', 'blue']",red,yellow,blue,32.158326300093904,None,space,777.3185242000036,32.158326300093904,None,,,,,,,,,,,,,,,,,,,,,,,,,,,,,,,,,,,,,,,,,,,,,,,,,,,,NC_56,001,2022_May_05_1249,ProdSingRedo,3.2.3,59.98318069978884,
0,0,0,0,,,,,,,,,,,,,,,,,,,,,,32.158326300093904,None,32.158326300093904,None,32.158326300093904,None,812.0156680999789,None,weather,sing,red,19,352,810.0179711999372,None,None,810.0179711999372,None,,,,,,,,,,,,,,,,,,,,,,,,,,,,,,,,,,NC_56,001,2022_May_05_1249,ProdSingRedo,3.2.3,59.98318069978884,
1,0,1,0,,,,,,,,,,,,,,,,,,,,,,,,,,,,814.53248360008,None,produce,sing,red,7,239,812.5193566998933,None,None,812.5193566998933,None,,,,,,,,,,,,,,,,,,,,,,,,,,,,,,,,,,NC_56,001,2022_May_05_1249,ProdSingRedo,3.2.3,59.98318069978884,
2,0,2,0,,,,,,,,,,,,,,,,,,,,,,,,,,,,817.0491865999065,None,revolution,silent,blue,64,264,815.0490413999651,None,None,815.0490413999651,None,,,,,,,,,,,,,,,,,,,,,,,,,,,,,,,,,,NC_56,001,2022_May_05_1249,ProdSingRedo,3.2.3,59.98318069978884,
3,0,3,0,,,,,,,,,,,,,,,,,,,,,,,,,,,,819.5662527000532,None,appearance,silent,blue,71,10,817.5678940000944,None,space,817.5678940000944,None,1.5811352001037449,,,,,,,,,,,,,,,,,,,,,,,,,,,,,,,,,NC_56,001,2022_May_05_1249,ProdSingRedo,3.2.3,59.98318069978884,
4,0,4,0,,,,,,,,,,,,,,,,,,,,,,,,,,,,822.0829706999939,None,power,aloud,yellow,47,230,820.0729018999264,None,space,820.0729018999264,None,1.5718183999415487,,,,,,,,,,,,,,,,,,,,,,,,,,,,,,,,,NC_56,001,2022_May_05_1249,ProdSingRedo,3.2.3,59.98318069978884,
5,0,5,0,,,,,,,,,,,,,,,,,,,,,,,,,,,,824.5999668999575,None,dance,silent,blue,73,84,822.5943970999215,None,None,822.5943970999215,None,,,,,,,,,,,,,,,,,,,,,,,,,,,,,,,,,,NC_56,001,2022_May_05_1249,ProdSingRedo,3.2.3,59.98318069978884,
6,0,6,0,,,,,,,,,,,,,,,,,,,,,,,,,,,,827.1166459999513,None,weight,sing,red,29,353,825.115977599984,None,None,825.115977599984,None,,,,,,,,,,,,,,,,,,,,,,,,,,,,,,,,,,NC_56,001,2022_May_05_1249,ProdSingRedo,3.2.3,59.98318069978884,
7,0,7,0,,,,,,,,,,,,,,,,,,,,,,,,,,,,829.6339630999137,None,sleep,aloud,yellow,31,290,827.621324500069,None,None,827.621324500069,None,,,,,,,,,,,,,,,,,,,,,,,,,,,,,,,,,,NC_56,001,2022_May_05_1249,ProdSingRedo,3.2.3,59.98318069978884,
8,0,8,0,,,,,,,,,,,,,,,,,,,,,,,,,,,,832.150564200012,None,route,sing,red,1,267,830.1468803000171,None,None,830.1468803000171,None,,,,,,,,,,,,,,,,,,,,,,,,,,,,,,,,,,NC_56,001,2022_May_05_1249,ProdSingRedo,3.2.3,59.98318069978884,
9,0,9,0,,,,,,,,,,,,,,,,,,,,,,,,,,,,834.6672787000425,None,property,aloud,yellow,40,242,832.6712315999903,None,None,832.6712315999903,None,,,,,,,,,,,,,,,,,,,,,,,,,,,,,,,,,,NC_56,001,2022_May_05_1249,ProdSingRedo,3.2.3,59.98318069978884,
10,0,10,0,,,,,,,,,,,,,,,,,,,,,,,,,,,,837.1837579000276,None,suspect,silent,blue,82,318,835.1797863999382,None,None,835.1797863999382,None,,,,,,,,,,,,,,,,,,,,,,,,,,,,,,,,,,NC_56,001,2022_May_05_1249,ProdSingRedo,3.2.3,59.98318069978884,
11,0,11,0,,,,,,,,,,,,,,,,,,,,,,,,,,,,839.700950199971,None,trash,sing,red,15,337,837.6969502998982,None,None,837.6969502998982,None,,,,,,,,,,,,,,,,,,,,,,,,,,,,,,,,,,NC_56,001,2022_May_05_1249,ProdSingRedo,3.2.3,59.98318069978884,
12,0,12,0,,,,,,,,,,,,,,,,,,,,,,,,,,,,842.2176767999772,None,industry,aloud,yellow,53,161,840.2204330998939,None,None,840.2204330998939,None,,,,,,,,,,,,,,,,,,,,,,,,,,,,,,,,,,NC_56,001,2022_May_05_1249,ProdSingRedo,3.2.3,59.98318069978884,
13,0,13,0,,,,,,,,,,,,,,,,,,,,,,,,,,,,844.7346820998937,None,number,sing,red,4,203,842.740224200068,None,None,842.740224200068,None,,,,,,,,,,,,,,,,,,,,,,,,,,,,,,,,,,NC_56,001,2022_May_05_1249,ProdSingRedo,3.2.3,59.98318069978884,
14,0,14,0,,,,,,,,,,,,,,,,,,,,,,,,,,,,847.250645400025,None,salary,sing,red,23,271,845.254734300077,None,None,845.254734300077,None,,,,,,,,,,,,,,,,,,,,,,,,,,,,,,,,,,NC_56,001,2022_May_05_1249,ProdSingRedo,3.2.3,59.98318069978884,
15,0,15,0,,,,,,,,,,,,,,,,,,,,,,,,,,,,849.7682747000363,None,music,aloud,yellow,45,196,847.7629913999699,None,None,847.7629913999699,None,,,,,,,,,,,,,,,,,,,,,,,,,,,,,,,,,,NC_56,001,2022_May_05_1249,ProdSingRedo,3.2.3,59.98318069978884,
16,0,16,0,,,,,,,,,,,,,,,,,,,,,,,,,,,,852.2851082999259,None,order,sing,red,0,207,850.2692905000877,None,None,850.2692905000877,None,,,,,,,,,,,,,,,,,,,,,,,,,,,,,,,,,,NC_56,001,2022_May_05_1249,ProdSingRedo,3.2.3,59.98318069978884,
17,0,17,0,,,,,,,,,,,,,,,,,,,,,,,,,,,,854.8018582998775,None,machinery,aloud,yellow,42,175,852.793471599929,None,None,852.793471599929,None,,,,,,,,,,,,,,,,,,,,,,,,,,,,,,,,,,NC_56,001,2022_May_05_1249,ProdSingRedo,3.2.3,59.98318069978884,
18,0,18,0,,,,,,,,,,,,,,,,,,,,,,,,,,,,857.3186943999026,None,strain,silent,blue,86,308,855.3167421000544,None,None,855.3167421000544,None,,,,,,,,,,,,,,,,,,,,,,,,,,,,,,,,,,NC_56,001,2022_May_05_1249,ProdSingRedo,3.2.3,59.98318069978884,
19,0,19,0,,,,,,,,,,,,,,,,,,,,,,,,,,,,859.8355489999522,None,sunset,sing,red,5,315,857.8314425998833,None,None,857.8314425998833,None,,,,,,,,,,,,,,,,,,,,,,,,,,,,,,,,,,NC_56,001,2022_May_05_1249,ProdSingRedo,3.2.3,59.98318069978884,
20,0,20,0,,,,,,,,,,,,,,,,,,,,,,,,,,,,862.3535664000083,None,department,aloud,yellow,52,90,860.3371168000158,None,None,860.3371168000158,None,,,,,,,,,,,,,,,,,,,,,,,,,,,,,,,,,,NC_56,001,2022_May_05_1249,ProdSingRedo,3.2.3,59.98318069978884,
21,0,21,0,,,,,,,,,,,,,,,,,,,,,,,,,,,,864.8693210000638,None,fellow,aloud,yellow,43,126,862.8687001999933,None,None,862.8687001999933,None,,,,,,,,,,,,,,,,,,,,,,,,,,,,,,,,,,NC_56,001,2022_May_05_1249,ProdSingRedo,3.2.3,59.98318069978884,
22,0,22,0,,,,,,,,,,,,,,,,,,,,,,,,,,,,867.3861042999197,None,danger,aloud,yellow,58,85,865.391913499916,None,None,865.391913499916,None,,,,,,,,,,,,,,,,,,,,,,,,,,,,,,,,,,NC_56,001,2022_May_05_1249,ProdSingRedo,3.2.3,59.98318069978884,
23,0,23,0,,,,,,,,,,,,,,,,,,,,,,,,,,,,869.9030055000912,None,rural,silent,blue,87,269,867.9012295999564,None,None,867.9012295999564,None,,,,,,,,,,,,,,,,,,,,,,,,,,,,,,,,,,NC_56,001,2022_May_05_1249,ProdSingRedo,3.2.3,59.98318069978884,
24,0,24,0,,,,,,,,,,,,,,,,,,,,,,,,,,,,872.4198346999474,None,story,sing,red,13,306,870.4148663999513,None,None,870.4148663999513,None,,,,,,,,,,,,,,,,,,,,,,,,,,,,,,,,,,NC_56,001,2022_May_05_1249,ProdSingRedo,3.2.3,59.98318069978884,
25,0,25,0,,,,,,,,,,,,,,,,,,,,,,,,,,,,874.9365777000785,None,series,aloud,yellow,59,279,872.9295168998651,None,None,872.9295168998651,None,,,,,,,,,,,,,,,,,,,,,,,,,,,,,,,,,,NC_56,001,2022_May_05_1249,ProdSingRedo,3.2.3,59.98318069978884,
26,0,26,0,,,,,,,,,,,,,,,,,,,,,,,,,,,,877.4533963000868,None,question,aloud,yellow,50,247,875.458643199876,None,None,875.458643199876,None,,,,,,,,,,,,,,,,,,,,,,,,,,,,,,,,,,NC_56,001,2022_May_05_1249,ProdSingRedo,3.2.3,59.98318069978884,
27,0,27,0,,,,,,,,,,,,,,,,,,,,,,,,,,,,879.97024649987,None,community,aloud,yellow,56,63,877.9703494000714,None,None,877.9703494000714,None,,,,,,,,,,,,,,,,,,,,,,,,,,,,,,,,,,NC_56,001,2022_May_05_1249,ProdSingRedo,3.2.3,59.98318069978884,
28,0,28,0,,,,,,,,,,,,,,,,,,,,,,,,,,,,882.4871227999683,None,bucket,silent,blue,76,33,880.49037340004,None,None,880.49037340004,None,,,,,,,,,,,,,,,,,,,,,,,,,,,,,,,,,,NC_56,001,2022_May_05_1249,ProdSingRedo,3.2.3,59.98318069978884,
29,0,29,0,,,,,,,,,,,,,,,,,,,,,,,,,,,,885.003921699943,None,light,aloud,yellow,33,171,882.999079399975,None,None,882.999079399975,None,,,,,,,,,,,,,,,,,,,,,,,,,,,,,,,,,,NC_56,001,2022_May_05_1249,ProdSingRedo,3.2.3,59.98318069978884,
30,0,30,0,,,,,,,,,,,,,,,,,,,,,,,,,,,,887.5207847000565,None,grade,aloud,yellow,46,140,885.5178932000417,None,None,885.5178932000417,None,,,,,,,,,,,,,,,,,,,,,,,,,,,,,,,,,,NC_56,001,2022_May_05_1249,ProdSingRedo,3.2.3,59.98318069978884,
31,0,31,0,,,,,,,,,,,,,,,,,,,,,,,,,,,,890.0375679000281,None,treatment,silent,blue,69,339,888.0330795000773,None,None,888.0330795000773,None,,,,,,,,,,,,,,,,,,,,,,,,,,,,,,,,,,NC_56,001,2022_May_05_1249,ProdSingRedo,3.2.3,59.98318069978884,
32,0,32,0,,,,,,,,,,,,,,,,,,,,,,,,,,,,892.5549087000545,None,native,aloud,yellow,48,199,890.5509832999669,None,None,890.5509832999669,None,,,,,,,,,,,,,,,,,,,,,,,,,,,,,,,,,,NC_56,001,2022_May_05_1249,ProdSingRedo,3.2.3,59.98318069978884,
33,0,33,0,,,,,,,,,,,,,,,,,,,,,,,,,,,,895.0712476999033,None,balance,sing,red,8,17,893.0699191999156,None,None,893.0699191999156,None,,,,,,,,,,,,,,,,,,,,,,,,,,,,,,,,,,NC_56,001,2022_May_05_1249,ProdSingRedo,3.2.3,59.98318069978884,
34,0,34,0,,,,,,,,,,,,,,,,,,,,,,,,,,,,897.5880740000866,None,defeat,sing,red,16,88,895.5871532000601,None,None,895.5871532000601,None,,,,,,,,,,,,,,,,,,,,,,,,,,,,,,,,,,NC_56,001,2022_May_05_1249,ProdSingRedo,3.2.3,59.98318069978884,
35,0,35,0,,,,,,,,,,,,,,,,,,,,,,,,,,,,900.1049168000463,None,poetry,sing,red,18,225,898.0996042999905,None,None,898.0996042999905,None,,,,,,,,,,,,,,,,,,,,,,,,,,,,,,,,,,NC_56,001,2022_May_05_1249,ProdSingRedo,3.2.3,59.98318069978884,
36,0,36,0,,,,,,,,,,,,,,,,,,,,,,,,,,,,902.6217700999696,None,capital,silent,blue,74,40,900.615388300037,None,None,900.615388300037,None,,,,,,,,,,,,,,,,,,,,,,,,,,,,,,,,,,NC_56,001,2022_May_05_1249,ProdSingRedo,3.2.3,59.98318069978884,
37,0,37,0,,,,,,,,,,,,,,,,,,,,,,,,,,,,905.1385528999381,None,speech,silent,blue,85,298,903.1313434999902,None,None,903.1313434999902,None,,,,,,,,,,,,,,,,,,,,,,,,,,,,,,,,,,NC_56,001,2022_May_05_1249,ProdSingRedo,3.2.3,59.98318069978884,
38,0,38,0,,,,,,,,,,,,,,,,,,,,,,,,,,,,907.6553978000302,None,write,sing,red,14,358,905.6501489998773,None,None,905.6501489998773,None,,,,,,,,,,,,,,,,,,,,,,,,,,,,,,,,,,NC_56,001,2022_May_05_1249,ProdSingRedo,3.2.3,59.98318069978884,
39,0,39,0,,,,,,,,,,,,,,,,,,,,,,,,,,,,910.1721224000212,None,victory,silent,blue,83,346,908.170631099958,None,None,908.170631099958,None,,,,,,,,,,,,,,,,,,,,,,,,,,,,,,,,,,NC_56,001,2022_May_05_1249,ProdSingRedo,3.2.3,59.98318069978884,
40,0,40,0,,,,,,,,,,,,,,,,,,,,,,,,,,,,912.6725190998986,None,report,aloud,yellow,36,259,910.6720118999947,None,None,910.6720118999947,None,,,,,,,,,,,,,,,,,,,,,,,,,,,,,,,,,,NC_56,001,2022_May_05_1249,ProdSingRedo,3.2.3,59.98318069978884,
41,0,41,0,,,,,,,,,,,,,,,,,,,,,,,,,,,,915.1891908999532,None,author,silent,blue,80,15,913.1848845998757,None,None,913.1848845998757,None,,,,,,,,,,,,,,,,,,,,,,,,,,,,,,,,,,NC_56,001,2022_May_05_1249,ProdSingRedo,3.2.3,59.98318069978884,
42,0,42,0,,,,,,,,,,,,,,,,,,,,,,,,,,,,917.7060950999148,None,mayor,silent,blue,67,183,915.7035449999385,None,None,915.7035449999385,None,,,,,,,,,,,,,,,,,,,,,,,,,,,,,,,,,,NC_56,001,2022_May_05_1249,ProdSingRedo,3.2.3,59.98318069978884,
43,0,43,0,,,,,,,,,,,,,,,,,,,,,,,,,,,,920.2229069999885,None,shock,aloud,yellow,54,284,918.2176798998844,None,None,918.2176798998844,None,,,,,,,,,,,,,,,,,,,,,,,,,,,,,,,,,,NC_56,001,2022_May_05_1249,ProdSingRedo,3.2.3,59.98318069978884,
44,0,44,0,,,,,,,,,,,,,,,,,,,,,,,,,,,,922.73980199988,None,company,aloud,yellow,34,64,920.7362001000438,None,None,920.7362001000438,None,,,,,,,,,,,,,,,,,,,,,,,,,,,,,,,,,,NC_56,001,2022_May_05_1249,ProdSingRedo,3.2.3,59.98318069978884,
45,0,45,0,,,,,,,,,,,,,,,,,,,,,,,,,,,,925.2581205999013,None,public,silent,blue,79,244,923.2599502000958,None,None,923.2599502000958,None,,,,,,,,,,,,,,,,,,,,,,,,,,,,,,,,,,NC_56,001,2022_May_05_1249,ProdSingRedo,3.2.3,59.98318069978884,
46,0,46,0,,,,,,,,,,,,,,,,,,,,,,,,,,,,927.7734417999163,None,waste,sing,red,25,350,925.7674004000146,None,None,925.7674004000146,None,,,,,,,,,,,,,,,,,,,,,,,,,,,,,,,,,,NC_56,001,2022_May_05_1249,ProdSingRedo,3.2.3,59.98318069978884,
47,0,47,0,,,,,,,,,,,,,,,,,,,,,,,,,,,,930.2902748999186,None,smell,sing,red,24,291,928.2831886999775,None,None,928.2831886999775,None,,,,,,,,,,,,,,,,,,,,,,,,,,,,,,,,,,NC_56,001,2022_May_05_1249,ProdSingRedo,3.2.3,59.98318069978884,
48,0,48,0,,,,,,,,,,,,,,,,,,,,,,,,,,,,932.8070578000043,None,universal,silent,blue,81,345,930.8077578998636,None,None,930.8077578998636,None,,,,,,,,,,,,,,,,,,,,,,,,,,,,,,,,,,NC_56,001,2022_May_05_1249,ProdSingRedo,3.2.3,59.98318069978884,
49,0,49,0,,,,,,,,,,,,,,,,,,,,,,,,,,,,935.3239164999686,None,agreement,sing,red,21,5,933.3251404000912,None,None,933.3251404000912,None,,,,,,,,,,,,,,,,,,,,,,,,,,,,,,,,,,NC_56,001,2022_May_05_1249,ProdSingRedo,3.2.3,59.98318069978884,
50,0,50,0,,,,,,,,,,,,,,,,,,,,,,,,,,,,937.8408337999135,None,foundation,sing,red,9,132,935.8453096000012,None,None,935.8453096000012,None,,,,,,,,,,,,,,,,,,,,,,,,,,,,,,,,,,NC_56,001,2022_May_05_1249,ProdSingRedo,3.2.3,59.98318069978884,
51,0,51,0,,,,,,,,,,,,,,,,,,,,,,,,,,,,940.3579184000846,None,center,silent,blue,68,44,938.3496934999712,None,None,938.3496934999712,None,,,,,,,,,,,,,,,,,,,,,,,,,,,,,,,,,,NC_56,001,2022_May_05_1249,ProdSingRedo,3.2.3,59.98318069978884,
52,0,52,0,,,,,,,,,,,,,,,,,,,,,,,,,,,,942.874475199962,None,under,silent,blue,63,343,940.8760697999969,None,None,940.8760697999969,None,,,,,,,,,,,,,,,,,,,,,,,,,,,,,,,,,,NC_56,001,2022_May_05_1249,ProdSingRedo,3.2.3,59.98318069978884,
53,0,53,0,,,,,,,,,,,,,,,,,,,,,,,,,,,,945.3914538999088,None,science,aloud,yellow,55,275,943.3840981998947,None,None,943.3840981998947,None,,,,,,,,,,,,,,,,,,,,,,,,,,,,,,,,,,NC_56,001,2022_May_05_1249,ProdSingRedo,3.2.3,59.98318069978884,
54,0,54,0,,,,,,,,,,,,,,,,,,,,,,,,,,,,947.9092105999589,None,birth,silent,blue,65,22,945.9023533998989,None,None,945.9023533998989,None,,,,,,,,,,,,,,,,,,,,,,,,,,,,,,,,,,NC_56,001,2022_May_05_1249,ProdSingRedo,3.2.3,59.98318069978884,
55,0,55,0,,,,,,,,,,,,,,,,,,,,,,,,,,,,950.4250078999903,None,throw,aloud,yellow,44,330,948.4192059000488,None,None,948.4192059000488,None,,,,,,,,,,,,,,,,,,,,,,,,,,,,,,,,,,NC_56,001,2022_May_05_1249,ProdSingRedo,3.2.3,59.98318069978884,
56,0,56,0,,,,,,,,,,,,,,,,,,,,,,,,,,,,952.9417916999664,None,curve,aloud,yellow,51,82,950.9402069000062,None,None,950.9402069000062,None,,,,,,,,,,,,,,,,,,,,,,,,,,,,,,,,,,NC_56,001,2022_May_05_1249,ProdSingRedo,3.2.3,59.98318069978884,
57,0,57,0,,,,,,,,,,,,,,,,,,,,,,,,,,,,955.4419944998808,None,solution,aloud,yellow,32,294,953.4416718999855,None,None,953.4416718999855,None,,,,,,,,,,,,,,,,,,,,,,,,,,,,,,,,,,NC_56,001,2022_May_05_1249,ProdSingRedo,3.2.3,59.98318069978884,
58,0,58,0,,,,,,,,,,,,,,,,,,,,,,,,,,,,957.9588057999499,None,substance,sing,red,6,313,955.9770184999797,None,None,955.9770184999797,None,,,,,,,,,,,,,,,,,,,,,,,,,,,,,,,,,,NC_56,001,2022_May_05_1249,ProdSingRedo,3.2.3,59.98318069978884,
59,0,59,0,,,,,,,,,,,,,,,,,,,,,,,,,,,,960.4755871000234,None,theme,silent,blue,78,326,958.4689313999843,None,None,958.4689313999843,None,,,,,,,,,,,,,,,,,,,,,,,,,,,,,,,,,,NC_56,001,2022_May_05_1249,ProdSingRedo,3.2.3,59.98318069978884,
60,0,60,0,,,,,,,,,,,,,,,,,,,,,,,,,,,,962.991866099881,None,material,aloud,yellow,35,182,960.991381400032,None,None,960.991381400032,None,,,,,,,,,,,,,,,,,,,,,,,,,,,,,,,,,,NC_56,001,2022_May_05_1249,ProdSingRedo,3.2.3,59.98318069978884,
61,0,61,0,,,,,,,,,,,,,,,,,,,,,,,,,,,,965.5098890999798,None,portion,aloud,yellow,39,228,963.4938264999073,None,None,963.4938264999073,None,,,,,,,,,,,,,,,,,,,,,,,,,,,,,,,,,,NC_56,001,2022_May_05_1249,ProdSingRedo,3.2.3,59.98318069978884,
62,0,62,0,,,,,,,,,,,,,,,,,,,,,,,,,,,,968.0262982000131,None,partner,aloud,yellow,37,211,966.0217653000727,None,None,966.0217653000727,None,,,,,,,,,,,,,,,,,,,,,,,,,,,,,,,,,,NC_56,001,2022_May_05_1249,ProdSingRedo,3.2.3,59.98318069978884,
63,0,63,0,,,,,,,,,,,,,,,,,,,,,,,,,,,,970.5429463000037,None,cross,silent,blue,61,80,968.535589999985,None,None,968.535589999985,None,,,,,,,,,,,,,,,,,,,,,,,,,,,,,,,,,,NC_56,001,2022_May_05_1249,ProdSingRedo,3.2.3,59.98318069978884,
64,0,64,0,,,,,,,,,,,,,,,,,,,,,,,,,,,,973.0592823000625,None,notice,sing,red,10,201,971.048268500017,None,None,971.048268500017,None,,,,,,,,,,,,,,,,,,,,,,,,,,,,,,,,,,NC_56,001,2022_May_05_1249,ProdSingRedo,3.2.3,59.98318069978884,
65,0,65,0,,,,,,,,,,,,,,,,,,,,,,,,,,,,975.5766871999949,None,government,aloud,yellow,49,139,973.5760993999429,None,None,973.5760993999429,None,,,,,,,,,,,,,,,,,,,,,,,,,,,,,,,,,,NC_56,001,2022_May_05_1249,ProdSingRedo,3.2.3,59.98318069978884,
66,0,66,0,,,,,,,,,,,,,,,,,,,,,,,,,,,,978.0935674998909,None,education,silent,blue,70,108,976.0933207999915,None,None,976.0933207999915,None,,,,,,,,,,,,,,,,,,,,,,,,,,,,,,,,,,NC_56,001,2022_May_05_1249,ProdSingRedo,3.2.3,59.98318069978884,
67,0,67,0,,,,,,,,,,,,,,,,,,,,,,,,,,,,980.6104953000322,None,scene,silent,blue,62,273,978.5960689999629,None,None,978.5960689999629,None,,,,,,,,,,,,,,,,,,,,,,,,,,,,,,,,,,NC_56,001,2022_May_05_1249,ProdSingRedo,3.2.3,59.98318069978884,
68,0,68,0,,,,,,,,,,,,,,,,,,,,,,,,,,,,983.1278826999478,None,recall,silent,blue,89,255,981.1258094999939,None,None,981.1258094999939,None,,,,,,,,,,,,,,,,,,,,,,,,,,,,,,,,,,NC_56,001,2022_May_05_1249,ProdSingRedo,3.2.3,59.98318069978884,
69,0,69,0,,,,,,,,,,,,,,,,,,,,,,,,,,,,985.6440349998884,None,instrument,silent,blue,75,163,983.6283825000282,None,None,983.6283825000282,None,,,,,,,,,,,,,,,,,,,,,,,,,,,,,,,,,,NC_56,001,2022_May_05_1249,ProdSingRedo,3.2.3,59.98318069978884,
70,0,70,0,,,,,,,,,,,,,,,,,,,,,,,,,,,,988.1607260999735,None,voice,silent,blue,84,348,986.1554590999149,None,None,986.1554590999149,None,,,,,,,,,,,,,,,,,,,,,,,,,,,,,,,,,,NC_56,001,2022_May_05_1249,ProdSingRedo,3.2.3,59.98318069978884,
71,0,71,0,,,,,,,,,,,,,,,,,,,,,,,,,,,,990.6776745000388,None,hearing,silent,blue,77,150,988.6750978999771,None,None,988.6750978999771,None,,,,,,,,,,,,,,,,,,,,,,,,,,,,,,,,,,NC_56,001,2022_May_05_1249,ProdSingRedo,3.2.3,59.98318069978884,
72,0,72,0,,,,,,,,,,,,,,,,,,,,,,,,,,,,993.1945312998723,None,dozen,aloud,yellow,57,102,991.1981001000386,None,None,991.1981001000386,None,,,,,,,,,,,,,,,,,,,,,,,,,,,,,,,,,,NC_56,001,2022_May_05_1249,ProdSingRedo,3.2.3,59.98318069978884,
73,0,73,0,,,,,,,,,,,,,,,,,,,,,,,,,,,,995.7105662000831,None,benefit,silent,blue,66,20,993.710499299923,None,None,993.710499299923,None,,,,,,,,,,,,,,,,,,,,,,,,,,,,,,,,,,NC_56,001,2022_May_05_1249,ProdSingRedo,3.2.3,59.98318069978884,
74,0,74,0,,,,,,,,,,,,,,,,,,,,,,,,,,,,998.2282062000595,None,debate,sing,red,17,87,996.2267308998853,None,None,996.2267308998853,None,,,,,,,,,,,,,,,,,,,,,,,,,,,,,,,,,,NC_56,001,2022_May_05_1249,ProdSingRedo,3.2.3,59.98318069978884,
75,0,75,0,,,,,,,,,,,,,,,,,,,,,,,,,,,,1000.7451802999713,None,expansion,sing,red,12,123,998.7298345000017,None,None,998.7298345000017,None,,,,,,,,,,,,,,,,,,,,,,,,,,,,,,,,,,NC_56,001,2022_May_05_1249,ProdSingRedo,3.2.3,59.98318069978884,
76,0,76,0,,,,,,,,,,,,,,,,,,,,,,,,,,,,1003.261965099955,None,beginning,sing,red,26,19,1001.2623157999478,None,None,1001.2623157999478,None,,,,,,,,,,,,,,,,,,,,,,,,,,,,,,,,,,NC_56,001,2022_May_05_1249,ProdSingRedo,3.2.3,59.98318069978884,
77,0,77,0,,,,,,,,,,,,,,,,,,,,,,,,,,,,1005.7789060999639,None,crisis,silent,blue,60,79,1003.7707624998875,None,None,1003.7707624998875,None,,,,,,,,,,,,,,,,,,,,,,,,,,,,,,,,,,NC_56,001,2022_May_05_1249,ProdSingRedo,3.2.3,59.98318069978884,
78,0,78,0,,,,,,,,,,,,,,,,,,,,,,,,,,,,1008.295523900073,None,raise,sing,red,2,250,1006.2930224000011,None,None,1006.2930224000011,None,,,,,,,,,,,,,,,,,,,,,,,,,,,,,,,,,,NC_56,001,2022_May_05_1249,ProdSingRedo,3.2.3,59.98318069978884,
79,0,79,0,,,,,,,,,,,,,,,,,,,,,,,,,,,,1010.8146156000439,None,account,sing,red,3,1,1008.8096167000476,None,None,1008.8096167000476,None,,,,,,,,,,,,,,,,,,,,,,,,,,,,,,,,,,NC_56,001,2022_May_05_1249,ProdSingRedo,3.2.3,59.98318069978884,
80,0,80,0,,,,,,,,,,,,,,,,,,,,,,,,,,,,1013.3283084998839,None,scale,aloud,yellow,41,272,1011.3239885999355,None,None,1011.3239885999355,None,,,,,,,,,,,,,,,,,,,,,,,,,,,,,,,,,,NC_56,001,2022_May_05_1249,ProdSingRedo,3.2.3,59.98318069978884,
81,0,81,0,,,,,,,,,,,,,,,,,,,,,,,,,,,,1015.8294482999481,None,south,sing,red,11,296,1013.8303030000534,None,None,1013.8303030000534,None,,,,,,,,,,,,,,,,,,,,,,,,,,,,,,,,,,NC_56,001,2022_May_05_1249,ProdSingRedo,3.2.3,59.98318069978884,
82,0,82,0,,,,,,,,,,,,,,,,,,,,,,,,,,,,1018.345427100081,None,watch,sing,red,22,351,1016.340817600023,None,None,1016.340817600023,None,,,,,,,,,,,,,,,,,,,,,,,,,,,,,,,,,,NC_56,001,2022_May_05_1249,ProdSingRedo,3.2.3,59.98318069978884,
83,0,83,0,,,,,,,,,,,,,,,,,,,,,,,,,,,,1020.863045200007,None,strength,silent,blue,88,310,1018.8624636000022,None,None,1018.8624636000022,None,,,,,,,,,,,,,,,,,,,,,,,,,,,,,,,,,,NC_56,001,2022_May_05_1249,ProdSingRedo,3.2.3,59.98318069978884,
84,0,84,0,,,,,,,,,,,,,,,,,,,,,,,,,,,,1023.3799181999639,None,citizen,silent,blue,72,50,1021.3752872999758,None,None,1021.3752872999758,None,,,,,,,,,,,,,,,,,,,,,,,,,,,,,,,,,,NC_56,001,2022_May_05_1249,ProdSingRedo,3.2.3,59.98318069978884,
85,0,85,0,,,,,,,,,,,,,,,,,,,,,,,,,,,,1025.8967122000176,None,oxygen,sing,red,20,209,1023.8951206000056,None,None,1023.8951206000056,None,,,,,,,,,,,,,,,,,,,,,,,,,,,,,,,,,,NC_56,001,2022_May_05_1249,ProdSingRedo,3.2.3,59.98318069978884,
86,0,86,0,,,,,,,,,,,,,,,,,,,,,,,,,,,,1028.4136069999076,None,member,aloud,yellow,38,188,1026.4026216999628,None,None,1026.4026216999628,None,,,,,,,,,,,,,,,,,,,,,,,,,,,,,,,,,,NC_56,001,2022_May_05_1249,ProdSingRedo,3.2.3,59.98318069978884,
87,0,87,0,,,,,,,,,,,,,,,,,,,,,,,,,,,,1030.9303836000618,None,country,aloud,yellow,30,73,1028.9307168999221,None,None,1028.9307168999221,None,,,,,,,,,,,,,,,,,,,,,,,,,,,,,,,,,,NC_56,001,2022_May_05_1249,ProdSingRedo,3.2.3,59.98318069978884,
88,0,88,0,,,,,,,,,,,,,,,,,,,,,,,,,,,,1033.4467549999245,None,committee,sing,red,27,62,1031.440291600069,None,None,1031.440291600069,None,,,,,,,,,,,,,,,,,,,,,,,,,,,,,,,,,,NC_56,001,2022_May_05_1249,ProdSingRedo,3.2.3,59.98318069978884,
89,0,89,0,,,,,,,,,,,,,,,,,,,,,,,,,,,,1035.947116700001,None,graduate,sing,red,28,141,1033.9463068998884,None,None,1033.9463068998884,None,,,,,,,,,,,,,,,,,,,,,,,,,,,,,,,,,,NC_56,001,2022_May_05_1249,ProdSingRedo,3.2.3,59.98318069978884,
,,,,,,,,,,,,,,,,,,,,,,,,,,,,,,,,,,,,,,,,,,,,1036.4474506999832,None,k,108.75729339988902,1036.4474506999832,None,,,,,,,,,,,,,,,,,,,,,,,,,,,NC_56,001,2022_May_05_1249,ProdSingRedo,3.2.3,59.98318069978884,
,,,,0,0,0,0,,,,,,,,,,,,,,,,,,,,,,,,1160.2993342999835,None,,,,,,,,,,,,,,,,,,solution,aloud,white,0,32,294,1145.7448531999253,None,1145.7448531999253,None,6,9.587760199792683,1145.7448531999253,None,1155.3756798999384,None,1155.9010216000024,None,1155.9010216000024,None,f,4.367567099863663,1155.9010216000024,None,,,NC_56,001,2022_May_05_1249,ProdSingRedo,3.2.3,59.98318069978884,
,,,,1,0,1,0,,,,,,,,,,,,,,,,,,,,,,,,1164.531149599934,None,,,,,,,,,,,,,,,,,,report,aloud,white,1,36,259,1160.820110599976,None,1160.820110599976,None,1,1.6964113998692483,1160.820110599976,None,1162.5479431999847,None,1163.0660190000199,None,1163.0660190000199,None,n,1.4346534998621792,1163.0660190000199,None,,,NC_56,001,2022_May_05_1249,ProdSingRedo,3.2.3,59.98318069978884,
,,,,2,0,2,0,,,,,,,,,,,,,,,,,,,,,,,,1170.2160958000459,None,,,,,,,,,,,,,,,,,,command,new_c,white,2,177,60,1165.0600876000244,None,1165.0600876000244,None,1,3.368262899806723,1165.0600876000244,None,1168.463020300027,None,1168.9754776998889,None,1168.9754776998889,None,n,1.2050789000932127,1168.9754776998889,None,,,NC_56,001,2022_May_05_1249,ProdSingRedo,3.2.3,59.98318069978884,
,,,,3,0,3,0,,,,,,,,,,,,,,,,,,,,,,,,1172.9178615000565,None,,,,,,,,,,,,,,,,,,pancakes,new_b,white,3,133,210,1170.746735200053,None,1170.746735200053,None,1,1.0742993000894785,1170.746735200053,None,1171.8668279000558,None,1172.3887161000166,None,1172.3887161000166,None,n,0.4959981001447886,1172.3887161000166,None,,,NC_56,001,2022_May_05_1249,ProdSingRedo,3.2.3,59.98318069978884,
,,,,4,0,4,0,,,,,,,,,,,,,,,,,,,,,,,,1178.5656023998745,None,,,,,,,,,,,,,,,,,,industry,aloud,white,4,53,161,1173.4471348999068,None,1173.4471348999068,None,6,2.725548200076446,1173.4471348999068,None,1176.2147131999955,None,1176.7395532999653,None,1176.7395532999653,None,r,1.8012194000184536,1176.7395532999653,None,,,NC_56,001,2022_May_05_1249,ProdSingRedo,3.2.3,59.98318069978884,
,,,,5,0,5,0,,,,,,,,,,,,,,,,,,,,,,,,1186.3328344998881,None,,,,,,,,,,,,,,,,,,community,aloud,white,5,56,63,1179.0936898000073,None,1179.0936898000073,None,5,2.5188590998295695,1179.0936898000073,None,1181.668723499868,None,1182.1853169999085,None,1182.1853169999085,None,f,4.115294300019741,1182.1853169999085,None,,,NC_56,001,2022_May_05_1249,ProdSingRedo,3.2.3,59.98318069978884,
,,,,6,0,6,0,,,,,,,,,,,,,,,,,,,,,,,,1192.9034631999675,None,,,,,,,,,,,,,,,,,,threat,new_a,white,6,96,329,1186.8610167999286,None,1186.8610167999286,None,1,3.6477254999335855,1186.8610167999286,None,1190.538396799937,None,1191.0582439000718,None,1191.0582439000718,None,n,1.8023934999946505,1191.0582439000718,None,,,NC_56,001,2022_May_05_1249,ProdSingRedo,3.2.3,59.98318069978884,
,,,,7,0,7,0,,,,,,,,,,,,,,,,,,,,,,,,1198.467570599867,None,,,,,,,,,,,,,,,,,,scene,silent,white,7,62,273,1193.4103017000016,None,1193.4103017000016,None,5,3.298430100083351,1193.4103017000016,None,1196.7398307998665,None,1197.2496760999784,None,1197.2496760999784,None,n,1.186960999853909,1197.2496760999784,None,,,NC_56,001,2022_May_05_1249,ProdSingRedo,3.2.3,59.98318069978884,
,,,,8,0,8,0,,,,,,,,,,,,,,,,,,,,,,,,1201.3529109000228,None,,,,,,,,,,,,,,,,,,route,sing,white,8,1,267,1198.9926803999115,None,1198.9926803999115,None,1,1.4199660997837782,1198.9926803999115,None,1200.4606107000727,None,1200.9850381000433,None,1200.9850381000433,None,n,0.3315079999156296,1200.9850381000433,None,,,NC_56,001,2022_May_05_1249,ProdSingRedo,3.2.3,59.98318069978884,
,,,,9,0,9,0,,,,,,,,,,,,,,,,,,,,,,,,1206.4678708999418,None,,,,,,,,,,,,,,,,,,property,aloud,white,9,40,242,1201.8758133000229,None,1201.8758133000229,None,6,2.969058800023049,1201.8758133000229,None,1204.8968926998787,None,1205.4200253000017,None,1205.4200253000017,None,f,1.0085432999767363,1205.4200253000017,None,,,NC_56,001,2022_May_05_1249,ProdSingRedo,3.2.3,59.98318069978884,
,,,,10,0,10,0,,,,,,,,,,,,,,,,,,,,,,,,1209.583569600014,None,,,,,,,,,,,,,,,,,,youth,new_a,white,10,116,359,1206.9970775998663,None,1206.9970775998663,None,1,1.5995520998258144,1206.9970775998663,None,1208.6464406999294,None,1209.1719982998911,None,1209.1719982998911,None,n,0.3767578999977559,1209.1719982998911,None,,,NC_56,001,2022_May_05_1249,ProdSingRedo,3.2.3,59.98318069978884,
,,,,11,0,11,0,,,,,,,,,,,,,,,,,,,,,,,,1213.0170757998712,None,,,,,,,,,,,,,,,,,,danger,aloud,white,11,58,85,1210.1142837998923,None,1210.1142837998923,None,2,1.9381180999334902,1210.1142837998923,None,1212.0952707000542,None,1212.6215866000857,None,1212.6215866000857,None,n,0.3589983000420034,1212.6215866000857,None,,,NC_56,001,2022_May_05_1249,ProdSingRedo,3.2.3,59.98318069978884,
,,,,12,0,12,0,,,,,,,,,,,,,,,,,,,,,,,,1216.1183062999044,None,,,,,,,,,,,,,,,,,,platform,new_a,white,12,119,224,1213.550898599904,None,1213.550898599904,None,2,1.6937788999639452,1213.550898599904,None,1215.3034504000098,None,1215.823950999882,None,1215.823950999882,None,n,0.26074870000593364,1215.823950999882,None,,,NC_56,001,2022_May_05_1249,ProdSingRedo,3.2.3,59.98318069978884,
,,,,13,0,13,0,,,,,,,,,,,,,,,,,,,,,,,,1221.2185438000597,None,,,,,,,,,,,,,,,,,,foundation,sing,white,13,9,132,1216.6502711998764,None,1216.6502711998764,None,6,2.2663690000772476,1216.6502711998764,None,1218.9677305999212,None,1219.4900261999574,None,1219.4900261999574,None,r,1.6984848999418318,1219.4900261999574,None,,,NC_56,001,2022_May_05_1249,ProdSingRedo,3.2.3,59.98318069978884,
,,,,14,0,14,0,,,,,,,,,,,,,,,,,,,,,,,,1226.0439370998647,None,,,,,,,,,,,,,,,,,,citizen,silent,white,14,72,50,1221.7465544000734,None,1221.7465544000734,None,3,2.1857589001301676,1221.7465544000734,None,1223.9608301999979,None,1224.4734634000342,None,1224.4734634000342,None,n,1.5230922000482678,1224.4734634000342,None,,,NC_56,001,2022_May_05_1249,ProdSingRedo,3.2.3,59.98318069978884,
,,,,15,0,15,0,,,,,,,,,,,,,,,,,,,,,,,,1230.5027727000415,None,,,,,,,,,,,,,,,,,,weight,sing,white,15,29,353,1226.5580048998818,None,1226.5580048998818,None,5,2.326522800140083,1226.5580048998818,None,1228.9370387999807,None,1229.4551629999187,None,1229.4551629999187,None,f,1.0215117998886853,1229.4551629999187,None,,,NC_56,001,2022_May_05_1249,ProdSingRedo,3.2.3,59.98318069978884,
,,,,16,0,16,0,,,,,,,,,,,,,,,,,,,,,,,,1233.8031303999014,None,,,,,,,,,,,,,,,,,,personnel,new_b,white,16,139,219,1231.0246375999413,None,1231.0246375999413,None,1,1.7079217999707907,1231.0246375999413,None,1232.7812455000822,None,1233.3013603000436,None,1233.3013603000436,None,n,0.46329589979723096,1233.3013603000436,None,,,NC_56,001,2022_May_05_1249,ProdSingRedo,3.2.3,59.98318069978884,
,,,,17,0,17,0,,,,,,,,,,,,,,,,,,,,,,,,1237.8199660000391,None,,,,,,,,,,,,,,,,,,production,new_a,white,17,112,240,1234.3299869999755,None,1234.3299869999755,None,6,1.7955201999284327,1234.3299869999755,None,1236.1627567000687,None,1236.693589600036,None,1236.693589600036,None,r,1.0948614999651909,1236.693589600036,None,,,NC_56,001,2022_May_05_1249,ProdSingRedo,3.2.3,59.98318069978884,
,,,,18,0,18,0,,,,,,,,,,,,,,,,,,,,,,,,1240.3691628999077,None,,,,,,,,,,,,,,,,,,rough,new_b,white,18,143,266,1238.3437168998644,None,1238.3437168998644,None,1,0.9409024000633508,1238.3437168998644,None,1239.3328688000329,None,1239.8549991999753,None,1239.8549991999753,None,n,0.4776195001322776,1239.8549991999753,None,,,NC_56,001,2022_May_05_1249,ProdSingRedo,3.2.3,59.98318069978884,
,,,,19,0,19,0,,,,,,,,,,,,,,,,,,,,,,,,1243.3034326999914,None,,,,,,,,,,,,,,,,,,touch,new_a,white,19,101,332,1240.8933796000201,None,1240.8933796000201,None,1,1.4315665001049638,1240.8933796000201,None,1242.3708607999142,None,1242.8897883999161,None,1242.8897883999161,None,n,0.3869113998953253,1242.8897883999161,None,,,NC_56,001,2022_May_05_1249,ProdSingRedo,3.2.3,59.98318069978884,
,,,,20,0,20,0,,,,,,,,,,,,,,,,,,,,,,,,1247.607678399887,None,,,,,,,,,,,,,,,,,,problem,new_a,white,20,113,238,1243.8292549999896,None,1243.8292549999896,None,4,2.0233065001666546,1243.8292549999896,None,1245.8882635000627,None,1246.4108742000535,None,1246.4108742000535,None,f,1.161727299913764,1246.4108742000535,None,,,NC_56,001,2022_May_05_1249,ProdSingRedo,3.2.3,59.98318069978884,
,,,,21,0,21,0,,,,,,,,,,,,,,,,,,,,,,,,1250.4542857999913,None,,,,,,,,,,,,,,,,,,appearance,silent,white,21,71,10,1248.1325548000168,None,1248.1325548000168,None,1,1.4320119000039995,1248.1325548000168,None,1249.624990399927,None,1250.1513727998827,None,1250.1513727998827,None,n,0.2773456999566406,1250.1513727998827,None,,,NC_56,001,2022_May_05_1249,ProdSingRedo,3.2.3,59.98318069978884,
,,,,22,0,22,0,,,,,,,,,,,,,,,,,,,,,,,,1253.7118239998817,None,,,,,,,,,,,,,,,,,,order,sing,white,22,0,207,1250.973807600094,None,1250.973807600094,None,4,1.8787205999251455,1250.973807600094,None,1252.901195900049,None,1253.4108126999345,None,1253.4108126999345,None,n,0.2734551001340151,1253.4108126999345,None,,,NC_56,001,2022_May_05_1249,ProdSingRedo,3.2.3,59.98318069978884,
,,,,23,0,23,0,,,,,,,,,,,,,,,,,,,,,,,,1258.5707954000682,None,,,,,,,,,,,,,,,,,,scale,aloud,white,23,41,272,1254.214658800047,None,1254.214658800047,None,4,1.741967299953103,1254.214658800047,None,1256.0033450999763,None,1256.5214388999157,None,1256.5214388999157,None,n,2.019168799975887,1256.5214388999157,None,,,NC_56,001,2022_May_05_1249,ProdSingRedo,3.2.3,59.98318069978884,
,,,,24,0,24,0,,,,,,,,,,,,,,,,,,,,,,,,1261.8713024000172,None,,,,,,,,,,,,,,,,,,childhood,new_a,white,24,108,49,1259.0955532998778,None,1259.0955532998778,None,1,1.885085399961099,1259.0955532998778,None,1261.0177732000593,None,1261.536741900025,None,1261.536741900025,None,n,0.3080134999472648,1261.536741900025,None,,,NC_56,001,2022_May_05_1249,ProdSingRedo,3.2.3,59.98318069978884,
,,,,25,0,25,0,,,,,,,,,,,,,,,,,,,,,,,,1264.2307374000084,None,,,,,,,,,,,,,,,,,,course,new_c,white,25,164,74,1262.3976042000577,None,1262.3976042000577,None,1,0.9749418999999762,1262.3976042000577,None,1263.420354800066,None,1263.9411116999108,None,1263.9411116999108,None,n,0.2713608001358807,1263.9411116999108,None,,,NC_56,001,2022_May_05_1249,ProdSingRedo,3.2.3,59.98318069978884,
,,,,26,0,26,0,,,,,,,,,,,,,,,,,,,,,,,,1268.0217571998946,None,,,,,,,,,,,,,,,,,,close,new_b,white,26,145,53,1264.7567203000654,None,1264.7567203000654,None,3,1.9358806998934597,1264.7567203000654,None,1266.7334050999489,None,1267.2518396999221,None,1267.2518396999221,None,n,0.7449799999594688,1267.2518396999221,None,,,NC_56,001,2022_May_05_1249,ProdSingRedo,3.2.3,59.98318069978884,
,,,,27,0,27,0,,,,,,,,,,,,,,,,,,,,,,,,1271.672360900091,None,,,,,,,,,,,,,,,,,,portion,aloud,white,27,39,228,1268.5316306999885,None,1268.5316306999885,None,5,1.7132039000280201,1268.5316306999885,None,1270.2858831000049,None,1270.803251999896,None,1270.803251999896,None,f,0.8332460999954492,1270.803251999896,None,,,NC_56,001,2022_May_05_1249,ProdSingRedo,3.2.3,59.98318069978884,
,,,,28,0,28,0,,,,,,,,,,,,,,,,,,,,,,,,1274.3059086999856,None,,,,,,,,,,,,,,,,,,stand,new_c,white,28,174,302,1272.1961383000016,None,1272.1961383000016,None,2,1.2884539000224322,1272.1961383000016,None,1273.5337227999698,None,1274.0582681999076,None,1274.0582681999076,None,n,0.21038689999841154,1274.0582681999076,None,,,NC_56,001,2022_May_05_1249,ProdSingRedo,3.2.3,59.98318069978884,
,,,,29,0,29,0,,,,,,,,,,,,,,,,,,,,,,,,1280.1890946000349,None,,,,,,,,,,,,,,,,,,guest,new_c,white,29,155,146,1274.8312667000573,None,1274.8312667000573,None,3,1.8933337000198662,1274.8312667000573,None,1276.7693254998885,None,1277.289551399881,None,1277.289551399881,None,n,2.867096000118181,1277.289551399881,None,,,NC_56,001,2022_May_05_1249,ProdSingRedo,3.2.3,59.98318069978884,
,,,,30,0,30,0,,,,,,,,,,,,,,,,,,,,,,,,1284.2128208999056,None,,,,,,,,,,,,,,,,,,expansion,sing,white,30,12,123,1280.7171638999134,None,1280.7171638999134,None,6,1.9034336998593062,1280.7171638999134,None,1282.6644107000902,None,1283.180907699978,None,1283.180907699978,None,f,1.0153695000335574,1283.180907699978,None,,,NC_56,001,2022_May_05_1249,ProdSingRedo,3.2.3,59.98318069978884,
,,,,31,0,31,0,,,,,,,,,,,,,,,,,,,,,,,,1287.9241390000097,None,,,,,,,,,,,,,,,,,,society,new_a,white,31,93,293,1284.7322033999953,None,1284.7322033999953,None,6,1.6804552001412958,1284.7322033999953,None,1286.4524002999533,None,1286.976027699886,None,1286.976027699886,None,f,0.916707499884069,1286.976027699886,None,,,NC_56,001,2022_May_05_1249,ProdSingRedo,3.2.3,59.98318069978884,
,,,,32,0,32,0,,,,,,,,,,,,,,,,,,,,,,,,1292.98974479991,None,,,,,,,,,,,,,,,,,,quiet,new_c,white,32,168,249,1288.4522124999203,None,1288.4522124999203,None,2,2.128450799966231,1288.4522124999203,None,1290.6214475000743,None,1291.1412607000675,None,1291.1412607000675,None,n,1.8233727000188082,1291.1412607000675,None,,,NC_56,001,2022_May_05_1249,ProdSingRedo,3.2.3,59.98318069978884,
,,,,33,0,33,0,,,,,,,,,,,,,,,,,,,,,,,,1296.8070241999812,None,,,,,,,,,,,,,,,,,,short,new_c,white,33,170,285,1293.5115135000087,None,1293.5115135000087,None,3,1.7729154999833554,1293.5115135000087,None,1295.3313674998935,None,1295.8329056999646,None,1295.8329056999646,None,n,0.94778270018287,1295.8329056999646,None,,,NC_56,001,2022_May_05_1249,ProdSingRedo,3.2.3,59.98318069978884,
,,,,34,0,34,0,,,,,,,,,,,,,,,,,,,,,,,,1301.056390499929,None,,,,,,,,,,,,,,,,,,center,silent,white,34,68,44,1297.3303014999256,None,1297.3303014999256,None,3,2.8102744000498205,1297.3303014999256,None,1300.184448899934,None,1300.7074631999712,None,1300.7074631999712,None,n,0.31309449998661876,1300.7074631999712,None,,,NC_56,001,2022_May_05_1249,ProdSingRedo,3.2.3,59.98318069978884,
,,,,35,0,35,0,,,,,,,,,,,,,,,,,,,,,,,,1304.1074156998657,None,,,,,,,,,,,,,,,,,,mayor,silent,white,35,67,183,1301.583481400041,None,1301.583481400041,None,1,1.5730566999409348,1301.583481400041,None,1303.2062426998746,None,1303.7304783998989,None,1303.7304783998989,None,n,0.34620380005799234,1303.7304783998989,None,,,NC_56,001,2022_May_05_1249,ProdSingRedo,3.2.3,59.98318069978884,
,,,,36,0,36,0,,,,,,,,,,,,,,,,,,,,,,,,1306.873750800034,None,,,,,,,,,,,,,,,,,,escape,new_a,white,36,115,118,1304.6424557999708,None,1304.6424557999708,None,2,1.410226799780503,1304.6424557999708,None,1306.1055574000347,None,1306.624246600084,None,1306.624246600084,None,n,0.21243189997039735,1306.624246600084,None,,,NC_56,001,2022_May_05_1249,ProdSingRedo,3.2.3,59.98318069978884,
,,,,37,0,37,0,,,,,,,,,,,,,,,,,,,,,,,,1311.5588364999276,None,,,,,,,,,,,,,,,,,,general,new_b,white,37,120,135,1307.4018802999053,None,1307.4018802999053,None,4,1.5067806001752615,1307.4018802999053,None,1308.9665494998917,None,1309.4757661998738,None,1309.4757661998738,None,f,2.0488581999670714,1309.4757661998738,None,,,NC_56,001,2022_May_05_1249,ProdSingRedo,3.2.3,59.98318069978884,
,,,,38,0,38,0,,,,,,,,,,,,,,,,,,,,,,,,1315.6930370999034,None,,,,,,,,,,,,,,,,,,finance,new_a,white,38,117,129,1312.0833117000293,None,1312.0833117000293,None,6,2.0811318000778556,1312.0833117000293,None,1314.1901002000086,None,1314.7222976998892,None,1314.7222976998892,None,f,0.9385240999981761,1314.7222976998892,None,,,NC_56,001,2022_May_05_1249,ProdSingRedo,3.2.3,59.98318069978884,
,,,,39,0,39,0,,,,,,,,,,,,,,,,,,,,,,,,1319.5919810000341,None,,,,,,,,,,,,,,,,,,science,aloud,white,39,55,275,1316.2197161000222,None,1316.2197161000222,None,4,2.353116299957037,1316.2197161000222,None,1318.6191849999595,None,1319.132081599906,None,1319.132081599906,None,n,0.4327388999518007,1319.132081599906,None,,,NC_56,001,2022_May_05_1249,ProdSingRedo,3.2.3,59.98318069978884,
,,,,40,0,40,0,,,,,,,,,,,,,,,,,,,,,,,,1326.084877599962,None,,,,,,,,,,,,,,,,,,material,aloud,white,40,35,182,1320.1205327999778,None,1320.1205327999778,None,6,1.6362461000680923,1320.1205327999778,None,1321.8060031998903,None,1322.3319151999895,None,1322.3319151999895,None,r,3.72074000001885,1322.3319151999895,None,,,NC_56,001,2022_May_05_1249,ProdSingRedo,3.2.3,59.98318069978884,
,,,,41,0,41,0,,,,,,,,,,,,,,,,,,,,,,,,1329.4916167000774,None,,,,,,,,,,,,,,,,,,impact,new_c,white,41,163,157,1326.6176718000788,None,1326.6176718000788,None,3,1.5472395999822766,1326.6176718000788,None,1328.2044458999299,None,1328.7299643999431,None,1328.7299643999431,None,n,0.7227420001290739,1328.7299643999431,None,,,NC_56,001,2022_May_05_1249,ProdSingRedo,3.2.3,59.98318069978884,
,,,,42,0,42,0,,,,,,,,,,,,,,,,,,,,,,,,1333.7273142000195,None,,,,,,,,,,,,,,,,,,research,new_a,white,42,102,261,1330.0189543999732,None,1330.0189543999732,None,6,2.3936948000919074,1330.0189543999732,None,1332.4553948999383,None,1332.9819046999328,None,1332.9819046999328,None,f,0.7105578000191599,1332.9819046999328,None,,,NC_56,001,2022_May_05_1249,ProdSingRedo,3.2.3,59.98318069978884,
,,,,43,0,43,0,,,,,,,,,,,,,,,,,,,,,,,,1337.52634579991,None,,,,,,,,,,,,,,,,,,corner,new_c,white,43,178,69,1334.2486362000927,None,1334.2486362000927,None,1,1.507945700082928,1334.2486362000927,None,1335.803810399957,None,1336.324170799926,None,1336.324170799926,None,n,1.1683225000742823,1336.324170799926,None,,,NC_56,001,2022_May_05_1249,ProdSingRedo,3.2.3,59.98318069978884,
,,,,44,0,44,0,,,,,,,,,,,,,,,,,,,,,,,,1341.310657700058,None,,,,,,,,,,,,,,,,,,dispute,new_c,white,44,160,99,1338.0527053000405,None,1338.0527053000405,None,1,2.415656300028786,1338.0527053000405,None,1340.4955529998988,None,1341.0117599000223,None,1341.0117599000223,None,n,0.26492190011776984,1341.0117599000223,None,,,NC_56,001,2022_May_05_1249,ProdSingRedo,3.2.3,59.98318069978884,
,,,,45,0,45,0,,,,,,,,,,,,,,,,,,,,,,,,1344.6181373998988,None,,,,,,,,,,,,,,,,,,sound,new_a,white,45,107,295,1341.8355058000889,None,1341.8355058000889,None,5,1.8326555998064578,1341.8355058000889,None,1343.6895208000205,None,1344.1999746998772,None,1344.1999746998772,None,f,0.3805547999218106,1344.1999746998772,None,,,NC_56,001,2022_May_05_1249,ProdSingRedo,3.2.3,59.98318069978884,
,,,,46,0,46,0,,,,,,,,,,,,,,,,,,,,,,,,1349.7603539999109,None,,,,,,,,,,,,,,,,,,color,new_b,white,46,132,56,1345.1369914000388,None,1345.1369914000388,None,2,2.7395477001555264,1345.1369914000388,None,1347.9287376999855,None,1348.4435356999747,None,1348.4435356999747,None,f,1.289393600076437,1348.4435356999747,None,,,NC_56,001,2022_May_05_1249,ProdSingRedo,3.2.3,59.98318069978884,
,,,,47,0,47,0,,,,,,,,,,,,,,,,,,,,,,,,1354.413873200072,None,,,,,,,,,,,,,,,,,,revolution,silent,white,47,64,264,1350.3014823999256,None,1350.3014823999256,None,6,2.647388700162992,1350.3014823999256,None,1352.995686699869,None,1353.5151621999685,None,1353.5151621999685,None,f,0.8574544999282807,1353.5151621999685,None,,,NC_56,001,2022_May_05_1249,ProdSingRedo,3.2.3,59.98318069978884,
,,,,48,0,48,0,,,,,,,,,,,,,,,,,,,,,,,,1360.244632099988,None,,,,,,,,,,,,,,,,,,notice,sing,white,48,10,201,1354.9353753000032,None,1354.9353753000032,None,5,3.909146700054407,1354.9353753000032,None,1358.8848891998641,None,1359.3988318999764,None,1359.3988318999764,None,f,0.8137263001408428,1359.3988318999764,None,,,NC_56,001,2022_May_05_1249,ProdSingRedo,3.2.3,59.98318069978884,
,,,,49,0,49,0,,,,,,,,,,,,,,,,,,,,,,,,1363.9284129999578,None,,,,,,,,,,,,,,,,,,block,new_b,white,49,138,25,1360.7694037000183,None,1360.7694037000183,None,1,2.3390518000815064,1360.7694037000183,None,1363.159484700067,None,1363.6800937000662,None,1363.6800937000662,None,n,0.22122630011290312,1363.6800937000662,None,,,NC_56,001,2022_May_05_1249,ProdSingRedo,3.2.3,59.98318069978884,
,,,,50,0,50,0,,,,,,,,,,,,,,,,,,,,,,,,1367.46276949998,None,,,,,,,,,,,,,,,,,,speech,silent,white,50,85,298,1364.4496430999134,None,1364.4496430999134,None,6,1.6512273999396712,1364.4496430999134,None,1366.1399244999047,None,1366.6585408998653,None,1366.6585408998653,None,f,0.7701749999541789,1366.6585408998653,None,,,NC_56,001,2022_May_05_1249,ProdSingRedo,3.2.3,59.98318069978884,
,,,,51,0,51,0,,,,,,,,,,,,,,,,,,,,,,,,1371.1961091998965,None,,,,,,,,,,,,,,,,,,theme,silent,white,51,78,326,1367.9836126000155,None,1367.9836126000155,None,5,2.188868199940771,1367.9836126000155,None,1370.2246709999163,None,1370.7420238999184,None,1370.7420238999184,None,f,0.42272210004739463,1370.7420238999184,None,,,NC_56,001,2022_May_05_1249,ProdSingRedo,3.2.3,59.98318069978884,
,,,,52,0,52,0,,,,,,,,,,,,,,,,,,,,,,,,1374.5712902999949,None,,,,,,,,,,,,,,,,,,suspect,silent,white,52,82,318,1371.724320099922,None,1371.724320099922,None,3,1.719840999925509,1371.724320099922,None,1373.4762629999314,None,1373.985248300014,None,1373.985248300014,None,n,0.5550609000492841,1373.985248300014,None,,,NC_56,001,2022_May_05_1249,ProdSingRedo,3.2.3,59.98318069978884,
,,,,53,0,53,0,,,,,,,,,,,,,,,,,,,,,,,,1377.3791956000496,None,,,,,,,,,,,,,,,,,,symbol,new_c,white,53,167,321,1375.0890691999812,None,1375.0890691999812,None,1,1.4036145999561995,1375.0890691999812,None,1376.5480146000627,None,1377.0646067000926,None,1377.0646067000926,None,n,0.2841050000861287,1377.0646067000926,None,,,NC_56,001,2022_May_05_1249,ProdSingRedo,3.2.3,59.98318069978884,
,,,,54,0,54,0,,,,,,,,,,,,,,,,,,,,,,,,1383.5596620000433,None,,,,,,,,,,,,,,,,,,entrance,new_b,white,54,136,115,1377.9028529000934,None,1377.9028529000934,None,4,4.173669500043616,1377.9028529000934,None,1382.1276223999448,None,1382.6498265999835,None,1382.6498265999835,None,f,0.882382299983874,1382.6498265999835,None,,,NC_56,001,2022_May_05_1249,ProdSingRedo,3.2.3,59.98318069978884,
,,,,55,0,55,0,,,,,,,,,,,,,,,,,,,,,,,,1388.4956417998765,None,,,,,,,,,,,,,,,,,,music,aloud,white,55,45,196,1384.0854785998818,None,1384.0854785998818,None,6,2.255044899880886,1384.0854785998818,None,1386.3930408000015,None,1386.916546399938,None,1386.916546399938,None,f,1.5440956999082118,1386.916546399938,None,,,NC_56,001,2022_May_05_1249,ProdSingRedo,3.2.3,59.98318069978884,
,,,,56,0,56,0,,,,,,,,,,,,,,,,,,,,,,,,1392.5839613000862,None,,,,,,,,,,,,,,,,,,waste,sing,white,56,25,350,1389.021257400047,None,1389.021257400047,None,4,1.9351724998559803,1389.021257400047,None,1391.0009611998685,None,1391.5157129000872,None,1391.5157129000872,None,f,1.0329011001158506,1391.5157129000872,None,,,NC_56,001,2022_May_05_1249,ProdSingRedo,3.2.3,59.98318069978884,
,,,,57,0,57,0,,,,,,,,,,,,,,,,,,,,,,,,1397.7309904000722,None,,,,,,,,,,,,,,,,,,graduate,sing,white,57,28,141,1393.1145238999743,None,1393.1145238999743,None,6,2.2420098001603037,1393.1145238999743,None,1395.4155359000433,None,1395.9342803999316,None,1395.9342803999316,None,r,1.7583586999680847,1395.9342803999316,None,,,NC_56,001,2022_May_05_1249,ProdSingRedo,3.2.3,59.98318069978884,
,,,,58,0,58,0,,,,,,,,,,,,,,,,,,,,,,,,1404.0542434998788,None,,,,,,,,,,,,,,,,,,native,aloud,white,58,48,199,1398.2585759998765,None,1398.2585759998765,None,6,2.8019347998779267,1398.2585759998765,None,1401.1163105000742,None,1401.6348266999703,None,1401.6348266999703,None,r,2.4015500000678003,1401.6348266999703,None,,,NC_56,001,2022_May_05_1249,ProdSingRedo,3.2.3,59.98318069978884,
,,,,59,0,59,0,,,,,,,,,,,,,,,,,,,,,,,,1407.636647199979,None,,,,,,,,,,,,,,,,,,substance,sing,white,59,6,313,1404.575462100096,None,1404.575462100096,None,3,2.0770248000044376,1404.575462100096,None,1406.697980799945,None,1407.2238453000318,None,1407.2238453000318,None,n,0.38066740008071065,1407.2238453000318,None,,,NC_56,001,2022_May_05_1249,ProdSingRedo,3.2.3,59.98318069978884,
,,,,60,0,60,0,,,,,,,,,,,,,,,,,,,,,,,,1410.951043299865,None,,,,,,,,,,,,,,,,,,engineer,new_b,white,60,122,114,1408.1685069000814,None,1408.1685069000814,None,1,1.9480634001083672,1408.1685069000814,None,1410.1580666000955,None,1410.688489299966,None,1410.688489299966,None,n,0.22785929986275733,1410.688489299966,None,,,NC_56,001,2022_May_05_1249,ProdSingRedo,3.2.3,59.98318069978884,
,,,,61,0,61,0,,,,,,,,,,,,,,,,,,,,,,,,1413.6095914999023,None,,,,,,,,,,,,,,,,,,south,sing,white,61,11,296,1411.4715847999323,None,1411.4715847999323,None,1,1.2129520000889897,1411.4715847999323,None,1412.7299442000221,None,1413.251559099881,None,1413.251559099881,None,n,0.33695070003159344,1413.251559099881,None,,,NC_56,001,2022_May_05_1249,ProdSingRedo,3.2.3,59.98318069978884,
,,,,62,0,62,0,,,,,,,,,,,,,,,,,,,,,,,,1418.099397999933,None,,,,,,,,,,,,,,,,,,empty,new_c,white,62,151,112,1414.1241468000226,None,1414.1241468000226,None,5,2.7844634999055415,1414.1241468000226,None,1416.9693745998666,None,1417.4822589000687,None,1417.4822589000687,None,f,0.5861563000362366,1417.4822589000687,None,,,NC_56,001,2022_May_05_1249,ProdSingRedo,3.2.3,59.98318069978884,
,,,,63,0,63,0,,,,,,,,,,,,,,,,,,,,,,,,1421.998544299975,None,,,,,,,,,,,,,,,,,,master,new_b,white,63,149,180,1418.6254161999095,None,1418.6254161999095,None,1,2.3711202999111265,1418.6254161999095,None,1421.0437103998847,None,1421.567912099883,None,1421.567912099883,None,n,0.4048423001077026,1421.567912099883,None,,,NC_56,001,2022_May_05_1249,ProdSingRedo,3.2.3,59.98318069978884,
,,,,64,0,64,0,,,,,,,,,,,,,,,,,,,,,,,,1424.884405599907,None,,,,,,,,,,,,,,,,,,design,new_b,white,64,148,91,1422.5280383999925,None,1422.5280383999925,None,1,1.3964909999631345,1422.5280383999925,None,1423.9588657000568,None,1424.4848420999479,None,1424.4848420999479,None,n,0.36765200016088784,1424.4848420999479,None,,,NC_56,001,2022_May_05_1249,ProdSingRedo,3.2.3,59.98318069978884,
,,,,65,0,65,0,,,,,,,,,,,,,,,,,,,,,,,,1427.4155673000496,None,,,,,,,,,,,,,,,,,,point,new_a,white,65,95,226,1425.4130764999427,None,1425.4130764999427,None,1,1.1993559000547975,1425.4130764999427,None,1426.655502300011,None,1427.165693399962,None,1427.165693399962,None,n,0.2148560001514852,1427.165693399962,None,,,NC_56,001,2022_May_05_1249,ProdSingRedo,3.2.3,59.98318069978884,
,,,,66,0,66,0,,,,,,,,,,,,,,,,,,,,,,,,1431.9252820999827,None,,,,,,,,,,,,,,,,,,strain,silent,white,66,86,308,1427.9408165998757,None,1427.9408165998757,None,3,2.991673299809918,1427.9408165998757,None,1430.9834723998792,None,1431.5026026000269,None,1431.5026026000269,None,n,0.40578539995476604,1431.5026026000269,None,,,NC_56,001,2022_May_05_1249,ProdSingRedo,3.2.3,59.98318069978884,
,,,,67,0,67,0,,,,,,,,,,,,,,,,,,,,,,,,1435.7659606998786,None,,,,,,,,,,,,,,,,,,produce,sing,white,67,7,239,1432.443249200005,None,1432.443249200005,None,6,1.937491600168869,1432.443249200005,None,1434.426567999879,None,1434.9521862000693,None,1434.9521862000693,None,f,0.780344600090757,1434.9521862000693,None,,,NC_56,001,2022_May_05_1249,ProdSingRedo,3.2.3,59.98318069978884,
,,,,68,0,68,0,,,,,,,,,,,,,,,,,,,,,,,,1439.51210250007,None,,,,,,,,,,,,,,,,,,public,silent,white,68,79,244,1436.2888909000903,None,1436.2888909000903,None,4,1.9235709998756647,1436.2888909000903,None,1438.2524997999426,None,1438.7700892998837,None,1438.7700892998837,None,n,0.6983495000749826,1438.7700892998837,None,,,NC_56,001,2022_May_05_1249,ProdSingRedo,3.2.3,59.98318069978884,
,,,,69,0,69,0,,,,,,,,,,,,,,,,,,,,,,,,1443.9000846000854,None,,,,,,,,,,,,,,,,,,cross,silent,white,69,61,80,1440.037080500042,None,1440.037080500042,None,4,2.4552835999056697,1440.037080500042,None,1442.5245091000106,None,1443.033343899995,None,1443.033343899995,None,f,0.8270817000884563,1443.033343899995,None,,,NC_56,001,2022_May_05_1249,ProdSingRedo,3.2.3,59.98318069978884,
,,,,70,0,70,0,,,,,,,,,,,,,,,,,,,,,,,,1448.5546555998735,None,,,,,,,,,,,,,,,,,,shape,new_c,white,70,162,282,1444.4257030000445,None,1444.4257030000445,None,2,2.106833300087601,1444.4257030000445,None,1446.5836054000538,None,1447.1021630999167,None,1447.1021630999167,None,f,1.414483099943027,1447.1021630999167,None,,,NC_56,001,2022_May_05_1249,ProdSingRedo,3.2.3,59.98318069978884,
,,,,71,0,71,0,,,,,,,,,,,,,,,,,,,,,,,,1451.2539051999338,None,,,,,,,,,,,,,,,,,,testimony,new_c,white,71,171,325,1449.0771218000446,None,1449.0771218000446,None,1,1.1271146000362933,1449.0771218000446,None,1450.2362633999437,None,1450.7533944998868,None,1450.7533944998868,None,n,0.4671388999558985,1450.7533944998868,None,,,NC_56,001,2022_May_05_1249,ProdSingRedo,3.2.3,59.98318069978884,
,,,,72,0,72,0,,,,,,,,,,,,,,,,,,,,,,,,1453.833197500091,None,,,,,,,,,,,,,,,,,,concern,new_c,white,72,150,65,1451.7794864999596,None,1451.7794864999596,None,1,1.264998400118202,1451.7794864999596,None,1453.0939714999404,None,1453.614271899918,None,1453.614271899918,None,n,0.18229239992797375,1453.614271899918,None,,,NC_56,001,2022_May_05_1249,ProdSingRedo,3.2.3,59.98318069978884,
,,,,73,0,73,0,,,,,,,,,,,,,,,,,,,,,,,,1457.4354806998745,None,,,,,,,,,,,,,,,,,,private,new_b,white,73,127,237,1454.3600206000265,None,1454.3600206000265,None,4,1.6444405000656843,1454.3600206000265,None,1456.0527957999147,None,1456.571239199955,None,1456.571239199955,None,n,0.8332033001352102,1456.571239199955,None,,,NC_56,001,2022_May_05_1249,ProdSingRedo,3.2.3,59.98318069978884,
,,,,74,0,74,0,,,,,,,,,,,,,,,,,,,,,,,,1461.4337359999772,None,,,,,,,,,,,,,,,,,,comfort,new_c,white,74,157,59,1457.9628663999029,None,1457.9628663999029,None,5,2.225705600110814,1457.9628663999029,None,1460.2284102998674,None,1460.7539512000512,None,1460.7539512000512,None,f,0.6426182999275625,1460.7539512000512,None,,,NC_56,001,2022_May_05_1249,ProdSingRedo,3.2.3,59.98318069978884,
,,,,75,0,75,0,,,,,,,,,,,,,,,,,,,,,,,,1465.5719763000961,None,,,,,,,,,,,,,,,,,,debate,sing,white,75,17,87,1461.9619835000485,None,1461.9619835000485,None,6,2.395337700145319,1461.9619835000485,None,1464.3972100999672,None,1464.9234338998795,None,1464.9234338998795,None,f,0.6090257000178099,1464.9234338998795,None,,,NC_56,001,2022_May_05_1249,ProdSingRedo,3.2.3,59.98318069978884,
,,,,76,0,76,0,,,,,,,,,,,,,,,,,,,,,,,,1469.2088812999427,None,,,,,,,,,,,,,,,,,,session,new_a,white,76,94,281,1466.0931672998704,None,1466.0931672998704,None,2,1.3753641999792308,1466.0931672998704,None,1467.5113931999076,None,1468.026032099966,None,1468.026032099966,None,n,1.1541954998392612,1468.026032099966,None,,,NC_56,001,2022_May_05_1249,ProdSingRedo,3.2.3,59.98318069978884,
,,,,77,0,77,0,,,,,,,,,,,,,,,,,,,,,,,,1471.5020522999112,None,,,,,,,,,,,,,,,,,,swift,new_a,white,77,99,320,1469.7110848000739,None,1469.7110848000739,None,1,1.0213875998742878,1469.7110848000739,None,1470.7837618999183,None,1471.3057836000808,None,1471.3057836000808,None,n,0.1627237000502646,1471.3057836000808,None,,,NC_56,001,2022_May_05_1249,ProdSingRedo,3.2.3,59.98318069978884,
,,,,78,0,78,0,,,,,,,,,,,,,,,,,,,,,,,,1474.270110100042,None,,,,,,,,,,,,,,,,,,author,silent,white,78,80,15,1472.0275264999364,None,1472.0275264999364,None,1,1.45693330001086,1472.0275264999364,None,1473.532010700088,None,1474.0513885999098,None,1474.0513885999098,None,n,0.1931177000515163,1474.0513885999098,None,,,NC_56,001,2022_May_05_1249,ProdSingRedo,3.2.3,59.98318069978884,
,,,,79,0,79,0,,,,,,,,,,,,,,,,,,,,,,,,1476.719083599979,None,,,,,,,,,,,,,,,,,,meeting,new_c,white,79,169,187,1474.7935035000555,None,1474.7935035000555,None,1,0.8909857999533415,1474.7935035000555,None,1475.7315449998714,None,1476.2541439998895,None,1476.2541439998895,None,n,0.43028110009618104,1476.2541439998895,None,,,NC_56,001,2022_May_05_1249,ProdSingRedo,3.2.3,59.98318069978884,
,,,,80,0,80,0,,,,,,,,,,,,,,,,,,,,,,,,1479.0860232999548,None,,,,,,,,,,,,,,,,,,minor,new_b,white,80,140,191,1477.2436867998913,None,1477.2436867998913,None,1,1.0568379000760615,1477.2436867998913,None,1478.3432467000093,None,1478.8530397000723,None,1478.8530397000723,None,n,0.19964449992403388,1478.8530397000723,None,,,NC_56,001,2022_May_05_1249,ProdSingRedo,3.2.3,59.98318069978884,
,,,,81,0,81,0,,,,,,,,,,,,,,,,,,,,,,,,1483.3202905000653,None,,,,,,,,,,,,,,,,,,department,aloud,white,81,52,90,1479.6107427999377,None,1479.6107427999377,None,5,2.2417697000782937,1479.6107427999377,None,1481.9102258000057,None,1482.4240830999333,None,1482.4240830999333,None,f,0.8686406000051647,1482.4240830999333,None,,,NC_56,001,2022_May_05_1249,ProdSingRedo,3.2.3,59.98318069978884,
,,,,82,0,82,0,,,,,,,,,,,,,,,,,,,,,,,,1487.3852605998982,None,,,,,,,,,,,,,,,,,,nation,new_c,white,82,154,198,1483.8449657999445,None,1483.8449657999445,None,3,1.9035714000929147,1483.8449657999445,None,1485.7995277999435,None,1486.322082000086,None,1486.322082000086,None,f,1.0265234000980854,1486.322082000086,None,,,NC_56,001,2022_May_05_1249,ProdSingRedo,3.2.3,59.98318069978884,
,,,,83,0,83,0,,,,,,,,,,,,,,,,,,,,,,,,1491.2033341000788,None,,,,,,,,,,,,,,,,,,recall,silent,white,83,89,255,1487.9141160000581,None,1487.9141160000581,None,6,2.130628200015053,1487.9141160000581,None,1490.0789473000914,None,1490.590522899991,None,1490.590522899991,None,r,0.5820339000783861,1490.590522899991,None,,,NC_56,001,2022_May_05_1249,ProdSingRedo,3.2.3,59.98318069978884,
,,,,84,0,84,0,,,,,,,,,,,,,,,,,,,,,,,,1493.6102819999214,None,,,,,,,,,,,,,,,,,,birth,silent,white,84,65,22,1491.7257636999711,None,1491.7257636999711,None,1,1.1108747001271695,1491.7257636999711,None,1492.8847771000583,None,1493.395708499942,None,1493.395708499942,None,n,0.1925225001759827,1493.395708499942,None,,,NC_56,001,2022_May_05_1249,ProdSingRedo,3.2.3,59.98318069978884,
,,,,85,0,85,0,,,,,,,,,,,,,,,,,,,,,,,,1495.6407246999443,None,,,,,,,,,,,,,,,,,,estate,new_a,white,85,114,119,1494.1161893000826,None,1494.1161893000826,None,1,0.8163240998983383,1494.1161893000826,None,1494.985030299984,None,1495.5040491998661,None,1495.5040491998661,None,n,0.10848759999498725,1495.5040491998661,None,,,NC_56,001,2022_May_05_1249,ProdSingRedo,3.2.3,59.98318069978884,
,,,,86,0,86,0,,,,,,,,,,,,,,,,,,,,,,,,1499.3363604999613,None,,,,,,,,,,,,,,,,,,resistance,new_a,white,86,106,262,1496.167682700092,None,1496.167682700092,None,2,2.2212622000370175,1496.167682700092,None,1498.4405121000018,None,1498.9623372000642,None,1498.9623372000642,None,n,0.3383218999952078,1498.9623372000642,None,,,NC_56,001,2022_May_05_1249,ProdSingRedo,3.2.3,59.98318069978884,
,,,,87,0,87,0,,,,,,,,,,,,,,,,,,,,,,,,1501.620712700067,None,,,,,,,,,,,,,,,,,,ground,new_b,white,87,144,142,1499.851355999941,None,1499.851355999941,None,1,1.1371979999821633,1499.851355999941,None,1501.031162600033,None,1501.558541300008,None,1501.558541300008,None,n,0.03798179980367422,1501.558541300008,None,,,NC_56,001,2022_May_05_1249,ProdSingRedo,3.2.3,59.98318069978884,
,,,,88,0,88,0,,,,,,,,,,,,,,,,,,,,,,,,1506.5055776000954,None,,,,,,,,,,,,,,,,,,raise,sing,white,88,2,250,1502.146343600005,None,1502.146343600005,None,5,1.850107999984175,1502.146343600005,None,1504.0292044000234,None,1504.5412280000746,None,1504.5412280000746,None,r,1.9273516999091953,1504.5412280000746,None,,,NC_56,001,2022_May_05_1249,ProdSingRedo,3.2.3,59.98318069978884,
,,,,89,0,89,0,,,,,,,,,,,,,,,,,,,,,,,,1508.9230398999061,None,,,,,,,,,,,,,,,,,,congress,new_a,white,89,92,67,1507.0317152000498,None,1507.0317152000498,None,1,1.0927271998953074,1507.0317152000498,None,1508.1722110998817,None,1508.6934300998691,None,1508.6934300998691,None,n,0.19963910011574626,1508.6934300998691,None,,,NC_56,001,2022_May_05_1249,ProdSingRedo,3.2.3,59.98318069978884,
,,,,90,0,90,0,,,,,,,,,,,,,,,,,,,,,,,,1512.6893736000638,None,,,,,,,,,,,,,,,,,,government,aloud,white,90,49,139,1509.4508803000208,None,1509.4508803000208,None,4,1.8896090001799166,1509.4508803000208,None,1511.3836773000658,None,1511.9093142999336,None,1511.9093142999336,None,f,0.7432663000654429,1511.9093142999336,None,,,NC_56,001,2022_May_05_1249,ProdSingRedo,3.2.3,59.98318069978884,
,,,,91,0,91,0,,,,,,,,,,,,,,,,,,,,,,,,1515.306061499985,None,,,,,,,,,,,,,,,,,,rapid,new_b,white,91,128,252,1513.2146481000818,None,1513.2146481000818,None,1,1.1177442001644522,1513.2146481000818,None,1514.3807353999,None,1514.8924326999113,None,1514.8924326999113,None,n,0.37599929980933666,1514.8924326999113,None,,,NC_56,001,2022_May_05_1249,ProdSingRedo,3.2.3,59.98318069978884,
,,,,92,0,92,0,,,,,,,,,,,,,,,,,,,,,,,,1518.6879275999963,None,,,,,,,,,,,,,,,,,,distance,new_c,white,92,161,100,1515.8319041999057,None,1515.8319041999057,None,3,1.652620199834928,1515.8319041999057,None,1517.5428226999938,None,1518.057912999997,None,1518.057912999997,None,n,0.59474360011518,1518.057912999997,None,,,NC_56,001,2022_May_05_1249,ProdSingRedo,3.2.3,59.98318069978884,
,,,,93,0,93,0,,,,,,,,,,,,,,,,,,,,,,,,1522.3231128000189,None,,,,,,,,,,,,,,,,,,management,new_a,white,93,110,177,1519.2185698999092,None,1519.2185698999092,None,5,2.1699085999280214,1519.2185698999092,None,1521.441029299982,None,1521.962152000051,None,1521.962152000051,None,f,0.3224486999679357,1521.962152000051,None,,,NC_56,001,2022_May_05_1249,ProdSingRedo,3.2.3,59.98318069978884,
,,,,94,0,94,0,,,,,,,,,,,,,,,,,,,,,,,,1525.8391354000196,None,,,,,,,,,,,,,,,,,,salary,sing,white,94,23,271,1522.8429791999515,None,1522.8429791999515,None,5,1.7136951999273151,1522.8429791999515,None,1524.6041079999413,None,1525.1283249999397,None,1525.1283249999397,None,f,0.6763593999203295,1525.1283249999397,None,,,NC_56,001,2022_May_05_1249,ProdSingRedo,3.2.3,59.98318069978884,
,,,,95,0,95,0,,,,,,,,,,,,,,,,,,,,,,,,1528.1919042000081,None,,,,,,,,,,,,,,,,,,brilliant,new_a,white,95,91,30,1526.3718000999652,None,1526.3718000999652,None,1,1.0806821000296623,1526.3718000999652,None,1527.507333900081,None,1528.0251315000933,None,1528.0251315000933,None,n,0.13953469996340573,1528.0251315000933,None,,,NC_56,001,2022_May_05_1249,ProdSingRedo,3.2.3,59.98318069978884,
,,,,96,0,96,0,,,,,,,,,,,,,,,,,,,,,,,,1532.0912740998901,None,,,,,,,,,,,,,,,,,,guide,new_c,white,96,153,147,1528.7135926000774,None,1528.7135926000774,None,4,2.4512630999088287,1528.7135926000774,None,1531.1987799000926,None,1531.7243989999406,None,1531.7243989999406,None,f,0.3361549999099225,1531.7243989999406,None,,,NC_56,001,2022_May_05_1249,ProdSingRedo,3.2.3,59.98318069978884,
,,,,97,0,97,0,,,,,,,,,,,,,,,,,,,,,,,,1534.7394359000027,None,,,,,,,,,,,,,,,,,,shock,aloud,white,97,54,284,1532.615148999961,None,1532.615148999961,None,1,1.1413452001288533,1532.615148999961,None,1533.8078749999404,None,1534.3216478000395,None,1534.3216478000395,None,n,0.3788713999092579,1534.3216478000395,None,,,NC_56,001,2022_May_05_1249,ProdSingRedo,3.2.3,59.98318069978884,
,,,,98,0,98,0,,,,,,,,,,,,,,,,,,,,,,,,1537.0229871999472,None,,,,,,,,,,,,,,,,,,gesture,new_c,white,98,172,137,1535.2648410000838,None,1535.2648410000838,None,1,0.9397643997799605,1535.2648410000838,None,1536.250642299885,None,1536.7775818998925,None,1536.7775818998925,None,n,0.21082549984566867,1536.7775818998925,None,,,NC_56,001,2022_May_05_1249,ProdSingRedo,3.2.3,59.98318069978884,
,,,,99,0,99,0,,,,,,,,,,,,,,,,,,,,,,,,1539.706242899876,None,,,,,,,,,,,,,,,,,,break,new_a,white,99,97,26,1537.552720000036,None,1537.552720000036,None,3,1.267762000206858,1537.552720000036,None,1538.8673815999646,None,1539.3933435999788,None,1539.3933435999788,None,n,0.28315989999100566,1539.3933435999788,None,,,NC_56,001,2022_May_05_1249,ProdSingRedo,3.2.3,59.98318069978884,
,,,,100,0,100,0,,,,,,,,,,,,,,,,,,,,,,,,1543.7192007000558,None,,,,,,,,,,,,,,,,,,employment,new_b,white,100,134,111,1540.234102499904,None,1540.234102499904,None,6,1.6983606999274343,1540.234102499904,None,1541.973307200009,None,1542.4938930999488,None,1542.4938930999488,None,f,1.2065190998837352,1542.4938930999488,None,,,NC_56,001,2022_May_05_1249,ProdSingRedo,3.2.3,59.98318069978884,
,,,,101,0,101,0,,,,,,,,,,,,,,,,,,,,,,,,1546.0920722999144,None,,,,,,,,,,,,,,,,,,attack,new_a,white,101,118,13,1544.2544408999383,None,1544.2544408999383,None,2,1.0621181998867542,1544.2544408999383,None,1545.3461517000105,None,1545.8654291999992,None,1545.8654291999992,None,n,0.19503959990106523,1545.8654291999992,None,,,NC_56,001,2022_May_05_1249,ProdSingRedo,3.2.3,59.98318069978884,
,,,,102,0,102,0,,,,,,,,,,,,,,,,,,,,,,,,1549.6549515998922,None,,,,,,,,,,,,,,,,,,hunger,new_c,white,102,175,155,1546.6179301000666,None,1546.6179301000666,None,4,1.410625800024718,1546.6179301000666,None,1548.0551529999357,None,1548.5767353998963,None,1548.5767353998963,None,f,1.0520214000716805,1548.5767353998963,None,,,NC_56,001,2022_May_05_1249,ProdSingRedo,3.2.3,59.98318069978884,
,,,,103,0,103,0,,,,,,,,,,,,,,,,,,,,,,,,1555.1409445998725,None,,,,,,,,,,,,,,,,,,education,silent,white,103,70,108,1550.1909012000542,None,1550.1909012000542,None,4,2.4695597998797894,1550.1909012000542,None,1552.7089533000253,None,1553.2294828998856,None,1553.2294828998856,None,f,1.8871550001204014,1553.2294828998856,None,,,NC_56,001,2022_May_05_1249,ProdSingRedo,3.2.3,59.98318069978884,
,,,,104,0,104,0,,,,,,,,,,,,,,,,,,,,,,,,1557.8749629000667,None,,,,,,,,,,,,,,,,,,throw,aloud,white,104,44,330,1555.6664225000422,None,1555.6664225000422,None,3,1.2581495000049472,1555.6664225000422,None,1556.9735902000684,None,1557.4917784999125,None,1557.4917784999125,None,n,0.3448715000413358,1557.4917784999125,None,,,NC_56,001,2022_May_05_1249,ProdSingRedo,3.2.3,59.98318069978884,
,,,,105,0,105,0,,,,,,,,,,,,,,,,,,,,,,,,1562.5073265000246,None,,,,,,,,,,,,,,,,,,rural,silent,white,105,87,269,1558.4019015000667,None,1558.4019015000667,None,1,3.466536399908364,1558.4019015000667,None,1561.9247252000496,None,1562.4458594999742,None,1562.4458594999742,None,n,0.022533100098371506,1562.4458594999742,None,,,NC_56,001,2022_May_05_1249,ProdSingRedo,3.2.3,59.98318069978884,
,,,,106,0,106,0,,,,,,,,,,,,,,,,,,,,,,,,1565.677961600013,None,,,,,,,,,,,,,,,,,,hearing,silent,white,106,77,150,1563.0330518998671,None,1563.0330518998671,None,2,1.6274608001112938,1563.0330518998671,None,1564.7120866000187,None,1565.231769300066,None,1565.231769300066,None,n,0.40475070010870695,1565.231769300066,None,,,NC_56,001,2022_May_05_1249,ProdSingRedo,3.2.3,59.98318069978884,
,,,,107,0,107,0,,,,,,,,,,,,,,,,,,,,,,,,1571.0748864000197,None,,,,,,,,,,,,,,,,,,defeat,sing,white,107,16,88,1566.2033500000834,None,1566.2033500000834,None,3,3.86515670013614,1566.2033500000834,None,1570.1094702999108,None,1570.6296246000566,None,1570.6296246000566,None,f,0.40684659988619387,1570.6296246000566,None,,,NC_56,001,2022_May_05_1249,ProdSingRedo,3.2.3,59.98318069978884,
,,,,108,0,108,0,,,,,,,,,,,,,,,,,,,,,,,,1576.6107232000213,None,,,,,,,,,,,,,,,,,,silence,new_c,white,108,158,288,1571.6002839999273,None,1571.6002839999273,None,4,3.668212699936703,1571.6002839999273,None,1575.307457699906,None,1575.8247100999579,None,1575.8247100999579,None,f,0.7477808999828994,1575.8247100999579,None,,,NC_56,001,2022_May_05_1249,ProdSingRedo,3.2.3,59.98318069978884,
,,,,109,0,109,0,,,,,,,,,,,,,,,,,,,,,,,,1580.6261917999946,None,,,,,,,,,,,,,,,,,,crisis,silent,white,109,60,79,1577.1300142998807,None,1577.1300142998807,None,2,2.0348361001815647,1577.1300142998807,None,1579.2039874999318,None,1579.7257155999541,None,1579.7257155999541,None,n,0.862824099836871,1579.7257155999541,None,,,NC_56,001,2022_May_05_1249,ProdSingRedo,3.2.3,59.98318069978884,
,,,,110,0,110,0,,,,,,,,,,,,,,,,,,,,,,,,1583.5665295999497,None,,,,,,,,,,,,,,,,,,committee,sing,white,110,27,62,1581.1492169999983,None,1581.1492169999983,None,5,1.64731190004386,1581.1492169999983,None,1582.8362078000791,None,1583.3553500000853,None,1583.3553500000853,None,f,0.18481429992243648,1583.3553500000853,None,,,NC_56,001,2022_May_05_1249,ProdSingRedo,3.2.3,59.98318069978884,
,,,,111,0,111,0,,,,,,,,,,,,,,,,,,,,,,,,1586.2441819000524,None,,,,,,,,,,,,,,,,,,patient,new_b,white,111,125,213,1584.068831600016,None,1584.068831600016,None,2,1.3277757000178099,1584.068831600016,None,1585.4428085000254,None,1585.9654943998903,None,1585.9654943998903,None,n,0.24715599999763072,1585.9654943998903,None,,,NC_56,001,2022_May_05_1249,ProdSingRedo,3.2.3,59.98318069978884,
,,,,112,0,112,0,,,,,,,,,,,,,,,,,,,,,,,,1589.2104171998799,None,,,,,,,,,,,,,,,,,,grade,aloud,white,112,46,140,1586.7737376999576,None,1586.7737376999576,None,3,1.382755700033158,1586.7737376999576,None,1588.2055989000946,None,1588.7300615999848,None,1588.7300615999848,None,n,0.4503803998231888,1588.7300615999848,None,,,NC_56,001,2022_May_05_1249,ProdSingRedo,3.2.3,59.98318069978884,
,,,,113,0,113,0,,,,,,,,,,,,,,,,,,,,,,,,1592.551278699888,None,,,,,,,,,,,,,,,,,,marriage,new_c,white,113,152,179,1589.7357940000948,None,1589.7357940000948,None,4,1.116927299881354,1589.7357940000948,None,1590.8959089999553,None,1591.4131302000023,None,1591.4131302000023,None,f,1.1111230000387877,1591.4131302000023,None,,,NC_56,001,2022_May_05_1249,ProdSingRedo,3.2.3,59.98318069978884,
,,,,114,0,114,0,,,,,,,,,,,,,,,,,,,,,,,,1595.3935388999525,None,,,,,,,,,,,,,,,,,,story,sing,white,114,13,306,1593.0746015999466,None,1593.0746015999466,None,4,1.5058369000907987,1593.0746015999466,None,1594.62600989989,None,1595.1433937998954,None,1595.1433937998954,None,f,0.2214055999647826,1595.1433937998954,None,,,NC_56,001,2022_May_05_1249,ProdSingRedo,3.2.3,59.98318069978884,
,,,,115,0,115,0,,,,,,,,,,,,,,,,,,,,,,,,1601.2361000999808,None,,,,,,,,,,,,,,,,,,bucket,silent,white,115,76,33,1595.9090845000464,None,1595.9090845000464,None,2,4.167385499924421,1595.9090845000464,None,1600.1220799000002,None,1600.6501303999685,None,1600.6501303999685,None,f,0.5625841999426484,1600.6501303999685,None,,,NC_56,001,2022_May_05_1249,ProdSingRedo,3.2.3,59.98318069978884,
,,,,116,0,116,0,,,,,,,,,,,,,,,,,,,,,,,,1603.528226000024,None,,,,,,,,,,,,,,,,,,oxygen,sing,white,116,20,209,1601.7603311000858,None,1601.7603311000858,None,1,1.0920138000510633,1601.7603311000858,None,1602.8887835999485,None,1603.391363099916,None,1603.391363099916,None,n,0.10107260011136532,1603.391363099916,None,,,NC_56,001,2022_May_05_1249,ProdSingRedo,3.2.3,59.98318069978884,
,,,,117,0,117,0,,,,,,,,,,,,,,,,,,,,,,,,1607.1607929000165,None,,,,,,,,,,,,,,,,,,country,aloud,white,117,30,73,1604.0513464000542,None,1604.0513464000542,None,6,1.3851147000677884,1604.0513464000542,None,1605.4795852999669,None,1605.9997239999939,None,1605.9997239999939,None,f,1.1247145000379533,1605.9997239999939,None,,,NC_56,001,2022_May_05_1249,ProdSingRedo,3.2.3,59.98318069978884,
,,,,118,0,118,0,,,,,,,,,,,,,,,,,,,,,,,,1611.385912799975,None,,,,,,,,,,,,,,,,,,agreement,sing,white,118,21,5,1607.6775332000107,None,1607.6775332000107,None,4,2.023444499820471,1607.6775332000107,None,1609.7423004999291,None,1610.26296130009,None,1610.26296130009,None,f,1.0854736000765115,1610.26296130009,None,,,NC_56,001,2022_May_05_1249,ProdSingRedo,3.2.3,59.98318069978884,
,,,,119,0,119,0,,,,,,,,,,,,,,,,,,,,,,,,1615.3953666000161,None,,,,,,,,,,,,,,,,,,business,new_a,white,119,104,38,1611.9058908999432,None,1611.9058908999432,None,2,1.5783476999495178,1611.9058908999432,None,1613.5094129999634,None,1614.02164739999,None,1614.02164739999,None,f,1.3348634999711066,1614.02164739999,None,,,NC_56,001,2022_May_05_1249,ProdSingRedo,3.2.3,59.98318069978884,
,,,,120,0,120,0,,,,,,,,,,,,,,,,,,,,,,,,1619.1456343000755,None,,,,,,,,,,,,,,,,,,pattern,new_a,white,120,103,214,1615.9242648999207,None,1615.9242648999207,None,5,1.7282477000262588,1615.9242648999207,None,1617.6923738000914,None,1618.2167372999247,None,1618.2167372999247,None,f,0.8916964000090957,1618.2167372999247,None,,,NC_56,001,2022_May_05_1249,ProdSingRedo,3.2.3,59.98318069978884,
,,,,121,0,121,0,,,,,,,,,,,,,,,,,,,,,,,,1621.812036700081,None,,,,,,,,,,,,,,,,,,frank,new_b,white,121,142,133,1619.6735034000594,None,1619.6735034000594,None,1,1.0510134000796825,1619.6735034000594,None,1620.7781563999597,None,1621.2980080000125,None,1621.2980080000125,None,n,0.4904344000387937,1621.2980080000125,None,,,NC_56,001,2022_May_05_1249,ProdSingRedo,3.2.3,59.98318069978884,
,,,,122,0,122,0,,,,,,,,,,,,,,,,,,,,,,,,1625.262250599917,None,,,,,,,,,,,,,,,,,,working,new_b,white,122,130,357,1622.3415151000954,None,1622.3415151000954,None,3,1.2869065999984741,1622.3415151000954,None,1623.6846964999568,None,1624.2026682000142,None,1624.2026682000142,None,n,1.0257004001177847,1624.2026682000142,None,,,NC_56,001,2022_May_05_1249,ProdSingRedo,3.2.3,59.98318069978884,
,,,,123,0,123,0,,,,,,,,,,,,,,,,,,,,,,,,1627.6123118000105,None,,,,,,,,,,,,,,,,,,trash,sing,white,123,15,337,1625.7880547998939,None,1625.7880547998939,None,1,1.0883430999238044,1625.7880547998939,None,1626.9147977998946,None,1627.4367170999758,None,1627.4367170999758,None,n,0.15162779996171594,1627.4367170999758,None,,,NC_56,001,2022_May_05_1249,ProdSingRedo,3.2.3,59.98318069978884,
,,,,124,0,124,0,,,,,,,,,,,,,,,,,,,,,,,,1630.2796467000153,None,,,,,,,,,,,,,,,,,,whole,new_b,white,124,126,355,1628.1337546000723,None,1628.1337546000723,None,3,1.1512460000813007,1628.1337546000723,None,1629.3267616000958,None,1629.846652999986,None,1629.846652999986,None,f,0.4059751001186669,1629.846652999986,None,,,NC_56,001,2022_May_05_1249,ProdSingRedo,3.2.3,59.98318069978884,
,,,,125,0,125,0,,,,,,,,,,,,,,,,,,,,,,,,1635.3962648999877,None,,,,,,,,,,,,,,,,,,number,sing,white,125,4,203,1630.8054637000896,None,1630.8054637000896,None,2,1.366999400081113,1630.8054637000896,None,1632.221354200039,None,1632.734766199952,None,1632.734766199952,None,f,2.6376436999998987,1632.734766199952,None,,,NC_56,001,2022_May_05_1249,ProdSingRedo,3.2.3,59.98318069978884,
,,,,126,0,126,0,,,,,,,,,,,,,,,,,,,,,,,,1638.963194000069,None,,,,,,,,,,,,,,,,,,finish,new_c,white,126,176,130,1635.9207768000197,None,1635.9207768000197,None,1,1.0036751998122782,1635.9207768000197,None,1636.978089199867,None,1637.4971433999017,None,1637.4971433999017,None,f,1.4354618999641389,1637.4971433999017,None,,,NC_56,001,2022_May_05_1249,ProdSingRedo,3.2.3,59.98318069978884,
,,,,127,0,127,0,,,,,,,,,,,,,,,,,,,,,,,,1641.3076482999604,None,,,,,,,,,,,,,,,,,,drove,new_c,white,127,159,106,1639.4879010999575,None,1639.4879010999575,None,1,0.9967527999542654,1639.4879010999575,None,1640.5246170999017,None,1641.0563234,None,1641.0563234,None,n,0.21284659998491406,1641.0563234,None,,,NC_56,001,2022_May_05_1249,ProdSingRedo,3.2.3,59.98318069978884,
,,,,128,0,128,0,,,,,,,,,,,,,,,,,,,,,,,,1643.6704114000313,None,,,,,,,,,,,,,,,,,,voice,silent,white,128,84,348,1641.8359024999663,None,1641.8359024999663,None,3,0.8965934000443667,1641.8359024999663,None,1642.7746693000663,None,1643.3050442000385,None,1643.3050442000385,None,n,0.3473624000325799,1643.3050442000385,None,,,NC_56,001,2022_May_05_1249,ProdSingRedo,3.2.3,59.98318069978884,
,,,,129,0,129,0,,,,,,,,,,,,,,,,,,,,,,,,1647.3891904000193,None,,,,,,,,,,,,,,,,,,question,aloud,white,129,50,247,1644.173852100037,None,1644.173852100037,None,1,1.8628577999770641,1644.173852100037,None,1646.0771639000159,None,1646.6010592000093,None,1646.6010592000093,None,f,0.7712185001000762,1646.6010592000093,None,,,NC_56,001,2022_May_05_1249,ProdSingRedo,3.2.3,59.98318069978884,
,,,,130,0,130,0,,,,,,,,,,,,,,,,,,,,,,,,1650.631211699918,None,,,,,,,,,,,,,,,,,,burden,new_b,white,130,146,36,1647.9184244000353,None,1647.9184244000353,None,3,1.3820269999559969,1647.9184244000353,None,1649.343984700041,None,1649.8695086999796,None,1649.8695086999796,None,n,0.7267604998778552,1649.8695086999796,None,,,NC_56,001,2022_May_05_1249,ProdSingRedo,3.2.3,59.98318069978884,
,,,,131,0,131,0,,,,,,,,,,,,,,,,,,,,,,,,1653.362315400038,None,,,,,,,,,,,,,,,,,,beauty,new_b,white,131,141,18,1651.1514971000142,None,1651.1514971000142,None,1,1.180988400010392,1651.1514971000142,None,1652.3773469999433,None,1652.90279130009,None,1652.90279130009,None,n,0.42173150018788874,1652.90279130009,None,,,NC_56,001,2022_May_05_1249,ProdSingRedo,3.2.3,59.98318069978884,
,,,,132,0,132,0,,,,,,,,,,,,,,,,,,,,,,,,1659.6832991999108,None,,,,,,,,,,,,,,,,,,sunset,sing,white,132,5,315,1653.8733924999833,None,1653.8733924999833,None,6,1.5871770000085235,1653.8733924999833,None,1655.5118756000884,None,1656.032141600037,None,1656.032141600037,None,r,3.6123303999193013,1656.032141600037,None,,,NC_56,001,2022_May_05_1249,ProdSingRedo,3.2.3,59.98318069978884,
,,,,133,0,133,0,,,,,,,,,,,,,,,,,,,,,,,,1664.3481077000033,None,,,,,,,,,,,,,,,,,,tragedy,new_a,white,133,90,335,1660.2085362998769,None,1660.2085362998769,None,1,3.515547899994999,1660.2085362998769,None,1663.759929599939,None,1664.2893479000777,None,1664.2893479000777,None,n,0.035083800088614225,1664.2893479000777,None,,,NC_56,001,2022_May_05_1249,ProdSingRedo,3.2.3,59.98318069978884,
,,,,134,0,134,0,,,,,,,,,,,,,,,,,,,,,,,,1667.5144652999006,None,,,,,,,,,,,,,,,,,,under,silent,white,134,63,343,1664.871962199919,None,1664.871962199919,None,1,0.9964737999252975,1664.871962199919,None,1665.9078327000607,None,1666.4355029000435,None,1666.4355029000435,None,f,1.0410113998223096,1666.4355029000435,None,,,NC_56,001,2022_May_05_1249,ProdSingRedo,3.2.3,59.98318069978884,
,,,,135,0,135,0,,,,,,,,,,,,,,,,,,,,,,,,1670.4236475999933,None,,,,,,,,,,,,,,,,,,drink,new_c,white,135,165,105,1668.0401318999939,None,1668.0401318999939,None,1,1.7724304001312703,1668.0401318999939,None,1669.8619365000632,None,1670.3830931000412,None,1670.3830931000412,None,n,0.02108910004608333,1670.3830931000412,None,,,NC_56,001,2022_May_05_1249,ProdSingRedo,3.2.3,59.98318069978884,
,,,,136,0,136,0,,,,,,,,,,,,,,,,,,,,,,,,1673.7396575999446,None,,,,,,,,,,,,,,,,,,victory,silent,white,136,83,346,1670.951154799899,None,1670.951154799899,None,4,1.3574461000971496,1670.951154799899,None,1672.3593802000396,None,1672.888060099911,None,1672.888060099911,None,f,0.8280861000530422,1672.888060099911,None,,,NC_56,001,2022_May_05_1249,ProdSingRedo,3.2.3,59.98318069978884,
,,,,137,0,137,0,,,,,,,,,,,,,,,,,,,,,,,,1675.9844964998774,None,,,,,,,,,,,,,,,,,,fellow,aloud,white,137,43,126,1674.2419857000932,None,1674.2419857000932,None,2,0.8584463000297546,1674.2419857000932,None,1675.144566199975,None,1675.6683732999954,None,1675.6683732999954,None,n,0.2887011000420898,1675.6683732999954,None,,,NC_56,001,2022_May_05_1249,ProdSingRedo,3.2.3,59.98318069978884,
,,,,138,0,138,0,,,,,,,,,,,,,,,,,,,,,,,,1678.371147699887,None,,,,,,,,,,,,,,,,,,territory,new_b,white,138,121,324,1676.5089324000292,None,1676.5089324000292,None,1,1.0716345999389887,1676.5089324000292,None,1677.6310779000632,None,1678.153608799912,None,1678.153608799912,None,n,0.17901120008900762,1678.153608799912,None,,,NC_56,001,2022_May_05_1249,ProdSingRedo,3.2.3,59.98318069978884,
,,,,139,0,139,0,,,,,,,,,,,,,,,,,,,,,,,,1682.7823155000806,None,,,,,,,,,,,,,,,,,,column,new_c,white,139,179,57,1678.8935263000894,None,1678.8935263000894,None,1,2.871050599962473,1678.8935263000894,None,1681.8093469000887,None,1682.336140600033,None,1682.336140600033,None,n,0.42030279990285635,1682.336140600033,None,,,NC_56,001,2022_May_05_1249,ProdSingRedo,3.2.3,59.98318069978884,
,,,,140,0,140,0,,,,,,,,,,,,,,,,,,,,,,,,1686.0832132000942,None,,,,,,,,,,,,,,,,,,equipment,new_b,white,140,131,116,1683.2932825000025,None,1683.2932825000025,None,6,1.5510841999202967,1683.2932825000025,None,1684.8985128998756,None,1685.4223064000253,None,1685.4223064000253,None,f,0.6304558999836445,1685.4223064000253,None,,,NC_56,001,2022_May_05_1249,ProdSingRedo,3.2.3,59.98318069978884,
,,,,141,0,141,0,,,,,,,,,,,,,,,,,,,,,,,,1689.901419099886,None,,,,,,,,,,,,,,,,,,contract,new_b,white,141,123,68,1686.6103260000236,None,1686.6103260000236,None,4,2.426116099813953,1686.6103260000236,None,1689.0874008999672,None,1689.6013211000245,None,1689.6013211000245,None,f,0.267188600031659,1689.6013211000245,None,,,NC_56,001,2022_May_05_1249,ProdSingRedo,3.2.3,59.98318069978884,
,,,,142,0,142,0,,,,,,,,,,,,,,,,,,,,,,,,1694.4002264998853,None,,,,,,,,,,,,,,,,,,colonel,new_a,white,142,111,55,1690.4218309998978,None,1690.4218309998978,None,1,3.190728100016713,1690.4218309998978,None,1693.6591906999238,None,1694.1689637000673,None,1694.1689637000673,None,n,0.20382509985938668,1694.1689637000673,None,,,NC_56,001,2022_May_05_1249,ProdSingRedo,3.2.3,59.98318069978884,
,,,,143,0,143,0,,,,,,,,,,,,,,,,,,,,,,,,1697.9673110998701,None,,,,,,,,,,,,,,,,,,partner,aloud,white,143,37,211,1694.9258087000344,None,1694.9258087000344,None,5,1.806556899799034,1694.9258087000344,None,1696.7774084999692,None,1697.3022656000685,None,1697.3022656000685,None,f,0.6384785999543965,1697.3022656000685,None,,,NC_56,001,2022_May_05_1249,ProdSingRedo,3.2.3,59.98318069978884,
,,,,144,0,144,0,,,,,,,,,,,,,,,,,,,,,,,,1701.0266769998707,None,,,,,,,,,,,,,,,,,,power,aloud,white,144,47,230,1698.4947561998852,None,1698.4947561998852,None,2,1.4139425000175834,1698.4947561998852,None,1699.9497706999537,None,1700.4703452999238,None,1700.4703452999238,None,n,0.5258786000777036,1700.4703452999238,None,,,NC_56,001,2022_May_05_1249,ProdSingRedo,3.2.3,59.98318069978884,
,,,,145,0,145,0,,,,,,,,,,,,,,,,,,,,,,,,1703.67606540001,None,,,,,,,,,,,,,,,,,,poetry,sing,white,145,18,225,1701.546823499957,None,1701.546823499957,None,6,1.3137028000783175,1701.546823499957,None,1702.8956722998992,None,1703.4127966999076,None,1703.4127966999076,None,f,0.23130119987763464,1703.4127966999076,None,,,NC_56,001,2022_May_05_1249,ProdSingRedo,3.2.3,59.98318069978884,
,,,,146,0,146,0,,,,,,,,,,,,,,,,,,,,,,,,1707.6505376999266,None,,,,,,,,,,,,,,,,,,strength,silent,white,146,88,310,1704.1946791000664,None,1704.1946791000664,None,3,1.2337395998183638,1704.1946791000664,None,1705.4773907999042,None,1706.0046508000232,None,1706.0046508000232,None,f,1.607821999816224,1706.0046508000232,None,,,NC_56,001,2022_May_05_1249,ProdSingRedo,3.2.3,59.98318069978884,
,,,,147,0,147,0,,,,,,,,,,,,,,,,,,,,,,,,1714.3350865000393,None,,,,,,,,,,,,,,,,,,light,aloud,white,147,33,171,1708.1743028999772,None,1708.1743028999772,None,3,4.446164100198075,1708.1743028999772,None,1712.6669858999085,None,1713.1844631000422,None,1713.1844631000422,None,f,1.1241019000299275,1713.1844631000422,None,,,NC_56,001,2022_May_05_1249,ProdSingRedo,3.2.3,59.98318069978884,
,,,,148,0,148,0,,,,,,,,,,,,,,,,,,,,,,,,1717.9696708999109,None,,,,,,,,,,,,,,,,,,subject,new_c,white,148,166,312,1714.8668174999766,None,1714.8668174999766,None,3,1.3612420000135899,1714.8668174999766,None,1716.2619151999243,None,1716.7761681000702,None,1716.7761681000702,None,f,1.1648572999984026,1716.7761681000702,None,,,NC_56,001,2022_May_05_1249,ProdSingRedo,3.2.3,59.98318069978884,
,,,,149,0,149,0,,,,,,,,,,,,,,,,,,,,,,,,1721.25222819997,None,,,,,,,,,,,,,,,,,,balance,sing,white,149,8,17,1718.4967916000169,None,1718.4967916000169,None,5,1.883719300152734,1718.4967916000169,None,1720.4382559999358,None,1720.9557167999446,None,1720.9557167999446,None,f,0.27270940016023815,1720.9557167999446,None,,,NC_56,001,2022_May_05_1249,ProdSingRedo,3.2.3,59.98318069978884,
,,,,150,0,150,0,,,,,,,,,,,,,,,,,,,,,,,,1724.0779490999412,None,,,,,,,,,,,,,,,,,,mankind,new_a,white,150,109,178,1721.7820180999115,None,1721.7820180999115,None,1,1.4143942000810057,1721.7820180999115,None,1723.2561653999146,None,1723.7733737998642,None,1723.7733737998642,None,n,0.2788732999470085,1723.7733737998642,None,,,NC_56,001,2022_May_05_1249,ProdSingRedo,3.2.3,59.98318069978884,
,,,,151,0,151,0,,,,,,,,,,,,,,,,,,,,,,,,1726.836137499893,None,,,,,,,,,,,,,,,,,,universal,silent,white,151,81,345,1724.5936326999217,None,1724.5936326999217,None,6,1.2429210001137108,1724.5936326999217,None,1725.880741900066,None,1726.4099292000756,None,1726.4099292000756,None,f,0.3866596999578178,1726.4099292000756,None,,,NC_56,001,2022_May_05_1249,ProdSingRedo,3.2.3,59.98318069978884,
,,,,152,0,152,0,,,,,,,,,,,,,,,,,,,,,,,,1729.6523676998913,None,,,,,,,,,,,,,,,,,,capital,silent,white,152,74,40,1727.3667178000323,None,1727.3667178000323,None,6,1.5100157998967916,1727.3667178000323,None,1728.9121932999697,None,1729.4464350999333,None,1729.4464350999333,None,f,0.18200040003284812,1729.4464350999333,None,,,NC_56,001,2022_May_05_1249,ProdSingRedo,3.2.3,59.98318069978884,
,,,,153,0,153,0,,,,,,,,,,,,,,,,,,,,,,,,1733.2073127999902,None,,,,,,,,,,,,,,,,,,series,aloud,white,153,59,279,1730.1752583000343,None,1730.1752583000343,None,4,1.597216400085017,1730.1752583000343,None,1731.8137435999233,None,1732.3358467998914,None,1732.3358467998914,None,f,0.8367021000012755,1732.3358467998914,None,,,NC_56,001,2022_May_05_1249,ProdSingRedo,3.2.3,59.98318069978884,
,,,,154,0,154,0,,,,,,,,,,,,,,,,,,,,,,,,1738.1215311000124,None,,,,,,,,,,,,,,,,,,sleep,aloud,white,154,31,290,1733.7123604998924,None,1733.7123604998924,None,5,2.860161100048572,1733.7123604998924,None,1736.6128291999921,None,1737.1358886999078,None,1737.1358886999078,None,f,0.9568839999847114,1737.1358886999078,None,,,NC_56,001,2022_May_05_1249,ProdSingRedo,3.2.3,59.98318069978884,
,,,,155,0,155,0,,,,,,,,,,,,,,,,,,,,,,,,1743.0546563998796,None,,,,,,,,,,,,,,,,,,beginning,sing,white,155,26,19,1738.650848600082,None,1738.650848600082,None,3,1.9456680000294,1738.650848600082,None,1740.6572719998658,None,1741.1745978998952,None,1741.1745978998952,None,f,1.8541002999991179,1741.1745978998952,None,,,NC_56,001,2022_May_05_1249,ProdSingRedo,3.2.3,59.98318069978884,
,,,,156,0,156,0,,,,,,,,,,,,,,,,,,,,,,,,1746.0386997000314,None,,,,,,,,,,,,,,,,,,budget,new_b,white,156,129,34,1743.5783530999906,None,1743.5783530999906,None,4,1.3780869001057,1743.5783530999906,None,1745.009833799908,None,1745.52642140002,None,1745.52642140002,None,n,0.486186700174585,1745.52642140002,None,,,NC_56,001,2022_May_05_1249,ProdSingRedo,3.2.3,59.98318069978884,
,,,,157,0,157,0,,,,,,,,,,,,,,,,,,,,,,,,1752.6897593000904,None,,,,,,,,,,,,,,,,,,phrase,new_b,white,157,135,220,1746.5649995000567,None,1746.5649995000567,None,4,4.15935490000993,1746.5649995000567,None,1750.7696696999483,None,1751.2928597000428,None,1751.2928597000428,None,n,1.3596586999483407,1751.2928597000428,None,,,NC_56,001,2022_May_05_1249,ProdSingRedo,3.2.3,59.98318069978884,
,,,,158,0,158,0,,,,,,,,,,,,,,,,,,,,,,,,1756.1380664999597,None,,,,,,,,,,,,,,,,,,interior,new_b,white,158,137,164,1753.2115263000596,None,1753.2115263000596,None,5,1.8657240001484752,1753.2115263000596,None,1755.1173207999673,None,1755.638379599899,None,1755.638379599899,None,f,0.47004740010015666,1755.638379599899,None,,,NC_56,001,2022_May_05_1249,ProdSingRedo,3.2.3,59.98318069978884,
,,,,159,0,159,0,,,,,,,,,,,,,,,,,,,,,,,,1759.3891698999796,None,,,,,,,,,,,,,,,,,,weather,sing,white,159,19,352,1756.663810600061,None,1756.663810600061,None,4,1.3968718000687659,1756.663810600061,None,1758.1001228999812,None,1758.629729700042,None,1758.629729700042,None,f,0.7269181001465768,1758.629729700042,None,,,NC_56,001,2022_May_05_1249,ProdSingRedo,3.2.3,59.98318069978884,
,,,,160,0,160,0,,,,,,,,,,,,,,,,,,,,,,,,1762.354272400029,None,,,,,,,,,,,,,,,,,,shear,new_c,white,160,173,283,1759.9135924999136,None,1759.9135924999136,None,1,1.4109790998045355,1759.9135924999136,None,1761.3725833999924,None,1761.8915273998864,None,1761.8915273998864,None,n,0.4248768000397831,1761.8915273998864,None,,,NC_56,001,2022_May_05_1249,ProdSingRedo,3.2.3,59.98318069978884,
,,,,161,0,161,0,,,,,,,,,,,,,,,,,,,,,,,,1765.7566432999447,None,,,,,,,,,,,,,,,,,,dozen,aloud,white,161,57,102,1762.8806159000378,None,1762.8806159000378,None,6,1.555744299897924,1762.8806159000378,None,1764.4837911999784,None,1765.0067417998798,None,1765.0067417998798,None,f,0.7178776999935508,1765.0067417998798,None,,,NC_56,001,2022_May_05_1249,ProdSingRedo,3.2.3,59.98318069978884,
,,,,162,0,162,0,,,,,,,,,,,,,,,,,,,,,,,,1769.0712498000357,None,,,,,,,,,,,,,,,,,,watch,sing,white,162,22,351,1766.2797010999639,None,1766.2797010999639,None,3,1.6927108999807388,1766.2797010999639,None,1768.017917699879,None,1768.5439726000186,None,1768.5439726000186,None,n,0.49258399987593293,1768.5439726000186,None,,,NC_56,001,2022_May_05_1249,ProdSingRedo,3.2.3,59.98318069978884,
,,,,163,0,163,0,,,,,,,,,,,,,,,,,,,,,,,,1774.0386318999808,None,,,,,,,,,,,,,,,,,,machinery,aloud,white,163,42,175,1769.601508300053,None,1769.601508300053,None,5,2.0749010001309216,1769.601508300053,None,1771.7177822000813,None,1772.2453876999207,None,1772.2453876999207,None,f,1.7672868000809103,1772.2453876999207,None,,,NC_56,001,2022_May_05_1249,ProdSingRedo,3.2.3,59.98318069978884,
,,,,164,0,164,0,,,,,,,,,,,,,,,,,,,,,,,,1778.2630455000326,None,,,,,,,,,,,,,,,,,,company,aloud,white,164,34,64,1774.568820900051,None,1774.568820900051,None,4,1.9156865999102592,1774.568820900051,None,1776.5396535999607,None,1777.0622302999254,None,1777.0622302999254,None,n,1.173879100009799,1777.0622302999254,None,,,NC_56,001,2022_May_05_1249,ProdSingRedo,3.2.3,59.98318069978884,
,,,,165,0,165,0,,,,,,,,,,,,,,,,,,,,,,,,1783.2820323000196,None,,,,,,,,,,,,,,,,,,health,new_c,white,165,156,149,1778.7651452999562,None,1778.7651452999562,None,4,3.0873587999958545,1778.7651452999562,None,1781.9041244999971,None,1782.423926499905,None,1782.423926499905,None,f,0.8284655001480132,1782.423926499905,None,,,NC_56,001,2022_May_05_1249,ProdSingRedo,3.2.3,59.98318069978884,
,,,,166,0,166,0,,,,,,,,,,,,,,,,,,,,,,,,1787.7610269000288,None,,,,,,,,,,,,,,,,,,dance,silent,white,166,73,84,1783.8003600998782,None,1783.8003600998782,None,2,2.228673300007358,1783.8003600998782,None,1786.0749278999865,None,1786.5905071999878,None,1786.5905071999878,None,n,1.125989600084722,1786.5905071999878,None,,,NC_56,001,2022_May_05_1249,ProdSingRedo,3.2.3,59.98318069978884,
,,,,167,0,167,0,,,,,,,,,,,,,,,,,,,,,,,,1791.1227994998917,None,,,,,,,,,,,,,,,,,,member,aloud,white,167,38,188,1788.2923248999286,None,1788.2923248999286,None,4,1.3840189001057297,1788.2923248999286,None,1789.7199699999765,None,1790.2449187999591,None,1790.2449187999591,None,f,0.8474525997880846,1790.2449187999591,None,,,NC_56,001,2022_May_05_1249,ProdSingRedo,3.2.3,59.98318069978884,
,,,,168,0,168,0,,,,,,,,,,,,,,,,,,,,,,,,1793.8811000999995,None,,,,,,,,,,,,,,,,,,account,sing,white,168,3,1,1791.6519116000272,None,1791.6519116000272,None,3,1.392530299955979,1791.6519116000272,None,1793.0901563998777,None,1793.5995716000907,None,1793.5995716000907,None,f,0.2525106000248343,1793.5995716000907,None,,,NC_56,001,2022_May_05_1249,ProdSingRedo,3.2.3,59.98318069978884,
,,,,169,0,169,0,,,,,,,,,,,,,,,,,,,,,,,,1797.474079299951,None,,,,,,,,,,,,,,,,,,benefit,silent,white,169,66,20,1794.3982474999502,None,1794.3982474999502,None,3,1.4380099000409245,1794.3982474999502,None,1795.873985900078,None,1796.3963880999945,None,1796.3963880999945,None,f,1.0480880998075008,1796.3963880999945,None,,,NC_56,001,2022_May_05_1249,ProdSingRedo,3.2.3,59.98318069978884,
,,,,170,0,170,0,,,,,,,,,,,,,,,,,,,,,,,,1800.0730828000233,None,,,,,,,,,,,,,,,,,,novel,new_a,white,170,100,202,1797.9960368000902,None,1797.9960368000902,None,3,1.184544200077653,1797.9960368000902,None,1799.2202765999828,None,1799.7437668000348,None,1799.7437668000348,None,n,0.2926936000585556,1799.7437668000348,None,,,NC_56,001,2022_May_05_1249,ProdSingRedo,3.2.3,59.98318069978884,
,,,,171,0,171,0,,,,,,,,,,,,,,,,,,,,,,,,1805.3581586999353,None,,,,,,,,,,,,,,,,,,damage,new_a,white,171,105,83,1800.6010990000796,None,1800.6010990000796,None,1,1.9314945000223815,1800.6010990000796,None,1802.5763816998806,None,1803.0928458999842,None,1803.0928458999842,None,n,2.231591399991885,1803.0928458999842,None,,,NC_56,001,2022_May_05_1249,ProdSingRedo,3.2.3,59.98318069978884,
,,,,172,0,172,0,,,,,,,,,,,,,,,,,,,,,,,,1808.291836899938,None,,,,,,,,,,,,,,,,,,treatment,silent,white,172,69,339,1805.8828986999579,None,1805.8828986999579,None,2,1.465574499918148,1805.8828986999579,None,1807.3865541999694,None,1807.9189706000034,None,1807.9189706000034,None,n,0.34152689995244145,1807.9189706000034,None,,,NC_56,001,2022_May_05_1249,ProdSingRedo,3.2.3,59.98318069978884,
,,,,173,0,173,0,,,,,,,,,,,,,,,,,,,,,,,,1811.9914367999882,None,,,,,,,,,,,,,,,,,,instrument,silent,white,173,75,163,1808.8188483000267,None,1808.8188483000267,None,4,2.321544900070876,1808.8188483000267,None,1811.1826937999576,None,1811.7021985999309,None,1811.7021985999309,None,f,0.25420670001767576,1811.7021985999309,None,,,NC_56,001,2022_May_05_1249,ProdSingRedo,3.2.3,59.98318069978884,
,,,,174,0,174,0,,,,,,,,,,,,,,,,,,,,,,,,1814.941707599908,None,,,,,,,,,,,,,,,,,,write,sing,white,174,14,358,1812.5180343999527,None,1812.5180343999527,None,2,0.8384529000613838,1812.5180343999527,None,1813.405083999969,None,1813.9255335000344,None,1813.9255335000344,None,n,0.9828765999991447,1813.9255335000344,None,,,NC_56,001,2022_May_05_1249,ProdSingRedo,3.2.3,59.98318069978884,
,,,,175,0,175,0,,,,,,,,,,,,,,,,,,,,,,,,1818.5361267998815,None,,,,,,,,,,,,,,,,,,listen,new_a,white,175,98,172,1815.4676866000518,None,1815.4676866000518,None,2,1.0966948000714183,1815.4676866000518,None,1816.591323300032,None,1817.10121169989,None,1817.10121169989,None,n,1.399467500159517,1817.10121169989,None,,,NC_56,001,2022_May_05_1249,ProdSingRedo,3.2.3,59.98318069978884,
,,,,176,0,176,0,,,,,,,,,,,,,,,,,,,,,,,,1823.4681726999115,None,,,,,,,,,,,,,,,,,,title,new_b,white,176,147,331,1819.061641599983,None,1819.061641599983,None,5,2.158826499944553,1819.061641599983,None,1821.2696674999315,None,1821.7888615999836,None,1821.7888615999836,None,f,1.6471660998649895,1821.7888615999836,None,,,NC_56,001,2022_May_05_1249,ProdSingRedo,3.2.3,59.98318069978884,
,,,,177,0,177,0,,,,,,,,,,,,,,,,,,,,,,,,1826.7001149000134,None,,,,,,,,,,,,,,,,,,smell,sing,white,177,24,291,1823.9833207000047,None,1823.9833207000047,None,6,1.493130899965763,1823.9833207000047,None,1825.5206633000635,None,1826.0399585000705,None,1826.0399585000705,None,f,0.6205213000066578,1826.0399585000705,None,,,NC_56,001,2022_May_05_1249,ProdSingRedo,3.2.3,59.98318069978884,
,,,,178,0,178,0,,,,,,,,,,,,,,,,,,,,,,,,1829.7273806000594,None,,,,,,,,,,,,,,,,,,motion,new_b,white,178,124,194,1827.2164559999947,None,1827.2164559999947,None,3,1.6918995999731123,1827.2164559999947,None,1828.9528212998994,None,1829.4728890000843,None,1829.4728890000843,None,f,0.2195625000167638,1829.4728890000843,None,,,NC_56,001,2022_May_05_1249,ProdSingRedo,3.2.3,59.98318069978884,
,,,,179,0,179,0,,,,,,,,,,,,,,,,,,,,,,,,1834.2466617000755,None,,,,,,,,,,,,,,,,,,curve,aloud,white,179,51,82,1830.2505121000577,None,1830.2505121000577,None,3,2.1299302999395877,1830.2505121000577,None,1832.4282819998916,None,1832.9486034999136,None,1832.9486034999136,None,n,1.2639370998367667,1832.9486034999136,None,,,NC_56,001,2022_May_05_1249,ProdSingRedo,3.2.3,59.98318069978884,
,,,,,,,,,,,,,,,,,,,,,,,,,,,,,,,,,,,,,,,,,,,,,,,,,,,,,,,,,,,,,,,,,,,,,,,,,,1834.7520778998733,None,,,,,,,
