StudyLoop.thisRepN,StudyLoop.thisTrialN,StudyLoop.thisN,StudyLoop.thisIndex,TestLoop.thisRepN,TestLoop.thisTrialN,TestLoop.thisN,TestLoop.thisIndex,textCondition.started,textCondition.stopped,keyCondition.keys,keyCondition.rt,keyCondition.started,keyCondition.stopped,Condition,stim_colors,color_sing,color_aloud,color_silent,textWelcome.started,textWelcome.stopped,keyWelcome.keys,keyWelcome.rt,keyWelcome.started,keyWelcome.stopped,textAloud.started,textAloud.stopped,textSilent.started,textSilent.stopped,textSing.started,textSing.stopped,textBlank500.started,textBlank500.stopped,study_word,study_type,study_color,study_num,study_word_num,textStudy.started,textStudy.stopped,keyStudy.keys,keyStudy.started,keyStudy.stopped,textTestInstructions.started,textTestInstructions.stopped,key_resp_3.keys,key_resp_3.rt,key_resp_3.started,key_resp_3.stopped,testWord,testType,testColor,testN,test_num,test_word_num,textConf.started,textConf.stopped,textConfScale.started,textConfScale.stopped,keyConf.keys,keyConf.rt,keyConf.started,keyConf.stopped,textTestBlank.started,textTestBlank.stopped,textRKN.started,textRKN.stopped,textRKNScale.started,textRKNScale.stopped,keyRKN.keys,keyRKN.rt,keyRKN.started,keyRKN.stopped,textEnd.started,textEnd.stopped,participant,session,date,expName,psychopyVersion,frameRate,
,,,,,,,,13.599195800023153,None,n,2.119775800034404,13.599195800023153,None,,,,,,,,,,,,,,,,,,,,,,,,,,,,,,,,,,,,,,,,,,,,,,,,,,,,,,,,,,,,,,NC_51,001,2022_May_03_1624,ProdSingRedo,3.2.3,59.92006663630907,
,,,,,,,,,,,,,,NeutralTest,"['yellow', 'red', 'blue']",yellow,red,blue,15.771787300007418,None,space,633.6114604000468,15.771787300007418,None,,,,,,,,,,,,,,,,,,,,,,,,,,,,,,,,,,,,,,,,,,,,,,,,,,,NC_51,001,2022_May_03_1624,ProdSingRedo,3.2.3,59.92006663630907,
0,0,0,0,,,,,,,,,,,,,,,,,,,,,,15.771787300007418,None,15.771787300007418,None,15.771787300007418,None,651.9193889999297,None,company,aloud,red,50,64,649.926654699957,None,None,649.926654699957,None,,,,,,,,,,,,,,,,,,,,,,,,,,,,,,,,,NC_51,001,2022_May_03_1624,ProdSingRedo,3.2.3,59.92006663630907,
1,0,1,0,,,,,,,,,,,,,,,,,,,,,,,,,,,,654.4351878000889,None,length,aloud,red,41,169,652.4335382001009,None,None,652.4335382001009,None,,,,,,,,,,,,,,,,,,,,,,,,,,,,,,,,,NC_51,001,2022_May_03_1624,ProdSingRedo,3.2.3,59.92006663630907,
2,0,2,0,,,,,,,,,,,,,,,,,,,,,,,,,,,,656.9530360000208,None,pressure,silent,blue,63,232,654.9522323999554,None,None,654.9522323999554,None,,,,,,,,,,,,,,,,,,,,,,,,,,,,,,,,,NC_51,001,2022_May_03_1624,ProdSingRedo,3.2.3,59.92006663630907,
3,0,3,0,,,,,,,,,,,,,,,,,,,,,,,,,,,,659.4699405999854,None,hearing,silent,blue,78,150,657.4702099999413,None,None,657.4702099999413,None,,,,,,,,,,,,,,,,,,,,,,,,,,,,,,,,,NC_51,001,2022_May_03_1624,ProdSingRedo,3.2.3,59.92006663630907,
4,0,4,0,,,,,,,,,,,,,,,,,,,,,,,,,,,,661.9854635000229,None,guest,aloud,red,45,146,659.98001820012,None,None,659.98001820012,None,,,,,,,,,,,,,,,,,,,,,,,,,,,,,,,,,NC_51,001,2022_May_03_1624,ProdSingRedo,3.2.3,59.92006663630907,
5,0,5,0,,,,,,,,,,,,,,,,,,,,,,,,,,,,664.5034920999315,None,leader,aloud,red,49,168,662.4980518000666,None,None,662.4980518000666,None,,,,,,,,,,,,,,,,,,,,,,,,,,,,,,,,,NC_51,001,2022_May_03_1624,ProdSingRedo,3.2.3,59.92006663630907,
6,0,6,0,,,,,,,,,,,,,,,,,,,,,,,,,,,,667.0203804001212,None,population,silent,blue,62,227,665.018504699925,None,None,665.018504699925,None,,,,,,,,,,,,,,,,,,,,,,,,,,,,,,,,,NC_51,001,2022_May_03_1624,ProdSingRedo,3.2.3,59.92006663630907,
7,0,7,0,,,,,,,,,,,,,,,,,,,,,,,,,,,,669.5357339000329,None,sleep,sing,yellow,4,290,667.5300255001057,None,None,667.5300255001057,None,,,,,,,,,,,,,,,,,,,,,,,,,,,,,,,,,NC_51,001,2022_May_03_1624,ProdSingRedo,3.2.3,59.92006663630907,
8,0,8,0,,,,,,,,,,,,,,,,,,,,,,,,,,,,672.0543281999417,None,under,silent,blue,70,343,670.0414911000989,None,None,670.0414911000989,None,,,,,,,,,,,,,,,,,,,,,,,,,,,,,,,,,NC_51,001,2022_May_03_1624,ProdSingRedo,3.2.3,59.92006663630907,
9,0,9,0,,,,,,,,,,,,,,,,,,,,,,,,,,,,674.5712777001318,None,research,silent,blue,66,261,672.5694206000771,None,None,672.5694206000771,None,,,,,,,,,,,,,,,,,,,,,,,,,,,,,,,,,NC_51,001,2022_May_03_1624,ProdSingRedo,3.2.3,59.92006663630907,
10,0,10,0,,,,,,,,,,,,,,,,,,,,,,,,,,,,677.0883855000138,None,rural,sing,yellow,1,269,675.08508790005,None,None,675.08508790005,None,,,,,,,,,,,,,,,,,,,,,,,,,,,,,,,,,NC_51,001,2022_May_03_1624,ProdSingRedo,3.2.3,59.92006663630907,
11,0,11,0,,,,,,,,,,,,,,,,,,,,,,,,,,,,679.6045169001445,None,chief,aloud,red,34,48,677.5995642000344,None,None,677.5995642000344,None,,,,,,,,,,,,,,,,,,,,,,,,,,,,,,,,,NC_51,001,2022_May_03_1624,ProdSingRedo,3.2.3,59.92006663630907,
12,0,12,0,,,,,,,,,,,,,,,,,,,,,,,,,,,,682.1214908999391,None,detective,silent,blue,88,92,680.1309360000305,None,None,680.1309360000305,None,,,,,,,,,,,,,,,,,,,,,,,,,,,,,,,,,NC_51,001,2022_May_03_1624,ProdSingRedo,3.2.3,59.92006663630907,
13,0,13,0,,,,,,,,,,,,,,,,,,,,,,,,,,,,684.6374278999865,None,distance,aloud,red,57,100,682.6412315999623,None,None,682.6412315999623,None,,,,,,,,,,,,,,,,,,,,,,,,,,,,,,,,,NC_51,001,2022_May_03_1624,ProdSingRedo,3.2.3,59.92006663630907,
14,0,14,0,,,,,,,,,,,,,,,,,,,,,,,,,,,,687.155221400084,None,rough,sing,yellow,26,266,685.1525151999667,None,None,685.1525151999667,None,,,,,,,,,,,,,,,,,,,,,,,,,,,,,,,,,NC_51,001,2022_May_03_1624,ProdSingRedo,3.2.3,59.92006663630907,
15,0,15,0,,,,,,,,,,,,,,,,,,,,,,,,,,,,689.6717707000207,None,junior,silent,blue,69,167,687.6747270000633,None,None,687.6747270000633,None,,,,,,,,,,,,,,,,,,,,,,,,,,,,,,,,,NC_51,001,2022_May_03_1624,ProdSingRedo,3.2.3,59.92006663630907,
16,0,16,0,,,,,,,,,,,,,,,,,,,,,,,,,,,,692.1886030000169,None,education,aloud,red,58,108,690.1864851000719,None,None,690.1864851000719,None,,,,,,,,,,,,,,,,,,,,,,,,,,,,,,,,,NC_51,001,2022_May_03_1624,ProdSingRedo,3.2.3,59.92006663630907,
17,0,17,0,,,,,,,,,,,,,,,,,,,,,,,,,,,,694.7055273000151,None,congress,sing,yellow,19,67,692.7070260001346,None,None,692.7070260001346,None,,,,,,,,,,,,,,,,,,,,,,,,,,,,,,,,,NC_51,001,2022_May_03_1624,ProdSingRedo,3.2.3,59.92006663630907,
18,0,18,0,,,,,,,,,,,,,,,,,,,,,,,,,,,,697.2227734001353,None,scale,sing,yellow,9,272,695.2180979000404,None,None,695.2180979000404,None,,,,,,,,,,,,,,,,,,,,,,,,,,,,,,,,,NC_51,001,2022_May_03_1624,ProdSingRedo,3.2.3,59.92006663630907,
19,0,19,0,,,,,,,,,,,,,,,,,,,,,,,,,,,,699.7379058999941,None,center,aloud,red,47,44,697.7321023000404,None,None,697.7321023000404,None,,,,,,,,,,,,,,,,,,,,,,,,,,,,,,,,,NC_51,001,2022_May_03_1624,ProdSingRedo,3.2.3,59.92006663630907,
20,0,20,0,,,,,,,,,,,,,,,,,,,,,,,,,,,,702.2559710000642,None,title,sing,yellow,20,331,700.2501207001042,None,None,700.2501207001042,None,,,,,,,,,,,,,,,,,,,,,,,,,,,,,,,,,NC_51,001,2022_May_03_1624,ProdSingRedo,3.2.3,59.92006663630907,
21,0,21,0,,,,,,,,,,,,,,,,,,,,,,,,,,,,704.7728361000773,None,vision,sing,yellow,27,347,702.7678086999804,None,None,702.7678086999804,None,,,,,,,,,,,,,,,,,,,,,,,,,,,,,,,,,NC_51,001,2022_May_03_1624,ProdSingRedo,3.2.3,59.92006663630907,
22,0,22,0,,,,,,,,,,,,,,,,,,,,,,,,,,,,707.2898945999332,None,scene,sing,yellow,13,273,705.2816516999155,None,None,705.2816516999155,None,,,,,,,,,,,,,,,,,,,,,,,,,,,,,,,,,NC_51,001,2022_May_03_1624,ProdSingRedo,3.2.3,59.92006663630907,
23,0,23,0,,,,,,,,,,,,,,,,,,,,,,,,,,,,709.8065387001261,None,election,aloud,red,39,109,707.801692500012,None,None,707.801692500012,None,,,,,,,,,,,,,,,,,,,,,,,,,,,,,,,,,NC_51,001,2022_May_03_1624,ProdSingRedo,3.2.3,59.92006663630907,
24,0,24,0,,,,,,,,,,,,,,,,,,,,,,,,,,,,712.3233101000078,None,quantity,sing,yellow,10,245,710.3167669000104,None,None,710.3167669000104,None,,,,,,,,,,,,,,,,,,,,,,,,,,,,,,,,,NC_51,001,2022_May_03_1624,ProdSingRedo,3.2.3,59.92006663630907,
25,0,25,0,,,,,,,,,,,,,,,,,,,,,,,,,,,,714.8405188000761,None,subject,silent,blue,65,312,712.8408838999458,None,None,712.8408838999458,None,,,,,,,,,,,,,,,,,,,,,,,,,,,,,,,,,NC_51,001,2022_May_03_1624,ProdSingRedo,3.2.3,59.92006663630907,
26,0,26,0,,,,,,,,,,,,,,,,,,,,,,,,,,,,717.3569867000915,None,hunger,silent,blue,89,155,715.3549852001015,None,None,715.3549852001015,None,,,,,,,,,,,,,,,,,,,,,,,,,,,,,,,,,NC_51,001,2022_May_03_1624,ProdSingRedo,3.2.3,59.92006663630907,
27,0,27,0,,,,,,,,,,,,,,,,,,,,,,,,,,,,719.8738595999312,None,article,aloud,red,40,11,717.8713976999279,None,None,717.8713976999279,None,,,,,,,,,,,,,,,,,,,,,,,,,,,,,,,,,NC_51,001,2022_May_03_1624,ProdSingRedo,3.2.3,59.92006663630907,
28,0,28,0,,,,,,,,,,,,,,,,,,,,,,,,,,,,722.3897466999479,None,sound,aloud,red,43,295,720.3864180999808,None,None,720.3864180999808,None,,,,,,,,,,,,,,,,,,,,,,,,,,,,,,,,,NC_51,001,2022_May_03_1624,ProdSingRedo,3.2.3,59.92006663630907,
29,0,29,0,,,,,,,,,,,,,,,,,,,,,,,,,,,,724.9091837999877,None,surface,sing,yellow,22,316,722.9091276000254,None,None,722.9091276000254,None,,,,,,,,,,,,,,,,,,,,,,,,,,,,,,,,,NC_51,001,2022_May_03_1624,ProdSingRedo,3.2.3,59.92006663630907,
30,0,30,0,,,,,,,,,,,,,,,,,,,,,,,,,,,,727.4242974999361,None,collection,silent,blue,67,54,725.4212909000926,None,None,725.4212909000926,None,,,,,,,,,,,,,,,,,,,,,,,,,,,,,,,,,NC_51,001,2022_May_03_1624,ProdSingRedo,3.2.3,59.92006663630907,
31,0,31,0,,,,,,,,,,,,,,,,,,,,,,,,,,,,729.9403397999704,None,break,silent,blue,85,26,727.9446823999751,None,None,727.9446823999751,None,,,,,,,,,,,,,,,,,,,,,,,,,,,,,,,,,NC_51,001,2022_May_03_1624,ProdSingRedo,3.2.3,59.92006663630907,
32,0,32,0,,,,,,,,,,,,,,,,,,,,,,,,,,,,732.4580991000403,None,fight,sing,yellow,8,127,730.4556341001298,None,None,730.4556341001298,None,,,,,,,,,,,,,,,,,,,,,,,,,,,,,,,,,NC_51,001,2022_May_03_1624,ProdSingRedo,3.2.3,59.92006663630907,
33,0,33,0,,,,,,,,,,,,,,,,,,,,,,,,,,,,734.9752362999134,None,frank,silent,blue,87,133,732.9724246999249,None,None,732.9724246999249,None,,,,,,,,,,,,,,,,,,,,,,,,,,,,,,,,,NC_51,001,2022_May_03_1624,ProdSingRedo,3.2.3,59.92006663630907,
34,0,34,0,,,,,,,,,,,,,,,,,,,,,,,,,,,,737.4916610000655,None,second,aloud,red,46,278,735.483901000116,None,None,735.483901000116,None,,,,,,,,,,,,,,,,,,,,,,,,,,,,,,,,,NC_51,001,2022_May_03_1624,ProdSingRedo,3.2.3,59.92006663630907,
35,0,35,0,,,,,,,,,,,,,,,,,,,,,,,,,,,,740.0088057999965,None,payment,aloud,red,44,215,738.0063497000374,None,None,738.0063497000374,None,,,,,,,,,,,,,,,,,,,,,,,,,,,,,,,,,NC_51,001,2022_May_03_1624,ProdSingRedo,3.2.3,59.92006663630907,
36,0,36,0,,,,,,,,,,,,,,,,,,,,,,,,,,,,742.5254069000948,None,clear,silent,blue,71,52,740.5211859000847,None,None,740.5211859000847,None,,,,,,,,,,,,,,,,,,,,,,,,,,,,,,,,,NC_51,001,2022_May_03_1624,ProdSingRedo,3.2.3,59.92006663630907,
37,0,37,0,,,,,,,,,,,,,,,,,,,,,,,,,,,,745.0411726001184,None,recall,sing,yellow,11,255,743.0395973999985,None,None,743.0395973999985,None,,,,,,,,,,,,,,,,,,,,,,,,,,,,,,,,,NC_51,001,2022_May_03_1624,ProdSingRedo,3.2.3,59.92006663630907,
38,0,38,0,,,,,,,,,,,,,,,,,,,,,,,,,,,,747.5424202999566,None,debate,sing,yellow,25,87,745.5410379001405,None,None,745.5410379001405,None,,,,,,,,,,,,,,,,,,,,,,,,,,,,,,,,,NC_51,001,2022_May_03_1624,ProdSingRedo,3.2.3,59.92006663630907,
39,0,39,0,,,,,,,,,,,,,,,,,,,,,,,,,,,,750.059586700052,None,personnel,silent,blue,77,219,748.0549511001445,None,None,748.0549511001445,None,,,,,,,,,,,,,,,,,,,,,,,,,,,,,,,,,NC_51,001,2022_May_03_1624,ProdSingRedo,3.2.3,59.92006663630907,
40,0,40,0,,,,,,,,,,,,,,,,,,,,,,,,,,,,752.5760160000063,None,executive,sing,yellow,15,122,750.5767707000487,None,None,750.5767707000487,None,,,,,,,,,,,,,,,,,,,,,,,,,,,,,,,,,NC_51,001,2022_May_03_1624,ProdSingRedo,3.2.3,59.92006663630907,
41,0,41,0,,,,,,,,,,,,,,,,,,,,,,,,,,,,755.0927067999728,None,principal,silent,blue,61,236,753.0935118999332,None,None,753.0935118999332,None,,,,,,,,,,,,,,,,,,,,,,,,,,,,,,,,,NC_51,001,2022_May_03_1624,ProdSingRedo,3.2.3,59.92006663630907,
42,0,42,0,,,,,,,,,,,,,,,,,,,,,,,,,,,,757.6099940000568,None,quarter,aloud,red,59,246,755.6091614000034,None,None,755.6091614000034,None,,,,,,,,,,,,,,,,,,,,,,,,,,,,,,,,,NC_51,001,2022_May_03_1624,ProdSingRedo,3.2.3,59.92006663630907,
43,0,43,0,,,,,,,,,,,,,,,,,,,,,,,,,,,,760.1265960999299,None,reach,aloud,red,51,253,758.1219939000439,None,None,758.1219939000439,None,,,,,,,,,,,,,,,,,,,,,,,,,,,,,,,,,NC_51,001,2022_May_03_1624,ProdSingRedo,3.2.3,59.92006663630907,
44,0,44,0,,,,,,,,,,,,,,,,,,,,,,,,,,,,762.6434174000751,None,profession,silent,blue,82,241,760.6450785999186,None,None,760.6450785999186,None,,,,,,,,,,,,,,,,,,,,,,,,,,,,,,,,,NC_51,001,2022_May_03_1624,ProdSingRedo,3.2.3,59.92006663630907,
45,0,45,0,,,,,,,,,,,,,,,,,,,,,,,,,,,,765.1603769001085,None,report,aloud,red,38,259,763.1548681999557,None,None,763.1548681999557,None,,,,,,,,,,,,,,,,,,,,,,,,,,,,,,,,,NC_51,001,2022_May_03_1624,ProdSingRedo,3.2.3,59.92006663630907,
46,0,46,0,,,,,,,,,,,,,,,,,,,,,,,,,,,,767.6766866999678,None,foundation,sing,yellow,3,132,765.6806699999142,None,None,765.6806699999142,None,,,,,,,,,,,,,,,,,,,,,,,,,,,,,,,,,NC_51,001,2022_May_03_1624,ProdSingRedo,3.2.3,59.92006663630907,
47,0,47,0,,,,,,,,,,,,,,,,,,,,,,,,,,,,770.193861000007,None,impact,sing,yellow,18,157,768.1912573999725,None,None,768.1912573999725,None,,,,,,,,,,,,,,,,,,,,,,,,,,,,,,,,,NC_51,001,2022_May_03_1624,ProdSingRedo,3.2.3,59.92006663630907,
48,0,48,0,,,,,,,,,,,,,,,,,,,,,,,,,,,,772.7112418999895,None,state,aloud,red,30,303,770.7064686999656,None,None,770.7064686999656,None,,,,,,,,,,,,,,,,,,,,,,,,,,,,,,,,,NC_51,001,2022_May_03_1624,ProdSingRedo,3.2.3,59.92006663630907,
49,0,49,0,,,,,,,,,,,,,,,,,,,,,,,,,,,,775.2274933001027,None,income,aloud,red,42,159,773.2199522999581,None,None,773.2199522999581,None,,,,,,,,,,,,,,,,,,,,,,,,,,,,,,,,,NC_51,001,2022_May_03_1624,ProdSingRedo,3.2.3,59.92006663630907,
50,0,50,0,,,,,,,,,,,,,,,,,,,,,,,,,,,,777.744443200063,None,safety,sing,yellow,7,270,775.7416924999561,None,None,775.7416924999561,None,,,,,,,,,,,,,,,,,,,,,,,,,,,,,,,,,NC_51,001,2022_May_03_1624,ProdSingRedo,3.2.3,59.92006663630907,
51,0,51,0,,,,,,,,,,,,,,,,,,,,,,,,,,,,780.2611855999567,None,heavy,aloud,red,54,151,778.2604578000028,None,None,778.2604578000028,None,,,,,,,,,,,,,,,,,,,,,,,,,,,,,,,,,NC_51,001,2022_May_03_1624,ProdSingRedo,3.2.3,59.92006663630907,
52,0,52,0,,,,,,,,,,,,,,,,,,,,,,,,,,,,782.7783993999474,None,trash,sing,yellow,24,337,780.7729452000931,None,None,780.7729452000931,None,,,,,,,,,,,,,,,,,,,,,,,,,,,,,,,,,NC_51,001,2022_May_03_1624,ProdSingRedo,3.2.3,59.92006663630907,
53,0,53,0,,,,,,,,,,,,,,,,,,,,,,,,,,,,785.2949002999812,None,strain,sing,yellow,21,308,783.2915467000566,None,None,783.2915467000566,None,,,,,,,,,,,,,,,,,,,,,,,,,,,,,,,,,NC_51,001,2022_May_03_1624,ProdSingRedo,3.2.3,59.92006663630907,
54,0,54,0,,,,,,,,,,,,,,,,,,,,,,,,,,,,787.8117867999244,None,bucket,silent,blue,73,33,785.8115608999506,None,None,785.8115608999506,None,,,,,,,,,,,,,,,,,,,,,,,,,,,,,,,,,NC_51,001,2022_May_03_1624,ProdSingRedo,3.2.3,59.92006663630907,
55,0,55,0,,,,,,,,,,,,,,,,,,,,,,,,,,,,790.3286423999816,None,meeting,aloud,red,36,187,788.3252960001118,None,None,788.3252960001118,None,,,,,,,,,,,,,,,,,,,,,,,,,,,,,,,,,NC_51,001,2022_May_03_1624,ProdSingRedo,3.2.3,59.92006663630907,
56,0,56,0,,,,,,,,,,,,,,,,,,,,,,,,,,,,792.8454992999323,None,school,silent,blue,76,274,790.8399621001445,None,None,790.8399621001445,None,,,,,,,,,,,,,,,,,,,,,,,,,,,,,,,,,NC_51,001,2022_May_03_1624,ProdSingRedo,3.2.3,59.92006663630907,
57,0,57,0,,,,,,,,,,,,,,,,,,,,,,,,,,,,795.3623967999592,None,territory,aloud,red,56,324,793.3609392000362,None,None,793.3609392000362,None,,,,,,,,,,,,,,,,,,,,,,,,,,,,,,,,,NC_51,001,2022_May_03_1624,ProdSingRedo,3.2.3,59.92006663630907,
58,0,58,0,,,,,,,,,,,,,,,,,,,,,,,,,,,,797.8793395000976,None,bicycle,aloud,red,48,21,795.878309099935,None,None,795.878309099935,None,,,,,,,,,,,,,,,,,,,,,,,,,,,,,,,,,NC_51,001,2022_May_03_1624,ProdSingRedo,3.2.3,59.92006663630907,
59,0,59,0,,,,,,,,,,,,,,,,,,,,,,,,,,,,800.3958511999808,None,concern,silent,blue,60,65,798.3894589000847,None,None,798.3894589000847,None,,,,,,,,,,,,,,,,,,,,,,,,,,,,,,,,,NC_51,001,2022_May_03_1624,ProdSingRedo,3.2.3,59.92006663630907,
60,0,60,0,,,,,,,,,,,,,,,,,,,,,,,,,,,,802.9126188999508,None,captain,sing,yellow,17,41,800.9138569000643,None,None,800.9138569000643,None,,,,,,,,,,,,,,,,,,,,,,,,,,,,,,,,,NC_51,001,2022_May_03_1624,ProdSingRedo,3.2.3,59.92006663630907,
61,0,61,0,,,,,,,,,,,,,,,,,,,,,,,,,,,,805.4298265001271,None,generation,silent,blue,80,136,803.4299582000822,None,None,803.4299582000822,None,,,,,,,,,,,,,,,,,,,,,,,,,,,,,,,,,NC_51,001,2022_May_03_1624,ProdSingRedo,3.2.3,59.92006663630907,
62,0,62,0,,,,,,,,,,,,,,,,,,,,,,,,,,,,807.9463913000654,None,drove,aloud,red,53,106,805.9421175001189,None,None,805.9421175001189,None,,,,,,,,,,,,,,,,,,,,,,,,,,,,,,,,,NC_51,001,2022_May_03_1624,ProdSingRedo,3.2.3,59.92006663630907,
63,0,63,0,,,,,,,,,,,,,,,,,,,,,,,,,,,,810.4633039999753,None,oxygen,silent,blue,75,209,808.4600903000683,None,None,808.4600903000683,None,,,,,,,,,,,,,,,,,,,,,,,,,,,,,,,,,NC_51,001,2022_May_03_1624,ProdSingRedo,3.2.3,59.92006663630907,
64,0,64,0,,,,,,,,,,,,,,,,,,,,,,,,,,,,812.9800865999423,None,series,aloud,red,31,279,810.9703848999925,None,None,810.9703848999925,None,,,,,,,,,,,,,,,,,,,,,,,,,,,,,,,,,NC_51,001,2022_May_03_1624,ProdSingRedo,3.2.3,59.92006663630907,
65,0,65,0,,,,,,,,,,,,,,,,,,,,,,,,,,,,815.4969846999738,None,defeat,silent,blue,74,88,813.4979012999684,None,None,813.4979012999684,None,,,,,,,,,,,,,,,,,,,,,,,,,,,,,,,,,NC_51,001,2022_May_03_1624,ProdSingRedo,3.2.3,59.92006663630907,
66,0,66,0,,,,,,,,,,,,,,,,,,,,,,,,,,,,818.0169307999313,None,express,sing,yellow,14,124,816.0067309001461,None,None,816.0067309001461,None,,,,,,,,,,,,,,,,,,,,,,,,,,,,,,,,,NC_51,001,2022_May_03_1624,ProdSingRedo,3.2.3,59.92006663630907,
67,0,67,0,,,,,,,,,,,,,,,,,,,,,,,,,,,,820.5307666999288,None,finish,sing,yellow,23,130,818.5265589000192,None,None,818.5265589000192,None,,,,,,,,,,,,,,,,,,,,,,,,,,,,,,,,,NC_51,001,2022_May_03_1624,ProdSingRedo,3.2.3,59.92006663630907,
68,0,68,0,,,,,,,,,,,,,,,,,,,,,,,,,,,,823.0475216999184,None,marriage,sing,yellow,5,179,821.0539041000884,None,None,821.0539041000884,None,,,,,,,,,,,,,,,,,,,,,,,,,,,,,,,,,NC_51,001,2022_May_03_1624,ProdSingRedo,3.2.3,59.92006663630907,
69,0,69,0,,,,,,,,,,,,,,,,,,,,,,,,,,,,825.5644680000842,None,comedy,sing,yellow,6,58,823.5640869000927,None,None,823.5640869000927,None,,,,,,,,,,,,,,,,,,,,,,,,,,,,,,,,,NC_51,001,2022_May_03_1624,ProdSingRedo,3.2.3,59.92006663630907,
70,0,70,0,,,,,,,,,,,,,,,,,,,,,,,,,,,,828.0811960999854,None,platform,sing,yellow,16,224,826.0827918001451,None,None,826.0827918001451,None,,,,,,,,,,,,,,,,,,,,,,,,,,,,,,,,,NC_51,001,2022_May_03_1624,ProdSingRedo,3.2.3,59.92006663630907,
71,0,71,0,,,,,,,,,,,,,,,,,,,,,,,,,,,,830.5981312000658,None,present,sing,yellow,29,231,828.5897461001296,None,None,828.5897461001296,None,,,,,,,,,,,,,,,,,,,,,,,,,,,,,,,,,NC_51,001,2022_May_03_1624,ProdSingRedo,3.2.3,59.92006663630907,
72,0,72,0,,,,,,,,,,,,,,,,,,,,,,,,,,,,833.1148075999226,None,order,aloud,red,55,207,831.106833799975,None,None,831.106833799975,None,,,,,,,,,,,,,,,,,,,,,,,,,,,,,,,,,NC_51,001,2022_May_03_1624,ProdSingRedo,3.2.3,59.92006663630907,
73,0,73,0,,,,,,,,,,,,,,,,,,,,,,,,,,,,835.6315290001221,None,edition,aloud,red,33,107,833.6259371999186,None,None,833.6259371999186,None,,,,,,,,,,,,,,,,,,,,,,,,,,,,,,,,,NC_51,001,2022_May_03_1624,ProdSingRedo,3.2.3,59.92006663630907,
74,0,74,0,,,,,,,,,,,,,,,,,,,,,,,,,,,,838.1486526001245,None,light,sing,yellow,12,171,836.1442485000007,None,None,836.1442485000007,None,,,,,,,,,,,,,,,,,,,,,,,,,,,,,,,,,NC_51,001,2022_May_03_1624,ProdSingRedo,3.2.3,59.92006663630907,
75,0,75,0,,,,,,,,,,,,,,,,,,,,,,,,,,,,840.6658356999978,None,suggestion,aloud,red,37,314,838.6648339999374,None,None,838.6648339999374,None,,,,,,,,,,,,,,,,,,,,,,,,,,,,,,,,,NC_51,001,2022_May_03_1624,ProdSingRedo,3.2.3,59.92006663630907,
76,0,76,0,,,,,,,,,,,,,,,,,,,,,,,,,,,,843.1821985000279,None,beauty,aloud,red,35,18,841.1832626000978,None,None,841.1832626000978,None,,,,,,,,,,,,,,,,,,,,,,,,,,,,,,,,,NC_51,001,2022_May_03_1624,ProdSingRedo,3.2.3,59.92006663630907,
77,0,77,0,,,,,,,,,,,,,,,,,,,,,,,,,,,,845.697594899917,None,range,silent,blue,81,251,843.698573499918,None,None,843.698573499918,None,,,,,,,,,,,,,,,,,,,,,,,,,,,,,,,,,NC_51,001,2022_May_03_1624,ProdSingRedo,3.2.3,59.92006663630907,
78,0,78,0,,,,,,,,,,,,,,,,,,,,,,,,,,,,848.2157549001276,None,south,silent,blue,64,296,846.2164197999518,None,None,846.2164197999518,None,,,,,,,,,,,,,,,,,,,,,,,,,,,,,,,,,NC_51,001,2022_May_03_1624,ProdSingRedo,3.2.3,59.92006663630907,
79,0,79,0,,,,,,,,,,,,,,,,,,,,,,,,,,,,850.7326958000194,None,industry,silent,blue,84,161,848.7323149999138,None,None,848.7323149999138,None,,,,,,,,,,,,,,,,,,,,,,,,,,,,,,,,,NC_51,001,2022_May_03_1624,ProdSingRedo,3.2.3,59.92006663630907,
80,0,80,0,,,,,,,,,,,,,,,,,,,,,,,,,,,,853.2495917000342,None,short,aloud,red,52,285,851.2425111001357,None,None,851.2425111001357,None,,,,,,,,,,,,,,,,,,,,,,,,,,,,,,,,,NC_51,001,2022_May_03_1624,ProdSingRedo,3.2.3,59.92006663630907,
81,0,81,0,,,,,,,,,,,,,,,,,,,,,,,,,,,,855.7663406999782,None,minor,sing,yellow,2,191,853.7593010999262,None,None,853.7593010999262,None,,,,,,,,,,,,,,,,,,,,,,,,,,,,,,,,,NC_51,001,2022_May_03_1624,ProdSingRedo,3.2.3,59.92006663630907,
82,0,82,0,,,,,,,,,,,,,,,,,,,,,,,,,,,,858.2831625000108,None,mankind,silent,blue,68,178,856.288387699984,None,None,856.288387699984,None,,,,,,,,,,,,,,,,,,,,,,,,,,,,,,,,,NC_51,001,2022_May_03_1624,ProdSingRedo,3.2.3,59.92006663630907,
83,0,83,0,,,,,,,,,,,,,,,,,,,,,,,,,,,,860.8000197000802,None,beginning,silent,blue,72,19,858.8029189000372,None,None,858.8029189000372,None,,,,,,,,,,,,,,,,,,,,,,,,,,,,,,,,,NC_51,001,2022_May_03_1624,ProdSingRedo,3.2.3,59.92006663630907,
84,0,84,0,,,,,,,,,,,,,,,,,,,,,,,,,,,,863.3171403000597,None,brief,sing,yellow,28,28,861.3173806001432,None,None,861.3173806001432,None,,,,,,,,,,,,,,,,,,,,,,,,,,,,,,,,,NC_51,001,2022_May_03_1624,ProdSingRedo,3.2.3,59.92006663630907,
85,0,85,0,,,,,,,,,,,,,,,,,,,,,,,,,,,,865.8337230000179,None,science,sing,yellow,0,275,863.8282312001102,None,None,863.8282312001102,None,,,,,,,,,,,,,,,,,,,,,,,,,,,,,,,,,NC_51,001,2022_May_03_1624,ProdSingRedo,3.2.3,59.92006663630907,
86,0,86,0,,,,,,,,,,,,,,,,,,,,,,,,,,,,868.3504620001186,None,phrase,silent,blue,79,220,866.335069200024,None,None,866.335069200024,None,,,,,,,,,,,,,,,,,,,,,,,,,,,,,,,,,NC_51,001,2022_May_03_1624,ProdSingRedo,3.2.3,59.92006663630907,
87,0,87,0,,,,,,,,,,,,,,,,,,,,,,,,,,,,870.8673817999661,None,quiet,silent,blue,83,249,868.8640968000982,None,None,868.8640968000982,None,,,,,,,,,,,,,,,,,,,,,,,,,,,,,,,,,NC_51,001,2022_May_03_1624,ProdSingRedo,3.2.3,59.92006663630907,
88,0,88,0,,,,,,,,,,,,,,,,,,,,,,,,,,,,873.3842770999763,None,write,silent,blue,86,358,871.3784793999512,None,None,871.3784793999512,None,,,,,,,,,,,,,,,,,,,,,,,,,,,,,,,,,NC_51,001,2022_May_03_1624,ProdSingRedo,3.2.3,59.92006663630907,
89,0,89,0,,,,,,,,,,,,,,,,,,,,,,,,,,,,875.901024900144,None,close,aloud,red,32,53,873.8926242000889,None,None,873.8926242000889,None,,,,,,,,,,,,,,,,,,,,,,,,,,,,,,,,,NC_51,001,2022_May_03_1624,ProdSingRedo,3.2.3,59.92006663630907,
,,,,,,,,,,,,,,,,,,,,,,,,,,,,,,,,,,,,,,,,,,,876.4009784001391,None,k,92.30122000002302,876.4009784001391,None,,,,,,,,,,,,,,,,,,,,,,,,,,,NC_51,001,2022_May_03_1624,ProdSingRedo,3.2.3,59.92006663630907,
,,,,0,0,0,0,,,,,,,,,,,,,,,,,,,,,,,,975.3006720999256,None,,,,,,,,,,,,,,,,,character,new_a,white,0,93,46,969.235737600131,None,969.235737600131,None,1,2.8987719998694956,969.235737600131,None,972.1865793000907,None,972.703801699914,None,972.703801699914,None,f,2.558823599945754,972.703801699914,None,,,NC_51,001,2022_May_03_1624,ProdSingRedo,3.2.3,59.92006663630907,
,,,,1,0,1,0,,,,,,,,,,,,,,,,,,,,,,,,982.6658024000935,None,,,,,,,,,,,,,,,,,government,new_c,white,1,167,139,975.8333159999456,None,975.8333159999456,None,1,3.6213962000329047,975.8333159999456,None,979.5060998999979,None,980.0222410999704,None,980.0222410999704,None,f,2.608236800180748,980.0222410999704,None,,,NC_51,001,2022_May_03_1624,ProdSingRedo,3.2.3,59.92006663630907,
,,,,2,0,2,0,,,,,,,,,,,,,,,,,,,,,,,,987.9671656000428,None,,,,,,,,,,,,,,,,,strain,sing,white,2,21,308,983.1930692000315,None,983.1930692000315,None,6,2.2854671999812126,983.1930692000315,None,985.5333563999739,None,986.0417067001108,None,986.0417067001108,None,r,1.8928040999453515,986.0417067001108,None,,,NC_51,001,2022_May_03_1624,ProdSingRedo,3.2.3,59.92006663630907,
,,,,3,0,3,0,,,,,,,,,,,,,,,,,,,,,,,,992.1868688999675,None,,,,,,,,,,,,,,,,,minor,sing,white,3,2,191,988.4919285001233,None,988.4919285001233,None,6,2.218683000188321,988.4919285001233,None,990.7689235999715,None,991.2828152000438,None,991.2828152000438,None,r,0.8759842999279499,991.2828152000438,None,,,NC_51,001,2022_May_03_1624,ProdSingRedo,3.2.3,59.92006663630907,
,,,,4,0,4,0,,,,,,,,,,,,,,,,,,,,,,,,997.0045569001231,None,,,,,,,,,,,,,,,,,style,new_c,white,4,166,311,992.7079680999741,None,992.7079680999741,None,1,2.098845599917695,992.7079680999741,None,994.8438311999198,None,995.3720833000261,None,995.3720833000261,None,n,1.5943522998131812,995.3720833000261,None,,,NC_51,001,2022_May_03_1624,ProdSingRedo,3.2.3,59.92006663630907,
,,,,5,0,5,0,,,,,,,,,,,,,,,,,,,,,,,,1001.4038462999742,None,,,,,,,,,,,,,,,,,meeting,aloud,white,5,36,187,997.5264159999788,None,997.5264159999788,None,6,2.1916934999171644,997.5264159999788,None,999.7499544001184,None,1000.2689859000966,None,1000.2689859000966,None,r,1.0975035999435931,1000.2689859000966,None,,,NC_51,001,2022_May_03_1624,ProdSingRedo,3.2.3,59.92006663630907,
,,,,6,0,6,0,,,,,,,,,,,,,,,,,,,,,,,,1005.960460399976,None,,,,,,,,,,,,,,,,,poetry,new_a,white,6,107,225,1001.9279388999566,None,1001.9279388999566,None,1,2.0634245998226106,1001.9279388999566,None,1004.0308485999703,None,1004.5558661001269,None,1004.5558661001269,None,n,1.3865342000499368,1004.5558661001269,None,,,NC_51,001,2022_May_03_1624,ProdSingRedo,3.2.3,59.92006663630907,
,,,,7,0,7,0,,,,,,,,,,,,,,,,,,,,,,,,1010.9550880999304,None,,,,,,,,,,,,,,,,,primary,new_c,white,7,171,234,1006.4774889999535,None,1006.4774889999535,None,1,2.7531358001288027,1006.4774889999535,None,1009.2783498000354,None,1009.809586700052,None,1009.809586700052,None,n,1.1089167001191527,1009.809586700052,None,,,NC_51,001,2022_May_03_1624,ProdSingRedo,3.2.3,59.92006663630907,
,,,,8,0,8,0,,,,,,,,,,,,,,,,,,,,,,,,1017.7856245001312,None,,,,,,,,,,,,,,,,,reach,aloud,white,8,51,253,1011.4787131999619,None,1011.4787131999619,None,6,4.775881699984893,1011.4787131999619,None,1016.2963902999181,None,1016.8224717001431,None,1016.8224717001431,None,r,0.9362787001300603,1016.8224717001431,None,,,NC_51,001,2022_May_03_1624,ProdSingRedo,3.2.3,59.92006663630907,
,,,,9,0,9,0,,,,,,,,,,,,,,,,,,,,,,,,1023.5698045999743,None,,,,,,,,,,,,,,,,,fashion,new_b,white,9,140,125,1018.3103116999846,None,1018.3103116999846,None,6,3.6801193000283092,1018.3103116999846,None,1022.0349312000908,None,1022.5569708000403,None,1022.5569708000403,None,r,0.985855600098148,1022.5569708000403,None,,,NC_51,001,2022_May_03_1624,ProdSingRedo,3.2.3,59.92006663630907,
,,,,10,0,10,0,,,,,,,,,,,,,,,,,,,,,,,,1030.3167894000653,None,,,,,,,,,,,,,,,,,working,new_b,white,10,125,357,1024.1017547000665,None,1024.1017547000665,None,1,3.5687698000110686,1024.1017547000665,None,1027.7212692000903,None,1028.2468213001266,None,1028.2468213001266,None,f,2.0472968998365104,1028.2468213001266,None,,,NC_51,001,2022_May_03_1624,ProdSingRedo,3.2.3,59.92006663630907,
,,,,11,0,11,0,,,,,,,,,,,,,,,,,,,,,,,,1036.7215871000662,None,,,,,,,,,,,,,,,,,republic,new_a,white,11,95,260,1030.830763099948,None,1030.830763099948,None,1,2.512049299897626,1030.830763099948,None,1033.3893093001097,None,1033.9092751999851,None,1033.9092751999851,None,n,2.7852348000742495,1033.9092751999851,None,,,NC_51,001,2022_May_03_1624,ProdSingRedo,3.2.3,59.92006663630907,
,,,,12,0,12,0,,,,,,,,,,,,,,,,,,,,,,,,1043.0540533999447,None,,,,,,,,,,,,,,,,,burden,new_b,white,12,137,36,1037.2512234000023,None,1037.2512234000023,None,1,3.5872573000378907,1037.2512234000023,None,1040.8867683999706,None,1041.408077100059,None,1041.408077100059,None,n,1.606477899942547,1041.408077100059,None,,,NC_51,001,2022_May_03_1624,ProdSingRedo,3.2.3,59.92006663630907,
,,,,13,0,13,0,,,,,,,,,,,,,,,,,,,,,,,,1046.2145364000462,None,,,,,,,,,,,,,,,,,couch,new_a,white,13,97,70,1043.5796145000495,None,1043.5796145000495,None,1,1.5474459000397474,1043.5796145000495,None,1045.170276900055,None,1045.6782863000408,None,1045.6782863000408,None,n,0.4960940000601113,1045.6782863000408,None,,,NC_51,001,2022_May_03_1624,ProdSingRedo,3.2.3,59.92006663630907,
,,,,14,0,14,0,,,,,,,,,,,,,,,,,,,,,,,,1052.4887910999823,None,,,,,,,,,,,,,,,,,taste,new_b,white,14,142,322,1046.7501781000756,None,1046.7501781000756,None,6,4.136287200031802,1046.7501781000756,None,1050.9402791999746,None,1051.464203899959,None,1051.464203899959,None,f,0.9983589998446405,1051.464203899959,None,,,NC_51,001,2022_May_03_1624,ProdSingRedo,3.2.3,59.92006663630907,
,,,,15,0,15,0,,,,,,,,,,,,,,,,,,,,,,,,1055.3876692000777,None,,,,,,,,,,,,,,,,,passage,new_b,white,15,120,212,1053.0195677999873,None,1053.0195677999873,None,1,1.2669156999327242,1053.0195677999873,None,1054.3398899999447,None,1054.8636511999648,None,1054.8636511999648,None,n,0.4868395000230521,1054.8636511999648,None,,,NC_51,001,2022_May_03_1624,ProdSingRedo,3.2.3,59.92006663630907,
,,,,16,0,16,0,,,,,,,,,,,,,,,,,,,,,,,,1060.2728685000911,None,,,,,,,,,,,,,,,,,season,new_b,white,16,139,277,1055.9148665000685,None,1055.9148665000685,None,1,2.955642100190744,1055.9148665000685,None,1058.9190529999323,None,1059.4286287000868,None,1059.4286287000868,None,n,0.8099544998258352,1059.4286287000868,None,,,NC_51,001,2022_May_03_1624,ProdSingRedo,3.2.3,59.92006663630907,
,,,,17,0,17,0,,,,,,,,,,,,,,,,,,,,,,,,1067.9548641000874,None,,,,,,,,,,,,,,,,,service,new_a,white,17,118,280,1060.7984255999327,None,1060.7984255999327,None,3,4.927950399927795,1060.7984255999327,None,1065.7734304999467,None,1066.293943699915,None,1066.293943699915,None,r,1.624670100165531,1066.293943699915,None,,,NC_51,001,2022_May_03_1624,ProdSingRedo,3.2.3,59.92006663630907,
,,,,18,0,18,0,,,,,,,,,,,,,,,,,,,,,,,,1074.706388700055,None,,,,,,,,,,,,,,,,,suggestion,aloud,white,18,37,314,1068.4843697999604,None,1068.4843697999604,None,6,3.922261399915442,1068.4843697999604,None,1072.4518500999548,None,1072.979479300091,None,1072.979479300091,None,r,1.6995647998992354,1072.979479300091,None,,,NC_51,001,2022_May_03_1624,ProdSingRedo,3.2.3,59.92006663630907,
,,,,19,0,19,0,,,,,,,,,,,,,,,,,,,,,,,,1077.623655400006,None,,,,,,,,,,,,,,,,,clear,silent,white,19,71,52,1075.2347079000901,None,1075.2347079000901,None,1,1.2678098999895155,1075.2347079000901,None,1076.556072599953,None,1077.0770670999773,None,1077.0770670999773,None,n,0.5216433999594301,1077.0770670999773,None,,,NC_51,001,2022_May_03_1624,ProdSingRedo,3.2.3,59.92006663630907,
,,,,20,0,20,0,,,,,,,,,,,,,,,,,,,,,,,,1084.7657000999898,None,,,,,,,,,,,,,,,,,worker,new_c,white,20,176,356,1078.1496228999458,None,1078.1496228999458,None,2,3.6408319000620395,1078.1496228999458,None,1081.8400753000751,None,1082.3651662999764,None,1082.3651662999764,None,f,2.3771346998400986,1082.3651662999764,None,,,NC_51,001,2022_May_03_1624,ProdSingRedo,3.2.3,59.92006663630907,
,,,,21,0,21,0,,,,,,,,,,,,,,,,,,,,,,,,1089.3640447000507,None,,,,,,,,,,,,,,,,,finish,sing,white,21,23,130,1085.2820163001306,None,1085.2820163001306,None,1,1.86860609985888,1085.2820163001306,None,1087.2052130000666,None,1087.724516800139,None,1087.724516800139,None,f,1.6095857999753207,1087.724516800139,None,,,NC_51,001,2022_May_03_1624,ProdSingRedo,3.2.3,59.92006663630907,
,,,,22,0,22,0,,,,,,,,,,,,,,,,,,,,,,,,1095.757150700083,None,,,,,,,,,,,,,,,,,drove,aloud,white,22,53,106,1089.8677397000138,None,1089.8677397000138,None,6,2.6984754998702556,1089.8677397000138,None,1092.5899112999905,None,1093.109039500123,None,1093.109039500123,None,r,2.6094583000522107,1093.109039500123,None,,,NC_51,001,2022_May_03_1624,ProdSingRedo,3.2.3,59.92006663630907,
,,,,23,0,23,0,,,,,,,,,,,,,,,,,,,,,,,,1100.5268997999374,None,,,,,,,,,,,,,,,,,state,aloud,white,23,30,303,1096.2790785999969,None,1096.2790785999969,None,5,2.6474951000418514,1096.2790785999969,None,1098.9700966000091,None,1099.4942789999768,None,1099.4942789999768,None,r,0.9922219999134541,1099.4942789999768,None,,,NC_51,001,2022_May_03_1624,ProdSingRedo,3.2.3,59.92006663630907,
,,,,24,0,24,0,,,,,,,,,,,,,,,,,,,,,,,,1103.2575222000014,None,,,,,,,,,,,,,,,,,oxygen,silent,white,24,75,209,1101.0508357000072,None,1101.0508357000072,None,1,1.1718281998764724,1101.0508357000072,None,1102.2740714999381,None,1102.7942582999822,None,1102.7942582999822,None,n,0.4282491998746991,1102.7942582999822,None,,,NC_51,001,2022_May_03_1624,ProdSingRedo,3.2.3,59.92006663630907,
,,,,25,0,25,0,,,,,,,,,,,,,,,,,,,,,,,,1105.8809031001292,None,,,,,,,,,,,,,,,,,machinery,new_c,white,25,163,175,1103.7862589999568,None,1103.7862589999568,None,1,1.172093299916014,1103.7862589999568,None,1105.0039069999475,None,1105.5295343000907,None,1105.5295343000907,None,n,0.3089701000135392,1105.5295343000907,None,,,NC_51,001,2022_May_03_1624,ProdSingRedo,3.2.3,59.92006663630907,
,,,,26,0,26,0,,,,,,,,,,,,,,,,,,,,,,,,1108.1585673000664,None,,,,,,,,,,,,,,,,,narrow,new_b,white,26,143,197,1106.402521100128,None,1106.402521100128,None,1,0.8520223998930305,1106.402521100128,None,1107.3064689000603,None,1107.8299362000544,None,1107.8299362000544,None,n,0.30454830010421574,1107.8299362000544,None,,,NC_51,001,2022_May_03_1624,ProdSingRedo,3.2.3,59.92006663630907,
,,,,27,0,27,0,,,,,,,,,,,,,,,,,,,,,,,,1112.8576559000649,None,,,,,,,,,,,,,,,,,express,sing,white,27,14,124,1108.680774900131,None,1108.680774900131,None,6,2.5816224000882357,1108.680774900131,None,1111.3011163000483,None,1111.8091802999843,None,1111.8091802999843,None,r,1.0133314998820424,1111.8091802999843,None,,,NC_51,001,2022_May_03_1624,ProdSingRedo,3.2.3,59.92006663630907,
,,,,28,0,28,0,,,,,,,,,,,,,,,,,,,,,,,,1118.0848584000487,None,,,,,,,,,,,,,,,,,region,new_c,white,28,156,256,1113.3843748001382,None,1113.3843748001382,None,3,3.3421808001585305,1113.3843748001382,None,1116.775457700016,None,1117.2960312999785,None,1117.2960312999785,None,f,0.7582930999342352,1117.2960312999785,None,,,NC_51,001,2022_May_03_1624,ProdSingRedo,3.2.3,59.92006663630907,
,,,,29,0,29,0,,,,,,,,,,,,,,,,,,,,,,,,1120.9267706000246,None,,,,,,,,,,,,,,,,,point,new_a,white,29,119,226,1118.5973728001118,None,1118.5973728001118,None,1,1.425020000198856,1118.5973728001118,None,1120.0515052000992,None,1120.5587657999713,None,1120.5587657999713,None,n,0.33572679990902543,1120.5587657999713,None,,,NC_51,001,2022_May_03_1624,ProdSingRedo,3.2.3,59.92006663630907,
,,,,30,0,30,0,,,,,,,,,,,,,,,,,,,,,,,,1126.9261755000334,None,,,,,,,,,,,,,,,,,personnel,silent,white,30,77,219,1121.4486694000661,None,1121.4486694000661,None,6,3.501926900120452,1121.4486694000661,None,1124.9842954999767,None,1125.493069200078,None,1125.493069200078,None,r,1.4014393999241292,1125.493069200078,None,,,NC_51,001,2022_May_03_1624,ProdSingRedo,3.2.3,59.92006663630907,
,,,,31,0,31,0,,,,,,,,,,,,,,,,,,,,,,,,1131.5274450001307,None,,,,,,,,,,,,,,,,,quantity,sing,white,31,10,245,1127.4570679001044,None,1127.4570679001044,None,6,3.157309499802068,1127.4570679001044,None,1130.6593881999142,None,1131.1826436999254,None,1131.1826436999254,None,r,0.31183690018951893,1131.1826436999254,None,,,NC_51,001,2022_May_03_1624,ProdSingRedo,3.2.3,59.92006663630907,
,,,,32,0,32,0,,,,,,,,,,,,,,,,,,,,,,,,1136.3092716000974,None,,,,,,,,,,,,,,,,,cross,new_c,white,32,173,80,1132.0474622000474,None,1132.0474622000474,None,3,2.8949561999179423,1132.0474622000474,None,1134.9886286000255,None,1135.509938400006,None,1135.509938400006,None,f,0.7603479998651892,1135.509938400006,None,,,NC_51,001,2022_May_03_1624,ProdSingRedo,3.2.3,59.92006663630907,
,,,,33,0,33,0,,,,,,,,,,,,,,,,,,,,,,,,1140.1608589000534,None,,,,,,,,,,,,,,,,,vision,sing,white,33,27,347,1136.8314376999624,None,1136.8314376999624,None,6,1.5110247998964041,1136.8314376999624,None,1138.3934530001134,None,1138.914215600118,None,1138.914215600118,None,f,1.2203837998677045,1138.914215600118,None,,,NC_51,001,2022_May_03_1624,ProdSingRedo,3.2.3,59.92006663630907,
,,,,34,0,34,0,,,,,,,,,,,,,,,,,,,,,,,,1143.6437548000831,None,,,,,,,,,,,,,,,,,guest,aloud,white,34,45,146,1140.6858403999358,None,1140.6858403999358,None,6,1.3365789998788387,1140.6858403999358,None,1142.074836899992,None,1142.596184400143,None,1142.596184400143,None,f,1.010339800035581,1142.596184400143,None,,,NC_51,001,2022_May_03_1624,ProdSingRedo,3.2.3,59.92006663630907,
,,,,35,0,35,0,,,,,,,,,,,,,,,,,,,,,,,,1146.9273805001285,None,,,,,,,,,,,,,,,,,department,new_a,white,35,90,90,1144.1727209999226,None,1144.1727209999226,None,3,1.8337997999042273,1144.1727209999226,None,1146.0591951999813,None,1146.5833773999475,None,1146.5833773999475,None,f,0.31094449991360307,1146.5833773999475,None,,,NC_51,001,2022_May_03_1624,ProdSingRedo,3.2.3,59.92006663630907,
,,,,36,0,36,0,,,,,,,,,,,,,,,,,,,,,,,,1149.7680776999332,None,,,,,,,,,,,,,,,,,safety,sing,white,36,7,270,1147.4513457000721,None,1147.4513457000721,None,6,1.3311333998572081,1147.4513457000721,None,1148.8264139001258,None,1149.3350386000238,None,1149.3350386000238,None,r,0.4152697999961674,1149.3350386000238,None,,,NC_51,001,2022_May_03_1624,ProdSingRedo,3.2.3,59.92006663630907,
,,,,37,0,37,0,,,,,,,,,,,,,,,,,,,,,,,,1153.7001803000458,None,,,,,,,,,,,,,,,,,south,silent,white,37,64,296,1150.286230900092,None,1150.286230900092,None,2,2.432358399964869,1150.286230900092,None,1152.7596015001182,None,1153.28523769998,None,1153.28523769998,None,r,0.3695255999919027,1153.28523769998,None,,,NC_51,001,2022_May_03_1624,ProdSingRedo,3.2.3,59.92006663630907,
,,,,38,0,38,0,,,,,,,,,,,,,,,,,,,,,,,,1156.6307691999245,None,,,,,,,,,,,,,,,,,husband,new_b,white,38,130,156,1154.213747800095,None,1154.213747800095,None,1,0.9767364000435919,1154.213747800095,None,1155.2502719999757,None,1155.7653946001083,None,1155.7653946001083,None,n,0.8330439000856131,1155.7653946001083,None,,,NC_51,001,2022_May_03_1624,ProdSingRedo,3.2.3,59.92006663630907,
,,,,39,0,39,0,,,,,,,,,,,,,,,,,,,,,,,,1160.677699800115,None,,,,,,,,,,,,,,,,,present,sing,white,39,29,231,1157.1552259000018,None,1157.1552259000018,None,6,2.283136400161311,1157.1552259000018,None,1159.490888700122,None,1160.012669299962,None,1160.012669299962,None,f,0.6417757999151945,1160.012669299962,None,,,NC_51,001,2022_May_03_1624,ProdSingRedo,3.2.3,59.92006663630907,
,,,,40,0,40,0,,,,,,,,,,,,,,,,,,,,,,,,1163.2291488000192,None,,,,,,,,,,,,,,,,,crisis,new_a,white,40,105,79,1161.200805600034,None,1161.200805600034,None,1,1.1342424999456853,1161.200805600034,None,1162.3749329999555,None,1162.8954314999282,None,1162.8954314999282,None,n,0.30317019997164607,1162.8954314999282,None,,,NC_51,001,2022_May_03_1624,ProdSingRedo,3.2.3,59.92006663630907,
,,,,41,0,41,0,,,,,,,,,,,,,,,,,,,,,,,,1167.4120263999794,None,,,,,,,,,,,,,,,,,second,aloud,white,41,46,278,1163.75146639999,None,1163.75146639999,None,6,2.4389539000112563,1163.75146639999,None,1166.24031010014,None,1166.7540229000151,None,1166.7540229000151,None,n,0.6206819999497384,1166.7540229000151,None,,,NC_51,001,2022_May_03_1624,ProdSingRedo,3.2.3,59.92006663630907,
,,,,42,0,42,0,,,,,,,,,,,,,,,,,,,,,,,,1173.3466868000105,None,,,,,,,,,,,,,,,,,match,new_b,white,42,148,181,1167.936636300059,None,1167.936636300059,None,1,3.9417821001261473,1167.936636300059,None,1171.9271464000922,None,1172.4476066001225,None,1172.4476066001225,None,n,0.8711571998428553,1172.4476066001225,None,,,NC_51,001,2022_May_03_1624,ProdSingRedo,3.2.3,59.92006663630907,
,,,,43,0,43,0,,,,,,,,,,,,,,,,,,,,,,,,1176.9826885999646,None,,,,,,,,,,,,,,,,,benefit,new_a,white,43,96,20,1173.8769062999636,None,1173.8769062999636,None,6,1.65781160001643,1173.8769062999636,None,1175.580699800048,None,1176.1034437001217,None,1176.1034437001217,None,r,0.8470224998891354,1176.1034437001217,None,,,NC_51,001,2022_May_03_1624,ProdSingRedo,3.2.3,59.92006663630907,
,,,,44,0,44,0,,,,,,,,,,,,,,,,,,,,,,,,1180.9129560000729,None,,,,,,,,,,,,,,,,,quarter,aloud,white,44,59,246,1177.5075096001383,None,1177.5075096001383,None,2,2.130604400066659,1177.5075096001383,None,1179.6628527999856,None,1180.1823136999737,None,1180.1823136999737,None,f,0.7043238999322057,1180.1823136999737,None,,,NC_51,001,2022_May_03_1624,ProdSingRedo,3.2.3,59.92006663630907,
,,,,45,0,45,0,,,,,,,,,,,,,,,,,,,,,,,,1186.6973916001152,None,,,,,,,,,,,,,,,,,audience,new_a,white,45,92,14,1181.4388464000076,None,1181.4388464000076,None,4,3.895568600157276,1181.4388464000076,None,1185.3735476001166,None,1185.9001859000418,None,1185.9001859000418,None,r,0.7703315999824554,1185.9001859000418,None,,,NC_51,001,2022_May_03_1624,ProdSingRedo,3.2.3,59.92006663630907,
,,,,46,0,46,0,,,,,,,,,,,,,,,,,,,,,,,,1190.8261790000834,None,,,,,,,,,,,,,,,,,hearing,silent,white,46,78,150,1187.226576199988,None,1187.226576199988,None,6,2.5879805001895875,1187.226576199988,None,1189.8655220000073,None,1190.3838760000654,None,1190.3838760000654,None,r,0.4144017999060452,1190.3838760000654,None,,,NC_51,001,2022_May_03_1624,ProdSingRedo,3.2.3,59.92006663630907,
,,,,47,0,47,0,,,,,,,,,,,,,,,,,,,,,,,,1193.2137239000294,None,,,,,,,,,,,,,,,,,blind,new_a,white,47,101,24,1191.3559840000235,None,1191.3559840000235,None,1,1.0424514000769705,1191.3559840000235,None,1192.4437373001128,None,1192.9684470000211,None,1192.9684470000211,None,n,0.20612600003369153,1192.9684470000211,None,,,NC_51,001,2022_May_03_1624,ProdSingRedo,3.2.3,59.92006663630907,
,,,,48,0,48,0,,,,,,,,,,,,,,,,,,,,,,,,1197.006913300138,None,,,,,,,,,,,,,,,,,defeat,silent,white,48,74,88,1193.7396951001137,None,1193.7396951001137,None,3,2.186907200142741,1193.7396951001137,None,1195.981042600004,None,1196.5029241999146,None,1196.5029241999146,None,n,0.4713983000256121,1196.5029241999146,None,,,NC_51,001,2022_May_03_1624,ProdSingRedo,3.2.3,59.92006663630907,
,,,,49,0,49,0,,,,,,,,,,,,,,,,,,,,,,,,1200.0237100999802,None,,,,,,,,,,,,,,,,,range,silent,white,49,81,251,1197.5222843000665,None,1197.5222843000665,None,6,1.5402226999867707,1197.5222843000665,None,1199.1113317999989,None,1199.636884599924,None,1199.636884599924,None,r,0.36941320006735623,1199.636884599924,None,,,NC_51,001,2022_May_03_1624,ProdSingRedo,3.2.3,59.92006663630907,
,,,,50,0,50,0,,,,,,,,,,,,,,,,,,,,,,,,1204.131938100094,None,,,,,,,,,,,,,,,,,generation,silent,white,50,80,136,1200.5436295000836,None,1200.5436295000836,None,4,2.2788721998222172,1200.5436295000836,None,1202.8625143999234,None,1203.3882836000994,None,1203.3882836000994,None,f,0.714137899922207,1203.3882836000994,None,,,NC_51,001,2022_May_03_1624,ProdSingRedo,3.2.3,59.92006663630907,
,,,,51,0,51,0,,,,,,,,,,,,,,,,,,,,,,,,1207.8834820999764,None,,,,,,,,,,,,,,,,,scale,sing,white,51,9,272,1204.66051289998,None,1204.66051289998,None,5,2.1378999000880867,1204.66051289998,None,1206.8470868000295,None,1207.3707201001234,None,1207.3707201001234,None,r,0.48403079994022846,1207.3707201001234,None,,,NC_51,001,2022_May_03_1624,ProdSingRedo,3.2.3,59.92006663630907,
,,,,52,0,52,0,,,,,,,,,,,,,,,,,,,,,,,,1212.7345179999247,None,,,,,,,,,,,,,,,,,revolution,new_c,white,52,152,264,1208.4183970999438,None,1208.4183970999438,None,3,2.852885799948126,1208.4183970999438,None,1211.3198798999656,None,1211.8409653001,None,1211.8409653001,None,r,0.8614296999294311,1211.8409653001,None,,,NC_51,001,2022_May_03_1624,ProdSingRedo,3.2.3,59.92006663630907,
,,,,53,0,53,0,,,,,,,,,,,,,,,,,,,,,,,,1216.4188377999235,None,,,,,,,,,,,,,,,,,comedy,sing,white,53,6,58,1213.2578680999577,None,1213.2578680999577,None,5,1.9563927999697626,1213.2578680999577,None,1215.2574096000753,None,1215.7673486999702,None,1215.7673486999702,None,f,0.6152409999631345,1215.7673486999702,None,,,NC_51,001,2022_May_03_1624,ProdSingRedo,3.2.3,59.92006663630907,
,,,,54,0,54,0,,,,,,,,,,,,,,,,,,,,,,,,1220.852945700055,None,,,,,,,,,,,,,,,,,brief,sing,white,54,28,28,1216.9431304999162,None,1216.9431304999162,None,6,1.6712378000374883,1216.9431304999162,None,1218.6652210999746,None,1219.185802699998,None,1219.185802699998,None,f,1.636798100080341,1219.185802699998,None,,,NC_51,001,2022_May_03_1624,ProdSingRedo,3.2.3,59.92006663630907,
,,,,55,0,55,0,,,,,,,,,,,,,,,,,,,,,,,,1223.7988831999246,None,,,,,,,,,,,,,,,,,chief,aloud,white,55,34,48,1221.373045100132,None,1221.373045100132,None,1,1.2094093998894095,1221.373045100132,None,1222.6293496999424,None,1223.1534090000205,None,1223.1534090000205,None,f,0.6212979000993073,1223.1534090000205,None,,,NC_51,001,2022_May_03_1624,ProdSingRedo,3.2.3,59.92006663630907,
,,,,56,0,56,0,,,,,,,,,,,,,,,,,,,,,,,,1226.36687300005,None,,,,,,,,,,,,,,,,,still,new_a,white,56,106,304,1224.3214336000383,None,1224.3214336000383,None,1,1.1332241999916732,1224.3214336000383,None,1225.4937696999405,None,1226.0172919000033,None,1226.0172919000033,None,n,0.31716959993354976,1226.0172919000033,None,,,NC_51,001,2022_May_03_1624,ProdSingRedo,3.2.3,59.92006663630907,
,,,,57,0,57,0,,,,,,,,,,,,,,,,,,,,,,,,1229.034432800021,None,,,,,,,,,,,,,,,,,drink,new_a,white,57,110,105,1226.8885955000296,None,1226.8885955000296,None,1,1.2777756000868976,1226.8885955000296,None,1228.210908500012,None,1228.7271674999502,None,1228.7271674999502,None,n,0.27950410009361804,1228.7271674999502,None,,,NC_51,001,2022_May_03_1624,ProdSingRedo,3.2.3,59.92006663630907,
,,,,58,0,58,0,,,,,,,,,,,,,,,,,,,,,,,,1231.2337211000267,None,,,,,,,,,,,,,,,,,article,aloud,white,58,40,11,1229.5572991000954,None,1229.5572991000954,None,1,0.8892438998445868,1229.5572991000954,None,1230.4917566999793,None,1231.0013085999526,None,1231.0013085999526,None,n,0.19710169988684356,1231.0013085999526,None,,,NC_51,001,2022_May_03_1624,ProdSingRedo,3.2.3,59.92006663630907,
,,,,59,0,59,0,,,,,,,,,,,,,,,,,,,,,,,,1234.751326699974,None,,,,,,,,,,,,,,,,,research,silent,white,59,66,261,1231.760280800052,None,1231.760280800052,None,1,2.1421817000955343,1231.760280800052,None,1233.9500716999173,None,1234.4636379999574,None,1234.4636379999574,None,n,0.26279589999467134,1234.4636379999574,None,,,NC_51,001,2022_May_03_1624,ProdSingRedo,3.2.3,59.92006663630907,
,,,,60,0,60,0,,,,,,,,,,,,,,,,,,,,,,,,1237.2666939999908,None,,,,,,,,,,,,,,,,,dozen,new_b,white,60,141,102,1235.2821166000795,None,1235.2821166000795,None,1,1.0764961000531912,1235.2821166000795,None,1236.3991239999887,None,1236.9217797000892,None,1236.9217797000892,None,n,0.3088289999868721,1236.9217797000892,None,,,NC_51,001,2022_May_03_1624,ProdSingRedo,3.2.3,59.92006663630907,
,,,,61,0,61,0,,,,,,,,,,,,,,,,,,,,,,,,1241.202170399949,None,,,,,,,,,,,,,,,,,device,new_b,white,61,144,93,1237.7936430999544,None,1237.7936430999544,None,1,2.3005084998439997,1237.7936430999544,None,1240.1319548001047,None,1240.6525686001405,None,1240.6525686001405,None,n,0.5221184999682009,1240.6525686001405,None,,,NC_51,001,2022_May_03_1624,ProdSingRedo,3.2.3,59.92006663630907,
,,,,62,0,62,0,,,,,,,,,,,,,,,,,,,,,,,,1247.0181448999792,None,,,,,,,,,,,,,,,,,speech,new_b,white,62,138,298,1241.724647999974,None,1241.724647999974,None,5,3.505965300137177,1241.724647999974,None,1245.2780450000428,None,1245.8024913000409,None,1245.8024913000409,None,r,1.1882452999707311,1245.8024913000409,None,,,NC_51,001,2022_May_03_1624,ProdSingRedo,3.2.3,59.92006663630907,
,,,,63,0,63,0,,,,,,,,,,,,,,,,,,,,,,,,1251.5273643999826,None,,,,,,,,,,,,,,,,,majority,new_b,white,63,132,176,1247.547478799941,None,1247.547478799941,None,3,2.995084300171584,1247.547478799941,None,1250.5865301000886,None,1251.1121366999578,None,1251.1121366999578,None,n,0.3820557000581175,1251.1121366999578,None,,,NC_51,001,2022_May_03_1624,ProdSingRedo,3.2.3,59.92006663630907,
,,,,64,0,64,0,,,,,,,,,,,,,,,,,,,,,,,,1254.8508475001436,None,,,,,,,,,,,,,,,,,concern,silent,white,64,60,65,1252.0566128999926,None,1252.0566128999926,None,3,1.7180828999262303,1252.0566128999926,None,1253.8141139999498,None,1254.3342375999782,None,1254.3342375999782,None,n,0.48034750018268824,1254.3342375999782,None,,,NC_51,001,2022_May_03_1624,ProdSingRedo,3.2.3,59.92006663630907,
,,,,65,0,65,0,,,,,,,,,,,,,,,,,,,,,,,,1258.5530348999891,None,,,,,,,,,,,,,,,,,rough,sing,white,65,26,266,1255.377160999924,None,1255.377160999924,None,4,1.9653402999974787,1255.377160999924,None,1257.3837856999598,None,1257.9048467001412,None,1257.9048467001412,None,n,0.6216476999688894,1257.9048467001412,None,,,NC_51,001,2022_May_03_1624,ProdSingRedo,3.2.3,59.92006663630907,
,,,,66,0,66,0,,,,,,,,,,,,,,,,,,,,,,,,1264.6684266999364,None,,,,,,,,,,,,,,,,,nation,new_c,white,66,175,198,1259.0769251999445,None,1259.0769251999445,None,2,4.241464200196788,1259.0769251999445,None,1263.366523399949,None,1263.8890643001068,None,1263.8890643001068,None,n,0.7414215998724103,1263.8890643001068,None,,,NC_51,001,2022_May_03_1624,ProdSingRedo,3.2.3,59.92006663630907,
,,,,67,0,67,0,,,,,,,,,,,,,,,,,,,,,,,,1268.2694534999318,None,,,,,,,,,,,,,,,,,nature,new_c,white,67,162,200,1265.1962466000114,None,1265.1962466000114,None,3,1.9941769000142813,1265.1962466000114,None,1267.238513499964,None,1267.7574444999918,None,1267.7574444999918,None,n,0.4809894999489188,1267.7574444999918,None,,,NC_51,001,2022_May_03_1624,ProdSingRedo,3.2.3,59.92006663630907,
,,,,68,0,68,0,,,,,,,,,,,,,,,,,,,,,,,,1271.1359508999158,None,,,,,,,,,,,,,,,,,junior,silent,white,68,69,167,1268.7958162000868,None,1268.7958162000868,None,1,1.4987615998834372,1268.7958162000868,None,1270.3307366999798,None,1270.8579540001228,None,1270.8579540001228,None,n,0.24453829997219145,1270.8579540001228,None,,,NC_51,001,2022_May_03_1624,ProdSingRedo,3.2.3,59.92006663630907,
,,,,69,0,69,0,,,,,,,,,,,,,,,,,,,,,,,,1273.3539835999254,None,,,,,,,,,,,,,,,,,column,new_c,white,69,177,57,1271.6631275999825,None,1271.6631275999825,None,1,0.815538999857381,1271.6631275999825,None,1272.5247484000865,None,1273.0423157999758,None,1273.0423157999758,None,n,0.27605869993567467,1273.0423157999758,None,,,NC_51,001,2022_May_03_1624,ProdSingRedo,3.2.3,59.92006663630907,
,,,,70,0,70,0,,,,,,,,,,,,,,,,,,,,,,,,1275.4700202001259,None,,,,,,,,,,,,,,,,,hunger,silent,white,70,89,155,1273.8882500000764,None,1273.8882500000764,None,1,0.7021238999441266,1273.8882500000764,None,1274.6306861001067,None,1275.1583865000866,None,1275.1583865000866,None,n,0.28805539989843965,1275.1583865000866,None,,,NC_51,001,2022_May_03_1624,ProdSingRedo,3.2.3,59.92006663630907,
,,,,71,0,71,0,,,,,,,,,,,,,,,,,,,,,,,,1278.6210962999612,None,,,,,,,,,,,,,,,,,bicycle,aloud,white,71,48,21,1275.9999297999311,None,1275.9999297999311,None,6,1.7347200999502093,1275.9999297999311,None,1277.789183099987,None,1278.3086813001428,None,1278.3086813001428,None,r,0.2817077999934554,1278.3086813001428,None,,,NC_51,001,2022_May_03_1624,ProdSingRedo,3.2.3,59.92006663630907,
,,,,72,0,72,0,,,,,,,,,,,,,,,,,,,,,,,,1283.5861707001459,None,,,,,,,,,,,,,,,,,material,new_b,white,72,134,182,1279.1471520001069,None,1279.1471520001069,None,1,2.979615499963984,1279.1471520001069,None,1282.1720297001302,None,1282.6945915999822,None,1282.6945915999822,None,f,0.8559016999788582,1282.6945915999822,None,,,NC_51,001,2022_May_03_1624,ProdSingRedo,3.2.3,59.92006663630907,
,,,,73,0,73,0,,,,,,,,,,,,,,,,,,,,,,,,1286.2041226001456,None,,,,,,,,,,,,,,,,,question,new_a,white,73,102,247,1284.115036400035,None,1284.115036400035,None,1,1.2193879999686033,1284.115036400035,None,1285.3856329999398,None,1285.912889600033,None,1285.912889600033,None,n,0.2615028000436723,1285.912889600033,None,,,NC_51,001,2022_May_03_1624,ProdSingRedo,3.2.3,59.92006663630907,
,,,,74,0,74,0,,,,,,,,,,,,,,,,,,,,,,,,1291.2049938000273,None,,,,,,,,,,,,,,,,,education,aloud,white,74,58,108,1286.733231900027,None,1286.733231900027,None,6,3.585304500069469,1286.733231900027,None,1290.3710900000297,None,1290.8809573000763,None,1290.8809573000763,None,r,0.293426200048998,1290.8809573000763,None,,,NC_51,001,2022_May_03_1624,ProdSingRedo,3.2.3,59.92006663630907,
,,,,75,0,75,0,,,,,,,,,,,,,,,,,,,,,,,,1295.2258918001316,None,,,,,,,,,,,,,,,,,series,aloud,white,75,31,279,1291.7275684999768,None,1291.7275684999768,None,6,2.591006999835372,1291.7275684999768,None,1294.3619673000649,None,1294.8712555000093,None,1294.8712555000093,None,r,0.3111767000518739,1294.8712555000093,None,,,NC_51,001,2022_May_03_1624,ProdSingRedo,3.2.3,59.92006663630907,
,,,,76,0,76,0,,,,,,,,,,,,,,,,,,,,,,,,1300.0891088000499,None,,,,,,,,,,,,,,,,,write,silent,white,76,86,358,1295.7451454000548,None,1295.7451454000548,None,6,2.91740889986977,1295.7451454000548,None,1298.70316429995,None,1299.2138499999419,None,1299.2138499999419,None,f,0.8403657001908869,1299.2138499999419,None,,,NC_51,001,2022_May_03_1624,ProdSingRedo,3.2.3,59.92006663630907,
,,,,77,0,77,0,,,,,,,,,,,,,,,,,,,,,,,,1303.5555847000796,None,,,,,,,,,,,,,,,,,payment,aloud,white,77,44,215,1300.6144928000867,None,1300.6144928000867,None,3,2.01596220000647,1300.6144928000867,None,1302.66894220002,None,1303.1923020000104,None,1303.1923020000104,None,n,0.334567999932915,1303.1923020000104,None,,,NC_51,001,2022_May_03_1624,ProdSingRedo,3.2.3,59.92006663630907,
,,,,78,0,78,0,,,,,,,,,,,,,,,,,,,,,,,,1307.5558845999185,None,,,,,,,,,,,,,,,,,answer,new_b,white,78,123,8,1304.0792767999228,None,1304.0792767999228,None,4,2.0318238001782447,1304.0792767999228,None,1306.1546207999345,None,1306.676649699919,None,1306.676649699919,None,f,0.8497707999777049,1306.676649699919,None,,,NC_51,001,2022_May_03_1624,ProdSingRedo,3.2.3,59.92006663630907,
,,,,79,0,79,0,,,,,,,,,,,,,,,,,,,,,,,,1310.723616400035,None,,,,,,,,,,,,,,,,,disease,new_a,white,79,91,97,1308.0821921001188,None,1308.0821921001188,None,1,1.7082356999162585,1308.0821921001188,None,1309.8391470999923,None,1310.3541576999705,None,1310.3541576999705,None,n,0.3324742999393493,1310.3541576999705,None,,,NC_51,001,2022_May_03_1624,ProdSingRedo,3.2.3,59.92006663630907,
,,,,80,0,80,0,,,,,,,,,,,,,,,,,,,,,,,,1314.7752376000863,None,,,,,,,,,,,,,,,,,atmosphere,new_c,white,80,155,12,1311.2489593999926,None,1311.2489593999926,None,6,2.1815555000212044,1311.2489593999926,None,1313.4695761001203,None,1313.992479500128,None,1313.992479500128,None,f,0.7498741000890732,1313.992479500128,None,,,NC_51,001,2022_May_03_1624,ProdSingRedo,3.2.3,59.92006663630907,
,,,,81,0,81,0,,,,,,,,,,,,,,,,,,,,,,,,1317.2564090001397,None,,,,,,,,,,,,,,,,,bucket,silent,white,81,73,33,1315.301373100141,None,1315.301373100141,None,1,1.2090859001036733,1315.301373100141,None,1316.558202299988,None,1317.0774676001165,None,1317.0774676001165,None,n,0.15299990004859865,1317.0774676001165,None,,,NC_51,001,2022_May_03_1624,ProdSingRedo,3.2.3,59.92006663630907,
,,,,82,0,82,0,,,,,,,,,,,,,,,,,,,,,,,,1319.4607079001144,None,,,,,,,,,,,,,,,,,tragedy,new_b,white,82,133,335,1317.7835101000965,None,1317.7835101000965,None,1,0.9428751999512315,1317.7835101000965,None,1318.7722052000463,None,1319.2912481999956,None,1319.2912481999956,None,n,0.13115419982932508,1319.2912481999956,None,,,NC_51,001,2022_May_03_1624,ProdSingRedo,3.2.3,59.92006663630907,
,,,,83,0,83,0,,,,,,,,,,,,,,,,,,,,,,,,1325.55652260012,None,,,,,,,,,,,,,,,,,prime,new_b,white,83,136,235,1319.9830756001174,None,1319.9830756001174,None,3,4.823359600035474,1319.9830756001174,None,1324.851554499939,None,1325.3720484001096,None,1325.3720484001096,None,n,0.14633190003223717,1325.3720484001096,None,,,NC_51,001,2022_May_03_1624,ProdSingRedo,3.2.3,59.92006663630907,
,,,,84,0,84,0,,,,,,,,,,,,,,,,,,,,,,,,1330.5400459999219,None,,,,,,,,,,,,,,,,,suspect,new_b,white,84,121,318,1326.0829221999738,None,1326.0829221999738,None,3,3.4350839001126587,1326.0829221999738,None,1329.5489072001074,None,1330.0649695999455,None,1330.0649695999455,None,n,0.4454214000143111,1330.0649695999455,None,,,NC_51,001,2022_May_03_1624,ProdSingRedo,3.2.3,59.92006663630907,
,,,,85,0,85,0,,,,,,,,,,,,,,,,,,,,,,,,1332.8067475999705,None,,,,,,,,,,,,,,,,,frank,silent,white,85,87,133,1331.0692144001368,None,1331.0692144001368,None,1,1.0970081000123173,1331.0692144001368,None,1332.208432600135,None,1332.7313463001046,None,1332.7313463001046,None,n,0.04306769999675453,1332.7313463001046,None,,,NC_51,001,2022_May_03_1624,ProdSingRedo,3.2.3,59.92006663630907,
,,,,86,0,86,0,,,,,,,,,,,,,,,,,,,,,,,,1336.0573412000667,None,,,,,,,,,,,,,,,,,distance,aloud,white,86,57,100,1333.3219777001068,None,1333.3219777001068,None,6,1.5723941999021918,1333.3219777001068,None,1334.9404007000849,None,1335.4593831000384,None,1335.4593831000384,None,r,0.5629720001015812,1335.4593831000384,None,,,NC_51,001,2022_May_03_1624,ProdSingRedo,3.2.3,59.92006663630907,
,,,,87,0,87,0,,,,,,,,,,,,,,,,,,,,,,,,1338.7817071001045,None,,,,,,,,,,,,,,,,,guide,new_c,white,87,168,147,1336.5808472000062,None,1336.5808472000062,None,1,1.3054829998873174,1336.5808472000062,None,1337.9391455000732,None,1338.4475631001405,None,1338.4475631001405,None,n,0.3105379999615252,1338.4475631001405,None,,,NC_51,001,2022_May_03_1624,ProdSingRedo,3.2.3,59.92006663630907,
,,,,88,0,88,0,,,,,,,,,,,,,,,,,,,,,,,,1342.04096439993,None,,,,,,,,,,,,,,,,,light,sing,white,88,12,171,1339.3002981001046,None,1339.3002981001046,None,6,1.8501699999906123,1339.3002981001046,None,1341.1911180999596,None,1341.716015300015,None,1341.716015300015,None,r,0.29033990018069744,1341.716015300015,None,,,NC_51,001,2022_May_03_1624,ProdSingRedo,3.2.3,59.92006663630907,
,,,,89,0,89,0,,,,,,,,,,,,,,,,,,,,,,,,1344.4076692000963,None,,,,,,,,,,,,,,,,,people,new_c,white,89,154,216,1342.5633732001297,None,1342.5633732001297,None,1,1.0270053001586348,1342.5633732001297,None,1343.635257499991,None,1344.156630499987,None,1344.156630499987,None,n,0.21808149991557002,1344.156630499987,None,,,NC_51,001,2022_May_03_1624,ProdSingRedo,3.2.3,59.92006663630907,
,,,,90,0,90,0,,,,,,,,,,,,,,,,,,,,,,,,1347.1912781000137,None,,,,,,,,,,,,,,,,,scene,sing,white,90,13,273,1344.9298805000726,None,1344.9298805000726,None,6,1.108431699918583,1344.9298805000726,None,1346.0668542999774,None,1346.5894832001068,None,1346.5894832001068,None,r,0.577018299838528,1346.5894832001068,None,,,NC_51,001,2022_May_03_1624,ProdSingRedo,3.2.3,59.92006663630907,
,,,,91,0,91,0,,,,,,,,,,,,,,,,,,,,,,,,1350.7916232999414,None,,,,,,,,,,,,,,,,,trash,sing,white,91,24,337,1347.6998358999845,None,1347.6998358999845,None,6,2.1065438000950962,1347.6998358999845,None,1349.8569005001336,None,1350.3786206999794,None,1350.3786206999794,None,r,0.37993380008265376,1350.3786206999794,None,,,NC_51,001,2022_May_03_1624,ProdSingRedo,3.2.3,59.92006663630907,
,,,,92,0,92,0,,,,,,,,,,,,,,,,,,,,,,,,1353.5919232000597,None,,,,,,,,,,,,,,,,,space,new_c,white,92,178,297,1351.3170980999712,None,1351.3170980999712,None,6,1.3374275001697242,1351.3170980999712,None,1352.7091876999475,None,1353.2247643000446,None,1353.2247643000446,None,r,0.3336412999778986,1353.2247643000446,None,,,NC_51,001,2022_May_03_1624,ProdSingRedo,3.2.3,59.92006663630907,
,,,,93,0,93,0,,,,,,,,,,,,,,,,,,,,,,,,1356.5086380001158,None,,,,,,,,,,,,,,,,,beauty,aloud,white,93,35,18,1354.1189991000574,None,1354.1189991000574,None,6,1.135378299979493,1354.1189991000574,None,1355.3091154999565,None,1355.8337254999205,None,1355.8337254999205,None,r,0.6446402999572456,1355.8337254999205,None,,,NC_51,001,2022_May_03_1624,ProdSingRedo,3.2.3,59.92006663630907,
,,,,94,0,94,0,,,,,,,,,,,,,,,,,,,,,,,,1359.282760699978,None,,,,,,,,,,,,,,,,,quiet,silent,white,94,83,249,1357.0364498000126,None,1357.0364498000126,None,6,1.2739917999133468,1357.0364498000126,None,1358.3523429001216,None,1358.8812105001416,None,1358.8812105001416,None,r,0.3808005000464618,1358.8812105001416,None,,,NC_51,001,2022_May_03_1624,ProdSingRedo,3.2.3,59.92006663630907,
,,,,95,0,95,0,,,,,,,,,,,,,,,,,,,,,,,,1362.5589006000664,None,,,,,,,,,,,,,,,,,executive,sing,white,95,15,122,1359.7843933999538,None,1359.7843933999538,None,1,1.8465276998467743,1359.7843933999538,None,1361.677274200134,None,1362.2026796999853,None,1362.2026796999853,None,n,0.331717099994421,1362.2026796999853,None,,,NC_51,001,2022_May_03_1624,ProdSingRedo,3.2.3,59.92006663630907,
,,,,96,0,96,0,,,,,,,,,,,,,,,,,,,,,,,,1365.7436361999717,None,,,,,,,,,,,,,,,,,private,new_c,white,96,174,237,1363.0866044999566,None,1363.0866044999566,None,1,1.7518396000377834,1363.0866044999566,None,1364.8899789999705,None,1365.4158866999205,None,1365.4158866999205,None,n,0.29483740008436143,1365.4158866999205,None,,,NC_51,001,2022_May_03_1624,ProdSingRedo,3.2.3,59.92006663630907,
,,,,97,0,97,0,,,,,,,,,,,,,,,,,,,,,,,,1372.9765731000807,None,,,,,,,,,,,,,,,,,company,aloud,white,97,50,64,1366.2686080001295,None,1366.2686080001295,None,5,5.1617582000326365,1366.2686080001295,None,1371.4760086000897,None,1371.9971777000464,None,1371.9971777000464,None,n,0.9451953999232501,1371.9971777000464,None,,,NC_51,001,2022_May_03_1624,ProdSingRedo,3.2.3,59.92006663630907,
,,,,98,0,98,0,,,,,,,,,,,,,,,,,,,,,,,,1378.060371000087,None,,,,,,,,,,,,,,,,,engineer,new_b,white,98,135,114,1373.504827399971,None,1373.504827399971,None,3,3.71775360009633,1373.504827399971,None,1377.2752630000468,None,1377.7984088000376,None,1377.7984088000376,None,n,0.23195099993608892,1377.7984088000376,None,,,NC_51,001,2022_May_03_1624,ProdSingRedo,3.2.3,59.92006663630907,
,,,,99,0,99,0,,,,,,,,,,,,,,,,,,,,,,,,1380.4182023000903,None,,,,,,,,,,,,,,,,,portion,new_c,white,99,150,228,1378.5815777000971,None,1378.5815777000971,None,1,0.9851663000881672,1378.5815777000971,None,1379.6061126999557,None,1380.126778600039,None,1380.126778600039,None,n,0.24766630004160106,1380.126778600039,None,,,NC_51,001,2022_May_03_1624,ProdSingRedo,3.2.3,59.92006663630907,
,,,,100,0,100,0,,,,,,,,,,,,,,,,,,,,,,,,1382.8099392000586,None,,,,,,,,,,,,,,,,,short,aloud,white,100,52,285,1380.9361521999817,None,1380.9361521999817,None,1,1.0382502998691052,1380.9361521999817,None,1382.0119137999136,None,1382.5262728000525,None,1382.5262728000525,None,n,0.24805269995704293,1382.5262728000525,None,,,NC_51,001,2022_May_03_1624,ProdSingRedo,3.2.3,59.92006663630907,
,,,,101,0,101,0,,,,,,,,,,,,,,,,,,,,,,,,1387.2294574000407,None,,,,,,,,,,,,,,,,,emergency,new_c,white,101,172,110,1383.3377676999662,None,1383.3377676999662,None,3,2.908688000170514,1383.3377676999662,None,1386.2893308999483,None,1386.8160707000643,None,1386.8160707000643,None,n,0.3742578001692891,1386.8160707000643,None,,,NC_51,001,2022_May_03_1624,ProdSingRedo,3.2.3,59.92006663630907,
,,,,102,0,102,0,,,,,,,,,,,,,,,,,,,,,,,,1392.4307691000868,None,,,,,,,,,,,,,,,,,edition,aloud,white,102,33,107,1387.7415128999855,None,1387.7415128999855,None,6,3.7609472998883575,1387.7415128999855,None,1391.5390761001036,None,1392.060675600078,None,1392.060675600078,None,r,0.33779219980351627,1392.060675600078,None,,,NC_51,001,2022_May_03_1624,ProdSingRedo,3.2.3,59.92006663630907,
,,,,103,0,103,0,,,,,,,,,,,,,,,,,,,,,,,,1394.9279205999337,None,,,,,,,,,,,,,,,,,degree,new_a,white,103,111,89,1392.9549946000334,None,1392.9549946000334,None,1,1.0757004001643509,1392.9549946000334,None,1394.0766809000634,None,1394.5988564,None,1394.5988564,None,n,0.2954933000728488,1394.5988564,None,,,NC_51,001,2022_May_03_1624,ProdSingRedo,3.2.3,59.92006663630907,
,,,,104,0,104,0,,,,,,,,,,,,,,,,,,,,,,,,1399.0776695001405,None,,,,,,,,,,,,,,,,,reading,new_a,white,104,109,254,1395.4552706000395,None,1395.4552706000395,None,1,2.783125000074506,1395.4552706000395,None,1398.2938137000892,None,1398.8173726999667,None,1398.8173726999667,None,n,0.22097679995931685,1398.8173726999667,None,,,NC_51,001,2022_May_03_1624,ProdSingRedo,3.2.3,59.92006663630907,
,,,,105,0,105,0,,,,,,,,,,,,,,,,,,,,,,,,1401.494598899968,None,,,,,,,,,,,,,,,,,mayor,new_c,white,105,170,183,1399.5874928000849,None,1399.5874928000849,None,1,1.0265899999067187,1399.5874928000849,None,1400.6465535000898,None,1401.162403299939,None,1401.162403299939,None,n,0.3080811998806894,1401.162403299939,None,,,NC_51,001,2022_May_03_1624,ProdSingRedo,3.2.3,59.92006663630907,
,,,,106,0,106,0,,,,,,,,,,,,,,,,,,,,,,,,1405.4146140001249,None,,,,,,,,,,,,,,,,,sleep,sing,white,106,4,290,1402.016053300118,None,1402.016053300118,None,4,2.094273200025782,1402.016053300118,None,1404.1556389001198,None,1404.6758660001215,None,1404.6758660001215,None,f,0.6986111998558044,1404.6758660001215,None,,,NC_51,001,2022_May_03_1624,ProdSingRedo,3.2.3,59.92006663630907,
,,,,107,0,107,0,,,,,,,,,,,,,,,,,,,,,,,,1407.5204831000883,None,,,,,,,,,,,,,,,,,youth,new_c,white,107,151,359,1405.9342505000532,None,1405.9342505000532,None,1,0.9762931999284774,1405.9342505000532,None,1406.9545629001223,None,1407.4844770999625,None,1407.4844770999625,None,n,0.009651800151914358,1407.4844770999625,None,,,NC_51,001,2022_May_03_1624,ProdSingRedo,3.2.3,59.92006663630907,
,,,,108,0,108,0,,,,,,,,,,,,,,,,,,,,,,,,1410.5130956999492,None,,,,,,,,,,,,,,,,,industry,silent,white,108,84,161,1408.040753300069,None,1408.040753300069,None,6,1.4457622999325395,1408.040753300069,None,1409.531799999997,None,1410.0504282999318,None,1410.0504282999318,None,r,0.4359475001692772,1410.0504282999318,None,,,NC_51,001,2022_May_03_1624,ProdSingRedo,3.2.3,59.92006663630907,
,,,,109,0,109,0,,,,,,,,,,,,,,,,,,,,,,,,1413.145959699992,None,,,,,,,,,,,,,,,,,rural,sing,white,109,1,269,1411.039351799991,None,1411.039351799991,None,6,1.1270417000632733,1411.039351799991,None,1412.2077279000077,None,1412.733739099931,None,1412.733739099931,None,r,0.38505330006591976,1412.733739099931,None,,,NC_51,001,2022_May_03_1624,ProdSingRedo,3.2.3,59.92006663630907,
,,,,110,0,110,0,,,,,,,,,,,,,,,,,,,,,,,,1416.5640265000984,None,,,,,,,,,,,,,,,,,universal,new_b,white,110,127,345,1413.6807337999344,None,1413.6807337999344,None,1,2.0456998001318425,1413.6807337999344,None,1415.7833474001382,None,1416.3055966999382,None,1416.3055966999382,None,n,0.22979220002889633,1416.3055966999382,None,,,NC_51,001,2022_May_03_1624,ProdSingRedo,3.2.3,59.92006663630907,
,,,,111,0,111,0,,,,,,,,,,,,,,,,,,,,,,,,1420.4289941000752,None,,,,,,,,,,,,,,,,,leader,aloud,white,111,49,168,1417.089500800008,None,1417.089500800008,None,4,2.092514499789104,1417.089500800008,None,1419.2107224001084,None,1419.7212620000355,None,1419.7212620000355,None,f,0.6692007000092417,1419.7212620000355,None,,,NC_51,001,2022_May_03_1624,ProdSingRedo,3.2.3,59.92006663630907,
,,,,112,0,112,0,,,,,,,,,,,,,,,,,,,,,,,,1423.9300551000051,None,,,,,,,,,,,,,,,,,income,aloud,white,112,42,159,1420.9511512999889,None,1420.9511512999889,None,5,1.7835198000539094,1420.9511512999889,None,1422.774305399973,None,1423.2955336000305,None,1423.2955336000305,None,f,0.607134000165388,1423.2955336000305,None,,,NC_51,001,2022_May_03_1624,ProdSingRedo,3.2.3,59.92006663630907,
,,,,113,0,113,0,,,,,,,,,,,,,,,,,,,,,,,,1427.4971731000114,None,,,,,,,,,,,,,,,,,mankind,silent,white,113,68,178,1424.4599590001162,None,1424.4599590001162,None,6,2.066492799902335,1424.4599590001162,None,1426.5749526000582,None,1427.1051507999655,None,1427.1051507999655,None,r,0.36539440019987524,1427.1051507999655,None,,,NC_51,001,2022_May_03_1624,ProdSingRedo,3.2.3,59.92006663630907,
,,,,114,0,114,0,,,,,,,,,,,,,,,,,,,,,,,,1431.5637904999312,None,,,,,,,,,,,,,,,,,principal,silent,white,114,61,236,1428.0248779000249,None,1428.0248779000249,None,4,2.6458809999749064,1428.0248779000249,None,1430.7150990001392,None,1431.2348285000771,None,1431.2348285000771,None,f,0.2995682000182569,1431.2348285000771,None,,,NC_51,001,2022_May_03_1624,ProdSingRedo,3.2.3,59.92006663630907,
,,,,115,0,115,0,,,,,,,,,,,,,,,,,,,,,,,,1434.4304534001276,None,,,,,,,,,,,,,,,,,debate,sing,white,115,25,87,1432.0900264999364,None,1432.0900264999364,None,6,1.2361395000480115,1432.0900264999364,None,1433.378826299915,None,1433.903216500068,None,1433.903216500068,None,r,0.5032791998237371,1433.903216500068,None,,,NC_51,001,2022_May_03_1624,ProdSingRedo,3.2.3,59.92006663630907,
,,,,116,0,116,0,,,,,,,,,,,,,,,,,,,,,,,,1437.9974090999458,None,,,,,,,,,,,,,,,,,account,new_b,white,116,126,1,1434.9589090999216,None,1434.9589090999216,None,1,2.144350599963218,1434.9589090999216,None,1437.1484479000792,None,1437.6691765999421,None,1437.6691765999421,None,n,0.2972649000585079,1437.6691765999421,None,,,NC_51,001,2022_May_03_1624,ProdSingRedo,3.2.3,59.92006663630907,
,,,,117,0,117,0,,,,,,,,,,,,,,,,,,,,,,,,1440.3316214000806,None,,,,,,,,,,,,,,,,,swift,new_c,white,117,165,320,1438.5251460999716,None,1438.5251460999716,None,1,0.9455881000030786,1438.5251460999716,None,1439.5172030001413,None,1440.023576500127,None,1440.023576500127,None,n,0.2792410000693053,1440.023576500127,None,,,NC_51,001,2022_May_03_1624,ProdSingRedo,3.2.3,59.92006663630907,
,,,,118,0,118,0,,,,,,,,,,,,,,,,,,,,,,,,1443.2478865000885,None,,,,,,,,,,,,,,,,,marriage,sing,white,118,5,179,1440.8647253001109,None,1440.8647253001109,None,6,1.4375997001770884,1440.8647253001109,None,1442.3494639000855,None,1442.87077030004,None,1442.87077030004,None,r,0.3435404000338167,1442.87077030004,None,,,NC_51,001,2022_May_03_1624,ProdSingRedo,3.2.3,59.92006663630907,
,,,,119,0,119,0,,,,,,,,,,,,,,,,,,,,,,,,1446.7640970000066,None,,,,,,,,,,,,,,,,,length,aloud,white,119,41,169,1443.7740478999913,None,1443.7740478999913,None,6,2.0966586999129504,1443.7740478999913,None,1445.9156075001229,None,1446.4336165999994,None,1446.4336165999994,None,r,0.2926187999546528,1446.4336165999994,None,,,NC_51,001,2022_May_03_1624,ProdSingRedo,3.2.3,59.92006663630907,
,,,,120,0,120,0,,,,,,,,,,,,,,,,,,,,,,,,1451.9151713999454,None,,,,,,,,,,,,,,,,,foundation,sing,white,120,3,132,1447.297197500011,None,1447.297197500011,None,6,3.381091699935496,1447.297197500011,None,1450.7268352999818,None,1451.2586884000339,None,1451.2586884000339,None,r,0.6279257999267429,1451.2586884000339,None,,,NC_51,001,2022_May_03_1624,ProdSingRedo,3.2.3,59.92006663630907,
,,,,121,0,121,0,,,,,,,,,,,,,,,,,,,,,,,,1455.015220399946,None,,,,,,,,,,,,,,,,,profession,silent,white,121,82,241,1452.4433466000482,None,1452.4433466000482,None,3,1.779159399913624,1452.4433466000482,None,1454.26233840012,None,1454.787598400144,None,1454.787598400144,None,n,0.20282280002720654,1454.787598400144,None,,,NC_51,001,2022_May_03_1624,ProdSingRedo,3.2.3,59.92006663630907,
,,,,122,0,122,0,,,,,,,,,,,,,,,,,,,,,,,,1458.1343519000802,None,,,,,,,,,,,,,,,,,empty,new_b,white,122,145,112,1455.5397640999872,None,1455.5397640999872,None,6,1.6830112000461668,1455.5397640999872,None,1457.2601310000755,None,1457.785265600076,None,1457.785265600076,None,r,0.3170696999877691,1457.785265600076,None,,,NC_51,001,2022_May_03_1624,ProdSingRedo,3.2.3,59.92006663630907,
,,,,123,0,123,0,,,,,,,,,,,,,,,,,,,,,,,,1461.25649109995,None,,,,,,,,,,,,,,,,,report,aloud,white,123,38,259,1458.6544206000399,None,1458.6544206000399,None,1,1.7680303999222815,1458.6544206000399,None,1460.4598266000394,None,1460.9745398000814,None,1460.9745398000814,None,n,0.26369909988716245,1460.9745398000814,None,,,NC_51,001,2022_May_03_1624,ProdSingRedo,3.2.3,59.92006663630907,
,,,,124,0,124,0,,,,,,,,,,,,,,,,,,,,,,,,1463.8229565001093,None,,,,,,,,,,,,,,,,,position,new_a,white,124,100,229,1461.7574255999643,None,1461.7574255999643,None,6,1.0570119998883456,1461.7574255999643,None,1462.8598776001018,None,1463.3814731000457,None,1463.3814731000457,None,r,0.40890069981105626,1463.3814731000457,None,,,NC_51,001,2022_May_03_1624,ProdSingRedo,3.2.3,59.92006663630907,
,,,,125,0,125,0,,,,,,,,,,,,,,,,,,,,,,,,1466.8827859999146,None,,,,,,,,,,,,,,,,,phrase,silent,white,125,79,220,1464.3424889999442,None,1464.3424889999442,None,1,1.752008100040257,1464.3424889999442,None,1466.1482375999913,None,1466.6586150999647,None,1466.6586150999647,None,n,0.19680289993993938,1466.6586150999647,None,,,NC_51,001,2022_May_03_1624,ProdSingRedo,3.2.3,59.92006663630907,
,,,,126,0,126,0,,,,,,,,,,,,,,,,,,,,,,,,1469.708689100109,None,,,,,,,,,,,,,,,,,captain,sing,white,126,17,41,1467.4112074000295,None,1467.4112074000295,None,6,1.2752274998929352,1467.4112074000295,None,1468.729075500043,None,1469.2552732001059,None,1469.2552732001059,None,r,0.42290490004234016,1469.2552732001059,None,,,NC_51,001,2022_May_03_1624,ProdSingRedo,3.2.3,59.92006663630907,
,,,,127,0,127,0,,,,,,,,,,,,,,,,,,,,,,,,1472.3505252001341,None,,,,,,,,,,,,,,,,,science,sing,white,127,0,275,1470.2215013001114,None,1470.2215013001114,None,6,1.3208871001843363,1470.2215013001114,None,1471.5735848001204,None,1472.0837048001122,None,1472.0837048001122,None,r,0.23460840014740825,1472.0837048001122,None,,,NC_51,001,2022_May_03_1624,ProdSingRedo,3.2.3,59.92006663630907,
,,,,128,0,128,0,,,,,,,,,,,,,,,,,,,,,,,,1474.9492280001286,None,,,,,,,,,,,,,,,,,surface,sing,white,128,22,316,1472.8846011999995,None,1472.8846011999995,None,6,1.1779364999383688,1472.8846011999995,None,1474.1158875001129,None,1474.6420209999196,None,1474.6420209999196,None,r,0.26830180012620986,1474.6420209999196,None,,,NC_51,001,2022_May_03_1624,ProdSingRedo,3.2.3,59.92006663630907,
,,,,129,0,129,0,,,,,,,,,,,,,,,,,,,,,,,,1478.6045808999334,None,,,,,,,,,,,,,,,,,broke,new_c,white,129,164,32,1475.4722639999818,None,1475.4722639999818,None,1,2.3671120998915285,1475.4722639999818,None,1477.8842062000185,None,1478.4099393999204,None,1478.4099393999204,None,n,0.1645198999904096,1478.4099393999204,None,,,NC_51,001,2022_May_03_1624,ProdSingRedo,3.2.3,59.92006663630907,
,,,,130,0,130,0,,,,,,,,,,,,,,,,,,,,,,,,1480.8502277000807,None,,,,,,,,,,,,,,,,,center,aloud,white,130,47,44,1479.1313483000267,None,1479.1313483000267,None,1,1.019001099979505,1479.1313483000267,None,1480.1925779001322,None,1480.7001916000154,None,1480.7001916000154,None,n,0.1225550000090152,1480.7001916000154,None,,,NC_51,001,2022_May_03_1624,ProdSingRedo,3.2.3,59.92006663630907,
,,,,131,0,131,0,,,,,,,,,,,,,,,,,,,,,,,,1484.8855654001236,None,,,,,,,,,,,,,,,,,territory,aloud,white,131,56,324,1481.3757208001334,None,1481.3757208001334,None,1,2.662705200025812,1481.3757208001334,None,1484.0801463001408,None,1484.604157499969,None,1484.604157499969,None,n,0.24203730002045631,1484.604157499969,None,,,NC_51,001,2022_May_03_1624,ProdSingRedo,3.2.3,59.92006663630907,
,,,,132,0,132,0,,,,,,,,,,,,,,,,,,,,,,,,1487.9674830001313,None,,,,,,,,,,,,,,,,,council,new_b,white,132,146,71,1485.4107256999705,None,1485.4107256999705,None,6,1.7395978001877666,1485.4107256999705,None,1487.1984385999385,None,1487.7241309999954,None,1487.7241309999954,None,r,0.21855250000953674,1487.7241309999954,None,,,NC_51,001,2022_May_03_1624,ProdSingRedo,3.2.3,59.92006663630907,
,,,,133,0,133,0,,,,,,,,,,,,,,,,,,,,,,,,1490.451242200099,None,,,,,,,,,,,,,,,,,fight,sing,white,133,8,127,1488.4923447999172,None,1488.4923447999172,None,6,1.1781911000143737,1488.4923447999172,None,1489.716534800129,None,1490.236793300137,None,1490.236793300137,None,r,0.18580339988693595,1490.236793300137,None,,,NC_51,001,2022_May_03_1624,ProdSingRedo,3.2.3,59.92006663630907,
,,,,134,0,134,0,,,,,,,,,,,,,,,,,,,,,,,,1494.6503033000045,None,,,,,,,,,,,,,,,,,running,new_b,white,134,124,268,1490.9704108000733,None,1490.9704108000733,None,1,2.763923500198871,1490.9704108000733,None,1493.7844680999406,None,1494.306769900024,None,1494.306769900024,None,n,0.30768690002150834,1494.306769900024,None,,,NC_51,001,2022_May_03_1624,ProdSingRedo,3.2.3,59.92006663630907,
,,,,135,0,135,0,,,,,,,,,,,,,,,,,,,,,,,,1497.2053459000308,None,,,,,,,,,,,,,,,,,military,new_c,white,135,159,190,1495.1785814999603,None,1495.1785814999603,None,1,1.2917994000017643,1495.1785814999603,None,1496.5190179001074,None,1497.0399458999746,None,1497.0399458999746,None,n,0.1263389999512583,1497.0399458999746,None,,,NC_51,001,2022_May_03_1624,ProdSingRedo,3.2.3,59.92006663630907,
,,,,136,0,136,0,,,,,,,,,,,,,,,,,,,,,,,,1499.634032400092,None,,,,,,,,,,,,,,,,,population,silent,white,136,62,227,1497.7317480000202,None,1497.7317480000202,None,6,1.2267114000860602,1497.7317480000202,None,1498.997476000106,None,1499.5269476000685,None,1499.5269476000685,None,r,0.0714362000580877,1499.5269476000685,None,,,NC_51,001,2022_May_03_1624,ProdSingRedo,3.2.3,59.92006663630907,
,,,,137,0,137,0,,,,,,,,,,,,,,,,,,,,,,,,1502.611024999991,None,,,,,,,,,,,,,,,,,collection,silent,white,137,67,54,1500.1571055999957,None,1500.1571055999957,None,6,1.529282100033015,1500.1571055999957,None,1501.7349481000565,None,1502.2526650000364,None,1502.2526650000364,None,f,0.32934519997797906,1502.2526650000364,None,,,NC_51,001,2022_May_03_1624,ProdSingRedo,3.2.3,59.92006663630907,
,,,,138,0,138,0,,,,,,,,,,,,,,,,,,,,,,,,1505.667892199941,None,,,,,,,,,,,,,,,,,store,new_a,white,138,116,305,1503.1436763000675,None,1503.1436763000675,None,3,1.7266875999048352,1503.1436763000675,None,1504.9147473999765,None,1505.4317691000178,None,1505.4317691000178,None,f,0.19858049997128546,1505.4317691000178,None,,,NC_51,001,2022_May_03_1624,ProdSingRedo,3.2.3,59.92006663630907,
,,,,139,0,139,0,,,,,,,,,,,,,,,,,,,,,,,,1507.8186844000593,None,,,,,,,,,,,,,,,,,volume,new_b,white,139,147,349,1506.1998888999224,None,1506.1998888999224,None,1,0.9342908998951316,1506.1998888999224,None,1507.1814810999203,None,1507.7086015001405,None,1507.7086015001405,None,n,0.07372540002688766,1507.7086015001405,None,,,NC_51,001,2022_May_03_1624,ProdSingRedo,3.2.3,59.92006663630907,
,,,,140,0,140,0,,,,,,,,,,,,,,,,,,,,,,,,1511.3525004000403,None,,,,,,,,,,,,,,,,,alert,new_c,white,140,179,6,1508.3432150001172,None,1508.3432150001172,None,1,2.303099599899724,1508.3432150001172,None,1510.7025814000517,None,1511.2204203000292,None,1511.2204203000292,None,n,0.10598180000670254,1511.2204203000292,None,,,NC_51,001,2022_May_03_1624,ProdSingRedo,3.2.3,59.92006663630907,
,,,,141,0,141,0,,,,,,,,,,,,,,,,,,,,,,,,1514.6016410000157,None,,,,,,,,,,,,,,,,,title,sing,white,141,20,331,1511.8735118999612,None,1511.8735118999612,None,6,1.772779299877584,1511.8735118999612,None,1513.692767499946,None,1514.2025435999967,None,1514.2025435999967,None,r,0.3638665000908077,1514.2025435999967,None,,,NC_51,001,2022_May_03_1624,ProdSingRedo,3.2.3,59.92006663630907,
,,,,142,0,142,0,,,,,,,,,,,,,,,,,,,,,,,,1517.2699279000517,None,,,,,,,,,,,,,,,,,close,aloud,white,142,32,53,1515.1333014999982,None,1515.1333014999982,None,1,1.3291049001272768,1515.1333014999982,None,1516.500959099969,None,1517.0157312001102,None,1517.0157312001102,None,n,0.22300220001488924,1517.0157312001102,None,,,NC_51,001,2022_May_03_1624,ProdSingRedo,3.2.3,59.92006663630907,
,,,,143,0,143,0,,,,,,,,,,,,,,,,,,,,,,,,1520.2686767000705,None,,,,,,,,,,,,,,,,,health,new_a,white,143,104,149,1517.786025099922,None,1517.786025099922,None,1,1.628343400079757,1517.786025099922,None,1519.4669999000616,None,1519.9883360001259,None,1519.9883360001259,None,n,0.2420061999000609,1519.9883360001259,None,,,NC_51,001,2022_May_03_1624,ProdSingRedo,3.2.3,59.92006663630907,
,,,,144,0,144,0,,,,,,,,,,,,,,,,,,,,,,,,1523.970053799916,None,,,,,,,,,,,,,,,,,angle,new_b,white,144,129,7,1520.7966126000974,None,1520.7966126000974,None,1,2.449449799954891,1520.7966126000974,None,1523.2796908000018,None,1523.7933263001032,None,1523.7933263001032,None,n,0.1493345000781119,1523.7933263001032,None,,,NC_51,001,2022_May_03_1624,ProdSingRedo,3.2.3,59.92006663630907,
,,,,145,0,145,0,,,,,,,,,,,,,,,,,,,,,,,,1526.1695552999154,None,,,,,,,,,,,,,,,,,tennis,new_a,white,145,99,323,1524.4897616999224,None,1524.4897616999224,None,1,0.9406592000741512,1524.4897616999224,None,1525.4783334000967,None,1525.9861087000463,None,1525.9861087000463,None,n,0.1485228999517858,1525.9861087000463,None,,,NC_51,001,2022_May_03_1624,ProdSingRedo,3.2.3,59.92006663630907,
,,,,146,0,146,0,,,,,,,,,,,,,,,,,,,,,,,,1529.9203381000552,None,,,,,,,,,,,,,,,,,budget,new_a,white,146,103,34,1526.7001396999694,None,1526.7001396999694,None,4,2.1943439000751823,1526.7001396999694,None,1528.934211099986,None,1529.4612533000764,None,1529.4612533000764,None,f,0.4250735000241548,1529.4612533000764,None,,,NC_51,001,2022_May_03_1624,ProdSingRedo,3.2.3,59.92006663630907,
,,,,147,0,147,0,,,,,,,,,,,,,,,,,,,,,,,,1532.971604499966,None,,,,,,,,,,,,,,,,,voice,new_a,white,147,115,348,1530.4450141999405,None,1530.4450141999405,None,6,1.2816128998529166,1530.4450141999405,None,1531.767577300081,None,1532.2865810000803,None,1532.2865810000803,None,r,0.6565498001873493,1532.2865810000803,None,,,NC_51,001,2022_May_03_1624,ProdSingRedo,3.2.3,59.92006663630907,
,,,,148,0,148,0,,,,,,,,,,,,,,,,,,,,,,,,1535.288213300053,None,,,,,,,,,,,,,,,,,author,new_c,white,148,161,15,1533.4917324001435,None,1533.4917324001435,None,1,0.930695400107652,1533.4917324001435,None,1534.4676183001138,None,1534.99027379998,None,1534.99027379998,None,n,0.2641243999823928,1534.99027379998,None,,,NC_51,001,2022_May_03_1624,ProdSingRedo,3.2.3,59.92006663630907,
,,,,149,0,149,0,,,,,,,,,,,,,,,,,,,,,,,,1537.4378521000035,None,,,,,,,,,,,,,,,,,committee,new_a,white,149,113,62,1535.8058305000886,None,1535.8058305000886,None,1,0.9208925000857562,1535.8058305000886,None,1536.7622597001027,None,1537.2715068000834,None,1537.2715068000834,None,n,0.13519989978522062,1537.2715068000834,None,,,NC_51,001,2022_May_03_1624,ProdSingRedo,3.2.3,59.92006663630907,
,,,,150,0,150,0,,,,,,,,,,,,,,,,,,,,,,,,1541.6370662001427,None,,,,,,,,,,,,,,,,,recall,sing,white,150,11,255,1537.9601352999453,None,1537.9601352999453,None,4,2.774307900108397,1537.9601352999453,None,1540.781741200015,None,1541.3091335000936,None,1541.3091335000936,None,n,0.2891375001054257,1541.3091335000936,None,,,NC_51,001,2022_May_03_1624,ProdSingRedo,3.2.3,59.92006663630907,
,,,,151,0,151,0,,,,,,,,,,,,,,,,,,,,,,,,1543.6059963000007,None,,,,,,,,,,,,,,,,,household,new_c,white,151,153,154,1542.1607282999903,None,1542.1607282999903,None,1,0.789789899950847,1542.1607282999903,None,1543.0020815001335,None,1543.5284164000768,None,1543.5284164000768,None,n,0.03795389994047582,1543.5284164000768,None,,,NC_51,001,2022_May_03_1624,ProdSingRedo,3.2.3,59.92006663630907,
,,,,152,0,152,0,,,,,,,,,,,,,,,,,,,,,,,,1545.8043168000877,None,,,,,,,,,,,,,,,,,attack,new_a,white,152,117,13,1544.1347233999986,None,1544.1347233999986,None,1,0.999711100012064,1544.1347233999986,None,1545.189303100109,None,1545.7100128999446,None,1545.7100128999446,None,n,0.06429990008473396,1545.7100128999446,None,,,NC_51,001,2022_May_03_1624,ProdSingRedo,3.2.3,59.92006663630907,
,,,,153,0,153,0,,,,,,,,,,,,,,,,,,,,,,,,1547.9221652999986,None,,,,,,,,,,,,,,,,,community,new_a,white,153,108,63,1546.3305528000928,None,1546.3305528000928,None,6,0.9161177999339998,1546.3305528000928,None,1547.2889626000542,None,1547.8128452999517,None,1547.8128452999517,None,r,0.0817185000050813,1547.8128452999517,None,,,NC_51,001,2022_May_03_1624,ProdSingRedo,3.2.3,59.92006663630907,
,,,,154,0,154,0,,,,,,,,,,,,,,,,,,,,,,,,1550.6228445000015,None,,,,,,,,,,,,,,,,,break,silent,white,154,85,26,1548.459432499949,None,1548.459432499949,None,1,0.8032521998975426,1548.459432499949,None,1549.3020463001449,None,1549.8308510999195,None,1549.8308510999195,None,n,0.7595071000978351,1549.8308510999195,None,,,NC_51,001,2022_May_03_1624,ProdSingRedo,3.2.3,59.92006663630907,
,,,,155,0,155,0,,,,,,,,,,,,,,,,,,,,,,,,1553.2394574999344,None,,,,,,,,,,,,,,,,,fellow,new_a,white,155,94,126,1551.1471965000965,None,1551.1471965000965,None,1,0.8911207998171449,1551.1471965000965,None,1552.086314199958,None,1552.6077831999864,None,1552.6077831999864,None,n,0.5985963998828083,1552.6077831999864,None,,,NC_51,001,2022_May_03_1624,ProdSingRedo,3.2.3,59.92006663630907,
,,,,156,0,156,0,,,,,,,,,,,,,,,,,,,,,,,,1555.7051190000493,None,,,,,,,,,,,,,,,,,election,aloud,white,156,39,109,1553.7643836999778,None,1553.7643836999778,None,1,1.0824772000778466,1553.7643836999778,None,1554.8801953999791,None,1555.390407799976,None,1555.390407799976,None,n,0.2798274999950081,1555.390407799976,None,,,NC_51,001,2022_May_03_1624,ProdSingRedo,3.2.3,59.92006663630907,
,,,,157,0,157,0,,,,,,,,,,,,,,,,,,,,,,,,1558.006168599939,None,,,,,,,,,,,,,,,,,crowd,new_c,white,157,169,81,1556.2291993000545,None,1556.2291993000545,None,1,0.9211211998481303,1556.2291993000545,None,1557.2027159000281,None,1557.7249716001097,None,1557.7249716001097,None,n,0.2414522001054138,1557.7249716001097,None,,,NC_51,001,2022_May_03_1624,ProdSingRedo,3.2.3,59.92006663630907,
,,,,158,0,158,0,,,,,,,,,,,,,,,,,,,,,,,,1560.288878499996,None,,,,,,,,,,,,,,,,,order,aloud,white,158,55,207,1558.5272182000335,None,1558.5272182000335,None,1,0.8953065001405776,1558.5272182000335,None,1559.4663861999288,None,1559.9822080999147,None,1559.9822080999147,None,n,0.2723127999342978,1559.9822080999147,None,,,NC_51,001,2022_May_03_1624,ProdSingRedo,3.2.3,59.92006663630907,
,,,,159,0,159,0,,,,,,,,,,,,,,,,,,,,,,,,1562.706022700062,None,,,,,,,,,,,,,,,,,block,new_a,white,159,112,25,1560.8033316999208,None,1560.8033316999208,None,1,1.027240099851042,1560.8033316999208,None,1561.8730155001394,None,1562.3927865999285,None,1562.3927865999285,None,n,0.2776611999142915,1562.3927865999285,None,,,NC_51,001,2022_May_03_1624,ProdSingRedo,3.2.3,59.92006663630907,
,,,,160,0,160,0,,,,,,,,,,,,,,,,,,,,,,,,1565.272801199928,None,,,,,,,,,,,,,,,,,beginning,silent,white,160,72,19,1563.2366547000129,None,1563.2366547000129,None,6,1.2896354999393225,1563.2366547000129,None,1564.5740402000956,None,1565.1011248999275,None,1565.1011248999275,None,f,0.13725649984553456,1565.1011248999275,None,,,NC_51,001,2022_May_03_1624,ProdSingRedo,3.2.3,59.92006663630907,
,,,,161,0,161,0,,,,,,,,,,,,,,,,,,,,,,,,1567.5886419999879,None,,,,,,,,,,,,,,,,,surprise,new_c,white,161,158,317,1565.8002774000634,None,1565.8002774000634,None,1,0.9500128999352455,1565.8002774000634,None,1566.804499299964,None,1567.3287508001085,None,1567.3287508001085,None,n,0.22157460008747876,1567.3287508001085,None,,,NC_51,001,2022_May_03_1624,ProdSingRedo,3.2.3,59.92006663630907,
,,,,162,0,162,0,,,,,,,,,,,,,,,,,,,,,,,,1569.7795883999206,None,,,,,,,,,,,,,,,,,pancakes,new_b,white,162,131,210,1568.115055500064,None,1568.115055500064,None,1,0.8513092000503093,1568.115055500064,None,1569.0107595000882,None,1569.5156107000075,None,1569.5156107000075,None,n,0.24241890013217926,1569.5156107000075,None,,,NC_51,001,2022_May_03_1624,ProdSingRedo,3.2.3,59.92006663630907,
,,,,163,0,163,0,,,,,,,,,,,,,,,,,,,,,,,,1572.5244792001322,None,,,,,,,,,,,,,,,,,detective,silent,white,163,88,92,1570.2987444000319,None,1570.2987444000319,None,1,1.339537400053814,1570.2987444000319,None,1571.6832439999562,None,1572.2132552000694,None,1572.2132552000694,None,n,0.2731781001202762,1572.2132552000694,None,,,NC_51,001,2022_May_03_1624,ProdSingRedo,3.2.3,59.92006663630907,
,,,,164,0,164,0,,,,,,,,,,,,,,,,,,,,,,,,1575.0071439999156,None,,,,,,,,,,,,,,,,,balance,new_b,white,164,128,17,1573.0519767000806,None,1573.0519767000806,None,1,1.011036700103432,1573.0519767000806,None,1574.1106905001216,None,1574.6320515000261,None,1574.6320515000261,None,n,0.34227370005100965,1574.6320515000261,None,,,NC_51,001,2022_May_03_1624,ProdSingRedo,3.2.3,59.92006663630907,
,,,,165,0,165,0,,,,,,,,,,,,,,,,,,,,,,,,1577.7392064000014,None,,,,,,,,,,,,,,,,,platform,sing,white,165,16,224,1575.5378362999763,None,1575.5378362999763,None,4,1.2365059999283403,1575.5378362999763,None,1576.8187388000078,None,1577.3454754000995,None,1577.3454754000995,None,f,0.35697079985402524,1577.3454754000995,None,,,NC_51,001,2022_May_03_1624,ProdSingRedo,3.2.3,59.92006663630907,
,,,,166,0,166,0,,,,,,,,,,,,,,,,,,,,,,,,1580.0399088000413,None,,,,,,,,,,,,,,,,,under,silent,white,166,70,343,1578.2640207000077,None,1578.2640207000077,None,1,0.9263627999462187,1578.2640207000077,None,1579.2365163001232,None,1579.7646950001363,None,1579.7646950001363,None,n,0.24154910002835095,1579.7646950001363,None,,,NC_51,001,2022_May_03_1624,ProdSingRedo,3.2.3,59.92006663630907,
,,,,167,0,167,0,,,,,,,,,,,,,,,,,,,,,,,,1583.32417659997,None,,,,,,,,,,,,,,,,,impact,sing,white,167,18,157,1580.5674678001087,None,1580.5674678001087,None,1,1.6148040001280606,1580.5674678001087,None,1582.2165799001232,None,1582.7444209000096,None,1582.7444209000096,None,n,0.5498889000155032,1582.7444209000096,None,,,NC_51,001,2022_May_03_1624,ProdSingRedo,3.2.3,59.92006663630907,
,,,,168,0,168,0,,,,,,,,,,,,,,,,,,,,,,,,1585.7399518000893,None,,,,,,,,,,,,,,,,,crime,new_a,white,168,98,78,1583.8456604999956,None,1583.8456604999956,None,6,1.0489285001531243,1583.8456604999956,None,1584.9237708,None,1585.435547299916,None,1585.435547299916,None,r,0.2748293001204729,1585.435547299916,None,,,NC_51,001,2022_May_03_1624,ProdSingRedo,3.2.3,59.92006663630907,
,,,,169,0,169,0,,,,,,,,,,,,,,,,,,,,,,,,1588.5212948999833,None,,,,,,,,,,,,,,,,,shock,new_a,white,169,114,284,1586.2616735999472,None,1586.2616735999472,None,6,1.3367262000683695,1586.2616735999472,None,1587.6378397000954,None,1588.1581133001018,None,1588.1581133001018,None,r,0.3122782001737505,1588.1581133001018,None,,,NC_51,001,2022_May_03_1624,ProdSingRedo,3.2.3,59.92006663630907,
,,,,170,0,170,0,,,,,,,,,,,,,,,,,,,,,,,,1590.9054243001156,None,,,,,,,,,,,,,,,,,heavy,aloud,white,170,54,151,1589.0485432001296,None,1589.0485432001296,None,1,0.9499212000519037,1589.0485432001296,None,1590.0408799001016,None,1590.5622968000825,None,1590.5622968000825,None,n,0.29205990000627935,1590.5622968000825,None,,,NC_51,001,2022_May_03_1624,ProdSingRedo,3.2.3,59.92006663630907,
,,,,171,0,171,0,,,,,,,,,,,,,,,,,,,,,,,,1593.94297250011,None,,,,,,,,,,,,,,,,,sound,aloud,white,171,43,295,1591.4337323999498,None,1591.4337323999498,None,1,1.7888535000383854,1591.4337323999498,None,1593.2725285999477,None,1593.7958035001066,None,1593.7958035001066,None,n,0.11454219999723136,1593.7958035001066,None,,,NC_51,001,2022_May_03_1624,ProdSingRedo,3.2.3,59.92006663630907,
,,,,172,0,172,0,,,,,,,,,,,,,,,,,,,,,,,,1598.7577482000925,None,,,,,,,,,,,,,,,,,congress,sing,white,172,19,67,1594.4693857999519,None,1594.4693857999519,None,6,1.320928500033915,1594.4693857999519,None,1595.8348149000667,None,1596.364476900082,None,1596.364476900082,None,r,2.3540459000505507,1596.364476900082,None,,,NC_51,001,2022_May_03_1624,ProdSingRedo,3.2.3,59.92006663630907,
,,,,173,0,173,0,,,,,,,,,,,,,,,,,,,,,,,,1601.17625889997,None,,,,,,,,,,,,,,,,,search,new_c,white,173,160,276,1599.2777414999437,None,1599.2777414999437,None,1,1.1046462999656796,1599.2777414999437,None,1600.4203693999443,None,1600.9454999999143,None,1600.9454999999143,None,n,0.19681910006329417,1600.9454999999143,None,,,NC_51,001,2022_May_03_1624,ProdSingRedo,3.2.3,59.92006663630907,
,,,,174,0,174,0,,,,,,,,,,,,,,,,,,,,,,,,1603.7577665999997,None,,,,,,,,,,,,,,,,,pressure,silent,white,174,63,232,1601.7014620001428,None,1601.7014620001428,None,1,1.2170067999977618,1601.7014620001428,None,1602.974984700093,None,1603.5040035999846,None,1603.5040035999846,None,n,0.214410699903965,1603.5040035999846,None,,,NC_51,001,2022_May_03_1624,ProdSingRedo,3.2.3,59.92006663630907,
,,,,175,0,175,0,,,,,,,,,,,,,,,,,,,,,,,,1606.1752677999903,None,,,,,,,,,,,,,,,,,school,silent,white,175,76,274,1604.2806657999754,None,1604.2806657999754,None,1,1.0536902998574078,1604.2806657999754,None,1605.3699332000688,None,1605.8908669000957,None,1605.8908669000957,None,n,0.2595909000374377,1605.8908669000957,None,,,NC_51,001,2022_May_03_1624,ProdSingRedo,3.2.3,59.92006663630907,
,,,,176,0,176,0,,,,,,,,,,,,,,,,,,,,,,,,1608.6753229000606,None,,,,,,,,,,,,,,,,,touch,new_c,white,176,157,332,1606.7017260999419,None,1606.7017260999419,None,6,1.1133374001365155,1606.7017260999419,None,1607.8562469999306,None,1608.375339700142,None,1608.375339700142,None,r,0.26312609994784,1608.375339700142,None,,,NC_51,001,2022_May_03_1624,ProdSingRedo,3.2.3,59.92006663630907,
,,,,177,0,177,0,,,,,,,,,,,,,,,,,,,,,,,,1610.9590644000564,None,,,,,,,,,,,,,,,,,partner,new_b,white,177,149,211,1609.2020954999607,None,1609.2020954999607,None,1,0.9242027001455426,1609.2020954999607,None,1610.175490600057,None,1610.6967341001146,None,1610.6967341001146,None,n,0.22961669997312129,1610.6967341001146,None,,,NC_51,001,2022_May_03_1624,ProdSingRedo,3.2.3,59.92006663630907,
,,,,178,0,178,0,,,,,,,,,,,,,,,,,,,,,,,,1613.260262900032,None,,,,,,,,,,,,,,,,,bureau,new_b,white,178,122,37,1611.4872743000742,None,1611.4872743000742,None,1,0.8869564000051469,1611.4872743000742,None,1612.4222753001377,None,1612.9522251000162,None,1612.9522251000162,None,n,0.2782566000241786,1612.9522251000162,None,,,NC_51,001,2022_May_03_1624,ProdSingRedo,3.2.3,59.92006663630907,
,,,,179,0,179,0,,,,,,,,,,,,,,,,,,,,,,,,1615.510357100051,None,,,,,,,,,,,,,,,,,subject,silent,white,179,65,312,1613.7888843999244,None,1613.7888843999244,None,1,0.9053620998747647,1613.7888843999244,None,1614.7379071000032,None,1615.2651973001193,None,1615.2651973001193,None,n,0.21310259983874857,1615.2651973001193,None,,,NC_51,001,2022_May_03_1624,ProdSingRedo,3.2.3,59.92006663630907,
,,,,,,,,,,,,,,,,,,,,,,,,,,,,,,,,,,,,,,,,,,,,,,,,,,,,,,,,,,,,,,,,,,,,,,,,,1616.021642500069,None,,,,,,,
