StudyLoop.thisRepN,StudyLoop.thisTrialN,StudyLoop.thisN,StudyLoop.thisIndex,TestLoop.thisRepN,TestLoop.thisTrialN,TestLoop.thisN,TestLoop.thisIndex,textCondition.started,textCondition.stopped,keyCondition.keys,keyCondition.rt,keyCondition.started,keyCondition.stopped,Condition,stim_colors,color_sing,color_aloud,color_silent,textWelcome.started,textWelcome.stopped,keyWelcome.keys,keyWelcome.rt,keyWelcome.started,keyWelcome.stopped,textAloud.started,textAloud.stopped,textSilent.started,textSilent.stopped,textSing.started,textSing.stopped,textBlank500.started,textBlank500.stopped,study_word,study_type,study_color,study_num,study_word_num,textStudy.started,textStudy.stopped,keyStudy.keys,keyStudy.started,keyStudy.stopped,textTestInstructions.started,textTestInstructions.stopped,key_resp_3.keys,key_resp_3.rt,key_resp_3.started,key_resp_3.stopped,testWord,testType,testColor,testN,test_num,test_word_num,textConf.started,textConf.stopped,textConfScale.started,textConfScale.stopped,keyConf.keys,keyConf.rt,keyConf.started,keyConf.stopped,textTestBlank.started,textTestBlank.stopped,textRKN.started,textRKN.stopped,textRKNScale.started,textRKNScale.stopped,keyRKN.keys,keyRKN.rt,keyRKN.started,keyRKN.stopped,textEnd.started,textEnd.stopped,participant,session,date,expName,psychopyVersion,frameRate,
,,,,,,,,57.008960800012574,None,n,2.87174169998616,57.008960800012574,None,,,,,,,,,,,,,,,,,,,,,,,,,,,,,,,,,,,,,,,,,,,,,,,,,,,,,,,,,,,,,,NC_55,001,2022_May_05_1159,ProdSingRedo,3.2.3,59.903770631176094,
,,,,,,,,,,,,,,NeutralTest,"['red', 'blue', 'yellow']",red,blue,yellow,59.94602919998579,None,space,1842.462290499825,59.94602919998579,None,,,,,,,,,,,,,,,,,,,,,,,,,,,,,,,,,,,,,,,,,,,,,,,,,,,NC_55,001,2022_May_05_1159,ProdSingRedo,3.2.3,59.903770631176094,
0,0,0,0,,,,,,,,,,,,,,,,,,,,,,59.94602919998579,None,59.94602919998579,None,59.94602919998579,None,1904.97423159983,None,empty,sing,red,28,112,1902.9698482998647,None,None,1902.9698482998647,None,,,,,,,,,,,,,,,,,,,,,,,,,,,,,,,,,NC_55,001,2022_May_05_1159,ProdSingRedo,3.2.3,59.903770631176094,
1,0,1,0,,,,,,,,,,,,,,,,,,,,,,,,,,,,1907.4894105999265,None,store,silent,yellow,71,305,1905.4816693998873,None,None,1905.4816693998873,None,,,,,,,,,,,,,,,,,,,,,,,,,,,,,,,,,NC_55,001,2022_May_05_1159,ProdSingRedo,3.2.3,59.903770631176094,
2,0,2,0,,,,,,,,,,,,,,,,,,,,,,,,,,,,1910.0052002000157,None,cousin,silent,yellow,86,76,1908.0023818998598,None,None,1908.0023818998598,None,,,,,,,,,,,,,,,,,,,,,,,,,,,,,,,,,NC_55,001,2022_May_05_1159,ProdSingRedo,3.2.3,59.903770631176094,
3,0,3,0,,,,,,,,,,,,,,,,,,,,,,,,,,,,1912.523009199882,None,character,silent,yellow,82,46,1910.5224444998894,None,None,1910.5224444998894,None,,,,,,,,,,,,,,,,,,,,,,,,,,,,,,,,,NC_55,001,2022_May_05_1159,ProdSingRedo,3.2.3,59.903770631176094,
4,0,4,0,,,,,,,,,,,,,,,,,,,,,,,,,,,,1915.039828100009,None,blind,sing,red,18,24,1913.032664399827,None,None,1913.032664399827,None,,,,,,,,,,,,,,,,,,,,,,,,,,,,,,,,,NC_55,001,2022_May_05_1159,ProdSingRedo,3.2.3,59.903770631176094,
5,0,5,0,,,,,,,,,,,,,,,,,,,,,,,,,,,,1917.5566153998952,None,question,aloud,blue,53,247,1915.5594148000237,None,None,1915.5594148000237,None,,,,,,,,,,,,,,,,,,,,,,,,,,,,,,,,,NC_55,001,2022_May_05_1159,ProdSingRedo,3.2.3,59.903770631176094,
6,0,6,0,,,,,,,,,,,,,,,,,,,,,,,,,,,,1920.0735018998384,None,listen,aloud,blue,31,172,1918.0663259997964,None,None,1918.0663259997964,None,,,,,,,,,,,,,,,,,,,,,,,,,,,,,,,,,NC_55,001,2022_May_05_1159,ProdSingRedo,3.2.3,59.903770631176094,
7,0,7,0,,,,,,,,,,,,,,,,,,,,,,,,,,,,1922.5904368998017,None,light,aloud,blue,32,171,1920.5870495999698,None,None,1920.5870495999698,None,,,,,,,,,,,,,,,,,,,,,,,,,,,,,,,,,NC_55,001,2022_May_05_1159,ProdSingRedo,3.2.3,59.903770631176094,
8,0,8,0,,,,,,,,,,,,,,,,,,,,,,,,,,,,1925.120648099808,None,scene,aloud,blue,46,273,1923.0990551998839,None,None,1923.0990551998839,None,,,,,,,,,,,,,,,,,,,,,,,,,,,,,,,,,NC_55,001,2022_May_05_1159,ProdSingRedo,3.2.3,59.903770631176094,
9,0,9,0,,,,,,,,,,,,,,,,,,,,,,,,,,,,1927.623895399971,None,partner,silent,yellow,88,211,1925.6218067000154,None,None,1925.6218067000154,None,,,,,,,,,,,,,,,,,,,,,,,,,,,,,,,,,NC_55,001,2022_May_05_1159,ProdSingRedo,3.2.3,59.903770631176094,
10,0,10,0,,,,,,,,,,,,,,,,,,,,,,,,,,,,1930.1399230000097,None,estate,sing,red,25,119,1928.1422182999086,None,None,1928.1422182999086,None,,,,,,,,,,,,,,,,,,,,,,,,,,,,,,,,,NC_55,001,2022_May_05_1159,ProdSingRedo,3.2.3,59.903770631176094,
11,0,11,0,,,,,,,,,,,,,,,,,,,,,,,,,,,,1932.6411828999408,None,weight,silent,yellow,61,353,1930.6416154999752,None,None,1930.6416154999752,None,,,,,,,,,,,,,,,,,,,,,,,,,,,,,,,,,NC_55,001,2022_May_05_1159,ProdSingRedo,3.2.3,59.903770631176094,
12,0,12,0,,,,,,,,,,,,,,,,,,,,,,,,,,,,1935.1578954998404,None,enemy,aloud,blue,43,113,1933.1490807000082,None,None,1933.1490807000082,None,,,,,,,,,,,,,,,,,,,,,,,,,,,,,,,,,NC_55,001,2022_May_05_1159,ProdSingRedo,3.2.3,59.903770631176094,
13,0,13,0,,,,,,,,,,,,,,,,,,,,,,,,,,,,1937.6747830999084,None,crisis,sing,red,1,79,1935.6666124998592,None,None,1935.6666124998592,None,,,,,,,,,,,,,,,,,,,,,,,,,,,,,,,,,NC_55,001,2022_May_05_1159,ProdSingRedo,3.2.3,59.903770631176094,
14,0,14,0,,,,,,,,,,,,,,,,,,,,,,,,,,,,1940.191537299892,None,bicycle,aloud,blue,37,21,1938.191528499825,None,None,1938.191528499825,None,,,,,,,,,,,,,,,,,,,,,,,,,,,,,,,,,NC_55,001,2022_May_05_1159,ProdSingRedo,3.2.3,59.903770631176094,
15,0,15,0,,,,,,,,,,,,,,,,,,,,,,,,,,,,1942.708501999965,None,story,aloud,blue,39,306,1940.6935932999477,None,None,1940.6935932999477,None,,,,,,,,,,,,,,,,,,,,,,,,,,,,,,,,,NC_55,001,2022_May_05_1159,ProdSingRedo,3.2.3,59.903770631176094,
16,0,16,0,,,,,,,,,,,,,,,,,,,,,,,,,,,,1945.2252215999179,None,ground,aloud,blue,38,142,1943.222083499888,None,None,1943.222083499888,None,,,,,,,,,,,,,,,,,,,,,,,,,,,,,,,,,NC_55,001,2022_May_05_1159,ProdSingRedo,3.2.3,59.903770631176094,
17,0,17,0,,,,,,,,,,,,,,,,,,,,,,,,,,,,1947.7420430998318,None,nation,aloud,blue,50,198,1945.7395564999897,None,None,1945.7395564999897,None,,,,,,,,,,,,,,,,,,,,,,,,,,,,,,,,,NC_55,001,2022_May_05_1159,ProdSingRedo,3.2.3,59.903770631176094,
18,0,18,0,,,,,,,,,,,,,,,,,,,,,,,,,,,,1950.258932000026,None,corner,sing,red,5,69,1948.2492709998041,None,None,1948.2492709998041,None,,,,,,,,,,,,,,,,,,,,,,,,,,,,,,,,,NC_55,001,2022_May_05_1159,ProdSingRedo,3.2.3,59.903770631176094,
19,0,19,0,,,,,,,,,,,,,,,,,,,,,,,,,,,,1952.7756933998317,None,solution,silent,yellow,75,294,1950.775262299925,None,None,1950.775262299925,None,,,,,,,,,,,,,,,,,,,,,,,,,,,,,,,,,NC_55,001,2022_May_05_1159,ProdSingRedo,3.2.3,59.903770631176094,
20,0,20,0,,,,,,,,,,,,,,,,,,,,,,,,,,,,1955.2924464999232,None,smooth,aloud,blue,40,292,1953.2844083998352,None,None,1953.2844083998352,None,,,,,,,,,,,,,,,,,,,,,,,,,,,,,,,,,NC_55,001,2022_May_05_1159,ProdSingRedo,3.2.3,59.903770631176094,
21,0,21,0,,,,,,,,,,,,,,,,,,,,,,,,,,,,1957.809578999877,None,minute,silent,yellow,66,192,1955.8060991999228,None,None,1955.8060991999228,None,,,,,,,,,,,,,,,,,,,,,,,,,,,,,,,,,NC_55,001,2022_May_05_1159,ProdSingRedo,3.2.3,59.903770631176094,
22,0,22,0,,,,,,,,,,,,,,,,,,,,,,,,,,,,1960.3262138999999,None,profession,sing,red,7,241,1958.323757499922,None,None,1958.323757499922,None,,,,,,,,,,,,,,,,,,,,,,,,,,,,,,,,,NC_55,001,2022_May_05_1159,ProdSingRedo,3.2.3,59.903770631176094,
23,0,23,0,,,,,,,,,,,,,,,,,,,,,,,,,,,,1962.843042399967,None,community,sing,red,10,63,1960.8430553998332,None,None,1960.8430553998332,None,,,,,,,,,,,,,,,,,,,,,,,,,,,,,,,,,NC_55,001,2022_May_05_1159,ProdSingRedo,3.2.3,59.903770631176094,
24,0,24,0,,,,,,,,,,,,,,,,,,,,,,,,,,,,1965.3598583999556,None,pancakes,silent,yellow,84,210,1963.3669821999501,None,None,1963.3669821999501,None,,,,,,,,,,,,,,,,,,,,,,,,,,,,,,,,,NC_55,001,2022_May_05_1159,ProdSingRedo,3.2.3,59.903770631176094,
25,0,25,0,,,,,,,,,,,,,,,,,,,,,,,,,,,,1967.8767394998576,None,search,silent,yellow,68,276,1965.8721172998194,None,None,1965.8721172998194,None,,,,,,,,,,,,,,,,,,,,,,,,,,,,,,,,,NC_55,001,2022_May_05_1159,ProdSingRedo,3.2.3,59.903770631176094,
26,0,26,0,,,,,,,,,,,,,,,,,,,,,,,,,,,,1970.3935293999966,None,fellow,aloud,blue,52,126,1968.3893508999608,None,None,1968.3893508999608,None,,,,,,,,,,,,,,,,,,,,,,,,,,,,,,,,,NC_55,001,2022_May_05_1159,ProdSingRedo,3.2.3,59.903770631176094,
27,0,27,0,,,,,,,,,,,,,,,,,,,,,,,,,,,,1972.9102765999269,None,impact,aloud,blue,56,157,1970.907151899999,None,None,1970.907151899999,None,,,,,,,,,,,,,,,,,,,,,,,,,,,,,,,,,NC_55,001,2022_May_05_1159,ProdSingRedo,3.2.3,59.903770631176094,
28,0,28,0,,,,,,,,,,,,,,,,,,,,,,,,,,,,1975.427257800009,None,graduate,silent,yellow,79,141,1973.4252503998578,None,None,1973.4252503998578,None,,,,,,,,,,,,,,,,,,,,,,,,,,,,,,,,,NC_55,001,2022_May_05_1159,ProdSingRedo,3.2.3,59.903770631176094,
29,0,29,0,,,,,,,,,,,,,,,,,,,,,,,,,,,,1977.9440619000234,None,silence,aloud,blue,48,288,1975.9355790999252,None,None,1975.9355790999252,None,,,,,,,,,,,,,,,,,,,,,,,,,,,,,,,,,NC_55,001,2022_May_05_1159,ProdSingRedo,3.2.3,59.903770631176094,
30,0,30,0,,,,,,,,,,,,,,,,,,,,,,,,,,,,1980.4609153999481,None,reach,silent,yellow,85,253,1978.4566285000183,None,None,1978.4566285000183,None,,,,,,,,,,,,,,,,,,,,,,,,,,,,,,,,,NC_55,001,2022_May_05_1159,ProdSingRedo,3.2.3,59.903770631176094,
31,0,31,0,,,,,,,,,,,,,,,,,,,,,,,,,,,,1982.9777651999611,None,evidence,aloud,blue,34,120,1980.98289330001,None,None,1980.98289330001,None,,,,,,,,,,,,,,,,,,,,,,,,,,,,,,,,,NC_55,001,2022_May_05_1159,ProdSingRedo,3.2.3,59.903770631176094,
32,0,32,0,,,,,,,,,,,,,,,,,,,,,,,,,,,,1985.494665700011,None,member,aloud,blue,59,188,1983.4919166998006,None,None,1983.4919166998006,None,,,,,,,,,,,,,,,,,,,,,,,,,,,,,,,,,NC_55,001,2022_May_05_1159,ProdSingRedo,3.2.3,59.903770631176094,
33,0,33,0,,,,,,,,,,,,,,,,,,,,,,,,,,,,1988.0113931999076,None,people,silent,yellow,62,216,1986.0038530998863,None,None,1986.0038530998863,None,,,,,,,,,,,,,,,,,,,,,,,,,,,,,,,,,NC_55,001,2022_May_05_1159,ProdSingRedo,3.2.3,59.903770631176094,
34,0,34,0,,,,,,,,,,,,,,,,,,,,,,,,,,,,1990.528285499895,None,place,sing,red,8,222,1988.5227901998442,None,None,1988.5227901998442,None,,,,,,,,,,,,,,,,,,,,,,,,,,,,,,,,,NC_55,001,2022_May_05_1159,ProdSingRedo,3.2.3,59.903770631176094,
35,0,35,0,,,,,,,,,,,,,,,,,,,,,,,,,,,,1993.0286452998407,None,surface,sing,red,24,316,1991.027173699811,None,None,1991.027173699811,None,,,,,,,,,,,,,,,,,,,,,,,,,,,,,,,,,NC_55,001,2022_May_05_1159,ProdSingRedo,3.2.3,59.903770631176094,
36,0,36,0,,,,,,,,,,,,,,,,,,,,,,,,,,,,1995.5618716999888,None,budget,aloud,blue,51,34,1993.5666767999064,None,None,1993.5666767999064,None,,,,,,,,,,,,,,,,,,,,,,,,,,,,,,,,,NC_55,001,2022_May_05_1159,ProdSingRedo,3.2.3,59.903770631176094,
37,0,37,0,,,,,,,,,,,,,,,,,,,,,,,,,,,,1998.0788614000194,None,contract,aloud,blue,49,68,1996.0774196998682,None,None,1996.0774196998682,None,,,,,,,,,,,,,,,,,,,,,,,,,,,,,,,,,NC_55,001,2022_May_05_1159,ProdSingRedo,3.2.3,59.903770631176094,
38,0,38,0,,,,,,,,,,,,,,,,,,,,,,,,,,,,2000.595677800011,None,universal,aloud,blue,54,345,1998.6005461998284,None,None,1998.6005461998284,None,,,,,,,,,,,,,,,,,,,,,,,,,,,,,,,,,NC_55,001,2022_May_05_1159,ProdSingRedo,3.2.3,59.903770631176094,
39,0,39,0,,,,,,,,,,,,,,,,,,,,,,,,,,,,2003.112357799895,None,military,sing,red,9,190,2001.1129807999823,None,None,2001.1129807999823,None,,,,,,,,,,,,,,,,,,,,,,,,,,,,,,,,,NC_55,001,2022_May_05_1159,ProdSingRedo,3.2.3,59.903770631176094,
40,0,40,0,,,,,,,,,,,,,,,,,,,,,,,,,,,,2005.6292432998307,None,public,sing,red,14,244,2003.6283970000222,None,None,2003.6283970000222,None,,,,,,,,,,,,,,,,,,,,,,,,,,,,,,,,,NC_55,001,2022_May_05_1159,ProdSingRedo,3.2.3,59.903770631176094,
41,0,41,0,,,,,,,,,,,,,,,,,,,,,,,,,,,,2008.1460900998209,None,quick,sing,red,20,248,2006.1445815998595,None,None,2006.1445815998595,None,,,,,,,,,,,,,,,,,,,,,,,,,,,,,,,,,NC_55,001,2022_May_05_1159,ProdSingRedo,3.2.3,59.903770631176094,
42,0,42,0,,,,,,,,,,,,,,,,,,,,,,,,,,,,2010.6629029999021,None,report,silent,yellow,87,259,2008.6545902998187,None,None,2008.6545902998187,None,,,,,,,,,,,,,,,,,,,,,,,,,,,,,,,,,NC_55,001,2022_May_05_1159,ProdSingRedo,3.2.3,59.903770631176094,
43,0,43,0,,,,,,,,,,,,,,,,,,,,,,,,,,,,2013.1797974999063,None,household,aloud,blue,33,154,2011.1786203999072,None,None,2011.1786203999072,None,,,,,,,,,,,,,,,,,,,,,,,,,,,,,,,,,NC_55,001,2022_May_05_1159,ProdSingRedo,3.2.3,59.903770631176094,
44,0,44,0,,,,,,,,,,,,,,,,,,,,,,,,,,,,2015.6966924997978,None,suspect,silent,yellow,63,318,2013.6930362998974,None,None,2013.6930362998974,None,,,,,,,,,,,,,,,,,,,,,,,,,,,,,,,,,NC_55,001,2022_May_05_1159,ProdSingRedo,3.2.3,59.903770631176094,
45,0,45,0,,,,,,,,,,,,,,,,,,,,,,,,,,,,2018.2135756998323,None,cover,sing,red,22,77,2016.2095360998064,None,None,2016.2095360998064,None,,,,,,,,,,,,,,,,,,,,,,,,,,,,,,,,,NC_55,001,2022_May_05_1159,ProdSingRedo,3.2.3,59.903770631176094,
46,0,46,0,,,,,,,,,,,,,,,,,,,,,,,,,,,,2020.7302766998764,None,management,aloud,blue,44,177,2018.7299865998793,None,None,2018.7299865998793,None,,,,,,,,,,,,,,,,,,,,,,,,,,,,,,,,,NC_55,001,2022_May_05_1159,ProdSingRedo,3.2.3,59.903770631176094,
47,0,47,0,,,,,,,,,,,,,,,,,,,,,,,,,,,,2023.2471280000173,None,device,sing,red,2,93,2021.2448600998614,None,None,2021.2448600998614,None,,,,,,,,,,,,,,,,,,,,,,,,,,,,,,,,,NC_55,001,2022_May_05_1159,ProdSingRedo,3.2.3,59.903770631176094,
48,0,48,0,,,,,,,,,,,,,,,,,,,,,,,,,,,,2025.7639518999495,None,provision,aloud,blue,36,243,2023.763962399913,None,None,2023.763962399913,None,,,,,,,,,,,,,,,,,,,,,,,,,,,,,,,,,NC_55,001,2022_May_05_1159,ProdSingRedo,3.2.3,59.903770631176094,
49,0,49,0,,,,,,,,,,,,,,,,,,,,,,,,,,,,2028.28061529994,None,territory,silent,yellow,81,324,2026.2782796998508,None,None,2026.2782796998508,None,,,,,,,,,,,,,,,,,,,,,,,,,,,,,,,,,NC_55,001,2022_May_05_1159,ProdSingRedo,3.2.3,59.903770631176094,
50,0,50,0,,,,,,,,,,,,,,,,,,,,,,,,,,,,2030.79698679992,None,split,silent,yellow,65,299,2028.7886022999883,None,None,2028.7886022999883,None,,,,,,,,,,,,,,,,,,,,,,,,,,,,,,,,,NC_55,001,2022_May_05_1159,ProdSingRedo,3.2.3,59.903770631176094,
51,0,51,0,,,,,,,,,,,,,,,,,,,,,,,,,,,,2033.3144560998771,None,career,aloud,blue,41,42,2031.3025681998115,None,None,2031.3025681998115,None,,,,,,,,,,,,,,,,,,,,,,,,,,,,,,,,,NC_55,001,2022_May_05_1159,ProdSingRedo,3.2.3,59.903770631176094,
52,0,52,0,,,,,,,,,,,,,,,,,,,,,,,,,,,,2035.8312301000115,None,harmony,sing,red,6,148,2033.8290396998636,None,None,2033.8290396998636,None,,,,,,,,,,,,,,,,,,,,,,,,,,,,,,,,,NC_55,001,2022_May_05_1159,ProdSingRedo,3.2.3,59.903770631176094,
53,0,53,0,,,,,,,,,,,,,,,,,,,,,,,,,,,,2038.3481312999502,None,count,sing,red,17,72,2036.3448728998192,None,None,2036.3448728998192,None,,,,,,,,,,,,,,,,,,,,,,,,,,,,,,,,,NC_55,001,2022_May_05_1159,ProdSingRedo,3.2.3,59.903770631176094,
54,0,54,0,,,,,,,,,,,,,,,,,,,,,,,,,,,,2040.8649606998079,None,couch,aloud,blue,47,70,2038.8591415998526,None,None,2038.8591415998526,None,,,,,,,,,,,,,,,,,,,,,,,,,,,,,,,,,NC_55,001,2022_May_05_1159,ProdSingRedo,3.2.3,59.903770631176094,
55,0,55,0,,,,,,,,,,,,,,,,,,,,,,,,,,,,2043.3809217999224,None,general,silent,yellow,64,135,2041.3677691000048,None,None,2041.3677691000048,None,,,,,,,,,,,,,,,,,,,,,,,,,,,,,,,,,NC_55,001,2022_May_05_1159,ProdSingRedo,3.2.3,59.903770631176094,
56,0,56,0,,,,,,,,,,,,,,,,,,,,,,,,,,,,2045.89864319982,None,power,silent,yellow,74,230,2043.8961804998107,None,None,2043.8961804998107,None,,,,,,,,,,,,,,,,,,,,,,,,,,,,,,,,,NC_55,001,2022_May_05_1159,ProdSingRedo,3.2.3,59.903770631176094,
57,0,57,0,,,,,,,,,,,,,,,,,,,,,,,,,,,,2048.415458599804,None,little,silent,yellow,80,174,2046.40373429982,None,None,2046.40373429982,None,,,,,,,,,,,,,,,,,,,,,,,,,,,,,,,,,NC_55,001,2022_May_05_1159,ProdSingRedo,3.2.3,59.903770631176094,
58,0,58,0,,,,,,,,,,,,,,,,,,,,,,,,,,,,2050.9322879998945,None,generation,sing,red,29,136,2048.931193899829,None,None,2048.931193899829,None,,,,,,,,,,,,,,,,,,,,,,,,,,,,,,,,,NC_55,001,2022_May_05_1159,ProdSingRedo,3.2.3,59.903770631176094,
59,0,59,0,,,,,,,,,,,,,,,,,,,,,,,,,,,,2053.449153699912,None,tough,silent,yellow,78,333,2051.445898399921,None,None,2051.445898399921,None,,,,,,,,,,,,,,,,,,,,,,,,,,,,,,,,,NC_55,001,2022_May_05_1159,ProdSingRedo,3.2.3,59.903770631176094,
60,0,60,0,,,,,,,,,,,,,,,,,,,,,,,,,,,,2055.949355899822,None,committee,aloud,blue,58,62,2053.9484631000087,None,None,2053.9484631000087,None,,,,,,,,,,,,,,,,,,,,,,,,,,,,,,,,,NC_55,001,2022_May_05_1159,ProdSingRedo,3.2.3,59.903770631176094,
61,0,61,0,,,,,,,,,,,,,,,,,,,,,,,,,,,,2058.4663988000248,None,finish,sing,red,12,130,2056.4562335999217,None,None,2056.4562335999217,None,,,,,,,,,,,,,,,,,,,,,,,,,,,,,,,,,NC_55,001,2022_May_05_1159,ProdSingRedo,3.2.3,59.903770631176094,
62,0,62,0,,,,,,,,,,,,,,,,,,,,,,,,,,,,2060.982952399878,None,state,sing,red,15,303,2058.9790771999396,None,None,2058.9790771999396,None,,,,,,,,,,,,,,,,,,,,,,,,,,,,,,,,,NC_55,001,2022_May_05_1159,ProdSingRedo,3.2.3,59.903770631176094,
63,0,63,0,,,,,,,,,,,,,,,,,,,,,,,,,,,,2063.499841899844,None,machinery,sing,red,26,175,2061.4985611999873,None,None,2061.4985611999873,None,,,,,,,,,,,,,,,,,,,,,,,,,,,,,,,,,NC_55,001,2022_May_05_1159,ProdSingRedo,3.2.3,59.903770631176094,
64,0,64,0,,,,,,,,,,,,,,,,,,,,,,,,,,,,2066.016684499802,None,income,silent,yellow,76,159,2064.008842299925,None,None,2064.008842299925,None,,,,,,,,,,,,,,,,,,,,,,,,,,,,,,,,,NC_55,001,2022_May_05_1159,ProdSingRedo,3.2.3,59.903770631176094,
65,0,65,0,,,,,,,,,,,,,,,,,,,,,,,,,,,,2068.533566399943,None,session,aloud,blue,55,281,2066.5254826999735,None,None,2066.5254826999735,None,,,,,,,,,,,,,,,,,,,,,,,,,,,,,,,,,NC_55,001,2022_May_05_1159,ProdSingRedo,3.2.3,59.903770631176094,
66,0,66,0,,,,,,,,,,,,,,,,,,,,,,,,,,,,2071.050361200003,None,south,sing,red,13,296,2069.0453866999596,None,None,2069.0453866999596,None,,,,,,,,,,,,,,,,,,,,,,,,,,,,,,,,,NC_55,001,2022_May_05_1159,ProdSingRedo,3.2.3,59.903770631176094,
67,0,67,0,,,,,,,,,,,,,,,,,,,,,,,,,,,,2073.5505062998272,None,appeal,silent,yellow,69,9,2071.5505696998443,None,None,2071.5505696998443,None,,,,,,,,,,,,,,,,,,,,,,,,,,,,,,,,,NC_55,001,2022_May_05_1159,ProdSingRedo,3.2.3,59.903770631176094,
68,0,68,0,,,,,,,,,,,,,,,,,,,,,,,,,,,,2076.06734389998,None,color,sing,red,0,56,2074.0613119998015,None,None,2074.0613119998015,None,,,,,,,,,,,,,,,,,,,,,,,,,,,,,,,,,NC_55,001,2022_May_05_1159,ProdSingRedo,3.2.3,59.903770631176094,
69,0,69,0,,,,,,,,,,,,,,,,,,,,,,,,,,,,2078.5841822999064,None,collection,silent,yellow,72,54,2076.5765682999045,None,None,2076.5765682999045,None,,,,,,,,,,,,,,,,,,,,,,,,,,,,,,,,,NC_55,001,2022_May_05_1159,ProdSingRedo,3.2.3,59.903770631176094,
70,0,70,0,,,,,,,,,,,,,,,,,,,,,,,,,,,,2081.1034168999176,None,business,silent,yellow,73,38,2079.099263199838,None,None,2079.099263199838,None,,,,,,,,,,,,,,,,,,,,,,,,,,,,,,,,,NC_55,001,2022_May_05_1159,ProdSingRedo,3.2.3,59.903770631176094,
71,0,71,0,,,,,,,,,,,,,,,,,,,,,,,,,,,,2083.6179432999343,None,series,sing,red,19,279,2081.6098404999357,None,None,2081.6098404999357,None,,,,,,,,,,,,,,,,,,,,,,,,,,,,,,,,,NC_55,001,2022_May_05_1159,ProdSingRedo,3.2.3,59.903770631176094,
72,0,72,0,,,,,,,,,,,,,,,,,,,,,,,,,,,,2086.1346251999494,None,religion,silent,yellow,70,258,2084.133464699844,None,None,2084.133464699844,None,,,,,,,,,,,,,,,,,,,,,,,,,,,,,,,,,NC_55,001,2022_May_05_1159,ProdSingRedo,3.2.3,59.903770631176094,
73,0,73,0,,,,,,,,,,,,,,,,,,,,,,,,,,,,2088.6517974999733,None,appearance,sing,red,23,10,2086.652077199891,None,None,2086.652077199891,None,,,,,,,,,,,,,,,,,,,,,,,,,,,,,,,,,NC_55,001,2022_May_05_1159,ProdSingRedo,3.2.3,59.903770631176094,
74,0,74,0,,,,,,,,,,,,,,,,,,,,,,,,,,,,2091.168387899874,None,personnel,aloud,blue,57,219,2089.1613854998723,None,None,2089.1613854998723,None,,,,,,,,,,,,,,,,,,,,,,,,,,,,,,,,,NC_55,001,2022_May_05_1159,ProdSingRedo,3.2.3,59.903770631176094,
75,0,75,0,,,,,,,,,,,,,,,,,,,,,,,,,,,,2093.685330600012,None,institute,silent,yellow,89,162,2091.683712299913,None,None,2091.683712299913,None,,,,,,,,,,,,,,,,,,,,,,,,,,,,,,,,,NC_55,001,2022_May_05_1159,ProdSingRedo,3.2.3,59.903770631176094,
76,0,76,0,,,,,,,,,,,,,,,,,,,,,,,,,,,,2096.2020900999196,None,concern,sing,red,16,65,2094.1939687998965,None,None,2094.1939687998965,None,,,,,,,,,,,,,,,,,,,,,,,,,,,,,,,,,NC_55,001,2022_May_05_1159,ProdSingRedo,3.2.3,59.903770631176094,
77,0,77,0,,,,,,,,,,,,,,,,,,,,,,,,,,,,2098.7188887998927,None,election,silent,yellow,60,109,2096.7133106000256,None,None,2096.7133106000256,None,,,,,,,,,,,,,,,,,,,,,,,,,,,,,,,,,NC_55,001,2022_May_05_1159,ProdSingRedo,3.2.3,59.903770631176094,
78,0,78,0,,,,,,,,,,,,,,,,,,,,,,,,,,,,2101.2357621998526,None,signal,sing,red,4,287,2099.234887999948,None,None,2099.234887999948,None,,,,,,,,,,,,,,,,,,,,,,,,,,,,,,,,,NC_55,001,2022_May_05_1159,ProdSingRedo,3.2.3,59.903770631176094,
79,0,79,0,,,,,,,,,,,,,,,,,,,,,,,,,,,,2103.7362792999484,None,capital,silent,yellow,77,40,2101.7366350998636,None,None,2101.7366350998636,None,,,,,,,,,,,,,,,,,,,,,,,,,,,,,,,,,NC_55,001,2022_May_05_1159,ProdSingRedo,3.2.3,59.903770631176094,
80,0,80,0,,,,,,,,,,,,,,,,,,,,,,,,,,,,2106.252572499914,None,strength,aloud,blue,42,310,2104.2525302998256,None,None,2104.2525302998256,None,,,,,,,,,,,,,,,,,,,,,,,,,,,,,,,,,NC_55,001,2022_May_05_1159,ProdSingRedo,3.2.3,59.903770631176094,
81,0,81,0,,,,,,,,,,,,,,,,,,,,,,,,,,,,2108.769537999993,None,skill,sing,red,21,289,2106.7640602998435,None,None,2106.7640602998435,None,,,,,,,,,,,,,,,,,,,,,,,,,,,,,,,,,NC_55,001,2022_May_05_1159,ProdSingRedo,3.2.3,59.903770631176094,
82,0,82,0,,,,,,,,,,,,,,,,,,,,,,,,,,,,2111.2863523999695,None,range,aloud,blue,30,251,2109.285432799952,None,None,2109.285432799952,None,,,,,,,,,,,,,,,,,,,,,,,,,,,,,,,,,NC_55,001,2022_May_05_1159,ProdSingRedo,3.2.3,59.903770631176094,
83,0,83,0,,,,,,,,,,,,,,,,,,,,,,,,,,,,2113.803301699925,None,afternoon,sing,red,27,3,2111.798871499952,None,None,2111.798871499952,None,,,,,,,,,,,,,,,,,,,,,,,,,,,,,,,,,NC_55,001,2022_May_05_1159,ProdSingRedo,3.2.3,59.903770631176094,
84,0,84,0,,,,,,,,,,,,,,,,,,,,,,,,,,,,2116.3216778999195,None,comedy,sing,red,3,58,2114.315546499798,None,None,2114.315546499798,None,,,,,,,,,,,,,,,,,,,,,,,,,,,,,,,,,NC_55,001,2022_May_05_1159,ProdSingRedo,3.2.3,59.903770631176094,
85,0,85,0,,,,,,,,,,,,,,,,,,,,,,,,,,,,2118.83697139984,None,childhood,aloud,blue,45,49,2116.824964399915,None,None,2116.824964399915,None,,,,,,,,,,,,,,,,,,,,,,,,,,,,,,,,,NC_55,001,2022_May_05_1159,ProdSingRedo,3.2.3,59.903770631176094,
86,0,86,0,,,,,,,,,,,,,,,,,,,,,,,,,,,,2121.3528179998975,None,watch,aloud,blue,35,351,2119.348601499805,None,None,2119.348601499805,None,,,,,,,,,,,,,,,,,,,,,,,,,,,,,,,,,NC_55,001,2022_May_05_1159,ProdSingRedo,3.2.3,59.903770631176094,
87,0,87,0,,,,,,,,,,,,,,,,,,,,,,,,,,,,2123.87062479998,None,service,sing,red,11,280,2121.869694299996,None,None,2121.869694299996,None,,,,,,,,,,,,,,,,,,,,,,,,,,,,,,,,,NC_55,001,2022_May_05_1159,ProdSingRedo,3.2.3,59.903770631176094,
88,0,88,0,,,,,,,,,,,,,,,,,,,,,,,,,,,,2126.3872431998607,None,brief,silent,yellow,83,28,2124.3836793999653,None,None,2124.3836793999653,None,,,,,,,,,,,,,,,,,,,,,,,,,,,,,,,,,NC_55,001,2022_May_05_1159,ProdSingRedo,3.2.3,59.903770631176094,
89,0,89,0,,,,,,,,,,,,,,,,,,,,,,,,,,,,2128.9042036999017,None,permit,silent,yellow,67,218,2126.8973578999285,None,None,2126.8973578999285,None,,,,,,,,,,,,,,,,,,,,,,,,,,,,,,,,,NC_55,001,2022_May_05_1159,ProdSingRedo,3.2.3,59.903770631176094,
,,,,,,,,,,,,,,,,,,,,,,,,,,,,,,,,,,,,,,,,,,,2129.404322199989,None,k,126.42786980001256,2129.404322199989,None,,,,,,,,,,,,,,,,,,,,,,,,,,,NC_55,001,2022_May_05_1159,ProdSingRedo,3.2.3,59.903770631176094,
,,,,0,0,0,0,,,,,,,,,,,,,,,,,,,,,,,,2264.5920035999734,None,,,,,,,,,,,,,,,,,range,aloud,white,0,30,251,2256.387366999872,None,2256.387366999872,None,1,2.668764900183305,2256.387366999872,None,2259.102621599799,None,2259.626456499798,None,2259.626456499798,None,n,4.925663699861616,2259.626456499798,None,,,NC_55,001,2022_May_05_1159,ProdSingRedo,3.2.3,59.903770631176094,
,,,,1,0,1,0,,,,,,,,,,,,,,,,,,,,,,,,2272.640132899862,None,,,,,,,,,,,,,,,,,income,silent,white,1,76,159,2265.112965799868,None,2265.112965799868,None,3,5.655229999916628,2265.112965799868,None,2270.818162499927,None,2271.3372384998947,None,2271.3372384998947,None,f,1.2712492998689413,2271.3372384998947,None,,,NC_55,001,2022_May_05_1159,ProdSingRedo,3.2.3,59.903770631176094,
,,,,2,0,2,0,,,,,,,,,,,,,,,,,,,,,,,,2277.855868499959,None,,,,,,,,,,,,,,,,,raise,new_a,white,2,107,250,2273.1633752998896,None,2273.1633752998896,None,1,2.1009423001669347,2273.1633752998896,None,2275.3074967998546,None,2275.824838100001,None,2275.824838100001,None,n,1.9913966997992247,2275.824838100001,None,,,NC_55,001,2022_May_05_1159,ProdSingRedo,3.2.3,59.903770631176094,
,,,,3,0,3,0,,,,,,,,,,,,,,,,,,,,,,,,2286.189198399894,None,,,,,,,,,,,,,,,,,corner,sing,white,3,5,69,2278.3642276998144,None,2278.3642276998144,None,6,5.900119399884716,2278.3642276998144,None,2284.303295099875,None,2284.823271599831,None,2284.823271599831,None,r,1.3289063000120223,2284.823271599831,None,,,NC_55,001,2022_May_05_1159,ProdSingRedo,3.2.3,59.903770631176094,
,,,,4,0,4,0,,,,,,,,,,,,,,,,,,,,,,,,2291.273694699863,None,,,,,,,,,,,,,,,,,religion,silent,white,4,70,258,2286.708503099857,None,2286.708503099857,None,6,3.619530500145629,2286.708503099857,None,2290.377371399896,None,2290.892598199891,None,2290.892598199891,None,r,0.34784730011597276,2290.892598199891,None,,,NC_55,001,2022_May_05_1159,ProdSingRedo,3.2.3,59.903770631176094,
,,,,5,0,5,0,,,,,,,,,,,,,,,,,,,,,,,,2294.768025399884,None,,,,,,,,,,,,,,,,,state,sing,white,5,15,303,2291.7970391998533,None,2291.7970391998533,None,6,2.3632569999899715,2291.7970391998533,None,2294.206206599949,None,2294.725046399981,None,2294.725046399981,None,r,0.019064599880948663,2294.725046399981,None,,,NC_55,001,2022_May_05_1159,ProdSingRedo,3.2.3,59.903770631176094,
,,,,6,0,6,0,,,,,,,,,,,,,,,,,,,,,,,,2301.9156239998993,None,,,,,,,,,,,,,,,,,dance,new_a,white,6,100,84,2295.2982363000046,None,2295.2982363000046,None,3,4.557808300014585,2295.2982363000046,None,2299.9048374998383,None,2300.425709699979,None,2300.425709699979,None,f,1.4705411000177264,2300.425709699979,None,,,NC_55,001,2022_May_05_1159,ProdSingRedo,3.2.3,59.903770631176094,
,,,,7,0,7,0,,,,,,,,,,,,,,,,,,,,,,,,2307.6612585999537,None,,,,,,,,,,,,,,,,,scene,aloud,white,7,46,273,2302.41682579997,None,2302.41682579997,None,6,3.615309900138527,2302.41682579997,None,2306.0685091998894,None,2306.5897937999107,None,2306.5897937999107,None,r,1.0425542001612484,2306.5897937999107,None,,,NC_55,001,2022_May_05_1159,ProdSingRedo,3.2.3,59.903770631176094,
,,,,8,0,8,0,,,,,,,,,,,,,,,,,,,,,,,,2313.4135912999045,None,,,,,,,,,,,,,,,,,quarter,new_a,white,8,99,246,2308.178744799923,None,2308.178744799923,None,5,3.7729883999563754,2308.178744799923,None,2311.9885120999534,None,2312.518858899828,None,2312.518858899828,None,f,0.8573491999413818,2312.518858899828,None,,,NC_55,001,2022_May_05_1159,ProdSingRedo,3.2.3,59.903770631176094,
,,,,9,0,9,0,,,,,,,,,,,,,,,,,,,,,,,,2319.0788536998443,None,,,,,,,,,,,,,,,,,blind,sing,white,9,18,24,2313.931656899862,None,2313.931656899862,None,1,2.1726078998763114,2313.931656899862,None,2316.170679899864,None,2316.6941058998927,None,2316.6941058998927,None,n,2.354185000061989,2316.6941058998927,None,,,NC_55,001,2022_May_05_1159,ProdSingRedo,3.2.3,59.903770631176094,
,,,,10,0,10,0,,,,,,,,,,,,,,,,,,,,,,,,2324.495547699975,None,,,,,,,,,,,,,,,,,hearing,new_b,white,10,137,150,2319.6069408999756,None,2319.6069408999756,None,1,3.993284999858588,2319.6069408999756,None,2323.646278799977,None,2324.161394899944,None,2324.161394899944,None,n,0.3028971999883652,2324.161394899944,None,,,NC_55,001,2022_May_05_1159,ProdSingRedo,3.2.3,59.903770631176094,
,,,,11,0,11,0,,,,,,,,,,,,,,,,,,,,,,,,2327.595496099908,None,,,,,,,,,,,,,,,,,minute,silent,white,11,66,192,2325.019935599994,None,2325.019935599994,None,1,1.8761447998695076,2325.019935599994,None,2326.941256799968,None,2327.450670099817,None,2327.450670099817,None,n,0.11761959991417825,2327.450670099817,None,,,NC_55,001,2022_May_05_1159,ProdSingRedo,3.2.3,59.903770631176094,
,,,,12,0,12,0,,,,,,,,,,,,,,,,,,,,,,,,2331.710801899899,None,,,,,,,,,,,,,,,,,watch,aloud,white,12,35,351,2328.1185998998117,None,2328.1185998998117,None,3,2.5454281999263912,2328.1185998998117,None,2330.703223799821,None,2331.218405399937,None,2331.218405399937,None,f,0.4617155999876559,2331.218405399937,None,,,NC_55,001,2022_May_05_1159,ProdSingRedo,3.2.3,59.903770631176094,
,,,,13,0,13,0,,,,,,,,,,,,,,,,,,,,,,,,2335.0443912998307,None,,,,,,,,,,,,,,,,,appeal,silent,white,13,69,9,2332.2350657000206,None,2332.2350657000206,None,1,1.6610107999294996,2332.2350657000206,None,2333.943086099811,None,2334.4627258998808,None,2334.4627258998808,None,n,0.5536127998493612,2334.4627258998808,None,,,NC_55,001,2022_May_05_1159,ProdSingRedo,3.2.3,59.903770631176094,
,,,,14,0,14,0,,,,,,,,,,,,,,,,,,,,,,,,2338.419994900003,None,,,,,,,,,,,,,,,,,taste,new_a,white,14,92,322,2335.570703599835,None,2335.570703599835,None,1,1.669573999941349,2335.570703599835,None,2337.2942823998164,None,2337.8102983999997,None,2337.8102983999997,None,n,0.5814112001098692,2337.8102983999997,None,,,NC_55,001,2022_May_05_1159,ProdSingRedo,3.2.3,59.903770631176094,
,,,,15,0,15,0,,,,,,,,,,,,,,,,,,,,,,,,2342.945984999882,None,,,,,,,,,,,,,,,,,bicycle,aloud,white,15,37,21,2338.95506619988,None,2338.95506619988,None,6,2.540589999873191,2338.95506619988,None,2341.5242525998037,None,2342.0338057999033,None,2342.0338057999033,None,r,0.878327100072056,2342.0338057999033,None,,,NC_55,001,2022_May_05_1159,ProdSingRedo,3.2.3,59.903770631176094,
,,,,16,0,16,0,,,,,,,,,,,,,,,,,,,,,,,,2348.13724750001,None,,,,,,,,,,,,,,,,,search,silent,white,16,68,276,2343.4692062998656,None,2343.4692062998656,None,3,3.290877499850467,2343.4692062998656,None,2346.811535099987,None,2347.333206299925,None,2347.333206299925,None,f,0.7786471000872552,2347.333206299925,None,,,NC_55,001,2022_May_05_1159,ProdSingRedo,3.2.3,59.903770631176094,
,,,,17,0,17,0,,,,,,,,,,,,,,,,,,,,,,,,2351.2947702999227,None,,,,,,,,,,,,,,,,,match,new_b,white,17,138,181,2348.6677053999156,None,2348.6677053999156,None,1,1.6524878998752683,2348.6677053999156,None,2350.363578399876,None,2350.879486199934,None,2350.879486199934,None,n,0.37661690008826554,2350.879486199934,None,,,NC_55,001,2022_May_05_1159,ProdSingRedo,3.2.3,59.903770631176094,
,,,,18,0,18,0,,,,,,,,,,,,,,,,,,,,,,,,2354.8611846999265,None,,,,,,,,,,,,,,,,,month,new_a,white,18,94,193,2351.8170077998657,None,2351.8170077998657,None,1,2.0232164999470115,2351.8170077998657,None,2353.88777429983,None,2354.4092897998635,None,2354.4092897998635,None,n,0.42284040013328195,2354.4092897998635,None,,,NC_55,001,2022_May_05_1159,ProdSingRedo,3.2.3,59.903770631176094,
,,,,19,0,19,0,,,,,,,,,,,,,,,,,,,,,,,,2357.9299965000246,None,,,,,,,,,,,,,,,,,little,silent,white,19,80,174,2355.3850787000265,None,2355.3850787000265,None,1,1.2869539998937398,2355.3850787000265,None,2356.7213655000087,None,2357.243659599917,None,2357.243659599917,None,n,0.6525109999347478,2357.243659599917,None,,,NC_55,001,2022_May_05_1159,ProdSingRedo,3.2.3,59.903770631176094,
,,,,20,0,20,0,,,,,,,,,,,,,,,,,,,,,,,,2361.2649770998396,None,,,,,,,,,,,,,,,,,message,new_c,white,20,164,189,2358.4523220998235,None,2358.4523220998235,None,1,1.475756699917838,2358.4523220998235,None,2359.9781739998143,None,2360.4978765998967,None,2360.4978765998967,None,n,0.734180900035426,2360.4978765998967,None,,,NC_55,001,2022_May_05_1159,ProdSingRedo,3.2.3,59.903770631176094,
,,,,21,0,21,0,,,,,,,,,,,,,,,,,,,,,,,,2364.4206163999625,None,,,,,,,,,,,,,,,,,community,sing,white,21,10,63,2361.7807718999684,None,2361.7807718999684,None,6,1.5630526000168175,2361.7807718999684,None,2363.383959699888,None,2363.8873473999556,None,2363.8873473999556,None,r,0.5044008998665959,2363.8873473999556,None,,,NC_55,001,2022_May_05_1159,ProdSingRedo,3.2.3,59.903770631176094,
,,,,22,0,22,0,,,,,,,,,,,,,,,,,,,,,,,,2367.795589599991,None,,,,,,,,,,,,,,,,,concern,sing,white,22,16,65,2364.9347500998992,None,2364.9347500998992,None,6,1.5213490000460297,2364.9347500998992,None,2366.50952089997,None,2367.026655799942,None,2367.026655799942,None,r,0.7416872000321746,2367.026655799942,None,,,NC_55,001,2022_May_05_1159,ProdSingRedo,3.2.3,59.903770631176094,
,,,,23,0,23,0,,,,,,,,,,,,,,,,,,,,,,,,2371.854457099922,None,,,,,,,,,,,,,,,,,territory,silent,white,23,81,324,2368.320257199928,None,2368.320257199928,None,5,2.2959388999734074,2368.320257199928,None,2370.663457199931,None,2371.183920299867,None,2371.183920299867,None,f,0.6477733999490738,2371.183920299867,None,,,NC_55,001,2022_May_05_1159,ProdSingRedo,3.2.3,59.903770631176094,
,,,,24,0,24,0,,,,,,,,,,,,,,,,,,,,,,,,2375.797783299815,None,,,,,,,,,,,,,,,,,damage,new_a,white,24,112,83,2372.3819252999965,None,2372.3819252999965,None,1,2.26630560006015,2372.3819252999965,None,2374.700503199827,None,2375.216528699966,None,2375.216528699966,None,n,0.5520348998252302,2375.216528699966,None,,,NC_55,001,2022_May_05_1159,ProdSingRedo,3.2.3,59.903770631176094,
,,,,25,0,25,0,,,,,,,,,,,,,,,,,,,,,,,,2379.0796248000115,None,,,,,,,,,,,,,,,,,second,new_a,white,25,105,278,2376.318627699977,None,2376.318627699977,None,1,1.529465900035575,2376.318627699977,None,2377.892279099906,None,2378.4108064998873,None,2378.4108064998873,None,n,0.6291927001439035,2378.4108064998873,None,,,NC_55,001,2022_May_05_1159,ProdSingRedo,3.2.3,59.903770631176094,
,,,,26,0,26,0,,,,,,,,,,,,,,,,,,,,,,,,2383.346479299944,None,,,,,,,,,,,,,,,,,series,sing,white,26,19,279,2379.600394899957,None,2379.600394899957,None,3,2.375760299852118,2379.600394899957,None,2382.024187099887,None,2382.544402899919,None,2382.544402899919,None,f,0.7676198999397457,2382.544402899919,None,,,NC_55,001,2022_May_05_1159,ProdSingRedo,3.2.3,59.903770631176094,
,,,,27,0,27,0,,,,,,,,,,,,,,,,,,,,,,,,2386.3482722998597,None,,,,,,,,,,,,,,,,,narrow,new_b,white,27,130,197,2383.8751631998457,None,2383.8751631998457,None,1,1.2774612999055535,2383.8751631998457,None,2385.196293799905,None,2385.717531599803,None,2385.717531599803,None,n,0.5946424000430852,2385.717531599803,None,,,NC_55,001,2022_May_05_1159,ProdSingRedo,3.2.3,59.903770631176094,
,,,,28,0,28,0,,,,,,,,,,,,,,,,,,,,,,,,2389.1803674998228,None,,,,,,,,,,,,,,,,,hunger,new_b,white,28,143,155,2386.878066699952,None,2386.878066699952,None,1,1.194078299915418,2386.878066699952,None,2388.1149420000147,None,2388.634432699997,None,2388.634432699997,None,n,0.5185535999480635,2388.634432699997,None,,,NC_55,001,2022_May_05_1159,ProdSingRedo,3.2.3,59.903770631176094,
,,,,29,0,29,0,,,,,,,,,,,,,,,,,,,,,,,,2392.0478250999004,None,,,,,,,,,,,,,,,,,title,new_c,white,29,169,331,2389.700940599898,None,2389.700940599898,None,1,1.3389479001052678,2389.700940599898,None,2391.0774407999124,None,2391.5950031999964,None,2391.5950031999964,None,n,0.42898970004171133,2391.5950031999964,None,,,NC_55,001,2022_May_05_1159,ProdSingRedo,3.2.3,59.903770631176094,
,,,,30,0,30,0,,,,,,,,,,,,,,,,,,,,,,,,2395.5080893998966,None,,,,,,,,,,,,,,,,,contract,aloud,white,30,49,68,2392.573520799866,None,2392.573520799866,None,3,1.9790322999469936,2392.573520799866,None,2394.597931499826,None,2395.119910399895,None,2395.119910399895,None,f,0.36014149989932775,2395.119910399895,None,,,NC_55,001,2022_May_05_1159,ProdSingRedo,3.2.3,59.903770631176094,
,,,,31,0,31,0,,,,,,,,,,,,,,,,,,,,,,,,2398.264125799993,None,,,,,,,,,,,,,,,,,express,new_c,white,31,151,124,2396.0353780000005,None,2396.0353780000005,None,1,1.292594200000167,2396.0353780000005,None,2397.3764015999623,None,2397.8954294000287,None,2397.8954294000287,None,n,0.33673280011862516,2397.8954294000287,None,,,NC_55,001,2022_May_05_1159,ProdSingRedo,3.2.3,59.903770631176094,
,,,,32,0,32,0,,,,,,,,,,,,,,,,,,,,,,,,2400.9497090999503,None,,,,,,,,,,,,,,,,,entrance,new_b,white,32,135,115,2398.776629099855,None,2398.776629099855,None,1,1.3118483999278396,2398.776629099855,None,2400.133742899867,None,2400.6516909999773,None,2400.6516909999773,None,n,0.2686123000457883,2400.6516909999773,None,,,NC_55,001,2022_May_05_1159,ProdSingRedo,3.2.3,59.903770631176094,
,,,,33,0,33,0,,,,,,,,,,,,,,,,,,,,,,,,2403.632719799876,None,,,,,,,,,,,,,,,,,under,new_b,white,33,149,343,2401.456331799971,None,2401.456331799971,None,1,1.2957475001458079,2401.456331799971,None,2402.7928594998084,None,2403.3153337999247,None,2403.3153337999247,None,n,0.2847577999345958,2403.3153337999247,None,,,NC_55,001,2022_May_05_1159,ProdSingRedo,3.2.3,59.903770631176094,
,,,,34,0,34,0,,,,,,,,,,,,,,,,,,,,,,,,2406.6166613998357,None,,,,,,,,,,,,,,,,,scale,new_a,white,34,106,272,2404.1576607997995,None,2404.1576607997995,None,1,1.3944186000153422,2404.1576607997995,None,2405.597689599963,None,2406.116665299982,None,2406.116665299982,None,n,0.4594151000492275,2406.116665299982,None,,,NC_55,001,2022_May_05_1159,ProdSingRedo,3.2.3,59.903770631176094,
,,,,35,0,35,0,,,,,,,,,,,,,,,,,,,,,,,,2409.3491813999135,None,,,,,,,,,,,,,,,,,engineer,new_c,white,35,163,114,2407.130267499946,None,2407.130267499946,None,1,1.3579756999388337,2407.130267499946,None,2408.5396759998985,None,2409.051911599934,None,2409.051911599934,None,n,0.26858079992234707,2409.051911599934,None,,,NC_55,001,2022_May_05_1159,ProdSingRedo,3.2.3,59.903770631176094,
,,,,36,0,36,0,,,,,,,,,,,,,,,,,,,,,,,,2413.516260499833,None,,,,,,,,,,,,,,,,,crisis,sing,white,36,1,79,2409.869296599878,None,2409.869296599878,None,6,1.8350516001228243,2409.869296599878,None,2411.7437720999587,None,2412.2619812998455,None,2412.2619812998455,None,r,1.2264564998913556,2412.2619812998455,None,,,NC_55,001,2022_May_05_1159,ProdSingRedo,3.2.3,59.903770631176094,
,,,,37,0,37,0,,,,,,,,,,,,,,,,,,,,,,,,2416.202205199981,None,,,,,,,,,,,,,,,,,collection,silent,white,37,72,54,2414.03790799994,None,2414.03790799994,None,1,1.3461770999711007,2414.03790799994,None,2415.4248459998053,None,2415.9490556998644,None,2415.9490556998644,None,n,0.22694710013456643,2415.9490556998644,None,,,NC_55,001,2022_May_05_1159,ProdSingRedo,3.2.3,59.903770631176094,
,,,,38,0,38,0,,,,,,,,,,,,,,,,,,,,,,,,2418.499832399888,None,,,,,,,,,,,,,,,,,goose,new_a,white,38,104,138,2416.724307899829,None,2416.724307899829,None,1,1.0357766000088304,2416.724307899829,None,2417.8163089000154,None,2418.3308982998133,None,2418.3308982998133,None,n,0.13315340015105903,2418.3308982998133,None,,,NC_55,001,2022_May_05_1159,ProdSingRedo,3.2.3,59.903770631176094,
,,,,39,0,39,0,,,,,,,,,,,,,,,,,,,,,,,,2424.9608678999357,None,,,,,,,,,,,,,,,,,burden,new_c,white,39,174,36,2419.023277199827,None,2419.023277199827,None,1,3.6813593001570553,2419.023277199827,None,2422.7457491999958,None,2423.26900510001,None,2423.26900510001,None,n,1.6588046001270413,2423.26900510001,None,,,NC_55,001,2022_May_05_1159,ProdSingRedo,3.2.3,59.903770631176094,
,,,,40,0,40,0,,,,,,,,,,,,,,,,,,,,,,,,2428.785786199849,None,,,,,,,,,,,,,,,,,question,aloud,white,40,53,247,2425.475137399975,None,2425.475137399975,None,6,2.428918099962175,2425.475137399975,None,2427.9533148999326,None,2428.471562199993,None,2428.471562199993,None,r,0.2806007999461144,2428.471562199993,None,,,NC_55,001,2022_May_05_1159,ProdSingRedo,3.2.3,59.903770631176094,
,,,,41,0,41,0,,,,,,,,,,,,,,,,,,,,,,,,2431.5406225998886,None,,,,,,,,,,,,,,,,,budget,aloud,white,41,51,34,2429.310238200007,None,2429.310238200007,None,1,1.5058253998868167,2429.310238200007,None,2430.85678989999,None,2431.3701865000185,None,2431.3701865000185,None,n,0.14152649999596179,2431.3701865000185,None,,,NC_55,001,2022_May_05_1159,ProdSingRedo,3.2.3,59.903770631176094,
,,,,42,0,42,0,,,,,,,,,,,,,,,,,,,,,,,,2434.199507099809,None,,,,,,,,,,,,,,,,,music,new_c,white,42,153,196,2432.04183240002,None,2432.04183240002,None,1,1.1501257999334484,2432.04183240002,None,2433.2368395999074,None,2433.7501745999325,None,2433.7501745999325,None,n,0.4258922999724746,2433.7501745999325,None,,,NC_55,001,2022_May_05_1159,ProdSingRedo,3.2.3,59.903770631176094,
,,,,43,0,43,0,,,,,,,,,,,,,,,,,,,,,,,,2438.720069499919,None,,,,,,,,,,,,,,,,,school,new_c,white,43,168,274,2434.721665999852,None,2434.721665999852,None,5,3.118589400080964,2434.721665999852,None,2437.87155959988,None,2438.3847012999468,None,2438.3847012999468,None,f,0.3033032000530511,2438.3847012999468,None,,,NC_55,001,2022_May_05_1159,ProdSingRedo,3.2.3,59.903770631176094,
,,,,44,0,44,0,,,,,,,,,,,,,,,,,,,,,,,,2442.0198540999554,None,,,,,,,,,,,,,,,,,provision,aloud,white,44,36,243,2439.2424074998125,None,2439.2424074998125,None,6,1.7736211998853832,2439.2424074998125,None,2441.071611699881,None,2441.59056599997,None,2441.59056599997,None,r,0.4016594998538494,2441.59056599997,None,,,NC_55,001,2022_May_05_1159,ProdSingRedo,3.2.3,59.903770631176094,
,,,,45,0,45,0,,,,,,,,,,,,,,,,,,,,,,,,2445.184489999898,None,,,,,,,,,,,,,,,,,personnel,aloud,white,45,57,219,2442.5413466999307,None,2442.5413466999307,None,6,1.5313321000430733,2442.5413466999307,None,2444.119199599838,None,2444.6329508000053,None,2444.6329508000053,None,r,0.5111032000277191,2444.6329508000053,None,,,NC_55,001,2022_May_05_1159,ProdSingRedo,3.2.3,59.903770631176094,
,,,,46,0,46,0,,,,,,,,,,,,,,,,,,,,,,,,2447.868842500029,None,,,,,,,,,,,,,,,,,background,new_c,white,46,170,16,2445.7224630999845,None,2445.7224630999845,None,1,1.357888399856165,2445.7224630999845,None,2447.1378587998915,None,2447.6621546999086,None,2447.6621546999086,None,n,0.1698796001728624,2447.6621546999086,None,,,NC_55,001,2022_May_05_1159,ProdSingRedo,3.2.3,59.903770631176094,
,,,,47,0,47,0,,,,,,,,,,,,,,,,,,,,,,,,2453.3704158999026,None,,,,,,,,,,,,,,,,,management,aloud,white,47,44,177,2448.398528299993,None,2448.398528299993,None,6,2.7135056001134217,2448.398528299993,None,2451.170532699907,None,2451.6899238999467,None,2451.6899238999467,None,r,1.6383114999625832,2451.6899238999467,None,,,NC_55,001,2022_May_05_1159,ProdSingRedo,3.2.3,59.903770631176094,
,,,,48,0,48,0,,,,,,,,,,,,,,,,,,,,,,,,2458.4858289998956,None,,,,,,,,,,,,,,,,,permit,silent,white,48,67,218,2453.8916999998037,None,2453.8916999998037,None,2,2.7084668001625687,2453.8916999998037,None,2456.6436278999317,None,2457.152816099813,None,2457.152816099813,None,f,1.3033047998324037,2457.152816099813,None,,,NC_55,001,2022_May_05_1159,ProdSingRedo,3.2.3,59.903770631176094,
,,,,49,0,49,0,,,,,,,,,,,,,,,,,,,,,,,,2461.3975392000284,None,,,,,,,,,,,,,,,,,color,sing,white,49,0,56,2458.995874800021,None,2458.995874800021,None,6,1.4759886998217553,2458.995874800021,None,2460.5108481999487,None,2461.018332599895,None,2461.018332599895,None,r,0.3576837999280542,2461.018332599895,None,,,NC_55,001,2022_May_05_1159,ProdSingRedo,3.2.3,59.903770631176094,
,,,,50,0,50,0,,,,,,,,,,,,,,,,,,,,,,,,2464.1819142999593,None,,,,,,,,,,,,,,,,,industry,new_c,white,50,173,161,2461.9122675999533,None,2461.9122675999533,None,1,1.4958935000468045,2461.9122675999533,None,2463.4467348000035,None,2463.956534099998,None,2463.956534099998,None,n,0.19560880004428327,2463.956534099998,None,,,NC_55,001,2022_May_05_1159,ProdSingRedo,3.2.3,59.903770631176094,
,,,,51,0,51,0,,,,,,,,,,,,,,,,,,,,,,,,2466.8849438999314,None,,,,,,,,,,,,,,,,,individual,new_c,white,51,177,160,2464.725474799983,None,2464.725474799983,None,1,1.5145026999525726,2464.725474799983,None,2466.291669399943,None,2466.8125302998815,None,2466.8125302998815,None,n,0.043464400107041,2466.8125302998815,None,,,NC_55,001,2022_May_05_1159,ProdSingRedo,3.2.3,59.903770631176094,
,,,,52,0,52,0,,,,,,,,,,,,,,,,,,,,,,,,2469.3014154999983,None,,,,,,,,,,,,,,,,,youth,new_c,white,52,157,359,2467.411867499817,None,2467.411867499817,None,1,1.2362897000275552,2467.411867499817,None,2468.7028381000273,None,2469.2220279998146,None,2469.2220279998146,None,n,0.04201079998165369,2469.2220279998146,None,,,NC_55,001,2022_May_05_1159,ProdSingRedo,3.2.3,59.903770631176094,
,,,,53,0,53,0,,,,,,,,,,,,,,,,,,,,,,,,2474.470371400006,None,,,,,,,,,,,,,,,,,machinery,sing,white,53,26,175,2469.832756199874,None,2469.832756199874,None,1,2.3116890999954194,2469.832756199874,None,2472.1872341998387,None,2472.709027899895,None,2472.709027899895,None,n,1.722956100013107,2472.709027899895,None,,,NC_55,001,2022_May_05_1159,ProdSingRedo,3.2.3,59.903770631176094,
,,,,54,0,54,0,,,,,,,,,,,,,,,,,,,,,,,,2478.5399348000064,None,,,,,,,,,,,,,,,,,brief,silent,white,54,83,28,2474.9975147999357,None,2474.9975147999357,None,1,1.4346223999746144,2474.9975147999357,None,2476.4850406998303,None,2477.0099752999377,None,2477.0099752999377,None,n,1.5020794000010937,2477.0099752999377,None,,,NC_55,001,2022_May_05_1159,ProdSingRedo,3.2.3,59.903770631176094,
,,,,55,0,55,0,,,,,,,,,,,,,,,,,,,,,,,,2482.019071099814,None,,,,,,,,,,,,,,,,,mayor,new_b,white,55,120,183,2479.061828299891,None,2479.061828299891,None,1,1.458317100070417,2479.061828299891,None,2480.567289599916,None,2481.089483699994,None,2481.089483699994,None,n,0.8946556998416781,2481.089483699994,None,,,NC_55,001,2022_May_05_1159,ProdSingRedo,3.2.3,59.903770631176094,
,,,,56,0,56,0,,,,,,,,,,,,,,,,,,,,,,,,2485.271131699905,None,,,,,,,,,,,,,,,,,master,new_a,white,56,110,180,2482.5455748999957,None,2482.5455748999957,None,1,1.2704652000684291,2482.5455748999957,None,2483.8706937998068,None,2484.3890129998326,None,2484.3890129998326,None,n,0.8509988998994231,2484.3890129998326,None,,,NC_55,001,2022_May_05_1159,ProdSingRedo,3.2.3,59.903770631176094,
,,,,57,0,57,0,,,,,,,,,,,,,,,,,,,,,,,,2488.647277199896,None,,,,,,,,,,,,,,,,,citizen,new_a,white,57,119,50,2485.8028567999136,None,2485.8028567999136,None,1,1.5250061000697315,2485.8028567999136,None,2487.366868699901,None,2487.8639201999176,None,2487.8639201999176,None,n,0.7439184000249952,2487.8639201999176,None,,,NC_55,001,2022_May_05_1159,ProdSingRedo,3.2.3,59.903770631176094,
,,,,58,0,58,0,,,,,,,,,,,,,,,,,,,,,,,,2491.828397899866,None,,,,,,,,,,,,,,,,,payment,new_c,white,58,176,215,2489.1808984000236,None,2489.1808984000236,None,1,1.2111488999798894,2489.1808984000236,None,2490.4179992999416,None,2490.94027809985,None,2490.94027809985,None,n,0.8595787999220192,2490.94027809985,None,,,NC_55,001,2022_May_05_1159,ProdSingRedo,3.2.3,59.903770631176094,
,,,,59,0,59,0,,,,,,,,,,,,,,,,,,,,,,,,2495.1043678999413,None,,,,,,,,,,,,,,,,,balance,new_b,white,59,128,17,2492.337932799943,None,2492.337932799943,None,1,1.7022255000192672,2492.337932799943,None,2494.085524899885,None,2494.613072699867,None,2494.613072699867,None,n,0.45071549993008375,2494.613072699867,None,,,NC_55,001,2022_May_05_1159,ProdSingRedo,3.2.3,59.903770631176094,
,,,,60,0,60,0,,,,,,,,,,,,,,,,,,,,,,,,2498.4359863998834,None,,,,,,,,,,,,,,,,,court,new_a,white,60,117,75,2495.630915499991,None,2495.630915499991,None,1,1.289070200175047,2495.630915499991,None,2496.972296099877,None,2497.490441999864,None,2497.490441999864,None,n,0.9095567998010665,2497.490441999864,None,,,NC_55,001,2022_May_05_1159,ProdSingRedo,3.2.3,59.903770631176094,
,,,,61,0,61,0,,,,,,,,,,,,,,,,,,,,,,,,2502.121963399928,None,,,,,,,,,,,,,,,,,profession,sing,white,61,7,241,2498.971055699978,None,2498.971055699978,None,6,1.6928954999893904,2498.971055699978,None,2500.7048804999795,None,2501.222439599922,None,2501.222439599922,None,r,0.8654998000711203,2501.222439599922,None,,,NC_55,001,2022_May_05_1159,ProdSingRedo,3.2.3,59.903770631176094,
,,,,62,0,62,0,,,,,,,,,,,,,,,,,,,,,,,,2504.8616088000126,None,,,,,,,,,,,,,,,,,front,new_c,white,62,160,134,2502.6465635998175,None,2502.6465635998175,None,1,1.2336212999653071,2502.6465635998175,None,2503.921000999864,None,2504.443184999982,None,2504.443184999982,None,n,0.38083330006338656,2504.443184999982,None,,,NC_55,001,2022_May_05_1159,ProdSingRedo,3.2.3,59.903770631176094,
,,,,63,0,63,0,,,,,,,,,,,,,,,,,,,,,,,,2507.9079508997966,None,,,,,,,,,,,,,,,,,skill,sing,white,63,21,289,2505.3828314000275,None,2505.3828314000275,None,1,1.1533747999928892,2505.3828314000275,None,2506.587178000016,None,2507.106592600001,None,2507.106592600001,None,n,0.7655315001029521,2507.106592600001,None,,,NC_55,001,2022_May_05_1159,ProdSingRedo,3.2.3,59.903770631176094,
,,,,64,0,64,0,,,,,,,,,,,,,,,,,,,,,,,,2511.0051237000152,None,,,,,,,,,,,,,,,,,charter,new_c,white,64,161,47,2508.432507599937,None,2508.432507599937,None,1,1.35164470016025,2508.432507599937,None,2509.839035599958,None,2510.357787899906,None,2510.357787899906,None,n,0.6102487999014556,2510.357787899906,None,,,NC_55,001,2022_May_05_1159,ProdSingRedo,3.2.3,59.903770631176094,
,,,,65,0,65,0,,,,,,,,,,,,,,,,,,,,,,,,2514.1412136999425,None,,,,,,,,,,,,,,,,,century,new_c,white,65,178,45,2511.532206799835,None,2511.532206799835,None,1,1.4599158999044448,2511.532206799835,None,2513.040852899896,None,2513.5588749998715,None,2513.5588749998715,None,n,0.5535774999298155,2513.5588749998715,None,,,NC_55,001,2022_May_05_1159,ProdSingRedo,3.2.3,59.903770631176094,
,,,,66,0,66,0,,,,,,,,,,,,,,,,,,,,,,,,2516.8245132998563,None,,,,,,,,,,,,,,,,,order,new_a,white,66,96,207,2514.6613119998947,None,2514.6613119998947,None,1,1.1708239999134094,2514.6613119998947,None,2515.882297099801,None,2516.403779399814,None,2516.403779399814,None,n,0.38021979993209243,2516.403779399814,None,,,NC_55,001,2022_May_05_1159,ProdSingRedo,3.2.3,59.903770631176094,
,,,,67,0,67,0,,,,,,,,,,,,,,,,,,,,,,,,2520.773744399892,None,,,,,,,,,,,,,,,,,incident,new_a,white,67,91,158,2517.345515899826,None,2517.345515899826,None,1,2.4386642000172287,2517.345515899826,None,2519.8290560999885,None,2520.340927799931,None,2520.340927799931,None,n,0.4030551000032574,2520.340927799931,None,,,NC_55,001,2022_May_05_1159,ProdSingRedo,3.2.3,59.903770631176094,
,,,,68,0,68,0,,,,,,,,,,,,,,,,,,,,,,,,2523.6077743999194,None,,,,,,,,,,,,,,,,,bitter,new_b,white,68,132,23,2521.2950885999016,None,2521.2950885999016,None,1,1.233617699937895,2521.2950885999016,None,2522.560993899824,None,2523.077574199997,None,2523.077574199997,None,n,0.49060060014016926,2523.077574199997,None,,,NC_55,001,2022_May_05_1159,ProdSingRedo,3.2.3,59.903770631176094,
,,,,69,0,69,0,,,,,,,,,,,,,,,,,,,,,,,,2527.042610500008,None,,,,,,,,,,,,,,,,,fellow,aloud,white,69,52,126,2524.133197899908,None,2524.133197899908,None,1,1.859120300039649,2524.133197899908,None,2526.0407137998845,None,2526.559799199924,None,2526.559799199924,None,n,0.44838840002194047,2526.559799199924,None,,,NC_55,001,2022_May_05_1159,ProdSingRedo,3.2.3,59.903770631176094,
,,,,70,0,70,0,,,,,,,,,,,,,,,,,,,,,,,,2530.5078831999563,None,,,,,,,,,,,,,,,,,recall,new_b,white,70,148,255,2527.563276699977,None,2527.563276699977,None,1,2.020709800068289,2527.563276699977,None,2529.650292399805,None,2530.159902599873,None,2530.159902599873,None,n,0.312191299861297,2530.159902599873,None,,,NC_55,001,2022_May_05_1159,ProdSingRedo,3.2.3,59.903770631176094,
,,,,71,0,71,0,,,,,,,,,,,,,,,,,,,,,,,,2535.840045799967,None,,,,,,,,,,,,,,,,,answer,new_b,white,71,124,8,2531.0345045998693,None,2531.0345045998693,None,1,3.7337020998820662,2531.0345045998693,None,2534.823147199815,None,2535.343800799921,None,2535.343800799921,None,n,0.4642510998528451,2535.343800799921,None,,,NC_55,001,2022_May_05_1159,ProdSingRedo,3.2.3,59.903770631176094,
,,,,72,0,72,0,,,,,,,,,,,,,,,,,,,,,,,,2538.707426099805,None,,,,,,,,,,,,,,,,,prime,new_c,white,72,156,235,2536.362780999858,None,2536.362780999858,None,1,1.3091922998428345,2536.362780999858,None,2537.7207745998167,None,2538.2376235998236,None,2538.2376235998236,None,n,0.4343476998619735,2538.2376235998236,None,,,NC_55,001,2022_May_05_1159,ProdSingRedo,3.2.3,59.903770631176094,
,,,,73,0,73,0,,,,,,,,,,,,,,,,,,,,,,,,2541.6766505998094,None,,,,,,,,,,,,,,,,,guard,new_b,white,73,134,145,2539.233614699915,None,2539.233614699915,None,1,1.4466434000059962,2539.233614699915,None,2540.72383539984,None,2541.2403229000047,None,2541.2403229000047,None,n,0.3996695999521762,2541.2403229000047,None,,,NC_55,001,2022_May_05_1159,ProdSingRedo,3.2.3,59.903770631176094,
,,,,74,0,74,0,,,,,,,,,,,,,,,,,,,,,,,,2544.4256872998085,None,,,,,,,,,,,,,,,,,story,aloud,white,74,39,306,2542.199123799801,None,2542.199123799801,None,1,1.2249112999998033,2542.199123799801,None,2543.4735053998884,None,2543.9966280998196,None,2543.9966280998196,None,n,0.3954880000092089,2543.9966280998196,None,,,NC_55,001,2022_May_05_1159,ProdSingRedo,3.2.3,59.903770631176094,
,,,,75,0,75,0,,,,,,,,,,,,,,,,,,,,,,,,2547.3732985998504,None,,,,,,,,,,,,,,,,,quick,sing,white,75,20,248,2544.953997799894,None,2544.953997799894,None,1,1.262000100221485,2544.953997799894,None,2546.2581996999215,None,2546.7790333998855,None,2546.7790333998855,None,n,0.5569879999384284,2546.7790333998855,None,,,NC_55,001,2022_May_05_1159,ProdSingRedo,3.2.3,59.903770631176094,
,,,,76,0,76,0,,,,,,,,,,,,,,,,,,,,,,,,2551.6312768999487,None,,,,,,,,,,,,,,,,,patient,new_a,white,76,95,213,2547.8995478998404,None,2547.8995478998404,None,1,2.8925055998843163,2547.8995478998404,None,2550.839832399972,None,2551.359697900014,None,2551.359697900014,None,n,0.2479666001163423,2551.359697900014,None,,,NC_55,001,2022_May_05_1159,ProdSingRedo,3.2.3,59.903770631176094,
,,,,77,0,77,0,,,,,,,,,,,,,,,,,,,,,,,,2554.627561699832,None,,,,,,,,,,,,,,,,,store,silent,white,77,71,305,2552.1335706999525,None,2552.1335706999525,None,1,1.354481700109318,2552.1335706999525,None,2553.5362191998865,None,2554.0591211998835,None,2554.0591211998835,None,n,0.5328712000045925,2554.0591211998835,None,,,NC_55,001,2022_May_05_1159,ProdSingRedo,3.2.3,59.903770631176094,
,,,,78,0,78,0,,,,,,,,,,,,,,,,,,,,,,,,2557.973505999893,None,,,,,,,,,,,,,,,,,material,new_c,white,78,166,182,2555.154836199945,None,2555.154836199945,None,3,2.181200699880719,2555.154836199945,None,2557.394594699843,None,2557.9205632999074,None,2557.9205632999074,None,f,0.01522070006467402,2557.9205632999074,None,,,NC_55,001,2022_May_05_1159,ProdSingRedo,3.2.3,59.903770631176094,
,,,,79,0,79,0,,,,,,,,,,,,,,,,,,,,,,,,2560.4084802998696,None,,,,,,,,,,,,,,,,,shock,new_b,white,79,122,284,2558.487640499836,None,2558.487640499836,None,1,1.2165139999706298,2558.487640499836,None,2559.75434149988,None,2560.2766149998643,None,2560.2766149998643,None,n,0.10762059991247952,2560.2766149998643,None,,,NC_55,001,2022_May_05_1159,ProdSingRedo,3.2.3,59.903770631176094,
,,,,80,0,80,0,,,,,,,,,,,,,,,,,,,,,,,,2564.611020699842,None,,,,,,,,,,,,,,,,,power,silent,white,80,74,230,2560.9339948999695,None,2560.9339948999695,None,1,1.6580051998607814,2560.9339948999695,None,2562.636851799907,None,2563.1600634998176,None,2563.1600634998176,None,n,1.424182000104338,2563.1600634998176,None,,,NC_55,001,2022_May_05_1159,ProdSingRedo,3.2.3,59.903770631176094,
,,,,81,0,81,0,,,,,,,,,,,,,,,,,,,,,,,,2567.8929880999494,None,,,,,,,,,,,,,,,,,break,new_a,white,81,116,26,2565.136882599909,None,2565.136882599909,None,1,1.3831482999958098,2565.136882599909,None,2566.560518999817,None,2567.0766576998867,None,2567.0766576998867,None,n,0.7793705000076443,2567.0766576998867,None,,,NC_55,001,2022_May_05_1159,ProdSingRedo,3.2.3,59.903770631176094,
,,,,82,0,82,0,,,,,,,,,,,,,,,,,,,,,,,,2571.628055699868,None,,,,,,,,,,,,,,,,,partner,silent,white,82,88,211,2568.418379199924,None,2568.418379199924,None,6,1.9094942000228912,2568.418379199924,None,2570.3726818999276,None,2570.896684799809,None,2570.896684799809,None,r,0.7034312000032514,2570.896684799809,None,,,NC_55,001,2022_May_05_1159,ProdSingRedo,3.2.3,59.903770631176094,
,,,,83,0,83,0,,,,,,,,,,,,,,,,,,,,,,,,2575.477310199989,None,,,,,,,,,,,,,,,,,childhood,aloud,white,83,45,49,2572.148452399997,None,2572.148452399997,None,6,2.3475454999133945,2572.148452399997,None,2574.54050789983,None,2575.062367499806,None,2575.062367499806,None,r,0.38638290017843246,2575.062367499806,None,,,NC_55,001,2022_May_05_1159,ProdSingRedo,3.2.3,59.903770631176094,
,,,,84,0,84,0,,,,,,,,,,,,,,,,,,,,,,,,2578.8925734998193,None,,,,,,,,,,,,,,,,,solution,silent,white,84,75,294,2576.0043332998175,None,2576.0043332998175,None,6,2.179744499968365,2576.0043332998175,None,2578.2272030999884,None,2578.7436784999445,None,2578.7436784999445,None,r,0.12034250004217029,2578.7436784999445,None,,,NC_55,001,2022_May_05_1159,ProdSingRedo,3.2.3,59.903770631176094,
,,,,85,0,85,0,,,,,,,,,,,,,,,,,,,,,,,,2581.467356799869,None,,,,,,,,,,,,,,,,,institute,silent,white,85,89,162,2579.42349509988,None,2579.42349509988,None,1,1.4405191999394447,2579.42349509988,None,2580.913060899824,None,2581.4195675000083,None,2581.4195675000083,None,n,0.028329200111329556,2581.4195675000083,None,,,NC_55,001,2022_May_05_1159,ProdSingRedo,3.2.3,59.903770631176094,
,,,,86,0,86,0,,,,,,,,,,,,,,,,,,,,,,,,2585.086388699943,None,,,,,,,,,,,,,,,,,military,sing,white,86,9,190,2581.9719183999114,None,2581.9719183999114,None,6,1.3881699999328703,2581.9719183999114,None,2583.4116322000045,None,2583.9314509998076,None,2583.9314509998076,None,r,1.1244677000213414,2583.9314509998076,None,,,NC_55,001,2022_May_05_1159,ProdSingRedo,3.2.3,59.903770631176094,
,,,,87,0,87,0,,,,,,,,,,,,,,,,,,,,,,,,2587.979008599883,None,,,,,,,,,,,,,,,,,relation,new_b,white,87,146,257,2585.6196265998296,None,2585.6196265998296,None,1,1.716398200020194,2585.6196265998296,None,2587.3793412998784,None,2587.8969868998975,None,2587.8969868998975,None,n,0.04698290000669658,2587.8969868998975,None,,,NC_55,001,2022_May_05_1159,ProdSingRedo,3.2.3,59.903770631176094,
,,,,88,0,88,0,,,,,,,,,,,,,,,,,,,,,,,,2591.5969061998185,None,,,,,,,,,,,,,,,,,literature,new_c,white,88,175,173,2588.510396800004,None,2588.510396800004,None,1,1.3296970000956208,2588.510396800004,None,2589.8984449999407,None,2590.4150156998076,None,2590.4150156998076,None,n,1.153140300186351,2590.4150156998076,None,,,NC_55,001,2022_May_05_1159,ProdSingRedo,3.2.3,59.903770631176094,
,,,,89,0,89,0,,,,,,,,,,,,,,,,,,,,,,,,2595.1325747999363,None,,,,,,,,,,,,,,,,,region,new_b,white,89,121,256,2592.119462699862,None,2592.119462699862,None,1,1.5685356999747455,2592.119462699862,None,2593.7421208999585,None,2594.2638464998454,None,2594.2638464998454,None,n,0.8321114999707788,2594.2638464998454,None,,,NC_55,001,2022_May_05_1159,ProdSingRedo,3.2.3,59.903770631176094,
,,,,90,0,90,0,,,,,,,,,,,,,,,,,,,,,,,,2598.2118928998243,None,,,,,,,,,,,,,,,,,report,silent,white,90,87,259,2595.6501746999566,None,2595.6501746999566,None,1,1.5662951997946948,2595.6501746999566,None,2597.2532198999543,None,2597.7619117998984,None,2597.7619117998984,None,n,0.4140415999572724,2597.7619117998984,None,,,NC_55,001,2022_May_05_1159,ProdSingRedo,3.2.3,59.903770631176094,
,,,,91,0,91,0,,,,,,,,,,,,,,,,,,,,,,,,2603.363543199841,None,,,,,,,,,,,,,,,,,appearance,sing,white,91,23,10,2598.735471999971,None,2598.735471999971,None,4,3.744558700127527,2598.735471999971,None,2602.5198334997986,None,2603.0407671998255,None,2603.0407671998255,None,f,0.29539830004796386,2603.0407671998255,None,,,NC_55,001,2022_May_05_1159,ProdSingRedo,3.2.3,59.903770631176094,
,,,,92,0,92,0,,,,,,,,,,,,,,,,,,,,,,,,2606.3946742999833,None,,,,,,,,,,,,,,,,,public,sing,white,92,14,244,2603.8859920999967,None,2603.8859920999967,None,6,1.578241900075227,2603.8859920999967,None,2605.5074130999856,None,2606.032746199984,None,2606.032746199984,None,r,0.3354408999439329,2606.032746199984,None,,,NC_55,001,2022_May_05_1159,ProdSingRedo,3.2.3,59.903770631176094,
,,,,93,0,93,0,,,,,,,,,,,,,,,,,,,,,,,,2609.1449543999042,None,,,,,,,,,,,,,,,,,fashion,new_a,white,93,109,125,2606.920821599895,None,2606.920821599895,None,1,1.4957268999423832,2606.920821599895,None,2608.4488774999045,None,2608.96256419993,None,2608.96256419993,None,n,0.14939870010130107,2608.96256419993,None,,,NC_55,001,2022_May_05_1159,ProdSingRedo,3.2.3,59.903770631176094,
,,,,94,0,94,0,,,,,,,,,,,,,,,,,,,,,,,,2612.0059779998846,None,,,,,,,,,,,,,,,,,nation,aloud,white,94,50,198,2609.673865099903,None,2609.673865099903,None,6,1.3738621000666171,2609.673865099903,None,2611.0718698999844,None,2611.5861186999828,None,2611.5861186999828,None,r,0.3979530001524836,2611.5861186999828,None,,,NC_55,001,2022_May_05_1159,ProdSingRedo,3.2.3,59.903770631176094,
,,,,95,0,95,0,,,,,,,,,,,,,,,,,,,,,,,,2616.0967138998676,None,,,,,,,,,,,,,,,,,style,new_a,white,95,115,311,2612.522052799817,None,2612.522052799817,None,1,2.773815100081265,2612.522052799817,None,2615.3328448999673,None,2615.8397566999774,None,2615.8397566999774,None,n,0.2162802000530064,2615.8397566999774,None,,,NC_55,001,2022_May_05_1159,ProdSingRedo,3.2.3,59.903770631176094,
,,,,96,0,96,0,,,,,,,,,,,,,,,,,,,,,,,,2619.1649770999793,None,,,,,,,,,,,,,,,,,empty,sing,white,96,28,112,2616.620328299934,None,2616.620328299934,None,1,1.8837735999841243,2616.620328299934,None,2618.5337555999868,None,2619.0532169998623,None,2619.0532169998623,None,n,0.07466659997589886,2619.0532169998623,None,,,NC_55,001,2022_May_05_1159,ProdSingRedo,3.2.3,59.903770631176094,
,,,,97,0,97,0,,,,,,,,,,,,,,,,,,,,,,,,2622.713455799967,None,,,,,,,,,,,,,,,,,finish,sing,white,97,12,130,2619.6887443999294,None,2619.6887443999294,None,6,2.1593015000689775,2619.6887443999294,None,2621.8952219998464,None,2622.41535629984,None,2622.41535629984,None,r,0.2650192000437528,2622.41535629984,None,,,NC_55,001,2022_May_05_1159,ProdSingRedo,3.2.3,59.903770631176094,
,,,,98,0,98,0,,,,,,,,,,,,,,,,,,,,,,,,2625.4010509999935,None,,,,,,,,,,,,,,,,,rural,new_c,white,98,171,269,2623.2428180999123,None,2623.2428180999123,None,1,1.2452378999441862,2623.2428180999123,None,2624.525493199937,None,2625.0498151998036,None,2625.0498151998036,None,n,0.31842579995281994,2625.0498151998036,None,,,NC_55,001,2022_May_05_1159,ProdSingRedo,3.2.3,59.903770631176094,
,,,,99,0,99,0,,,,,,,,,,,,,,,,,,,,,,,,2628.2658975999802,None,,,,,,,,,,,,,,,,,beauty,new_b,white,99,142,18,2625.9249946000054,None,2625.9249946000054,None,1,1.114997399970889,2625.9249946000054,None,2627.0999455000274,None,2627.614882899914,None,2627.614882899914,None,n,0.6172001999802887,2627.614882899914,None,,,NC_55,001,2022_May_05_1159,ProdSingRedo,3.2.3,59.903770631176094,
,,,,100,0,100,0,,,,,,,,,,,,,,,,,,,,,,,,2631.422245999798,None,,,,,,,,,,,,,,,,,short,new_a,white,100,114,285,2628.7828173998278,None,2628.7828173998278,None,1,1.1696240999735892,2628.7828173998278,None,2629.993734800024,None,2630.511984199984,None,2630.511984199984,None,n,0.8797399001196027,2630.511984199984,None,,,NC_55,001,2022_May_05_1159,ProdSingRedo,3.2.3,59.903770631176094,
,,,,101,0,101,0,,,,,,,,,,,,,,,,,,,,,,,,2635.081326799933,None,,,,,,,,,,,,,,,,,service,sing,white,101,11,280,2631.9377786999103,None,2631.9377786999103,None,6,2.2782632999587804,2631.9377786999103,None,2634.26620549988,None,2634.782206799835,None,2634.782206799835,None,r,0.2578832001890987,2634.782206799835,None,,,NC_55,001,2022_May_05_1159,ProdSingRedo,3.2.3,59.903770631176094,
,,,,102,0,102,0,,,,,,,,,,,,,,,,,,,,,,,,2639.0150266999844,None,,,,,,,,,,,,,,,,,stand,new_c,white,102,172,302,2635.605846399907,None,2635.605846399907,None,4,2.0341537999920547,2635.605846399907,None,2637.681155500002,None,2638.199091000017,None,2638.199091000017,None,f,0.7770126000978053,2638.199091000017,None,,,NC_55,001,2022_May_05_1159,ProdSingRedo,3.2.3,59.903770631176094,
,,,,103,0,103,0,,,,,,,,,,,,,,,,,,,,,,,,2644.0493381000124,None,,,,,,,,,,,,,,,,,drove,new_b,white,103,133,106,2639.5396202998236,None,2639.5396202998236,None,1,3.0843001001048833,2639.5396202998236,None,2642.6794093998615,None,2643.1958266999573,None,2643.1958266999573,None,n,0.8201242000795901,2643.1958266999573,None,,,NC_55,001,2022_May_05_1159,ProdSingRedo,3.2.3,59.903770631176094,
,,,,104,0,104,0,,,,,,,,,,,,,,,,,,,,,,,,2647.8824138999917,None,,,,,,,,,,,,,,,,,discussion,new_c,white,104,179,96,2644.575695599895,None,2644.575695599895,None,4,2.376564099919051,2644.575695599895,None,2646.9979122998193,None,2647.5181559999473,None,2647.5181559999473,None,f,0.3382190999109298,2647.5181559999473,None,,,NC_55,001,2022_May_05_1159,ProdSingRedo,3.2.3,59.903770631176094,
,,,,105,0,105,0,,,,,,,,,,,,,,,,,,,,,,,,2651.384891099995,None,,,,,,,,,,,,,,,,,commercial,new_c,white,105,165,61,2648.404930499848,None,2648.404930499848,None,5,2.1471259999088943,2648.404930499848,None,2650.594958399888,None,2651.1194990999065,None,2651.1194990999065,None,f,0.23247749987058342,2651.1194990999065,None,,,NC_55,001,2022_May_05_1159,ProdSingRedo,3.2.3,59.903770631176094,
,,,,106,0,106,0,,,,,,,,,,,,,,,,,,,,,,,,2656.76619629981,None,,,,,,,,,,,,,,,,,stranger,new_c,white,106,155,309,2651.9128218998667,None,2651.9128218998667,None,3,4.111023700097576,2651.9128218998667,None,2656.0607776998077,None,2656.5951867999975,None,2656.5951867999975,None,f,0.14089389983564615,2656.5951867999975,None,,,NC_55,001,2022_May_05_1159,ProdSingRedo,3.2.3,59.903770631176094,
,,,,107,0,107,0,,,,,,,,,,,,,,,,,,,,,,,,2660.999210299924,None,,,,,,,,,,,,,,,,,estate,sing,white,107,25,119,2657.291215499863,None,2657.291215499863,None,1,2.284789599943906,2657.291215499863,None,2659.6261814997997,None,2660.1512515000068,None,2660.1512515000068,None,n,0.8168492000550032,2660.1512515000068,None,,,NC_55,001,2022_May_05_1159,ProdSingRedo,3.2.3,59.903770631176094,
,,,,108,0,108,0,,,,,,,,,,,,,,,,,,,,,,,,2666.184188999934,None,,,,,,,,,,,,,,,,,group,new_a,white,108,118,143,2661.525178699987,None,2661.525178699987,None,1,3.6028424000833184,2661.525178699987,None,2665.181343099801,None,2665.707223800011,None,2665.707223800011,None,n,0.444833799963817,2665.707223800011,None,,,NC_55,001,2022_May_05_1159,ProdSingRedo,3.2.3,59.903770631176094,
,,,,109,0,109,0,,,,,,,,,,,,,,,,,,,,,,,,2669.2928565999027,None,,,,,,,,,,,,,,,,,weight,silent,white,109,61,353,2666.706634099828,None,2666.706634099828,None,1,1.5335603998973966,2666.706634099828,None,2668.284447199898,None,2668.801365299849,None,2668.801365299849,None,n,0.46266449987888336,2668.801365299849,None,,,NC_55,001,2022_May_05_1159,ProdSingRedo,3.2.3,59.903770631176094,
,,,,110,0,110,0,,,,,,,,,,,,,,,,,,,,,,,,2672.258634199854,None,,,,,,,,,,,,,,,,,strength,aloud,white,110,42,310,2669.8260846999474,None,2669.8260846999474,None,4,1.517859200015664,2669.8260846999474,None,2671.402362599969,None,2671.907071799971,None,2671.907071799971,None,f,0.32460880000144243,2671.907071799971,None,,,NC_55,001,2022_May_05_1159,ProdSingRedo,3.2.3,59.903770631176094,
,,,,111,0,111,0,,,,,,,,,,,,,,,,,,,,,,,,2675.0234514998738,None,,,,,,,,,,,,,,,,,population,new_b,white,111,126,227,2672.794895999832,None,2672.794895999832,None,1,1.3171228000428528,2672.794895999832,None,2674.1586221999023,None,2674.6757506998256,None,2674.6757506998256,None,n,0.31617900007404387,2674.6757506998256,None,,,NC_55,001,2022_May_05_1159,ProdSingRedo,3.2.3,59.903770631176094,
,,,,112,0,112,0,,,,,,,,,,,,,,,,,,,,,,,,2678.0043893998954,None,,,,,,,,,,,,,,,,,smooth,aloud,white,112,40,292,2675.5251964998897,None,2675.5251964998897,None,1,1.6666857998352498,2675.5251964998897,None,2677.2267892998643,None,2677.7480642998125,None,2677.7480642998125,None,n,0.21994209988042712,2677.7480642998125,None,,,NC_55,001,2022_May_05_1159,ProdSingRedo,3.2.3,59.903770631176094,
,,,,113,0,113,0,,,,,,,,,,,,,,,,,,,,,,,,2681.475496799918,None,,,,,,,,,,,,,,,,,executive,new_c,white,113,152,122,2678.5423977000173,None,2678.5423977000173,None,1,2.1227122999262065,2678.5423977000173,None,2680.72055489989,None,2681.2486757999286,None,2681.2486757999286,None,n,0.20753670018166304,2681.2486757999286,None,,,NC_55,001,2022_May_05_1159,ProdSingRedo,3.2.3,59.903770631176094,
,,,,114,0,114,0,,,,,,,,,,,,,,,,,,,,,,,,2684.100468499819,None,,,,,,,,,,,,,,,,,piece,new_b,white,114,125,221,2681.989157799864,None,2681.989157799864,None,1,1.2029387999791652,2681.989157799864,None,2683.230581099866,None,2683.7470622998662,None,2683.7470622998662,None,n,0.32565000001341105,2683.7470622998662,None,,,NC_55,001,2022_May_05_1159,ProdSingRedo,3.2.3,59.903770631176094,
,,,,115,0,115,0,,,,,,,,,,,,,,,,,,,,,,,,2686.676128400024,None,,,,,,,,,,,,,,,,,error,new_b,white,115,127,117,2684.6213100999594,None,2684.6213100999594,None,1,1.0107162001077086,2684.6213100999594,None,2685.678744299803,None,2686.1972401000094,None,2686.1972401000094,None,n,0.45872129988856614,2686.1972401000094,None,,,NC_55,001,2022_May_05_1159,ProdSingRedo,3.2.3,59.903770631176094,
,,,,116,0,116,0,,,,,,,,,,,,,,,,,,,,,,,,2689.284142700024,None,,,,,,,,,,,,,,,,,reach,silent,white,116,85,253,2687.195261799963,None,2687.195261799963,None,1,1.220699899829924,2687.195261799963,None,2688.464968699962,None,2688.993529899977,None,2688.993529899977,None,n,0.2546624999959022,2688.993529899977,None,,,NC_55,001,2022_May_05_1159,ProdSingRedo,3.2.3,59.903770631176094,
,,,,117,0,117,0,,,,,,,,,,,,,,,,,,,,,,,,2692.5854766999837,None,,,,,,,,,,,,,,,,,portion,new_b,white,117,141,228,2689.804044799879,None,2689.804044799879,None,1,2.004157399991527,2689.804044799879,None,2691.8487248998135,None,2692.3653104999103,None,2692.3653104999103,None,n,0.1866486999206245,2692.3653104999103,None,,,NC_55,001,2022_May_05_1159,ProdSingRedo,3.2.3,59.903770631176094,
,,,,118,0,118,0,,,,,,,,,,,,,,,,,,,,,,,,2695.2357762998436,None,,,,,,,,,,,,,,,,,split,silent,white,118,65,299,2693.102716299938,None,2693.102716299938,None,1,1.0493307998403907,2693.102716299938,None,2694.192078899825,None,2694.7058129999787,None,2694.7058129999787,None,n,0.5028984001837671,2694.7058129999787,None,,,NC_55,001,2022_May_05_1159,ProdSingRedo,3.2.3,59.903770631176094,
,,,,119,0,119,0,,,,,,,,,,,,,,,,,,,,,,,,2698.051636799937,None,,,,,,,,,,,,,,,,,instrument,new_b,white,119,129,163,2695.7621096000075,None,2695.7621096000075,None,1,1.253897399874404,2695.7621096000075,None,2697.069941499969,None,2697.5881974999793,None,2697.5881974999793,None,n,0.4361122997943312,2697.5881974999793,None,,,NC_55,001,2022_May_05_1159,ProdSingRedo,3.2.3,59.903770631176094,
,,,,120,0,120,0,,,,,,,,,,,,,,,,,,,,,,,,2700.552400799934,None,,,,,,,,,,,,,,,,,colonel,new_b,white,120,131,55,2698.57481429982,None,2698.57481429982,None,1,1.0658558998256922,2698.57481429982,None,2699.6829093999695,None,2700.191718199989,None,2700.191718199989,None,n,0.3202960998751223,2700.191718199989,None,,,NC_55,001,2022_May_05_1159,ProdSingRedo,3.2.3,59.903770631176094,
,,,,121,0,121,0,,,,,,,,,,,,,,,,,,,,,,,,2704.5713812999893,None,,,,,,,,,,,,,,,,,voice,new_a,white,121,97,348,2701.076085299952,None,2701.076085299952,None,2,1.9323647001292557,2701.076085299952,None,2703.0490532999393,None,2703.5698806999717,None,2703.5698806999717,None,n,0.974067399976775,2703.5698806999717,None,,,NC_55,001,2022_May_05_1159,ProdSingRedo,3.2.3,59.903770631176094,
,,,,122,0,122,0,,,,,,,,,,,,,,,,,,,,,,,,2710.901140099857,None,,,,,,,,,,,,,,,,,harmony,sing,white,122,6,148,2705.0998278998304,None,2705.0998278998304,None,1,1.1882168999873102,2705.0998278998304,None,2706.334948599804,None,2706.8565079998225,None,2706.8565079998225,None,r,4.007721500005573,2706.8565079998225,None,,,NC_55,001,2022_May_05_1159,ProdSingRedo,3.2.3,59.903770631176094,
,,,,123,0,123,0,,,,,,,,,,,,,,,,,,,,,,,,2715.5361965999473,None,,,,,,,,,,,,,,,,,place,sing,white,123,8,222,2711.42872299999,None,2711.42872299999,None,6,3.3872881000861526,2711.42872299999,None,2714.865543999942,None,2715.38766509993,None,2715.38766509993,None,r,0.10827460000291467,2715.38766509993,None,,,NC_55,001,2022_May_05_1159,ProdSingRedo,3.2.3,59.903770631176094,
,,,,124,0,124,0,,,,,,,,,,,,,,,,,,,,,,,,2718.8684704999905,None,,,,,,,,,,,,,,,,,reading,new_b,white,124,144,254,2716.0553184999153,None,2716.0553184999153,None,1,1.6484746998175979,2716.0553184999153,None,2717.7361117999535,None,2718.252238899935,None,2718.252238899935,None,n,0.579783899942413,2718.252238899935,None,,,NC_55,001,2022_May_05_1159,ProdSingRedo,3.2.3,59.903770631176094,
,,,,125,0,125,0,,,,,,,,,,,,,,,,,,,,,,,,2721.337941699894,None,,,,,,,,,,,,,,,,,plane,new_b,white,125,136,223,2719.3959995999467,None,2719.3959995999467,None,1,1.108017799910158,2719.3959995999467,None,2720.553740199888,None,2721.075416599866,None,2721.075416599866,None,n,0.220628899987787,2721.075416599866,None,,,NC_55,001,2022_May_05_1159,ProdSingRedo,3.2.3,59.903770631176094,
,,,,126,0,126,0,,,,,,,,,,,,,,,,,,,,,,,,2723.954126499826,None,,,,,,,,,,,,,,,,,thick,new_a,white,126,108,327,2721.859386499971,None,2721.859386499971,None,1,1.220335700083524,2721.859386499971,None,2723.131265199976,None,2723.6537975999527,None,2723.6537975999527,None,n,0.2661272999830544,2723.6537975999527,None,,,NC_55,001,2022_May_05_1159,ProdSingRedo,3.2.3,59.903770631176094,
,,,,127,0,127,0,,,,,,,,,,,,,,,,,,,,,,,,2728.3217027999926,None,,,,,,,,,,,,,,,,,capital,silent,white,127,77,40,2724.484022699995,None,2724.484022699995,None,2,2.3083611000329256,2724.484022699995,None,2726.834308799822,None,2727.3624656000175,None,2727.3624656000175,None,n,0.9334181000012904,2727.3624656000175,None,,,NC_55,001,2022_May_05_1159,ProdSingRedo,3.2.3,59.903770631176094,
,,,,128,0,128,0,,,,,,,,,,,,,,,,,,,,,,,,2732.5397426998243,None,,,,,,,,,,,,,,,,,south,sing,white,128,13,296,2728.845849999925,None,2728.845849999925,None,6,2.4900495999027044,2728.845849999925,None,2731.387903299881,None,2731.8941448999103,None,2731.8941448999103,None,r,0.6098718999419361,2731.8941448999103,None,,,NC_55,001,2022_May_05_1159,ProdSingRedo,3.2.3,59.903770631176094,
,,,,129,0,129,0,,,,,,,,,,,,,,,,,,,,,,,,2735.8087754999287,None,,,,,,,,,,,,,,,,,household,aloud,white,129,33,154,2733.0626959998626,None,2733.0626959998626,None,6,2.0173332998529077,2733.0626959998626,None,2735.138593700016,None,2735.659327699803,None,2735.659327699803,None,r,0.11691610002890229,2735.659327699803,None,,,NC_55,001,2022_May_05_1159,ProdSingRedo,3.2.3,59.903770631176094,
,,,,130,0,130,0,,,,,,,,,,,,,,,,,,,,,,,,2739.572448299965,None,,,,,,,,,,,,,,,,,pretty,new_a,white,130,102,233,2736.319233399816,None,2736.319233399816,None,1,1.248414299916476,2736.319233399816,None,2737.598711399827,None,2738.1107685999013,None,2738.1107685999013,None,n,1.4251935000065714,2738.1107685999013,None,,,NC_55,001,2022_May_05_1159,ProdSingRedo,3.2.3,59.903770631176094,
,,,,131,0,131,0,,,,,,,,,,,,,,,,,,,,,,,,2743.256162799895,None,,,,,,,,,,,,,,,,,running,new_c,white,131,154,268,2740.100919399876,None,2740.100919399876,None,1,1.7552112999837846,2740.100919399876,None,2741.9039088999853,None,2742.424452499952,None,2742.424452499952,None,n,0.7996751999016851,2742.424452499952,None,,,NC_55,001,2022_May_05_1159,ProdSingRedo,3.2.3,59.903770631176094,
,,,,132,0,132,0,,,,,,,,,,,,,,,,,,,,,,,,2746.5916478999425,None,,,,,,,,,,,,,,,,,generation,sing,white,132,29,136,2743.778914899798,None,2743.778914899798,None,6,1.7251124000176787,2743.778914899798,None,2745.5429865999613,None,2746.0579007000197,None,2746.0579007000197,None,r,0.4869854000862688,2746.0579007000197,None,,,NC_55,001,2022_May_05_1159,ProdSingRedo,3.2.3,59.903770631176094,
,,,,133,0,133,0,,,,,,,,,,,,,,,,,,,,,,,,2749.521984499879,None,,,,,,,,,,,,,,,,,character,silent,white,133,82,46,2747.120121099986,None,2747.120121099986,None,6,1.447838099906221,2747.120121099986,None,2748.624048799975,None,2749.1419331999496,None,2749.1419331999496,None,r,0.35407530004158616,2749.1419331999496,None,,,NC_55,001,2022_May_05_1159,ProdSingRedo,3.2.3,59.903770631176094,
,,,,134,0,134,0,,,,,,,,,,,,,,,,,,,,,,,,2752.9744841000065,None,,,,,,,,,,,,,,,,,impact,aloud,white,134,56,157,2750.054926799843,None,2750.054926799843,None,5,2.1211502999067307,2750.054926799843,None,2752.220947699854,None,2752.740389399929,None,2752.740389399929,None,f,0.20383449993096292,2752.740389399929,None,,,NC_55,001,2022_May_05_1159,ProdSingRedo,3.2.3,59.903770631176094,
,,,,135,0,135,0,,,,,,,,,,,,,,,,,,,,,,,,2755.455944399815,None,,,,,,,,,,,,,,,,,pancakes,silent,white,135,84,210,2753.497879299801,None,2753.497879299801,None,1,1.2702384998556226,2753.497879299801,None,2754.826885999879,None,2755.346600999823,None,2755.346600999823,None,n,0.06940009980462492,2755.346600999823,None,,,NC_55,001,2022_May_05_1159,ProdSingRedo,3.2.3,59.903770631176094,
,,,,136,0,136,0,,,,,,,,,,,,,,,,,,,,,,,,2758.289207799826,None,,,,,,,,,,,,,,,,,direction,new_a,white,136,101,94,2755.979420099873,None,2755.979420099873,None,1,1.6687394001055509,2755.979420099873,None,2757.700278099859,None,2758.220677800011,None,2758.220677800011,None,n,0.03527130000293255,2758.220677800011,None,,,NC_55,001,2022_May_05_1159,ProdSingRedo,3.2.3,59.903770631176094,
,,,,137,0,137,0,,,,,,,,,,,,,,,,,,,,,,,,2761.2562380000018,None,,,,,,,,,,,,,,,,,interior,new_b,white,137,145,164,2758.8175652998034,None,2758.8175652998034,None,1,1.1427826001308858,2758.8175652998034,None,2760.004307099851,None,2760.521610299824,None,2760.521610299824,None,n,0.6942928999196738,2760.521610299824,None,,,NC_55,001,2022_May_05_1159,ProdSingRedo,3.2.3,59.903770631176094,
,,,,138,0,138,0,,,,,,,,,,,,,,,,,,,,,,,,2766.4909820000175,None,,,,,,,,,,,,,,,,,member,aloud,white,138,59,188,2761.7661172000226,None,2761.7661172000226,None,1,2.178733999840915,2761.7661172000226,None,2763.991001599934,None,2764.5087110998575,None,2764.5087110998575,None,n,1.9556084000505507,2764.5087110998575,None,,,NC_55,001,2022_May_05_1159,ProdSingRedo,3.2.3,59.903770631176094,
,,,,139,0,139,0,,,,,,,,,,,,,,,,,,,,,,,,2769.6815298998263,None,,,,,,,,,,,,,,,,,cover,sing,white,139,22,77,2767.005339999916,None,2767.005339999916,None,1,1.2026565000414848,2767.005339999916,None,2768.2531603998505,None,2768.7742998998147,None,2768.7742998998147,None,n,0.8894978000316769,2768.7742998998147,None,,,NC_55,001,2022_May_05_1159,ProdSingRedo,3.2.3,59.903770631176094,
,,,,140,0,140,0,,,,,,,,,,,,,,,,,,,,,,,,2773.3936647998635,None,,,,,,,,,,,,,,,,,present,new_b,white,140,139,231,2770.197633099975,None,2770.197633099975,None,4,2.250101099954918,2770.197633099975,None,2772.472105199937,None,2772.988055099966,None,2772.988055099966,None,f,0.3719154999125749,2772.988055099966,None,,,NC_55,001,2022_May_05_1159,ProdSingRedo,3.2.3,59.903770631176094,
,,,,141,0,141,0,,,,,,,,,,,,,,,,,,,,,,,,2777.167068499839,None,,,,,,,,,,,,,,,,,tragedy,new_a,white,141,93,335,2773.9022303000093,None,2773.9022303000093,None,1,2.353867899859324,2773.9022303000093,None,2776.3070330999326,None,2776.826800099807,None,2776.826800099807,None,n,0.3171529001556337,2776.826800099807,None,,,NC_55,001,2022_May_05_1159,ProdSingRedo,3.2.3,59.903770631176094,
,,,,142,0,142,0,,,,,,,,,,,,,,,,,,,,,,,,2782.859837599797,None,,,,,,,,,,,,,,,,,people,silent,white,142,62,216,2777.6990983998403,None,2777.6990983998403,None,1,3.6689285000320524,2777.6990983998403,None,2781.419648699928,None,2781.9378539999016,None,2781.9378539999016,None,f,0.8942405998241156,2781.9378539999016,None,,,NC_55,001,2022_May_05_1159,ProdSingRedo,3.2.3,59.903770631176094,
,,,,143,0,143,0,,,,,,,,,,,,,,,,,,,,,,,,2786.3331104998942,None,,,,,,,,,,,,,,,,,tough,silent,white,143,78,333,2783.3836564999074,None,2783.3836564999074,None,1,1.45632559992373,2783.3836564999074,None,2784.889632700011,None,2785.409045399865,None,2785.409045399865,None,n,0.895176500082016,2785.409045399865,None,,,NC_55,001,2022_May_05_1159,ProdSingRedo,3.2.3,59.903770631176094,
,,,,144,0,144,0,,,,,,,,,,,,,,,,,,,,,,,,2789.857094099978,None,,,,,,,,,,,,,,,,,session,aloud,white,144,55,281,2786.855387700023,None,2786.855387700023,None,6,1.7126275000628084,2786.855387700023,None,2788.6204276999924,None,2789.138386899838,None,2789.138386899838,None,r,0.6855657999403775,2789.138386899838,None,,,NC_55,001,2022_May_05_1159,ProdSingRedo,3.2.3,59.903770631176094,
,,,,145,0,145,0,,,,,,,,,,,,,,,,,,,,,,,,2792.6250161998905,None,,,,,,,,,,,,,,,,,sound,new_b,white,145,140,295,2790.383774999995,None,2790.383774999995,None,6,1.3120647000614554,2790.383774999995,None,2791.7166451998055,None,2792.2314679999836,None,2792.2314679999836,None,r,0.36062520020641387,2792.2314679999836,None,,,NC_55,001,2022_May_05_1159,ProdSingRedo,3.2.3,59.903770631176094,
,,,,146,0,146,0,,,,,,,,,,,,,,,,,,,,,,,,2795.4575025998056,None,,,,,,,,,,,,,,,,,still,new_c,white,146,162,304,2793.145660399925,None,2793.145660399925,None,1,1.3025023001246154,2793.145660399925,None,2794.487087599933,None,2795.0043301999103,None,2795.0043301999103,None,n,0.42800810001790524,2795.0043301999103,None,,,NC_55,001,2022_May_05_1159,ProdSingRedo,3.2.3,59.903770631176094,
,,,,147,0,147,0,,,,,,,,,,,,,,,,,,,,,,,,2799.4078688998707,None,,,,,,,,,,,,,,,,,election,silent,white,147,60,109,2795.9714863998815,None,2795.9714863998815,None,2,1.8764943000860512,2795.9714863998815,None,2797.887135799974,None,2798.398911600001,None,2798.398911600001,None,n,0.9851487998384982,2798.398911600001,None,,,NC_55,001,2022_May_05_1159,ProdSingRedo,3.2.3,59.903770631176094,
,,,,148,0,148,0,,,,,,,,,,,,,,,,,,,,,,,,2801.941225599963,None,,,,,,,,,,,,,,,,,silence,aloud,white,148,48,288,2799.917349800002,None,2799.917349800002,None,1,1.0507384000811726,2799.917349800002,None,2801.0224178999197,None,2801.539729599841,None,2801.539729599841,None,n,0.36426730011589825,2801.539729599841,None,,,NC_55,001,2022_May_05_1159,ProdSingRedo,3.2.3,59.903770631176094,
,,,,149,0,149,0,,,,,,,,,,,,,,,,,,,,,,,,2807.1085265998263,None,,,,,,,,,,,,,,,,,afternoon,sing,white,149,27,3,2802.46812399989,None,2802.46812399989,None,5,3.9799958001822233,2802.46812399989,None,2806.4935506000184,None,2807.0121435998008,None,2807.0121435998008,None,f,0.059975899988785386,2807.0121435998008,None,,,NC_55,001,2022_May_05_1159,ProdSingRedo,3.2.3,59.903770631176094,
,,,,150,0,150,0,,,,,,,,,,,,,,,,,,,,,,,,2809.809667499969,None,,,,,,,,,,,,,,,,,division,new_c,white,150,150,101,2807.6357889999636,None,2807.6357889999636,None,1,1.1799552999436855,2807.6357889999636,None,2808.843148799846,None,2809.3577503999695,None,2809.3577503999695,None,n,0.4262275001965463,2809.3577503999695,None,,,NC_55,001,2022_May_05_1159,ProdSingRedo,3.2.3,59.903770631176094,
,,,,151,0,151,0,,,,,,,,,,,,,,,,,,,,,,,,2813.025392399868,None,,,,,,,,,,,,,,,,,committee,aloud,white,151,58,62,2810.3322281998117,None,2810.3322281998117,None,1,1.147976699983701,2810.3322281998117,None,2811.517007799819,None,2812.0348688999657,None,2812.0348688999657,None,n,0.957577200140804,2812.0348688999657,None,,,NC_55,001,2022_May_05_1159,ProdSingRedo,3.2.3,59.903770631176094,
,,,,152,0,152,0,,,,,,,,,,,,,,,,,,,,,,,,2817.1427426999435,None,,,,,,,,,,,,,,,,,suspect,silent,white,152,63,318,2813.5510140999686,None,2813.5510140999686,None,3,2.0169045999646187,2813.5510140999686,None,2815.6093743999954,None,2816.1293183998205,None,2816.1293183998205,None,n,0.9747031999286264,2816.1293183998205,None,,,NC_55,001,2022_May_05_1159,ProdSingRedo,3.2.3,59.903770631176094,
,,,,153,0,153,0,,,,,,,,,,,,,,,,,,,,,,,,2822.3506369998213,None,,,,,,,,,,,,,,,,,comedy,sing,white,153,3,58,2817.6645008998457,None,2817.6645008998457,None,4,2.959111300064251,2817.6645008998457,None,2820.6596347999293,None,2821.177527899854,None,2821.177527899854,None,f,1.1420442999806255,2821.177527899854,None,,,NC_55,001,2022_May_05_1159,ProdSingRedo,3.2.3,59.903770631176094,
,,,,154,0,154,0,,,,,,,,,,,,,,,,,,,,,,,,2824.878526299959,None,,,,,,,,,,,,,,,,,light,aloud,white,154,32,171,2822.8683016998693,None,2822.8683016998693,None,1,1.1478675999678671,2822.8683016998693,None,2824.0626481999643,None,2824.5790700998623,None,2824.5790700998623,None,n,0.26085399999283254,2824.5790700998623,None,,,NC_55,001,2022_May_05_1159,ProdSingRedo,3.2.3,59.903770631176094,
,,,,155,0,155,0,,,,,,,,,,,,,,,,,,,,,,,,2827.7628064998426,None,,,,,,,,,,,,,,,,,comfort,new_c,white,155,167,59,2825.389503299957,None,2825.389503299957,None,1,1.282587100053206,2825.389503299957,None,2826.7273863998707,None,2827.251817799872,None,2827.251817799872,None,n,0.47615919983945787,2827.251817799872,None,,,NC_55,001,2022_May_05_1159,ProdSingRedo,3.2.3,59.903770631176094,
,,,,156,0,156,0,,,,,,,,,,,,,,,,,,,,,,,,2830.5595040998887,None,,,,,,,,,,,,,,,,,captain,new_a,white,156,111,41,2828.285055599874,None,2828.285055599874,None,1,1.5390562999527901,2828.285055599874,None,2829.8733015998732,None,2830.398938999977,None,2830.398938999977,None,n,0.13696649996563792,2830.398938999977,None,,,NC_55,001,2022_May_05_1159,ProdSingRedo,3.2.3,59.903770631176094,
,,,,157,0,157,0,,,,,,,,,,,,,,,,,,,,,,,,2835.228894899832,None,,,,,,,,,,,,,,,,,business,silent,white,157,73,38,2831.0897791997995,None,2831.0897791997995,None,1,2.4784448000136763,2831.0897791997995,None,2833.6120032998733,None,2834.1342266998254,None,2834.1342266998254,None,n,1.0577414000872523,2834.1342266998254,None,,,NC_55,001,2022_May_05_1159,ProdSingRedo,3.2.3,59.903770631176094,
,,,,158,0,158,0,,,,,,,,,,,,,,,,,,,,,,,,2837.846204099944,None,,,,,,,,,,,,,,,,,ground,aloud,white,158,38,142,2835.7528632998,None,2835.7528632998,None,1,1.2313508000224829,2835.7528632998,None,2837.030782099813,None,2837.5367688999977,None,2837.5367688999977,None,n,0.27962450007908046,2837.5367688999977,None,,,NC_55,001,2022_May_05_1159,ProdSingRedo,3.2.3,59.903770631176094,
,,,,159,0,159,0,,,,,,,,,,,,,,,,,,,,,,,,2840.5307783999015,None,,,,,,,,,,,,,,,,,cousin,silent,white,159,86,76,2838.373429699801,None,2838.373429699801,None,1,1.0905080998782068,2838.373429699801,None,2839.5124416998588,None,2840.032472499879,None,2840.032472499879,None,n,0.45560749992728233,2840.032472499879,None,,,NC_55,001,2022_May_05_1159,ProdSingRedo,3.2.3,59.903770631176094,
,,,,160,0,160,0,,,,,,,,,,,,,,,,,,,,,,,,2843.6289656998124,None,,,,,,,,,,,,,,,,,medicine,new_a,white,160,90,186,2841.046278099995,None,2841.046278099995,None,1,1.66569699998945,2841.046278099995,None,2842.758521999931,None,2843.2787146999035,None,2843.2787146999035,None,n,0.3213380998931825,2843.2787146999035,None,,,NC_55,001,2022_May_05_1159,ProdSingRedo,3.2.3,59.903770631176094,
,,,,161,0,161,0,,,,,,,,,,,,,,,,,,,,,,,,2849.7444092999212,None,,,,,,,,,,,,,,,,,interview,new_a,white,161,113,165,2844.1547681998927,None,2844.1547681998927,None,3,4.6692274999804795,2844.1547681998927,None,2848.8815363999456,None,2849.3999087000266,None,2849.3999087000266,None,f,0.3199931001290679,2849.3999087000266,None,,,NC_55,001,2022_May_05_1159,ProdSingRedo,3.2.3,59.903770631176094,
,,,,162,0,162,0,,,,,,,,,,,,,,,,,,,,,,,,2853.2135002999566,None,,,,,,,,,,,,,,,,,platform,new_b,white,162,123,224,2850.273265299853,None,2850.273265299853,None,1,1.582343699876219,2850.273265299853,None,2851.895026899874,None,2852.417522299802,None,2852.417522299802,None,n,0.7667054000776261,2852.417522299802,None,,,NC_55,001,2022_May_05_1159,ProdSingRedo,3.2.3,59.903770631176094,
,,,,163,0,163,0,,,,,,,,,,,,,,,,,,,,,,,,2856.0451536998153,None,,,,,,,,,,,,,,,,,general,silent,white,163,64,135,2853.7426169998944,None,2853.7426169998944,None,1,1.2733193000312895,2853.7426169998944,None,2855.0628192999866,None,2855.5817269999534,None,2855.5817269999534,None,n,0.42622889997437596,2855.5817269999534,None,,,NC_55,001,2022_May_05_1159,ProdSingRedo,3.2.3,59.903770631176094,
,,,,164,0,164,0,,,,,,,,,,,,,,,,,,,,,,,,2860.4695154000074,None,,,,,,,,,,,,,,,,,evidence,aloud,white,164,34,120,2856.573067799909,None,2856.573067799909,None,6,2.227291600080207,2856.573067799909,None,2858.846082399832,None,2859.3652144998778,None,2859.3652144998778,None,r,1.0743275000713766,2859.3652144998778,None,,,NC_55,001,2022_May_05_1159,ProdSingRedo,3.2.3,59.903770631176094,
,,,,165,0,165,0,,,,,,,,,,,,,,,,,,,,,,,,2863.2321560999844,None,,,,,,,,,,,,,,,,,graduate,silent,white,165,79,141,2860.9914410999045,None,2860.9914410999045,None,1,1.2722910998854786,2860.9914410999045,None,2862.3043047999963,None,2862.814201499801,None,2862.814201499801,None,n,0.38578149979002774,2862.814201499801,None,,,NC_55,001,2022_May_05_1159,ProdSingRedo,3.2.3,59.903770631176094,
,,,,166,0,166,0,,,,,,,,,,,,,,,,,,,,,,,,2865.880295299925,None,,,,,,,,,,,,,,,,,passage,new_a,white,166,98,212,2863.759213299956,None,2863.759213299956,None,1,1.1529247998259962,2863.759213299956,None,2864.9649665998295,None,2865.4820555998012,None,2865.4820555998012,None,n,0.35788449994288385,2865.4820555998012,None,,,NC_55,001,2022_May_05_1159,ProdSingRedo,3.2.3,59.903770631176094,
,,,,167,0,167,0,,,,,,,,,,,,,,,,,,,,,,,,2868.765517799882,None,,,,,,,,,,,,,,,,,clean,new_c,white,167,159,51,2866.404923300026,None,2866.404923300026,None,1,1.235082299914211,2866.404923300026,None,2867.6928476998582,None,2868.2130952998996,None,2868.2130952998996,None,n,0.5147993001155555,2868.2130952998996,None,,,NC_55,001,2022_May_05_1159,ProdSingRedo,3.2.3,59.903770631176094,
,,,,168,0,168,0,,,,,,,,,,,,,,,,,,,,,,,,2871.3471574999858,None,,,,,,,,,,,,,,,,,frank,new_a,white,168,103,133,2869.291791499825,None,2869.291791499825,None,1,1.092581800185144,2869.291791499825,None,2870.432471799897,None,2870.9517647998873,None,2870.9517647998873,None,n,0.36832699994556606,2870.9517647998873,None,,,NC_55,001,2022_May_05_1159,ProdSingRedo,3.2.3,59.903770631176094,
,,,,169,0,169,0,,,,,,,,,,,,,,,,,,,,,,,,2875.783854799811,None,,,,,,,,,,,,,,,,,signal,sing,white,169,4,287,2871.8728879999835,None,2871.8728879999835,None,4,2.951046299887821,2871.8728879999835,None,2874.8806443000212,None,2875.399900499964,None,2875.399900499964,None,f,0.35252840002067387,2875.399900499964,None,,,NC_55,001,2022_May_05_1159,ProdSingRedo,3.2.3,59.903770631176094,
,,,,170,0,170,0,,,,,,,,,,,,,,,,,,,,,,,,2879.2630495999474,None,,,,,,,,,,,,,,,,,enemy,aloud,white,170,43,113,2876.305206599878,None,2876.305206599878,None,6,2.1427553000394255,2876.305206599878,None,2878.4955020998605,None,2879.013971599983,None,2879.013971599983,None,r,0.21798640000633895,2879.013971599983,None,,,NC_55,001,2022_May_05_1159,ProdSingRedo,3.2.3,59.903770631176094,
,,,,171,0,171,0,,,,,,,,,,,,,,,,,,,,,,,,2881.5873650999274,None,,,,,,,,,,,,,,,,,count,sing,white,171,17,72,2879.791015899973,None,2879.791015899973,None,1,1.1685886001214385,2879.791015899973,None,2880.9895662998315,None,2881.509293799987,None,2881.509293799987,None,n,0.05855430010706186,2881.509293799987,None,,,NC_55,001,2022_May_05_1159,ProdSingRedo,3.2.3,59.903770631176094,
,,,,172,0,172,0,,,,,,,,,,,,,,,,,,,,,,,,2886.6987812998705,None,,,,,,,,,,,,,,,,,surface,sing,white,172,24,316,2882.088004600024,None,2882.088004600024,None,4,2.6644945999141783,2882.088004600024,None,2884.802543599857,None,2885.3211832998786,None,2885.3211832998786,None,f,1.350944299949333,2885.3211832998786,None,,,NC_55,001,2022_May_05_1159,ProdSingRedo,3.2.3,59.903770631176094,
,,,,173,0,173,0,,,,,,,,,,,,,,,,,,,,,,,,2890.478527399944,None,,,,,,,,,,,,,,,,,device,sing,white,173,2,93,2887.2236195998266,None,2887.2236195998266,None,1,1.792300899978727,2887.2236195998266,None,2889.0486908999737,None,2889.570943799801,None,2889.570943799801,None,n,0.8690667999908328,2889.570943799801,None,,,NC_55,001,2022_May_05_1159,ProdSingRedo,3.2.3,59.903770631176094,
,,,,174,0,174,0,,,,,,,,,,,,,,,,,,,,,,,,2894.014356599888,None,,,,,,,,,,,,,,,,,revolution,new_b,white,174,147,264,2891.0095056998543,None,2891.0095056998543,None,1,1.486348900012672,2891.0095056998543,None,2892.5532628998626,None,2893.0718317998108,None,2893.0718317998108,None,n,0.9040707000531256,2893.0718317998108,None,,,NC_55,001,2022_May_05_1159,ProdSingRedo,3.2.3,59.903770631176094,
,,,,175,0,175,0,,,,,,,,,,,,,,,,,,,,,,,,2896.681837799959,None,,,,,,,,,,,,,,,,,listen,aloud,white,175,31,172,2894.5359783999156,None,2894.5359783999156,None,1,1.3682538999710232,2894.5359783999156,None,2895.9450683998875,None,2896.463431299897,None,2896.463431299897,None,n,0.19281599996611476,2896.463431299897,None,,,NC_55,001,2022_May_05_1159,ProdSingRedo,3.2.3,59.903770631176094,
,,,,176,0,176,0,,,,,,,,,,,,,,,,,,,,,,,,2899.5312898999546,None,,,,,,,,,,,,,,,,,bureau,new_c,white,176,158,37,2897.2102226999123,None,2897.2102226999123,None,1,1.3102220001164824,2897.2102226999123,None,2898.567186099943,None,2899.0834411999676,None,2899.0834411999676,None,n,0.42075709998607635,2899.0834411999676,None,,,NC_55,001,2022_May_05_1159,ProdSingRedo,3.2.3,59.903770631176094,
,,,,177,0,177,0,,,,,,,,,,,,,,,,,,,,,,,,2903.380686999997,None,,,,,,,,,,,,,,,,,career,aloud,white,177,41,42,2900.058806899935,None,2900.058806899935,None,2,2.6293370998464525,2900.058806899935,None,2902.730641099857,None,2903.2490275998134,None,2903.2490275998134,None,n,0.09505550004541874,2903.2490275998134,None,,,NC_55,001,2022_May_05_1159,ProdSingRedo,3.2.3,59.903770631176094,
,,,,178,0,178,0,,,,,,,,,,,,,,,,,,,,,,,,2907.999725899892,None,,,,,,,,,,,,,,,,,universal,aloud,white,178,54,345,2903.9124190998264,None,2903.9124190998264,None,6,3.37575970008038,2903.9124190998264,None,2907.3320530999918,None,2907.85676539992,None,2907.85676539992,None,r,0.11135950009338558,2907.85676539992,None,,,NC_55,001,2022_May_05_1159,ProdSingRedo,3.2.3,59.903770631176094,
,,,,179,0,179,0,,,,,,,,,,,,,,,,,,,,,,,,2910.221998399822,None,,,,,,,,,,,,,,,,,couch,aloud,white,179,47,70,2908.528622899903,None,2908.528622899903,None,1,1.0312886000610888,2908.528622899903,None,2909.604435399873,None,2910.1202100999653,None,2910.1202100999653,None,n,0.055719700176268816,2910.1202100999653,None,,,NC_55,001,2022_May_05_1159,ProdSingRedo,3.2.3,59.903770631176094,
,,,,,,,,,,,,,,,,,,,,,,,,,,,,,,,,,,,,,,,,,,,,,,,,,,,,,,,,,,,,,,,,,,,,,,,,,2910.7249984999653,None,,,,,,,
