RAND,corrAns,words,studyPic,oldNew,condition,StudyTrials.thisRepN,StudyTrials.thisTrialN,StudyTrials.thisN,StudyTrials.thisIndex,TestTrials.thisRepN,TestTrials.thisTrialN,TestTrials.thisN,TestTrials.thisIndex,kPress.keys,kPress.rt,kPress2.keys,kPress2.rt,keyConf.keys,keyConf.rt,keyRKN.keys,keyRKN.rt,date,frameRate,expName,session,participant
,,,,,,,,,,,,,,space,1150.870927,,,,,,,2016_Oct_28_1304,32.00418663,ProdFawcett,SING,6
0.724296195,"4','5','6'",colonel,readPic.jpg,old,read,0,0,0,4,,,,,,,,,,,,,2016_Oct_28_1304,32.00418663,ProdFawcett,SING,6
0.134541939,"4','5','6'",author,speakPic.jpg,old,speak,0,1,1,52,,,,,,,,,,,,,2016_Oct_28_1304,32.00418663,ProdFawcett,SING,6
0.68980158,"4','5','6'",relation,readPic.jpg,old,read,0,2,2,25,,,,,,,,,,,,,2016_Oct_28_1304,32.00418663,ProdFawcett,SING,6
0.188126937,"4','5','6'",service,speakPic.jpg,old,speak,0,3,3,50,,,,,,,,,,,,,2016_Oct_28_1304,32.00418663,ProdFawcett,SING,6
0.816249452,"4','5','6'",majority,singPic.jpg,old,sing,0,4,4,77,,,,,,,,,,,,,2016_Oct_28_1304,32.00418663,ProdFawcett,SING,6
0.716863121,"4','5','6'",agency,readPic.jpg,old,read,0,5,5,29,,,,,,,,,,,,,2016_Oct_28_1304,32.00418663,ProdFawcett,SING,6
0.998718766,"4','5','6'",general,readPic.jpg,old,read,0,6,6,11,,,,,,,,,,,,,2016_Oct_28_1304,32.00418663,ProdFawcett,SING,6
0.963252151,"4','5','6'",force,readPic.jpg,old,read,0,7,7,12,,,,,,,,,,,,,2016_Oct_28_1304,32.00418663,ProdFawcett,SING,6
0.387866468,"4','5','6'",fight,singPic.jpg,old,sing,0,8,8,72,,,,,,,,,,,,,2016_Oct_28_1304,32.00418663,ProdFawcett,SING,6
0.46427851,"4','5','6'",harmony,singPic.jpg,old,sing,0,9,9,73,,,,,,,,,,,,,2016_Oct_28_1304,32.00418663,ProdFawcett,SING,6
0.718097739,"4','5','6'",growth,readPic.jpg,old,read,0,10,10,14,,,,,,,,,,,,,2016_Oct_28_1304,32.00418663,ProdFawcett,SING,6
0.489053859,"4','5','6'",crisis,singPic.jpg,old,sing,0,11,11,75,,,,,,,,,,,,,2016_Oct_28_1304,32.00418663,ProdFawcett,SING,6
0.87614913,"4','5','6'",reading,readPic.jpg,old,read,0,12,12,10,,,,,,,,,,,,,2016_Oct_28_1304,32.00418663,ProdFawcett,SING,6
0.036372621,"4','5','6'",position,speakPic.jpg,old,speak,0,13,13,47,,,,,,,,,,,,,2016_Oct_28_1304,32.00418663,ProdFawcett,SING,6
0.467929116,"4','5','6'",election,singPic.jpg,old,sing,0,14,14,70,,,,,,,,,,,,,2016_Oct_28_1304,32.00418663,ProdFawcett,SING,6
0.277875473,"4','5','6'",institute,speakPic.jpg,old,speak,0,15,15,31,,,,,,,,,,,,,2016_Oct_28_1304,32.00418663,ProdFawcett,SING,6
0.353780333,"4','5','6'",month,speakPic.jpg,old,speak,0,16,16,56,,,,,,,,,,,,,2016_Oct_28_1304,32.00418663,ProdFawcett,SING,6
0.753902147,"4','5','6'",column,speakPic.jpg,old,speak,0,17,17,43,,,,,,,,,,,,,2016_Oct_28_1304,32.00418663,ProdFawcett,SING,6
0.696080697,"4','5','6'",plane,readPic.jpg,old,read,0,18,18,28,,,,,,,,,,,,,2016_Oct_28_1304,32.00418663,ProdFawcett,SING,6
0.161671207,"4','5','6'",education,singPic.jpg,old,sing,0,19,19,89,,,,,,,,,,,,,2016_Oct_28_1304,32.00418663,ProdFawcett,SING,6
0.419694399,"4','5','6'",degree,speakPic.jpg,old,speak,0,20,20,59,,,,,,,,,,,,,2016_Oct_28_1304,32.00418663,ProdFawcett,SING,6
0.335086479,"4','5','6'",medicine,speakPic.jpg,old,speak,0,21,21,54,,,,,,,,,,,,,2016_Oct_28_1304,32.00418663,ProdFawcett,SING,6
0.461035423,"4','5','6'",under,readPic.jpg,old,read,0,22,22,18,,,,,,,,,,,,,2016_Oct_28_1304,32.00418663,ProdFawcett,SING,6
0.248235573,"4','5','6'",watch,singPic.jpg,old,sing,0,23,23,81,,,,,,,,,,,,,2016_Oct_28_1304,32.00418663,ProdFawcett,SING,6
0.087063981,"4','5','6'",opening,singPic.jpg,old,sing,0,24,24,88,,,,,,,,,,,,,2016_Oct_28_1304,32.00418663,ProdFawcett,SING,6
0.345674344,"4','5','6'",drove,speakPic.jpg,old,speak,0,25,25,32,,,,,,,,,,,,,2016_Oct_28_1304,32.00418663,ProdFawcett,SING,6
0.605807433,"4','5','6'",period,singPic.jpg,old,sing,0,26,26,69,,,,,,,,,,,,,2016_Oct_28_1304,32.00418663,ProdFawcett,SING,6
0.292750506,"4','5','6'",mayor,speakPic.jpg,old,speak,0,27,27,46,,,,,,,,,,,,,2016_Oct_28_1304,32.00418663,ProdFawcett,SING,6
0.796415279,"4','5','6'",level,singPic.jpg,old,sing,0,28,28,67,,,,,,,,,,,,,2016_Oct_28_1304,32.00418663,ProdFawcett,SING,6
0.365253547,"4','5','6'",generation,speakPic.jpg,old,speak,0,29,29,40,,,,,,,,,,,,,2016_Oct_28_1304,32.00418663,ProdFawcett,SING,6
0.722576213,"4','5','6'",research,speakPic.jpg,old,speak,0,30,30,55,,,,,,,,,,,,,2016_Oct_28_1304,32.00418663,ProdFawcett,SING,6
0.405598622,"4','5','6'",search,singPic.jpg,old,sing,0,31,31,64,,,,,,,,,,,,,2016_Oct_28_1304,32.00418663,ProdFawcett,SING,6
0.222622,"4','5','6'",throw,singPic.jpg,old,sing,0,32,32,74,,,,,,,,,,,,,2016_Oct_28_1304,32.00418663,ProdFawcett,SING,6
0.607588643,"4','5','6'",individual,singPic.jpg,old,sing,0,33,33,84,,,,,,,,,,,,,2016_Oct_28_1304,32.00418663,ProdFawcett,SING,6
0.254815348,"4','5','6'",broke,readPic.jpg,old,read,0,34,34,7,,,,,,,,,,,,,2016_Oct_28_1304,32.00418663,ProdFawcett,SING,6
0.854660356,"4','5','6'",danger,singPic.jpg,old,sing,0,35,35,66,,,,,,,,,,,,,2016_Oct_28_1304,32.00418663,ProdFawcett,SING,6
0.0107602,"4','5','6'",resistance,speakPic.jpg,old,speak,0,36,36,53,,,,,,,,,,,,,2016_Oct_28_1304,32.00418663,ProdFawcett,SING,6
0.978159201,"4','5','6'",impact,readPic.jpg,old,read,0,37,37,17,,,,,,,,,,,,,2016_Oct_28_1304,32.00418663,ProdFawcett,SING,6
0.048288527,"4','5','6'",judge,readPic.jpg,old,read,0,38,38,1,,,,,,,,,,,,,2016_Oct_28_1304,32.00418663,ProdFawcett,SING,6
0.8824535,"4','5','6'",balance,singPic.jpg,old,sing,0,39,39,62,,,,,,,,,,,,,2016_Oct_28_1304,32.00418663,ProdFawcett,SING,6
0.895970666,"4','5','6'",nature,speakPic.jpg,old,speak,0,40,40,38,,,,,,,,,,,,,2016_Oct_28_1304,32.00418663,ProdFawcett,SING,6
0.313550443,"4','5','6'",discussion,speakPic.jpg,old,speak,0,41,41,48,,,,,,,,,,,,,2016_Oct_28_1304,32.00418663,ProdFawcett,SING,6
0.531862839,"4','5','6'",benefit,singPic.jpg,old,sing,0,42,42,83,,,,,,,,,,,,,2016_Oct_28_1304,32.00418663,ProdFawcett,SING,6
0.225268309,"4','5','6'",novel,readPic.jpg,old,read,0,43,43,15,,,,,,,,,,,,,2016_Oct_28_1304,32.00418663,ProdFawcett,SING,6
0.314593307,"4','5','6'",appearance,speakPic.jpg,old,speak,0,44,44,37,,,,,,,,,,,,,2016_Oct_28_1304,32.00418663,ProdFawcett,SING,6
0.313358689,"4','5','6'",discovery,speakPic.jpg,old,speak,0,45,45,33,,,,,,,,,,,,,2016_Oct_28_1304,32.00418663,ProdFawcett,SING,6
0.03770262,"4','5','6'",display,speakPic.jpg,old,speak,0,46,46,39,,,,,,,,,,,,,2016_Oct_28_1304,32.00418663,ProdFawcett,SING,6
0.957574381,"4','5','6'",enemy,singPic.jpg,old,sing,0,47,47,68,,,,,,,,,,,,,2016_Oct_28_1304,32.00418663,ProdFawcett,SING,6
0.729660732,"4','5','6'",quick,speakPic.jpg,old,speak,0,48,48,35,,,,,,,,,,,,,2016_Oct_28_1304,32.00418663,ProdFawcett,SING,6
0.207123047,"4','5','6'",shape,speakPic.jpg,old,speak,0,49,49,44,,,,,,,,,,,,,2016_Oct_28_1304,32.00418663,ProdFawcett,SING,6
0.987475143,"4','5','6'",beginning,readPic.jpg,old,read,0,50,50,22,,,,,,,,,,,,,2016_Oct_28_1304,32.00418663,ProdFawcett,SING,6
0.073825863,"4','5','6'",company,readPic.jpg,old,read,0,51,51,6,,,,,,,,,,,,,2016_Oct_28_1304,32.00418663,ProdFawcett,SING,6
0.247701819,"4','5','6'",trail,singPic.jpg,old,sing,0,52,52,85,,,,,,,,,,,,,2016_Oct_28_1304,32.00418663,ProdFawcett,SING,6
0.526218167,"4','5','6'",dozen,singPic.jpg,old,sing,0,53,53,86,,,,,,,,,,,,,2016_Oct_28_1304,32.00418663,ProdFawcett,SING,6
0.374651493,"4','5','6'",candidate,readPic.jpg,old,read,0,54,54,26,,,,,,,,,,,,,2016_Oct_28_1304,32.00418663,ProdFawcett,SING,6
0.197254088,"4','5','6'",crowd,singPic.jpg,old,sing,0,55,55,80,,,,,,,,,,,,,2016_Oct_28_1304,32.00418663,ProdFawcett,SING,6
0.631042768,"4','5','6'",society,readPic.jpg,old,read,0,56,56,16,,,,,,,,,,,,,2016_Oct_28_1304,32.00418663,ProdFawcett,SING,6
0.352189422,"4','5','6'",build,singPic.jpg,old,sing,0,57,57,71,,,,,,,,,,,,,2016_Oct_28_1304,32.00418663,ProdFawcett,SING,6
0.46886189,"4','5','6'",native,readPic.jpg,old,read,0,58,58,0,,,,,,,,,,,,,2016_Oct_28_1304,32.00418663,ProdFawcett,SING,6
0.87797549,"4','5','6'",collection,speakPic.jpg,old,speak,0,59,59,57,,,,,,,,,,,,,2016_Oct_28_1304,32.00418663,ProdFawcett,SING,6
0.523531512,"4','5','6'",reach,speakPic.jpg,old,speak,0,60,60,41,,,,,,,,,,,,,2016_Oct_28_1304,32.00418663,ProdFawcett,SING,6
0.771276367,"4','5','6'",sight,readPic.jpg,old,read,0,61,61,3,,,,,,,,,,,,,2016_Oct_28_1304,32.00418663,ProdFawcett,SING,6
0.777436657,"4','5','6'",citizen,readPic.jpg,old,read,0,62,62,27,,,,,,,,,,,,,2016_Oct_28_1304,32.00418663,ProdFawcett,SING,6
0.460477128,"4','5','6'",oxygen,singPic.jpg,old,sing,0,63,63,79,,,,,,,,,,,,,2016_Oct_28_1304,32.00418663,ProdFawcett,SING,6
0.79604272,"4','5','6'",detective,singPic.jpg,old,sing,0,64,64,65,,,,,,,,,,,,,2016_Oct_28_1304,32.00418663,ProdFawcett,SING,6
0.904856504,"4','5','6'",welcome,speakPic.jpg,old,speak,0,65,65,49,,,,,,,,,,,,,2016_Oct_28_1304,32.00418663,ProdFawcett,SING,6
0.121465888,"4','5','6'",capital,singPic.jpg,old,sing,0,66,66,76,,,,,,,,,,,,,2016_Oct_28_1304,32.00418663,ProdFawcett,SING,6
0.656242177,"4','5','6'",tragedy,speakPic.jpg,old,speak,0,67,67,34,,,,,,,,,,,,,2016_Oct_28_1304,32.00418663,ProdFawcett,SING,6
0.774085183,"4','5','6'",staff,singPic.jpg,old,sing,0,68,68,87,,,,,,,,,,,,,2016_Oct_28_1304,32.00418663,ProdFawcett,SING,6
0.688845539,"4','5','6'",universal,singPic.jpg,old,sing,0,69,69,78,,,,,,,,,,,,,2016_Oct_28_1304,32.00418663,ProdFawcett,SING,6
0.619420207,"4','5','6'",order,singPic.jpg,old,sing,0,70,70,63,,,,,,,,,,,,,2016_Oct_28_1304,32.00418663,ProdFawcett,SING,6
0.048199406,"4','5','6'",thing,speakPic.jpg,old,speak,0,71,71,58,,,,,,,,,,,,,2016_Oct_28_1304,32.00418663,ProdFawcett,SING,6
0.14019689,"4','5','6'",contract,readPic.jpg,old,read,0,72,72,9,,,,,,,,,,,,,2016_Oct_28_1304,32.00418663,ProdFawcett,SING,6
0.387369312,"4','5','6'",second,readPic.jpg,old,read,0,73,73,5,,,,,,,,,,,,,2016_Oct_28_1304,32.00418663,ProdFawcett,SING,6
0.338010308,"4','5','6'",solution,singPic.jpg,old,sing,0,74,74,61,,,,,,,,,,,,,2016_Oct_28_1304,32.00418663,ProdFawcett,SING,6
0.000893658,"4','5','6'",comfort,speakPic.jpg,old,speak,0,75,75,51,,,,,,,,,,,,,2016_Oct_28_1304,32.00418663,ProdFawcett,SING,6
0.372398434,"4','5','6'",estate,readPic.jpg,old,read,0,76,76,13,,,,,,,,,,,,,2016_Oct_28_1304,32.00418663,ProdFawcett,SING,6
0.642777885,"4','5','6'",safety,speakPic.jpg,old,speak,0,77,77,30,,,,,,,,,,,,,2016_Oct_28_1304,32.00418663,ProdFawcett,SING,6
0.658248728,"4','5','6'",portion,speakPic.jpg,old,speak,0,78,78,45,,,,,,,,,,,,,2016_Oct_28_1304,32.00418663,ProdFawcett,SING,6
0.030870449,"4','5','6'",brilliant,speakPic.jpg,old,speak,0,79,79,42,,,,,,,,,,,,,2016_Oct_28_1304,32.00418663,ProdFawcett,SING,6
0.863519034,"4','5','6'",evidence,readPic.jpg,old,read,0,80,80,19,,,,,,,,,,,,,2016_Oct_28_1304,32.00418663,ProdFawcett,SING,6
0.937797024,"4','5','6'",birth,readPic.jpg,old,read,0,81,81,21,,,,,,,,,,,,,2016_Oct_28_1304,32.00418663,ProdFawcett,SING,6
0.760728528,"4','5','6'",range,readPic.jpg,old,read,0,82,82,8,,,,,,,,,,,,,2016_Oct_28_1304,32.00418663,ProdFawcett,SING,6
0.034000065,"4','5','6'",angle,readPic.jpg,old,read,0,83,83,20,,,,,,,,,,,,,2016_Oct_28_1304,32.00418663,ProdFawcett,SING,6
0.554464361,"4','5','6'",committee,readPic.jpg,old,read,0,84,84,2,,,,,,,,,,,,,2016_Oct_28_1304,32.00418663,ProdFawcett,SING,6
0.813835944,"4','5','6'",length,singPic.jpg,old,sing,0,85,85,60,,,,,,,,,,,,,2016_Oct_28_1304,32.00418663,ProdFawcett,SING,6
0.845957775,"4','5','6'",swift,readPic.jpg,old,read,0,86,86,23,,,,,,,,,,,,,2016_Oct_28_1304,32.00418663,ProdFawcett,SING,6
0.754043887,"4','5','6'",fellow,singPic.jpg,old,sing,0,87,87,82,,,,,,,,,,,,,2016_Oct_28_1304,32.00418663,ProdFawcett,SING,6
0.265542786,"4','5','6'",present,readPic.jpg,old,read,0,88,88,24,,,,,,,,,,,,,2016_Oct_28_1304,32.00418663,ProdFawcett,SING,6
0.114778377,"4','5','6'",government,speakPic.jpg,old,speak,0,89,89,36,,,,,,,,,,,,,2016_Oct_28_1304,32.00418663,ProdFawcett,SING,6
,,,,,,,,,,,,,,,,k,189.8693626,,,,,2016_Oct_28_1304,32.00418663,ProdFawcett,SING,6
0.656242177,"4','5','6'",tragedy,speakPic.jpg,old,speak,,,,,0,0,0,34,,,,,4,11.50134314,f,2.219690554,2016_Oct_28_1304,32.00418663,ProdFawcett,SING,6
0.276819663,"1','2','3'",accident,None,new,None,,,,,0,1,1,137,,,,,2,3.750800488,f,2.281981957,2016_Oct_28_1304,32.00418663,ProdFawcett,SING,6
0.345674344,"4','5','6'",drove,speakPic.jpg,old,speak,,,,,0,2,2,32,,,,,6,3.000827313,r,1.87572697,2016_Oct_28_1304,32.00418663,ProdFawcett,SING,6
0.292750506,"4','5','6'",mayor,speakPic.jpg,old,speak,,,,,0,3,3,46,,,,,6,2.799077639,r,0.594465336,2016_Oct_28_1304,32.00418663,ProdFawcett,SING,6
0.880641335,"1','2','3'",congress,None,new,None,,,,,0,4,4,140,,,,,3,4.157105859,f,1.188223413,2016_Oct_28_1304,32.00418663,ProdFawcett,SING,6
0.717323763,"1','2','3'",problem,None,new,None,,,,,0,5,5,129,,,,,2,2.174031569,n,2.048995919,2016_Oct_28_1304,32.00418663,ProdFawcett,SING,6
0.052335355,"1','2','3'",profession,None,new,None,,,,,0,6,6,127,,,,,1,1.750488846,f,3.625858454,2016_Oct_28_1304,32.00418663,ProdFawcett,SING,6
0.90664491,"1','2','3'",style,None,new,None,,,,,0,7,7,160,,,,,1,1.562758088,f,3.236453911,2016_Oct_28_1304,32.00418663,ProdFawcett,SING,6
0.247701819,"4','5','6'",trail,singPic.jpg,old,sing,,,,,0,8,8,85,,,,,1,2.625376373,n,11.11287166,2016_Oct_28_1304,32.00418663,ProdFawcett,SING,6
0.696080697,"4','5','6'",plane,readPic.jpg,old,read,,,,,0,9,9,28,,,,,3,3.469650821,n,1.625830151,2016_Oct_28_1304,32.00418663,ProdFawcett,SING,6
0.736118242,"1','2','3'",department,None,new,None,,,,,0,10,10,164,,,,,4,3.782122071,f,1.250795978,2016_Oct_28_1304,32.00418663,ProdFawcett,SING,6
0.374651493,"4','5','6'",candidate,readPic.jpg,old,read,,,,,0,11,11,26,,,,,6,2.15719761,r,1.125726426,2016_Oct_28_1304,32.00418663,ProdFawcett,SING,6
0.338010308,"4','5','6'",solution,singPic.jpg,old,sing,,,,,0,12,12,61,,,,,5,2.705390319,r,0.031946733,2016_Oct_28_1304,32.00418663,ProdFawcett,SING,6
0.036372621,"4','5','6'",position,speakPic.jpg,old,speak,,,,,0,13,13,47,,,,,3,4.236471639,f,0.12570932,2016_Oct_28_1304,32.00418663,ProdFawcett,SING,6
0.354918037,"1','2','3'",front,None,new,None,,,,,0,14,14,113,,,,,1,1.938478683,n,1.063173456,2016_Oct_28_1304,32.00418663,ProdFawcett,SING,6
0.646513318,"1','2','3'",trend,None,new,None,,,,,0,15,15,95,,,,,3,3.59494524,n,2.469586129,2016_Oct_28_1304,32.00418663,ProdFawcett,SING,6
0.60622605,"1','2','3'",tough,None,new,None,,,,,0,16,16,159,,,,,2,1.907107647,f,1.156885968,2016_Oct_28_1304,32.00418663,ProdFawcett,SING,6
0.642777885,"4','5','6'",safety,speakPic.jpg,old,speak,,,,,0,17,17,30,,,,,5,3.330096755,r,2.798853394,2016_Oct_28_1304,32.00418663,ProdFawcett,SING,6
0.123481022,"1','2','3'",group,None,new,None,,,,,0,18,18,179,,,,,5,7.344521864,f,2.063439378,2016_Oct_28_1304,32.00418663,ProdFawcett,SING,6
0.771276367,"4','5','6'",sight,readPic.jpg,old,read,,,,,0,19,19,3,,,,,2,2.719966895,n,0.50075469,2016_Oct_28_1304,32.00418663,ProdFawcett,SING,6
0.489053859,"4','5','6'",crisis,singPic.jpg,old,sing,,,,,0,20,20,75,,,,,4,3.830565929,r,1.188176449,2016_Oct_28_1304,32.00418663,ProdFawcett,SING,6
0.631042768,"4','5','6'",society,readPic.jpg,old,read,,,,,0,21,21,16,,,,,5,2.782111496,r,1.032002717,2016_Oct_28_1304,32.00418663,ProdFawcett,SING,6
0.497407416,"1','2','3'",quiet,None,new,None,,,,,0,22,22,128,,,,,2,2.531741616,n,0.875242401,2016_Oct_28_1304,32.00418663,ProdFawcett,SING,6
0.716863121,"4','5','6'",agency,readPic.jpg,old,read,,,,,0,23,23,29,,,,,3,3.094506547,f,1.000858104,2016_Oct_28_1304,32.00418663,ProdFawcett,SING,6
0.949273262,"1','2','3'",commercial,None,new,None,,,,,0,24,24,101,,,,,5,2.78203032,r,1.250815261,2016_Oct_28_1304,32.00418663,ProdFawcett,SING,6
0.46886189,"4','5','6'",native,readPic.jpg,old,read,,,,,0,25,25,0,,,,,1,2.626008677,f,2.719552305,2016_Oct_28_1304,32.00418663,ProdFawcett,SING,6
0.46427851,"4','5','6'",harmony,singPic.jpg,old,sing,,,,,0,26,26,73,,,,,6,2.313210234,r,0.969533411,2016_Oct_28_1304,32.00418663,ProdFawcett,SING,6
0.121465888,"4','5','6'",capital,singPic.jpg,old,sing,,,,,0,27,27,76,,,,,3,2.188356841,n,1.750788358,2016_Oct_28_1304,32.00418663,ProdFawcett,SING,6
0.559755503,"1','2','3'",trial,None,new,None,,,,,0,28,28,178,,,,,3,14.87860982,f,1.250747459,2016_Oct_28_1304,32.00418663,ProdFawcett,SING,6
0.048199406,"4','5','6'",thing,speakPic.jpg,old,speak,,,,,0,29,29,58,,,,,6,3.15721596,r,0.09445274,2016_Oct_28_1304,32.00418663,ProdFawcett,SING,6
0.008214829,"1','2','3'",rapid,None,new,None,,,,,0,30,30,114,,,,,2,2.000688909,n,0.407002367,2016_Oct_28_1304,32.00418663,ProdFawcett,SING,6
0.358723929,"1','2','3'",pretty,None,new,None,,,,,0,31,31,145,,,,,1,1.438286628,f,0.969806486,2016_Oct_28_1304,32.00418663,ProdFawcett,SING,6
0.523531512,"4','5','6'",reach,speakPic.jpg,old,speak,,,,,0,32,32,41,,,,,2,3.219537221,n,1.031918742,2016_Oct_28_1304,32.00418663,ProdFawcett,SING,6
0.949660847,"1','2','3'",rough,None,new,None,,,,,0,33,33,103,,,,,2,5.126118311,n,4.173810434,2016_Oct_28_1304,32.00418663,ProdFawcett,SING,6
0.188126937,"4','5','6'",service,speakPic.jpg,old,speak,,,,,0,34,34,50,,,,,4,5.032299741,f,0.12572456,2016_Oct_28_1304,32.00418663,ProdFawcett,SING,6
0.034000065,"4','5','6'",angle,readPic.jpg,old,read,,,,,0,35,35,20,,,,,6,3.844709254,r,0.094452118,2016_Oct_28_1304,32.00418663,ProdFawcett,SING,6
0.845957775,"4','5','6'",swift,readPic.jpg,old,read,,,,,0,36,36,23,,,,,6,1.563208445,r,0.40724092,2016_Oct_28_1304,32.00418663,ProdFawcett,SING,6
0.87614913,"4','5','6'",reading,readPic.jpg,old,read,,,,,0,37,37,10,,,,,5,2.750807019,r,1.750738595,2016_Oct_28_1304,32.00418663,ProdFawcett,SING,6
0.248235573,"4','5','6'",watch,singPic.jpg,old,sing,,,,,0,38,38,81,,,,,3,3.486688809,n,0.250965795,2016_Oct_28_1304,32.00418663,ProdFawcett,SING,6
0.619420207,"4','5','6'",order,singPic.jpg,old,sing,,,,,0,39,39,63,,,,,4,2.688241919,f,1.813259841,2016_Oct_28_1304,32.00418663,ProdFawcett,SING,6
0.421658909,"1','2','3'",close,None,new,None,,,,,0,40,40,119,,,,,3,2.469807886,f,1.813316447,2016_Oct_28_1304,32.00418663,ProdFawcett,SING,6
0.011715645,"1','2','3'",curve,None,new,None,,,,,0,41,41,155,,,,,1,2.188186402,n,4.250947134,2016_Oct_28_1304,32.00418663,ProdFawcett,SING,6
0.365253547,"4','5','6'",generation,speakPic.jpg,old,speak,,,,,0,42,42,40,,,,,6,1.954603516,f,0.875701467,2016_Oct_28_1304,32.00418663,ProdFawcett,SING,6
0.777436657,"4','5','6'",citizen,readPic.jpg,old,read,,,,,0,43,43,27,,,,,4,3.126054552,f,0.125958447,2016_Oct_28_1304,32.00418663,ProdFawcett,SING,6
0.754043887,"4','5','6'",fellow,singPic.jpg,old,sing,,,,,0,44,44,82,,,,,2,1.657028571,n,0.250212504,2016_Oct_28_1304,32.00418663,ProdFawcett,SING,6
0.70688895,"1','2','3'",empty,None,new,None,,,,,0,45,45,125,,,,,3,3.594615559,n,0.000806786,2016_Oct_28_1304,32.00418663,ProdFawcett,SING,6
0.854660356,"4','5','6'",danger,singPic.jpg,old,sing,,,,,0,46,46,66,,,,,6,2.594549001,r,0.594485553,2016_Oct_28_1304,32.00418663,ProdFawcett,SING,6
0.712530204,"1','2','3'",equipment,None,new,None,,,,,0,47,47,96,,,,,4,2.594642618,f,3.938370759,2016_Oct_28_1304,32.00418663,ProdFawcett,SING,6
0.03770262,"4','5','6'",display,speakPic.jpg,old,speak,,,,,0,48,48,39,,,,,3,1.937744054,n,1.798830067,2016_Oct_28_1304,32.00418663,ProdFawcett,SING,6
0.616408461,"1','2','3'",speech,None,new,None,,,,,0,49,49,108,,,,,4,3.438396107,f,0.03200956,2016_Oct_28_1304,32.00418663,ProdFawcett,SING,6
0.387866468,"4','5','6'",fight,singPic.jpg,old,sing,,,,,0,50,50,72,,,,,3,6.142801426,r,0.906953693,2016_Oct_28_1304,32.00418663,ProdFawcett,SING,6
0.000893658,"4','5','6'",comfort,speakPic.jpg,old,speak,,,,,0,51,51,51,,,,,6,6.673967655,r,0.032193683,2016_Oct_28_1304,32.00418663,ProdFawcett,SING,6
0.887696767,"1','2','3'",passage,None,new,None,,,,,0,52,52,141,,,,,2,2.344677063,f,0.43825055,2016_Oct_28_1304,32.00418663,ProdFawcett,SING,6
0.900296426,"1','2','3'",master,None,new,None,,,,,0,53,53,100,,,,,1,2.580301795,n,1.282130935,2016_Oct_28_1304,32.00418663,ProdFawcett,SING,6
0.556126034,"1','2','3'",narrow,None,new,None,,,,,0,54,54,154,,,,,2,2.080060599,n,1.032119661,2016_Oct_28_1304,32.00418663,ProdFawcett,SING,6
0.531677999,"1','2','3'",count,None,new,None,,,,,0,55,55,150,,,,,4,2.938284606,f,0.219490257,2016_Oct_28_1304,32.00418663,ProdFawcett,SING,6
0.863519034,"4','5','6'",evidence,readPic.jpg,old,read,,,,,0,56,56,19,,,,,2,2.673963611,f,1.46947074,2016_Oct_28_1304,32.00418663,ProdFawcett,SING,6
0.963252151,"4','5','6'",force,readPic.jpg,old,read,,,,,0,57,57,12,,,,,3,4.094591766,f,2.330325044,2016_Oct_28_1304,32.00418663,ProdFawcett,SING,6
0.855416728,"1','2','3'",division,None,new,None,,,,,0,58,58,138,,,,,3,8.501046116,f,1.563520709,2016_Oct_28_1304,32.00418663,ProdFawcett,SING,6
0.250269791,"1','2','3'",clean,None,new,None,,,,,0,59,59,144,,,,,1,1.750809196,n,0.125839948,2016_Oct_28_1304,32.00418663,ProdFawcett,SING,6
0.799781948,"1','2','3'",permit,None,new,None,,,,,0,60,60,99,,,,,2,3.406471767,f,0.907060683,2016_Oct_28_1304,32.00418663,ProdFawcett,SING,6
0.243097962,"1','2','3'",vision,None,new,None,,,,,0,61,61,172,,,,,4,3.500710214,n,0.250963929,2016_Oct_28_1304,32.00418663,ProdFawcett,SING,6
0.161671207,"4','5','6'",education,singPic.jpg,old,sing,,,,,0,62,62,89,,,,,6,2.267598213,r,0.000765109,2016_Oct_28_1304,32.00418663,ProdFawcett,SING,6
0.904856504,"4','5','6'",welcome,speakPic.jpg,old,speak,,,,,0,63,63,49,,,,,6,1.375728681,r,0.000192521,2016_Oct_28_1304,32.00418663,ProdFawcett,SING,6
0.555876681,"1','2','3'",answer,None,new,None,,,,,0,64,64,126,,,,,6,2.782116784,r,0.031394362,2016_Oct_28_1304,32.00418663,ProdFawcett,SING,6
0.79604272,"4','5','6'",detective,singPic.jpg,old,sing,,,,,0,65,65,65,,,,,4,3.76782137,f,0.032207057,2016_Oct_28_1304,32.00418663,ProdFawcett,SING,6
0.63010643,"1','2','3'",course,None,new,None,,,,,0,66,66,118,,,,,3,2.625904796,f,0.219428053,2016_Oct_28_1304,32.00418663,ProdFawcett,SING,6
0.760728528,"4','5','6'",range,readPic.jpg,old,read,,,,,0,67,67,8,,,,,3,2.830147918,n,0.063302529,2016_Oct_28_1304,32.00418663,ProdFawcett,SING,6
0.14019689,"4','5','6'",contract,readPic.jpg,old,read,,,,,0,68,68,9,,,,,3,2.000953587,n,0.406966289,2016_Oct_28_1304,32.00418663,ProdFawcett,SING,6
0.531862839,"4','5','6'",benefit,singPic.jpg,old,sing,,,,,0,69,69,83,,,,,2,7.344905352,n,2.031975347,2016_Oct_28_1304,32.00418663,ProdFawcett,SING,6
0.830035614,"1','2','3'",article,None,new,None,,,,,0,70,70,90,,,,,5,2.18831392,r,0.000758267,2016_Oct_28_1304,32.00418663,ProdFawcett,SING,6
0.338629834,"1','2','3'",figure,None,new,None,,,,,0,71,71,146,,,,,3,2.563217465,n,0.563255098,2016_Oct_28_1304,32.00418663,ProdFawcett,SING,6
0.134541939,"4','5','6'",author,speakPic.jpg,old,speak,,,,,0,72,72,52,,,,,6,1.313319713,r,0.205089718,2016_Oct_28_1304,32.00418663,ProdFawcett,SING,6
0.937877655,"1','2','3'",mankind,None,new,None,,,,,0,73,73,147,,,,,1,1.344590911,n,0.438192389,2016_Oct_28_1304,32.00418663,ProdFawcett,SING,6
0.607588643,"4','5','6'",individual,singPic.jpg,old,sing,,,,,0,74,74,84,,,,,6,1.925099845,r,0.938460022,2016_Oct_28_1304,32.00418663,ProdFawcett,SING,6
0.688845539,"4','5','6'",universal,singPic.jpg,old,sing,,,,,0,75,75,78,,,,,6,1.188238653,r,0.337701506,2016_Oct_28_1304,32.00418663,ProdFawcett,SING,6
0.313550443,"4','5','6'",discussion,speakPic.jpg,old,speak,,,,,0,76,76,48,,,,,6,2.719775929,r,0.438199542,2016_Oct_28_1304,32.00418663,ProdFawcett,SING,6
0.467929116,"4','5','6'",election,singPic.jpg,old,sing,,,,,0,77,77,70,,,,,5,4.736766953,r,0.00076231,2016_Oct_28_1304,32.00418663,ProdFawcett,SING,6
0.748225785,"1','2','3'",measure,None,new,None,,,,,0,78,78,121,,,,,2,3.094537026,f,0.875844225,2016_Oct_28_1304,32.00418663,ProdFawcett,SING,6
0.197254088,"4','5','6'",crowd,singPic.jpg,old,sing,,,,,0,79,79,80,,,,,3,4.032077051,f,0.969768853,2016_Oct_28_1304,32.00418663,ProdFawcett,SING,6
0.8824535,"4','5','6'",balance,singPic.jpg,old,sing,,,,,0,80,80,62,,,,,2,2.032194616,n,0.517571543,2016_Oct_28_1304,32.00418663,ProdFawcett,SING,6
0.68980158,"4','5','6'",relation,readPic.jpg,old,read,,,,,0,81,81,25,,,,,5,2.250482781,r,0.15706045,2016_Oct_28_1304,32.00418663,ProdFawcett,SING,6
0.460477128,"4','5','6'",oxygen,singPic.jpg,old,sing,,,,,0,82,82,79,,,,,6,1.438301246,r,0.094555999,2016_Oct_28_1304,32.00418663,ProdFawcett,SING,6
0.315719552,"1','2','3'",death,None,new,None,,,,,0,83,83,173,,,,,1,1.469483492,n,0.563381683,2016_Oct_28_1304,32.00418663,ProdFawcett,SING,6
0.739772034,"1','2','3'",personnel,None,new,None,,,,,0,84,84,116,,,,,3,1.813436501,n,0.219470352,2016_Oct_28_1304,32.00418663,ProdFawcett,SING,6
0.895970666,"4','5','6'",nature,speakPic.jpg,old,speak,,,,,0,85,85,38,,,,,3,2.56331357,n,0.15692329,2016_Oct_28_1304,32.00418663,ProdFawcett,SING,6
0.282256634,"1','2','3'",principal,None,new,None,,,,,0,86,86,163,,,,,4,2.469492512,f,0.344018323,2016_Oct_28_1304,32.00418663,ProdFawcett,SING,6
0.774085183,"4','5','6'",staff,singPic.jpg,old,sing,,,,,0,87,87,87,,,,,5,2.501143465,f,0.125655203,2016_Oct_28_1304,32.00418663,ProdFawcett,SING,6
0.030870449,"4','5','6'",brilliant,speakPic.jpg,old,speak,,,,,0,88,88,42,,,,,5,1.219493678,r,1.532050459,2016_Oct_28_1304,32.00418663,ProdFawcett,SING,6
0.207123047,"4','5','6'",shape,speakPic.jpg,old,speak,,,,,0,89,89,44,,,,,4,3.313491085,f,0.094504991,2016_Oct_28_1304,32.00418663,ProdFawcett,SING,6
0.984654497,"1','2','3'",rural,None,new,None,,,,,0,90,90,92,,,,,2,1.344509423,n,0.563366132,2016_Oct_28_1304,32.00418663,ProdFawcett,SING,6
0.810861145,"1','2','3'",raise,None,new,None,,,,,0,91,91,170,,,,,2,1.9071176,n,0.156992959,2016_Oct_28_1304,32.00418663,ProdFawcett,SING,6
0.516023032,"1','2','3'",break,None,new,None,,,,,0,92,92,93,,,,,3,2.111335529,n,0.125841504,2016_Oct_28_1304,32.00418663,ProdFawcett,SING,6
0.114778377,"4','5','6'",government,speakPic.jpg,old,speak,,,,,0,93,93,36,,,,,6,1.28211414,r,0.188217504,2016_Oct_28_1304,32.00418663,ProdFawcett,SING,6
0.846259545,"1','2','3'",review,None,new,None,,,,,0,94,94,120,,,,,6,2.61157517,r,0.188244562,2016_Oct_28_1304,32.00418663,ProdFawcett,SING,6
0.96000416,"1','2','3'",produce,None,new,None,,,,,0,95,95,91,,,,,3,4.094841826,f,2.375748275,2016_Oct_28_1304,32.00418663,ProdFawcett,SING,6
0.658248728,"4','5','6'",portion,speakPic.jpg,old,speak,,,,,0,96,96,45,,,,,4,1.813265129,n,0.250724754,2016_Oct_28_1304,32.00418663,ProdFawcett,SING,6
0.461035423,"4','5','6'",under,readPic.jpg,old,read,,,,,0,97,97,18,,,,,5,1.688231033,r,0.188354042,2016_Oct_28_1304,32.00418663,ProdFawcett,SING,6
0.372398434,"4','5','6'",estate,readPic.jpg,old,read,,,,,0,98,98,13,,,,,1,1.469564046,n,0.188519504,2016_Oct_28_1304,32.00418663,ProdFawcett,SING,6
0.421780466,"1','2','3'",background,None,new,None,,,,,0,99,99,136,,,,,2,1.531498709,n,0.188241141,2016_Oct_28_1304,32.00418663,ProdFawcett,SING,6
0.236352445,"1','2','3'",series,None,new,None,,,,,0,100,100,123,,,,,2,2.594521631,f,1.657103215,2016_Oct_28_1304,32.00418663,ProdFawcett,SING,6
0.405598622,"4','5','6'",search,singPic.jpg,old,sing,,,,,0,101,101,64,,,,,5,3.469533877,f,0.438213538,2016_Oct_28_1304,32.00418663,ProdFawcett,SING,6
0.411461238,"1','2','3'",treatment,None,new,None,,,,,0,102,102,130,,,,,3,2.236343499,n,0.125610416,2016_Oct_28_1304,32.00418663,ProdFawcett,SING,6
0.624014996,"1','2','3'",symbol,None,new,None,,,,,0,103,103,117,,,,,3,1.344579092,n,0.063209534,2016_Oct_28_1304,32.00418663,ProdFawcett,SING,6
0.203078908,"1','2','3'",short,None,new,None,,,,,0,104,104,112,,,,,3,1.344473967,n,0.938302334,2016_Oct_28_1304,32.00418663,ProdFawcett,SING,6
0.368424226,"1','2','3'",write,None,new,None,,,,,0,105,105,105,,,,,2,2.501033364,n,0.313154561,2016_Oct_28_1304,32.00418663,ProdFawcett,SING,6
0.314593307,"4','5','6'",appearance,speakPic.jpg,old,speak,,,,,0,106,106,37,,,,,2,1.657087353,n,0.219610622,2016_Oct_28_1304,32.00418663,ProdFawcett,SING,6
0.998718766,"4','5','6'",general,readPic.jpg,old,read,,,,,0,107,107,11,,,,,6,1.313335264,r,0.188416246,2016_Oct_28_1304,32.00418663,ProdFawcett,SING,6
0.439018329,"1','2','3'",broad,None,new,None,,,,,0,108,108,158,,,,,4,1.656886434,f,0.438231888,2016_Oct_28_1304,32.00418663,ProdFawcett,SING,6
0.392620354,"1','2','3'",escape,None,new,None,,,,,0,109,109,152,,,,,1,1.455184968,n,0.094790508,2016_Oct_28_1304,32.00418663,ProdFawcett,SING,6
0.025397945,"1','2','3'",worker,None,new,None,,,,,0,110,110,156,,,,,3,1.969491112,n,0.06337593,2016_Oct_28_1304,32.00418663,ProdFawcett,SING,6
0.101573528,"1','2','3'",owner,None,new,None,,,,,0,111,111,106,,,,,3,4.188289971,n,0.37571313,2016_Oct_28_1304,32.00418663,ProdFawcett,SING,6
0.115272785,"1','2','3'",strain,None,new,None,,,,,0,112,112,168,,,,,4,4.813327022,n,0.750737662,2016_Oct_28_1304,32.00418663,ProdFawcett,SING,6
0.388932673,"1','2','3'",science,None,new,None,,,,,0,113,113,104,,,,,4,6.469670415,f,0.907224591,2016_Oct_28_1304,32.00418663,ProdFawcett,SING,6
0.526218167,"4','5','6'",dozen,singPic.jpg,old,sing,,,,,0,114,114,86,,,,,3,1.876001912,n,0.063268939,2016_Oct_28_1304,32.00418663,ProdFawcett,SING,6
0.987475143,"4','5','6'",beginning,readPic.jpg,old,read,,,,,0,115,115,22,,,,,5,1.782071375,f,0.000761066,2016_Oct_28_1304,32.00418663,ProdFawcett,SING,6
0.937797024,"4','5','6'",birth,readPic.jpg,old,read,,,,,0,116,116,21,,,,,5,1.844476922,r,0.237488053,2016_Oct_28_1304,32.00418663,ProdFawcett,SING,6
0.586688841,"1','2','3'",foundation,None,new,None,,,,,0,117,117,143,,,,,2,7.018032319,n,0.563299885,2016_Oct_28_1304,32.00418663,ProdFawcett,SING,6
0.437400563,"1','2','3'",court,None,new,None,,,,,0,118,118,122,,,,,5,5.500787347,f,0.243952604,2016_Oct_28_1304,32.00418663,ProdFawcett,SING,6
0.277875473,"4','5','6'",institute,speakPic.jpg,old,speak,,,,,0,119,119,31,,,,,2,1.375682339,n,0.063258053,2016_Oct_28_1304,32.00418663,ProdFawcett,SING,6
0.080704529,"1','2','3'",surface,None,new,None,,,,,0,120,120,151,,,,,5,3.625843525,f,0.29934776,2016_Oct_28_1304,32.00418663,ProdFawcett,SING,6
0.639677746,"1','2','3'",heavy,None,new,None,,,,,0,121,121,94,,,,,1,1.407031603,n,0.063156038,2016_Oct_28_1304,32.00418663,ProdFawcett,SING,6
0.722576213,"4','5','6'",research,speakPic.jpg,old,speak,,,,,0,122,122,55,,,,,6,1.438645545,r,0.156982384,2016_Oct_28_1304,32.00418663,ProdFawcett,SING,6
0.724296195,"4','5','6'",colonel,readPic.jpg,old,read,,,,,0,123,123,4,,,,,6,1.062959474,r,0.219631149,2016_Oct_28_1304,32.00418663,ProdFawcett,SING,6
0.978159201,"4','5','6'",impact,readPic.jpg,old,read,,,,,0,124,124,17,,,,,5,2.125864208,r,0.094476378,2016_Oct_28_1304,32.00418663,ProdFawcett,SING,6
0.605807433,"4','5','6'",period,singPic.jpg,old,sing,,,,,0,125,125,69,,,,,5,2.281981023,r,0.281950232,2016_Oct_28_1304,32.00418663,ProdFawcett,SING,6
0.257015201,"1','2','3'",thick,None,new,None,,,,,0,126,126,165,,,,,4,3.062822003,f,0.156987049,2016_Oct_28_1304,32.00418663,ProdFawcett,SING,6
0.434787198,"1','2','3'",power,None,new,None,,,,,0,127,127,132,,,,,3,1.625484608,n,0.688493534,2016_Oct_28_1304,32.00418663,ProdFawcett,SING,6
0.402026232,"1','2','3'",express,None,new,None,,,,,0,128,128,131,,,,,2,1.813419706,n,0.313236048,2016_Oct_28_1304,32.00418663,ProdFawcett,SING,6
0.128763188,"1','2','3'",dream,None,new,None,,,,,0,129,129,115,,,,,1,2.000719389,n,0.188206618,2016_Oct_28_1304,32.00418663,ProdFawcett,SING,6
0.673847486,"1','2','3'",patient,None,new,None,,,,,0,130,130,135,,,,,4,2.219656342,n,0.219470974,2016_Oct_28_1304,32.00418663,ProdFawcett,SING,6
0.565945924,"1','2','3'",conference,None,new,None,,,,,0,131,131,109,,,,,3,2.392790929,n,0.125707454,2016_Oct_28_1304,32.00418663,ProdFawcett,SING,6
0.352189422,"4','5','6'",build,singPic.jpg,old,sing,,,,,0,132,132,71,,,,,3,1.282053802,n,0.156940396,2016_Oct_28_1304,32.00418663,ProdFawcett,SING,6
0.688726505,"1','2','3'",suspect,None,new,None,,,,,0,133,133,124,,,,,2,1.937801592,n,0.313193439,2016_Oct_28_1304,32.00418663,ProdFawcett,SING,6
0.259554209,"1','2','3'",carry,None,new,None,,,,,0,134,134,169,,,,,1,2.407148547,n,0.188217504,2016_Oct_28_1304,32.00418663,ProdFawcett,SING,6
0.419694399,"4','5','6'",degree,speakPic.jpg,old,speak,,,,,0,135,135,59,,,,,5,1.611563663,f,0.188428064,2016_Oct_28_1304,32.00418663,ProdFawcett,SING,6
0.813835944,"4','5','6'",length,singPic.jpg,old,sing,,,,,0,136,136,60,,,,,3,2.094515566,n,0.469502464,2016_Oct_28_1304,32.00418663,ProdFawcett,SING,6
0.335086479,"4','5','6'",medicine,speakPic.jpg,old,speak,,,,,0,137,137,54,,,,,6,1.344484231,r,0.125707143,2016_Oct_28_1304,32.00418663,ProdFawcett,SING,6
0.0107602,"4','5','6'",resistance,speakPic.jpg,old,speak,,,,,0,138,138,53,,,,,6,2.188557138,r,0.188220614,2016_Oct_28_1304,32.00418663,ProdFawcett,SING,6
0.918156184,"1','2','3'",store,None,new,None,,,,,0,139,139,149,,,,,2,2.438240286,n,0.094583679,2016_Oct_28_1304,32.00418663,ProdFawcett,SING,6
0.122271167,"1','2','3'",debate,None,new,None,,,,,0,140,140,134,,,,,5,2.188299302,r,0.219514827,2016_Oct_28_1304,32.00418663,ProdFawcett,SING,6
0.468354795,"1','2','3'",income,None,new,None,,,,,0,141,141,175,,,,,2,2.844450174,n,0.188244563,2016_Oct_28_1304,32.00418663,ProdFawcett,SING,6
0.816249452,"4','5','6'",majority,singPic.jpg,old,sing,,,,,0,142,142,77,,,,,4,3.687774767,n,0.031924029,2016_Oct_28_1304,32.00418663,ProdFawcett,SING,6
0.718097739,"4','5','6'",growth,readPic.jpg,old,read,,,,,0,143,143,14,,,,,5,5.125865141,f,0.344701945,2016_Oct_28_1304,32.00418663,ProdFawcett,SING,6
0.860980373,"1','2','3'",testimony,None,new,None,,,,,0,144,144,177,,,,,1,1.281977602,n,0.063221042,2016_Oct_28_1304,32.00418663,ProdFawcett,SING,6
0.171811154,"1','2','3'",budget,None,new,None,,,,,0,145,145,162,,,,,3,1.626118778,f,1.62572907,2016_Oct_28_1304,32.00418663,ProdFawcett,SING,6
0.20508248,"1','2','3'",point,None,new,None,,,,,0,146,146,148,,,,,3,1.830195193,f,0.063265517,2016_Oct_28_1304,32.00418663,ProdFawcett,SING,6
0.228540902,"1','2','3'",design,None,new,None,,,,,0,147,147,153,,,,,2,2.674021461,n,0.125655825,2016_Oct_28_1304,32.00418663,ProdFawcett,SING,6
0.103166355,"1','2','3'",executive,None,new,None,,,,,0,148,148,133,,,,,2,2.657065271,n,0.125740733,2016_Oct_28_1304,32.00418663,ProdFawcett,SING,6
0.254815348,"4','5','6'",broke,readPic.jpg,old,read,,,,,0,149,149,7,,,,,5,2.080060599,f,0.156928267,2016_Oct_28_1304,32.00418663,ProdFawcett,SING,6
0.315460378,"1','2','3'",bright,None,new,None,,,,,0,150,150,102,,,,,1,1.657060917,n,0.063246545,2016_Oct_28_1304,32.00418663,ProdFawcett,SING,6
0.091970936,"1','2','3'",grade,None,new,None,,,,,0,151,151,161,,,,,4,1.8757024,f,1.267642067,2016_Oct_28_1304,32.00418663,ProdFawcett,SING,6
0.687724137,"1','2','3'",council,None,new,None,,,,,0,152,152,157,,,,,5,1.344535549,f,0.156973054,2016_Oct_28_1304,32.00418663,ProdFawcett,SING,6
0.087063981,"4','5','6'",opening,singPic.jpg,old,sing,,,,,0,153,153,88,,,,,3,2.001029787,f,0.468963778,2016_Oct_28_1304,32.00418663,ProdFawcett,SING,6
0.265542786,"4','5','6'",present,readPic.jpg,old,read,,,,,0,154,154,24,,,,,3,3.938311665,f,0.563207512,2016_Oct_28_1304,32.00418663,ProdFawcett,SING,6
0.592956408,"1','2','3'",center,None,new,None,,,,,0,155,155,98,,,,,3,6.813484709,n,0.062927128,2016_Oct_28_1304,32.00418663,ProdFawcett,SING,6
0.882378549,"1','2','3'",title,None,new,None,,,,,0,156,156,167,,,,,5,1.250722888,r,0.250738128,2016_Oct_28_1304,32.00418663,ProdFawcett,SING,6
0.202121146,"1','2','3'",split,None,new,None,,,,,0,157,157,171,,,,,2,1.719542353,n,0.031959796,2016_Oct_28_1304,32.00418663,ProdFawcett,SING,6
0.535663914,"1','2','3'",straight,None,new,None,,,,,0,158,158,174,,,,,3,1.673847912,n,0.374969481,2016_Oct_28_1304,32.00418663,ProdFawcett,SING,6
0.759086938,"1','2','3'",union,None,new,None,,,,,0,159,159,166,,,,,5,2.251260331,f,0.032171601,2016_Oct_28_1304,32.00418663,ProdFawcett,SING,6
0.752385401,"1','2','3'",fashion,None,new,None,,,,,0,160,160,176,,,,,1,1.250755234,n,0.031928072,2016_Oct_28_1304,32.00418663,ProdFawcett,SING,6
0.92391181,"1','2','3'",private,None,new,None,,,,,0,161,161,107,,,,,4,2.594314803,f,0.781928617,2016_Oct_28_1304,32.00418663,ProdFawcett,SING,6
0.554464361,"4','5','6'",committee,readPic.jpg,old,read,,,,,0,162,162,2,,,,,4,1.68817225,f,0.656980674,2016_Oct_28_1304,32.00418663,ProdFawcett,SING,6
0.761239129,"1','2','3'",quantity,None,new,None,,,,,0,163,163,142,,,,,3,3.126042111,n,0.063237837,2016_Oct_28_1304,32.00418663,ProdFawcett,SING,6
0.073825863,"4','5','6'",company,readPic.jpg,old,read,,,,,0,164,164,6,,,,,5,1.844505536,f,0.157178016,2016_Oct_28_1304,32.00418663,ProdFawcett,SING,6
0.353780333,"4','5','6'",month,speakPic.jpg,old,speak,,,,,0,165,165,56,,,,,2,1.50033077,n,0.080437866,2016_Oct_28_1304,32.00418663,ProdFawcett,SING,6
0.313358689,"4','5','6'",discovery,speakPic.jpg,old,speak,,,,,0,166,166,33,,,,,5,1.84461346,f,0.157057029,2016_Oct_28_1304,32.00418663,ProdFawcett,SING,6
0.796415279,"4','5','6'",level,singPic.jpg,old,sing,,,,,0,167,167,67,,,,,3,3.361534349,f,0.000160797,2016_Oct_28_1304,32.00418663,ProdFawcett,SING,6
0.225268309,"4','5','6'",novel,readPic.jpg,old,read,,,,,0,168,168,15,,,,,3,2.375741433,n,0.594443254,2016_Oct_28_1304,32.00418663,ProdFawcett,SING,6
0.387369312,"4','5','6'",second,readPic.jpg,old,read,,,,,0,169,169,5,,,,,5,1.844569295,f,0.063293509,2016_Oct_28_1304,32.00418663,ProdFawcett,SING,6
0.753902147,"4','5','6'",column,speakPic.jpg,old,speak,,,,,0,170,170,43,,,,,5,1.188280641,f,0.157156555,2016_Oct_28_1304,32.00418663,ProdFawcett,SING,6
0.87797549,"4','5','6'",collection,speakPic.jpg,old,speak,,,,,0,171,171,57,,,,,4,5.767796488,f,0.031547073,2016_Oct_28_1304,32.00418663,ProdFawcett,SING,6
0.729660732,"4','5','6'",quick,speakPic.jpg,old,speak,,,,,0,172,172,35,,,,,2,1.594488041,n,0.532209701,2016_Oct_28_1304,32.00418663,ProdFawcett,SING,6
0.53020716,"1','2','3'",breath,None,new,None,,,,,0,173,173,110,,,,,2,1.594145297,n,0.250689609,2016_Oct_28_1304,32.00418663,ProdFawcett,SING,6
0.957574381,"4','5','6'",enemy,singPic.jpg,old,sing,,,,,0,174,174,68,,,,,5,2.625871828,f,1.875932244,2016_Oct_28_1304,32.00418663,ProdFawcett,SING,6
0.125762402,"1','2','3'",command,None,new,None,,,,,0,175,175,111,,,,,4,3.594809013,f,0.313293898,2016_Oct_28_1304,32.00418663,ProdFawcett,SING,6
0.048288527,"4','5','6'",judge,readPic.jpg,old,read,,,,,0,176,176,1,,,,,3,2.469511795,f,0.125622234,2016_Oct_28_1304,32.00418663,ProdFawcett,SING,6
0.222622,"4','5','6'",throw,singPic.jpg,old,sing,,,,,0,177,177,74,,,,,3,1.563523198,n,0.000505719,2016_Oct_28_1304,32.00418663,ProdFawcett,SING,6
0.54957644,"1','2','3'",strength,None,new,None,,,,,0,178,178,139,,,,,5,2.344644717,f,0.093834121,2016_Oct_28_1304,32.00418663,ProdFawcett,SING,6
0.654023524,"1','2','3'",engineer,None,new,None,,,,,0,179,179,97,,,,,2,1.594516655,n,0.71945931,2016_Oct_28_1304,32.00418663,ProdFawcett,SING,6
RAND,corrAns,words,studyPic,oldNew,condition,StudyTrials.thisRepN,StudyTrials.thisTrialN,StudyTrials.thisN,StudyTrials.thisIndex,TestTrials.thisRepN,TestTrials.thisTrialN,TestTrials.thisN,TestTrials.thisIndex,kPress.keys,kPress.rt,kPress2.keys,kPress2.rt,keyConf.keys,keyConf.rt,keyRKN.keys,keyRKN.rt,date,frameRate,expName,SING,participant
,,,,,,,,,,,,,,space,132.9265333,,,,,,,2016_Nov_02_1539,31.9983579,ProdFawcett,SING,sing_subj10
0.317131739,"4','5','6'",solution,readPic.jpg,old,read,0,0,0,14,,,,,,,,,,,,,2016_Nov_02_1539,31.9983579,ProdFawcett,SING,sing_subj10
0.275558722,"4','5','6'",community,readPic.jpg,old,read,0,1,1,12,,,,,,,,,,,,,2016_Nov_02_1539,31.9983579,ProdFawcett,SING,sing_subj10
0.009803746,"4','5','6'",mayor,singPic.jpg,old,sing,0,2,2,65,,,,,,,,,,,,,2016_Nov_02_1539,31.9983579,ProdFawcett,SING,sing_subj10
0.482010164,"4','5','6'",harmony,singPic.jpg,old,sing,0,3,3,70,,,,,,,,,,,,,2016_Nov_02_1539,31.9983579,ProdFawcett,SING,sing_subj10
0.01869214,"4','5','6'",drink,readPic.jpg,old,read,0,4,4,23,,,,,,,,,,,,,2016_Nov_02_1539,31.9983579,ProdFawcett,SING,sing_subj10
0.080279339,"4','5','6'",nature,readPic.jpg,old,read,0,5,5,5,,,,,,,,,,,,,2016_Nov_02_1539,31.9983579,ProdFawcett,SING,sing_subj10
0.659846753,"4','5','6'",crisis,speakPic.jpg,old,speak,0,6,6,37,,,,,,,,,,,,,2016_Nov_02_1539,31.9983579,ProdFawcett,SING,sing_subj10
0.176288255,"4','5','6'",husband,singPic.jpg,old,sing,0,7,7,77,,,,,,,,,,,,,2016_Nov_02_1539,31.9983579,ProdFawcett,SING,sing_subj10
0.735264551,"4','5','6'",listen,readPic.jpg,old,read,0,8,8,6,,,,,,,,,,,,,2016_Nov_02_1539,31.9983579,ProdFawcett,SING,sing_subj10
0.562618816,"4','5','6'",corner,readPic.jpg,old,read,0,9,9,2,,,,,,,,,,,,,2016_Nov_02_1539,31.9983579,ProdFawcett,SING,sing_subj10
0.315253929,"4','5','6'",threat,singPic.jpg,old,sing,0,10,10,66,,,,,,,,,,,,,2016_Nov_02_1539,31.9983579,ProdFawcett,SING,sing_subj10
0.695445529,"4','5','6'",general,singPic.jpg,old,sing,0,11,11,68,,,,,,,,,,,,,2016_Nov_02_1539,31.9983579,ProdFawcett,SING,sing_subj10
0.608523573,"4','5','6'",victory,singPic.jpg,old,sing,0,12,12,61,,,,,,,,,,,,,2016_Nov_02_1539,31.9983579,ProdFawcett,SING,sing_subj10
0.298918506,"4','5','6'",instrument,speakPic.jpg,old,speak,0,13,13,45,,,,,,,,,,,,,2016_Nov_02_1539,31.9983579,ProdFawcett,SING,sing_subj10
0.096297709,"4','5','6'",leader,readPic.jpg,old,read,0,14,14,28,,,,,,,,,,,,,2016_Nov_02_1539,31.9983579,ProdFawcett,SING,sing_subj10
0.686918158,"4','5','6'",principal,singPic.jpg,old,sing,0,15,15,83,,,,,,,,,,,,,2016_Nov_02_1539,31.9983579,ProdFawcett,SING,sing_subj10
0.57760096,"4','5','6'",agency,readPic.jpg,old,read,0,16,16,8,,,,,,,,,,,,,2016_Nov_02_1539,31.9983579,ProdFawcett,SING,sing_subj10
0.205704175,"4','5','6'",ground,speakPic.jpg,old,speak,0,17,17,42,,,,,,,,,,,,,2016_Nov_02_1539,31.9983579,ProdFawcett,SING,sing_subj10
0.362973994,"4','5','6'",military,singPic.jpg,old,sing,0,18,18,76,,,,,,,,,,,,,2016_Nov_02_1539,31.9983579,ProdFawcett,SING,sing_subj10
0.315203873,"4','5','6'",speech,readPic.jpg,old,read,0,19,19,10,,,,,,,,,,,,,2016_Nov_02_1539,31.9983579,ProdFawcett,SING,sing_subj10
0.080883084,"4','5','6'",opening,readPic.jpg,old,read,0,20,20,20,,,,,,,,,,,,,2016_Nov_02_1539,31.9983579,ProdFawcett,SING,sing_subj10
0.570169431,"4','5','6'",mankind,readPic.jpg,old,read,0,21,21,7,,,,,,,,,,,,,2016_Nov_02_1539,31.9983579,ProdFawcett,SING,sing_subj10
0.194318315,"4','5','6'",government,speakPic.jpg,old,speak,0,22,22,31,,,,,,,,,,,,,2016_Nov_02_1539,31.9983579,ProdFawcett,SING,sing_subj10
0.92974511,"4','5','6'",majority,singPic.jpg,old,sing,0,23,23,71,,,,,,,,,,,,,2016_Nov_02_1539,31.9983579,ProdFawcett,SING,sing_subj10
0.459513605,"4','5','6'",atmosphere,readPic.jpg,old,read,0,24,24,27,,,,,,,,,,,,,2016_Nov_02_1539,31.9983579,ProdFawcett,SING,sing_subj10
0.250904118,"4','5','6'",crime,speakPic.jpg,old,speak,0,25,25,48,,,,,,,,,,,,,2016_Nov_02_1539,31.9983579,ProdFawcett,SING,sing_subj10
0.586697623,"4','5','6'",salary,readPic.jpg,old,read,0,26,26,24,,,,,,,,,,,,,2016_Nov_02_1539,31.9983579,ProdFawcett,SING,sing_subj10
0.375232665,"4','5','6'",sight,speakPic.jpg,old,speak,0,27,27,35,,,,,,,,,,,,,2016_Nov_02_1539,31.9983579,ProdFawcett,SING,sing_subj10
0.800389957,"4','5','6'",clear,singPic.jpg,old,sing,0,28,28,84,,,,,,,,,,,,,2016_Nov_02_1539,31.9983579,ProdFawcett,SING,sing_subj10
0.973274528,"4','5','6'",comedy,speakPic.jpg,old,speak,0,29,29,51,,,,,,,,,,,,,2016_Nov_02_1539,31.9983579,ProdFawcett,SING,sing_subj10
0.349850155,"4','5','6'",religion,singPic.jpg,old,sing,0,30,30,79,,,,,,,,,,,,,2016_Nov_02_1539,31.9983579,ProdFawcett,SING,sing_subj10
0.200478302,"4','5','6'",quantity,readPic.jpg,old,read,0,31,31,3,,,,,,,,,,,,,2016_Nov_02_1539,31.9983579,ProdFawcett,SING,sing_subj10
0.554571106,"4','5','6'",quiet,speakPic.jpg,old,speak,0,32,32,52,,,,,,,,,,,,,2016_Nov_02_1539,31.9983579,ProdFawcett,SING,sing_subj10
0.526067484,"4','5','6'",poetry,speakPic.jpg,old,speak,0,33,33,43,,,,,,,,,,,,,2016_Nov_02_1539,31.9983579,ProdFawcett,SING,sing_subj10
0.264229828,"4','5','6'",subject,speakPic.jpg,old,speak,0,34,34,39,,,,,,,,,,,,,2016_Nov_02_1539,31.9983579,ProdFawcett,SING,sing_subj10
0.866880453,"4','5','6'",native,singPic.jpg,old,sing,0,35,35,81,,,,,,,,,,,,,2016_Nov_02_1539,31.9983579,ProdFawcett,SING,sing_subj10
0.833607695,"4','5','6'",range,singPic.jpg,old,sing,0,36,36,67,,,,,,,,,,,,,2016_Nov_02_1539,31.9983579,ProdFawcett,SING,sing_subj10
0.109890898,"4','5','6'",industry,singPic.jpg,old,sing,0,37,37,60,,,,,,,,,,,,,2016_Nov_02_1539,31.9983579,ProdFawcett,SING,sing_subj10
0.574103289,"4','5','6'",century,speakPic.jpg,old,speak,0,38,38,30,,,,,,,,,,,,,2016_Nov_02_1539,31.9983579,ProdFawcett,SING,sing_subj10
0.469398047,"4','5','6'",heavy,singPic.jpg,old,sing,0,39,39,62,,,,,,,,,,,,,2016_Nov_02_1539,31.9983579,ProdFawcett,SING,sing_subj10
0.055624587,"4','5','6'",minor,singPic.jpg,old,sing,0,40,40,80,,,,,,,,,,,,,2016_Nov_02_1539,31.9983579,ProdFawcett,SING,sing_subj10
0.627794185,"4','5','6'",nation,readPic.jpg,old,read,0,41,41,25,,,,,,,,,,,,,2016_Nov_02_1539,31.9983579,ProdFawcett,SING,sing_subj10
0.320395904,"4','5','6'",payment,readPic.jpg,old,read,0,42,42,17,,,,,,,,,,,,,2016_Nov_02_1539,31.9983579,ProdFawcett,SING,sing_subj10
0.078181295,"4','5','6'",private,speakPic.jpg,old,speak,0,43,43,54,,,,,,,,,,,,,2016_Nov_02_1539,31.9983579,ProdFawcett,SING,sing_subj10
0.299824213,"4','5','6'",quarter,speakPic.jpg,old,speak,0,44,44,58,,,,,,,,,,,,,2016_Nov_02_1539,31.9983579,ProdFawcett,SING,sing_subj10
0.256480144,"4','5','6'",expansion,readPic.jpg,old,read,0,45,45,0,,,,,,,,,,,,,2016_Nov_02_1539,31.9983579,ProdFawcett,SING,sing_subj10
0.403515755,"4','5','6'",prime,speakPic.jpg,old,speak,0,46,46,53,,,,,,,,,,,,,2016_Nov_02_1539,31.9983579,ProdFawcett,SING,sing_subj10
0.632363365,"4','5','6'",degree,readPic.jpg,old,read,0,47,47,26,,,,,,,,,,,,,2016_Nov_02_1539,31.9983579,ProdFawcett,SING,sing_subj10
0.79693729,"4','5','6'",position,singPic.jpg,old,sing,0,48,48,78,,,,,,,,,,,,,2016_Nov_02_1539,31.9983579,ProdFawcett,SING,sing_subj10
0.27083722,"4','5','6'",citizen,speakPic.jpg,old,speak,0,49,49,57,,,,,,,,,,,,,2016_Nov_02_1539,31.9983579,ProdFawcett,SING,sing_subj10
0.938238052,"4','5','6'",signal,speakPic.jpg,old,speak,0,50,50,34,,,,,,,,,,,,,2016_Nov_02_1539,31.9983579,ProdFawcett,SING,sing_subj10
0.945868219,"4','5','6'",count,readPic.jpg,old,read,0,51,51,9,,,,,,,,,,,,,2016_Nov_02_1539,31.9983579,ProdFawcett,SING,sing_subj10
0.884129346,"4','5','6'",conference,singPic.jpg,old,sing,0,52,52,85,,,,,,,,,,,,,2016_Nov_02_1539,31.9983579,ProdFawcett,SING,sing_subj10
0.462657114,"4','5','6'",research,speakPic.jpg,old,speak,0,53,53,47,,,,,,,,,,,,,2016_Nov_02_1539,31.9983579,ProdFawcett,SING,sing_subj10
0.554664647,"4','5','6'",birth,readPic.jpg,old,read,0,54,54,15,,,,,,,,,,,,,2016_Nov_02_1539,31.9983579,ProdFawcett,SING,sing_subj10
0.180972549,"4','5','6'",tragedy,speakPic.jpg,old,speak,0,55,55,40,,,,,,,,,,,,,2016_Nov_02_1539,31.9983579,ProdFawcett,SING,sing_subj10
0.295754206,"4','5','6'",company,speakPic.jpg,old,speak,0,56,56,59,,,,,,,,,,,,,2016_Nov_02_1539,31.9983579,ProdFawcett,SING,sing_subj10
0.449284491,"4','5','6'",gesture,readPic.jpg,old,read,0,57,57,18,,,,,,,,,,,,,2016_Nov_02_1539,31.9983579,ProdFawcett,SING,sing_subj10
0.506371349,"4','5','6'",escape,speakPic.jpg,old,speak,0,58,58,55,,,,,,,,,,,,,2016_Nov_02_1539,31.9983579,ProdFawcett,SING,sing_subj10
0.693235196,"4','5','6'",colonel,singPic.jpg,old,sing,0,59,59,72,,,,,,,,,,,,,2016_Nov_02_1539,31.9983579,ProdFawcett,SING,sing_subj10
0.29817259,"4','5','6'",sound,readPic.jpg,old,read,0,60,60,11,,,,,,,,,,,,,2016_Nov_02_1539,31.9983579,ProdFawcett,SING,sing_subj10
0.210076266,"4','5','6'",balance,singPic.jpg,old,sing,0,61,61,69,,,,,,,,,,,,,2016_Nov_02_1539,31.9983579,ProdFawcett,SING,sing_subj10
0.449714779,"4','5','6'",account,readPic.jpg,old,read,0,62,62,1,,,,,,,,,,,,,2016_Nov_02_1539,31.9983579,ProdFawcett,SING,sing_subj10
0.513075827,"4','5','6'",agreement,speakPic.jpg,old,speak,0,63,63,56,,,,,,,,,,,,,2016_Nov_02_1539,31.9983579,ProdFawcett,SING,sing_subj10
0.274772304,"4','5','6'",danger,readPic.jpg,old,read,0,64,64,21,,,,,,,,,,,,,2016_Nov_02_1539,31.9983579,ProdFawcett,SING,sing_subj10
0.922375367,"4','5','6'",congress,readPic.jpg,old,read,0,65,65,16,,,,,,,,,,,,,2016_Nov_02_1539,31.9983579,ProdFawcett,SING,sing_subj10
0.511423027,"4','5','6'",search,speakPic.jpg,old,speak,0,66,66,50,,,,,,,,,,,,,2016_Nov_02_1539,31.9983579,ProdFawcett,SING,sing_subj10
0.889564645,"4','5','6'",captain,readPic.jpg,old,read,0,67,67,4,,,,,,,,,,,,,2016_Nov_02_1539,31.9983579,ProdFawcett,SING,sing_subj10
0.943874169,"4','5','6'",guide,speakPic.jpg,old,speak,0,68,68,32,,,,,,,,,,,,,2016_Nov_02_1539,31.9983579,ProdFawcett,SING,sing_subj10
0.787969461,"4','5','6'",staff,readPic.jpg,old,read,0,69,69,22,,,,,,,,,,,,,2016_Nov_02_1539,31.9983579,ProdFawcett,SING,sing_subj10
0.305009442,"4','5','6'",universal,speakPic.jpg,old,speak,0,70,70,41,,,,,,,,,,,,,2016_Nov_02_1539,31.9983579,ProdFawcett,SING,sing_subj10
0.938183688,"4','5','6'",detective,singPic.jpg,old,sing,0,71,71,64,,,,,,,,,,,,,2016_Nov_02_1539,31.9983579,ProdFawcett,SING,sing_subj10
0.799133296,"4','5','6'",travel,singPic.jpg,old,sing,0,72,72,86,,,,,,,,,,,,,2016_Nov_02_1539,31.9983579,ProdFawcett,SING,sing_subj10
0.068179239,"4','5','6'",interview,singPic.jpg,old,sing,0,73,73,75,,,,,,,,,,,,,2016_Nov_02_1539,31.9983579,ProdFawcett,SING,sing_subj10
0.643506904,"4','5','6'",republic,singPic.jpg,old,sing,0,74,74,88,,,,,,,,,,,,,2016_Nov_02_1539,31.9983579,ProdFawcett,SING,sing_subj10
0.081657402,"4','5','6'",under,singPic.jpg,old,sing,0,75,75,87,,,,,,,,,,,,,2016_Nov_02_1539,31.9983579,ProdFawcett,SING,sing_subj10
0.215626409,"4','5','6'",material,singPic.jpg,old,sing,0,76,76,63,,,,,,,,,,,,,2016_Nov_02_1539,31.9983579,ProdFawcett,SING,sing_subj10
0.920292864,"4','5','6'",cross,speakPic.jpg,old,speak,0,77,77,49,,,,,,,,,,,,,2016_Nov_02_1539,31.9983579,ProdFawcett,SING,sing_subj10
0.123391644,"4','5','6'",waste,singPic.jpg,old,sing,0,78,78,74,,,,,,,,,,,,,2016_Nov_02_1539,31.9983579,ProdFawcett,SING,sing_subj10
0.178026415,"4','5','6'",science,speakPic.jpg,old,speak,0,79,79,33,,,,,,,,,,,,,2016_Nov_02_1539,31.9983579,ProdFawcett,SING,sing_subj10
0.468340909,"4','5','6'",match,speakPic.jpg,old,speak,0,80,80,38,,,,,,,,,,,,,2016_Nov_02_1539,31.9983579,ProdFawcett,SING,sing_subj10
0.141700745,"4','5','6'",discovery,readPic.jpg,old,read,0,81,81,19,,,,,,,,,,,,,2016_Nov_02_1539,31.9983579,ProdFawcett,SING,sing_subj10
0.899692953,"4','5','6'",emergency,singPic.jpg,old,sing,0,82,82,89,,,,,,,,,,,,,2016_Nov_02_1539,31.9983579,ProdFawcett,SING,sing_subj10
0.315864734,"4','5','6'",welcome,speakPic.jpg,old,speak,0,83,83,46,,,,,,,,,,,,,2016_Nov_02_1539,31.9983579,ProdFawcett,SING,sing_subj10
0.613687613,"4','5','6'",breath,singPic.jpg,old,sing,0,84,84,73,,,,,,,,,,,,,2016_Nov_02_1539,31.9983579,ProdFawcett,SING,sing_subj10
0.238513462,"4','5','6'",length,speakPic.jpg,old,speak,0,85,85,36,,,,,,,,,,,,,2016_Nov_02_1539,31.9983579,ProdFawcett,SING,sing_subj10
0.810911242,"4','5','6'",surface,readPic.jpg,old,read,0,86,86,29,,,,,,,,,,,,,2016_Nov_02_1539,31.9983579,ProdFawcett,SING,sing_subj10
0.721215405,"4','5','6'",audience,readPic.jpg,old,read,0,87,87,13,,,,,,,,,,,,,2016_Nov_02_1539,31.9983579,ProdFawcett,SING,sing_subj10
0.8547566,"4','5','6'",grade,singPic.jpg,old,sing,0,88,88,82,,,,,,,,,,,,,2016_Nov_02_1539,31.9983579,ProdFawcett,SING,sing_subj10
0.836916203,"4','5','6'",space,speakPic.jpg,old,speak,0,89,89,44,,,,,,,,,,,,,2016_Nov_02_1539,31.9983579,ProdFawcett,SING,sing_subj10
,,,,,,,,,,,,,,,,k,277.7627514,,,,,2016_Nov_02_1539,31.9983579,ProdFawcett,SING,sing_subj10
0.686918158,"4','5','6'",principal,singPic.jpg,old,sing,,,,,0,0,0,83,,,,,6,8.594869351,f,6.643210573,2016_Nov_02_1539,31.9983579,ProdFawcett,SING,sing_subj10
0.52317092,"1','2','3'",carry,None,new,None,,,,,0,1,1,143,,,,,2,10.18845388,n,4.674070913,2016_Nov_02_1539,31.9983579,ProdFawcett,SING,sing_subj10
0.176288255,"4','5','6'",husband,singPic.jpg,old,sing,,,,,0,2,2,77,,,,,5,9.219605023,f,1.407013875,2016_Nov_02_1539,31.9983579,ProdFawcett,SING,sing_subj10
0.554570395,"1','2','3'",running,None,new,None,,,,,0,3,3,101,,,,,2,6.39278222,n,1.219010042,2016_Nov_02_1539,31.9983579,ProdFawcett,SING,sing_subj10
0.005998157,"1','2','3'",front,None,new,None,,,,,0,4,4,146,,,,,3,9.705461232,n,1.15696901,2016_Nov_02_1539,31.9983579,ProdFawcett,SING,sing_subj10
0.856389425,"1','2','3'",growth,None,new,None,,,,,0,5,5,178,,,,,5,4.532080006,f,1.000875833,2016_Nov_02_1539,31.9983579,ProdFawcett,SING,sing_subj10
0.57760096,"4','5','6'",agency,readPic.jpg,old,read,,,,,0,6,6,8,,,,,6,5.282442577,r,2.048859381,2016_Nov_02_1539,31.9983579,ProdFawcett,SING,sing_subj10
0.317131739,"4','5','6'",solution,readPic.jpg,old,read,,,,,0,7,7,14,,,,,6,4.688292304,f,1.125703722,2016_Nov_02_1539,31.9983579,ProdFawcett,SING,sing_subj10
0.274772304,"4','5','6'",danger,readPic.jpg,old,read,,,,,0,8,8,21,,,,,3,8.767852161,n,0.906957114,2016_Nov_02_1539,31.9983579,ProdFawcett,SING,sing_subj10
0.096297709,"4','5','6'",leader,readPic.jpg,old,read,,,,,0,9,9,28,,,,,6,2.531951554,r,2.032078295,2016_Nov_02_1539,31.9983579,ProdFawcett,SING,sing_subj10
0.555155321,"1','2','3'",addition,None,new,None,,,,,0,10,10,105,,,,,4,13.68857036,n,2.59452754,2016_Nov_02_1539,31.9983579,ProdFawcett,SING,sing_subj10
0.570169431,"4','5','6'",mankind,readPic.jpg,old,read,,,,,0,11,11,7,,,,,2,3.532671877,n,1.09488257,2016_Nov_02_1539,31.9983579,ProdFawcett,SING,sing_subj10
0.521092736,"1','2','3'",tough,None,new,None,,,,,0,12,12,109,,,,,2,4.986450723,n,0.719445936,2016_Nov_02_1539,31.9983579,ProdFawcett,SING,sing_subj10
0.123391644,"4','5','6'",waste,singPic.jpg,old,sing,,,,,0,13,13,74,,,,,5,2.813233405,f,0.876077179,2016_Nov_02_1539,31.9983579,ProdFawcett,SING,sing_subj10
0.645620904,"1','2','3'",frank,None,new,None,,,,,0,14,14,134,,,,,1,2.705105425,n,12.28216484,2016_Nov_02_1539,31.9983579,ProdFawcett,SING,sing_subj10
0.899692953,"4','5','6'",emergency,singPic.jpg,old,sing,,,,,0,15,15,89,,,,,5,4.626225147,f,0.812658329,2016_Nov_02_1539,31.9983579,ProdFawcett,SING,sing_subj10
0.113843226,"1','2','3'",state,None,new,None,,,,,0,16,16,145,,,,,4,12.76825307,n,0.751044328,2016_Nov_02_1539,31.9983579,ProdFawcett,SING,sing_subj10
0.866880453,"4','5','6'",native,singPic.jpg,old,sing,,,,,0,17,17,81,,,,,6,2.28197698,r,1.250821793,2016_Nov_02_1539,31.9983579,ProdFawcett,SING,sing_subj10
0.102412181,"1','2','3'",trend,None,new,None,,,,,0,18,18,108,,,,,2,6.392907562,n,1.080082682,2016_Nov_02_1539,31.9983579,ProdFawcett,SING,sing_subj10
0.446170151,"1','2','3'",bureau,None,new,None,,,,,0,19,19,124,,,,,1,2.125281357,n,4.736438205,2016_Nov_02_1539,31.9983579,ProdFawcett,SING,sing_subj10
0.783743559,"1','2','3'",column,None,new,None,,,,,0,20,20,149,,,,,1,1.687766058,n,2.469475406,2016_Nov_02_1539,31.9983579,ProdFawcett,SING,sing_subj10
0.976234275,"1','2','3'",report,None,new,None,,,,,0,21,21,174,,,,,3,2.938236087,n,0.344461215,2016_Nov_02_1539,31.9983579,ProdFawcett,SING,sing_subj10
0.659846753,"4','5','6'",crisis,speakPic.jpg,old,speak,,,,,0,22,22,37,,,,,5,3.080181275,f,0.869011115,2016_Nov_02_1539,31.9983579,ProdFawcett,SING,sing_subj10
0.800389957,"4','5','6'",clear,singPic.jpg,old,sing,,,,,0,23,23,84,,,,,2,1.875765537,n,0.219507985,2016_Nov_02_1539,31.9983579,ProdFawcett,SING,sing_subj10
0.645701934,"1','2','3'",suspect,None,new,None,,,,,0,24,24,142,,,,,5,2.39259312,f,3.532137855,2016_Nov_02_1539,31.9983579,ProdFawcett,SING,sing_subj10
0.309500191,"1','2','3'",dance,None,new,None,,,,,0,25,25,139,,,,,1,2.094552266,n,1.063276714,2016_Nov_02_1539,31.9983579,ProdFawcett,SING,sing_subj10
0.322619274,"1','2','3'",business,None,new,None,,,,,0,26,26,107,,,,,1,2.751003273,n,0.657014575,2016_Nov_02_1539,31.9983579,ProdFawcett,SING,sing_subj10
0.483266714,"1','2','3'",individual,None,new,None,,,,,0,27,27,156,,,,,4,2.875764604,f,3.563339696,2016_Nov_02_1539,31.9983579,ProdFawcett,SING,sing_subj10
0.775815169,"1','2','3'",service,None,new,None,,,,,0,28,28,144,,,,,4,9.532441411,n,0.625759239,2016_Nov_02_1539,31.9983579,ProdFawcett,SING,sing_subj10
0.92974511,"4','5','6'",majority,singPic.jpg,old,sing,,,,,0,29,29,71,,,,,6,2.938370448,r,1.594824253,2016_Nov_02_1539,31.9983579,ProdFawcett,SING,sing_subj10
0.27083722,"4','5','6'",citizen,speakPic.jpg,old,speak,,,,,0,30,30,57,,,,,5,2.782070753,f,0.875692136,2016_Nov_02_1539,31.9983579,ProdFawcett,SING,sing_subj10
0.513075827,"4','5','6'",agreement,speakPic.jpg,old,speak,,,,,0,31,31,56,,,,,6,2.423508822,f,1.250690542,2016_Nov_02_1539,31.9983579,ProdFawcett,SING,sing_subj10
0.99928979,"1','2','3'",weather,None,new,None,,,,,0,32,32,159,,,,,4,2.111352946,f,0.532090891,2016_Nov_02_1539,31.9983579,ProdFawcett,SING,sing_subj10
0.449714779,"4','5','6'",account,readPic.jpg,old,read,,,,,0,33,33,1,,,,,4,6.219619019,f,0.96948738,2016_Nov_02_1539,31.9983579,ProdFawcett,SING,sing_subj10
0.79693729,"4','5','6'",position,singPic.jpg,old,sing,,,,,0,34,34,78,,,,,6,1.985886844,f,0.782116162,2016_Nov_02_1539,31.9983579,ProdFawcett,SING,sing_subj10
0.725704205,"1','2','3'",alert,None,new,None,,,,,0,35,35,100,,,,,3,2.500878165,n,0.907050731,2016_Nov_02_1539,31.9983579,ProdFawcett,SING,sing_subj10
0.870485208,"1','2','3'",smooth,None,new,None,,,,,0,36,36,164,,,,,2,8.844638341,n,0.719564435,2016_Nov_02_1539,31.9983579,ProdFawcett,SING,sing_subj10
0.146712131,"1','2','3'",order,None,new,None,,,,,0,37,37,126,,,,,6,2.173845268,f,1.017655985,2016_Nov_02_1539,31.9983579,ProdFawcett,SING,sing_subj10
0.403515755,"4','5','6'",prime,speakPic.jpg,old,speak,,,,,0,38,38,53,,,,,1,2.031962906,n,0.406957891,2016_Nov_02_1539,31.9983579,ProdFawcett,SING,sing_subj10
0.320395904,"4','5','6'",payment,readPic.jpg,old,read,,,,,0,39,39,17,,,,,4,2.67328621,f,1.125222574,2016_Nov_02_1539,31.9983579,ProdFawcett,SING,sing_subj10
0.018978783,"1','2','3'",defeat,None,new,None,,,,,0,40,40,152,,,,,4,3.705238853,n,1.625883025,2016_Nov_02_1539,31.9983579,ProdFawcett,SING,sing_subj10
0.589445839,"1','2','3'",problem,None,new,None,,,,,0,41,41,94,,,,,3,7.924074723,n,1.563269094,2016_Nov_02_1539,31.9983579,ProdFawcett,SING,sing_subj10
0.210076266,"4','5','6'",balance,singPic.jpg,old,sing,,,,,0,42,42,69,,,,,5,2.955164285,f,0.500685644,2016_Nov_02_1539,31.9983579,ProdFawcett,SING,sing_subj10
0.971725832,"1','2','3'",group,None,new,None,,,,,0,43,43,121,,,,,5,3.188280019,f,0.344784365,2016_Nov_02_1539,31.9983579,ProdFawcett,SING,sing_subj10
0.275058346,"1','2','3'",rural,None,new,None,,,,,0,44,44,92,,,,,1,1.594505769,n,0.84445795,2016_Nov_02_1539,31.9983579,ProdFawcett,SING,sing_subj10
0.793065465,"1','2','3'",testimony,None,new,None,,,,,0,45,45,153,,,,,5,5.125729847,n,2.09403815,2016_Nov_02_1539,31.9983579,ProdFawcett,SING,sing_subj10
0.836916203,"4','5','6'",space,speakPic.jpg,old,speak,,,,,0,46,46,44,,,,,5,2.673984761,f,1.469534499,2016_Nov_02_1539,31.9983579,ProdFawcett,SING,sing_subj10
0.449284491,"4','5','6'",gesture,readPic.jpg,old,read,,,,,0,47,47,18,,,,,4,17.71970999,n,0.344436956,2016_Nov_02_1539,31.9983579,ProdFawcett,SING,sing_subj10
0.005393286,"1','2','3'",style,None,new,None,,,,,0,48,48,104,,,,,3,5.361648182,n,0.344467436,2016_Nov_02_1539,31.9983579,ProdFawcett,SING,sing_subj10
0.620752383,"1','2','3'",force,None,new,None,,,,,0,49,49,173,,,,,4,3.330181975,f,0.688341445,2016_Nov_02_1539,31.9983579,ProdFawcett,SING,sing_subj10
0.238513462,"4','5','6'",length,speakPic.jpg,old,speak,,,,,0,50,50,36,,,,,2,2.313395291,n,0.375727437,2016_Nov_02_1539,31.9983579,ProdFawcett,SING,sing_subj10
0.206909627,"1','2','3'",contract,None,new,None,,,,,0,51,51,150,,,,,5,2.080208645,f,0.313259997,2016_Nov_02_1539,31.9983579,ProdFawcett,SING,sing_subj10
0.630630881,"1','2','3'",series,None,new,None,,,,,0,52,52,98,,,,,3,6.469630916,n,0.031980013,2016_Nov_02_1539,31.9983579,ProdFawcett,SING,sing_subj10
0.554664647,"4','5','6'",birth,readPic.jpg,old,read,,,,,0,53,53,15,,,,,1,1.969476805,n,0.500692175,2016_Nov_02_1539,31.9983579,ProdFawcett,SING,sing_subj10
0.362973994,"4','5','6'",military,singPic.jpg,old,sing,,,,,0,54,54,76,,,,,6,2.080236636,r,1.906515465,2016_Nov_02_1539,31.9983579,ProdFawcett,SING,sing_subj10
0.205704175,"4','5','6'",ground,speakPic.jpg,old,speak,,,,,0,55,55,42,,,,,4,4.782593888,n,0.375750141,2016_Nov_02_1539,31.9983579,ProdFawcett,SING,sing_subj10
0.241224849,"1','2','3'",concern,None,new,None,,,,,0,56,56,157,,,,,3,3.126024694,n,0.313504148,2016_Nov_02_1539,31.9983579,ProdFawcett,SING,sing_subj10
0.468340909,"4','5','6'",match,speakPic.jpg,old,speak,,,,,0,57,57,38,,,,,5,3.000782215,f,0.361369819,2016_Nov_02_1539,31.9983579,ProdFawcett,SING,sing_subj10
0.215626409,"4','5','6'",material,singPic.jpg,old,sing,,,,,0,58,58,63,,,,,3,18.75319907,n,0.500877232,2016_Nov_02_1539,31.9983579,ProdFawcett,SING,sing_subj10
0.721215405,"4','5','6'",audience,readPic.jpg,old,read,,,,,0,59,59,13,,,,,4,3.813325467,n,0.656958591,2016_Nov_02_1539,31.9983579,ProdFawcett,SING,sing_subj10
0.608523573,"4','5','6'",victory,singPic.jpg,old,sing,,,,,0,60,60,61,,,,,6,1.594642618,r,0.813229361,2016_Nov_02_1539,31.9983579,ProdFawcett,SING,sing_subj10
0.943874169,"4','5','6'",guide,speakPic.jpg,old,speak,,,,,0,61,61,32,,,,,5,5.236454222,f,0.406966289,2016_Nov_02_1539,31.9983579,ProdFawcett,SING,sing_subj10
0.372845001,"1','2','3'",accident,None,new,None,,,,,0,62,62,93,,,,,2,3.81337834,n,0.375685449,2016_Nov_02_1539,31.9983579,ProdFawcett,SING,sing_subj10
0.329859046,"1','2','3'",object,None,new,None,,,,,0,63,63,155,,,,,4,2.907246051,n,0.344512534,2016_Nov_02_1539,31.9983579,ProdFawcett,SING,sing_subj10
0.735251572,"1','2','3'",empty,None,new,None,,,,,0,64,64,171,,,,,3,11.11165121,n,0.031965084,2016_Nov_02_1539,31.9983579,ProdFawcett,SING,sing_subj10
0.810911242,"4','5','6'",surface,readPic.jpg,old,read,,,,,0,65,65,29,,,,,4,3.580208178,f,0.59456393,2016_Nov_02_1539,31.9983579,ProdFawcett,SING,sing_subj10
0.019591118,"1','2','3'",country,None,new,None,,,,,0,66,66,133,,,,,6,2.267885596,f,0.844490296,2016_Nov_02_1539,31.9983579,ProdFawcett,SING,sing_subj10
0.820481651,"1','2','3'",generation,None,new,None,,,,,0,67,67,115,,,,,2,4.298955564,n,0.782125803,2016_Nov_02_1539,31.9983579,ProdFawcett,SING,sing_subj10
0.349396666,"1','2','3'",enemy,None,new,None,,,,,0,68,68,125,,,,,5,4.563372975,f,0.344654048,2016_Nov_02_1539,31.9983579,ProdFawcett,SING,sing_subj10
0.677728985,"1','2','3'",power,None,new,None,,,,,0,69,69,166,,,,,2,4.500858882,n,0.126052686,2016_Nov_02_1539,31.9983579,ProdFawcett,SING,sing_subj10
0.272364987,"1','2','3'",course,None,new,None,,,,,0,70,70,90,,,,,5,1.657151424,f,0.219801277,2016_Nov_02_1539,31.9983579,ProdFawcett,SING,sing_subj10
0.693235196,"4','5','6'",colonel,singPic.jpg,old,sing,,,,,0,71,71,72,,,,,6,1.330175443,r,0.782434646,2016_Nov_02_1539,31.9983579,ProdFawcett,SING,sing_subj10
0.695445529,"4','5','6'",general,singPic.jpg,old,sing,,,,,0,72,72,68,,,,,6,1.782022545,f,0.719540176,2016_Nov_02_1539,31.9983579,ProdFawcett,SING,sing_subj10
0.315253929,"4','5','6'",threat,singPic.jpg,old,sing,,,,,0,73,73,66,,,,,6,2.500313042,f,0.344978753,2016_Nov_02_1539,31.9983579,ProdFawcett,SING,sing_subj10
0.84464476,"1','2','3'",shear,None,new,None,,,,,0,74,74,131,,,,,1,2.844852012,n,0.375766936,2016_Nov_02_1539,31.9983579,ProdFawcett,SING,sing_subj10
0.610451412,"1','2','3'",drove,None,new,None,,,,,0,75,75,91,,,,,1,3.642670642,n,0.094107508,2016_Nov_02_1539,31.9983579,ProdFawcett,SING,sing_subj10
0.250904118,"4','5','6'",crime,speakPic.jpg,old,speak,,,,,0,76,76,48,,,,,5,1.625747109,f,0.344520309,2016_Nov_02_1539,31.9983579,ProdFawcett,SING,sing_subj10
0.29817259,"4','5','6'",sound,readPic.jpg,old,read,,,,,0,77,77,11,,,,,2,2.59461587,n,0.313193128,2016_Nov_02_1539,31.9983579,ProdFawcett,SING,sing_subj10
0.938183688,"4','5','6'",detective,singPic.jpg,old,sing,,,,,0,78,78,64,,,,,3,5.205432774,n,0.063222597,2016_Nov_02_1539,31.9983579,ProdFawcett,SING,sing_subj10
0.922375367,"4','5','6'",congress,readPic.jpg,old,read,,,,,0,79,79,16,,,,,3,1.750809507,n,0.094415418,2016_Nov_02_1539,31.9983579,ProdFawcett,SING,sing_subj10
0.833607695,"4','5','6'",range,singPic.jpg,old,sing,,,,,0,80,80,67,,,,,6,1.969611477,f,0.587690387,2016_Nov_02_1539,31.9983579,ProdFawcett,SING,sing_subj10
0.643506904,"4','5','6'",republic,singPic.jpg,old,sing,,,,,0,81,81,88,,,,,4,2.938274654,f,0.594759872,2016_Nov_02_1539,31.9983579,ProdFawcett,SING,sing_subj10
0.055624587,"4','5','6'",minor,singPic.jpg,old,sing,,,,,0,82,82,80,,,,,6,1.7364183,r,0.406990548,2016_Nov_02_1539,31.9983579,ProdFawcett,SING,sing_subj10
0.141700745,"4','5','6'",discovery,readPic.jpg,old,read,,,,,0,83,83,19,,,,,4,6.594102065,f,0.563278114,2016_Nov_02_1539,31.9983579,ProdFawcett,SING,sing_subj10
0.483097207,"1','2','3'",meeting,None,new,None,,,,,0,84,84,165,,,,,1,1.438225668,n,0.250676546,2016_Nov_02_1539,31.9983579,ProdFawcett,SING,sing_subj10
0.613687613,"4','5','6'",breath,singPic.jpg,old,sing,,,,,0,85,85,73,,,,,6,2.344598375,r,0.719568167,2016_Nov_02_1539,31.9983579,ProdFawcett,SING,sing_subj10
0.696132687,"1','2','3'",command,None,new,None,,,,,0,86,86,122,,,,,5,1.906912016,f,0.406994592,2016_Nov_02_1539,31.9983579,ProdFawcett,SING,sing_subj10
0.469398047,"4','5','6'",heavy,singPic.jpg,old,sing,,,,,0,87,87,62,,,,,2,1.81276252,n,0.344457483,2016_Nov_02_1539,31.9983579,ProdFawcett,SING,sing_subj10
0.938238052,"4','5','6'",signal,speakPic.jpg,old,speak,,,,,0,88,88,34,,,,,5,5.306626873,f,0.375683583,2016_Nov_02_1539,31.9983579,ProdFawcett,SING,sing_subj10
0.440851717,"1','2','3'",weight,None,new,None,,,,,0,89,89,135,,,,,2,4.111534582,n,0.688230722,2016_Nov_02_1539,31.9983579,ProdFawcett,SING,sing_subj10
0.928976496,"1','2','3'",background,None,new,None,,,,,0,90,90,119,,,,,1,1.344506624,n,0.438306533,2016_Nov_02_1539,31.9983579,ProdFawcett,SING,sing_subj10
0.884129346,"4','5','6'",conference,singPic.jpg,old,sing,,,,,0,91,91,85,,,,,5,2.75103593,f,0.313316292,2016_Nov_02_1539,31.9983579,ProdFawcett,SING,sing_subj10
0.194318315,"4','5','6'",government,speakPic.jpg,old,speak,,,,,0,92,92,31,,,,,6,2.455096017,f,0.282189407,2016_Nov_02_1539,31.9983579,ProdFawcett,SING,sing_subj10
0.945868219,"4','5','6'",count,readPic.jpg,old,read,,,,,0,93,93,9,,,,,1,2.68835202,n,1.156962168,2016_Nov_02_1539,31.9983579,ProdFawcett,SING,sing_subj10
0.264229828,"4','5','6'",subject,speakPic.jpg,old,speak,,,,,0,94,94,39,,,,,4,3.032721173,f,0.986401893,2016_Nov_02_1539,31.9983579,ProdFawcett,SING,sing_subj10
0.208680987,"1','2','3'",plane,None,new,None,,,,,0,95,95,112,,,,,5,2.656544001,f,0.360868766,2016_Nov_02_1539,31.9983579,ProdFawcett,SING,sing_subj10
0.574103289,"4','5','6'",century,speakPic.jpg,old,speak,,,,,0,96,96,30,,,,,5,3.969849096,f,0.188315164,2016_Nov_02_1539,31.9983579,ProdFawcett,SING,sing_subj10
0.716400385,"1','2','3'",express,None,new,None,,,,,0,97,97,176,,,,,2,1.375934265,n,0.156502169,2016_Nov_02_1539,31.9983579,ProdFawcett,SING,sing_subj10
0.180972549,"4','5','6'",tragedy,speakPic.jpg,old,speak,,,,,0,98,98,40,,,,,2,1.455111568,n,0.157076001,2016_Nov_02_1539,31.9983579,ProdFawcett,SING,sing_subj10
0.275558722,"4','5','6'",community,readPic.jpg,old,read,,,,,0,99,99,12,,,,,4,1.62572907,f,0.125819421,2016_Nov_02_1539,31.9983579,ProdFawcett,SING,sing_subj10
0.241525414,"1','2','3'",finance,None,new,None,,,,,0,100,100,169,,,,,1,1.750797689,n,0.375875172,2016_Nov_02_1539,31.9983579,ProdFawcett,SING,sing_subj10
0.330759604,"1','2','3'",primary,None,new,None,,,,,0,101,101,128,,,,,2,4.688374724,n,0.09454418,2016_Nov_02_1539,31.9983579,ProdFawcett,SING,sing_subj10
0.200478302,"4','5','6'",quantity,readPic.jpg,old,read,,,,,0,102,102,3,,,,,4,3.344506313,f,0.469762788,2016_Nov_02_1539,31.9983579,ProdFawcett,SING,sing_subj10
0.459513605,"4','5','6'",atmosphere,readPic.jpg,old,read,,,,,0,103,103,27,,,,,6,4.594630488,f,0.156951904,2016_Nov_02_1539,31.9983579,ProdFawcett,SING,sing_subj10
0.415525369,"1','2','3'",fashion,None,new,None,,,,,0,104,104,160,,,,,1,1.344430735,n,2.219647011,2016_Nov_02_1539,31.9983579,ProdFawcett,SING,sing_subj10
0.562618816,"4','5','6'",corner,readPic.jpg,old,read,,,,,0,105,105,2,,,,,4,2.500776151,f,0.313287989,2016_Nov_02_1539,31.9983579,ProdFawcett,SING,sing_subj10
0.178026415,"4','5','6'",science,speakPic.jpg,old,speak,,,,,0,106,106,33,,,,,5,2.500824048,f,0.156974609,2016_Nov_02_1539,31.9983579,ProdFawcett,SING,sing_subj10
0.298918506,"4','5','6'",instrument,speakPic.jpg,old,speak,,,,,0,107,107,45,,,,,3,2.111509079,n,0.907042644,2016_Nov_02_1539,31.9983579,ProdFawcett,SING,sing_subj10
0.315864734,"4','5','6'",welcome,speakPic.jpg,old,speak,,,,,0,108,108,46,,,,,5,8.657384689,f,0.18849089,2016_Nov_02_1539,31.9983579,ProdFawcett,SING,sing_subj10
0.92943882,"1','2','3'",drama,None,new,None,,,,,0,109,109,175,,,,,1,1.313310071,n,0.375715307,2016_Nov_02_1539,31.9983579,ProdFawcett,SING,sing_subj10
0.012382539,"1','2','3'",revolution,None,new,None,,,,,0,110,110,103,,,,,6,1.782016946,f,0.375869262,2016_Nov_02_1539,31.9983579,ProdFawcett,SING,sing_subj10
0.207141756,"1','2','3'",cousin,None,new,None,,,,,0,111,111,148,,,,,3,7.969062838,n,0.125736068,2016_Nov_02_1539,31.9983579,ProdFawcett,SING,sing_subj10
0.592890082,"1','2','3'",break,None,new,None,,,,,0,112,112,138,,,,,4,2.06318092,n,1.017697351,2016_Nov_02_1539,31.9983579,ProdFawcett,SING,sing_subj10
0.554571106,"4','5','6'",quiet,speakPic.jpg,old,speak,,,,,0,113,113,52,,,,,5,2.969659685,f,0.156982073,2016_Nov_02_1539,31.9983579,ProdFawcett,SING,sing_subj10
0.009803746,"4','5','6'",mayor,singPic.jpg,old,sing,,,,,0,114,114,65,,,,,4,10.33153336,f,0.906847946,2016_Nov_02_1539,31.9983579,ProdFawcett,SING,sing_subj10
0.078181295,"4','5','6'",private,speakPic.jpg,old,speak,,,,,0,115,115,54,,,,,5,1.455100371,f,2.003217191,2016_Nov_02_1539,31.9983579,ProdFawcett,SING,sing_subj10
0.315203873,"4','5','6'",speech,readPic.jpg,old,read,,,,,0,116,116,10,,,,,5,1.500710525,f,0.344738334,2016_Nov_02_1539,31.9983579,ProdFawcett,SING,sing_subj10
0.482596032,"1','2','3'",personnel,None,new,None,,,,,0,117,117,118,,,,,1,1.344499471,n,0.657082066,2016_Nov_02_1539,31.9983579,ProdFawcett,SING,sing_subj10
0.506371349,"4','5','6'",escape,speakPic.jpg,old,speak,,,,,0,118,118,55,,,,,4,2.843837465,n,0.282043849,2016_Nov_02_1539,31.9983579,ProdFawcett,SING,sing_subj10
0.920292864,"4','5','6'",cross,speakPic.jpg,old,speak,,,,,0,119,119,49,,,,,5,2.580252654,f,0.156499059,2016_Nov_02_1539,31.9983579,ProdFawcett,SING,sing_subj10
0.064911318,"1','2','3'",employment,None,new,None,,,,,0,120,120,123,,,,,3,12.36152222,n,0.000765731,2016_Nov_02_1539,31.9983579,ProdFawcett,SING,sing_subj10
0.966896788,"1','2','3'",health,None,new,None,,,,,0,121,121,106,,,,,2,4.236404148,n,0.83016378,2016_Nov_02_1539,31.9983579,ProdFawcett,SING,sing_subj10
0.081657402,"4','5','6'",under,singPic.jpg,old,sing,,,,,0,122,122,87,,,,,2,1.313226096,n,2.125856122,2016_Nov_02_1539,31.9983579,ProdFawcett,SING,sing_subj10
0.22722245,"1','2','3'",comfort,None,new,None,,,,,0,123,123,177,,,,,3,1.563376396,n,0.063256187,2016_Nov_02_1539,31.9983579,ProdFawcett,SING,sing_subj10
0.799133296,"4','5','6'",travel,singPic.jpg,old,sing,,,,,0,124,124,86,,,,,4,3.705336202,n,0.063181231,2016_Nov_02_1539,31.9983579,ProdFawcett,SING,sing_subj10
0.375232665,"4','5','6'",sight,speakPic.jpg,old,speak,,,,,0,125,125,35,,,,,2,3.282173856,n,0.469786115,2016_Nov_02_1539,31.9983579,ProdFawcett,SING,sing_subj10
0.299824213,"4','5','6'",quarter,speakPic.jpg,old,speak,,,,,0,126,126,58,,,,,6,4.705218636,r,0.563449175,2016_Nov_02_1539,31.9983579,ProdFawcett,SING,sing_subj10
0.78445573,"1','2','3'",little,None,new,None,,,,,0,127,127,161,,,,,2,12.03219524,n,0.031957308,2016_Nov_02_1539,31.9983579,ProdFawcett,SING,sing_subj10
0.526067484,"4','5','6'",poetry,speakPic.jpg,old,speak,,,,,0,128,128,43,,,,,2,1.267787313,n,0.094454606,2016_Nov_02_1539,31.9983579,ProdFawcett,SING,sing_subj10
0.030331448,"1','2','3'",impact,None,new,None,,,,,0,129,129,132,,,,,4,2.219883075,f,0.34447801,2016_Nov_02_1539,31.9983579,ProdFawcett,SING,sing_subj10
0.735264551,"4','5','6'",listen,readPic.jpg,old,read,,,,,0,130,130,6,,,,,2,3.969607745,n,0.219540642,2016_Nov_02_1539,31.9983579,ProdFawcett,SING,sing_subj10
0.256480144,"4','5','6'",expansion,readPic.jpg,old,read,,,,,0,131,131,0,,,,,1,1.361324721,n,0.469495,2016_Nov_02_1539,31.9983579,ProdFawcett,SING,sing_subj10
0.080279339,"4','5','6'",nature,readPic.jpg,old,read,,,,,0,132,132,5,,,,,4,2.438320529,n,1.782004816,2016_Nov_02_1539,31.9983579,ProdFawcett,SING,sing_subj10
0.582042775,"1','2','3'",graduate,None,new,None,,,,,0,133,133,172,,,,,2,2.782403233,n,0.594500482,2016_Nov_02_1539,31.9983579,ProdFawcett,SING,sing_subj10
0.462657114,"4','5','6'",research,speakPic.jpg,old,speak,,,,,0,134,134,47,,,,,4,2.469490024,f,1.094520231,2016_Nov_02_1539,31.9983579,ProdFawcett,SING,sing_subj10
0.20538579,"1','2','3'",author,None,new,None,,,,,0,135,135,102,,,,,3,7.5634781,n,0.188464765,2016_Nov_02_1539,31.9983579,ProdFawcett,SING,sing_subj10
0.838759281,"1','2','3'",territory,None,new,None,,,,,0,136,136,147,,,,,4,2.031515349,n,0.406991792,2016_Nov_02_1539,31.9983579,ProdFawcett,SING,sing_subj10
0.880575524,"1','2','3'",marriage,None,new,None,,,,,0,137,137,163,,,,,5,3.330243868,f,0.813206657,2016_Nov_02_1539,31.9983579,ProdFawcett,SING,sing_subj10
0.508103012,"1','2','3'",edition,None,new,None,,,,,0,138,138,113,,,,,1,1.375743299,n,0.219502698,2016_Nov_02_1539,31.9983579,ProdFawcett,SING,sing_subj10
0.289641587,"1','2','3'",broke,None,new,None,,,,,0,139,139,95,,,,,4,3.219695219,f,0.469680368,2016_Nov_02_1539,31.9983579,ProdFawcett,SING,sing_subj10
0.295754206,"4','5','6'",company,speakPic.jpg,old,speak,,,,,0,140,140,59,,,,,5,1.844435867,f,0.344440688,2016_Nov_02_1539,31.9983579,ProdFawcett,SING,sing_subj10
0.194216355,"1','2','3'",income,None,new,None,,,,,0,141,141,130,,,,,4,5.392872105,n,0.063329588,2016_Nov_02_1539,31.9983579,ProdFawcett,SING,sing_subj10
0.973274528,"4','5','6'",comedy,speakPic.jpg,old,speak,,,,,0,142,142,51,,,,,4,1.500705238,n,0.125198003,2016_Nov_02_1539,31.9983579,ProdFawcett,SING,sing_subj10
0.547967891,"1','2','3'",incident,None,new,None,,,,,0,143,143,116,,,,,2,2.344620147,n,0.313296386,2016_Nov_02_1539,31.9983579,ProdFawcett,SING,sing_subj10
0.01869214,"4','5','6'",drink,readPic.jpg,old,read,,,,,0,144,144,23,,,,,3,4.706417929,n,0.7194195,2016_Nov_02_1539,31.9983579,ProdFawcett,SING,sing_subj10
0.586697623,"4','5','6'",salary,readPic.jpg,old,read,,,,,0,145,145,24,,,,,5,1.392697623,f,0.344481121,2016_Nov_02_1539,31.9983579,ProdFawcett,SING,sing_subj10
0.057611153,"1','2','3'",crowd,None,new,None,,,,,0,146,146,140,,,,,2,2.125798272,n,0.094648683,2016_Nov_02_1539,31.9983579,ProdFawcett,SING,sing_subj10
0.84816294,"1','2','3'",pretty,None,new,None,,,,,0,147,147,141,,,,,1,1.375705044,n,0.375703488,2016_Nov_02_1539,31.9983579,ProdFawcett,SING,sing_subj10
0.8547566,"4','5','6'",grade,singPic.jpg,old,sing,,,,,0,148,148,82,,,,,1,7.281563946,n,0.000753602,2016_Nov_02_1539,31.9983579,ProdFawcett,SING,sing_subj10
0.632363365,"4','5','6'",degree,readPic.jpg,old,read,,,,,0,149,149,26,,,,,4,1.969466853,f,0.438316175,2016_Nov_02_1539,31.9983579,ProdFawcett,SING,sing_subj10
0.349850155,"4','5','6'",religion,singPic.jpg,old,sing,,,,,0,150,150,79,,,,,5,1.469679746,f,0.344512223,2016_Nov_02_1539,31.9983579,ProdFawcett,SING,sing_subj10
0.716224886,"1','2','3'",answer,None,new,None,,,,,0,151,151,110,,,,,3,2.96952719,n,0.063481365,2016_Nov_02_1539,31.9983579,ProdFawcett,SING,sing_subj10
0.47965619,"1','2','3'",place,None,new,None,,,,,0,152,152,162,,,,,2,1.375970344,n,0.000753602,2016_Nov_02_1539,31.9983579,ProdFawcett,SING,sing_subj10
0.068179239,"4','5','6'",interview,singPic.jpg,old,sing,,,,,0,153,153,75,,,,,3,3.094635931,n,1.157005711,2016_Nov_02_1539,31.9983579,ProdFawcett,SING,sing_subj10
0.793402924,"1','2','3'",bright,None,new,None,,,,,0,154,154,137,,,,,1,1.250740616,n,0.000767597,2016_Nov_02_1539,31.9983579,ProdFawcett,SING,sing_subj10
0.53630809,"1','2','3'",trail,None,new,None,,,,,0,155,155,168,,,,,5,1.642135065,f,0.125232215,2016_Nov_02_1539,31.9983579,ProdFawcett,SING,sing_subj10
0.175154356,"1','2','3'",attack,None,new,None,,,,,0,156,156,170,,,,,1,1.157043966,n,0.094466736,2016_Nov_02_1539,31.9983579,ProdFawcett,SING,sing_subj10
0.867819506,"1','2','3'",swift,None,new,None,,,,,0,157,157,179,,,,,1,1.188211594,n,0.063226018,2016_Nov_02_1539,31.9983579,ProdFawcett,SING,sing_subj10
0.627794185,"4','5','6'",nation,readPic.jpg,old,read,,,,,0,158,158,25,,,,,6,1.563632055,f,0.1883077,2016_Nov_02_1539,31.9983579,ProdFawcett,SING,sing_subj10
0.511423027,"4','5','6'",search,speakPic.jpg,old,speak,,,,,0,159,159,50,,,,,4,3.361573537,f,0.438389576,2016_Nov_02_1539,31.9983579,ProdFawcett,SING,sing_subj10
0.787969461,"4','5','6'",staff,readPic.jpg,old,read,,,,,0,160,160,22,,,,,2,1.281886162,n,0.1570026,2016_Nov_02_1539,31.9983579,ProdFawcett,SING,sing_subj10
0.646403985,"1','2','3'",music,None,new,None,,,,,0,161,161,136,,,,,5,3.000261879,f,0.244069548,2016_Nov_02_1539,31.9983579,ProdFawcett,SING,sing_subj10
0.17877914,"1','2','3'",brief,None,new,None,,,,,0,162,162,111,,,,,4,2.594868729,n,0.188307389,2016_Nov_02_1539,31.9983579,ProdFawcett,SING,sing_subj10
0.080883084,"4','5','6'",opening,readPic.jpg,old,read,,,,,0,163,163,20,,,,,3,7.907205619,n,0.18822559,2016_Nov_02_1539,31.9983579,ProdFawcett,SING,sing_subj10
0.109890898,"4','5','6'",industry,singPic.jpg,old,sing,,,,,0,164,164,60,,,,,5,1.875738789,f,0.094551022,2016_Nov_02_1539,31.9983579,ProdFawcett,SING,sing_subj10
0.330271578,"1','2','3'",surprise,None,new,None,,,,,0,165,165,114,,,,,3,5.500947522,n,0.156486307,2016_Nov_02_1539,31.9983579,ProdFawcett,SING,sing_subj10
0.069349558,"1','2','3'",scale,None,new,None,,,,,0,166,166,151,,,,,2,1.95531513,n,0.125723005,2016_Nov_02_1539,31.9983579,ProdFawcett,SING,sing_subj10
0.205760001,"1','2','3'",relation,None,new,None,,,,,0,167,167,127,,,,,4,2.21955526,n,1.094456783,2016_Nov_02_1539,31.9983579,ProdFawcett,SING,sing_subj10
0.889564645,"4','5','6'",captain,readPic.jpg,old,read,,,,,0,168,168,4,,,,,5,2.111376895,f,0.236435561,2016_Nov_02_1539,31.9983579,ProdFawcett,SING,sing_subj10
0.683376332,"1','2','3'",career,None,new,None,,,,,0,169,169,158,,,,,4,2.205108691,f,0.094433146,2016_Nov_02_1539,31.9983579,ProdFawcett,SING,sing_subj10
0.765664811,"1','2','3'",damage,None,new,None,,,,,0,170,170,99,,,,,3,1.875827741,n,0.156971187,2016_Nov_02_1539,31.9983579,ProdFawcett,SING,sing_subj10
0.579158459,"1','2','3'",treatment,None,new,None,,,,,0,171,171,167,,,,,2,1.455327726,n,0.094489752,2016_Nov_02_1539,31.9983579,ProdFawcett,SING,sing_subj10
0.42434941,"1','2','3'",article,None,new,None,,,,,0,172,172,117,,,,,1,2.313472735,n,0.125738867,2016_Nov_02_1539,31.9983579,ProdFawcett,SING,sing_subj10
0.960489537,"1','2','3'",chief,None,new,None,,,,,0,173,173,120,,,,,2,2.188256381,n,1.360860679,2016_Nov_02_1539,31.9983579,ProdFawcett,SING,sing_subj10
0.557000117,"1','2','3'",stand,None,new,None,,,,,0,174,174,96,,,,,3,1.861268893,n,0.188195732,2016_Nov_02_1539,31.9983579,ProdFawcett,SING,sing_subj10
0.91524639,"1','2','3'",candidate,None,new,None,,,,,0,175,175,129,,,,,1,1.532314204,n,0.313236981,2016_Nov_02_1539,31.9983579,ProdFawcett,SING,sing_subj10
0.482010164,"4','5','6'",harmony,singPic.jpg,old,sing,,,,,0,176,176,70,,,,,6,3.392833539,r,0.594701712,2016_Nov_02_1539,31.9983579,ProdFawcett,SING,sing_subj10
0.305009442,"4','5','6'",universal,speakPic.jpg,old,speak,,,,,0,177,177,41,,,,,5,2.188580775,f,0.188249539,2016_Nov_02_1539,31.9983579,ProdFawcett,SING,sing_subj10
0.047173656,"1','2','3'",appeal,None,new,None,,,,,0,178,178,154,,,,,3,1.750745748,n,0.094427547,2016_Nov_02_1539,31.9983579,ProdFawcett,SING,sing_subj10
0.752630551,"1','2','3'",right,None,new,None,,,,,0,179,179,97,,,,,3,1.736506318,n,0.500761222,2016_Nov_02_1539,31.9983579,ProdFawcett,SING,sing_subj10
RAND,corrAns,words,studyPic,oldNew,condition,StudyTrials.thisRepN,StudyTrials.thisTrialN,StudyTrials.thisN,StudyTrials.thisIndex,TestTrials.thisRepN,TestTrials.thisTrialN,TestTrials.thisN,TestTrials.thisIndex,kPress.keys,kPress.rt,kPress2.keys,kPress2.rt,keyConf.keys,keyConf.rt,keyRKN.keys,keyRKN.rt,date,frameRate,expName,SING,participant
,,,,,,,,,,,,,,space,1531.733873,,,,,,,2016_Nov_02_1828,31.99469611,ProdFawcett,SING,sing_subj12
0.487676169,"4','5','6'",drink,readPic.jpg,old,read,0,0,0,1,,,,,,,,,,,,,2016_Nov_02_1828,31.99469611,ProdFawcett,SING,sing_subj12
0.285804103,"4','5','6'",debate,speakPic.jpg,old,speak,0,1,1,47,,,,,,,,,,,,,2016_Nov_02_1828,31.99469611,ProdFawcett,SING,sing_subj12
0.112078913,"4','5','6'",bureau,speakPic.jpg,old,speak,0,2,2,38,,,,,,,,,,,,,2016_Nov_02_1828,31.99469611,ProdFawcett,SING,sing_subj12
0.080707256,"4','5','6'",tragedy,readPic.jpg,old,read,0,3,3,8,,,,,,,,,,,,,2016_Nov_02_1828,31.99469611,ProdFawcett,SING,sing_subj12
0.256779461,"4','5','6'",shear,speakPic.jpg,old,speak,0,4,4,54,,,,,,,,,,,,,2016_Nov_02_1828,31.99469611,ProdFawcett,SING,sing_subj12
0.368397933,"4','5','6'",crowd,singPic.jpg,old,sing,0,5,5,66,,,,,,,,,,,,,2016_Nov_02_1828,31.99469611,ProdFawcett,SING,sing_subj12
0.397890441,"4','5','6'",search,singPic.jpg,old,sing,0,6,6,60,,,,,,,,,,,,,2016_Nov_02_1828,31.99469611,ProdFawcett,SING,sing_subj12
0.920018288,"4','5','6'",partner,speakPic.jpg,old,speak,0,7,7,51,,,,,,,,,,,,,2016_Nov_02_1828,31.99469611,ProdFawcett,SING,sing_subj12
0.291667472,"4','5','6'",problem,singPic.jpg,old,sing,0,8,8,74,,,,,,,,,,,,,2016_Nov_02_1828,31.99469611,ProdFawcett,SING,sing_subj12
0.878710437,"4','5','6'",stand,speakPic.jpg,old,speak,0,9,9,57,,,,,,,,,,,,,2016_Nov_02_1828,31.99469611,ProdFawcett,SING,sing_subj12
0.85310357,"4','5','6'",employment,speakPic.jpg,old,speak,0,10,10,40,,,,,,,,,,,,,2016_Nov_02_1828,31.99469611,ProdFawcett,SING,sing_subj12
0.712272057,"4','5','6'",entrance,readPic.jpg,old,read,0,11,11,5,,,,,,,,,,,,,2016_Nov_02_1828,31.99469611,ProdFawcett,SING,sing_subj12
0.262014952,"4','5','6'",empty,singPic.jpg,old,sing,0,12,12,82,,,,,,,,,,,,,2016_Nov_02_1828,31.99469611,ProdFawcett,SING,sing_subj12
0.777642832,"4','5','6'",brilliant,readPic.jpg,old,read,0,13,13,29,,,,,,,,,,,,,2016_Nov_02_1828,31.99469611,ProdFawcett,SING,sing_subj12
0.741480595,"4','5','6'",thing,speakPic.jpg,old,speak,0,14,14,52,,,,,,,,,,,,,2016_Nov_02_1828,31.99469611,ProdFawcett,SING,sing_subj12
0.936912956,"4','5','6'",revolution,singPic.jpg,old,sing,0,15,15,77,,,,,,,,,,,,,2016_Nov_02_1828,31.99469611,ProdFawcett,SING,sing_subj12
0.717067942,"4','5','6'",candidate,readPic.jpg,old,read,0,16,16,17,,,,,,,,,,,,,2016_Nov_02_1828,31.99469611,ProdFawcett,SING,sing_subj12
0.585337919,"4','5','6'",individual,speakPic.jpg,old,speak,0,17,17,49,,,,,,,,,,,,,2016_Nov_02_1828,31.99469611,ProdFawcett,SING,sing_subj12
0.72712255,"4','5','6'",piece,singPic.jpg,old,sing,0,18,18,69,,,,,,,,,,,,,2016_Nov_02_1828,31.99469611,ProdFawcett,SING,sing_subj12
0.399973262,"4','5','6'",guest,singPic.jpg,old,sing,0,19,19,89,,,,,,,,,,,,,2016_Nov_02_1828,31.99469611,ProdFawcett,SING,sing_subj12
0.84943039,"4','5','6'",solution,singPic.jpg,old,sing,0,20,20,64,,,,,,,,,,,,,2016_Nov_02_1828,31.99469611,ProdFawcett,SING,sing_subj12
0.340478545,"4','5','6'",appearance,singPic.jpg,old,sing,0,21,21,79,,,,,,,,,,,,,2016_Nov_02_1828,31.99469611,ProdFawcett,SING,sing_subj12
0.489872069,"4','5','6'",article,singPic.jpg,old,sing,0,22,22,73,,,,,,,,,,,,,2016_Nov_02_1828,31.99469611,ProdFawcett,SING,sing_subj12
0.378046762,"4','5','6'",present,readPic.jpg,old,read,0,23,23,26,,,,,,,,,,,,,2016_Nov_02_1828,31.99469611,ProdFawcett,SING,sing_subj12
0.26258735,"4','5','6'",sleep,readPic.jpg,old,read,0,24,24,27,,,,,,,,,,,,,2016_Nov_02_1828,31.99469611,ProdFawcett,SING,sing_subj12
0.062986154,"4','5','6'",length,singPic.jpg,old,sing,0,25,25,72,,,,,,,,,,,,,2016_Nov_02_1828,31.99469611,ProdFawcett,SING,sing_subj12
0.510563186,"4','5','6'",position,speakPic.jpg,old,speak,0,26,26,46,,,,,,,,,,,,,2016_Nov_02_1828,31.99469611,ProdFawcett,SING,sing_subj12
0.638496378,"4','5','6'",level,singPic.jpg,old,sing,0,27,27,78,,,,,,,,,,,,,2016_Nov_02_1828,31.99469611,ProdFawcett,SING,sing_subj12
0.437763365,"4','5','6'",count,speakPic.jpg,old,speak,0,28,28,34,,,,,,,,,,,,,2016_Nov_02_1828,31.99469611,ProdFawcett,SING,sing_subj12
0.227101022,"4','5','6'",bright,singPic.jpg,old,sing,0,29,29,81,,,,,,,,,,,,,2016_Nov_02_1828,31.99469611,ProdFawcett,SING,sing_subj12
0.4923002,"4','5','6'",background,singPic.jpg,old,sing,0,30,30,88,,,,,,,,,,,,,2016_Nov_02_1828,31.99469611,ProdFawcett,SING,sing_subj12
0.041625086,"4','5','6'",victory,speakPic.jpg,old,speak,0,31,31,30,,,,,,,,,,,,,2016_Nov_02_1828,31.99469611,ProdFawcett,SING,sing_subj12
0.558796246,"4','5','6'",mayor,speakPic.jpg,old,speak,0,32,32,44,,,,,,,,,,,,,2016_Nov_02_1828,31.99469611,ProdFawcett,SING,sing_subj12
0.423082039,"4','5','6'",waste,readPic.jpg,old,read,0,33,33,20,,,,,,,,,,,,,2016_Nov_02_1828,31.99469611,ProdFawcett,SING,sing_subj12
0.634494714,"4','5','6'",resistance,readPic.jpg,old,read,0,34,34,23,,,,,,,,,,,,,2016_Nov_02_1828,31.99469611,ProdFawcett,SING,sing_subj12
0.30639417,"4','5','6'",finish,speakPic.jpg,old,speak,0,35,35,39,,,,,,,,,,,,,2016_Nov_02_1828,31.99469611,ProdFawcett,SING,sing_subj12
0.938331619,"4','5','6'",concern,readPic.jpg,old,read,0,36,36,16,,,,,,,,,,,,,2016_Nov_02_1828,31.99469611,ProdFawcett,SING,sing_subj12
0.928969978,"4','5','6'",machinery,singPic.jpg,old,sing,0,37,37,87,,,,,,,,,,,,,2016_Nov_02_1828,31.99469611,ProdFawcett,SING,sing_subj12
0.062577447,"4','5','6'",marriage,speakPic.jpg,old,speak,0,38,38,32,,,,,,,,,,,,,2016_Nov_02_1828,31.99469611,ProdFawcett,SING,sing_subj12
0.298419939,"4','5','6'",raise,readPic.jpg,old,read,0,39,39,6,,,,,,,,,,,,,2016_Nov_02_1828,31.99469611,ProdFawcett,SING,sing_subj12
0.694637576,"4','5','6'",judge,speakPic.jpg,old,speak,0,40,40,36,,,,,,,,,,,,,2016_Nov_02_1828,31.99469611,ProdFawcett,SING,sing_subj12
0.849096602,"4','5','6'",throw,singPic.jpg,old,sing,0,41,41,65,,,,,,,,,,,,,2016_Nov_02_1828,31.99469611,ProdFawcett,SING,sing_subj12
0.294970774,"4','5','6'",south,speakPic.jpg,old,speak,0,42,42,50,,,,,,,,,,,,,2016_Nov_02_1828,31.99469611,ProdFawcett,SING,sing_subj12
0.8285085,"4','5','6'",science,speakPic.jpg,old,speak,0,43,43,58,,,,,,,,,,,,,2016_Nov_02_1828,31.99469611,ProdFawcett,SING,sing_subj12
0.606130697,"4','5','6'",strength,singPic.jpg,old,sing,0,44,44,76,,,,,,,,,,,,,2016_Nov_02_1828,31.99469611,ProdFawcett,SING,sing_subj12
0.384826657,"4','5','6'",society,singPic.jpg,old,sing,0,45,45,83,,,,,,,,,,,,,2016_Nov_02_1828,31.99469611,ProdFawcett,SING,sing_subj12
0.650459667,"4','5','6'",design,speakPic.jpg,old,speak,0,46,46,41,,,,,,,,,,,,,2016_Nov_02_1828,31.99469611,ProdFawcett,SING,sing_subj12
0.489963393,"4','5','6'",fellow,readPic.jpg,old,read,0,47,47,21,,,,,,,,,,,,,2016_Nov_02_1828,31.99469611,ProdFawcett,SING,sing_subj12
0.360285277,"4','5','6'",pattern,speakPic.jpg,old,speak,0,48,48,35,,,,,,,,,,,,,2016_Nov_02_1828,31.99469611,ProdFawcett,SING,sing_subj12
0.832181432,"4','5','6'",store,singPic.jpg,old,sing,0,49,49,85,,,,,,,,,,,,,2016_Nov_02_1828,31.99469611,ProdFawcett,SING,sing_subj12
0.491752629,"4','5','6'",pressure,readPic.jpg,old,read,0,50,50,11,,,,,,,,,,,,,2016_Nov_02_1828,31.99469611,ProdFawcett,SING,sing_subj12
0.527098545,"4','5','6'",center,readPic.jpg,old,read,0,51,51,4,,,,,,,,,,,,,2016_Nov_02_1828,31.99469611,ProdFawcett,SING,sing_subj12
0.357003431,"4','5','6'",chief,readPic.jpg,old,read,0,52,52,10,,,,,,,,,,,,,2016_Nov_02_1828,31.99469611,ProdFawcett,SING,sing_subj12
0.046068318,"4','5','6'",display,speakPic.jpg,old,speak,0,53,53,48,,,,,,,,,,,,,2016_Nov_02_1828,31.99469611,ProdFawcett,SING,sing_subj12
0.528375102,"4','5','6'",quick,speakPic.jpg,old,speak,0,54,54,45,,,,,,,,,,,,,2016_Nov_02_1828,31.99469611,ProdFawcett,SING,sing_subj12
0.73473244,"4','5','6'",payment,singPic.jpg,old,sing,0,55,55,84,,,,,,,,,,,,,2016_Nov_02_1828,31.99469611,ProdFawcett,SING,sing_subj12
0.991065922,"4','5','6'",patient,readPic.jpg,old,read,0,56,56,9,,,,,,,,,,,,,2016_Nov_02_1828,31.99469611,ProdFawcett,SING,sing_subj12
0.259559716,"4','5','6'",equipment,speakPic.jpg,old,speak,0,57,57,42,,,,,,,,,,,,,2016_Nov_02_1828,31.99469611,ProdFawcett,SING,sing_subj12
0.872950747,"4','5','6'",space,speakPic.jpg,old,speak,0,58,58,56,,,,,,,,,,,,,2016_Nov_02_1828,31.99469611,ProdFawcett,SING,sing_subj12
0.263936976,"4','5','6'",service,readPic.jpg,old,read,0,59,59,24,,,,,,,,,,,,,2016_Nov_02_1828,31.99469611,ProdFawcett,SING,sing_subj12
0.125860088,"4','5','6'",travel,speakPic.jpg,old,speak,0,60,60,43,,,,,,,,,,,,,2016_Nov_02_1828,31.99469611,ProdFawcett,SING,sing_subj12
0.752996027,"4','5','6'",division,readPic.jpg,old,read,0,61,61,3,,,,,,,,,,,,,2016_Nov_02_1828,31.99469611,ProdFawcett,SING,sing_subj12
0.865682772,"4','5','6'",account,singPic.jpg,old,sing,0,62,62,63,,,,,,,,,,,,,2016_Nov_02_1828,31.99469611,ProdFawcett,SING,sing_subj12
0.787772323,"4','5','6'",defeat,speakPic.jpg,old,speak,0,63,63,31,,,,,,,,,,,,,2016_Nov_02_1828,31.99469611,ProdFawcett,SING,sing_subj12
0.053748216,"4','5','6'",appeal,readPic.jpg,old,read,0,64,64,19,,,,,,,,,,,,,2016_Nov_02_1828,31.99469611,ProdFawcett,SING,sing_subj12
0.170469415,"4','5','6'",heavy,singPic.jpg,old,sing,0,65,65,86,,,,,,,,,,,,,2016_Nov_02_1828,31.99469611,ProdFawcett,SING,sing_subj12
0.898327668,"4','5','6'",military,singPic.jpg,old,sing,0,66,66,70,,,,,,,,,,,,,2016_Nov_02_1828,31.99469611,ProdFawcett,SING,sing_subj12
0.547735703,"4','5','6'",speech,readPic.jpg,old,read,0,67,67,14,,,,,,,,,,,,,2016_Nov_02_1828,31.99469611,ProdFawcett,SING,sing_subj12
0.708231395,"4','5','6'",place,singPic.jpg,old,sing,0,68,68,68,,,,,,,,,,,,,2016_Nov_02_1828,31.99469611,ProdFawcett,SING,sing_subj12
0.536342333,"4','5','6'",personnel,readPic.jpg,old,read,0,69,69,13,,,,,,,,,,,,,2016_Nov_02_1828,31.99469611,ProdFawcett,SING,sing_subj12
0.485427121,"4','5','6'",dream,readPic.jpg,old,read,0,70,70,22,,,,,,,,,,,,,2016_Nov_02_1828,31.99469611,ProdFawcett,SING,sing_subj12
0.648451175,"4','5','6'",listen,singPic.jpg,old,sing,0,71,71,67,,,,,,,,,,,,,2016_Nov_02_1828,31.99469611,ProdFawcett,SING,sing_subj12
0.248302494,"4','5','6'",medicine,readPic.jpg,old,read,0,72,72,2,,,,,,,,,,,,,2016_Nov_02_1828,31.99469611,ProdFawcett,SING,sing_subj12
0.048790094,"4','5','6'",weather,readPic.jpg,old,read,0,73,73,15,,,,,,,,,,,,,2016_Nov_02_1828,31.99469611,ProdFawcett,SING,sing_subj12
0.679705624,"4','5','6'",region,singPic.jpg,old,sing,0,74,74,62,,,,,,,,,,,,,2016_Nov_02_1828,31.99469611,ProdFawcett,SING,sing_subj12
0.957925347,"4','5','6'",height,speakPic.jpg,old,speak,0,75,75,53,,,,,,,,,,,,,2016_Nov_02_1828,31.99469611,ProdFawcett,SING,sing_subj12
0.281226904,"4','5','6'",junior,singPic.jpg,old,sing,0,76,76,61,,,,,,,,,,,,,2016_Nov_02_1828,31.99469611,ProdFawcett,SING,sing_subj12
0.937690315,"4','5','6'",bitter,readPic.jpg,old,read,0,77,77,0,,,,,,,,,,,,,2016_Nov_02_1828,31.99469611,ProdFawcett,SING,sing_subj12
0.824839278,"4','5','6'",principal,readPic.jpg,old,read,0,78,78,7,,,,,,,,,,,,,2016_Nov_02_1828,31.99469611,ProdFawcett,SING,sing_subj12
0.80700921,"4','5','6'",exchange,singPic.jpg,old,sing,0,79,79,75,,,,,,,,,,,,,2016_Nov_02_1828,31.99469611,ProdFawcett,SING,sing_subj12
0.80693051,"4','5','6'",character,readPic.jpg,old,read,0,80,80,28,,,,,,,,,,,,,2016_Nov_02_1828,31.99469611,ProdFawcett,SING,sing_subj12
0.638603953,"4','5','6'",opening,singPic.jpg,old,sing,0,81,81,80,,,,,,,,,,,,,2016_Nov_02_1828,31.99469611,ProdFawcett,SING,sing_subj12
0.580348916,"4','5','6'",staff,speakPic.jpg,old,speak,0,82,82,33,,,,,,,,,,,,,2016_Nov_02_1828,31.99469611,ProdFawcett,SING,sing_subj12
0.44085391,"4','5','6'",captain,speakPic.jpg,old,speak,0,83,83,55,,,,,,,,,,,,,2016_Nov_02_1828,31.99469611,ProdFawcett,SING,sing_subj12
0.166133131,"4','5','6'",health,readPic.jpg,old,read,0,84,84,12,,,,,,,,,,,,,2016_Nov_02_1828,31.99469611,ProdFawcett,SING,sing_subj12
0.381750766,"4','5','6'",brief,speakPic.jpg,old,speak,0,85,85,37,,,,,,,,,,,,,2016_Nov_02_1828,31.99469611,ProdFawcett,SING,sing_subj12
0.738579511,"4','5','6'",suggestion,readPic.jpg,old,read,0,86,86,25,,,,,,,,,,,,,2016_Nov_02_1828,31.99469611,ProdFawcett,SING,sing_subj12
0.567353087,"4','5','6'",reading,singPic.jpg,old,sing,0,87,87,71,,,,,,,,,,,,,2016_Nov_02_1828,31.99469611,ProdFawcett,SING,sing_subj12
0.667427232,"4','5','6'",generation,readPic.jpg,old,read,0,88,88,18,,,,,,,,,,,,,2016_Nov_02_1828,31.99469611,ProdFawcett,SING,sing_subj12
0.61850021,"4','5','6'",public,speakPic.jpg,old,speak,0,89,89,59,,,,,,,,,,,,,2016_Nov_02_1828,31.99469611,ProdFawcett,SING,sing_subj12
,,,,,,,,,,,,,,,,k,340.4918101,,,,,2016_Nov_02_1828,31.99469611,ProdFawcett,SING,sing_subj12
0.248302494,"4','5','6'",medicine,readPic.jpg,old,read,,,,,0,0,0,2,,,,,6,17.48642755,r,4.532044549,2016_Nov_02_1828,31.99469611,ProdFawcett,SING,sing_subj12
0.959797435,"1','2','3'",silence,None,new,None,,,,,0,1,1,132,,,,,2,7.157389198,n,4.61141966,2016_Nov_02_1828,31.99469611,ProdFawcett,SING,sing_subj12
0.357003431,"4','5','6'",chief,readPic.jpg,old,read,,,,,0,2,2,10,,,,,3,7.657121255,n,2.000714413,2016_Nov_02_1828,31.99469611,ProdFawcett,SING,sing_subj12
0.80693051,"4','5','6'",character,readPic.jpg,old,read,,,,,0,3,3,28,,,,,6,3.000810829,r,1.406982151,2016_Nov_02_1828,31.99469611,ProdFawcett,SING,sing_subj12
0.641559443,"1','2','3'",shock,None,new,None,,,,,0,4,4,171,,,,,1,4.219532556,f,1.219486836,2016_Nov_02_1828,31.99469611,ProdFawcett,SING,sing_subj12
0.080707256,"4','5','6'",tragedy,readPic.jpg,old,read,,,,,0,5,5,8,,,,,5,2.782392036,f,1.250618697,2016_Nov_02_1828,31.99469611,ProdFawcett,SING,sing_subj12
0.849096602,"4','5','6'",throw,singPic.jpg,old,sing,,,,,0,6,6,65,,,,,4,6.125809158,n,3.406541436,2016_Nov_02_1828,31.99469611,ProdFawcett,SING,sing_subj12
0.44085391,"4','5','6'",captain,speakPic.jpg,old,speak,,,,,0,7,7,55,,,,,6,2.000819538,r,1.594117927,2016_Nov_02_1828,31.99469611,ProdFawcett,SING,sing_subj12
0.680506473,"1','2','3'",commercial,None,new,None,,,,,0,8,8,121,,,,,2,2.657281741,f,1.813361856,2016_Nov_02_1828,31.99469611,ProdFawcett,SING,sing_subj12
0.784844053,"1','2','3'",industry,None,new,None,,,,,0,9,9,170,,,,,3,10.46970307,f,3.43826299,2016_Nov_02_1828,31.99469611,ProdFawcett,SING,sing_subj12
0.378046762,"4','5','6'",present,readPic.jpg,old,read,,,,,0,10,10,26,,,,,5,2.907134706,f,0.750710914,2016_Nov_02_1828,31.99469611,ProdFawcett,SING,sing_subj12
0.770294026,"1','2','3'",youth,None,new,None,,,,,0,11,11,176,,,,,1,2.875266661,r,0.969562025,2016_Nov_02_1828,31.99469611,ProdFawcett,SING,sing_subj12
0.558796246,"4','5','6'",mayor,speakPic.jpg,old,speak,,,,,0,12,12,44,,,,,5,3.937781687,f,0.750760988,2016_Nov_02_1828,31.99469611,ProdFawcett,SING,sing_subj12
0.064283259,"1','2','3'",general,None,new,None,,,,,0,13,13,106,,,,,4,3.03195793,f,0.625968866,2016_Nov_02_1828,31.99469611,ProdFawcett,SING,sing_subj12
0.05369315,"1','2','3'",voice,None,new,None,,,,,0,14,14,101,,,,,3,4.094594565,n,1.188366171,2016_Nov_02_1828,31.99469611,ProdFawcett,SING,sing_subj12
0.567353087,"4','5','6'",reading,singPic.jpg,old,sing,,,,,0,15,15,71,,,,,2,1.282134667,n,0.438134228,2016_Nov_02_1828,31.99469611,ProdFawcett,SING,sing_subj12
0.865682772,"4','5','6'",account,singPic.jpg,old,sing,,,,,0,16,16,63,,,,,4,3.938294248,f,0.969466853,2016_Nov_02_1828,31.99469611,ProdFawcett,SING,sing_subj12
0.878710437,"4','5','6'",stand,speakPic.jpg,old,speak,,,,,0,17,17,57,,,,,3,1.375666477,n,1.031973481,2016_Nov_02_1828,31.99469611,ProdFawcett,SING,sing_subj12
0.125860088,"4','5','6'",travel,speakPic.jpg,old,speak,,,,,0,18,18,43,,,,,4,2.438247439,f,1.594900453,2016_Nov_02_1828,31.99469611,ProdFawcett,SING,sing_subj12
0.37352963,"1','2','3'",burden,None,new,None,,,,,0,19,19,97,,,,,1,1.469482559,r,2.750789291,2016_Nov_02_1828,31.99469611,ProdFawcett,SING,sing_subj12
0.928969978,"4','5','6'",machinery,singPic.jpg,old,sing,,,,,0,20,20,87,,,,,3,2.500752513,n,2.063268317,2016_Nov_02_1828,31.99469611,ProdFawcett,SING,sing_subj12
0.585337919,"4','5','6'",individual,speakPic.jpg,old,speak,,,,,0,21,21,49,,,,,3,1.500901492,n,2.75042913,2016_Nov_02_1828,31.99469611,ProdFawcett,SING,sing_subj12
0.962272814,"1','2','3'",prime,None,new,None,,,,,0,22,22,133,,,,,2,1.282050381,f,1.281932815,2016_Nov_02_1828,31.99469611,ProdFawcett,SING,sing_subj12
0.298419939,"4','5','6'",raise,readPic.jpg,old,read,,,,,0,23,23,6,,,,,1,1.532045793,r,0.750261801,2016_Nov_02_1828,31.99469611,ProdFawcett,SING,sing_subj12
0.717067942,"4','5','6'",candidate,readPic.jpg,old,read,,,,,0,24,24,17,,,,,6,2.938359873,r,1.032015158,2016_Nov_02_1828,31.99469611,ProdFawcett,SING,sing_subj12
0.408705363,"1','2','3'",breath,None,new,None,,,,,0,25,25,175,,,,,3,1.563193205,f,1.188285617,2016_Nov_02_1828,31.99469611,ProdFawcett,SING,sing_subj12
0.991065922,"4','5','6'",patient,readPic.jpg,old,read,,,,,0,26,26,9,,,,,4,2.000831357,f,2.031919364,2016_Nov_02_1828,31.99469611,ProdFawcett,SING,sing_subj12
0.000349846,"1','2','3'",danger,None,new,None,,,,,0,27,27,145,,,,,2,1.361339028,f,0.625897332,2016_Nov_02_1828,31.99469611,ProdFawcett,SING,sing_subj12
0.491752629,"4','5','6'",pressure,readPic.jpg,old,read,,,,,0,28,28,11,,,,,3,1.375741433,n,1.188371148,2016_Nov_02_1828,31.99469611,ProdFawcett,SING,sing_subj12
0.738579511,"4','5','6'",suggestion,readPic.jpg,old,read,,,,,0,29,29,25,,,,,3,2.986394118,n,0.68816914,2016_Nov_02_1828,31.99469611,ProdFawcett,SING,sing_subj12
0.8285085,"4','5','6'",science,speakPic.jpg,old,speak,,,,,0,30,30,58,,,,,4,2.65698565,f,0.938296114,2016_Nov_02_1828,31.99469611,ProdFawcett,SING,sing_subj12
0.920018288,"4','5','6'",partner,speakPic.jpg,old,speak,,,,,0,31,31,51,,,,,6,1.906978574,r,0.719406437,2016_Nov_02_1828,31.99469611,ProdFawcett,SING,sing_subj12
0.437763365,"4','5','6'",count,speakPic.jpg,old,speak,,,,,0,32,32,34,,,,,6,1.50076682,r,0.344487341,2016_Nov_02_1828,31.99469611,ProdFawcett,SING,sing_subj12
0.112078913,"4','5','6'",bureau,speakPic.jpg,old,speak,,,,,0,33,33,38,,,,,6,1.031989032,r,0.313245379,2016_Nov_02_1828,31.99469611,ProdFawcett,SING,sing_subj12
0.166133131,"4','5','6'",health,readPic.jpg,old,read,,,,,0,34,34,12,,,,,4,2.844572405,f,0.844482209,2016_Nov_02_1828,31.99469611,ProdFawcett,SING,sing_subj12
0.732339291,"1','2','3'",error,None,new,None,,,,,0,35,35,105,,,,,3,3.125795784,f,0.87580317,2016_Nov_02_1828,31.99469611,ProdFawcett,SING,sing_subj12
0.281226904,"4','5','6'",junior,singPic.jpg,old,sing,,,,,0,36,36,61,,,,,4,1.532152162,f,0.969494844,2016_Nov_02_1828,31.99469611,ProdFawcett,SING,sing_subj12
0.936912956,"4','5','6'",revolution,singPic.jpg,old,sing,,,,,0,37,37,77,,,,,6,1.21967407,r,0.219512339,2016_Nov_02_1828,31.99469611,ProdFawcett,SING,sing_subj12
0.629320349,"1','2','3'",minute,None,new,None,,,,,0,38,38,178,,,,,3,1.375968166,n,1.219779506,2016_Nov_02_1828,31.99469611,ProdFawcett,SING,sing_subj12
0.694637576,"4','5','6'",judge,speakPic.jpg,old,speak,,,,,0,39,39,36,,,,,5,1.438432496,f,0.96945379,2016_Nov_02_1828,31.99469611,ProdFawcett,SING,sing_subj12
0.475188376,"1','2','3'",thick,None,new,None,,,,,0,40,40,158,,,,,2,1.376089464,f,1.313138699,2016_Nov_02_1828,31.99469611,ProdFawcett,SING,sing_subj12
0.937690315,"4','5','6'",bitter,readPic.jpg,old,read,,,,,0,41,41,0,,,,,6,1.813212566,r,0.344547057,2016_Nov_02_1828,31.99469611,ProdFawcett,SING,sing_subj12
0.872979012,"1','2','3'",beginning,None,new,None,,,,,0,42,42,124,,,,,4,1.657175994,n,2.219386687,2016_Nov_02_1828,31.99469611,ProdFawcett,SING,sing_subj12
0.749442041,"1','2','3'",straight,None,new,None,,,,,0,43,43,122,,,,,2,1.657012086,n,1.157318597,2016_Nov_02_1828,31.99469611,ProdFawcett,SING,sing_subj12
0.80631751,"1','2','3'",clear,None,new,None,,,,,0,44,44,153,,,,,1,1.438325816,r,0.75026771,2016_Nov_02_1828,31.99469611,ProdFawcett,SING,sing_subj12
0.764600506,"1','2','3'",private,None,new,None,,,,,0,45,45,103,,,,,4,1.375692914,f,2.87586693,2016_Nov_02_1828,31.99469611,ProdFawcett,SING,sing_subj12
0.739352601,"1','2','3'",platform,None,new,None,,,,,0,46,46,146,,,,,3,2.688268978,n,2.407057418,2016_Nov_02_1828,31.99469611,ProdFawcett,SING,sing_subj12
0.489872069,"4','5','6'",article,singPic.jpg,old,sing,,,,,0,47,47,73,,,,,2,1.438231266,n,4.407053996,2016_Nov_02_1828,31.99469611,ProdFawcett,SING,sing_subj12
0.438809631,"1','2','3'",narrow,None,new,None,,,,,0,48,48,139,,,,,1,1.219748714,r,0.625200647,2016_Nov_02_1828,31.99469611,ProdFawcett,SING,sing_subj12
0.954170077,"1','2','3'",growth,None,new,None,,,,,0,49,49,163,,,,,3,3.657126853,n,0.907130352,2016_Nov_02_1828,31.99469611,ProdFawcett,SING,sing_subj12
0.482061558,"1','2','3'",literature,None,new,None,,,,,0,50,50,165,,,,,5,2.407136728,f,1.813296231,2016_Nov_02_1828,31.99469611,ProdFawcett,SING,sing_subj12
0.001263137,"1','2','3'",institute,None,new,None,,,,,0,51,51,164,,,,,1,1.43828725,r,0.313178821,2016_Nov_02_1828,31.99469611,ProdFawcett,SING,sing_subj12
0.062577447,"4','5','6'",marriage,speakPic.jpg,old,speak,,,,,0,52,52,32,,,,,6,2.032216388,r,0.750727398,2016_Nov_02_1828,31.99469611,ProdFawcett,SING,sing_subj12
0.322946822,"1','2','3'",provision,None,new,None,,,,,0,53,53,179,,,,,1,1.188240519,r,0.12527638,2016_Nov_02_1828,31.99469611,ProdFawcett,SING,sing_subj12
0.606130697,"4','5','6'",strength,singPic.jpg,old,sing,,,,,0,54,54,76,,,,,4,3.6258146,f,1.125722383,2016_Nov_02_1828,31.99469611,ProdFawcett,SING,sing_subj12
0.679705624,"4','5','6'",region,singPic.jpg,old,sing,,,,,0,55,55,62,,,,,4,1.750749792,f,0.3131726,2016_Nov_02_1828,31.99469611,ProdFawcett,SING,sing_subj12
