StudyLoop.thisRepN,StudyLoop.thisTrialN,StudyLoop.thisN,StudyLoop.thisIndex,TestLoop.thisRepN,TestLoop.thisTrialN,TestLoop.thisN,TestLoop.thisIndex,textCondition.started,textCondition.stopped,keyCondition.keys,keyCondition.rt,keyCondition.started,keyCondition.stopped,Condition,textWelcome.started,textWelcome.stopped,keyWelcome.keys,keyWelcome.rt,keyWelcome.started,keyWelcome.stopped,textAloud.started,textAloud.stopped,textSilent.started,textSilent.stopped,textSing.started,textSing.stopped,conditional_text.started,conditional_text.stopped,textBlank500.started,textBlank500.stopped,study_word,study_num,study_order,study_type,word_color,textStudy.started,textStudy.stopped,keyStudy.keys,keyStudy.started,keyStudy.stopped,textTestInstructions.started,textTestInstructions.stopped,key_resp_3.keys,key_resp_3.rt,key_resp_3.started,key_resp_3.stopped,test_word,test_num,test_order,test_condition,old_new_test,test_word_original_color,textConf.started,textConf.stopped,textConfScale.started,textConfScale.stopped,keyConf.keys,keyConf.rt,keyConf.started,keyConf.stopped,confidence response time,textTestBlank.started,textTestBlank.stopped,textRKN.started,textRKN.stopped,textRKNScale.started,textRKNScale.stopped,keyRKN.keys,keyRKN.rt,keyRKN.started,keyRKN.stopped,rkn response time,textEnd.started,textEnd.stopped,participant,session,date,expName,psychopyVersion,frameRate,
,,,,,,,,51.82368279993534,None,a,0.7079887995496392,51.82368279993534,None,,,,,,,,,,,,,,,,,,,,,,,,,,,,,,,,,,,,,,,,,,,,,,,,,,,,,,,,,,,,,,100Silent,001,2022_Nov_28_1315,ProdSingRedoBetween,2021.2.3,60.19809992998803,
,,,,,,,,,,,,,,SilentTest,52.59157839976251,None,space,1010.8180753001943,52.59157839976251,None,,,,,,,,,,,,,,,,,,,,,,,,,,,,,,,,,,,,,,,,,,,,,,,,,,,,,,,100Silent,001,2022_Nov_28_1315,ProdSingRedoBetween,2021.2.3,60.19809992998803,
0,0,0,0,,,,,,,,,,,,,,,,,,52.59157839976251,None,52.59157839976251,None,52.59157839976251,None,52.59157839976251,None,1065.9493675995618,None,patient,1,1,silent,yellow,1063.9393996996805,None,None,1063.9393996996805,None,,,,,,,,,,,,,,,,,,,,,,,,,,,,,,,,,,,100Silent,001,2022_Nov_28_1315,ProdSingRedoBetween,2021.2.3,60.19809992998803,
1,0,1,0,,,,,,,,,,,,,,,,,,,,,,,,,,1068.4516179999337,None,income,42,2,silent,blue,1066.4513675998896,None,None,1066.4513675998896,None,,,,,,,,,,,,,,,,,,,,,,,,,,,,,,,,,,,100Silent,001,2022_Nov_28_1315,ProdSingRedoBetween,2021.2.3,60.19809992998803,
2,0,2,0,,,,,,,,,,,,,,,,,,,,,,,,,,1070.9536336995661,None,growth,26,3,silent,yellow,1068.9532215995714,None,None,1068.9532215995714,None,,,,,,,,,,,,,,,,,,,,,,,,,,,,,,,,,,,100Silent,001,2022_Nov_28_1315,ProdSingRedoBetween,2021.2.3,60.19809992998803,
3,0,3,0,,,,,,,,,,,,,,,,,,,,,,,,,,1073.4564306996763,None,store,14,4,silent,yellow,1071.4573400001973,None,None,1071.4573400001973,None,,,,,,,,,,,,,,,,,,,,,,,,,,,,,,,,,,,100Silent,001,2022_Nov_28_1315,ProdSingRedoBetween,2021.2.3,60.19809992998803,
4,0,4,0,,,,,,,,,,,,,,,,,,,,,,,,,,1075.9587676003575,None,entrance,70,5,silent,red,1073.958720699884,None,None,1073.958720699884,None,,,,,,,,,,,,,,,,,,,,,,,,,,,,,,,,,,,100Silent,001,2022_Nov_28_1315,ProdSingRedoBetween,2021.2.3,60.19809992998803,
5,0,5,0,,,,,,,,,,,,,,,,,,,,,,,,,,1078.4783752998337,None,murder,37,6,silent,blue,1076.4629643000662,None,None,1076.4629643000662,None,,,,,,,,,,,,,,,,,,,,,,,,,,,,,,,,,,,100Silent,001,2022_Nov_28_1315,ProdSingRedoBetween,2021.2.3,60.19809992998803,
6,0,6,0,,,,,,,,,,,,,,,,,,,,,,,,,,1080.9804298002273,None,service,10,7,silent,yellow,1078.9802161995322,None,None,1078.9802161995322,None,,,,,,,,,,,,,,,,,,,,,,,,,,,,,,,,,,,100Silent,001,2022_Nov_28_1315,ProdSingRedoBetween,2021.2.3,60.19809992998803,
7,0,7,0,,,,,,,,,,,,,,,,,,,,,,,,,,1083.483251100406,None,agency,89,8,silent,red,1081.4840590003878,None,None,1081.4840590003878,None,,,,,,,,,,,,,,,,,,,,,,,,,,,,,,,,,,,100Silent,001,2022_Nov_28_1315,ProdSingRedoBetween,2021.2.3,60.19809992998803,
8,0,8,0,,,,,,,,,,,,,,,,,,,,,,,,,,1086.0021462999284,None,front,82,9,silent,red,1083.9877818999812,None,None,1083.9877818999812,None,,,,,,,,,,,,,,,,,,,,,,,,,,,,,,,,,,,100Silent,001,2022_Nov_28_1315,ProdSingRedoBetween,2021.2.3,60.19809992998803,
9,0,9,0,,,,,,,,,,,,,,,,,,,,,,,,,,1088.5045156003907,None,capital,22,10,silent,yellow,1086.5039026997983,None,None,1086.5039026997983,None,,,,,,,,,,,,,,,,,,,,,,,,,,,,,,,,,,,100Silent,001,2022_Nov_28_1315,ProdSingRedoBetween,2021.2.3,60.19809992998803,
10,0,10,0,,,,,,,,,,,,,,,,,,,,,,,,,,1091.0074407001957,None,management,20,11,silent,yellow,1089.0075407996774,None,None,1089.0075407996774,None,,,,,,,,,,,,,,,,,,,,,,,,,,,,,,,,,,,100Silent,001,2022_Nov_28_1315,ProdSingRedoBetween,2021.2.3,60.19809992998803,
11,0,11,0,,,,,,,,,,,,,,,,,,,,,,,,,,1093.526669099927,None,property,51,12,silent,blue,1091.511530100368,None,None,1091.511530100368,None,,,,,,,,,,,,,,,,,,,,,,,,,,,,,,,,,,,100Silent,001,2022_Nov_28_1315,ProdSingRedoBetween,2021.2.3,60.19809992998803,
12,0,12,0,,,,,,,,,,,,,,,,,,,,,,,,,,1096.0286951996386,None,vision,24,13,silent,yellow,1094.0296553997323,None,None,1094.0296553997323,None,,,,,,,,,,,,,,,,,,,,,,,,,,,,,,,,,,,100Silent,001,2022_Nov_28_1315,ProdSingRedoBetween,2021.2.3,60.19809992998803,
13,0,13,0,,,,,,,,,,,,,,,,,,,,,,,,,,1098.5326006002724,None,rough,69,14,silent,red,1096.5305214999244,None,None,1096.5305214999244,None,,,,,,,,,,,,,,,,,,,,,,,,,,,,,,,,,,,100Silent,001,2022_Nov_28_1315,ProdSingRedoBetween,2021.2.3,60.19809992998803,
14,0,14,0,,,,,,,,,,,,,,,,,,,,,,,,,,1101.0510197998956,None,quantity,38,15,silent,blue,1099.0385462995619,None,None,1099.0385462995619,None,,,,,,,,,,,,,,,,,,,,,,,,,,,,,,,,,,,100Silent,001,2022_Nov_28_1315,ProdSingRedoBetween,2021.2.3,60.19809992998803,
15,0,15,0,,,,,,,,,,,,,,,,,,,,,,,,,,1103.5532023003325,None,piece,41,16,silent,blue,1101.5517649995163,None,None,1101.5517649995163,None,,,,,,,,,,,,,,,,,,,,,,,,,,,,,,,,,,,100Silent,001,2022_Nov_28_1315,ProdSingRedoBetween,2021.2.3,60.19809992998803,
16,0,16,0,,,,,,,,,,,,,,,,,,,,,,,,,,1106.0556121999398,None,passage,53,17,silent,blue,1104.0566881000996,None,None,1104.0566881000996,None,,,,,,,,,,,,,,,,,,,,,,,,,,,,,,,,,,,100Silent,001,2022_Nov_28_1315,ProdSingRedoBetween,2021.2.3,60.19809992998803,
17,0,17,0,,,,,,,,,,,,,,,,,,,,,,,,,,1108.5744139002636,None,sight,54,18,silent,blue,1106.560102299787,None,None,1106.560102299787,None,,,,,,,,,,,,,,,,,,,,,,,,,,,,,,,,,,,100Silent,001,2022_Nov_28_1315,ProdSingRedoBetween,2021.2.3,60.19809992998803,
18,0,18,0,,,,,,,,,,,,,,,,,,,,,,,,,,1111.0770399998873,None,present,80,19,silent,red,1109.0773644996807,None,None,1109.0773644996807,None,,,,,,,,,,,,,,,,,,,,,,,,,,,,,,,,,,,100Silent,001,2022_Nov_28_1315,ProdSingRedoBetween,2021.2.3,60.19809992998803,
19,0,19,0,,,,,,,,,,,,,,,,,,,,,,,,,,1113.5800933996215,None,scale,0,20,silent,yellow,1111.5793577004224,None,None,1111.5793577004224,None,,,,,,,,,,,,,,,,,,,,,,,,,,,,,,,,,,,100Silent,001,2022_Nov_28_1315,ProdSingRedoBetween,2021.2.3,60.19809992998803,
20,0,20,0,,,,,,,,,,,,,,,,,,,,,,,,,,1116.0988343004137,None,comfort,12,21,silent,yellow,1114.0874883998185,None,None,1114.0874883998185,None,,,,,,,,,,,,,,,,,,,,,,,,,,,,,,,,,,,100Silent,001,2022_Nov_28_1315,ProdSingRedoBetween,2021.2.3,60.19809992998803,
21,0,21,0,,,,,,,,,,,,,,,,,,,,,,,,,,1118.6182348998263,None,strength,25,22,silent,yellow,1116.6032398995012,None,None,1116.6032398995012,None,,,,,,,,,,,,,,,,,,,,,,,,,,,,,,,,,,,100Silent,001,2022_Nov_28_1315,ProdSingRedoBetween,2021.2.3,60.19809992998803,
22,0,22,0,,,,,,,,,,,,,,,,,,,,,,,,,,1121.120597999543,None,crime,77,23,silent,red,1119.1192722003907,None,None,1119.1192722003907,None,,,,,,,,,,,,,,,,,,,,,,,,,,,,,,,,,,,100Silent,001,2022_Nov_28_1315,ProdSingRedoBetween,2021.2.3,60.19809992998803,
23,0,23,0,,,,,,,,,,,,,,,,,,,,,,,,,,1123.639401299879,None,figure,72,24,silent,red,1121.6240558000281,None,None,1121.6240558000281,None,,,,,,,,,,,,,,,,,,,,,,,,,,,,,,,,,,,100Silent,001,2022_Nov_28_1315,ProdSingRedoBetween,2021.2.3,60.19809992998803,
24,0,24,0,,,,,,,,,,,,,,,,,,,,,,,,,,1126.142401699908,None,place,78,25,silent,red,1124.140855600126,None,None,1124.140855600126,None,,,,,,,,,,,,,,,,,,,,,,,,,,,,,,,,,,,100Silent,001,2022_Nov_28_1315,ProdSingRedoBetween,2021.2.3,60.19809992998803,
25,0,25,0,,,,,,,,,,,,,,,,,,,,,,,,,,1128.6449796995148,None,angle,64,26,silent,red,1126.644413500093,None,None,1126.644413500093,None,,,,,,,,,,,,,,,,,,,,,,,,,,,,,,,,,,,100Silent,001,2022_Nov_28_1315,ProdSingRedoBetween,2021.2.3,60.19809992998803,
26,0,26,0,,,,,,,,,,,,,,,,,,,,,,,,,,1131.1484108995646,None,testimony,2,27,silent,yellow,1129.1483536995947,None,None,1129.1483536995947,None,,,,,,,,,,,,,,,,,,,,,,,,,,,,,,,,,,,100Silent,001,2022_Nov_28_1315,ProdSingRedoBetween,2021.2.3,60.19809992998803,
27,0,27,0,,,,,,,,,,,,,,,,,,,,,,,,,,1133.6664627995342,None,interior,33,28,silent,blue,1131.6516896001995,None,None,1131.6516896001995,None,,,,,,,,,,,,,,,,,,,,,,,,,,,,,,,,,,,100Silent,001,2022_Nov_28_1315,ProdSingRedoBetween,2021.2.3,60.19809992998803,
28,0,28,0,,,,,,,,,,,,,,,,,,,,,,,,,,1136.168852600269,None,pressure,18,29,silent,yellow,1134.1681925002486,None,None,1134.1681925002486,None,,,,,,,,,,,,,,,,,,,,,,,,,,,,,,,,,,,100Silent,001,2022_Nov_28_1315,ProdSingRedoBetween,2021.2.3,60.19809992998803,
29,0,29,0,,,,,,,,,,,,,,,,,,,,,,,,,,1138.671965399757,None,defeat,88,30,silent,red,1136.671283699572,None,None,1136.671283699572,None,,,,,,,,,,,,,,,,,,,,,,,,,,,,,,,,,,,100Silent,001,2022_Nov_28_1315,ProdSingRedoBetween,2021.2.3,60.19809992998803,
30,0,30,0,,,,,,,,,,,,,,,,,,,,,,,,,,1141.174008199945,None,throw,67,31,silent,red,1139.173881799914,None,None,1139.173881799914,None,,,,,,,,,,,,,,,,,,,,,,,,,,,,,,,,,,,100Silent,001,2022_Nov_28_1315,ProdSingRedoBetween,2021.2.3,60.19809992998803,
31,0,31,0,,,,,,,,,,,,,,,,,,,,,,,,,,1143.6764922998846,None,heavy,19,32,silent,yellow,1141.6763043999672,None,None,1141.6763043999672,None,,,,,,,,,,,,,,,,,,,,,,,,,,,,,,,,,,,100Silent,001,2022_Nov_28_1315,ProdSingRedoBetween,2021.2.3,60.19809992998803,
32,0,32,0,,,,,,,,,,,,,,,,,,,,,,,,,,1146.1791821001098,None,welcome,45,33,silent,blue,1144.1801099004224,None,None,1144.1801099004224,None,,,,,,,,,,,,,,,,,,,,,,,,,,,,,,,,,,,100Silent,001,2022_Nov_28_1315,ProdSingRedoBetween,2021.2.3,60.19809992998803,
33,0,33,0,,,,,,,,,,,,,,,,,,,,,,,,,,1148.6818035002798,None,damage,27,34,silent,yellow,1146.681098099798,None,None,1146.681098099798,None,,,,,,,,,,,,,,,,,,,,,,,,,,,,,,,,,,,100Silent,001,2022_Nov_28_1315,ProdSingRedoBetween,2021.2.3,60.19809992998803,
34,0,34,0,,,,,,,,,,,,,,,,,,,,,,,,,,1151.183286299929,None,hunger,30,35,silent,blue,1149.183358100243,None,None,1149.183358100243,None,,,,,,,,,,,,,,,,,,,,,,,,,,,,,,,,,,,100Silent,001,2022_Nov_28_1315,ProdSingRedoBetween,2021.2.3,60.19809992998803,
35,0,35,0,,,,,,,,,,,,,,,,,,,,,,,,,,1153.6866314001381,None,bright,83,36,silent,red,1151.6861028997228,None,None,1151.6861028997228,None,,,,,,,,,,,,,,,,,,,,,,,,,,,,,,,,,,,100Silent,001,2022_Nov_28_1315,ProdSingRedoBetween,2021.2.3,60.19809992998803,
36,0,36,0,,,,,,,,,,,,,,,,,,,,,,,,,,1156.1889869002625,None,dream,84,37,silent,red,1154.1901003997773,None,None,1154.1901003997773,None,,,,,,,,,,,,,,,,,,,,,,,,,,,,,,,,,,,100Silent,001,2022_Nov_28_1315,ProdSingRedoBetween,2021.2.3,60.19809992998803,
37,0,37,0,,,,,,,,,,,,,,,,,,,,,,,,,,1158.7082187002525,None,debate,28,38,silent,yellow,1156.7041100002825,None,None,1156.7041100002825,None,,,,,,,,,,,,,,,,,,,,,,,,,,,,,,,,,,,100Silent,001,2022_Nov_28_1315,ProdSingRedoBetween,2021.2.3,60.19809992998803,
38,0,38,0,,,,,,,,,,,,,,,,,,,,,,,,,,1161.227065199986,None,grade,74,39,silent,red,1159.2184664998204,None,None,1159.2184664998204,None,,,,,,,,,,,,,,,,,,,,,,,,,,,,,,,,,,,100Silent,001,2022_Nov_28_1315,ProdSingRedoBetween,2021.2.3,60.19809992998803,
39,0,39,0,,,,,,,,,,,,,,,,,,,,,,,,,,1163.729665399529,None,question,62,40,silent,red,1161.7290310999379,None,None,1161.7290310999379,None,,,,,,,,,,,,,,,,,,,,,,,,,,,,,,,,,,,100Silent,001,2022_Nov_28_1315,ProdSingRedoBetween,2021.2.3,60.19809992998803,
40,0,40,0,,,,,,,,,,,,,,,,,,,,,,,,,,1166.2494478998706,None,household,4,41,silent,yellow,1164.2452720003203,None,None,1164.2452720003203,None,,,,,,,,,,,,,,,,,,,,,,,,,,,,,,,,,,,100Silent,001,2022_Nov_28_1315,ProdSingRedoBetween,2021.2.3,60.19809992998803,
41,0,41,0,,,,,,,,,,,,,,,,,,,,,,,,,,1168.7510534003377,None,foundation,73,42,silent,red,1166.7500126995146,None,None,1166.7500126995146,None,,,,,,,,,,,,,,,,,,,,,,,,,,,,,,,,,,,100Silent,001,2022_Nov_28_1315,ProdSingRedoBetween,2021.2.3,60.19809992998803,
42,0,42,0,,,,,,,,,,,,,,,,,,,,,,,,,,1171.253896499984,None,under,3,43,silent,yellow,1169.2526671998203,None,None,1169.2526671998203,None,,,,,,,,,,,,,,,,,,,,,,,,,,,,,,,,,,,100Silent,001,2022_Nov_28_1315,ProdSingRedoBetween,2021.2.3,60.19809992998803,
43,0,43,0,,,,,,,,,,,,,,,,,,,,,,,,,,1173.7565765995532,None,emergency,44,44,silent,blue,1171.7565639996901,None,None,1171.7565639996901,None,,,,,,,,,,,,,,,,,,,,,,,,,,,,,,,,,,,100Silent,001,2022_Nov_28_1315,ProdSingRedoBetween,2021.2.3,60.19809992998803,
44,0,44,0,,,,,,,,,,,,,,,,,,,,,,,,,,1176.2753795003518,None,resistance,9,45,silent,yellow,1174.2606453998014,None,None,1174.2606453998014,None,,,,,,,,,,,,,,,,,,,,,,,,,,,,,,,,,,,100Silent,001,2022_Nov_28_1315,ProdSingRedoBetween,2021.2.3,60.19809992998803,
45,0,45,0,,,,,,,,,,,,,,,,,,,,,,,,,,1178.778026100248,None,pancakes,50,46,silent,blue,1176.7786970995367,None,None,1176.7786970995367,None,,,,,,,,,,,,,,,,,,,,,,,,,,,,,,,,,,,100Silent,001,2022_Nov_28_1315,ProdSingRedoBetween,2021.2.3,60.19809992998803,
46,0,46,0,,,,,,,,,,,,,,,,,,,,,,,,,,1181.297106999904,None,point,49,47,silent,blue,1179.2819199999794,None,None,1179.2819199999794,None,,,,,,,,,,,,,,,,,,,,,,,,,,,,,,,,,,,100Silent,001,2022_Nov_28_1315,ProdSingRedoBetween,2021.2.3,60.19809992998803,
47,0,47,0,,,,,,,,,,,,,,,,,,,,,,,,,,1183.7996477000415,None,month,75,48,silent,red,1181.7997676003724,None,None,1181.7997676003724,None,,,,,,,,,,,,,,,,,,,,,,,,,,,,,,,,,,,100Silent,001,2022_Nov_28_1315,ProdSingRedoBetween,2021.2.3,60.19809992998803,
48,0,48,0,,,,,,,,,,,,,,,,,,,,,,,,,,1186.3190793003887,None,marriage,46,49,silent,blue,1184.3057706998661,None,None,1184.3057706998661,None,,,,,,,,,,,,,,,,,,,,,,,,,,,,,,,,,,,100Silent,001,2022_Nov_28_1315,ProdSingRedoBetween,2021.2.3,60.19809992998803,
49,0,49,0,,,,,,,,,,,,,,,,,,,,,,,,,,1188.8212884999812,None,length,21,50,silent,yellow,1186.8215509001166,None,None,1186.8215509001166,None,,,,,,,,,,,,,,,,,,,,,,,,,,,,,,,,,,,100Silent,001,2022_Nov_28_1315,ProdSingRedoBetween,2021.2.3,60.19809992998803,
50,0,50,0,,,,,,,,,,,,,,,,,,,,,,,,,,1191.323957500048,None,gesture,31,51,silent,blue,1189.3242199001834,None,None,1189.3242199001834,None,,,,,,,,,,,,,,,,,,,,,,,,,,,,,,,,,,,100Silent,001,2022_Nov_28_1315,ProdSingRedoBetween,2021.2.3,60.19809992998803,
51,0,51,0,,,,,,,,,,,,,,,,,,,,,,,,,,1193.843265700154,None,fellow,6,52,silent,yellow,1191.8312667999417,None,None,1191.8312667999417,None,,,,,,,,,,,,,,,,,,,,,,,,,,,,,,,,,,,100Silent,001,2022_Nov_28_1315,ProdSingRedoBetween,2021.2.3,60.19809992998803,
52,0,52,0,,,,,,,,,,,,,,,,,,,,,,,,,,1196.3456848999485,None,comedy,43,53,silent,blue,1194.3462063996121,None,None,1194.3462063996121,None,,,,,,,,,,,,,,,,,,,,,,,,,,,,,,,,,,,100Silent,001,2022_Nov_28_1315,ProdSingRedoBetween,2021.2.3,60.19809992998803,
53,0,53,0,,,,,,,,,,,,,,,,,,,,,,,,,,1198.847873300314,None,company,40,54,silent,blue,1196.8483710996807,None,None,1196.8483710996807,None,,,,,,,,,,,,,,,,,,,,,,,,,,,,,,,,,,,100Silent,001,2022_Nov_28_1315,ProdSingRedoBetween,2021.2.3,60.19809992998803,
54,0,54,0,,,,,,,,,,,,,,,,,,,,,,,,,,1201.3507032003254,None,ground,59,55,silent,yellow,1199.3512140996754,None,None,1199.3512140996754,None,,,,,,,,,,,,,,,,,,,,,,,,,,,,,,,,,,,100Silent,001,2022_Nov_28_1315,ProdSingRedoBetween,2021.2.3,60.19809992998803,
55,0,55,0,,,,,,,,,,,,,,,,,,,,,,,,,,1203.8532590996474,None,candidate,87,56,silent,red,1201.852015200071,None,None,1201.852015200071,None,,,,,,,,,,,,,,,,,,,,,,,,,,,,,,,,,,,100Silent,001,2022_Nov_28_1315,ProdSingRedoBetween,2021.2.3,60.19809992998803,
56,0,56,0,,,,,,,,,,,,,,,,,,,,,,,,,,1206.3723192997277,None,mayor,15,57,silent,yellow,1204.3580948999152,None,None,1204.3580948999152,None,,,,,,,,,,,,,,,,,,,,,,,,,,,,,,,,,,,100Silent,001,2022_Nov_28_1315,ProdSingRedoBetween,2021.2.3,60.19809992998803,
57,0,57,0,,,,,,,,,,,,,,,,,,,,,,,,,,1208.8746509002522,None,government,68,58,silent,red,1206.87542330008,None,None,1206.87542330008,None,,,,,,,,,,,,,,,,,,,,,,,,,,,,,,,,,,,100Silent,001,2022_Nov_28_1315,ProdSingRedoBetween,2021.2.3,60.19809992998803,
58,0,58,0,,,,,,,,,,,,,,,,,,,,,,,,,,1211.3773779999465,None,atmosphere,58,59,silent,blue,1209.3780156001449,None,None,1209.3780156001449,None,,,,,,,,,,,,,,,,,,,,,,,,,,,,,,,,,,,100Silent,001,2022_Nov_28_1315,ProdSingRedoBetween,2021.2.3,60.19809992998803,
59,0,59,0,,,,,,,,,,,,,,,,,,,,,,,,,,1213.8966191997752,None,permit,66,60,silent,red,1211.8808265002444,None,None,1211.8808265002444,None,,,,,,,,,,,,,,,,,,,,,,,,,,,,,,,,,,,100Silent,001,2022_Nov_28_1315,ProdSingRedoBetween,2021.2.3,60.19809992998803,
60,0,60,0,,,,,,,,,,,,,,,,,,,,,,,,,,1216.3989767003804,None,story,47,61,silent,blue,1214.3988928003237,None,None,1214.3988928003237,None,,,,,,,,,,,,,,,,,,,,,,,,,,,,,,,,,,,100Silent,001,2022_Nov_28_1315,ProdSingRedoBetween,2021.2.3,60.19809992998803,
61,0,61,0,,,,,,,,,,,,,,,,,,,,,,,,,,1218.918272900395,None,staff,55,62,silent,blue,1216.9029729999602,None,None,1216.9029729999602,None,,,,,,,,,,,,,,,,,,,,,,,,,,,,,,,,,,,100Silent,001,2022_Nov_28_1315,ProdSingRedoBetween,2021.2.3,60.19809992998803,
62,0,62,0,,,,,,,,,,,,,,,,,,,,,,,,,,1221.4373359996825,None,space,17,63,silent,yellow,1219.425593400374,None,None,1219.425593400374,None,,,,,,,,,,,,,,,,,,,,,,,,,,,,,,,,,,,100Silent,001,2022_Nov_28_1315,ProdSingRedoBetween,2021.2.3,60.19809992998803,
63,0,63,0,,,,,,,,,,,,,,,,,,,,,,,,,,1223.9397938000038,None,minor,81,64,silent,red,1221.938936999999,None,None,1221.938936999999,None,,,,,,,,,,,,,,,,,,,,,,,,,,,,,,,,,,,100Silent,001,2022_Nov_28_1315,ProdSingRedoBetween,2021.2.3,60.19809992998803,
64,0,64,0,,,,,,,,,,,,,,,,,,,,,,,,,,1226.4591912003234,None,phrase,52,65,silent,blue,1224.4442194998264,None,None,1224.4442194998264,None,,,,,,,,,,,,,,,,,,,,,,,,,,,,,,,,,,,100Silent,001,2022_Nov_28_1315,ProdSingRedoBetween,2021.2.3,60.19809992998803,
65,0,65,0,,,,,,,,,,,,,,,,,,,,,,,,,,1228.9619656996801,None,write,7,66,silent,yellow,1226.9603810003027,None,None,1226.9603810003027,None,,,,,,,,,,,,,,,,,,,,,,,,,,,,,,,,,,,100Silent,001,2022_Nov_28_1315,ProdSingRedoBetween,2021.2.3,60.19809992998803,
66,0,66,0,,,,,,,,,,,,,,,,,,,,,,,,,,1231.4805384995416,None,worker,48,67,silent,blue,1229.4654019996524,None,None,1229.4654019996524,None,,,,,,,,,,,,,,,,,,,,,,,,,,,,,,,,,,,100Silent,001,2022_Nov_28_1315,ProdSingRedoBetween,2021.2.3,60.19809992998803,
67,0,67,0,,,,,,,,,,,,,,,,,,,,,,,,,,1233.9842945998535,None,evidence,36,68,silent,blue,1231.9827987002209,None,None,1231.9827987002209,None,,,,,,,,,,,,,,,,,,,,,,,,,,,,,,,,,,,100Silent,001,2022_Nov_28_1315,ProdSingRedoBetween,2021.2.3,60.19809992998803,
68,0,68,0,,,,,,,,,,,,,,,,,,,,,,,,,,1236.5021655000746,None,charter,39,69,silent,blue,1234.487181100063,None,None,1234.487181100063,None,,,,,,,,,,,,,,,,,,,,,,,,,,,,,,,,,,,100Silent,001,2022_Nov_28_1315,ProdSingRedoBetween,2021.2.3,60.19809992998803,
69,0,69,0,,,,,,,,,,,,,,,,,,,,,,,,,,1239.0051020998508,None,expansion,32,70,silent,blue,1237.0034023998305,None,None,1237.0034023998305,None,,,,,,,,,,,,,,,,,,,,,,,,,,,,,,,,,,,100Silent,001,2022_Nov_28_1315,ProdSingRedoBetween,2021.2.3,60.19809992998803,
70,0,70,0,,,,,,,,,,,,,,,,,,,,,,,,,,1241.5239949999377,None,school,86,71,silent,red,1239.512188299559,None,None,1239.512188299559,None,,,,,,,,,,,,,,,,,,,,,,,,,,,,,,,,,,,100Silent,001,2022_Nov_28_1315,ProdSingRedoBetween,2021.2.3,60.19809992998803,
71,0,71,0,,,,,,,,,,,,,,,,,,,,,,,,,,1244.0265656001866,None,nation,65,72,silent,red,1242.0251797996461,None,None,1242.0251797996461,None,,,,,,,,,,,,,,,,,,,,,,,,,,,,,,,,,,,100Silent,001,2022_Nov_28_1315,ProdSingRedoBetween,2021.2.3,60.19809992998803,
72,0,72,0,,,,,,,,,,,,,,,,,,,,,,,,,,1246.5288607003167,None,election,29,73,silent,blue,1244.5289444001392,None,None,1244.5289444001392,None,,,,,,,,,,,,,,,,,,,,,,,,,,,,,,,,,,,100Silent,001,2022_Nov_28_1315,ProdSingRedoBetween,2021.2.3,60.19809992998803,
73,0,73,0,,,,,,,,,,,,,,,,,,,,,,,,,,1249.0481586996466,None,bitter,60,74,silent,red,1247.0335376001894,None,None,1247.0335376001894,None,,,,,,,,,,,,,,,,,,,,,,,,,,,,,,,,,,,100Silent,001,2022_Nov_28_1315,ProdSingRedoBetween,2021.2.3,60.19809992998803,
74,0,74,0,,,,,,,,,,,,,,,,,,,,,,,,,,1251.550352900289,None,error,85,75,silent,red,1249.5492489002645,None,None,1249.5492489002645,None,,,,,,,,,,,,,,,,,,,,,,,,,,,,,,,,,,,100Silent,001,2022_Nov_28_1315,ProdSingRedoBetween,2021.2.3,60.19809992998803,
75,0,75,0,,,,,,,,,,,,,,,,,,,,,,,,,,1254.053167199716,None,guide,13,76,silent,yellow,1252.051999299787,None,None,1252.051999299787,None,,,,,,,,,,,,,,,,,,,,,,,,,,,,,,,,,,,100Silent,001,2022_Nov_28_1315,ProdSingRedoBetween,2021.2.3,60.19809992998803,
76,0,76,0,,,,,,,,,,,,,,,,,,,,,,,,,,1256.555886800401,None,dispute,35,77,silent,blue,1254.5564302001148,None,None,1254.5564302001148,None,,,,,,,,,,,,,,,,,,,,,,,,,,,,,,,,,,,100Silent,001,2022_Nov_28_1315,ProdSingRedoBetween,2021.2.3,60.19809992998803,
77,0,77,0,,,,,,,,,,,,,,,,,,,,,,,,,,1259.0900453999639,None,appearance,11,78,silent,yellow,1257.06088239979,None,None,1257.06088239979,None,,,,,,,,,,,,,,,,,,,,,,,,,,,,,,,,,,,100Silent,001,2022_Nov_28_1315,ProdSingRedoBetween,2021.2.3,60.19809992998803,
78,0,78,0,,,,,,,,,,,,,,,,,,,,,,,,,,1261.5779114998877,None,skill,16,79,silent,yellow,1259.575642099604,None,None,1259.575642099604,None,,,,,,,,,,,,,,,,,,,,,,,,,,,,,,,,,,,100Silent,001,2022_Nov_28_1315,ProdSingRedoBetween,2021.2.3,60.19809992998803,
79,0,79,0,,,,,,,,,,,,,,,,,,,,,,,,,,1264.0964492997155,None,impact,76,80,silent,red,1262.081184499897,None,None,1262.081184499897,None,,,,,,,,,,,,,,,,,,,,,,,,,,,,,,,,,,,100Silent,001,2022_Nov_28_1315,ProdSingRedoBetween,2021.2.3,60.19809992998803,
80,0,80,0,,,,,,,,,,,,,,,,,,,,,,,,,,1266.598630500026,None,religion,34,81,silent,blue,1264.5966448001564,None,None,1264.5966448001564,None,,,,,,,,,,,,,,,,,,,,,,,,,,,,,,,,,,,100Silent,001,2022_Nov_28_1315,ProdSingRedoBetween,2021.2.3,60.19809992998803,
81,0,81,0,,,,,,,,,,,,,,,,,,,,,,,,,,1269.101664699614,None,alert,5,82,silent,yellow,1267.1008310001343,None,None,1267.1008310001343,None,,,,,,,,,,,,,,,,,,,,,,,,,,,,,,,,,,,100Silent,001,2022_Nov_28_1315,ProdSingRedoBetween,2021.2.3,60.19809992998803,
82,0,82,0,,,,,,,,,,,,,,,,,,,,,,,,,,1271.6211858997121,None,track,71,83,silent,red,1269.605599200353,None,None,1269.605599200353,None,,,,,,,,,,,,,,,,,,,,,,,,,,,,,,,,,,,100Silent,001,2022_Nov_28_1315,ProdSingRedoBetween,2021.2.3,60.19809992998803,
83,0,83,0,,,,,,,,,,,,,,,,,,,,,,,,,,1274.1400546003133,None,guard,79,84,silent,red,1272.133603299968,None,None,1272.133603299968,None,,,,,,,,,,,,,,,,,,,,,,,,,,,,,,,,,,,100Silent,001,2022_Nov_28_1315,ProdSingRedoBetween,2021.2.3,60.19809992998803,
84,0,84,0,,,,,,,,,,,,,,,,,,,,,,,,,,1276.6588976997882,None,commercial,8,85,silent,yellow,1274.643750200048,None,None,1274.643750200048,None,,,,,,,,,,,,,,,,,,,,,,,,,,,,,,,,,,,100Silent,001,2022_Nov_28_1315,ProdSingRedoBetween,2021.2.3,60.19809992998803,
85,0,85,0,,,,,,,,,,,,,,,,,,,,,,,,,,1279.178167800419,None,recall,23,86,silent,yellow,1277.1718784999102,None,None,1277.1718784999102,None,,,,,,,,,,,,,,,,,,,,,,,,,,,,,,,,,,,100Silent,001,2022_Nov_28_1315,ProdSingRedoBetween,2021.2.3,60.19809992998803,
86,0,86,0,,,,,,,,,,,,,,,,,,,,,,,,,,1281.680620700121,None,running,56,87,silent,blue,1279.6791976001114,None,None,1279.6791976001114,None,,,,,,,,,,,,,,,,,,,,,,,,,,,,,,,,,,,100Silent,001,2022_Nov_28_1315,ProdSingRedoBetween,2021.2.3,60.19809992998803,
87,0,87,0,,,,,,,,,,,,,,,,,,,,,,,,,,1284.1839784998447,None,guest,57,88,silent,blue,1282.1845837999135,None,None,1282.1845837999135,None,,,,,,,,,,,,,,,,,,,,,,,,,,,,,,,,,,,100Silent,001,2022_Nov_28_1315,ProdSingRedoBetween,2021.2.3,60.19809992998803,
88,0,88,0,,,,,,,,,,,,,,,,,,,,,,,,,,1286.6855474999174,None,tough,61,89,silent,red,1284.6849397001788,None,None,1284.6849397001788,None,,,,,,,,,,,,,,,,,,,,,,,,,,,,,,,,,,,100Silent,001,2022_Nov_28_1315,ProdSingRedoBetween,2021.2.3,60.19809992998803,
89,0,89,0,,,,,,,,,,,,,,,,,,,,,,,,,,1289.1878840997815,None,block,63,90,silent,red,1287.188421400264,None,None,1287.188421400264,None,,,,,,,,,,,,,,,,,,,,,,,,,,,,,,,,,,,100Silent,001,2022_Nov_28_1315,ProdSingRedoBetween,2021.2.3,60.19809992998803,
,,,,,,,,,,,,,,,,,,,,,,,,,,,,,,,,,,,,,,,,,1289.6885332996026,None,k,46.24034749995917,1289.6885332996026,None,,,,,,,,,,,,,,,,,,,,,,,,,,,,,100Silent,001,2022_Nov_28_1315,ProdSingRedoBetween,2021.2.3,60.19809992998803,
,,,,0,0,0,0,,,,,,,,,,,,,,,,,,,,,,1349.1918866997585,None,,,,,,,,,,,,,,,,,motion,174,1,silent,new,null,1336.4615412000567,None,1336.4615412000567,None,5,7.523209599778056,1336.4615412000567,None,7.523209599778056,1344.0163914998993,None,1344.5270459000021,None,1344.5270459000021,None,r,4.63408790063113,1344.5270459000021,None,4.63408790063113,,,100Silent,001,2022_Nov_28_1315,ProdSingRedoBetween,2021.2.3,60.19809992998803,
,,,,1,0,1,0,,,,,,,,,,,,,,,,,,,,,,1358.4932086998597,None,,,,,,,,,,,,,,,,,write,7,2,silent,old,yellow,1349.7003712998703,None,1349.7003712998703,None,4,6.228473999537528,1349.7003712998703,None,6.228473999537528,1355.9593989001587,None,1356.4758713999763,None,1356.4758713999763,None,r,1.9968562005087733,1356.4758713999763,None,1.9968562005087733,,,100Silent,001,2022_Nov_28_1315,ProdSingRedoBetween,2021.2.3,60.19809992998803,
,,,,2,0,2,0,,,,,,,,,,,,,,,,,,,,,,1363.2303614001721,None,,,,,,,,,,,,,,,,,brief,144,3,silent,new,null,1359.0101434998214,None,1359.0101434998214,None,1,2.302623299881816,1359.0101434998214,None,2.302623299881816,1361.3478512996808,None,1361.8686100002378,None,1361.8686100002378,None,n,1.3320706998929381,1361.8686100002378,None,1.3320706998929381,,,100Silent,001,2022_Nov_28_1315,ProdSingRedoBetween,2021.2.3,60.19809992998803,
,,,,3,0,3,0,,,,,,,,,,,,,,,,,,,,,,1367.0513349995017,None,,,,,,,,,,,,,,,,,defeat,88,4,silent,old,red,1363.7332196999341,None,1363.7332196999341,None,2,2.131587900221348,1363.7332196999341,None,2.131587900221348,1365.9065065998584,None,1366.4167101001367,None,1366.4167101001367,None,n,0.6080939993262291,1366.4167101001367,None,0.6080939993262291,,,100Silent,001,2022_Nov_28_1315,ProdSingRedoBetween,2021.2.3,60.19809992998803,
,,,,4,0,4,0,,,,,,,,,,,,,,,,,,,,,,1371.0373486001045,None,,,,,,,,,,,,,,,,,dozen,139,5,silent,new,null,1367.576746799983,None,1367.576746799983,None,2,1.9361526994034648,1367.576746799983,None,1.9361526994034648,1369.5375237995759,None,1370.0528792999685,None,1370.0528792999685,None,n,0.9557851003482938,1370.0528792999685,None,0.9557851003482938,,,100Silent,001,2022_Nov_28_1315,ProdSingRedoBetween,2021.2.3,60.19809992998803,
,,,,5,0,5,0,,,,,,,,,,,,,,,,,,,,,,1376.6930924998596,None,,,,,,,,,,,,,,,,,design,157,6,silent,new,null,1371.5395550001413,None,1371.5395550001413,None,5,3.22921400051564,1371.5395550001413,None,3.22921400051564,1374.7926174998283,None,1375.3075452996418,None,1375.3075452996418,None,f,1.3655519997701049,1375.3075452996418,None,1.3655519997701049,,,100Silent,001,2022_Nov_28_1315,ProdSingRedoBetween,2021.2.3,60.19809992998803,
,,,,6,0,6,0,,,,,,,,,,,,,,,,,,,,,,1380.831095200032,None,,,,,,,,,,,,,,,,,agency,89,7,silent,old,red,1377.1953454995528,None,1377.1953454995528,None,6,2.7655672999098897,1377.1953454995528,None,2.7655672999098897,1379.9821375003085,None,1380.4974771998823,None,1380.4974771998823,None,r,0.31117899995297194,1380.4974771998823,None,0.31117899995297194,,,100Silent,001,2022_Nov_28_1315,ProdSingRedoBetween,2021.2.3,60.19809992998803,
,,,,7,0,7,0,,,,,,,,,,,,,,,,,,,,,,1386.4198597995564,None,,,,,,,,,,,,,,,,,emergency,44,8,silent,old,blue,1381.3349038995802,None,1381.3349038995802,None,6,2.378139699809253,1381.3349038995802,None,2.378139699809253,1383.7361123003066,None,1384.2502041002735,None,1384.2502041002735,None,r,2.150580800138414,1384.2502041002735,None,2.150580800138414,,,100Silent,001,2022_Nov_28_1315,ProdSingRedoBetween,2021.2.3,60.19809992998803,
,,,,8,0,8,0,,,,,,,,,,,,,,,,,,,,,,1392.52661500033,None,,,,,,,,,,,,,,,,,phrase,52,9,silent,old,blue,1386.921202399768,None,1386.921202399768,None,3,3.239403299987316,1386.921202399768,None,3.239403299987316,1390.1911465004086,None,1390.7068023001775,None,1390.7068023001775,None,f,1.798140000551939,1390.7068023001775,None,1.798140000551939,,,100Silent,001,2022_Nov_28_1315,ProdSingRedoBetween,2021.2.3,60.19809992998803,
,,,,9,0,9,0,,,,,,,,,,,,,,,,,,,,,,1396.646194900386,None,,,,,,,,,,,,,,,,,bucket,93,10,silent,new,null,1393.0466702003032,None,1393.0466702003032,None,1,2.122164599597454,1393.0466702003032,None,2.122164599597454,1395.200128399767,None,1395.7116847997531,None,1395.7116847997531,None,n,0.913179500028491,1395.7116847997531,None,0.913179500028491,,,100Silent,001,2022_Nov_28_1315,ProdSingRedoBetween,2021.2.3,60.19809992998803,
,,,,10,0,10,0,,,,,,,,,,,,,,,,,,,,,,1401.8518813997507,None,,,,,,,,,,,,,,,,,appearance,11,11,silent,old,yellow,1397.1490911999717,None,1397.1490911999717,None,6,2.835573200136423,1397.1490911999717,None,2.835573200136423,1400.0181654999033,None,1400.5330771002918,None,1400.5330771002918,None,n,1.29156359937042,1400.5330771002918,None,1.29156359937042,,,100Silent,001,2022_Nov_28_1315,ProdSingRedoBetween,2021.2.3,60.19809992998803,
,,,,11,0,11,0,,,,,,,,,,,,,,,,,,,,,,1406.226119400002,None,,,,,,,,,,,,,,,,,drink,170,12,silent,new,null,1402.353429899551,None,1402.353429899551,None,6,2.9192107003182173,1402.353429899551,None,2.9192107003182173,1405.2961269002408,None,1405.806883700192,None,1405.806883700192,None,r,0.38591189961880445,1405.806883700192,None,0.38591189961880445,,,100Silent,001,2022_Nov_28_1315,ProdSingRedoBetween,2021.2.3,60.19809992998803,
,,,,12,0,12,0,,,,,,,,,,,,,,,,,,,,,,1409.5022571003065,None,,,,,,,,,,,,,,,,,mayor,15,13,silent,old,yellow,1406.7543582003564,None,1406.7543582003564,None,6,1.8383976006880403,1406.7543582003564,None,1.8383976006880403,1408.62655990012,None,1409.1431438997388,None,1409.1431438997388,None,r,0.3299457002431154,1409.1431438997388,None,0.3299457002431154,,,100Silent,001,2022_Nov_28_1315,ProdSingRedoBetween,2021.2.3,60.19809992998803,
,,,,13,0,13,0,,,,,,,,,,,,,,,,,,,,,,1414.031406399794,None,,,,,,,,,,,,,,,,,front,82,14,silent,old,red,1410.0110317002982,None,1410.0110317002982,None,1,1.701587200164795,1410.0110317002982,None,1.701587200164795,1411.7461056998,None,1412.2645904002711,None,1412.2645904002711,None,n,1.7439736006781459,1412.2645904002711,None,1.7439736006781459,,,100Silent,001,2022_Nov_28_1315,ProdSingRedoBetween,2021.2.3,60.19809992998803,
,,,,14,0,14,0,,,,,,,,,,,,,,,,,,,,,,1417.7632711995393,None,,,,,,,,,,,,,,,,,marriage,46,15,silent,old,blue,1414.548014299944,None,1414.548014299944,None,6,2.0685513000935316,1414.548014299944,None,2.0685513000935316,1416.6339555997401,None,1417.1488630995154,None,1417.1488630995154,None,r,0.5801646001636982,1417.1488630995154,None,0.5801646001636982,,,100Silent,001,2022_Nov_28_1315,ProdSingRedoBetween,2021.2.3,60.19809992998803,
,,,,15,0,15,0,,,,,,,,,,,,,,,,,,,,,,1423.4898250997066,None,,,,,,,,,,,,,,,,,union,169,16,silent,new,null,1418.2722586998716,None,1418.2722586998716,None,1,1.3683406002819538,1418.2722586998716,None,1.3683406002819538,1419.67053890042,None,1420.186050400138,None,1420.186050400138,None,n,3.278561200015247,1420.186050400138,None,3.278561200015247,,,100Silent,001,2022_Nov_28_1315,ProdSingRedoBetween,2021.2.3,60.19809992998803,
,,,,16,0,16,0,,,,,,,,,,,,,,,,,,,,,,1428.2579290997237,None,,,,,,,,,,,,,,,,,gesture,31,17,silent,old,blue,1423.9930458003655,None,1423.9930458003655,None,4,2.599537099711597,1423.9930458003655,None,2.599537099711597,1426.6120167998597,None,1427.1305213002488,None,1427.1305213002488,None,f,1.086107099428773,1427.1305213002488,None,1.086107099428773,,,100Silent,001,2022_Nov_28_1315,ProdSingRedoBetween,2021.2.3,60.19809992998803,
,,,,17,0,17,0,,,,,,,,,,,,,,,,,,,,,,1431.7660643998533,None,,,,,,,,,,,,,,,,,edition,163,18,silent,new,null,1428.7717479998246,None,1428.7717479998246,None,1,1.5731028001755476,1428.7717479998246,None,1.5731028001755476,1430.3647215003148,None,1430.8869118001312,None,1430.8869118001312,None,n,0.8497114004567266,1430.8869118001312,None,0.8497114004567266,,,100Silent,001,2022_Nov_28_1315,ProdSingRedoBetween,2021.2.3,60.19809992998803,
,,,,18,0,18,0,,,,,,,,,,,,,,,,,,,,,,1436.265542300418,None,,,,,,,,,,,,,,,,,symbol,128,19,silent,new,null,1432.2829465996474,None,1432.2829465996474,None,6,2.5337616000324488,1432.2829465996474,None,2.5337616000324488,1434.8359596002847,None,1435.3516832999885,None,1435.3516832999885,None,r,0.8812555000185966,1435.3516832999885,None,0.8812555000185966,,,100Silent,001,2022_Nov_28_1315,ProdSingRedoBetween,2021.2.3,60.19809992998803,
,,,,19,0,19,0,,,,,,,,,,,,,,,,,,,,,,1439.6901356996968,None,,,,,,,,,,,,,,,,,nation,65,20,silent,old,red,1436.7720421003178,None,1436.7720421003178,None,1,1.5085662994533777,1436.7720421003178,None,1.5085662994533777,1438.3058118000627,None,1438.8211444001645,None,1438.8211444001645,None,n,0.8514745002612472,1438.8211444001645,None,0.8514745002612472,,,100Silent,001,2022_Nov_28_1315,ProdSingRedoBetween,2021.2.3,60.19809992998803,
,,,,20,0,20,0,,,,,,,,,,,,,,,,,,,,,,1442.859985199757,None,,,,,,,,,,,,,,,,,trail,135,21,silent,new,null,1440.2161635998636,None,1440.2161635998636,None,1,1.5209229001775384,1440.2161635998636,None,1.5209229001775384,1441.75899439957,None,1442.2743494994938,None,1442.2743494994938,None,n,0.5584016004577279,1442.2743494994938,None,0.5584016004577279,,,100Silent,001,2022_Nov_28_1315,ProdSingRedoBetween,2021.2.3,60.19809992998803,
,,,,21,0,21,0,,,,,,,,,,,,,,,,,,,,,,1447.1816779002547,None,,,,,,,,,,,,,,,,,staff,55,22,silent,old,blue,1443.3774918001145,None,1443.3774918001145,None,3,2.3190167006105185,1443.3774918001145,None,2.3190167006105185,1445.7391529995948,None,1446.2471273997799,None,1446.2471273997799,None,f,0.913795099593699,1446.2471273997799,None,0.913795099593699,,,100Silent,001,2022_Nov_28_1315,ProdSingRedoBetween,2021.2.3,60.19809992998803,
,,,,22,0,22,0,,,,,,,,,,,,,,,,,,,,,,1451.4856577003375,None,,,,,,,,,,,,,,,,,dispute,35,23,silent,old,blue,1447.6987891998142,None,1447.6987891998142,None,6,1.989737200550735,1447.6987891998142,None,1.989737200550735,1449.7264575995505,None,1450.232563099824,None,1450.232563099824,None,r,1.224090300500393,1450.232563099824,None,1.224090300500393,,,100Silent,001,2022_Nov_28_1315,ProdSingRedoBetween,2021.2.3,60.19809992998803,
,,,,23,0,23,0,,,,,,,,,,,,,,,,,,,,,,1456.956062699668,None,,,,,,,,,,,,,,,,,tough,61,24,silent,old,red,1452.0069634001702,None,1452.0069634001702,None,2,1.7136311000213027,1452.0069634001702,None,1.7136311000213027,1453.7388803996146,None,1454.2528352001682,None,1454.2528352001682,None,n,2.675639799796045,1454.2528352001682,None,2.675639799796045,,,100Silent,001,2022_Nov_28_1315,ProdSingRedoBetween,2021.2.3,60.19809992998803,
,,,,24,0,24,0,,,,,,,,,,,,,,,,,,,,,,1460.9068622998893,None,,,,,,,,,,,,,,,,,interior,33,25,silent,old,blue,1457.4622943997383,None,1457.4622943997383,None,6,2.0582130001857877,1457.4622943997383,None,2.0582130001857877,1459.5448198998347,None,1460.0590311996639,None,1460.0590311996639,None,r,0.8139474997296929,1460.0590311996639,None,0.8139474997296929,,,100Silent,001,2022_Nov_28_1315,ProdSingRedoBetween,2021.2.3,60.19809992998803,
,,,,25,0,25,0,,,,,,,,,,,,,,,,,,,,,,1464.5939437001944,None,,,,,,,,,,,,,,,,,danger,114,26,silent,new,null,1461.4120177999139,None,1461.4120177999139,None,3,2.0206661000847816,1461.4120177999139,None,2.0206661000847816,1463.4659812003374,None,1463.9797422997653,None,1463.9797422997653,None,f,0.5811555003747344,1463.9797422997653,None,0.5811555003747344,,,100Silent,001,2022_Nov_28_1315,ProdSingRedoBetween,2021.2.3,60.19809992998803,
,,,,26,0,26,0,,,,,,,,,,,,,,,,,,,,,,1468.917996400036,None,,,,,,,,,,,,,,,,,series,95,27,silent,new,null,1465.0989640001208,None,1465.0989640001208,None,3,2.8935814006254077,1465.0989640001208,None,2.8935814006254077,1468.0202342998236,None,1468.534249600023,None,1468.534249600023,None,f,0.3543329006060958,1468.534249600023,None,0.3543329006060958,,,100Silent,001,2022_Nov_28_1315,ProdSingRedoBetween,2021.2.3,60.19809992998803,
,,,,27,0,27,0,,,,,,,,,,,,,,,,,,,,,,1473.1733186999336,None,,,,,,,,,,,,,,,,,citizen,107,28,silent,new,null,1469.421080400236,None,1469.421080400236,None,6,1.8834457006305456,1469.421080400236,None,1.8834457006305456,1471.3264381997287,None,1471.8399964999408,None,1471.8399964999408,None,r,1.3130537001416087,1471.8399964999408,None,1.3130537001416087,,,100Silent,001,2022_Nov_28_1315,ProdSingRedoBetween,2021.2.3,60.19809992998803,
,,,,28,0,28,0,,,,,,,,,,,,,,,,,,,,,,1477.5609464002773,None,,,,,,,,,,,,,,,,,birth,168,29,silent,new,null,1473.6920146001503,None,1473.6920146001503,None,2,2.14058590028435,1473.6920146001503,None,2.14058590028435,1475.859334900044,None,1476.3717326000333,None,1476.3717326000333,None,f,1.1567882001399994,1476.3717326000333,None,1.1567882001399994,,,100Silent,001,2022_Nov_28_1315,ProdSingRedoBetween,2021.2.3,60.19809992998803,
,,,,29,0,29,0,,,,,,,,,,,,,,,,,,,,,,1481.7819817997515,None,,,,,,,,,,,,,,,,,welcome,45,30,silent,old,blue,1478.0824044998735,None,1478.0824044998735,None,1,1.5660809008404613,1478.0824044998735,None,1.5660809008404613,1479.6815502000973,None,1480.2015273002908,None,1480.2015273002908,None,n,1.5592199992388487,1480.2015273002908,None,1.5592199992388487,,,100Silent,001,2022_Nov_28_1315,ProdSingRedoBetween,2021.2.3,60.19809992998803,
,,,,30,0,30,0,,,,,,,,,,,,,,,,,,,,,,1485.0141992997378,None,,,,,,,,,,,,,,,,,clean,117,31,silent,new,null,1482.2968242000788,None,1482.2968242000788,None,2,1.4796752007678151,1482.2968242000788,None,1.4796752007678151,1483.8008043998852,None,1484.3158436995,None,1484.3158436995,None,n,0.6688144002109766,1484.3158436995,None,0.6688144002109766,,,100Silent,001,2022_Nov_28_1315,ProdSingRedoBetween,2021.2.3,60.19809992998803,
,,,,31,0,31,0,,,,,,,,,,,,,,,,,,,,,,1490.8245687000453,None,,,,,,,,,,,,,,,,,beauty,124,32,silent,new,null,1485.5202027000487,None,1485.5202027000487,None,1,4.192331099882722,1485.5202027000487,None,4.192331099882722,1489.7420896003023,None,1490.2569121997803,None,1490.2569121997803,None,n,0.5356266004964709,1490.2569121997803,None,0.5356266004964709,,,100Silent,001,2022_Nov_28_1315,ProdSingRedoBetween,2021.2.3,60.19809992998803,
,,,,32,0,32,0,,,,,,,,,,,,,,,,,,,,,,1493.8775878995657,None,,,,,,,,,,,,,,,,,fellow,6,33,silent,old,yellow,1491.3428004002199,None,1491.3428004002199,None,1,1.601650600321591,1491.3428004002199,None,1.601650600321591,1492.9794164998457,None,1493.4918513996527,None,1493.4918513996527,None,n,0.3650340996682644,1493.4918513996527,None,0.3650340996682644,,,100Silent,001,2022_Nov_28_1315,ProdSingRedoBetween,2021.2.3,60.19809992998803,
,,,,33,0,33,0,,,,,,,,,,,,,,,,,,,,,,1497.1136323995888,None,,,,,,,,,,,,,,,,,group,133,34,silent,new,null,1494.3949993001297,None,1494.3949993001297,None,3,1.8215127000585198,1494.3949993001297,None,1.8215127000585198,1496.2477869000286,None,1496.7644518995658,None,1496.7644518995658,None,f,0.33197399973869324,1496.7644518995658,None,0.33197399973869324,,,100Silent,001,2022_Nov_28_1315,ProdSingRedoBetween,2021.2.3,60.19809992998803,
,,,,34,0,34,0,,,,,,,,,,,,,,,,,,,,,,1500.397177199833,None,,,,,,,,,,,,,,,,,review,176,35,silent,new,null,1497.6352741001174,None,1497.6352741001174,None,3,1.6692256005480886,1497.6352741001174,None,1.6692256005480886,1499.3390122996643,None,1499.8504403997213,None,1499.8504403997213,None,f,0.5100367004051805,1499.8504403997213,None,0.5100367004051805,,,100Silent,001,2022_Nov_28_1315,ProdSingRedoBetween,2021.2.3,60.19809992998803,
,,,,35,0,35,0,,,,,,,,,,,,,,,,,,,,,,1504.0703413998708,None,,,,,,,,,,,,,,,,,clear,132,36,silent,new,null,1500.9094124995172,None,1500.9094124995172,None,4,2.2670199992135167,1500.9094124995172,None,2.2670199992135167,1503.2039150996134,None,1503.7191963996738,None,1503.7191963996738,None,f,0.32136410009115934,1503.7191963996738,None,0.32136410009115934,,,100Silent,001,2022_Nov_28_1315,ProdSingRedoBetween,2021.2.3,60.19809992998803,
,,,,36,0,36,0,,,,,,,,,,,,,,,,,,,,,,1506.8225617995486,None,,,,,,,,,,,,,,,,,pancakes,50,37,silent,old,blue,1504.5729756997898,None,1504.5729756997898,None,1,1.331398899666965,1504.5729756997898,None,1.331398899666965,1505.9251584000885,None,1506.4390591997653,None,1506.4390591997653,None,n,0.36139189917594194,1506.4390591997653,None,0.36139189917594194,,,100Silent,001,2022_Nov_28_1315,ProdSingRedoBetween,2021.2.3,60.19809992998803,
,,,,37,0,37,0,,,,,,,,,,,,,,,,,,,,,,1509.8421427998692,None,,,,,,,,,,,,,,,,,curve,98,38,silent,new,null,1507.327941100113,None,1507.327941100113,None,1,1.5287560997530818,1507.327941100113,None,1.5287560997530818,1508.8775915997103,None,1509.3918722001836,None,1509.3918722001836,None,n,0.4326729001477361,1509.3918722001836,None,0.4326729001477361,,,100Silent,001,2022_Nov_28_1315,ProdSingRedoBetween,2021.2.3,60.19809992998803,
,,,,38,0,38,0,,,,,,,,,,,,,,,,,,,,,,1512.3960891999304,None,,,,,,,,,,,,,,,,,corner,105,39,silent,new,null,1510.344245299697,None,1510.344245299697,None,2,1.3041652999818325,1510.344245299697,None,1.3041652999818325,1511.679016799666,None,1512.1939249001443,None,1512.1939249001443,None,n,0.17457570042461157,1512.1939249001443,None,0.17457570042461157,,,100Silent,001,2022_Nov_28_1315,ProdSingRedoBetween,2021.2.3,60.19809992998803,
,,,,39,0,39,0,,,,,,,,,,,,,,,,,,,,,,1516.2531286003068,None,,,,,,,,,,,,,,,,,industry,118,40,silent,new,null,1512.92141839955,None,1512.92141839955,None,6,2.3509526001289487,1512.92141839955,None,2.3509526001289487,1515.3006699997932,None,1515.8158836998045,None,1515.8158836998045,None,r,0.41651799995452166,1515.8158836998045,None,0.41651799995452166,,,100Silent,001,2022_Nov_28_1315,ProdSingRedoBetween,2021.2.3,60.19809992998803,
,,,,40,0,40,0,,,,,,,,,,,,,,,,,,,,,,1520.035904600285,None,,,,,,,,,,,,,,,,,level,154,41,silent,new,null,1516.7694314001128,None,1516.7694314001128,None,2,1.823102300055325,1516.7694314001128,None,1.823102300055325,1518.6247915001586,None,1519.1347193000838,None,1519.1347193000838,None,n,0.8737236000597477,1519.1347193000838,None,0.8737236000597477,,,100Silent,001,2022_Nov_28_1315,ProdSingRedoBetween,2021.2.3,60.19809992998803,
,,,,41,0,41,0,,,,,,,,,,,,,,,,,,,,,,1522.7729284996167,None,,,,,,,,,,,,,,,,,permit,66,42,silent,old,red,1520.538429999724,None,1520.538429999724,None,1,1.262347100302577,1520.538429999724,None,1.262347100302577,1521.8228954002261,None,1522.3379308003932,None,1522.3379308003932,None,n,0.4065947998315096,1522.3379308003932,None,0.4065947998315096,,,100Silent,001,2022_Nov_28_1315,ProdSingRedoBetween,2021.2.3,60.19809992998803,
,,,,42,0,42,0,,,,,,,,,,,,,,,,,,,,,,1525.9586335998029,None,,,,,,,,,,,,,,,,,question,62,43,silent,old,red,1523.2907200995833,None,1523.2907200995833,None,6,1.7896529007703066,1523.2907200995833,None,1.7896529007703066,1525.110440700315,None,1525.6257504997775,None,1525.6257504997775,None,r,0.31065369956195354,1525.6257504997775,None,0.31065369956195354,,,100Silent,001,2022_Nov_28_1315,ProdSingRedoBetween,2021.2.3,60.19809992998803,
,,,,43,0,43,0,,,,,,,,,,,,,,,,,,,,,,1528.5454043997452,None,,,,,,,,,,,,,,,,,threat,111,44,silent,new,null,1526.4619153002277,None,1526.4619153002277,None,1,1.1305595999583602,1526.4619153002277,None,1.1305595999583602,1527.6109279002994,None,1528.1234641997144,None,1528.1234641997144,None,n,0.405073800124228,1528.1234641997144,None,0.405073800124228,,,100Silent,001,2022_Nov_28_1315,ProdSingRedoBetween,2021.2.3,60.19809992998803,
,,,,44,0,44,0,,,,,,,,,,,,,,,,,,,,,,1531.9651926001534,None,,,,,,,,,,,,,,,,,comedy,43,45,silent,old,blue,1529.061843100004,None,1529.061843100004,None,4,2.0585321001708508,1529.061843100004,None,2.0585321001708508,1531.1541288997978,None,1531.6639924999326,None,1531.6639924999326,None,f,0.2723946999758482,1531.6639924999326,None,0.2723946999758482,,,100Silent,001,2022_Nov_28_1315,ProdSingRedoBetween,2021.2.3,60.19809992998803,
,,,,45,0,45,0,,,,,,,,,,,,,,,,,,,,,,1534.8357100998983,None,,,,,,,,,,,,,,,,,management,20,46,silent,old,yellow,1532.4690201003104,None,1532.4690201003104,None,3,1.6437218999490142,1532.4690201003104,None,1.6437218999490142,1534.1358529003337,None,1534.6500723995268,None,1534.6500723995268,None,f,0.15851559955626726,1534.6500723995268,None,0.15851559955626726,,,100Silent,001,2022_Nov_28_1315,ProdSingRedoBetween,2021.2.3,60.19809992998803,
,,,,46,0,46,0,,,,,,,,,,,,,,,,,,,,,,1537.9567411001772,None,,,,,,,,,,,,,,,,,ground,59,47,silent,old,yellow,1535.3600618997589,None,1535.3600618997589,None,1,1.6404112996533513,1535.3600618997589,None,1.6404112996533513,1537.0215622000396,None,1537.5370669998229,None,1537.5370669998229,None,n,0.3995126998052001,1537.5370669998229,None,0.3995126998052001,,,100Silent,001,2022_Nov_28_1315,ProdSingRedoBetween,2021.2.3,60.19809992998803,
,,,,47,0,47,0,,,,,,,,,,,,,,,,,,,,,,1541.074483900331,None,,,,,,,,,,,,,,,,,foundation,73,48,silent,old,red,1538.4733456000686,None,1538.4733456000686,None,1,1.6313217002898455,1538.4733456000686,None,1.6313217002898455,1540.12528450042,None,1540.6406220998615,None,1540.6406220998615,None,n,0.4159043999388814,1540.6406220998615,None,0.4159043999388814,,,100Silent,001,2022_Nov_28_1315,ProdSingRedoBetween,2021.2.3,60.19809992998803,
,,,,48,0,48,0,,,,,,,,,,,,,,,,,,,,,,1543.8777550999075,None,,,,,,,,,,,,,,,,,block,63,49,silent,old,red,1541.5932790003717,None,1541.5932790003717,None,6,1.5511496998369694,1541.5932790003717,None,1.5511496998369694,1543.1771336002275,None,1543.6920406995341,None,1543.6920406995341,None,r,0.15634780004620552,1543.6920406995341,None,0.15634780004620552,,,100Silent,001,2022_Nov_28_1315,ProdSingRedoBetween,2021.2.3,60.19809992998803,
,,,,49,0,49,0,,,,,,,,,,,,,,,,,,,,,,1546.607415200211,None,,,,,,,,,,,,,,,,,surprise,145,50,silent,new,null,1544.410149199888,None,1544.410149199888,None,3,1.48623130004853,1544.410149199888,None,1.48623130004853,1545.9307073000818,None,1546.4477783003822,None,1546.4477783003822,None,f,0.13708810042589903,1546.4477783003822,None,0.13708810042589903,,,100Silent,001,2022_Nov_28_1315,ProdSingRedoBetween,2021.2.3,60.19809992998803,
,,,,50,0,50,0,,,,,,,,,,,,,,,,,,,,,,1550.3127872003242,None,,,,,,,,,,,,,,,,,range,136,51,silent,new,null,1547.1216228995472,None,1547.1216228995472,None,2,1.1347789000719786,1547.1216228995472,None,1.1347789000719786,1548.2837442001328,None,1548.799080199562,None,1548.799080199562,None,n,1.4813757995143533,1548.799080199562,None,1.4813757995143533,,,100Silent,001,2022_Nov_28_1315,ProdSingRedoBetween,2021.2.3,60.19809992998803,
,,,,51,0,51,0,,,,,,,,,,,,,,,,,,,,,,1553.1022025002167,None,,,,,,,,,,,,,,,,,property,51,52,silent,old,blue,1550.8180972998962,None,1550.8180972998962,None,6,1.4944192999973893,1550.8180972998962,None,1.4944192999973893,1552.3431746000424,None,1552.8514448003843,None,1552.8514448003843,None,r,0.22100909985601902,1552.8514448003843,None,0.22100909985601902,,,100Silent,001,2022_Nov_28_1315,ProdSingRedoBetween,2021.2.3,60.19809992998803,
,,,,52,0,52,0,,,,,,,,,,,,,,,,,,,,,,1556.7223370997235,None,,,,,,,,,,,,,,,,,majority,141,53,silent,new,null,1553.617510500364,None,1553.617510500364,None,6,1.9268246004357934,1553.617510500364,None,1.9268246004357934,1555.5753509998322,None,1556.0889362003654,None,1556.0889362003654,None,r,0.5917646996676922,1556.0889362003654,None,0.5917646996676922,,,100Silent,001,2022_Nov_28_1315,ProdSingRedoBetween,2021.2.3,60.19809992998803,
,,,,53,0,53,0,,,,,,,,,,,,,,,,,,,,,,1559.69339890033,None,,,,,,,,,,,,,,,,,election,29,54,silent,old,blue,1557.2270748000592,None,1557.2270748000592,None,6,1.5893170004710555,1557.2270748000592,None,1.5893170004710555,1558.842413299717,None,1559.3580913003534,None,1559.3580913003534,None,r,0.314572399482131,1559.3580913003534,None,0.314572399482131,,,100Silent,001,2022_Nov_28_1315,ProdSingRedoBetween,2021.2.3,60.19809992998803,
,,,,54,0,54,0,,,,,,,,,,,,,,,,,,,,,,1562.8967139003798,None,,,,,,,,,,,,,,,,,state,177,55,silent,new,null,1560.215815199539,None,1560.215815199539,None,4,1.856560499407351,1560.215815199539,None,1.856560499407351,1562.0967597998679,None,1562.610698999837,None,1562.610698999837,None,f,0.25371919944882393,1562.610698999837,None,0.25371919944882393,,,100Silent,001,2022_Nov_28_1315,ProdSingRedoBetween,2021.2.3,60.19809992998803,
,,,,55,0,55,0,,,,,,,,,,,,,,,,,,,,,,1565.94496480003,None,,,,,,,,,,,,,,,,,season,101,56,silent,new,null,1563.4260160000995,None,1563.4260160000995,None,2,1.4383809994906187,1563.4260160000995,None,1.4383809994906187,1564.88174850028,None,1565.3976226998493,None,1565.3976226998493,None,n,0.5150362998247147,1565.3976226998493,None,0.5150362998247147,,,100Silent,001,2022_Nov_28_1315,ProdSingRedoBetween,2021.2.3,60.19809992998803,
,,,,56,0,56,0,,,,,,,,,,,,,,,,,,,,,,1568.9855821002275,None,,,,,,,,,,,,,,,,,growth,26,57,silent,old,yellow,1566.450856800191,None,1566.450856800191,None,6,1.5735988998785615,1566.450856800191,None,1.5735988998785615,1568.0583760999143,None,1568.5672326004133,None,1568.5672326004133,None,r,0.38520949985831976,1568.5672326004133,None,0.38520949985831976,,,100Silent,001,2022_Nov_28_1315,ProdSingRedoBetween,2021.2.3,60.19809992998803,
,,,,57,0,57,0,,,,,,,,,,,,,,,,,,,,,,1572.184552599676,None,,,,,,,,,,,,,,,,,device,150,58,silent,new,null,1569.503545699641,None,1569.503545699641,None,1,1.5208701994270086,1569.503545699641,None,1.5208701994270086,1571.055028299801,None,1571.570086799562,None,1571.570086799562,None,n,0.5742606008425355,1571.570086799562,None,0.5742606008425355,,,100Silent,001,2022_Nov_28_1315,ProdSingRedoBetween,2021.2.3,60.19809992998803,
,,,,58,0,58,0,,,,,,,,,,,,,,,,,,,,,,1575.0088889999315,None,,,,,,,,,,,,,,,,,evidence,36,59,silent,old,blue,1572.6897678002715,None,1572.6897678002715,None,6,1.4945944007486105,1572.6897678002715,None,1.4945944007486105,1574.2126633003354,None,1574.7236896995455,None,1574.7236896995455,None,r,0.2607377003878355,1574.7236896995455,None,0.2607377003878355,,,100Silent,001,2022_Nov_28_1315,ProdSingRedoBetween,2021.2.3,60.19809992998803,
,,,,59,0,59,0,,,,,,,,,,,,,,,,,,,,,,1579.5132846999913,None,,,,,,,,,,,,,,,,,reach,138,60,silent,new,null,1575.5352723002434,None,1575.5352723002434,None,1,2.8895843997597694,1575.5352723002434,None,2.8895843997597694,1578.4569610999897,None,1578.9609473003075,None,1578.9609473003075,None,n,0.5193575993180275,1578.9609473003075,None,0.5193575993180275,,,100Silent,001,2022_Nov_28_1315,ProdSingRedoBetween,2021.2.3,60.19809992998803,
,,,,60,0,60,0,,,,,,,,,,,,,,,,,,,,,,1585.0184119995683,None,,,,,,,,,,,,,,,,,break,159,61,silent,new,null,1580.0307347998023,None,1580.0307347998023,None,6,4.121610900387168,1580.0307347998023,None,4.121610900387168,1584.1842810995877,None,1584.6918088998646,None,1584.6918088998646,None,r,0.30074930004775524,1584.6918088998646,None,0.30074930004775524,,,100Silent,001,2022_Nov_28_1315,ProdSingRedoBetween,2021.2.3,60.19809992998803,
,,,,61,0,61,0,,,,,,,,,,,,,,,,,,,,,,1587.93778750021,None,,,,,,,,,,,,,,,,,country,96,62,silent,new,null,1585.5364525998011,None,1585.5364525998011,None,1,1.5278125992044806,1585.5364525998011,None,1.5278125992044806,1587.0875466000289,None,1587.603072100319,None,1587.603072100319,None,n,0.3172534005716443,1587.603072100319,None,0.3172534005716443,,,100Silent,001,2022_Nov_28_1315,ProdSingRedoBetween,2021.2.3,60.19809992998803,
,,,,62,0,62,0,,,,,,,,,,,,,,,,,,,,,,1591.4908747002482,None,,,,,,,,,,,,,,,,,turkey,166,63,silent,new,null,1588.4735159995034,None,1588.4735159995034,None,1,2.1587990000844,1588.4735159995034,None,2.1587990000844,1590.6698976997286,None,1591.1730001997203,None,1591.1730001997203,None,n,0.29142559971660376,1591.1730001997203,None,0.29142559971660376,,,100Silent,001,2022_Nov_28_1315,ProdSingRedoBetween,2021.2.3,60.19809992998803,
,,,,63,0,63,0,,,,,,,,,,,,,,,,,,,,,,1595.7956528998911,None,,,,,,,,,,,,,,,,,strain,171,64,silent,new,null,1591.9968622000888,None,1591.9968622000888,None,4,3.0353807006031275,1591.9968622000888,None,3.0353807006031275,1595.0626087998971,None,1595.5774469003081,None,1595.5774469003081,None,f,0.19915129989385605,1595.5774469003081,None,0.19915129989385605,,,100Silent,001,2022_Nov_28_1315,ProdSingRedoBetween,2021.2.3,60.19809992998803,
,,,,64,0,64,0,,,,,,,,,,,,,,,,,,,,,,1599.1476367004216,None,,,,,,,,,,,,,,,,,solution,142,65,silent,new,null,1596.324950600043,None,1596.324950600043,None,6,1.5633396999910474,1596.324950600043,None,1.5633396999910474,1597.9151767995209,None,1598.4316771999002,None,1598.4316771999002,None,r,0.6970287999138236,1598.4316771999002,None,0.6970287999138236,,,100Silent,001,2022_Nov_28_1315,ProdSingRedoBetween,2021.2.3,60.19809992998803,
,,,,65,0,65,0,,,,,,,,,,,,,,,,,,,,,,1601.8346806000918,None,,,,,,,,,,,,,,,,,household,4,66,silent,old,yellow,1599.6505399998277,None,1599.6505399998277,None,1,1.2138288002461195,1599.6505399998277,None,1.2138288002461195,1600.8849173001945,None,1601.4000257998705,None,1601.4000257998705,None,n,0.41638930048793554,1601.4000257998705,None,0.41638930048793554,,,100Silent,001,2022_Nov_28_1315,ProdSingRedoBetween,2021.2.3,60.19809992998803,
,,,,66,0,66,0,,,,,,,,,,,,,,,,,,,,,,1604.9550390997902,None,,,,,,,,,,,,,,,,,literature,162,67,silent,new,null,1602.3411806998774,None,1602.3411806998774,None,1,1.6434030998498201,1602.3411806998774,None,1.6434030998498201,1604.006784199737,None,1604.531895400025,None,1604.531895400025,None,n,0.3966088006272912,1604.531895400025,None,0.3966088006272912,,,100Silent,001,2022_Nov_28_1315,ProdSingRedoBetween,2021.2.3,60.19809992998803,
,,,,67,0,67,0,,,,,,,,,,,,,,,,,,,,,,1609.2425258001313,None,,,,,,,,,,,,,,,,,vision,24,68,silent,old,yellow,1605.4727298999205,None,1605.4727298999205,None,3,2.135617100633681,1605.4727298999205,None,2.135617100633681,1607.6458863001317,None,1608.15715430025,None,1608.15715430025,None,f,1.0671759992837906,1608.15715430025,None,1.0671759992837906,,,100Silent,001,2022_Nov_28_1315,ProdSingRedoBetween,2021.2.3,60.19809992998803,
,,,,68,0,68,0,,,,,,,,,,,,,,,,,,,,,,1612.3617663001642,None,,,,,,,,,,,,,,,,,patient,1,69,silent,old,yellow,1609.7446977999061,None,1609.7446977999061,None,6,1.7279147002846003,1609.7446977999061,None,1.7279147002846003,1611.4955430002883,None,1612.0107273999602,None,1612.0107273999602,None,r,0.3257027007639408,1612.0107273999602,None,0.3257027007639408,,,100Silent,001,2022_Nov_28_1315,ProdSingRedoBetween,2021.2.3,60.19809992998803,
,,,,69,0,69,0,,,,,,,,,,,,,,,,,,,,,,1618.9693838004023,None,,,,,,,,,,,,,,,,,crisis,175,70,silent,new,null,1612.863893199712,None,1612.863893199712,None,1,5.264390599913895,1612.863893199712,None,5.264390599913895,1618.1520534995943,None,1618.6671900004148,None,1618.6671900004148,None,n,0.27715850062668324,1618.6671900004148,None,0.27715850062668324,,,100Silent,001,2022_Nov_28_1315,ProdSingRedoBetween,2021.2.3,60.19809992998803,
,,,,70,0,70,0,,,,,,,,,,,,,,,,,,,,,,1623.709053300321,None,,,,,,,,,,,,,,,,,order,113,71,silent,new,null,1619.491213900037,None,1619.491213900037,None,6,3.477366500534117,1619.491213900037,None,3.477366500534117,1622.9916410995647,None,1623.5048599997535,None,1623.5048599997535,None,r,0.18355169985443354,1623.5048599997535,None,0.18355169985443354,,,100Silent,001,2022_Nov_28_1315,ProdSingRedoBetween,2021.2.3,60.19809992998803,
,,,,71,0,71,0,,,,,,,,,,,,,,,,,,,,,,1626.7094363998622,None,,,,,,,,,,,,,,,,,damage,27,72,silent,old,yellow,1624.2365776002407,None,1624.2365776002407,None,1,1.5316794998943806,1624.2365776002407,None,1.5316794998943806,1625.7930659996346,None,1626.307891299948,None,1626.307891299948,None,n,0.37231440003961325,1626.307891299948,None,0.37231440003961325,,,100Silent,001,2022_Nov_28_1315,ProdSingRedoBetween,2021.2.3,60.19809992998803,
,,,,72,0,72,0,,,,,,,,,,,,,,,,,,,,,,1630.2968277996406,None,,,,,,,,,,,,,,,,,report,161,73,silent,new,null,1627.2126126997173,None,1627.2126126997173,None,4,2.3317304998636246,1627.2126126997173,None,2.3317304998636246,1629.563537900336,None,1630.0790357999504,None,1630.0790357999504,None,f,0.18525330070406199,1630.0790357999504,None,0.18525330070406199,,,100Silent,001,2022_Nov_28_1315,ProdSingRedoBetween,2021.2.3,60.19809992998803,
,,,,73,0,73,0,,,,,,,,,,,,,,,,,,,,,,1633.2170265000314,None,,,,,,,,,,,,,,,,,height,112,74,silent,new,null,1630.82506539952,None,1630.82506539952,None,1,1.4552932996302843,1630.82506539952,None,1.4552932996302843,1632.3017905000597,None,1632.81718620006,None,1632.81718620006,None,n,0.37512069940567017,1632.81718620006,None,0.37512069940567017,,,100Silent,001,2022_Nov_28_1315,ProdSingRedoBetween,2021.2.3,60.19809992998803,
,,,,74,0,74,0,,,,,,,,,,,,,,,,,,,,,,1636.8037067996338,None,,,,,,,,,,,,,,,,,resistance,9,75,silent,old,yellow,1633.733765900135,None,1633.733765900135,None,6,2.2666341001167893,1633.733765900135,None,2.2666341001167893,1636.0231844000518,None,1636.5355118997395,None,1636.5355118997395,None,r,0.24900779966264963,1636.5355118997395,None,0.24900779966264963,,,100Silent,001,2022_Nov_28_1315,ProdSingRedoBetween,2021.2.3,60.19809992998803,
,,,,75,0,75,0,,,,,,,,,,,,,,,,,,,,,,1639.706200500019,None,,,,,,,,,,,,,,,,,benefit,127,76,silent,new,null,1637.3319247001782,None,1637.3319247001782,None,1,1.5163238998502493,1637.3319247001782,None,1.5163238998502493,1638.8738419003785,None,1639.387987400405,None,1639.387987400405,None,n,0.29228900000452995,1639.387987400405,None,0.29228900000452995,,,100Silent,001,2022_Nov_28_1315,ProdSingRedoBetween,2021.2.3,60.19809992998803,
,,,,76,0,76,0,,,,,,,,,,,,,,,,,,,,,,1642.3923455001786,None,,,,,,,,,,,,,,,,,passage,53,77,silent,old,blue,1640.2310338998213,None,1640.2310338998213,None,3,1.4971627993509173,1640.2310338998213,None,1.4971627993509173,1641.7689688000828,None,1642.2749554999173,None,1642.2749554999173,None,f,0.09325379971414804,1642.2749554999173,None,0.09325379971414804,,,100Silent,001,2022_Nov_28_1315,ProdSingRedoBetween,2021.2.3,60.19809992998803,
,,,,77,0,77,0,,,,,,,,,,,,,,,,,,,,,,1645.6786661995575,None,,,,,,,,,,,,,,,,,production,92,78,silent,new,null,1642.9097108002752,None,1642.9097108002752,None,1,1.8425428001210093,1642.9097108002752,None,1.8425428001210093,1644.7791131995618,None,1645.2942636003718,None,1645.2942636003718,None,n,0.3620783993974328,1645.2942636003718,None,0.3620783993974328,,,100Silent,001,2022_Nov_28_1315,ProdSingRedoBetween,2021.2.3,60.19809992998803,
,,,,78,0,78,0,,,,,,,,,,,,,,,,,,,,,,1648.7600108003244,None,,,,,,,,,,,,,,,,,school,86,79,silent,old,red,1646.1892806999385,None,1646.1892806999385,None,6,1.610877899453044,1646.1892806999385,None,1.610877899453044,1647.8325121998787,None,1648.3467677002773,None,1648.3467677002773,None,r,0.38230039924383163,1648.3467677002773,None,0.38230039924383163,,,100Silent,001,2022_Nov_28_1315,ProdSingRedoBetween,2021.2.3,60.19809992998803,
,,,,79,0,79,0,,,,,,,,,,,,,,,,,,,,,,1652.2845313996077,None,,,,,,,,,,,,,,,,,debate,28,80,silent,old,yellow,1649.2666860995814,None,1649.2666860995814,None,4,2.293565600179136,1649.2666860995814,None,2.293565600179136,1651.586154599674,None,1652.1000674003735,None,1652.1000674003735,None,f,0.1644602995365858,1652.1000674003735,None,0.1644602995365858,,,100Silent,001,2022_Nov_28_1315,ProdSingRedoBetween,2021.2.3,60.19809992998803,
,,,,80,0,80,0,,,,,,,,,,,,,,,,,,,,,,1656.973697599955,None,,,,,,,,,,,,,,,,,pretty,90,81,silent,new,null,1652.7904145000502,None,1652.7904145000502,None,6,3.3697621999308467,1652.7904145000502,None,3.3697621999308467,1656.191526000388,None,1656.7056312998757,None,1656.7056312998757,None,r,0.23853019997477531,1656.7056312998757,None,0.23853019997477531,,,100Silent,001,2022_Nov_28_1315,ProdSingRedoBetween,2021.2.3,60.19809992998803,
,,,,81,0,81,0,,,,,,,,,,,,,,,,,,,,,,1659.7251370996237,None,,,,,,,,,,,,,,,,,engineer,165,82,silent,new,null,1657.501509799622,None,1657.501509799622,None,1,1.330945000052452,1657.501509799622,None,1.330945000052452,1658.8601607000455,None,1659.3767967997119,None,1659.3767967997119,None,n,0.31941340025514364,1659.3767967997119,None,0.31941340025514364,,,100Silent,001,2022_Nov_28_1315,ProdSingRedoBetween,2021.2.3,60.19809992998803,
,,,,82,0,82,0,,,,,,,,,,,,,,,,,,,,,,1662.8124644001946,None,,,,,,,,,,,,,,,,,produce,137,83,silent,new,null,1660.2278568996117,None,1660.2278568996117,None,4,1.9162689000368118,1660.2278568996117,None,1.9162689000368118,1662.1629127999768,None,1662.6778333997354,None,1662.6778333997354,None,f,0.11458580009639263,1662.6778333997354,None,0.11458580009639263,,,100Silent,001,2022_Nov_28_1315,ProdSingRedoBetween,2021.2.3,60.19809992998803,
,,,,83,0,83,0,,,,,,,,,,,,,,,,,,,,,,1665.6652819998562,None,,,,,,,,,,,,,,,,,dance,178,84,silent,new,null,1663.3293917002156,None,1663.3293917002156,None,6,1.654857899993658,1663.3293917002156,None,1.654857899993658,1665.0141978003085,None,1665.5146990995854,None,1665.5146990995854,None,n,0.11768219992518425,1665.5146990995854,None,0.11768219992518425,,,100Silent,001,2022_Nov_28_1315,ProdSingRedoBetween,2021.2.3,60.19809992998803,
,,,,84,0,84,0,,,,,,,,,,,,,,,,,,,,,,1668.584891599603,None,,,,,,,,,,,,,,,,,rough,69,85,silent,old,red,1666.1739528002217,None,1666.1739528002217,None,6,1.4504378996789455,1666.1739528002217,None,1.4504378996789455,1667.6537851002067,None,1668.1674403995275,None,1668.1674403995275,None,r,0.40089309960603714,1668.1674403995275,None,0.40089309960603714,,,100Silent,001,2022_Nov_28_1315,ProdSingRedoBetween,2021.2.3,60.19809992998803,
,,,,85,0,85,0,,,,,,,,,,,,,,,,,,,,,,1673.0896039996296,None,,,,,,,,,,,,,,,,,capital,22,86,silent,old,yellow,1669.0885444004089,None,1669.0885444004089,None,5,2.6076494995504618,1669.0885444004089,None,2.6076494995504618,1671.72237220034,None,1672.2422877000645,None,1672.2422877000645,None,r,0.8298790995031595,1672.2422877000645,None,0.8298790995031595,,,100Silent,001,2022_Nov_28_1315,ProdSingRedoBetween,2021.2.3,60.19809992998803,
,,,,86,0,86,0,,,,,,,,,,,,,,,,,,,,,,1676.1751260003075,None,,,,,,,,,,,,,,,,,speech,91,87,silent,new,null,1673.60752759967,None,1673.60752759967,None,5,1.800674700178206,1673.60752759967,None,1.800674700178206,1675.4263465004042,None,1675.9413347002119,None,1675.9413347002119,None,r,0.20291110035032034,1675.9413347002119,None,0.20291110035032034,,,100Silent,001,2022_Nov_28_1315,ProdSingRedoBetween,2021.2.3,60.19809992998803,
,,,,87,0,87,0,,,,,,,,,,,,,,,,,,,,,,1679.3648451995105,None,,,,,,,,,,,,,,,,,background,110,88,silent,new,null,1676.6776900002733,None,1676.6776900002733,None,3,1.898662599734962,1676.6776900002733,None,1.898662599734962,1678.595611100085,None,1679.117656399496,None,1679.117656399496,None,f,0.22676730062812567,1679.117656399496,None,0.22676730062812567,,,100Silent,001,2022_Nov_28_1315,ProdSingRedoBetween,2021.2.3,60.19809992998803,
,,,,88,0,88,0,,,,,,,,,,,,,,,,,,,,,,1683.2493557995185,None,,,,,,,,,,,,,,,,,guest,57,89,silent,old,blue,1679.8831508001313,None,1679.8831508001313,None,2,2.421011100523174,1679.8831508001313,None,2.421011100523174,1682.3345467997715,None,1682.8477855995297,None,1682.8477855995297,None,n,0.3763741999864578,1682.8477855995297,None,0.3763741999864578,,,100Silent,001,2022_Nov_28_1315,ProdSingRedoBetween,2021.2.3,60.19809992998803,
,,,,89,0,89,0,,,,,,,,,,,,,,,,,,,,,,1686.1177351996303,None,,,,,,,,,,,,,,,,,throw,67,90,silent,old,red,1683.7670686999336,None,1683.7670686999336,None,2,1.6091001005843282,1683.7670686999336,None,1.6091001005843282,1685.4030222995207,None,1685.9176323004067,None,1685.9176323004067,None,n,0.1705783000215888,1685.9176323004067,None,0.1705783000215888,,,100Silent,001,2022_Nov_28_1315,ProdSingRedoBetween,2021.2.3,60.19809992998803,
,,,,90,0,90,0,,,,,,,,,,,,,,,,,,,,,,1689.839697400108,None,,,,,,,,,,,,,,,,,scale,0,91,silent,old,yellow,1686.6261607995257,None,1686.6261607995257,None,5,2.462014500051737,1686.6261607995257,None,2.462014500051737,1689.1121151996776,None,1689.6219568001106,None,1689.6219568001106,None,f,0.19430500082671642,1689.6219568001106,None,0.19430500082671642,,,100Silent,001,2022_Nov_28_1315,ProdSingRedoBetween,2021.2.3,60.19809992998803,
,,,,91,0,91,0,,,,,,,,,,,,,,,,,,,,,,1693.0438227998093,None,,,,,,,,,,,,,,,,,under,3,92,silent,old,yellow,1690.3562105996534,None,1690.3562105996534,None,6,2.0119993994012475,1690.3562105996534,None,2.0119993994012475,1692.393952799961,None,1692.9082635995,None,1692.9082635995,None,r,0.10793930012732744,1692.9082635995,None,0.10793930012732744,,,100Silent,001,2022_Nov_28_1315,ProdSingRedoBetween,2021.2.3,60.19809992998803,
,,,,92,0,92,0,,,,,,,,,,,,,,,,,,,,,,1696.3464535996318,None,,,,,,,,,,,,,,,,,store,14,93,silent,old,yellow,1693.5623353999108,None,1693.5623353999108,None,2,2.029976600781083,1693.5623353999108,None,2.029976600781083,1695.6181723996997,None,1696.1288753999397,None,1696.1288753999397,None,n,0.1913643004372716,1696.1288753999397,None,0.1913643004372716,,,100Silent,001,2022_Nov_28_1315,ProdSingRedoBetween,2021.2.3,60.19809992998803,
,,,,93,0,93,0,,,,,,,,,,,,,,,,,,,,,,1699.550979799591,None,,,,,,,,,,,,,,,,,husband,120,94,silent,new,null,1696.8635059995577,None,1696.8635059995577,None,6,2.024736799299717,1696.8635059995577,None,2.024736799299717,1698.917903199792,None,1699.4321982003748,None,1699.4321982003748,None,r,0.0962840998545289,1699.4321982003748,None,0.0962840998545289,,,100Silent,001,2022_Nov_28_1315,ProdSingRedoBetween,2021.2.3,60.19809992998803,
,,,,94,0,94,0,,,,,,,,,,,,,,,,,,,,,,1701.9852130999789,None,,,,,,,,,,,,,,,,,notice,94,95,silent,new,null,1700.0667102998123,None,1700.0667102998123,None,6,1.2535490998998284,1700.0667102998123,None,1.2535490998998284,1701.3522843997926,None,1701.8674804000184,None,1701.8674804000184,None,r,0.10070030018687248,1701.8674804000184,None,0.10070030018687248,,,100Silent,001,2022_Nov_28_1315,ProdSingRedoBetween,2021.2.3,60.19809992998803,
,,,,95,0,95,0,,,,,,,,,,,,,,,,,,,,,,1705.4209382003173,None,,,,,,,,,,,,,,,,,piece,41,96,silent,old,blue,1702.5023638000712,None,1702.5023638000712,None,6,1.1777445999905467,1702.5023638000712,None,1.1777445999905467,1703.7096439003944,None,1704.2191064003855,None,1704.2191064003855,None,r,1.1729441992938519,1704.2191064003855,None,1.1729441992938519,,,100Silent,001,2022_Nov_28_1315,ProdSingRedoBetween,2021.2.3,60.19809992998803,
,,,,96,0,96,0,,,,,,,,,,,,,,,,,,,,,,1707.99066090025,None,,,,,,,,,,,,,,,,,religion,34,97,silent,old,blue,1705.9262896999717,None,1705.9262896999717,None,6,1.3943267008289695,1705.9262896999717,None,1.3943267008289695,1707.341760999523,None,1707.8556933999062,None,1707.8556933999062,None,r,0.10451909992843866,1707.8556933999062,None,0.10451909992843866,,,100Silent,001,2022_Nov_28_1315,ProdSingRedoBetween,2021.2.3,60.19809992998803,
,,,,97,0,97,0,,,,,,,,,,,,,,,,,,,,,,1711.2621761998162,None,,,,,,,,,,,,,,,,,number,160,98,silent,new,null,1708.4947608998045,None,1708.4947608998045,None,6,1.2733718007802963,1708.4947608998045,None,1.2733718007802963,1709.7945694997907,None,1710.3084089998156,None,1710.3084089998156,None,r,0.92365019954741,1710.3084089998156,None,0.92365019954741,,,100Silent,001,2022_Nov_28_1315,ProdSingRedoBetween,2021.2.3,60.19809992998803,
,,,,98,0,98,0,,,,,,,,,,,,,,,,,,,,,,1714.3140022000298,None,,,,,,,,,,,,,,,,,bitter,60,99,silent,old,red,1711.7790684998035,None,1711.7790684998035,None,3,1.7331449994817376,1711.7790684998035,None,1.7331449994817376,1713.5303577994928,None,1714.0565491002053,None,1714.0565491002053,None,f,0.23169999942183495,1714.0565491002053,None,0.23169999942183495,,,100Silent,001,2022_Nov_28_1315,ProdSingRedoBetween,2021.2.3,60.19809992998803,
,,,,99,0,99,0,,,,,,,,,,,,,,,,,,,,,,1718.18330029957,None,,,,,,,,,,,,,,,,,place,78,100,silent,old,red,1714.8323983000591,None,1714.8323983000591,None,5,1.6077296994626522,1714.8323983000591,None,1.6077296994626522,1716.4665176998824,None,1716.9818393997848,None,1716.9818393997848,None,r,1.1782796001061797,1716.9818393997848,None,1.1782796001061797,,,100Silent,001,2022_Nov_28_1315,ProdSingRedoBetween,2021.2.3,60.19809992998803,
,,,,100,0,100,0,,,,,,,,,,,,,,,,,,,,,,1725.6925405999646,None,,,,,,,,,,,,,,,,,testimony,2,101,silent,old,yellow,1718.6862621000037,None,1718.6862621000037,None,6,6.025741199962795,1718.6862621000037,None,6.025741199962795,1724.7432314995676,None,1725.2571612000465,None,1725.2571612000465,None,r,0.41505909990519285,1725.2571612000465,None,0.41505909990519285,,,100Silent,001,2022_Nov_28_1315,ProdSingRedoBetween,2021.2.3,60.19809992998803,
,,,,101,0,101,0,,,,,,,,,,,,,,,,,,,,,,1728.0779683999717,None,,,,,,,,,,,,,,,,,murder,37,102,silent,old,blue,1726.2080912003294,None,1726.2080912003294,None,6,1.232387199997902,1726.2080912003294,None,1.232387199997902,1727.4618175001815,None,1727.9757733996958,None,1727.9757733996958,None,r,0.07231060042977333,1727.9757733996958,None,0.07231060042977333,,,100Silent,001,2022_Nov_28_1315,ProdSingRedoBetween,2021.2.3,60.19809992998803,
,,,,102,0,102,0,,,,,,,,,,,,,,,,,,,,,,1730.96499199979,None,,,,,,,,,,,,,,,,,beginning,173,103,silent,new,null,1728.5952549995854,None,1728.5952549995854,None,1,1.708844100125134,1728.5952549995854,None,1.708844100125134,1730.3299813997,None,1730.8458625003695,None,1730.8458625003695,None,n,0.09839379973709583,1730.8458625003695,None,0.09839379973709583,,,100Silent,001,2022_Nov_28_1315,ProdSingRedoBetween,2021.2.3,60.19809992998803,
,,,,103,0,103,0,,,,,,,,,,,,,,,,,,,,,,1733.516481200233,None,,,,,,,,,,,,,,,,,figure,72,104,silent,old,red,1731.4825531002134,None,1731.4825531002134,None,2,1.3095292001962662,1731.4825531002134,None,1.3095292001962662,1732.816494599916,None,1733.3321395004168,None,1733.3321395004168,None,n,0.1643354995176196,1733.3321395004168,None,0.1643354995176196,,,100Silent,001,2022_Nov_28_1315,ProdSingRedoBetween,2021.2.3,60.19809992998803,
,,,,104,0,104,0,,,,,,,,,,,,,,,,,,,,,,1736.2197142997757,None,,,,,,,,,,,,,,,,,cousin,121,105,silent,new,null,1734.0379494996741,None,1734.0379494996741,None,4,1.5622318992391229,1734.0379494996741,None,1.5622318992391229,1735.6194679997861,None,1736.134548299946,None,1736.134548299946,None,f,0.05770000070333481,1736.134548299946,None,0.05770000070333481,,,100Silent,001,2022_Nov_28_1315,ProdSingRedoBetween,2021.2.3,60.19809992998803,
,,,,105,0,105,0,,,,,,,,,,,,,,,,,,,,,,1739.572950899601,None,,,,,,,,,,,,,,,,,month,75,106,silent,old,red,1736.7396782999858,None,1736.7396782999858,None,4,1.9004186997190118,1736.7396782999858,None,1.9004186997190118,1738.6724797999486,None,1739.1874347999692,None,1739.1874347999692,None,f,0.3650203002616763,1739.1874347999692,None,0.3650203002616763,,,100Silent,001,2022_Nov_28_1315,ProdSingRedoBetween,2021.2.3,60.19809992998803,
,,,,106,0,106,0,,,,,,,,,,,,,,,,,,,,,,1742.241210299544,None,,,,,,,,,,,,,,,,,company,40,107,silent,old,blue,1740.1022274997085,None,1740.1022274997085,None,2,1.2978326007723808,1740.1022274997085,None,1.2978326007723808,1741.426344299689,None,1741.9405228001997,None,1741.9405228001997,None,n,0.2836003992706537,1741.9405228001997,None,0.2836003992706537,,,100Silent,001,2022_Nov_28_1315,ProdSingRedoBetween,2021.2.3,60.19809992998803,
,,,,107,0,107,0,,,,,,,,,,,,,,,,,,,,,,1745.061138600111,None,,,,,,,,,,,,,,,,,finance,158,108,silent,new,null,1742.7432688996196,None,1742.7432688996196,None,6,1.729130799882114,1742.7432688996196,None,1.729130799882114,1744.4954471997917,None,1745.0105483997613,None,1745.0105483997613,None,r,0.02152370009571314,1745.0105483997613,None,0.02152370009571314,,,100Silent,001,2022_Nov_28_1315,ProdSingRedoBetween,2021.2.3,60.19809992998803,
,,,,108,0,108,0,,,,,,,,,,,,,,,,,,,,,,1747.264482599683,None,,,,,,,,,,,,,,,,,portion,99,109,silent,new,null,1745.5654744999483,None,1745.5654744999483,None,6,1.0107454005628824,1745.5654744999483,None,1.0107454005628824,1746.599218700081,None,1747.1155810002238,None,1747.1155810002238,None,r,0.12471180036664009,1747.1155810002238,None,0.12471180036664009,,,100Silent,001,2022_Nov_28_1315,ProdSingRedoBetween,2021.2.3,60.19809992998803,
,,,,109,0,109,0,,,,,,,,,,,,,,,,,,,,,,1750.2335463995114,None,,,,,,,,,,,,,,,,,mechanical,103,110,silent,new,null,1747.7809234000742,None,1747.7809234000742,None,2,1.8112575998529792,1747.7809234000742,None,1.8112575998529792,1749.616351599805,None,1750.1315591996536,None,1750.1315591996536,None,n,0.07664599921554327,1750.1315591996536,None,0.07664599921554327,,,100Silent,001,2022_Nov_28_1315,ProdSingRedoBetween,2021.2.3,60.19809992998803,
,,,,110,0,110,0,,,,,,,,,,,,,,,,,,,,,,1754.8875967003405,None,,,,,,,,,,,,,,,,,angle,64,111,silent,old,red,1750.7656805003062,None,1750.7656805003062,None,1,3.338416500017047,1750.7656805003062,None,3.338416500017047,1754.1367477001622,None,1754.6371625997126,None,1754.6371625997126,None,n,0.22693270072340965,1754.6371625997126,None,0.22693270072340965,,,100Silent,001,2022_Nov_28_1315,ProdSingRedoBetween,2021.2.3,60.19809992998803,
,,,,111,0,111,0,,,,,,,,,,,,,,,,,,,,,,1757.8262665001675,None,,,,,,,,,,,,,,,,,strength,25,112,silent,old,yellow,1755.3910953998566,None,1755.3910953998566,None,6,1.4810774000361562,1755.3910953998566,None,1.4810774000361562,1756.897662700154,None,1757.4075983995572,None,1757.4075983995572,None,r,0.39263790007680655,1757.4075983995572,None,0.39263790007680655,,,100Silent,001,2022_Nov_28_1315,ProdSingRedoBetween,2021.2.3,60.19809992998803,
,,,,112,0,112,0,,,,,,,,,,,,,,,,,,,,,,1760.559534500353,None,,,,,,,,,,,,,,,,,center,130,113,silent,new,null,1758.3431652998552,None,1758.3431652998552,None,1,1.3849280998110771,1758.3431652998552,None,1.3849280998110771,1759.7644109996036,None,1760.2746703997254,None,1760.2746703997254,None,n,0.25343700032681227,1760.2746703997254,None,0.25343700032681227,,,100Silent,001,2022_Nov_28_1315,ProdSingRedoBetween,2021.2.3,60.19809992998803,
,,,,113,0,113,0,,,,,,,,,,,,,,,,,,,,,,1763.346257600002,None,,,,,,,,,,,,,,,,,machinery,147,114,silent,new,null,1761.0630326000974,None,1761.0630326000974,None,6,1.6972405007109046,1761.0630326000974,None,1.6972405007109046,1762.7795957997441,None,1763.2961751995608,None,1763.2961751995608,None,r,0.032061400823295116,1763.2961751995608,None,0.032061400823295116,,,100Silent,001,2022_Nov_28_1315,ProdSingRedoBetween,2021.2.3,60.19809992998803,
,,,,114,0,114,0,,,,,,,,,,,,,,,,,,,,,,1765.847740699537,None,,,,,,,,,,,,,,,,,minor,81,115,silent,old,red,1763.8636362999678,None,1763.8636362999678,None,1,1.3044706992805004,1763.8636362999678,None,1.3044706992805004,1765.1983158998191,None,1765.7139023002237,None,1765.7139023002237,None,n,0.10213770065456629,1765.7139023002237,None,0.10213770065456629,,,100Silent,001,2022_Nov_28_1315,ProdSingRedoBetween,2021.2.3,60.19809992998803,
,,,,115,0,115,0,,,,,,,,,,,,,,,,,,,,,,1768.2926976997405,None,,,,,,,,,,,,,,,,,government,68,116,silent,old,red,1766.3502203002572,None,1766.3502203002572,None,1,1.2496664002537727,1766.3502203002572,None,1.2496664002537727,1767.6185082998127,None,1768.1339247999713,None,1768.1339247999713,None,n,0.1220642002299428,1768.1339247999713,None,0.1220642002299428,,,100Silent,001,2022_Nov_28_1315,ProdSingRedoBetween,2021.2.3,60.19809992998803,
,,,,116,0,116,0,,,,,,,,,,,,,,,,,,,,,,1771.3871309002861,None,,,,,,,,,,,,,,,,,dream,84,117,silent,old,red,1768.8020166996866,None,1768.8020166996866,None,6,1.9339103996753693,1768.8020166996866,None,1.9339103996753693,1770.7552498001605,None,1771.2708013998345,None,1771.2708013998345,None,r,0.08920799940824509,1771.2708013998345,None,0.08920799940824509,,,100Silent,001,2022_Nov_28_1315,ProdSingRedoBetween,2021.2.3,60.19809992998803,
,,,,117,0,117,0,,,,,,,,,,,,,,,,,,,,,,1773.7550411000848,None,,,,,,,,,,,,,,,,,trend,151,118,silent,new,null,1771.902988200076,None,1771.902988200076,None,6,1.1930940998718143,1771.902988200076,None,1.1930940998718143,1773.1240250999108,None,1773.6424388000742,None,1773.6424388000742,None,r,0.06988249998539686,1773.6424388000742,None,0.06988249998539686,,,100Silent,001,2022_Nov_28_1315,ProdSingRedoBetween,2021.2.3,60.19809992998803,
,,,,118,0,118,0,,,,,,,,,,,,,,,,,,,,,,1776.0037979995832,None,,,,,,,,,,,,,,,,,grade,74,119,silent,old,red,1774.2622870998457,None,1774.2622870998457,None,1,1.1137499995529652,1774.2622870998457,None,1.1137499995529652,1775.4079499999061,None,1775.9330649999902,None,1775.9330649999902,None,n,0.03524050023406744,1775.9330649999902,None,0.03524050023406744,,,100Silent,001,2022_Nov_28_1315,ProdSingRedoBetween,2021.2.3,60.19809992998803,
,,,,119,0,119,0,,,,,,,,,,,,,,,,,,,,,,1778.8635050002486,None,,,,,,,,,,,,,,,,,length,21,120,silent,old,yellow,1776.5096063995734,None,1776.5096063995734,None,3,1.6504234001040459,1776.5096063995734,None,1.6504234001040459,1778.177990499884,None,1778.6957440003753,None,1778.6957440003753,None,f,0.1363566005602479,1778.6957440003753,None,0.1363566005602479,,,100Silent,001,2022_Nov_28_1315,ProdSingRedoBetween,2021.2.3,60.19809992998803,
,,,,120,0,120,0,,,,,,,,,,,,,,,,,,,,,,1782.6325529003516,None,,,,,,,,,,,,,,,,,bright,83,121,silent,old,red,1779.3793083997443,None,1779.3793083997443,None,1,2.5406651003286242,1779.3793083997443,None,2.5406651003286242,1781.9479561997578,None,1782.4504094002768,None,1782.4504094002768,None,n,0.15770199988037348,1782.4504094002768,None,0.15770199988037348,,,100Silent,001,2022_Nov_28_1315,ProdSingRedoBetween,2021.2.3,60.19809992998803,
,,,,121,0,121,0,,,,,,,,,,,,,,,,,,,,,,1785.2349263997748,None,,,,,,,,,,,,,,,,,audience,149,122,silent,new,null,1783.1528839003295,None,1783.1528839003295,None,6,1.4391255006194115,1783.1528839003295,None,1.4391255006194115,1784.6172569002956,None,1785.1329421000555,None,1785.1329421000555,None,r,0.07514400035142899,1785.1329421000555,None,0.07514400035142899,,,100Silent,001,2022_Nov_28_1315,ProdSingRedoBetween,2021.2.3,60.19809992998803,
,,,,122,0,122,0,,,,,,,,,,,,,,,,,,,,,,1787.9331636000425,None,,,,,,,,,,,,,,,,,title,146,123,silent,new,null,1785.7524942001328,None,1785.7524942001328,None,1,1.4075370002537966,1785.7524942001328,None,1.4075370002537966,1787.1911163004115,None,1787.7032412998378,None,1787.7032412998378,None,n,0.19292829930782318,1787.7032412998378,None,0.19292829930782318,,,100Silent,001,2022_Nov_28_1315,ProdSingRedoBetween,2021.2.3,60.19809992998803,
,,,,123,0,123,0,,,,,,,,,,,,,,,,,,,,,,1790.739153300412,None,,,,,,,,,,,,,,,,,expansion,32,124,silent,old,blue,1788.438181599602,None,1788.438181599602,None,3,1.4337892001494765,1788.438181599602,None,1.4337892001494765,1789.8963260995224,None,1790.404624399729,None,1790.404624399729,None,n,0.3072758000344038,1790.404624399729,None,0.3072758000344038,,,100Silent,001,2022_Nov_28_1315,ProdSingRedoBetween,2021.2.3,60.19809992998803,
,,,,124,0,124,0,,,,,,,,,,,,,,,,,,,,,,1795.2791018001735,None,,,,,,,,,,,,,,,,,period,115,125,silent,new,null,1791.2601670995355,None,1791.2601670995355,None,6,3.380117400549352,1791.2601670995355,None,3.380117400549352,1794.6622967002913,None,1795.1765970000997,None,1795.1765970000997,None,r,0.07136380020529032,1795.1765970000997,None,0.07136380020529032,,,100Silent,001,2022_Nov_28_1315,ProdSingRedoBetween,2021.2.3,60.19809992998803,
,,,,125,0,125,0,,,,,,,,,,,,,,,,,,,,,,1798.9004376996309,None,,,,,,,,,,,,,,,,,error,85,126,silent,old,red,1795.7984822997823,None,1795.7984822997823,None,1,2.161830499768257,1795.7984822997823,None,2.161830499768257,1797.9809766998515,None,1798.4964023996145,None,1798.4964023996145,None,n,0.38388620037585497,1798.4964023996145,None,0.38388620037585497,,,100Silent,001,2022_Nov_28_1315,ProdSingRedoBetween,2021.2.3,60.19809992998803,
,,,,126,0,126,0,,,,,,,,,,,,,,,,,,,,,,1802.117022600025,None,,,,,,,,,,,,,,,,,junior,106,127,silent,new,null,1799.420743599534,None,1799.420743599534,None,1,1.9712161999195814,1799.420743599534,None,1.9712161999195814,1801.4233627999201,None,1801.9423960996792,None,1801.9423960996792,None,n,0.1539292000234127,1801.9423960996792,None,0.1539292000234127,,,100Silent,001,2022_Nov_28_1315,ProdSingRedoBetween,2021.2.3,60.19809992998803,
,,,,127,0,127,0,,,,,,,,,,,,,,,,,,,,,,1805.8175737001002,None,,,,,,,,,,,,,,,,,balance,134,128,silent,new,null,1802.6194396000355,None,1802.6194396000355,None,6,1.3405340006574988,1802.6194396000355,None,1.3405340006574988,1803.9898412004113,None,1804.5031415000558,None,1804.5031415000558,None,r,1.2810607999563217,1804.5031415000558,None,1.2810607999563217,,,100Silent,001,2022_Nov_28_1315,ProdSingRedoBetween,2021.2.3,60.19809992998803,
,,,,128,0,128,0,,,,,,,,,,,,,,,,,,,,,,1809.2250480996445,None,,,,,,,,,,,,,,,,,shear,140,129,silent,new,null,1806.3265330996364,None,1806.3265330996364,None,1,2.1294943997636437,1806.3265330996364,None,2.1294943997636437,1808.4754694998264,None,1808.9932688996196,None,1808.9932688996196,None,n,0.1987961996346712,1808.9932688996196,None,0.1987961996346712,,,100Silent,001,2022_Nov_28_1315,ProdSingRedoBetween,2021.2.3,60.19809992998803,
,,,,129,0,129,0,,,,,,,,,,,,,,,,,,,,,,1812.2441943995655,None,,,,,,,,,,,,,,,,,position,167,130,silent,new,null,1809.7429596995935,None,1809.7429596995935,None,4,1.8889552000910044,1809.7429596995935,None,1.8889552000910044,1811.6625215001404,None,1812.1766667999327,None,1812.1766667999327,None,f,0.039222199469804764,1812.1766667999327,None,0.039222199469804764,,,100Silent,001,2022_Nov_28_1315,ProdSingRedoBetween,2021.2.3,60.19809992998803,
,,,,130,0,130,0,,,,,,,,,,,,,,,,,,,,,,1816.2316370997578,None,,,,,,,,,,,,,,,,,right,100,131,silent,new,null,1812.7486309995875,None,1812.7486309995875,None,4,2.771254800260067,1812.7486309995875,None,2.771254800260067,1815.5500242998824,None,1816.0642002001405,None,1816.0642002001405,None,f,0.14368040021508932,1816.0642002001405,None,0.14368040021508932,,,100Silent,001,2022_Nov_28_1315,ProdSingRedoBetween,2021.2.3,60.19809992998803,
,,,,131,0,131,0,,,,,,,,,,,,,,,,,,,,,,1820.1020670002326,None,,,,,,,,,,,,,,,,,sight,54,132,silent,old,blue,1816.7334923995659,None,1816.7334923995659,None,3,2.594448600895703,1816.7334923995659,None,2.594448600895703,1819.3544183997437,None,1819.8685181001201,None,1819.8685181001201,None,f,0.20354499947279692,1819.8685181001201,None,0.20354499947279692,,,100Silent,001,2022_Nov_28_1315,ProdSingRedoBetween,2021.2.3,60.19809992998803,
,,,,132,0,132,0,,,,,,,,,,,,,,,,,,,,,,1823.0680815996602,None,,,,,,,,,,,,,,,,,rural,109,133,silent,new,null,1820.6040580999106,None,1820.6040580999106,None,6,1.5481211002916098,1820.6040580999106,None,1.5481211002916098,1822.1733499998227,None,1822.6888570999727,None,1822.6888570999727,None,r,0.3430964006111026,1822.6888570999727,None,0.3430964006111026,,,100Silent,001,2022_Nov_28_1315,ProdSingRedoBetween,2021.2.3,60.19809992998803,
,,,,133,0,133,0,,,,,,,,,,,,,,,,,,,,,,1825.4774406002834,None,,,,,,,,,,,,,,,,,crime,77,134,silent,old,red,1823.5786586999893,None,1823.5786586999893,None,6,1.2692932998761535,1823.5786586999893,None,1.2692932998761535,1824.8811389999464,None,1825.3913422999904,None,1825.3913422999904,None,r,0.05663429945707321,1825.3913422999904,None,0.05663429945707321,,,100Silent,001,2022_Nov_28_1315,ProdSingRedoBetween,2021.2.3,60.19809992998803,
,,,,134,0,134,0,,,,,,,,,,,,,,,,,,,,,,1827.876191799529,None,,,,,,,,,,,,,,,,,silence,125,135,silent,new,null,1826.0042412998155,None,1826.0042412998155,None,6,1.2597113996744156,1826.0042412998155,None,1.2597113996744156,1827.2955489000306,None,1827.809042999521,None,1827.809042999521,None,r,0.038864399306476116,1827.809042999521,None,0.038864399306476116,,,100Silent,001,2022_Nov_28_1315,ProdSingRedoBetween,2021.2.3,60.19809992998803,
,,,,135,0,135,0,,,,,,,,,,,,,,,,,,,,,,1830.1282142000273,None,,,,,,,,,,,,,,,,,comfort,12,136,silent,old,yellow,1828.3798585999757,None,1828.3798585999757,None,1,1.148055600002408,1828.3798585999757,None,1.148055600002408,1829.5518015995622,None,1830.061273199506,None,1830.061273199506,None,n,0.05057909991592169,1830.061273199506,None,0.05057909991592169,,,100Silent,001,2022_Nov_28_1315,ProdSingRedoBetween,2021.2.3,60.19809992998803,
,,,,136,0,136,0,,,,,,,,,,,,,,,,,,,,,,1832.5483488002792,None,,,,,,,,,,,,,,,,,thing,104,137,silent,new,null,1830.6386056998745,None,1830.6386056998745,None,2,1.321691899560392,1830.6386056998745,None,1.321691899560392,1831.9944521998987,None,1832.4969378998503,None,1832.4969378998503,None,n,0.031309399753808975,1832.4969378998503,None,0.031309399753808975,,,100Silent,001,2022_Nov_28_1315,ProdSingRedoBetween,2021.2.3,60.19809992998803,
,,,,137,0,137,0,,,,,,,,,,,,,,,,,,,,,,1835.5644669001922,None,,,,,,,,,,,,,,,,,hunger,30,138,silent,old,blue,1833.0492741996422,None,1833.0492741996422,None,3,1.774779299274087,1833.0492741996422,None,1.774779299274087,1834.8530454998836,None,1835.3660075003281,None,1835.3660075003281,None,f,0.16212999913841486,1835.3660075003281,None,0.16212999913841486,,,100Silent,001,2022_Nov_28_1315,ProdSingRedoBetween,2021.2.3,60.19809992998803,
,,,,138,0,138,0,,,,,,,,,,,,,,,,,,,,,,1838.4801834998652,None,,,,,,,,,,,,,,,,,people,119,139,silent,new,null,1836.0741708995774,None,1836.0741708995774,None,6,1.4377140998840332,1836.0741708995774,None,1.4377140998840332,1837.5386405996978,None,1838.0526035996154,None,1838.0526035996154,None,r,0.3873573001474142,1838.0526035996154,None,0.3873573001474142,,,100Silent,001,2022_Nov_28_1315,ProdSingRedoBetween,2021.2.3,60.19809992998803,
,,,,139,0,139,0,,,,,,,,,,,,,,,,,,,,,,1841.6063869995996,None,,,,,,,,,,,,,,,,,present,80,140,silent,old,red,1838.9894513003528,None,1838.9894513003528,None,4,1.7543986001983285,1838.9894513003528,None,1.7543986001983285,1840.7743325000629,None,1841.289590800181,None,1841.289590800181,None,f,0.2863220004364848,1841.289590800181,None,0.2863220004364848,,,100Silent,001,2022_Nov_28_1315,ProdSingRedoBetween,2021.2.3,60.19809992998803,
,,,,140,0,140,0,,,,,,,,,,,,,,,,,,,,,,1844.6270612003282,None,,,,,,,,,,,,,,,,,spoke,172,141,silent,new,null,1842.110343400389,None,1842.110343400389,None,1,1.5057298000901937,1842.110343400389,None,1.5057298000901937,1843.6481954995543,None,1844.1601462997496,None,1844.1601462997496,None,n,0.43985259998589754,1844.1601462997496,None,0.43985259998589754,,,100Silent,001,2022_Nov_28_1315,ProdSingRedoBetween,2021.2.3,60.19809992998803,
,,,,141,0,141,0,,,,,,,,,,,,,,,,,,,,,,1847.5626342995092,None,,,,,,,,,,,,,,,,,population,108,142,silent,new,null,1845.144863200374,None,1845.144863200374,None,4,1.7993026999756694,1845.144863200374,None,1.7993026999756694,1846.9645244004205,None,1847.4791796999052,None,1847.4791796999052,None,f,0.05681829992681742,1847.4791796999052,None,0.05681829992681742,,,100Silent,001,2022_Nov_28_1315,ProdSingRedoBetween,2021.2.3,60.19809992998803,
,,,,142,0,142,0,,,,,,,,,,,,,,,,,,,,,,1851.0126123996451,None,,,,,,,,,,,,,,,,,quantity,38,143,silent,old,blue,1848.069963700138,None,1848.069963700138,None,4,2.1699794000014663,1848.069963700138,None,2.1699794000014663,1850.26798029989,None,1850.782455000095,None,1850.782455000095,None,f,0.18550970032811165,1850.782455000095,None,0.18550970032811165,,,100Silent,001,2022_Nov_28_1315,ProdSingRedoBetween,2021.2.3,60.19809992998803,
,,,,143,0,143,0,,,,,,,,,,,,,,,,,,,,,,1854.8691724995151,None,,,,,,,,,,,,,,,,,watch,164,144,silent,new,null,1851.5177752999589,None,1851.5177752999589,None,6,1.8501500003039837,1851.5177752999589,None,1.8501500003039837,1853.385805199854,None,1853.8990038996562,None,1853.8990038996562,None,r,0.9488338995724916,1853.8990038996562,None,0.9488338995724916,,,100Silent,001,2022_Nov_28_1315,ProdSingRedoBetween,2021.2.3,60.19809992998803,
,,,,144,0,144,0,,,,,,,,,,,,,,,,,,,,,,1860.7783763995394,None,,,,,,,,,,,,,,,,,business,152,145,silent,new,null,1855.3735317997634,None,1855.3735317997634,None,2,4.538417000323534,1855.3735317997634,None,4.538417000323534,1859.9439415996894,None,1860.4613693002611,None,1860.4613693002611,None,n,0.28240690007805824,1860.4613693002611,None,0.28240690007805824,,,100Silent,001,2022_Nov_28_1315,ProdSingRedoBetween,2021.2.3,60.19809992998803,
,,,,145,0,145,0,,,,,,,,,,,,,,,,,,,,,,1864.2990568000823,None,,,,,,,,,,,,,,,,,smooth,179,146,silent,new,null,1861.294378099963,None,1861.294378099963,None,4,2.289525100030005,1861.294378099963,None,2.289525100030005,1863.6133297998458,None,1864.13721769955,None,1864.13721769955,None,f,0.13474449981004,1864.13721769955,None,0.13474449981004,,,100Silent,001,2022_Nov_28_1315,ProdSingRedoBetween,2021.2.3,60.19809992998803,
,,,,146,0,146,0,,,,,,,,,,,,,,,,,,,,,,1867.79990729969,None,,,,,,,,,,,,,,,,,entrance,70,147,silent,old,red,1864.8153962995857,None,1864.8153962995857,None,6,2.232517500407994,1864.8153962995857,None,2.232517500407994,1867.067638100125,None,1867.5818291995674,None,1867.5818291995674,None,r,0.19410960003733635,1867.5818291995674,None,0.19410960003733635,,,100Silent,001,2022_Nov_28_1315,ProdSingRedoBetween,2021.2.3,60.19809992998803,
,,,,147,0,147,0,,,,,,,,,,,,,,,,,,,,,,1872.7051497995853,None,,,,,,,,,,,,,,,,,straight,123,148,silent,new,null,1868.315620600246,None,1868.315620600246,None,3,2.164134199731052,1868.315620600246,None,2.164134199731052,1870.5041710995138,None,1871.019525599666,None,1871.019525599666,None,n,1.6524414997547865,1871.019525599666,None,1.6524414997547865,,,100Silent,001,2022_Nov_28_1315,ProdSingRedoBetween,2021.2.3,60.19809992998803,
,,,,148,0,148,0,,,,,,,,,,,,,,,,,,,,,,1877.6437675999478,None,,,,,,,,,,,,,,,,,guard,79,149,silent,old,red,1873.2212485000491,None,1873.2212485000491,None,1,3.6266030995175242,1873.2212485000491,None,3.6266030995175242,1876.8773325998336,None,1877.3919494999573,None,1877.3919494999573,None,n,0.231984899379313,1877.3919494999573,None,0.231984899379313,,,100Silent,001,2022_Nov_28_1315,ProdSingRedoBetween,2021.2.3,60.19809992998803,
,,,,149,0,149,0,,,,,,,,,,,,,,,,,,,,,,1882.9481047997251,None,,,,,,,,,,,,,,,,,couch,143,150,silent,new,null,1878.170935800299,None,1878.170935800299,None,6,3.812865700572729,1878.170935800299,None,3.812865700572729,1882.014608300291,None,1882.5208331998438,None,1882.5208331998438,None,n,0.40740090049803257,1882.5208331998438,None,0.40740090049803257,,,100Silent,001,2022_Nov_28_1315,ProdSingRedoBetween,2021.2.3,60.19809992998803,
,,,,150,0,150,0,,,,,,,,,,,,,,,,,,,,,,1886.3680288996547,None,,,,,,,,,,,,,,,,,service,10,151,silent,old,yellow,1883.4554348997772,None,1883.4554348997772,None,4,1.7445542002096772,1883.4554348997772,None,1.7445542002096772,1885.2249931003898,None,1885.7359852995723,None,1885.7359852995723,None,f,0.599847000092268,1885.7359852995723,None,0.599847000092268,,,100Silent,001,2022_Nov_28_1315,ProdSingRedoBetween,2021.2.3,60.19809992998803,
,,,,151,0,151,0,,,,,,,,,,,,,,,,,,,,,,1888.971643799916,None,,,,,,,,,,,,,,,,,track,71,152,silent,old,red,1886.876786599867,None,1886.876786599867,None,4,1.275293699465692,1886.876786599867,None,1.275293699465692,1888.1714925002307,None,1888.6871092999354,None,1888.6871092999354,None,f,0.26491570007056,1888.6871092999354,None,0.26491570007056,,,100Silent,001,2022_Nov_28_1315,ProdSingRedoBetween,2021.2.3,60.19809992998803,
,,,,152,0,152,0,,,,,,,,,,,,,,,,,,,,,,1892.9211082002148,None,,,,,,,,,,,,,,,,,quiet,148,153,silent,new,null,1889.492328000255,None,1889.492328000255,None,6,1.867425700649619,1889.492328000255,None,1.867425700649619,1891.3919749995694,None,1891.9084117002785,None,1891.9084117002785,None,r,0.9713631998747587,1891.9084117002785,None,0.9713631998747587,,,100Silent,001,2022_Nov_28_1315,ProdSingRedoBetween,2021.2.3,60.19809992998803,
,,,,153,0,153,0,,,,,,,,,,,,,,,,,,,,,,1896.5119559001178,None,,,,,,,,,,,,,,,,,count,129,154,silent,new,null,1893.4281168002635,None,1893.4281168002635,None,1,1.7799169002100825,1893.4281168002635,None,1.7799169002100825,1895.2352323997766,None,1895.7436453001574,None,1895.7436453001574,None,n,0.7362010003998876,1895.7436453001574,None,0.7362010003998876,,,100Silent,001,2022_Nov_28_1315,ProdSingRedoBetween,2021.2.3,60.19809992998803,
,,,,154,0,154,0,,,,,,,,,,,,,,,,,,,,,,1899.7321432996541,None,,,,,,,,,,,,,,,,,point,49,155,silent,old,blue,1897.021184399724,None,1897.021184399724,None,3,1.93054430000484,1897.021184399724,None,1.93054430000484,1898.9830689001828,None,1899.5035419994965,None,1899.5035419994965,None,f,0.2086424995213747,1899.5035419994965,None,0.2086424995213747,,,100Silent,001,2022_Nov_28_1315,ProdSingRedoBetween,2021.2.3,60.19809992998803,
,,,,155,0,155,0,,,,,,,,,,,,,,,,,,,,,,1902.5536545999348,None,,,,,,,,,,,,,,,,,finish,131,156,silent,new,null,1900.2340799998492,None,1900.2340799998492,None,4,1.510127400048077,1900.2340799998492,None,1.510127400048077,1901.7984323995188,None,1902.3031957000494,None,1902.3031957000494,None,f,0.2246898002922535,1902.3031957000494,None,0.2246898002922535,,,100Silent,001,2022_Nov_28_1315,ProdSingRedoBetween,2021.2.3,60.19809992998803,
,,,,156,0,156,0,,,,,,,,,,,,,,,,,,,,,,1905.4210754996166,None,,,,,,,,,,,,,,,,,treatment,153,157,silent,new,null,1903.0675322003663,None,1903.0675322003663,None,6,1.6762621002271771,1903.0675322003663,None,1.6762621002271771,1904.7762591997162,None,1905.2874565999955,None,1905.2874565999955,None,r,0.10432119946926832,1905.2874565999955,None,0.10432119946926832,,,100Silent,001,2022_Nov_28_1315,ProdSingRedoBetween,2021.2.3,60.19809992998803,
,,,,157,0,157,0,,,,,,,,,,,,,,,,,,,,,,1908.6908515999094,None,,,,,,,,,,,,,,,,,recall,23,158,silent,old,yellow,1905.9339621001855,None,1905.9339621001855,None,2,1.6342730997130275,1905.9339621001855,None,1.6342730997130275,1907.5902931001037,None,1908.1052425997332,None,1908.1052425997332,None,n,0.5667297998443246,1908.1052425997332,None,0.5667297998443246,,,100Silent,001,2022_Nov_28_1315,ProdSingRedoBetween,2021.2.3,60.19809992998803,
,,,,158,0,158,0,,,,,,,,,,,,,,,,,,,,,,1912.2774435998872,None,,,,,,,,,,,,,,,,,commercial,8,159,silent,old,yellow,1909.1920851999894,None,1909.1920851999894,None,1,1.90376210026443,1909.1920851999894,None,1.90376210026443,1911.1272195996717,None,1911.6422060001642,None,1911.6422060001642,None,n,0.6140479994937778,1911.6422060001642,None,0.6140479994937778,,,100Silent,001,2022_Nov_28_1315,ProdSingRedoBetween,2021.2.3,60.19809992998803,
,,,,159,0,159,0,,,,,,,,,,,,,,,,,,,,,,1915.8480075998232,None,,,,,,,,,,,,,,,,,income,42,160,silent,old,blue,1912.7801850000396,None,1912.7801850000396,None,6,1.8516199002042413,1912.7801850000396,None,1.8516199002042413,1914.6639010999352,None,1915.1819815998897,None,1915.1819815998897,None,r,0.6417956994846463,1915.1819815998897,None,0.6417956994846463,,,100Silent,001,2022_Nov_28_1315,ProdSingRedoBetween,2021.2.3,60.19809992998803,
,,,,160,0,160,0,,,,,,,,,,,,,,,,,,,,,,1918.9173339996487,None,,,,,,,,,,,,,,,,,worker,48,161,silent,old,blue,1916.3653442002833,None,1916.3653442002833,None,1,1.5544663006439805,1916.3653442002833,None,1.5544663006439805,1917.953341900371,None,1918.4685089001432,None,1918.4685089001432,None,n,0.4277232000604272,1918.4685089001432,None,0.4277232000604272,,,100Silent,001,2022_Nov_28_1315,ProdSingRedoBetween,2021.2.3,60.19809992998803,
,,,,161,0,161,0,,,,,,,,,,,,,,,,,,,,,,1921.9377205995843,None,,,,,,,,,,,,,,,,,judge,126,162,silent,new,null,1919.419422400184,None,1919.419422400184,None,2,1.7082995995879173,1919.419422400184,None,1.7082995995879173,1921.1551529001445,None,1921.6737612998113,None,1921.6737612998113,None,n,0.2380127003416419,1921.6737612998113,None,0.2380127003416419,,,100Silent,001,2022_Nov_28_1315,ProdSingRedoBetween,2021.2.3,60.19809992998803,
,,,,162,0,162,0,,,,,,,,,,,,,,,,,,,,,,1924.9910613000393,None,,,,,,,,,,,,,,,,,medicine,156,163,silent,new,null,1922.454888800159,None,1922.454888800159,None,4,1.7049262002110481,1922.454888800159,None,1.7049262002110481,1924.193937400356,None,1924.705336799845,None,1924.705336799845,None,f,0.26238599978387356,1924.705336799845,None,0.26238599978387356,,,100Silent,001,2022_Nov_28_1315,ProdSingRedoBetween,2021.2.3,60.19809992998803,
,,,,163,0,163,0,,,,,,,,,,,,,,,,,,,,,,1928.1940647996962,None,,,,,,,,,,,,,,,,,blind,102,164,silent,new,null,1925.5082192001864,None,1925.5082192001864,None,1,1.8275782000273466,1925.5082192001864,None,1.8275782000273466,1927.3638709997758,None,1927.8755673002452,None,1927.8755673002452,None,n,0.30027509946376085,1927.8755673002452,None,0.30027509946376085,,,100Silent,001,2022_Nov_28_1315,ProdSingRedoBetween,2021.2.3,60.19809992998803,
,,,,164,0,164,0,,,,,,,,,,,,,,,,,,,,,,1932.8817678997293,None,,,,,,,,,,,,,,,,,candidate,87,165,silent,old,red,1928.7255266997963,None,1928.7255266997963,None,6,3.4343945998698473,1928.7255266997963,None,3.4343945998698473,1932.1817159000784,None,1932.6969151003286,None,1932.6969151003286,None,r,0.1671250993385911,1932.6969151003286,None,0.1671250993385911,,,100Silent,001,2022_Nov_28_1315,ProdSingRedoBetween,2021.2.3,60.19809992998803,
,,,,165,0,165,0,,,,,,,,,,,,,,,,,,,,,,1936.267962699756,None,,,,,,,,,,,,,,,,,impact,76,166,silent,old,red,1933.4024965995923,None,1933.4024965995923,None,2,1.9412242006510496,1933.4024965995923,None,1.9412242006510496,1935.3687867997214,None,1935.8834523996338,None,1935.8834523996338,None,n,0.35654979944229126,1935.8834523996338,None,0.35654979944229126,,,100Silent,001,2022_Nov_28_1315,ProdSingRedoBetween,2021.2.3,60.19809992998803,
,,,,166,0,166,0,,,,,,,,,,,,,,,,,,,,,,1942.2238509003073,None,,,,,,,,,,,,,,,,,running,56,167,silent,old,blue,1936.7817821996287,None,1936.7817821996287,None,2,4.657928000204265,1936.7817821996287,None,4.657928000204265,1941.4580054003745,None,1941.9728392995894,None,1941.9728392995894,None,n,0.21879070065915585,1941.9728392995894,None,0.21879070065915585,,,100Silent,001,2022_Nov_28_1315,ProdSingRedoBetween,2021.2.3,60.19809992998803,
,,,,167,0,167,0,,,,,,,,,,,,,,,,,,,,,,1944.9607816999778,None,,,,,,,,,,,,,,,,,executive,97,168,silent,new,null,1942.7272832999006,None,1942.7272832999006,None,1,1.4244796996936202,1942.7272832999006,None,1.4244796996936202,1944.1793563999236,None,1944.6931814001873,None,1944.6931814001873,None,n,0.25056799966841936,1944.6931814001873,None,0.25056799966841936,,,100Silent,001,2022_Nov_28_1315,ProdSingRedoBetween,2021.2.3,60.19809992998803,
,,,,168,0,168,0,,,,,,,,,,,,,,,,,,,,,,1949.1273084003478,None,,,,,,,,,,,,,,,,,guide,13,169,silent,old,yellow,1945.477058599703,None,1945.477058599703,None,3,2.698871899396181,1945.477058599703,None,2.698871899396181,1948.1982324998826,None,1948.7130939997733,None,1948.7130939997733,None,n,0.37477250024676323,1948.7130939997733,None,0.37477250024676323,,,100Silent,001,2022_Nov_28_1315,ProdSingRedoBetween,2021.2.3,60.19809992998803,
,,,,169,0,169,0,,,,,,,,,,,,,,,,,,,,,,1953.552678000182,None,,,,,,,,,,,,,,,,,pressure,18,170,silent,old,yellow,1949.644288400188,None,1949.644288400188,None,6,3.139362500049174,1949.644288400188,None,3.139362500049174,1952.8131432998925,None,1953.3210533997044,None,1953.3210533997044,None,n,0.21465190034359694,1953.3210533997044,None,0.21465190034359694,,,100Silent,001,2022_Nov_28_1315,ProdSingRedoBetween,2021.2.3,60.19809992998803,
,,,,170,0,170,0,,,,,,,,,,,,,,,,,,,,,,1960.4820905001834,None,,,,,,,,,,,,,,,,,heavy,19,171,silent,old,yellow,1954.0697670001537,None,1954.0697670001537,None,4,5.6344854002818465,1954.0697670001537,None,5.6344854002818465,1959.7332314001396,None,1960.24121700041,None,1960.24121700041,None,n,0.21488190069794655,1960.24121700041,None,0.21488190069794655,,,100Silent,001,2022_Nov_28_1315,ProdSingRedoBetween,2021.2.3,60.19809992998803,
,,,,171,0,171,0,,,,,,,,,,,,,,,,,,,,,,1963.512319999747,None,,,,,,,,,,,,,,,,,alert,5,172,silent,old,yellow,1960.9938195003197,None,1960.9938195003197,None,2,1.7098718006163836,1960.9938195003197,None,1.7098718006163836,1962.7288255998865,None,1963.244825400412,None,1963.244825400412,None,n,0.23481049947440624,1963.244825400412,None,0.23481049947440624,,,100Silent,001,2022_Nov_28_1315,ProdSingRedoBetween,2021.2.3,60.19809992998803,
,,,,172,0,172,0,,,,,,,,,,,,,,,,,,,,,,1967.8495624996722,None,,,,,,,,,,,,,,,,,skill,16,173,silent,old,yellow,1964.0309937000275,None,1964.0309937000275,None,1,3.056679300032556,1964.0309937000275,None,3.056679300032556,1967.116387099959,None,1967.6354050999507,None,1967.6354050999507,None,n,0.1962921004742384,1967.6354050999507,None,0.1962921004742384,,,100Silent,001,2022_Nov_28_1315,ProdSingRedoBetween,2021.2.3,60.19809992998803,
,,,,173,0,173,0,,,,,,,,,,,,,,,,,,,,,,1971.5871580997482,None,,,,,,,,,,,,,,,,,measure,155,174,silent,new,null,1968.3517891997471,None,1968.3517891997471,None,6,2.519887899979949,1968.3517891997471,None,2.519887899979949,1970.9037814997137,None,1971.4201979003847,None,1971.4201979003847,None,r,0.14774260018020868,1971.4201979003847,None,0.14774260018020868,,,100Silent,001,2022_Nov_28_1315,ProdSingRedoBetween,2021.2.3,60.19809992998803,
