StudyLoop.thisRepN,StudyLoop.thisTrialN,StudyLoop.thisN,StudyLoop.thisIndex,TestLoop.thisRepN,TestLoop.thisTrialN,TestLoop.thisN,TestLoop.thisIndex,textCondition.started,textCondition.stopped,keyCondition.keys,keyCondition.rt,keyCondition.started,keyCondition.stopped,Condition,textWelcome.started,textWelcome.stopped,keyWelcome.keys,keyWelcome.rt,keyWelcome.started,keyWelcome.stopped,textAloud.started,textAloud.stopped,textSilent.started,textSilent.stopped,textSing.started,textSing.stopped,conditional_text.started,conditional_text.stopped,textBlank500.started,textBlank500.stopped,study_word,study_num,study_order,study_type,word_color,textStudy.started,textStudy.stopped,keyStudy.keys,keyStudy.started,keyStudy.stopped,textTestInstructions.started,textTestInstructions.stopped,key_resp_3.keys,key_resp_3.rt,key_resp_3.started,key_resp_3.stopped,test_word,test_num,test_order,test_condition,old_new_test,test_word_original_color,textConf.started,textConf.stopped,textConfScale.started,textConfScale.stopped,keyConf.keys,keyConf.rt,keyConf.started,keyConf.stopped,confidence response time,textTestBlank.started,textTestBlank.stopped,textRKN.started,textRKN.stopped,textRKNScale.started,textRKNScale.stopped,keyRKN.keys,keyRKN.rt,keyRKN.started,keyRKN.stopped,rkn response time,textEnd.started,textEnd.stopped,participant,session,date,expName,psychopyVersion,frameRate,
,,,,,,,,24.02329090051353,None,b,2.562671300023794,24.02329090051353,None,,,,,,,,,,,,,,,,,,,,,,,,,,,,,,,,,,,,,,,,,,,,,,,,,,,,,,,,,,,,,,101Aloud,001,2022_Nov_28_1348,ProdSingRedoBetween,2021.2.3,59.919133136003914,
,,,,,,,,,,,,,,AloudTest,26.646838900633156,None,space,365.22630440071225,26.646838900633156,None,,,,,,,,,,,,,,,,,,,,,,,,,,,,,,,,,,,,,,,,,,,,,,,,,,,,,,,101Aloud,001,2022_Nov_28_1348,ProdSingRedoBetween,2021.2.3,59.919133136003914,
0,0,0,0,,,,,,,,,,,,,,,,,,26.646838900633156,None,26.646838900633156,None,26.646838900633156,None,26.646838900633156,None,394.41612370032817,None,south,41,1,aloud,blue,392.40250270068645,None,None,392.40250270068645,None,,,,,,,,,,,,,,,,,,,,,,,,,,,,,,,,,,,101Aloud,001,2022_Nov_28_1348,ProdSingRedoBetween,2021.2.3,59.919133136003914,
1,0,1,0,,,,,,,,,,,,,,,,,,,,,,,,,,396.9186076000333,None,birth,60,2,aloud,red,394.9165358999744,None,None,394.9165358999744,None,,,,,,,,,,,,,,,,,,,,,,,,,,,,,,,,,,,101Aloud,001,2022_Nov_28_1348,ProdSingRedoBetween,2021.2.3,59.919133136003914,
2,0,2,0,,,,,,,,,,,,,,,,,,,,,,,,,,399.42103230021894,None,chief,7,3,aloud,yellow,397.41959730070084,None,None,397.41959730070084,None,,,,,,,,,,,,,,,,,,,,,,,,,,,,,,,,,,,101Aloud,001,2022_Nov_28_1348,ProdSingRedoBetween,2021.2.3,59.919133136003914,
3,0,3,0,,,,,,,,,,,,,,,,,,,,,,,,,,401.9403448002413,None,guest,30,4,aloud,blue,399.9280732003972,None,None,399.9280732003972,None,,,,,,,,,,,,,,,,,,,,,,,,,,,,,,,,,,,101Aloud,001,2022_Nov_28_1348,ProdSingRedoBetween,2021.2.3,59.919133136003914,
4,0,4,0,,,,,,,,,,,,,,,,,,,,,,,,,,404.45931470021605,None,spoke,65,5,aloud,red,402.448106800206,None,None,402.448106800206,None,,,,,,,,,,,,,,,,,,,,,,,,,,,,,,,,,,,101Aloud,001,2022_Nov_28_1348,ProdSingRedoBetween,2021.2.3,59.919133136003914,
5,0,5,0,,,,,,,,,,,,,,,,,,,,,,,,,,406.96202990040183,None,error,36,6,aloud,blue,404.95985080022365,None,None,404.95985080022365,None,,,,,,,,,,,,,,,,,,,,,,,,,,,,,,,,,,,101Aloud,001,2022_Nov_28_1348,ProdSingRedoBetween,2021.2.3,59.919133136003914,
6,0,6,0,,,,,,,,,,,,,,,,,,,,,,,,,,409.4643590999767,None,committee,5,7,aloud,yellow,407.4623234998435,None,None,407.4623234998435,None,,,,,,,,,,,,,,,,,,,,,,,,,,,,,,,,,,,101Aloud,001,2022_Nov_28_1348,ProdSingRedoBetween,2021.2.3,59.919133136003914,
7,0,7,0,,,,,,,,,,,,,,,,,,,,,,,,,,411.9670601002872,None,worker,68,8,aloud,red,409.9673032006249,None,None,409.9673032006249,None,,,,,,,,,,,,,,,,,,,,,,,,,,,,,,,,,,,101Aloud,001,2022_Nov_28_1348,ProdSingRedoBetween,2021.2.3,59.919133136003914,
8,0,8,0,,,,,,,,,,,,,,,,,,,,,,,,,,414.4862707005814,None,strain,4,9,aloud,yellow,412.4782846001908,None,None,412.4782846001908,None,,,,,,,,,,,,,,,,,,,,,,,,,,,,,,,,,,,101Aloud,001,2022_Nov_28_1348,ProdSingRedoBetween,2021.2.3,59.919133136003914,
9,0,9,0,,,,,,,,,,,,,,,,,,,,,,,,,,416.98849250003695,None,history,84,10,aloud,red,414.9894642001018,None,None,414.9894642001018,None,,,,,,,,,,,,,,,,,,,,,,,,,,,,,,,,,,,101Aloud,001,2022_Nov_28_1348,ProdSingRedoBetween,2021.2.3,59.919133136003914,
10,0,10,0,,,,,,,,,,,,,,,,,,,,,,,,,,419.5078976005316,None,rough,6,11,aloud,yellow,417.49272920005023,None,None,417.49272920005023,None,,,,,,,,,,,,,,,,,,,,,,,,,,,,,,,,,,,101Aloud,001,2022_Nov_28_1348,ProdSingRedoBetween,2021.2.3,59.919133136003914,
11,0,11,0,,,,,,,,,,,,,,,,,,,,,,,,,,422.0102190002799,None,recall,47,12,aloud,blue,420.01069730054587,None,None,420.01069730054587,None,,,,,,,,,,,,,,,,,,,,,,,,,,,,,,,,,,,101Aloud,001,2022_Nov_28_1348,ProdSingRedoBetween,2021.2.3,59.919133136003914,
12,0,12,0,,,,,,,,,,,,,,,,,,,,,,,,,,424.5129534006119,None,childhood,27,13,aloud,yellow,422.5129941999912,None,None,422.5129941999912,None,,,,,,,,,,,,,,,,,,,,,,,,,,,,,,,,,,,101Aloud,001,2022_Nov_28_1348,ProdSingRedoBetween,2021.2.3,59.919133136003914,
13,0,13,0,,,,,,,,,,,,,,,,,,,,,,,,,,427.03542099986225,None,curve,53,14,aloud,blue,425.01949090044945,None,None,425.01949090044945,None,,,,,,,,,,,,,,,,,,,,,,,,,,,,,,,,,,,101Aloud,001,2022_Nov_28_1348,ProdSingRedoBetween,2021.2.3,59.919133136003914,
14,0,14,0,,,,,,,,,,,,,,,,,,,,,,,,,,429.5345168998465,None,engineer,37,15,aloud,blue,427.5325909005478,None,None,427.5325909005478,None,,,,,,,,,,,,,,,,,,,,,,,,,,,,,,,,,,,101Aloud,001,2022_Nov_28_1348,ProdSingRedoBetween,2021.2.3,59.919133136003914,
15,0,15,0,,,,,,,,,,,,,,,,,,,,,,,,,,432.03709209989756,None,front,78,16,aloud,red,430.0363905997947,None,None,430.0363905997947,None,,,,,,,,,,,,,,,,,,,,,,,,,,,,,,,,,,,101Aloud,001,2022_Nov_28_1348,ProdSingRedoBetween,2021.2.3,59.919133136003914,
16,0,16,0,,,,,,,,,,,,,,,,,,,,,,,,,,434.55620700027794,None,series,59,17,aloud,yellow,432.5427536005154,None,None,432.5427536005154,None,,,,,,,,,,,,,,,,,,,,,,,,,,,,,,,,,,,101Aloud,001,2022_Nov_28_1348,ProdSingRedoBetween,2021.2.3,59.919133136003914,
17,0,17,0,,,,,,,,,,,,,,,,,,,,,,,,,,437.0586999999359,None,dance,73,18,aloud,red,435.05657699983567,None,None,435.05657699983567,None,,,,,,,,,,,,,,,,,,,,,,,,,,,,,,,,,,,101Aloud,001,2022_Nov_28_1348,ProdSingRedoBetween,2021.2.3,59.919133136003914,
18,0,18,0,,,,,,,,,,,,,,,,,,,,,,,,,,439.5778542002663,None,member,51,19,aloud,blue,437.56250730063766,None,None,437.56250730063766,None,,,,,,,,,,,,,,,,,,,,,,,,,,,,,,,,,,,101Aloud,001,2022_Nov_28_1348,ProdSingRedoBetween,2021.2.3,59.919133136003914,
19,0,19,0,,,,,,,,,,,,,,,,,,,,,,,,,,442.080423399806,None,scale,11,20,aloud,yellow,440.0779381003231,None,None,440.0779381003231,None,,,,,,,,,,,,,,,,,,,,,,,,,,,,,,,,,,,101Aloud,001,2022_Nov_28_1348,ProdSingRedoBetween,2021.2.3,59.919133136003914,
20,0,20,0,,,,,,,,,,,,,,,,,,,,,,,,,,444.5829108003527,None,command,81,21,aloud,red,442.5818242998794,None,None,442.5818242998794,None,,,,,,,,,,,,,,,,,,,,,,,,,,,,,,,,,,,101Aloud,001,2022_Nov_28_1348,ProdSingRedoBetween,2021.2.3,59.919133136003914,
21,0,21,0,,,,,,,,,,,,,,,,,,,,,,,,,,447.08525410015136,None,medicine,20,22,aloud,yellow,445.0860694004223,None,None,445.0860694004223,None,,,,,,,,,,,,,,,,,,,,,,,,,,,,,,,,,,,101Aloud,001,2022_Nov_28_1348,ProdSingRedoBetween,2021.2.3,59.919133136003914,
22,0,22,0,,,,,,,,,,,,,,,,,,,,,,,,,,449.6045564003289,None,watch,13,23,aloud,yellow,447.5904884003103,None,None,447.5904884003103,None,,,,,,,,,,,,,,,,,,,,,,,,,,,,,,,,,,,101Aloud,001,2022_Nov_28_1348,ProdSingRedoBetween,2021.2.3,59.919133136003914,
23,0,23,0,,,,,,,,,,,,,,,,,,,,,,,,,,452.1069985004142,None,balance,17,24,aloud,yellow,450.10505279991776,None,None,450.10505279991776,None,,,,,,,,,,,,,,,,,,,,,,,,,,,,,,,,,,,101Aloud,001,2022_Nov_28_1348,ProdSingRedoBetween,2021.2.3,59.919133136003914,
24,0,24,0,,,,,,,,,,,,,,,,,,,,,,,,,,454.60953970067203,None,agreement,21,25,aloud,yellow,452.6075472002849,None,None,452.6075472002849,None,,,,,,,,,,,,,,,,,,,,,,,,,,,,,,,,,,,101Aloud,001,2022_Nov_28_1348,ProdSingRedoBetween,2021.2.3,59.919133136003914,
25,0,25,0,,,,,,,,,,,,,,,,,,,,,,,,,,457.11202200036496,None,generation,75,26,aloud,red,455.10963810049,None,None,455.10963810049,None,,,,,,,,,,,,,,,,,,,,,,,,,,,,,,,,,,,101Aloud,001,2022_Nov_28_1348,ProdSingRedoBetween,2021.2.3,59.919133136003914,
26,0,26,0,,,,,,,,,,,,,,,,,,,,,,,,,,459.61461280006915,None,pattern,70,27,aloud,red,457.6131309000775,None,None,457.6131309000775,None,,,,,,,,,,,,,,,,,,,,,,,,,,,,,,,,,,,101Aloud,001,2022_Nov_28_1348,ProdSingRedoBetween,2021.2.3,59.919133136003914,
27,0,27,0,,,,,,,,,,,,,,,,,,,,,,,,,,462.1170374006033,None,minor,8,28,aloud,yellow,460.11547690071166,None,None,460.11547690071166,None,,,,,,,,,,,,,,,,,,,,,,,,,,,,,,,,,,,101Aloud,001,2022_Nov_28_1348,ProdSingRedoBetween,2021.2.3,59.919133136003914,
28,0,28,0,,,,,,,,,,,,,,,,,,,,,,,,,,464.61967530008405,None,partner,12,29,aloud,yellow,462.61966780014336,None,None,462.61966780014336,None,,,,,,,,,,,,,,,,,,,,,,,,,,,,,,,,,,,101Aloud,001,2022_Nov_28_1348,ProdSingRedoBetween,2021.2.3,59.919133136003914,
29,0,29,0,,,,,,,,,,,,,,,,,,,,,,,,,,467.12178880069405,None,question,25,30,aloud,yellow,465.11984910070896,None,None,465.11984910070896,None,,,,,,,,,,,,,,,,,,,,,,,,,,,,,,,,,,,101Aloud,001,2022_Nov_28_1348,ProdSingRedoBetween,2021.2.3,59.919133136003914,
30,0,30,0,,,,,,,,,,,,,,,,,,,,,,,,,,469.6410035006702,None,discussion,49,31,aloud,blue,467.6286267004907,None,None,467.6286267004907,None,,,,,,,,,,,,,,,,,,,,,,,,,,,,,,,,,,,101Aloud,001,2022_Nov_28_1348,ProdSingRedoBetween,2021.2.3,59.919133136003914,
31,0,31,0,,,,,,,,,,,,,,,,,,,,,,,,,,472.16044060047716,None,beauty,24,32,aloud,yellow,470.14560990035534,None,None,470.14560990035534,None,,,,,,,,,,,,,,,,,,,,,,,,,,,,,,,,,,,101Aloud,001,2022_Nov_28_1348,ProdSingRedoBetween,2021.2.3,59.919133136003914,
32,0,32,0,,,,,,,,,,,,,,,,,,,,,,,,,,474.6796767003834,None,escape,58,33,aloud,blue,472.6645865999162,None,None,472.6645865999162,None,,,,,,,,,,,,,,,,,,,,,,,,,,,,,,,,,,,101Aloud,001,2022_Nov_28_1348,ProdSingRedoBetween,2021.2.3,59.919133136003914,
33,0,33,0,,,,,,,,,,,,,,,,,,,,,,,,,,477.1820985004306,None,trend,39,34,aloud,blue,475.18082800041884,None,None,475.18082800041884,None,,,,,,,,,,,,,,,,,,,,,,,,,,,,,,,,,,,101Aloud,001,2022_Nov_28_1348,ProdSingRedoBetween,2021.2.3,59.919133136003914,
34,0,34,0,,,,,,,,,,,,,,,,,,,,,,,,,,479.68459099996835,None,resistance,77,35,aloud,red,477.6823703004047,None,None,477.6823703004047,None,,,,,,,,,,,,,,,,,,,,,,,,,,,,,,,,,,,101Aloud,001,2022_Nov_28_1348,ProdSingRedoBetween,2021.2.3,59.919133136003914,
35,0,35,0,,,,,,,,,,,,,,,,,,,,,,,,,,482.2036656998098,None,answer,74,36,aloud,red,480.19482630025595,None,None,480.19482630025595,None,,,,,,,,,,,,,,,,,,,,,,,,,,,,,,,,,,,101Aloud,001,2022_Nov_28_1348,ProdSingRedoBetween,2021.2.3,59.919133136003914,
36,0,36,0,,,,,,,,,,,,,,,,,,,,,,,,,,484.72277509979904,None,military,85,37,aloud,red,482.708569300361,None,None,482.708569300361,None,,,,,,,,,,,,,,,,,,,,,,,,,,,,,,,,,,,101Aloud,001,2022_Nov_28_1348,ProdSingRedoBetween,2021.2.3,59.919133136003914,
37,0,37,0,,,,,,,,,,,,,,,,,,,,,,,,,,487.22536590043455,None,narrow,82,38,aloud,red,485.2261708006263,None,None,485.2261708006263,None,,,,,,,,,,,,,,,,,,,,,,,,,,,,,,,,,,,101Aloud,001,2022_Nov_28_1348,ProdSingRedoBetween,2021.2.3,59.919133136003914,
38,0,38,0,,,,,,,,,,,,,,,,,,,,,,,,,,489.7445025006309,None,close,15,39,aloud,yellow,487.73427570052445,None,None,487.73427570052445,None,,,,,,,,,,,,,,,,,,,,,,,,,,,,,,,,,,,101Aloud,001,2022_Nov_28_1348,ProdSingRedoBetween,2021.2.3,59.919133136003914,
39,0,39,0,,,,,,,,,,,,,,,,,,,,,,,,,,492.24719960056245,None,running,23,40,aloud,yellow,490.24506609980017,None,None,490.24506609980017,None,,,,,,,,,,,,,,,,,,,,,,,,,,,,,,,,,,,101Aloud,001,2022_Nov_28_1348,ProdSingRedoBetween,2021.2.3,59.919133136003914,
40,0,40,0,,,,,,,,,,,,,,,,,,,,,,,,,,494.76602850016207,None,power,66,41,aloud,red,492.75146479997784,None,None,492.75146479997784,None,,,,,,,,,,,,,,,,,,,,,,,,,,,,,,,,,,,101Aloud,001,2022_Nov_28_1348,ProdSingRedoBetween,2021.2.3,59.919133136003914,
41,0,41,0,,,,,,,,,,,,,,,,,,,,,,,,,,497.2687047002837,None,danger,42,42,aloud,blue,495.2665686002001,None,None,495.2665686002001,None,,,,,,,,,,,,,,,,,,,,,,,,,,,,,,,,,,,101Aloud,001,2022_Nov_28_1348,ProdSingRedoBetween,2021.2.3,59.919133136003914,
42,0,42,0,,,,,,,,,,,,,,,,,,,,,,,,,,499.7714080000296,None,sunset,54,43,aloud,blue,497.7691314006224,None,None,497.7691314006224,None,,,,,,,,,,,,,,,,,,,,,,,,,,,,,,,,,,,101Aloud,001,2022_Nov_28_1348,ProdSingRedoBetween,2021.2.3,59.919133136003914,
43,0,43,0,,,,,,,,,,,,,,,,,,,,,,,,,,502.27344070002437,None,company,35,44,aloud,blue,500.27300859987736,None,None,500.27300859987736,None,,,,,,,,,,,,,,,,,,,,,,,,,,,,,,,,,,,101Aloud,001,2022_Nov_28_1348,ProdSingRedoBetween,2021.2.3,59.919133136003914,
44,0,44,0,,,,,,,,,,,,,,,,,,,,,,,,,,504.7759827999398,None,appeal,1,45,aloud,yellow,502.77400729991496,None,None,502.77400729991496,None,,,,,,,,,,,,,,,,,,,,,,,,,,,,,,,,,,,101Aloud,001,2022_Nov_28_1348,ProdSingRedoBetween,2021.2.3,59.919133136003914,
45,0,45,0,,,,,,,,,,,,,,,,,,,,,,,,,,507.2787687005475,None,enemy,45,46,aloud,blue,505.2795843007043,None,None,505.2795843007043,None,,,,,,,,,,,,,,,,,,,,,,,,,,,,,,,,,,,101Aloud,001,2022_Nov_28_1348,ProdSingRedoBetween,2021.2.3,59.919133136003914,
46,0,46,0,,,,,,,,,,,,,,,,,,,,,,,,,,509.7976926006377,None,notice,69,47,aloud,red,507.782186800614,None,None,507.782186800614,None,,,,,,,,,,,,,,,,,,,,,,,,,,,,,,,,,,,101Aloud,001,2022_Nov_28_1348,ProdSingRedoBetween,2021.2.3,59.919133136003914,
47,0,47,0,,,,,,,,,,,,,,,,,,,,,,,,,,512.3003691006452,None,travel,2,48,aloud,yellow,510.2980892006308,None,None,510.2980892006308,None,,,,,,,,,,,,,,,,,,,,,,,,,,,,,,,,,,,101Aloud,001,2022_Nov_28_1348,ProdSingRedoBetween,2021.2.3,59.919133136003914,
48,0,48,0,,,,,,,,,,,,,,,,,,,,,,,,,,514.8029957003891,None,rapid,16,49,aloud,yellow,512.8004410006106,None,None,512.8004410006106,None,,,,,,,,,,,,,,,,,,,,,,,,,,,,,,,,,,,101Aloud,001,2022_Nov_28_1348,ProdSingRedoBetween,2021.2.3,59.919133136003914,
49,0,49,0,,,,,,,,,,,,,,,,,,,,,,,,,,517.322130500339,None,guide,40,50,aloud,blue,515.3093615006655,None,None,515.3093615006655,None,,,,,,,,,,,,,,,,,,,,,,,,,,,,,,,,,,,101Aloud,001,2022_Nov_28_1348,ProdSingRedoBetween,2021.2.3,59.919133136003914,
50,0,50,0,,,,,,,,,,,,,,,,,,,,,,,,,,519.8244826002046,None,subject,63,51,aloud,red,517.8225207999349,None,None,517.8225207999349,None,,,,,,,,,,,,,,,,,,,,,,,,,,,,,,,,,,,101Aloud,001,2022_Nov_28_1348,ProdSingRedoBetween,2021.2.3,59.919133136003914,
51,0,51,0,,,,,,,,,,,,,,,,,,,,,,,,,,522.343761600554,None,pressure,22,52,aloud,yellow,520.3287666998804,None,None,520.3287666998804,None,,,,,,,,,,,,,,,,,,,,,,,,,,,,,,,,,,,101Aloud,001,2022_Nov_28_1348,ProdSingRedoBetween,2021.2.3,59.919133136003914,
52,0,52,0,,,,,,,,,,,,,,,,,,,,,,,,,,524.8459106003866,None,problem,38,53,aloud,blue,522.8439412005246,None,None,522.8439412005246,None,,,,,,,,,,,,,,,,,,,,,,,,,,,,,,,,,,,101Aloud,001,2022_Nov_28_1348,ProdSingRedoBetween,2021.2.3,59.919133136003914,
53,0,53,0,,,,,,,,,,,,,,,,,,,,,,,,,,527.3485721005127,None,meeting,29,54,aloud,blue,525.3467217003927,None,None,525.3467217003927,None,,,,,,,,,,,,,,,,,,,,,,,,,,,,,,,,,,,101Aloud,001,2022_Nov_28_1348,ProdSingRedoBetween,2021.2.3,59.919133136003914,
54,0,54,0,,,,,,,,,,,,,,,,,,,,,,,,,,529.867940700613,None,smooth,87,55,aloud,red,527.8535777004436,None,None,527.8535777004436,None,,,,,,,,,,,,,,,,,,,,,,,,,,,,,,,,,,,101Aloud,001,2022_Nov_28_1348,ProdSingRedoBetween,2021.2.3,59.919133136003914,
55,0,55,0,,,,,,,,,,,,,,,,,,,,,,,,,,532.3702712003142,None,angle,26,56,aloud,yellow,530.3695753999054,None,None,530.3695753999054,None,,,,,,,,,,,,,,,,,,,,,,,,,,,,,,,,,,,101Aloud,001,2022_Nov_28_1348,ProdSingRedoBetween,2021.2.3,59.919133136003914,
56,0,56,0,,,,,,,,,,,,,,,,,,,,,,,,,,534.8729570005089,None,country,3,57,aloud,yellow,532.873887100257,None,None,532.873887100257,None,,,,,,,,,,,,,,,,,,,,,,,,,,,,,,,,,,,101Aloud,001,2022_Nov_28_1348,ProdSingRedoBetween,2021.2.3,59.919133136003914,
57,0,57,0,,,,,,,,,,,,,,,,,,,,,,,,,,537.3753827000037,None,title,31,58,aloud,blue,535.3734598001465,None,None,535.3734598001465,None,,,,,,,,,,,,,,,,,,,,,,,,,,,,,,,,,,,101Aloud,001,2022_Nov_28_1348,ProdSingRedoBetween,2021.2.3,59.919133136003914,
58,0,58,0,,,,,,,,,,,,,,,,,,,,,,,,,,539.8778966004029,None,column,50,59,aloud,blue,537.8758784001693,None,None,537.8758784001693,None,,,,,,,,,,,,,,,,,,,,,,,,,,,,,,,,,,,101Aloud,001,2022_Nov_28_1348,ProdSingRedoBetween,2021.2.3,59.919133136003914,
59,0,59,0,,,,,,,,,,,,,,,,,,,,,,,,,,542.3970774998888,None,store,57,60,aloud,blue,540.3824586998671,None,None,540.3824586998671,None,,,,,,,,,,,,,,,,,,,,,,,,,,,,,,,,,,,101Aloud,001,2022_Nov_28_1348,ProdSingRedoBetween,2021.2.3,59.919133136003914,
60,0,60,0,,,,,,,,,,,,,,,,,,,,,,,,,,544.8995820004493,None,dispute,56,61,aloud,blue,542.8976075006649,None,None,542.8976075006649,None,,,,,,,,,,,,,,,,,,,,,,,,,,,,,,,,,,,101Aloud,001,2022_Nov_28_1348,ProdSingRedoBetween,2021.2.3,59.919133136003914,
61,0,61,0,,,,,,,,,,,,,,,,,,,,,,,,,,547.4186420002952,None,government,52,62,aloud,blue,545.4097867002711,None,None,545.4097867002711,None,,,,,,,,,,,,,,,,,,,,,,,,,,,,,,,,,,,101Aloud,001,2022_Nov_28_1348,ProdSingRedoBetween,2021.2.3,59.919133136003914,
62,0,62,0,,,,,,,,,,,,,,,,,,,,,,,,,,549.9213442001492,None,institute,46,63,aloud,blue,547.9188464004546,None,None,547.9188464004546,None,,,,,,,,,,,,,,,,,,,,,,,,,,,,,,,,,,,101Aloud,001,2022_Nov_28_1348,ProdSingRedoBetween,2021.2.3,59.919133136003914,
63,0,63,0,,,,,,,,,,,,,,,,,,,,,,,,,,552.4237401001155,None,degree,33,64,aloud,blue,550.4218358006328,None,None,550.4218358006328,None,,,,,,,,,,,,,,,,,,,,,,,,,,,,,,,,,,,101Aloud,001,2022_Nov_28_1348,ProdSingRedoBetween,2021.2.3,59.919133136003914,
64,0,64,0,,,,,,,,,,,,,,,,,,,,,,,,,,554.9260971006006,None,defeat,32,65,aloud,blue,552.924724300392,None,None,552.924724300392,None,,,,,,,,,,,,,,,,,,,,,,,,,,,,,,,,,,,101Aloud,001,2022_Nov_28_1348,ProdSingRedoBetween,2021.2.3,59.919133136003914,
65,0,65,0,,,,,,,,,,,,,,,,,,,,,,,,,,557.4288758998737,None,community,76,66,aloud,red,555.4265815000981,None,None,555.4265815000981,None,,,,,,,,,,,,,,,,,,,,,,,,,,,,,,,,,,,101Aloud,001,2022_Nov_28_1348,ProdSingRedoBetween,2021.2.3,59.919133136003914,
66,0,66,0,,,,,,,,,,,,,,,,,,,,,,,,,,559.9312057001516,None,salary,61,67,aloud,red,557.9308961005881,None,None,557.9308961005881,None,,,,,,,,,,,,,,,,,,,,,,,,,,,,,,,,,,,101Aloud,001,2022_Nov_28_1348,ProdSingRedoBetween,2021.2.3,59.919133136003914,
67,0,67,0,,,,,,,,,,,,,,,,,,,,,,,,,,562.4338041003793,None,taste,48,68,aloud,blue,560.4334874004126,None,None,560.4334874004126,None,,,,,,,,,,,,,,,,,,,,,,,,,,,,,,,,,,,101Aloud,001,2022_Nov_28_1348,ProdSingRedoBetween,2021.2.3,59.919133136003914,
68,0,68,0,,,,,,,,,,,,,,,,,,,,,,,,,,564.9530070004985,None,death,79,69,aloud,red,562.9373916005716,None,None,562.9373916005716,None,,,,,,,,,,,,,,,,,,,,,,,,,,,,,,,,,,,101Aloud,001,2022_Nov_28_1348,ProdSingRedoBetween,2021.2.3,59.919133136003914,
69,0,69,0,,,,,,,,,,,,,,,,,,,,,,,,,,567.4554278999567,None,grade,18,70,aloud,yellow,565.4529753997922,None,None,565.4529753997922,None,,,,,,,,,,,,,,,,,,,,,,,,,,,,,,,,,,,101Aloud,001,2022_Nov_28_1348,ProdSingRedoBetween,2021.2.3,59.919133136003914,
70,0,70,0,,,,,,,,,,,,,,,,,,,,,,,,,,569.9578296998516,None,gesture,43,71,aloud,blue,567.9555058004335,None,None,567.9555058004335,None,,,,,,,,,,,,,,,,,,,,,,,,,,,,,,,,,,,101Aloud,001,2022_Nov_28_1348,ProdSingRedoBetween,2021.2.3,59.919133136003914,
71,0,71,0,,,,,,,,,,,,,,,,,,,,,,,,,,572.4604652998969,None,solution,64,72,aloud,red,570.4591086003929,None,None,570.4591086003929,None,,,,,,,,,,,,,,,,,,,,,,,,,,,,,,,,,,,101Aloud,001,2022_Nov_28_1348,ProdSingRedoBetween,2021.2.3,59.919133136003914,
72,0,72,0,,,,,,,,,,,,,,,,,,,,,,,,,,574.9629787001759,None,sight,10,73,aloud,yellow,572.9610139001161,None,None,572.9610139001161,None,,,,,,,,,,,,,,,,,,,,,,,,,,,,,,,,,,,101Aloud,001,2022_Nov_28_1348,ProdSingRedoBetween,2021.2.3,59.919133136003914,
73,0,73,0,,,,,,,,,,,,,,,,,,,,,,,,,,577.4820517003536,None,report,86,74,aloud,red,575.4663614006713,None,None,575.4663614006713,None,,,,,,,,,,,,,,,,,,,,,,,,,,,,,,,,,,,101Aloud,001,2022_Nov_28_1348,ProdSingRedoBetween,2021.2.3,59.919133136003914,
74,0,74,0,,,,,,,,,,,,,,,,,,,,,,,,,,580.0012516006827,None,fight,34,75,aloud,blue,577.9971364000812,None,None,577.9971364000812,None,,,,,,,,,,,,,,,,,,,,,,,,,,,,,,,,,,,101Aloud,001,2022_Nov_28_1348,ProdSingRedoBetween,2021.2.3,59.919133136003914,
75,0,75,0,,,,,,,,,,,,,,,,,,,,,,,,,,582.503819600679,None,atmosphere,72,76,aloud,red,580.5020919004455,None,None,580.5020919004455,None,,,,,,,,,,,,,,,,,,,,,,,,,,,,,,,,,,,101Aloud,001,2022_Nov_28_1348,ProdSingRedoBetween,2021.2.3,59.919133136003914,
76,0,76,0,,,,,,,,,,,,,,,,,,,,,,,,,,585.0059739006683,None,thing,80,77,aloud,red,583.0048822006211,None,None,583.0048822006211,None,,,,,,,,,,,,,,,,,,,,,,,,,,,,,,,,,,,101Aloud,001,2022_Nov_28_1348,ProdSingRedoBetween,2021.2.3,59.919133136003914,
77,0,77,0,,,,,,,,,,,,,,,,,,,,,,,,,,587.5088162003085,None,reading,44,78,aloud,blue,585.5065922997892,None,None,585.5065922997892,None,,,,,,,,,,,,,,,,,,,,,,,,,,,,,,,,,,,101Aloud,001,2022_Nov_28_1348,ProdSingRedoBetween,2021.2.3,59.919133136003914,
78,0,78,0,,,,,,,,,,,,,,,,,,,,,,,,,,590.0109500000253,None,staff,88,79,aloud,red,588.0111009003595,None,None,588.0111009003595,None,,,,,,,,,,,,,,,,,,,,,,,,,,,,,,,,,,,101Aloud,001,2022_Nov_28_1348,ProdSingRedoBetween,2021.2.3,59.919133136003914,
79,0,79,0,,,,,,,,,,,,,,,,,,,,,,,,,,592.5135615002364,None,crisis,28,80,aloud,yellow,590.5131200002506,None,None,590.5131200002506,None,,,,,,,,,,,,,,,,,,,,,,,,,,,,,,,,,,,101Aloud,001,2022_Nov_28_1348,ProdSingRedoBetween,2021.2.3,59.919133136003914,
80,0,80,0,,,,,,,,,,,,,,,,,,,,,,,,,,595.0163141004741,None,concern,19,81,aloud,yellow,593.016289900057,None,None,593.016289900057,None,,,,,,,,,,,,,,,,,,,,,,,,,,,,,,,,,,,101Aloud,001,2022_Nov_28_1348,ProdSingRedoBetween,2021.2.3,59.919133136003914,
81,0,81,0,,,,,,,,,,,,,,,,,,,,,,,,,,597.5187330003828,None,carry,62,82,aloud,red,595.5190465003252,None,None,595.5190465003252,None,,,,,,,,,,,,,,,,,,,,,,,,,,,,,,,,,,,101Aloud,001,2022_Nov_28_1348,ProdSingRedoBetween,2021.2.3,59.919133136003914,
82,0,82,0,,,,,,,,,,,,,,,,,,,,,,,,,,600.0379125000909,None,entrance,83,83,aloud,red,598.0230812998489,None,None,598.0230812998489,None,,,,,,,,,,,,,,,,,,,,,,,,,,,,,,,,,,,101Aloud,001,2022_Nov_28_1348,ProdSingRedoBetween,2021.2.3,59.919133136003914,
83,0,83,0,,,,,,,,,,,,,,,,,,,,,,,,,,602.5404270999134,None,burden,9,84,aloud,yellow,600.5384729001671,None,None,600.5384729001671,None,,,,,,,,,,,,,,,,,,,,,,,,,,,,,,,,,,,101Aloud,001,2022_Nov_28_1348,ProdSingRedoBetween,2021.2.3,59.919133136003914,
84,0,84,0,,,,,,,,,,,,,,,,,,,,,,,,,,605.0429675998166,None,comfort,71,85,aloud,red,603.0409562001005,None,None,603.0409562001005,None,,,,,,,,,,,,,,,,,,,,,,,,,,,,,,,,,,,101Aloud,001,2022_Nov_28_1348,ProdSingRedoBetween,2021.2.3,59.919133136003914,
85,0,85,0,,,,,,,,,,,,,,,,,,,,,,,,,,607.5454326998442,None,weight,14,86,aloud,yellow,605.5434632003307,None,None,605.5434632003307,None,,,,,,,,,,,,,,,,,,,,,,,,,,,,,,,,,,,101Aloud,001,2022_Nov_28_1348,ProdSingRedoBetween,2021.2.3,59.919133136003914,
86,0,86,0,,,,,,,,,,,,,,,,,,,,,,,,,,610.0645888000727,None,treatment,0,87,aloud,yellow,608.0547075998038,None,None,608.0547075998038,None,,,,,,,,,,,,,,,,,,,,,,,,,,,,,,,,,,,101Aloud,001,2022_Nov_28_1348,ProdSingRedoBetween,2021.2.3,59.919133136003914,
87,0,87,0,,,,,,,,,,,,,,,,,,,,,,,,,,612.5671559004113,None,capital,55,88,aloud,blue,610.5649703005329,None,None,610.5649703005329,None,,,,,,,,,,,,,,,,,,,,,,,,,,,,,,,,,,,101Aloud,001,2022_Nov_28_1348,ProdSingRedoBetween,2021.2.3,59.919133136003914,
88,0,88,0,,,,,,,,,,,,,,,,,,,,,,,,,,615.0860692998394,None,contract,89,89,aloud,red,613.0709207998589,None,None,613.0709207998589,None,,,,,,,,,,,,,,,,,,,,,,,,,,,,,,,,,,,101Aloud,001,2022_Nov_28_1348,ProdSingRedoBetween,2021.2.3,59.919133136003914,
89,0,89,0,,,,,,,,,,,,,,,,,,,,,,,,,,617.5887895999476,None,comedy,67,90,aloud,red,615.5867913002148,None,None,615.5867913002148,None,,,,,,,,,,,,,,,,,,,,,,,,,,,,,,,,,,,101Aloud,001,2022_Nov_28_1348,ProdSingRedoBetween,2021.2.3,59.919133136003914,
,,,,,,,,,,,,,,,,,,,,,,,,,,,,,,,,,,,,,,,,,618.089525599964,None,k,45.5111345006153,618.089525599964,None,,,,,,,,,,,,,,,,,,,,,,,,,,,,,101Aloud,001,2022_Nov_28_1348,ProdSingRedoBetween,2021.2.3,59.919133136003914,
,,,,0,0,0,0,,,,,,,,,,,,,,,,,,,,,,670.0254974998534,None,,,,,,,,,,,,,,,,,interior,112,1,aloud,new,null,664.1373898005113,None,664.1373898005113,None,1,3.0631903000175953,664.1373898005113,None,3.0631903000175953,667.2216834006831,None,667.7277971003205,None,667.7277971003205,None,n,2.2808610005304217,667.7277971003205,None,2.2808610005304217,,,101Aloud,001,2022_Nov_28_1348,ProdSingRedoBetween,2021.2.3,59.919133136003914,
,,,,1,0,1,0,,,,,,,,,,,,,,,,,,,,,,676.7477000998333,None,,,,,,,,,,,,,,,,,medicine,20,2,aloud,old,yellow,670.5276033999398,None,670.5276033999398,None,6,3.6571226995438337,670.5276033999398,None,3.6571226995438337,674.2171191005036,None,674.7312516001984,None,674.7312516001984,None,r,1.9893414992839098,674.7312516001984,None,1.9893414992839098,,,101Aloud,001,2022_Nov_28_1348,ProdSingRedoBetween,2021.2.3,59.919133136003914,
,,,,2,0,2,0,,,,,,,,,,,,,,,,,,,,,,681.8862111000344,None,,,,,,,,,,,,,,,,,generation,75,3,aloud,old,red,677.2482863003388,None,677.2482863003388,None,1,2.6323677003383636,677.2482863003388,None,2.6323677003383636,679.9019249007106,None,680.4049204001203,None,680.4049204001203,None,n,1.451795700006187,680.4049204001203,None,1.451795700006187,,,101Aloud,001,2022_Nov_28_1348,ProdSingRedoBetween,2021.2.3,59.919133136003914,
,,,,3,0,3,0,,,,,,,,,,,,,,,,,,,,,,685.7733968002722,None,,,,,,,,,,,,,,,,,accident,160,4,aloud,new,null,682.3915873002261,None,682.3915873002261,None,1,1.7689822996035218,682.3915873002261,None,1.7689822996035218,684.1890936000273,None,684.6923532998189,None,684.6923532998189,None,n,1.0602940991520882,684.6923532998189,None,1.0602940991520882,,,101Aloud,001,2022_Nov_28_1348,ProdSingRedoBetween,2021.2.3,59.919133136003914,
,,,,4,0,4,0,,,,,,,,,,,,,,,,,,,,,,690.9452106002718,None,,,,,,,,,,,,,,,,,quiet,101,5,aloud,new,null,686.2823386006057,None,686.2823386006057,None,2,2.6303007006645203,686.2823386006057,None,2.6303007006645203,688.9439329002053,None,689.4438209002838,None,689.4438209002838,None,n,1.4848515996709466,689.4438209002838,None,1.4848515996709466,,,101Aloud,001,2022_Nov_28_1348,ProdSingRedoBetween,2021.2.3,59.919133136003914,
,,,,5,0,5,0,,,,,,,,,,,,,,,,,,,,,,694.915803800337,None,,,,,,,,,,,,,,,,,opening,110,6,aloud,new,null,691.4508651997894,None,691.4508651997894,None,1,1.9337168000638485,691.4508651997894,None,1.9337168000638485,693.4236800000072,None,693.9316893005744,None,693.9316893005744,None,n,0.9649465000256896,693.9316893005744,None,0.9649465000256896,,,101Aloud,001,2022_Nov_28_1348,ProdSingRedoBetween,2021.2.3,59.919133136003914,
,,,,6,0,6,0,,,,,,,,,,,,,,,,,,,,,,700.5547111006454,None,,,,,,,,,,,,,,,,,concern,19,7,aloud,old,yellow,695.4238999998197,None,695.4238999998197,None,5,3.400742799974978,695.4238999998197,None,3.400742799974978,698.8532170997933,None,699.3582513006404,None,699.3582513006404,None,r,1.1783618992194533,699.3582513006404,None,1.1783618992194533,,,101Aloud,001,2022_Nov_28_1348,ProdSingRedoBetween,2021.2.3,59.919133136003914,
,,,,7,0,7,0,,,,,,,,,,,,,,,,,,,,,,704.4918235000223,None,,,,,,,,,,,,,,,,,fight,34,8,aloud,old,blue,701.0571905001998,None,701.0571905001998,None,1,1.8154009999707341,701.0571905001998,None,1.8154009999707341,702.8918289998546,None,703.4015910001472,None,703.4015910001472,None,n,1.062932699918747,703.4015910001472,None,1.062932699918747,,,101Aloud,001,2022_Nov_28_1348,ProdSingRedoBetween,2021.2.3,59.919133136003914,
,,,,8,0,8,0,,,,,,,,,,,,,,,,,,,,,,708.00143009983,None,,,,,,,,,,,,,,,,,cross,120,9,aloud,new,null,704.9968648003414,None,704.9968648003414,None,1,1.427814899943769,704.9968648003414,None,1.427814899943769,706.4461799999699,None,706.9663430005312,None,706.9663430005312,None,n,1.0022942004725337,706.9663430005312,None,1.0022942004725337,,,101Aloud,001,2022_Nov_28_1348,ProdSingRedoBetween,2021.2.3,59.919133136003914,
,,,,9,0,9,0,,,,,,,,,,,,,,,,,,,,,,714.41845870018,None,,,,,,,,,,,,,,,,,discussion,49,10,aloud,old,blue,708.5161334006116,None,708.5161334006116,None,3,4.19639639928937,708.5161334006116,None,4.19639639928937,712.7403426002711,None,713.2506750999019,None,713.2506750999019,None,f,1.1499249003827572,713.2506750999019,None,1.1499249003827572,,,101Aloud,001,2022_Nov_28_1348,ProdSingRedoBetween,2021.2.3,59.919133136003914,
,,,,10,0,10,0,,,,,,,,,,,,,,,,,,,,,,718.7060599001125,None,,,,,,,,,,,,,,,,,crisis,28,11,aloud,old,yellow,714.9253069004044,None,714.9253069004044,None,6,2.2673110999166965,714.9253069004044,None,2.2673110999166965,717.2214326001704,None,717.7216167999431,None,717.7216167999431,None,r,0.9669044995680451,717.7216167999431,None,0.9669044995680451,,,101Aloud,001,2022_Nov_28_1348,ProdSingRedoBetween,2021.2.3,59.919133136003914,
,,,,11,0,11,0,,,,,,,,,,,,,,,,,,,,,,725.4630057001486,None,,,,,,,,,,,,,,,,,appearance,124,12,aloud,new,null,719.2200329005718,None,719.2200329005718,None,4,4.676525799557567,719.2200329005718,None,4.676525799557567,723.9128028005362,None,724.4134057005867,None,724.4134057005867,None,f,1.0191175993531942,724.4134057005867,None,1.0191175993531942,,,101Aloud,001,2022_Nov_28_1348,ProdSingRedoBetween,2021.2.3,59.919133136003914,
,,,,12,0,12,0,,,,,,,,,,,,,,,,,,,,,,731.2520569004118,None,,,,,,,,,,,,,,,,,burden,9,13,aloud,old,yellow,725.9697445007041,None,725.9697445007041,None,5,3.5026871003210545,725.9697445007041,None,3.5026871003210545,729.5025078998879,None,730.0176493003964,None,730.0176493003964,None,r,1.206848199479282,730.0176493003964,None,1.206848199479282,,,101Aloud,001,2022_Nov_28_1348,ProdSingRedoBetween,2021.2.3,59.919133136003914,
,,,,13,0,13,0,,,,,,,,,,,,,,,,,,,,,,735.2224751999602,None,,,,,,,,,,,,,,,,,capital,55,14,aloud,old,blue,731.7627241006121,None,731.7627241006121,None,1,1.9338425006717443,731.7627241006121,None,1.9338425006717443,733.7242269003764,None,734.2414378002286,None,734.2414378002286,None,n,0.9510257998481393,734.2414378002286,None,0.9510257998481393,,,101Aloud,001,2022_Nov_28_1348,ProdSingRedoBetween,2021.2.3,59.919133136003914,
,,,,14,0,14,0,,,,,,,,,,,,,,,,,,,,,,738.5595498001203,None,,,,,,,,,,,,,,,,,youth,157,15,aloud,new,null,735.7233402999118,None,735.7233402999118,None,1,1.3812229996547103,735.7233402999118,None,1.3812229996547103,737.1258313003927,None,737.6253427006304,None,737.6253427006304,None,n,0.9032610999420285,737.6253427006304,None,0.9032610999420285,,,101Aloud,001,2022_Nov_28_1348,ProdSingRedoBetween,2021.2.3,59.919133136003914,
,,,,15,0,15,0,,,,,,,,,,,,,,,,,,,,,,742.0627872003242,None,,,,,,,,,,,,,,,,,enemy,45,16,aloud,old,blue,739.0624053999782,None,739.0624053999782,None,1,1.4741422003135085,739.0624053999782,None,1.4741422003135085,740.5619087005034,None,741.0664560003206,None,741.0664560003206,None,n,0.9740901999175549,741.0664560003206,None,0.9740901999175549,,,101Aloud,001,2022_Nov_28_1348,ProdSingRedoBetween,2021.2.3,59.919133136003914,
,,,,16,0,16,0,,,,,,,,,,,,,,,,,,,,,,745.1826293999329,None,,,,,,,,,,,,,,,,,strain,4,17,aloud,old,yellow,742.5650027003139,None,742.5650027003139,None,1,1.2515767998993397,742.5650027003139,None,1.2515767998993397,743.8501726007089,None,744.3692751005292,None,744.3692751005292,None,n,0.7912956001237035,744.3692751005292,None,0.7912956001237035,,,101Aloud,001,2022_Nov_28_1348,ProdSingRedoBetween,2021.2.3,59.919133136003914,
,,,,17,0,17,0,,,,,,,,,,,,,,,,,,,,,,752.2895272001624,None,,,,,,,,,,,,,,,,,appeal,1,18,aloud,old,yellow,745.6863668002188,None,745.6863668002188,None,4,5.418196899816394,745.6863668002188,None,5.418196899816394,751.121670300141,None,751.6274007000029,None,751.6274007000029,None,f,0.6373137999325991,751.6274007000029,None,0.6373137999325991,,,101Aloud,001,2022_Nov_28_1348,ProdSingRedoBetween,2021.2.3,59.919133136003914,
,,,,18,0,18,0,,,,,,,,,,,,,,,,,,,,,,755.2092602001503,None,,,,,,,,,,,,,,,,,turkey,163,19,aloud,new,null,752.7975939000025,None,752.7975939000025,None,1,1.146994000300765,752.7975939000025,None,1.146994000300765,753.9820368001238,None,754.4966406002641,None,754.4966406002641,None,n,0.6958774998784065,754.4966406002641,None,0.6958774998784065,,,101Aloud,001,2022_Nov_28_1348,ProdSingRedoBetween,2021.2.3,59.919133136003914,
,,,,19,0,19,0,,,,,,,,,,,,,,,,,,,,,,758.9965511001647,None,,,,,,,,,,,,,,,,,relation,173,20,aloud,new,null,755.7097451006994,None,755.7097451006994,None,1,2.363000700250268,755.7097451006994,None,2.363000700250268,758.1037296000868,None,758.6129868002608,None,758.6129868002608,None,n,0.35544250067323446,758.6129868002608,None,0.35544250067323446,,,101Aloud,001,2022_Nov_28_1348,ProdSingRedoBetween,2021.2.3,59.919133136003914,
,,,,20,0,20,0,,,,,,,,,,,,,,,,,,,,,,761.9387201005593,None,,,,,,,,,,,,,,,,,health,147,21,aloud,new,null,759.5051907002926,None,759.5051907002926,None,1,1.495354199782014,759.5051907002926,None,1.495354199782014,761.0315901003778,None,761.5358218001202,None,761.5358218001202,None,n,0.376834399998188,761.5358218001202,None,0.376834399998188,,,101Aloud,001,2022_Nov_28_1348,ProdSingRedoBetween,2021.2.3,59.919133136003914,
,,,,21,0,21,0,,,,,,,,,,,,,,,,,,,,,,766.1201127003878,None,,,,,,,,,,,,,,,,,store,57,22,aloud,old,blue,762.4539683004841,None,762.4539683004841,None,2,2.2988515999168158,762.4539683004841,None,2.2988515999168158,764.7707475004718,None,765.286007899791,None,765.286007899791,None,n,0.8185000000521541,765.286007899791,None,0.8185000000521541,,,101Aloud,001,2022_Nov_28_1348,ProdSingRedoBetween,2021.2.3,59.919133136003914,
,,,,22,0,22,0,,,,,,,,,,,,,,,,,,,,,,769.6569958003238,None,,,,,,,,,,,,,,,,,command,81,23,aloud,old,red,766.6310041006655,None,766.6310041006655,None,6,1.9295185999944806,766.6310041006655,None,1.9295185999944806,768.5893373005092,None,769.0913409003988,None,769.0913409003988,None,r,0.5492273001000285,769.0913409003988,None,0.5492273001000285,,,101Aloud,001,2022_Nov_28_1348,ProdSingRedoBetween,2021.2.3,59.919133136003914,
,,,,23,0,23,0,,,,,,,,,,,,,,,,,,,,,,776.615270100534,None,,,,,,,,,,,,,,,,,history,84,24,aloud,old,red,770.1648885998875,None,770.1648885998875,None,2,5.243613000027835,770.1648885998875,None,5.243613000027835,775.4306541001424,None,775.9300306001678,None,775.9300306001678,None,n,0.6625308999791741,775.9300306001678,None,0.6625308999791741,,,101Aloud,001,2022_Nov_28_1348,ProdSingRedoBetween,2021.2.3,59.919133136003914,
,,,,24,0,24,0,,,,,,,,,,,,,,,,,,,,,,779.418595300056,None,,,,,,,,,,,,,,,,,thick,104,25,aloud,new,null,777.1180149000138,None,777.1180149000138,None,1,1.306509000249207,777.1180149000138,None,1.306509000249207,778.4491706006229,None,778.9549409998581,None,778.9549409998581,None,n,0.4374434994533658,778.9549409998581,None,0.4374434994533658,,,101Aloud,001,2022_Nov_28_1348,ProdSingRedoBetween,2021.2.3,59.919133136003914,
,,,,25,0,25,0,,,,,,,,,,,,,,,,,,,,,,782.286138500087,None,,,,,,,,,,,,,,,,,phrase,151,26,aloud,new,null,779.9340490000322,None,779.9340490000322,None,1,1.4424356995150447,779.9340490000322,None,1.4424356995150447,781.4123121006414,None,781.9194424003363,None,781.9194424003363,None,n,0.3450345993041992,781.9194424003363,None,0.3450345993041992,,,101Aloud,001,2022_Nov_28_1348,ProdSingRedoBetween,2021.2.3,59.919133136003914,
,,,,26,0,26,0,,,,,,,,,,,,,,,,,,,,,,788.1780473003164,None,,,,,,,,,,,,,,,,,rapid,16,27,aloud,old,yellow,782.798791100271,None,782.798791100271,None,4,4.441909899935126,782.798791100271,None,4.441909899935126,787.2666618004441,None,787.7752260006964,None,787.7752260006964,None,f,0.37735449988394976,787.7752260006964,None,0.37735449988394976,,,101Aloud,001,2022_Nov_28_1348,ProdSingRedoBetween,2021.2.3,59.919133136003914,
,,,,27,0,27,0,,,,,,,,,,,,,,,,,,,,,,790.8957786001265,None,,,,,,,,,,,,,,,,,height,100,28,aloud,new,null,788.7038003997877,None,788.7038003997877,None,1,1.312613899819553,788.7038003997877,None,1.312613899819553,790.0440475000069,None,790.5447240006179,None,790.5447240006179,None,n,0.3277817005291581,790.5447240006179,None,0.3277817005291581,,,101Aloud,001,2022_Nov_28_1348,ProdSingRedoBetween,2021.2.3,59.919133136003914,
,,,,28,0,28,0,,,,,,,,,,,,,,,,,,,,,,794.4984414000064,None,,,,,,,,,,,,,,,,,defeat,32,29,aloud,old,blue,791.3953213999048,None,791.3953213999048,None,6,2.1090136002749205,791.3953213999048,None,2.1090136002749205,793.5328339003026,None,794.0511142006144,None,794.0511142006144,None,r,0.4212834993377328,794.0511142006144,None,0.4212834993377328,,,101Aloud,001,2022_Nov_28_1348,ProdSingRedoBetween,2021.2.3,59.919133136003914,
,,,,29,0,29,0,,,,,,,,,,,,,,,,,,,,,,799.8706323998049,None,,,,,,,,,,,,,,,,,weight,14,30,aloud,old,yellow,794.9998823003843,None,794.9998823003843,None,4,4.192537699826062,794.9998823003843,None,4.192537699826062,799.2207260997966,None,799.724369100295,None,799.724369100295,None,f,0.12406240031123161,799.724369100295,None,0.12406240031123161,,,101Aloud,001,2022_Nov_28_1348,ProdSingRedoBetween,2021.2.3,59.919133136003914,
,,,,30,0,30,0,,,,,,,,,,,,,,,,,,,,,,802.5565186999738,None,,,,,,,,,,,,,,,,,republic,102,31,aloud,new,null,800.3773090001196,None,800.3773090001196,None,1,1.3672263007611036,800.3773090001196,None,1.3672263007611036,801.7782230004668,None,802.2935719005764,None,802.2935719005764,None,n,0.24287050031125546,802.2935719005764,None,0.24287050031125546,,,101Aloud,001,2022_Nov_28_1348,ProdSingRedoBetween,2021.2.3,59.919133136003914,
,,,,31,0,31,0,,,,,,,,,,,,,,,,,,,,,,805.676293800585,None,,,,,,,,,,,,,,,,,dispute,56,32,aloud,old,blue,803.0695616006851,None,803.0695616006851,None,6,1.7628373997285962,803.0695616006851,None,1.7628373997285962,804.8602151004598,None,805.3633871003985,None,805.3633871003985,None,r,0.2850640006363392,805.3633871003985,None,0.2850640006363392,,,101Aloud,001,2022_Nov_28_1348,ProdSingRedoBetween,2021.2.3,59.919133136003914,
,,,,32,0,32,0,,,,,,,,,,,,,,,,,,,,,,808.3622984997928,None,,,,,,,,,,,,,,,,,grade,18,33,aloud,old,yellow,806.1818107999861,None,806.1818107999861,None,1,1.3066111002117395,806.1818107999861,None,1.3066111002117395,807.5124639002606,None,808.0120505001396,None,808.0120505001396,None,n,0.3244473999366164,808.0120505001396,None,0.3244473999366164,,,101Aloud,001,2022_Nov_28_1348,ProdSingRedoBetween,2021.2.3,59.919133136003914,
,,,,33,0,33,0,,,,,,,,,,,,,,,,,,,,,,811.5988651001826,None,,,,,,,,,,,,,,,,,present,168,34,aloud,new,null,808.8692859997973,None,808.8692859997973,None,1,1.8510916996747255,808.8692859997973,None,1.8510916996747255,810.7487585004419,None,811.2526953006163,None,811.2526953006163,None,n,0.3237524004653096,811.2526953006163,None,0.3237524004653096,,,101Aloud,001,2022_Nov_28_1348,ProdSingRedoBetween,2021.2.3,59.919133136003914,
,,,,34,0,34,0,,,,,,,,,,,,,,,,,,,,,,814.4683670001104,None,,,,,,,,,,,,,,,,,member,51,35,aloud,old,blue,812.1082039000466,None,812.1082039000466,None,6,1.5562449004501104,812.1082039000466,None,1.5562449004501104,813.6868409998715,None,814.204239600338,None,814.204239600338,None,r,0.23621040023863316,814.204239600338,None,0.23621040023863316,,,101Aloud,001,2022_Nov_28_1348,ProdSingRedoBetween,2021.2.3,59.919133136003914,
,,,,35,0,35,0,,,,,,,,,,,,,,,,,,,,,,818.1053728004918,None,,,,,,,,,,,,,,,,,whole,134,36,aloud,new,null,814.9857133002952,None,814.9857133002952,None,1,2.302632199600339,814.9857133002952,None,2.302632199600339,817.3049021000043,None,817.8070018999279,None,817.8070018999279,None,n,0.27340579964220524,817.8070018999279,None,0.27340579964220524,,,101Aloud,001,2022_Nov_28_1348,ProdSingRedoBetween,2021.2.3,59.919133136003914,
,,,,36,0,36,0,,,,,,,,,,,,,,,,,,,,,,822.8934214999899,None,,,,,,,,,,,,,,,,,south,41,37,aloud,old,blue,818.608037199825,None,818.608037199825,None,6,3.4643689999356866,818.608037199825,None,3.4643689999356866,822.0939103001729,None,822.5932799000293,None,822.5932799000293,None,r,0.2712043998762965,822.5932799000293,None,0.2712043998762965,,,101Aloud,001,2022_Nov_28_1348,ProdSingRedoBetween,2021.2.3,59.919133136003914,
,,,,37,0,37,0,,,,,,,,,,,,,,,,,,,,,,825.429002800025,None,,,,,,,,,,,,,,,,,benefit,158,38,aloud,new,null,823.4028871003538,None,823.4028871003538,None,1,1.2135886996984482,823.4028871003538,None,1.2135886996984482,824.6463900003582,None,825.1466129999608,None,825.1466129999608,None,n,0.2536826999858022,825.1466129999608,None,0.2536826999858022,,,101Aloud,001,2022_Nov_28_1348,ProdSingRedoBetween,2021.2.3,59.919133136003914,
,,,,38,0,38,0,,,,,,,,,,,,,,,,,,,,,,829.5834156004712,None,,,,,,,,,,,,,,,,,subject,63,39,aloud,old,red,825.9299226999283,None,825.9299226999283,None,4,2.814473900012672,825.9299226999283,None,2.814473900012672,828.768387700431,None,829.286490900442,None,829.286490900442,None,f,0.2819223999977112,829.286490900442,None,0.2819223999977112,,,101Aloud,001,2022_Nov_28_1348,ProdSingRedoBetween,2021.2.3,59.919133136003914,
,,,,39,0,39,0,,,,,,,,,,,,,,,,,,,,,,832.4195353006944,None,,,,,,,,,,,,,,,,,property,116,40,aloud,new,null,830.099103000015,None,830.099103000015,None,1,1.5253839008510113,830.099103000015,None,1.5253839008510113,831.652190499939,None,832.1527112005278,None,832.1527112005278,None,n,0.23964000027626753,832.1527112005278,None,0.23964000027626753,,,101Aloud,001,2022_Nov_28_1348,ProdSingRedoBetween,2021.2.3,59.919133136003914,
,,,,40,0,40,0,,,,,,,,,,,,,,,,,,,,,,835.2390855001286,None,,,,,,,,,,,,,,,,,orchestra,175,41,aloud,new,null,832.9250675998628,None,832.9250675998628,None,1,1.3234621994197369,832.9250675998628,None,1.3234621994197369,834.2714702002704,None,834.7756667006761,None,834.7756667006761,None,n,0.43278220016509295,834.7756667006761,None,0.43278220016509295,,,101Aloud,001,2022_Nov_28_1348,ProdSingRedoBetween,2021.2.3,59.919133136003914,
,,,,41,0,41,0,,,,,,,,,,,,,,,,,,,,,,840.8280508005992,None,,,,,,,,,,,,,,,,,order,115,42,aloud,new,null,835.7489955006167,None,835.7489955006167,None,5,3.9553860994055867,835.7489955006167,None,3.9553860994055867,839.7290756003931,None,840.2440523998812,None,840.2440523998812,None,r,0.5563238998875022,840.2440523998812,None,0.5563238998875022,,,101Aloud,001,2022_Nov_28_1348,ProdSingRedoBetween,2021.2.3,59.919133136003914,
,,,,42,0,42,0,,,,,,,,,,,,,,,,,,,,,,843.9144004005939,None,,,,,,,,,,,,,,,,,thing,80,43,aloud,old,red,841.3289277004078,None,841.3289277004078,None,6,1.7994053000584245,841.3289277004078,None,1.7994053000584245,843.1471263999119,None,843.647550300695,None,843.647550300695,None,r,0.24074039980769157,843.647550300695,None,0.24074039980769157,,,101Aloud,001,2022_Nov_28_1348,ProdSingRedoBetween,2021.2.3,59.919133136003914,
,,,,43,0,43,0,,,,,,,,,,,,,,,,,,,,,,847.9184988997877,None,,,,,,,,,,,,,,,,,smooth,87,44,aloud,old,red,844.4185105003417,None,844.4185105003417,None,4,2.4778576996177435,844.4185105003417,None,2.4778576996177435,846.9185970006511,None,847.4181257002056,None,847.4181257002056,None,f,0.4782316004857421,847.4181257002056,None,0.4782316004857421,,,101Aloud,001,2022_Nov_28_1348,ProdSingRedoBetween,2021.2.3,59.919133136003914,
,,,,44,0,44,0,,,,,,,,,,,,,,,,,,,,,,851.205105099827,None,,,,,,,,,,,,,,,,,direction,107,45,aloud,new,null,848.4331002999097,None,848.4331002999097,None,1,1.879275900311768,848.4331002999097,None,1.879275900311768,850.3384696999565,None,850.8430122006685,None,850.8430122006685,None,n,0.33356889989227057,850.8430122006685,None,0.33356889989227057,,,101Aloud,001,2022_Nov_28_1348,ProdSingRedoBetween,2021.2.3,59.919133136003914,
,,,,45,0,45,0,,,,,,,,,,,,,,,,,,,,,,854.0595118002966,None,,,,,,,,,,,,,,,,,engineer,37,46,aloud,old,blue,851.7101245000958,None,851.7101245000958,None,6,1.3861853992566466,851.7101245000958,None,1.3861853992566466,853.1243382003158,None,853.6278520999476,None,853.6278520999476,None,r,0.4126284997910261,853.6278520999476,None,0.4126284997910261,,,101Aloud,001,2022_Nov_28_1348,ProdSingRedoBetween,2021.2.3,59.919133136003914,
,,,,46,0,46,0,,,,,,,,,,,,,,,,,,,,,,860.1470883004367,None,,,,,,,,,,,,,,,,,balance,17,47,aloud,old,yellow,854.5784922000021,None,854.5784922000021,None,3,3.085847600363195,854.5784922000021,None,3.085847600363195,857.6955109005794,None,858.1955297002569,None,858.1955297002569,None,f,1.9328824998810887,858.1955297002569,None,1.9328824998810887,,,101Aloud,001,2022_Nov_28_1348,ProdSingRedoBetween,2021.2.3,59.919133136003914,
,,,,47,0,47,0,,,,,,,,,,,,,,,,,,,,,,862.7165009006858,None,,,,,,,,,,,,,,,,,fashion,136,48,aloud,new,null,860.6505097998306,None,860.6505097998306,None,1,1.181852899491787,860.6505097998306,None,1.181852899491787,861.8500385005027,None,862.3496464006603,None,862.3496464006603,None,n,0.3387214997783303,862.3496464006603,None,0.3387214997783303,,,101Aloud,001,2022_Nov_28_1348,ProdSingRedoBetween,2021.2.3,59.919133136003914,
,,,,48,0,48,0,,,,,,,,,,,,,,,,,,,,,,865.3023993000388,None,,,,,,,,,,,,,,,,,column,50,49,aloud,old,blue,863.2249352000654,None,863.2249352000654,None,6,1.319424900226295,863.2249352000654,None,1.319424900226295,864.5705495998263,None,865.0856483001262,None,865.0856483001262,None,r,0.18672440014779568,865.0856483001262,None,0.18672440014779568,,,101Aloud,001,2022_Nov_28_1348,ProdSingRedoBetween,2021.2.3,59.919133136003914,
,,,,49,0,49,0,,,,,,,,,,,,,,,,,,,,,,868.3424035003409,None,,,,,,,,,,,,,,,,,general,139,50,aloud,new,null,865.8126450004056,None,865.8126450004056,None,6,1.307651599869132,865.8126450004056,None,1.307651599869132,867.1385177997872,None,867.6461719004437,None,867.6461719004437,None,r,0.6661901008337736,867.6461719004437,None,0.6661901008337736,,,101Aloud,001,2022_Nov_28_1348,ProdSingRedoBetween,2021.2.3,59.919133136003914,
,,,,50,0,50,0,,,,,,,,,,,,,,,,,,,,,,870.8746391003951,None,,,,,,,,,,,,,,,,,rural,114,51,aloud,new,null,868.8560672998428,None,868.8560672998428,None,1,1.216381799429655,868.8560672998428,None,1.216381799429655,870.0904886005446,None,870.5934343002737,None,870.5934343002737,None,n,0.2549617001786828,870.5934343002737,None,0.2549617001786828,,,101Aloud,001,2022_Nov_28_1348,ProdSingRedoBetween,2021.2.3,59.919133136003914,
,,,,51,0,51,0,,,,,,,,,,,,,,,,,,,,,,873.694128700532,None,,,,,,,,,,,,,,,,,salary,61,52,aloud,old,red,871.3908847002313,None,871.3908847002313,None,6,1.4894239995628595,871.3908847002313,None,1.4894239995628595,872.9100462999195,None,873.4196752002463,None,873.4196752002463,None,r,0.24462869949638844,873.4196752002463,None,0.24462869949638844,,,101Aloud,001,2022_Nov_28_1348,ProdSingRedoBetween,2021.2.3,59.919133136003914,
,,,,52,0,52,0,,,,,,,,,,,,,,,,,,,,,,877.3811776004732,None,,,,,,,,,,,,,,,,,country,3,53,aloud,old,yellow,874.2033561998978,None,874.2033561998978,None,1,2.2929789004847407,874.2033561998978,None,2.2929789004847407,876.5178912999108,None,877.0396009003744,None,877.0396009003744,None,n,0.32071049977093935,877.0396009003744,None,0.32071049977093935,,,101Aloud,001,2022_Nov_28_1348,ProdSingRedoBetween,2021.2.3,59.919133136003914,
,,,,53,0,53,0,,,,,,,,,,,,,,,,,,,,,,881.5853184005246,None,,,,,,,,,,,,,,,,,guide,40,54,aloud,old,blue,877.8879223000258,None,877.8879223000258,None,3,3.0563636999577284,877.8879223000258,None,3.0563636999577284,880.9699531998485,None,881.4853105004877,None,881.4853105004877,None,f,0.0750390999019146,881.4853105004877,None,0.0750390999019146,,,101Aloud,001,2022_Nov_28_1348,ProdSingRedoBetween,2021.2.3,59.919133136003914,
,,,,54,0,54,0,,,,,,,,,,,,,,,,,,,,,,884.4715317999944,None,,,,,,,,,,,,,,,,,master,140,55,aloud,new,null,882.0890784999356,None,882.0890784999356,None,1,1.6152373002842069,882.0890784999356,None,1.6152373002842069,883.7243343004957,None,884.242168799974,None,884.242168799974,None,n,0.21409919951111078,884.242168799974,None,0.21409919951111078,,,101Aloud,001,2022_Nov_28_1348,ProdSingRedoBetween,2021.2.3,59.919133136003914,
,,,,55,0,55,0,,,,,,,,,,,,,,,,,,,,,,887.2242251001298,None,,,,,,,,,,,,,,,,,institute,46,56,aloud,old,blue,884.9775497000664,None,884.9775497000664,None,6,1.4547404004260898,884.9775497000664,None,1.4547404004260898,886.4582802001387,None,886.9599346006289,None,886.9599346006289,None,r,0.24831620045006275,886.9599346006289,None,0.24831620045006275,,,101Aloud,001,2022_Nov_28_1348,ProdSingRedoBetween,2021.2.3,59.919133136003914,
,,,,56,0,56,0,,,,,,,,,,,,,,,,,,,,,,890.7124036001042,None,,,,,,,,,,,,,,,,,surface,174,57,aloud,new,null,887.7304940000176,None,887.7304940000176,None,2,2.253786599263549,887.7304940000176,None,2.253786599263549,890.013310899958,None,890.5277342004701,None,890.5277342004701,None,n,0.16064890008419752,890.5277342004701,None,0.16064890008419752,,,101Aloud,001,2022_Nov_28_1348,ProdSingRedoBetween,2021.2.3,59.919133136003914,
,,,,57,0,57,0,,,,,,,,,,,,,,,,,,,,,,894.9487161999568,None,,,,,,,,,,,,,,,,,recall,47,58,aloud,old,blue,891.2288955003023,None,891.2288955003023,None,6,3.0274355998262763,891.2288955003023,None,3.0274355998262763,894.2901119003072,None,894.798602600582,None,894.798602600582,None,r,0.12973270006477833,894.798602600582,None,0.12973270006477833,,,101Aloud,001,2022_Nov_28_1348,ProdSingRedoBetween,2021.2.3,59.919133136003914,
,,,,58,0,58,0,,,,,,,,,,,,,,,,,,,,,,898.4855343000963,None,,,,,,,,,,,,,,,,,escape,58,59,aloud,old,blue,895.4490796001628,None,895.4490796001628,None,4,2.335385600104928,895.4490796001628,None,2.335385600104928,897.813109700568,None,898.3227123003453,None,898.3227123003453,None,f,0.14160370081663132,898.3227123003453,None,0.14160370081663132,,,101Aloud,001,2022_Nov_28_1348,ProdSingRedoBetween,2021.2.3,59.919133136003914,
,,,,59,0,59,0,,,,,,,,,,,,,,,,,,,,,,903.3904121005908,None,,,,,,,,,,,,,,,,,object,143,60,aloud,new,null,898.9942641006783,None,898.9942641006783,None,4,3.6379944002255797,898.9942641006783,None,3.6379944002255797,902.6575988000259,None,903.1634979005903,None,903.1634979005903,None,f,0.2048179004341364,903.1634979005903,None,0.2048179004341364,,,101Aloud,001,2022_Nov_28_1348,ProdSingRedoBetween,2021.2.3,59.919133136003914,
,,,,60,0,60,0,,,,,,,,,,,,,,,,,,,,,,905.9596417006105,None,,,,,,,,,,,,,,,,,division,129,61,aloud,new,null,903.8985010003671,None,903.8985010003671,None,1,1.31768050044775,903.8985010003671,None,1.31768050044775,905.2523234002292,None,905.7592969005927,None,905.7592969005927,None,n,0.17695629969239235,905.7592969005927,None,0.17695629969239235,,,101Aloud,001,2022_Nov_28_1348,ProdSingRedoBetween,2021.2.3,59.919133136003914,
,,,,61,0,61,0,,,,,,,,,,,,,,,,,,,,,,909.196147300303,None,,,,,,,,,,,,,,,,,solution,64,62,aloud,old,red,906.4643248002976,None,906.4643248002976,None,6,2.0559593997895718,906.4643248002976,None,2.0559593997895718,908.5466888006777,None,909.0515716997907,None,909.0515716997907,None,r,0.11666599940508604,909.0515716997907,None,0.11666599940508604,,,101Aloud,001,2022_Nov_28_1348,ProdSingRedoBetween,2021.2.3,59.919133136003914,
,,,,62,0,62,0,,,,,,,,,,,,,,,,,,,,,,912.9168380005285,None,,,,,,,,,,,,,,,,,staff,88,63,aloud,old,red,909.7068613003939,None,909.7068613003939,None,6,2.38939689937979,909.7068613003939,None,2.38939689937979,912.1190499998629,None,912.6330703999847,None,912.6330703999847,None,r,0.25531879998743534,912.6330703999847,None,0.25531879998743534,,,101Aloud,001,2022_Nov_28_1348,ProdSingRedoBetween,2021.2.3,59.919133136003914,
,,,,63,0,63,0,,,,,,,,,,,,,,,,,,,,,,915.8193308003247,None,,,,,,,,,,,,,,,,,comfort,71,64,aloud,old,red,913.4219054002315,None,913.4219054002315,None,6,1.658274200744927,913.4219054002315,None,1.658274200744927,915.1078311000019,None,915.6195427002385,None,915.6195427002385,None,r,0.18061920069158077,915.6195427002385,None,0.18061920069158077,,,101Aloud,001,2022_Nov_28_1348,ProdSingRedoBetween,2021.2.3,59.919133136003914,
,,,,64,0,64,0,,,,,,,,,,,,,,,,,,,,,,924.7289003003389,None,,,,,,,,,,,,,,,,,travel,2,65,aloud,old,yellow,916.3252947004512,None,916.3252947004512,None,3,7.547045100480318,916.3252947004512,None,7.547045100480318,923.9028929006308,None,924.4187598004937,None,924.4187598004937,None,f,0.28550689946860075,924.4187598004937,None,0.28550689946860075,,,101Aloud,001,2022_Nov_28_1348,ProdSingRedoBetween,2021.2.3,59.919133136003914,
,,,,65,0,65,0,,,,,,,,,,,,,,,,,,,,,,927.2642133003101,None,,,,,,,,,,,,,,,,,crime,127,66,aloud,new,null,925.2389369998127,None,925.2389369998127,None,1,1.2574676992371678,925.2389369998127,None,1.2574676992371678,926.5228506000713,None,927.0304802004248,None,927.0304802004248,None,n,0.21774100046604872,927.0304802004248,None,0.21774100046604872,,,101Aloud,001,2022_Nov_28_1348,ProdSingRedoBetween,2021.2.3,59.919133136003914,
,,,,66,0,66,0,,,,,,,,,,,,,,,,,,,,,,931.1683173002675,None,,,,,,,,,,,,,,,,,election,133,67,aloud,new,null,927.7706470005214,None,927.7706470005214,None,1,1.781466799788177,927.7706470005214,None,1.781466799788177,929.5838664006442,None,930.088282099925,None,930.088282099925,None,n,1.0559296002611518,930.088282099925,None,1.0559296002611518,,,101Aloud,001,2022_Nov_28_1348,ProdSingRedoBetween,2021.2.3,59.919133136003914,
,,,,67,0,67,0,,,,,,,,,,,,,,,,,,,,,,934.2712674001232,None,,,,,,,,,,,,,,,,,month,125,68,aloud,new,null,931.6728164004162,None,931.6728164004162,None,2,1.855497899465263,931.6728164004162,None,1.855497899465263,933.5582367004827,None,934.0712878005579,None,934.0712878005579,None,n,0.18492519948631525,934.0712878005579,None,0.18492519948631525,,,101Aloud,001,2022_Nov_28_1348,ProdSingRedoBetween,2021.2.3,59.919133136003914,
,,,,68,0,68,0,,,,,,,,,,,,,,,,,,,,,,938.7138974005356,None,,,,,,,,,,,,,,,,,running,23,69,aloud,old,yellow,934.7765787001699,None,934.7765787001699,None,1,3.2316801995038986,934.7765787001699,None,3.2316801995038986,938.0257636001334,None,938.5285215005279,None,938.5285215005279,None,n,0.15972779970616102,938.5285215005279,None,0.15972779970616102,,,101Aloud,001,2022_Nov_28_1348,ProdSingRedoBetween,2021.2.3,59.919133136003914,
,,,,69,0,69,0,,,,,,,,,,,,,,,,,,,,,,942.946480200626,None,,,,,,,,,,,,,,,,,question,25,70,aloud,old,yellow,939.2298447005451,None,939.2298447005451,None,6,2.9624000005424023,939.2298447005451,None,2.9624000005424023,942.2208651006222,None,942.7298408001661,None,942.7298408001661,None,r,0.1984074003994465,942.7298408001661,None,0.1984074003994465,,,101Aloud,001,2022_Nov_28_1348,ProdSingRedoBetween,2021.2.3,59.919133136003914,
,,,,70,0,70,0,,,,,,,,,,,,,,,,,,,,,,945.74934390001,None,,,,,,,,,,,,,,,,,spoke,65,71,aloud,old,red,943.4578274004161,None,943.4578274004161,None,4,1.542272699996829,943.4578274004161,None,1.542272699996829,945.0336114000529,None,945.5491736000404,None,945.5491736000404,None,f,0.17894950043410063,945.5491736000404,None,0.17894950043410063,,,101Aloud,001,2022_Nov_28_1348,ProdSingRedoBetween,2021.2.3,59.919133136003914,
,,,,71,0,71,0,,,,,,,,,,,,,,,,,,,,,,948.4353625001386,None,,,,,,,,,,,,,,,,,degree,33,72,aloud,old,blue,946.2590397000313,None,946.2590397000313,None,6,1.4374179998412728,946.2590397000313,None,1.4374179998412728,947.7213638005778,None,948.2352852001786,None,948.2352852001786,None,r,0.1809424003586173,948.2352852001786,None,0.1809424003586173,,,101Aloud,001,2022_Nov_28_1348,ProdSingRedoBetween,2021.2.3,59.919133136003914,
,,,,72,0,72,0,,,,,,,,,,,,,,,,,,,,,,953.0108734006062,None,,,,,,,,,,,,,,,,,judge,167,73,aloud,new,null,948.9474042002112,None,948.9474042002112,None,3,3.1967551996931434,948.9474042002112,None,3.1967551996931434,952.1753684999421,None,952.6952812001109,None,952.6952812001109,None,f,0.28896680008620024,952.6952812001109,None,0.28896680008620024,,,101Aloud,001,2022_Nov_28_1348,ProdSingRedoBetween,2021.2.3,59.919133136003914,
,,,,73,0,73,0,,,,,,,,,,,,,,,,,,,,,,956.7102521006018,None,,,,,,,,,,,,,,,,,education,119,74,aloud,new,null,953.528091000393,None,953.528091000393,None,2,2.4481085995212197,953.528091000393,None,2.4481085995212197,956.0079754004255,None,956.5102406004444,None,956.5102406004444,None,n,0.17797449976205826,956.5102406004444,None,0.17797449976205826,,,101Aloud,001,2022_Nov_28_1348,ProdSingRedoBetween,2021.2.3,59.919133136003914,
,,,,74,0,74,0,,,,,,,,,,,,,,,,,,,,,,961.9154778998345,None,,,,,,,,,,,,,,,,,problem,38,75,aloud,old,blue,957.2138884998858,None,957.2138884998858,None,5,3.5462755002081394,957.2138884998858,None,3.5462755002081394,960.7821425003931,None,961.2888023005798,None,961.2888023005798,None,r,0.607349700294435,961.2888023005798,None,0.607349700294435,,,101Aloud,001,2022_Nov_28_1348,ProdSingRedoBetween,2021.2.3,59.919133136003914,
,,,,75,0,75,0,,,,,,,,,,,,,,,,,,,,,,966.6866695005447,None,,,,,,,,,,,,,,,,,sound,131,76,aloud,new,null,962.4317013006657,None,962.4317013006657,None,2,3.3765050005167723,962.4317013006657,None,3.3765050005167723,965.8383405003697,None,966.3532699998468,None,966.3532699998468,None,n,0.3109245002269745,966.3532699998468,None,0.3109245002269745,,,101Aloud,001,2022_Nov_28_1348,ProdSingRedoBetween,2021.2.3,59.919133136003914,
,,,,76,0,76,0,,,,,,,,,,,,,,,,,,,,,,970.0735804000869,None,,,,,,,,,,,,,,,,,stranger,176,77,aloud,new,null,967.1903748000041,None,967.1903748000041,None,1,2.1377518996596336,967.1903748000041,None,2.1377518996596336,969.3576751006767,None,969.8735775006935,None,969.8735775006935,None,n,0.18257619999349117,969.8735775006935,None,0.18257619999349117,,,101Aloud,001,2022_Nov_28_1348,ProdSingRedoBetween,2021.2.3,59.919133136003914,
,,,,77,0,77,0,,,,,,,,,,,,,,,,,,,,,,972.7595984004438,None,,,,,,,,,,,,,,,,,tough,159,78,aloud,new,null,970.5742557002231,None,970.5742557002231,None,1,1.393889999948442,970.5742557002231,None,1.393889999948442,971.9931634003296,None,972.4968400998041,None,972.4968400998041,None,n,0.23134430032223463,972.4968400998041,None,0.23134430032223463,,,101Aloud,001,2022_Nov_28_1348,ProdSingRedoBetween,2021.2.3,59.919133136003914,
,,,,78,0,78,0,,,,,,,,,,,,,,,,,,,,,,975.8960030004382,None,,,,,,,,,,,,,,,,,close,15,79,aloud,old,yellow,973.2668296005577,None,973.2668296005577,None,6,1.9012505002319813,973.2668296005577,None,1.9012505002319813,975.1954110004008,None,975.6960109006613,None,975.6960109006613,None,r,0.17611940018832684,975.6960109006613,None,0.17611940018832684,,,101Aloud,001,2022_Nov_28_1348,ProdSingRedoBetween,2021.2.3,59.919133136003914,
,,,,79,0,79,0,,,,,,,,,,,,,,,,,,,,,,978.3985550003126,None,,,,,,,,,,,,,,,,,trash,135,80,aloud,new,null,976.4062278000638,None,976.4062278000638,None,1,1.2818978000432253,976.4062278000638,None,1.2818978000432253,977.715789699927,None,978.2173284003511,None,978.2173284003511,None,n,0.15085000079125166,978.2173284003511,None,0.15085000079125166,,,101Aloud,001,2022_Nov_28_1348,ProdSingRedoBetween,2021.2.3,59.919133136003914,
,,,,80,0,80,0,,,,,,,,,,,,,,,,,,,,,,982.6027716007084,None,,,,,,,,,,,,,,,,,reading,44,81,aloud,old,blue,978.9050536006689,None,978.9050536006689,None,4,2.9831247003749013,978.9050536006689,None,2.9831247003749013,981.9223726000637,None,982.4416612004861,None,982.4416612004861,None,f,0.14256069995462894,982.4416612004861,None,0.14256069995462894,,,101Aloud,001,2022_Nov_28_1348,ProdSingRedoBetween,2021.2.3,59.919133136003914,
,,,,81,0,81,0,,,,,,,,,,,,,,,,,,,,,,985.6407460002229,None,,,,,,,,,,,,,,,,,taste,48,82,aloud,old,blue,983.1196472998708,None,983.1196472998708,None,4,1.7925177998840809,983.1196472998708,None,1.7925177998840809,984.942974800244,None,985.4557094005868,None,985.4557094005868,None,f,0.15256529953330755,985.4557094005868,None,0.15256529953330755,,,101Aloud,001,2022_Nov_28_1348,ProdSingRedoBetween,2021.2.3,59.919133136003914,
,,,,82,0,82,0,,,,,,,,,,,,,,,,,,,,,,989.0453476998955,None,,,,,,,,,,,,,,,,,strength,122,83,aloud,new,null,986.158505000174,None,986.158505000174,None,4,1.8496461994946003,986.158505000174,None,1.8496461994946003,988.0267146006227,None,988.5420944998041,None,988.5420944998041,None,f,0.4821555996313691,988.5420944998041,None,0.4821555996313691,,,101Aloud,001,2022_Nov_28_1348,ProdSingRedoBetween,2021.2.3,59.919133136003914,
,,,,83,0,83,0,,,,,,,,,,,,,,,,,,,,,,991.7155100004748,None,,,,,,,,,,,,,,,,,military,85,84,aloud,old,red,989.569512899965,None,989.569512899965,None,6,1.422682600095868,989.569512899965,None,1.422682600095868,991.013633900322,None,991.5284975999966,None,991.5284975999966,None,r,0.15965049993246794,991.5284975999966,None,0.15965049993246794,,,101Aloud,001,2022_Nov_28_1348,ProdSingRedoBetween,2021.2.3,59.919133136003914,
,,,,84,0,84,0,,,,,,,,,,,,,,,,,,,,,,994.8149760998785,None,,,,,,,,,,,,,,,,,title,31,85,aloud,old,blue,992.2386314999312,None,992.2386314999312,None,2,1.8414920000359416,992.2386314999312,None,1.8414920000359416,994.0976474005729,None,994.6011708006263,None,994.6011708006263,None,n,0.19897270016372204,994.6011708006263,None,0.19897270016372204,,,101Aloud,001,2022_Nov_28_1348,ProdSingRedoBetween,2021.2.3,59.919133136003914,
,,,,85,0,85,0,,,,,,,,,,,,,,,,,,,,,,997.500878999941,None,,,,,,,,,,,,,,,,,sunset,54,86,aloud,old,blue,995.3235344998538,None,995.3235344998538,None,1,1.4047156991437078,995.3235344998538,None,1.4047156991437078,996.7506635999307,None,997.265232199803,None,997.265232199803,None,n,0.21489439997822046,997.265232199803,None,0.21489439997822046,,,101Aloud,001,2022_Nov_28_1348,ProdSingRedoBetween,2021.2.3,59.919133136003914,
,,,,86,0,86,0,,,,,,,,,,,,,,,,,,,,,,1001.4883186006919,None,,,,,,,,,,,,,,,,,estate,94,87,aloud,new,null,998.0105408001691,None,998.0105408001691,None,1,2.277476300485432,998.0105408001691,None,2.277476300485432,1000.3049681000412,None,1000.804285700433,None,1000.804285700433,None,n,0.659830299206078,1000.804285700433,None,0.659830299206078,,,101Aloud,001,2022_Nov_28_1348,ProdSingRedoBetween,2021.2.3,59.919133136003914,
,,,,87,0,87,0,,,,,,,,,,,,,,,,,,,,,,1009.3127284003422,None,,,,,,,,,,,,,,,,,weather,117,88,aloud,new,null,1001.9952328000218,None,1001.9952328000218,None,4,6.660840199328959,1001.9952328000218,None,6.660840199328959,1008.6816974999383,None,1009.1958515997976,None,1009.1958515997976,None,f,0.10023159999400377,1009.1958515997976,None,0.10023159999400377,,,101Aloud,001,2022_Nov_28_1348,ProdSingRedoBetween,2021.2.3,59.919133136003914,
,,,,88,0,88,0,,,,,,,,,,,,,,,,,,,,,,1013.9172718003392,None,,,,,,,,,,,,,,,,,exchange,99,89,aloud,new,null,1009.8323873998597,None,1009.8323873998597,None,1,3.2556638000532985,1009.8323873998597,None,3.2556638000532985,1013.1173843005672,None,1013.6231794003397,None,1013.6231794003397,None,n,0.2729144003242254,1013.6231794003397,None,0.2729144003242254,,,101Aloud,001,2022_Nov_28_1348,ProdSingRedoBetween,2021.2.3,59.919133136003914,
,,,,89,0,89,0,,,,,,,,,,,,,,,,,,,,,,1016.5032809004188,None,,,,,,,,,,,,,,,,,background,165,90,aloud,new,null,1014.4195603998378,None,1014.4195603998378,None,1,1.3165905000641942,1014.4195603998378,None,1.3165905000641942,1015.7585022998974,None,1016.2789245005697,None,1016.2789245005697,None,n,0.20912929996848106,1016.2789245005697,None,0.20912929996848106,,,101Aloud,001,2022_Nov_28_1348,ProdSingRedoBetween,2021.2.3,59.919133136003914,
,,,,90,0,90,0,,,,,,,,,,,,,,,,,,,,,,1020.5237361006439,None,,,,,,,,,,,,,,,,,empty,161,91,aloud,new,null,1017.0068182004616,None,1017.0068182004616,None,1,2.833286300301552,1017.0068182004616,None,2.833286300301552,1019.8577045006678,None,1020.3647146001458,None,1020.3647146001458,None,n,0.13930779974907637,1020.3647146001458,None,0.13930779974907637,,,101Aloud,001,2022_Nov_28_1348,ProdSingRedoBetween,2021.2.3,59.919133136003914,
,,,,91,0,91,0,,,,,,,,,,,,,,,,,,,,,,1023.528666600585,None,,,,,,,,,,,,,,,,,minute,113,92,aloud,new,null,1021.0283924005926,None,1021.0283924005926,None,1,1.6596655007451773,1021.0283924005926,None,1.6596655007451773,1022.7092420002446,None,1023.2101092003286,None,1023.2101092003286,None,n,0.2860624995082617,1023.2101092003286,None,0.2860624995082617,,,101Aloud,001,2022_Nov_28_1348,ProdSingRedoBetween,2021.2.3,59.919133136003914,
,,,,92,0,92,0,,,,,,,,,,,,,,,,,,,,,,1027.9312871005386,None,,,,,,,,,,,,,,,,,comedy,67,93,aloud,old,red,1024.0514794001356,None,1024.0514794001356,None,4,3.1325641004368663,1024.0514794001356,None,3.1325641004368663,1027.2166430000216,None,1027.7352505000308,None,1027.7352505000308,None,f,0.16882670018821955,1027.7352505000308,None,0.16882670018821955,,,101Aloud,001,2022_Nov_28_1348,ProdSingRedoBetween,2021.2.3,59.919133136003914,
,,,,93,0,93,0,,,,,,,,,,,,,,,,,,,,,,1032.2121732002124,None,,,,,,,,,,,,,,,,,growth,150,94,aloud,new,null,1028.4349298002198,None,1028.4349298002198,None,2,2.957085100002587,1028.4349298002198,None,2.957085100002587,1031.4197243005037,None,1031.9358042003587,None,1031.9358042003587,None,n,0.24019439984112978,1031.9358042003587,None,0.24019439984112978,,,101Aloud,001,2022_Nov_28_1348,ProdSingRedoBetween,2021.2.3,59.919133136003914,
,,,,94,0,94,0,,,,,,,,,,,,,,,,,,,,,,1038.6948560001329,None,,,,,,,,,,,,,,,,,debate,91,95,aloud,new,null,1032.7192087005824,None,1032.7192087005824,None,3,5.400847700424492,1032.7192087005824,None,5.400847700424492,1038.1413328005,None,1038.6440749000758,None,1038.6440749000758,None,f,0.028187300078570843,1038.6440749000758,None,0.028187300078570843,,,101Aloud,001,2022_Nov_28_1348,ProdSingRedoBetween,2021.2.3,59.919133136003914,
,,,,95,0,95,0,,,,,,,,,,,,,,,,,,,,,,1044.2641994003206,None,,,,,,,,,,,,,,,,,worker,68,96,aloud,old,red,1039.209370000288,None,1039.209370000288,None,2,4.062656099908054,1039.209370000288,None,4.062656099908054,1043.2977130999789,None,1043.7977130003273,None,1043.7977130003273,None,n,0.45033259969204664,1043.7977130003273,None,0.45033259969204664,,,101Aloud,001,2022_Nov_28_1348,ProdSingRedoBetween,2021.2.3,59.919133136003914,
,,,,96,0,96,0,,,,,,,,,,,,,,,,,,,,,,1048.7687819004059,None,,,,,,,,,,,,,,,,,industry,146,97,aloud,new,null,1044.7648684000596,None,1044.7648684000596,None,4,2.7151520997285843,1044.7648684000596,None,2.7151520997285843,1047.5019388003275,None,1048.001378200017,None,1048.001378200017,None,f,0.750679099932313,1048.001378200017,None,0.750679099932313,,,101Aloud,001,2022_Nov_28_1348,ProdSingRedoBetween,2021.2.3,59.919133136003914,
,,,,97,0,97,0,,,,,,,,,,,,,,,,,,,,,,1054.8914956999943,None,,,,,,,,,,,,,,,,,guard,90,98,aloud,new,null,1049.2690938003361,None,1049.2690938003361,None,3,4.5389262000098825,1049.2690938003361,None,4.5389262000098825,1053.824695800431,None,1054.3291771002114,None,1054.3291771002114,None,f,0.5347368000075221,1054.3291771002114,None,0.5347368000075221,,,101Aloud,001,2022_Nov_28_1348,ProdSingRedoBetween,2021.2.3,59.919133136003914,
,,,,98,0,98,0,,,,,,,,,,,,,,,,,,,,,,1057.6440351000056,None,,,,,,,,,,,,,,,,,route,109,99,aloud,new,null,1055.3981298003346,None,1055.3981298003346,None,1,1.5219537997618318,1055.3981298003346,None,1.5219537997618318,1056.9516246998683,None,1057.460851999931,None,1057.460851999931,None,n,0.155175999738276,1057.460851999931,None,0.155175999738276,,,101Aloud,001,2022_Nov_28_1348,ProdSingRedoBetween,2021.2.3,59.919133136003914,
,,,,99,0,99,0,,,,,,,,,,,,,,,,,,,,,,1060.1467424007133,None,,,,,,,,,,,,,,,,,junior,108,100,aloud,new,null,1058.1464232997969,None,1058.1464232997969,None,1,1.2536631999537349,1058.1464232997969,None,1.2536631999537349,1059.4316897001117,None,1059.9482180001214,None,1059.9482180001214,None,n,0.17981019988656044,1059.9482180001214,None,0.17981019988656044,,,101Aloud,001,2022_Nov_28_1348,ProdSingRedoBetween,2021.2.3,59.919133136003914,
,,,,100,0,100,0,,,,,,,,,,,,,,,,,,,,,,1062.9848372004926,None,,,,,,,,,,,,,,,,,minor,8,101,aloud,old,yellow,1060.6538134999573,None,1060.6538134999573,None,6,1.5701860999688506,1060.6538134999573,None,1.5701860999688506,1062.2488779006526,None,1062.7537949997932,None,1062.7537949997932,None,r,0.2062171995639801,1062.7537949997932,None,0.2062171995639801,,,101Aloud,001,2022_Nov_28_1348,ProdSingRedoBetween,2021.2.3,59.919133136003914,
,,,,101,0,101,0,,,,,,,,,,,,,,,,,,,,,,1065.6855175001547,None,,,,,,,,,,,,,,,,,pattern,70,102,aloud,old,red,1063.5033940002322,None,1063.5033940002322,None,6,1.4085314003750682,1063.5033940002322,None,1.4085314003750682,1064.9486484006047,None,1065.4520931001753,None,1065.4520931001753,None,r,0.20378420036286116,1065.4520931001753,None,0.20378420036286116,,,101Aloud,001,2022_Nov_28_1348,ProdSingRedoBetween,2021.2.3,59.919133136003914,
,,,,102,0,102,0,,,,,,,,,,,,,,,,,,,,,,1069.3058655001223,None,,,,,,,,,,,,,,,,,region,128,103,aloud,new,null,1066.2009156001732,None,1066.2009156001732,None,3,1.831012999638915,1066.2009156001732,None,1.831012999638915,1068.054437899962,None,1068.5578552000225,None,1068.5578552000225,None,f,0.7221347000449896,1068.5578552000225,None,0.7221347000449896,,,101Aloud,001,2022_Nov_28_1348,ProdSingRedoBetween,2021.2.3,59.919133136003914,
,,,,103,0,103,0,,,,,,,,,,,,,,,,,,,,,,1073.9104427006096,None,,,,,,,,,,,,,,,,,review,142,104,aloud,new,null,1069.819591600448,None,1069.819591600448,None,3,3.348366799764335,1069.819591600448,None,3.348366799764335,1073.194684800692,None,1073.7148879999295,None,1073.7148879999295,None,f,0.1730789002031088,1073.7148879999295,None,0.1730789002031088,,,101Aloud,001,2022_Nov_28_1348,ProdSingRedoBetween,2021.2.3,59.919133136003914,
,,,,104,0,104,0,,,,,,,,,,,,,,,,,,,,,,1076.3629108006135,None,,,,,,,,,,,,,,,,,carry,62,105,aloud,old,red,1074.4153591999784,None,1074.4153591999784,None,6,1.2646594997495413,1074.4153591999784,None,1.2646594997495413,1075.6972425002605,None,1076.2193049006164,None,1076.2193049006164,None,r,0.12469530012458563,1076.2193049006164,None,0.12469530012458563,,,101Aloud,001,2022_Nov_28_1348,ProdSingRedoBetween,2021.2.3,59.919133136003914,
,,,,105,0,105,0,,,,,,,,,,,,,,,,,,,,,,1079.0489154998213,None,,,,,,,,,,,,,,,,,sight,10,106,aloud,old,yellow,1076.8786711003631,None,1076.8786711003631,None,6,1.4332646997645497,1076.8786711003631,None,1.4332646997645497,1078.3345916001126,None,1078.8488402999938,None,1078.8488402999938,None,r,0.1751800999045372,1078.8488402999938,None,0.1751800999045372,,,101Aloud,001,2022_Nov_28_1348,ProdSingRedoBetween,2021.2.3,59.919133136003914,
,,,,106,0,106,0,,,,,,,,,,,,,,,,,,,,,,1083.219562300481,None,,,,,,,,,,,,,,,,,finish,149,107,aloud,new,null,1079.5564564000815,None,1079.5564564000815,None,4,2.4037859002128243,1079.5564564000815,None,2.4037859002128243,1081.9904851000756,None,1082.5065013002604,None,1082.5065013002604,None,f,0.6935069002211094,1082.5065013002604,None,0.6935069002211094,,,101Aloud,001,2022_Nov_28_1348,ProdSingRedoBetween,2021.2.3,59.919133136003914,
,,,,107,0,107,0,,,,,,,,,,,,,,,,,,,,,,1086.439624200575,None,,,,,,,,,,,,,,,,,meeting,29,108,aloud,old,blue,1083.721037699841,None,1083.721037699841,None,4,1.9988628001883626,1083.721037699841,None,1.9988628001883626,1085.7398963002488,None,1086.242883800529,None,1086.242883800529,None,f,0.17313370015472174,1086.242883800529,None,0.17313370015472174,,,101Aloud,001,2022_Nov_28_1348,ProdSingRedoBetween,2021.2.3,59.919133136003914,
,,,,108,0,108,0,,,,,,,,,,,,,,,,,,,,,,1091.2698360001668,None,,,,,,,,,,,,,,,,,quantity,97,109,aloud,new,null,1086.9545919001102,None,1086.9545919001102,None,2,3.533337600529194,1086.9545919001102,None,3.533337600529194,1090.5128901004791,None,1091.0343900006264,None,1091.0343900006264,None,n,0.2057994995266199,1091.0343900006264,None,0.2057994995266199,,,101Aloud,001,2022_Nov_28_1348,ProdSingRedoBetween,2021.2.3,59.919133136003914,
,,,,109,0,109,0,,,,,,,,,,,,,,,,,,,,,,1096.4330799998716,None,,,,,,,,,,,,,,,,,curve,53,110,aloud,old,blue,1091.7891164999455,None,1091.7891164999455,None,2,3.9307171003893018,1091.7891164999455,None,3.9307171003893018,1095.7487896000966,None,1096.2516293004155,None,1096.2516293004155,None,n,0.15625870041549206,1096.2516293004155,None,0.15625870041549206,,,101Aloud,001,2022_Nov_28_1348,ProdSingRedoBetween,2021.2.3,59.919133136003914,
,,,,110,0,110,0,,,,,,,,,,,,,,,,,,,,,,1099.9039262002334,None,,,,,,,,,,,,,,,,,center,169,111,aloud,new,null,1096.9597811000422,None,1096.9597811000422,None,3,2.264157500118017,1096.9597811000422,None,2.264157500118017,1099.2539829006419,None,1099.7698282003403,None,1099.7698282003403,None,f,0.10223839990794659,1099.7698282003403,None,0.10223839990794659,,,101Aloud,001,2022_Nov_28_1348,ProdSingRedoBetween,2021.2.3,59.919133136003914,
,,,,111,0,111,0,,,,,,,,,,,,,,,,,,,,,,1102.7893357006833,None,,,,,,,,,,,,,,,,,attack,111,112,aloud,new,null,1100.4126219004393,None,1100.4126219004393,None,1,1.6992569994181395,1100.4126219004393,None,1.6992569994181395,1102.1387105006725,None,1102.6424118001014,None,1102.6424118001014,None,n,0.11752300057560205,1102.6424118001014,None,0.11752300057560205,,,101Aloud,001,2022_Nov_28_1348,ProdSingRedoBetween,2021.2.3,59.919133136003914,
,,,,112,0,112,0,,,,,,,,,,,,,,,,,,,,,,1109.4959346000105,None,,,,,,,,,,,,,,,,,contract,89,113,aloud,old,red,1103.2985920002684,None,1103.2985920002684,None,3,5.549284500069916,1103.2985920002684,None,5.549284500069916,1108.8784170001745,None,1109.3833121005446,None,1109.3833121005446,None,f,0.08873140066862106,1109.3833121005446,None,0.08873140066862106,,,101Aloud,001,2022_Nov_28_1348,ProdSingRedoBetween,2021.2.3,59.919133136003914,
,,,,113,0,113,0,,,,,,,,,,,,,,,,,,,,,,1113.8509431006387,None,,,,,,,,,,,,,,,,,detective,179,114,aloud,new,null,1110.0027923006564,None,1110.0027923006564,None,3,3.1251096995547414,1110.0027923006564,None,3.1251096995547414,1113.151607800275,None,1113.6702020000666,None,1113.6702020000666,None,f,0.15371540002524853,1113.6702020000666,None,0.15371540002524853,,,101Aloud,001,2022_Nov_28_1348,ProdSingRedoBetween,2021.2.3,59.919133136003914,
,,,,114,0,114,0,,,,,,,,,,,,,,,,,,,,,,1116.7406830005348,None,,,,,,,,,,,,,,,,,produce,156,115,aloud,new,null,1114.35389040038,None,1114.35389040038,None,3,1.6061971997842193,1114.35389040038,None,1.6061971997842193,1115.9923026002944,None,1116.5052451007068,None,1116.5052451007068,None,f,0.20670480001717806,1116.5052451007068,None,0.20670480001717806,,,101Aloud,001,2022_Nov_28_1348,ProdSingRedoBetween,2021.2.3,59.919133136003914,
,,,,115,0,115,0,,,,,,,,,,,,,,,,,,,,,,1120.1065349001437,None,,,,,,,,,,,,,,,,,danger,42,116,aloud,old,blue,1117.2685630004853,None,1117.2685630004853,None,1,2.099292400293052,1117.2685630004853,None,2.099292400293052,1119.3910157000646,None,1119.9102385006845,None,1119.9102385006845,None,n,0.1695838999003172,1119.9102385006845,None,0.1695838999003172,,,101Aloud,001,2022_Nov_28_1348,ProdSingRedoBetween,2021.2.3,59.919133136003914,
,,,,116,0,116,0,,,,,,,,,,,,,,,,,,,,,,1124.327476900071,None,,,,,,,,,,,,,,,,,rough,6,117,aloud,old,yellow,1120.6095305001363,None,1120.6095305001363,None,4,3.07049180008471,1120.6095305001363,None,3.07049180008471,1123.7101384000853,None,1124.2147577004507,None,1124.2147577004507,None,f,0.08905049972236156,1124.2147577004507,None,0.08905049972236156,,,101Aloud,001,2022_Nov_28_1348,ProdSingRedoBetween,2021.2.3,59.919133136003914,
,,,,117,0,117,0,,,,,,,,,,,,,,,,,,,,,,1128.848622600548,None,,,,,,,,,,,,,,,,,story,98,118,aloud,new,null,1124.8331805001944,None,1124.8331805001944,None,2,3.214749999344349,1124.8331805001944,None,3.214749999344349,1128.0656603006646,None,1128.567312700674,None,1128.567312700674,None,n,0.26459369994699955,1128.567312700674,None,0.26459369994699955,,,101Aloud,001,2022_Nov_28_1348,ProdSingRedoBetween,2021.2.3,59.919133136003914,
,,,,118,0,118,0,,,,,,,,,,,,,,,,,,,,,,1131.9348551006988,None,,,,,,,,,,,,,,,,,front,78,119,aloud,old,red,1129.3572224006057,None,1129.3572224006057,None,4,1.8666212996467948,1129.3572224006057,None,1.8666212996467948,1131.2520947000012,None,1131.7516584005207,None,1131.7516584005207,None,f,0.16021549981087446,1131.7516584005207,None,0.16021549981087446,,,101Aloud,001,2022_Nov_28_1348,ProdSingRedoBetween,2021.2.3,59.919133136003914,
,,,,119,0,119,0,,,,,,,,,,,,,,,,,,,,,,1139.6260660998523,None,,,,,,,,,,,,,,,,,period,137,120,aloud,new,null,1132.4354961002246,None,1132.4354961002246,None,2,6.468364499509335,1132.4354961002246,None,6.468364499509335,1138.926416600123,None,1139.425812500529,None,1139.425812500529,None,n,0.1819997001439333,1139.425812500529,None,0.1819997001439333,,,101Aloud,001,2022_Nov_28_1348,ProdSingRedoBetween,2021.2.3,59.919133136003914,
,,,,120,0,120,0,,,,,,,,,,,,,,,,,,,,,,1143.363926500082,None,,,,,,,,,,,,,,,,,birth,60,121,aloud,old,red,1140.1355720004067,None,1140.1355720004067,None,3,2.5282201003283262,1140.1355720004067,None,2.5282201003283262,1142.680935700424,None,1143.196152800694,None,1143.196152800694,None,f,0.14775590039789677,1143.196152800694,None,0.14775590039789677,,,101Aloud,001,2022_Nov_28_1348,ProdSingRedoBetween,2021.2.3,59.919133136003914,
,,,,121,0,121,0,,,,,,,,,,,,,,,,,,,,,,1146.8498371001333,None,,,,,,,,,,,,,,,,,interview,130,122,aloud,new,null,1143.8687492003664,None,1143.8687492003664,None,3,2.2271598000079393,1143.8687492003664,None,2.2271598000079393,1146.1254585999995,None,1146.6344932001084,None,1146.6344932001084,None,f,0.18927509989589453,1146.6344932001084,None,0.18927509989589453,,,101Aloud,001,2022_Nov_28_1348,ProdSingRedoBetween,2021.2.3,59.919133136003914,
,,,,122,0,122,0,,,,,,,,,,,,,,,,,,,,,,1149.1689141001552,None,,,,,,,,,,,,,,,,,oxygen,172,123,aloud,new,null,1147.3644065000117,None,1147.3644065000117,None,1,1.1554271997883916,1147.3644065000117,None,1.1554271997883916,1148.5410389006138,None,1149.052510900423,None,1149.052510900423,None,n,0.09927759971469641,1149.052510900423,None,0.09927759971469641,,,101Aloud,001,2022_Nov_28_1348,ProdSingRedoBetween,2021.2.3,59.919133136003914,
,,,,123,0,123,0,,,,,,,,,,,,,,,,,,,,,,1152.0749829001725,None,,,,,,,,,,,,,,,,,power,66,124,aloud,old,red,1149.681585200131,None,1149.681585200131,None,4,1.7182322004809976,1149.681585200131,None,1.7182322004809976,1151.4224568000063,None,1151.9258519001305,None,1151.9258519001305,None,f,0.12209799978882074,1151.9258519001305,None,0.12209799978882074,,,101Aloud,001,2022_Nov_28_1348,ProdSingRedoBetween,2021.2.3,59.919133136003914,
,,,,124,0,124,0,,,,,,,,,,,,,,,,,,,,,,1155.3246907005087,None,,,,,,,,,,,,,,,,,hearing,121,125,aloud,new,null,1152.5889926003292,None,1152.5889926003292,None,3,1.9468334997072816,1152.5889926003292,None,1.9468334997072816,1154.5584735004231,None,1155.0579067002982,None,1155.0579067002982,None,f,0.23782490007579327,1155.0579067002982,None,0.23782490007579327,,,101Aloud,001,2022_Nov_28_1348,ProdSingRedoBetween,2021.2.3,59.919133136003914,
,,,,125,0,125,0,,,,,,,,,,,,,,,,,,,,,,1158.3444587998092,None,,,,,,,,,,,,,,,,,state,152,126,aloud,new,null,1155.8253925004974,None,1155.8253925004974,None,4,1.7904666000977159,1155.8253925004974,None,1.7904666000977159,1157.6451690997928,None,1158.1454149000347,None,1158.1454149000347,None,f,0.17433390021324158,1158.1454149000347,None,0.17433390021324158,,,101Aloud,001,2022_Nov_28_1348,ProdSingRedoBetween,2021.2.3,59.919133136003914,
,,,,126,0,126,0,,,,,,,,,,,,,,,,,,,,,,1160.9471113998443,None,,,,,,,,,,,,,,,,,trial,92,127,aloud,new,null,1158.8493151003495,None,1158.8493151003495,None,1,1.4143458995968103,1158.8493151003495,None,1.4143458995968103,1160.280990600586,None,1160.7914379006252,None,1160.7914379006252,None,n,0.12834039982408285,1160.7914379006252,None,0.12834039982408285,,,101Aloud,001,2022_Nov_28_1348,ProdSingRedoBetween,2021.2.3,59.919133136003914,
,,,,127,0,127,0,,,,,,,,,,,,,,,,,,,,,,1163.8000664003193,None,,,,,,,,,,,,,,,,,scale,11,128,aloud,old,yellow,1161.4601872004569,None,1161.4601872004569,None,1,1.3956145998090506,1161.4601872004569,None,1.3956145998090506,1162.8889593007043,None,1163.4025122001767,None,1163.4025122001767,None,n,0.37334239948540926,1163.4025122001767,None,0.37334239948540926,,,101Aloud,001,2022_Nov_28_1348,ProdSingRedoBetween,2021.2.3,59.919133136003914,
,,,,128,0,128,0,,,,,,,,,,,,,,,,,,,,,,1166.5905908998102,None,,,,,,,,,,,,,,,,,trend,39,129,aloud,old,blue,1164.3023134004325,None,1164.3023134004325,None,6,1.4415501998737454,1164.3023134004325,None,1.4415501998737454,1165.7706436002627,None,1166.2871249997988,None,1166.2871249997988,None,r,0.28073349967598915,1166.2871249997988,None,0.28073349967598915,,,101Aloud,001,2022_Nov_28_1348,ProdSingRedoBetween,2021.2.3,59.919133136003914,
,,,,129,0,129,0,,,,,,,,,,,,,,,,,,,,,,1170.2566323000938,None,,,,,,,,,,,,,,,,,native,105,130,aloud,new,null,1167.1109350007027,None,1167.1109350007027,None,4,2.5129289999604225,1167.1109350007027,None,2.5129289999604225,1169.6455805003643,None,1170.156642800197,None,1170.156642800197,None,f,0.07519849948585033,1170.156642800197,None,0.07519849948585033,,,101Aloud,001,2022_Nov_28_1348,ProdSingRedoBetween,2021.2.3,59.919133136003914,
,,,,130,0,130,0,,,,,,,,,,,,,,,,,,,,,,1173.2261835997924,None,,,,,,,,,,,,,,,,,range,138,131,aloud,new,null,1170.7664045998827,None,1170.7664045998827,None,3,1.8653047000989318,1170.7664045998827,None,1.8653047000989318,1172.6590159004554,None,1173.16262940038,None,1173.16262940038,None,f,0.03733190055936575,1173.16262940038,None,0.03733190055936575,,,101Aloud,001,2022_Nov_28_1348,ProdSingRedoBetween,2021.2.3,59.919133136003914,
,,,,131,0,131,0,,,,,,,,,,,,,,,,,,,,,,1182.0850009005517,None,,,,,,,,,,,,,,,,,beauty,24,132,aloud,old,yellow,1173.7266563000157,None,1173.7266563000157,None,2,7.689068200066686,1173.7266563000157,None,7.689068200066686,1181.4359552999958,None,1181.9544553002343,None,1181.9544553002343,None,n,0.10932320076972246,1181.9544553002343,None,0.10932320076972246,,,101Aloud,001,2022_Nov_28_1348,ProdSingRedoBetween,2021.2.3,59.919133136003914,
,,,,132,0,132,0,,,,,,,,,,,,,,,,,,,,,,1186.608225800097,None,,,,,,,,,,,,,,,,,resistance,77,133,aloud,old,red,1182.5889384998009,None,1182.5889384998009,None,2,3.338810100220144,1182.5889384998009,None,3.338810100220144,1185.9583074999973,None,1186.4798667998984,None,1186.4798667998984,None,n,0.10411780048161745,1186.4798667998984,None,0.10411780048161745,,,101Aloud,001,2022_Nov_28_1348,ProdSingRedoBetween,2021.2.3,59.919133136003914,
,,,,133,0,133,0,,,,,,,,,,,,,,,,,,,,,,1193.0125325005502,None,,,,,,,,,,,,,,,,,series,59,134,aloud,old,yellow,1187.1286026006564,None,1187.1286026006564,None,1,4.255286300554872,1187.1286026006564,None,4.255286300554872,1191.4201616998762,None,1191.9281676001847,None,1191.9281676001847,None,n,1.0556263998150826,1191.9281676001847,None,1.0556263998150826,,,101Aloud,001,2022_Nov_28_1348,ProdSingRedoBetween,2021.2.3,59.919133136003914,
,,,,134,0,134,0,,,,,,,,,,,,,,,,,,,,,,1197.516939099878,None,,,,,,,,,,,,,,,,,guest,30,135,aloud,old,blue,1193.5246009007096,None,1193.5246009007096,None,3,2.2911622999235988,1193.5246009007096,None,2.2911622999235988,1195.8331521004438,None,1196.3374476004392,None,1196.3374476004392,None,f,1.150228699669242,1196.3374476004392,None,1.150228699669242,,,101Aloud,001,2022_Nov_28_1348,ProdSingRedoBetween,2021.2.3,59.919133136003914,
,,,,135,0,135,0,,,,,,,,,,,,,,,,,,,,,,1201.0537831000984,None,,,,,,,,,,,,,,,,,service,153,136,aloud,new,null,1198.0266687003896,None,1198.0266687003896,None,4,2.0850185994058847,1198.0266687003896,None,2.0850185994058847,1200.1410364005715,None,1200.6535109002143,None,1200.6535109002143,None,f,0.37020300049334764,1200.6535109002143,None,0.37020300049334764,,,101Aloud,001,2022_Nov_28_1348,ProdSingRedoBetween,2021.2.3,59.919133136003914,
,,,,136,0,136,0,,,,,,,,,,,,,,,,,,,,,,1204.857770900242,None,,,,,,,,,,,,,,,,,notice,69,137,aloud,old,red,1201.559929500334,None,1201.559929500334,None,3,2.375825399532914,1201.559929500334,None,2.375825399532914,1203.9585883999243,None,1204.4741783998907,None,1204.4741783998907,None,f,0.3655746001750231,1204.4741783998907,None,0.3655746001750231,,,101Aloud,001,2022_Nov_28_1348,ProdSingRedoBetween,2021.2.3,59.919133136003914,
,,,,137,0,137,0,,,,,,,,,,,,,,,,,,,,,,1209.9795340001583,None,,,,,,,,,,,,,,,,,answer,74,138,aloud,old,red,1205.3678028006107,None,1205.3678028006107,None,5,3.895922400057316,1205.3678028006107,None,3.895922400057316,1209.2800788003951,None,1209.7793250000104,None,1209.7793250000104,None,r,0.17237010039389133,1209.7793250000104,None,0.17237010039389133,,,101Aloud,001,2022_Nov_28_1348,ProdSingRedoBetween,2021.2.3,59.919133136003914,
,,,,138,0,138,0,,,,,,,,,,,,,,,,,,,,,,1212.5987587003037,None,,,,,,,,,,,,,,,,,government,52,139,aloud,old,blue,1210.487835300155,None,1210.487835300155,None,6,1.351897700689733,1210.487835300155,None,1.351897700689733,1211.8741902001202,None,1212.3820040002465,None,1212.3820040002465,None,r,0.20175939984619617,1212.3820040002465,None,0.20175939984619617,,,101Aloud,001,2022_Nov_28_1348,ProdSingRedoBetween,2021.2.3,59.919133136003914,
,,,,139,0,139,0,,,,,,,,,,,,,,,,,,,,,,1215.2680537998676,None,,,,,,,,,,,,,,,,,atmosphere,72,140,aloud,old,red,1213.1070616003126,None,1213.1070616003126,None,6,1.332630299963057,1213.1070616003126,None,1.332630299963057,1214.470108100213,None,1214.9843212999403,None,1214.9843212999403,None,r,0.26330049987882376,1214.9843212999403,None,0.26330049987882376,,,101Aloud,001,2022_Nov_28_1348,ProdSingRedoBetween,2021.2.3,59.919133136003914,
,,,,140,0,140,0,,,,,,,,,,,,,,,,,,,,,,1218.4732021000236,None,,,,,,,,,,,,,,,,,cover,93,141,aloud,new,null,1215.768631500192,None,1215.768631500192,None,3,1.5830236999318004,1215.768631500192,None,1.5830236999318004,1217.3732595006004,None,1217.896191299893,None,1217.896191299893,None,f,0.5515484996140003,1217.896191299893,None,0.5515484996140003,,,101Aloud,001,2022_Nov_28_1348,ProdSingRedoBetween,2021.2.3,59.919133136003914,
,,,,141,0,141,0,,,,,,,,,,,,,,,,,,,,,,1221.0429043006152,None,,,,,,,,,,,,,,,,,color,123,142,aloud,new,null,1218.9891490004957,None,1218.9891490004957,None,1,1.354734399355948,1218.9891490004957,None,1.354734399355948,1220.3793309004977,None,1220.890782000497,None,1220.890782000497,None,n,0.1328728999942541,1220.890782000497,None,0.1328728999942541,,,101Aloud,001,2022_Nov_28_1348,ProdSingRedoBetween,2021.2.3,59.919133136003914,
,,,,142,0,142,0,,,,,,,,,,,,,,,,,,,,,,1224.5104675004259,None,,,,,,,,,,,,,,,,,dance,73,143,aloud,old,red,1221.5623367000371,None,1221.5623367000371,None,3,2.1812834003940225,1221.5623367000371,None,2.1812834003940225,1223.763419800438,None,1224.2771102003753,None,1224.2771102003753,None,f,0.20258350018411875,1224.2771102003753,None,0.20258350018411875,,,101Aloud,001,2022_Nov_28_1348,ProdSingRedoBetween,2021.2.3,59.919133136003914,
,,,,143,0,143,0,,,,,,,,,,,,,,,,,,,,,,1227.5970780001953,None,,,,,,,,,,,,,,,,,watch,13,144,aloud,old,yellow,1225.0206684004515,None,1225.0206684004515,None,5,1.8030334999784827,1225.0206684004515,None,1.8030334999784827,1226.8475624006242,None,1227.3511172998697,None,1227.3511172998697,None,r,0.22461489960551262,1227.3511172998697,None,0.22461489960551262,,,101Aloud,001,2022_Nov_28_1348,ProdSingRedoBetween,2021.2.3,59.919133136003914,
,,,,144,0,144,0,,,,,,,,,,,,,,,,,,,,,,1230.3331817006692,None,,,,,,,,,,,,,,,,,community,76,145,aloud,old,red,1228.1077989004552,None,1228.1077989004552,None,6,1.4438891997560859,1228.1077989004552,None,1.4438891997560859,1229.5833465000615,None,1230.0891019003466,None,1230.0891019003466,None,r,0.22258010040968657,1230.0891019003466,None,0.22258010040968657,,,101Aloud,001,2022_Nov_28_1348,ProdSingRedoBetween,2021.2.3,59.919133136003914,
,,,,145,0,145,0,,,,,,,,,,,,,,,,,,,,,,1234.6040505003184,None,,,,,,,,,,,,,,,,,substance,178,146,aloud,new,null,1230.845728199929,None,1230.845728199929,None,3,2.970020900480449,1230.845728199929,None,2.970020900480449,1233.8442347003147,None,1234.3593086004257,None,1234.3593086004257,None,f,0.21643340028822422,1234.3593086004257,None,0.21643340028822422,,,101Aloud,001,2022_Nov_28_1348,ProdSingRedoBetween,2021.2.3,59.919133136003914,
,,,,146,0,146,0,,,,,,,,,,,,,,,,,,,,,,1238.9750747000799,None,,,,,,,,,,,,,,,,,vision,155,147,aloud,new,null,1235.1203305004165,None,1235.1203305004165,None,1,3.1993311000987887,1235.1203305004165,None,3.1993311000987887,1238.344453400001,None,1238.8616382004693,None,1238.8616382004693,None,n,0.09808330051600933,1238.8616382004693,None,0.09808330051600933,,,101Aloud,001,2022_Nov_28_1348,ProdSingRedoBetween,2021.2.3,59.919133136003914,
,,,,147,0,147,0,,,,,,,,,,,,,,,,,,,,,,1241.4608673006296,None,,,,,,,,,,,,,,,,,owner,132,148,aloud,new,null,1239.47872130014,None,1239.47872130014,None,1,1.3208979004994035,1239.47872130014,None,1.3208979004994035,1240.8279110006988,None,1241.3339951001108,None,1241.3339951001108,None,n,0.10570080019533634,1241.3339951001108,None,0.10570080019533634,,,101Aloud,001,2022_Nov_28_1348,ProdSingRedoBetween,2021.2.3,59.919133136003914,
,,,,148,0,148,0,,,,,,,,,,,,,,,,,,,,,,1243.8495916007087,None,,,,,,,,,,,,,,,,,smell,148,149,aloud,new,null,1241.961986400187,None,1241.961986400187,None,1,1.1656066998839378,1241.961986400187,None,1.1656066998839378,1243.1490251002833,None,1243.665192000568,None,1243.665192000568,None,n,0.15871539991348982,1243.665192000568,None,0.15871539991348982,,,101Aloud,001,2022_Nov_28_1348,ProdSingRedoBetween,2021.2.3,59.919133136003914,
,,,,149,0,149,0,,,,,,,,,,,,,,,,,,,,,,1251.9545868998393,None,,,,,,,,,,,,,,,,,gesture,43,150,aloud,old,blue,1244.3655150998384,None,1244.3655150998384,None,2,6.178233499638736,1244.3655150998384,None,6.178233499638736,1250.5778203001246,None,1251.0873827002943,None,1251.0873827002943,None,n,0.8483579996973276,1251.0873827002943,None,0.8483579996973276,,,101Aloud,001,2022_Nov_28_1348,ProdSingRedoBetween,2021.2.3,59.919133136003914,
,,,,150,0,150,0,,,,,,,,,,,,,,,,,,,,,,1257.0280523998663,None,,,,,,,,,,,,,,,,,victory,166,151,aloud,new,null,1252.465436000377,None,1252.465436000377,None,1,3.934293099679053,1252.465436000377,None,3.934293099679053,1256.4273826004937,None,1256.9328912002966,None,1256.9328912002966,None,n,0.06678300071507692,1256.9328912002966,None,0.06678300071507692,,,101Aloud,001,2022_Nov_28_1348,ProdSingRedoBetween,2021.2.3,59.919133136003914,
,,,,151,0,151,0,,,,,,,,,,,,,,,,,,,,,,1260.5466662002727,None,,,,,,,,,,,,,,,,,narrow,82,152,aloud,old,red,1257.5388221004978,None,1257.5388221004978,None,3,2.380841000005603,1257.5388221004978,None,2.380841000005603,1259.951578100212,None,1260.4630473004654,None,1260.4630473004654,None,f,0.0646312003955245,1260.4630473004654,None,0.0646312003955245,,,101Aloud,001,2022_Nov_28_1348,ProdSingRedoBetween,2021.2.3,59.919133136003914,
,,,,152,0,152,0,,,,,,,,,,,,,,,,,,,,,,1262.9655776005238,None,,,,,,,,,,,,,,,,,disease,106,153,aloud,new,null,1261.0547916004434,None,1261.0547916004434,None,1,1.2568653002381325,1261.0547916004434,None,1.2568653002381325,1262.332898600027,None,1262.8399351006374,None,1262.8399351006374,None,n,0.09572750050574541,1262.8399351006374,None,0.09572750050574541,,,101Aloud,001,2022_Nov_28_1348,ProdSingRedoBetween,2021.2.3,59.919133136003914,
,,,,153,0,153,0,,,,,,,,,,,,,,,,,,,,,,1267.0529749002308,None,,,,,,,,,,,,,,,,,leader,118,154,aloud,new,null,1263.4673503004014,None,1263.4673503004014,None,2,2.9642944000661373,1263.4673503004014,None,2.9642944000661373,1266.4534072000533,None,1266.9571072002873,None,1266.9571072002873,None,n,0.07451090030372143,1266.9571072002873,None,0.07451090030372143,,,101Aloud,001,2022_Nov_28_1348,ProdSingRedoBetween,2021.2.3,59.919133136003914,
,,,,154,0,154,0,,,,,,,,,,,,,,,,,,,,,,1271.5909341005608,None,,,,,,,,,,,,,,,,,company,35,155,aloud,old,blue,1267.567486899905,None,1267.567486899905,None,3,3.4241839004680514,1267.567486899905,None,3.4241839004680514,1271.0136159006506,None,1271.5274391006678,None,1271.5274391006678,None,f,0.0481459004804492,1271.5274391006678,None,0.0481459004804492,,,101Aloud,001,2022_Nov_28_1348,ProdSingRedoBetween,2021.2.3,59.919133136003914,
,,,,155,0,155,0,,,,,,,,,,,,,,,,,,,,,,1274.3270177002996,None,,,,,,,,,,,,,,,,,chief,7,156,aloud,old,yellow,1272.0974575001746,None,1272.0974575001746,None,6,1.3262214995920658,1272.0974575001746,None,1.3262214995920658,1273.4502447005361,None,1273.9630099004135,None,1273.9630099004135,None,r,0.34061039984226227,1273.9630099004135,None,0.34061039984226227,,,101Aloud,001,2022_Nov_28_1348,ProdSingRedoBetween,2021.2.3,59.919133136003914,
,,,,156,0,156,0,,,,,,,,,,,,,,,,,,,,,,1277.4987316001207,None,,,,,,,,,,,,,,,,,treatment,0,157,aloud,old,yellow,1274.838879100047,None,1274.838879100047,None,4,1.952730999328196,1274.838879100047,None,1.952730999328196,1276.8126198006794,None,1277.3173074005172,None,1277.3173074005172,None,f,0.15434399992227554,1277.3173074005172,None,0.15434399992227554,,,101Aloud,001,2022_Nov_28_1348,ProdSingRedoBetween,2021.2.3,59.919133136003914,
,,,,157,0,157,0,,,,,,,,,,,,,,,,,,,,,,1280.2347777998075,None,,,,,,,,,,,,,,,,,childhood,27,158,aloud,old,yellow,1278.0167425004765,None,1278.0167425004765,None,6,1.4629043992608786,1278.0167425004765,None,1.4629043992608786,1279.4997951006517,None,1280.0049908002838,None,1280.0049908002838,None,r,0.2026055995374918,1280.0049908002838,None,0.2026055995374918,,,101Aloud,001,2022_Nov_28_1348,ProdSingRedoBetween,2021.2.3,59.919133136003914,
,,,,158,0,158,0,,,,,,,,,,,,,,,,,,,,,,1282.8521814001724,None,,,,,,,,,,,,,,,,,murder,96,159,aloud,new,null,1280.7501755002886,None,1280.7501755002886,None,1,1.465433699078858,1280.7501755002886,None,1.465433699078858,1282.2376725999638,None,1282.7522141998634,None,1282.7522141998634,None,n,0.07139260042458773,1282.7522141998634,None,0.07139260042458773,,,101Aloud,001,2022_Nov_28_1348,ProdSingRedoBetween,2021.2.3,59.919133136003914,
,,,,159,0,159,0,,,,,,,,,,,,,,,,,,,,,,1285.705763200298,None,,,,,,,,,,,,,,,,,conference,170,160,aloud,new,null,1283.3650438999757,None,1283.3650438999757,None,4,1.6584935002028942,1283.3650438999757,None,1.6584935002028942,1285.055457700044,None,1285.5561600998044,None,1285.5561600998044,None,f,0.13143759965896606,1285.5561600998044,None,0.13143759965896606,,,101Aloud,001,2022_Nov_28_1348,ProdSingRedoBetween,2021.2.3,59.919133136003914,
,,,,160,0,160,0,,,,,,,,,,,,,,,,,,,,,,1290.5932424003258,None,,,,,,,,,,,,,,,,,surprise,141,161,aloud,new,null,1286.2130348999053,None,1286.2130348999053,None,2,3.7225532000884414,1286.2130348999053,None,3.7225532000884414,1289.961238199845,None,1290.4802774004638,None,1290.4802774004638,None,n,0.0953052993863821,1290.4802774004638,None,0.0953052993863821,,,101Aloud,001,2022_Nov_28_1348,ProdSingRedoBetween,2021.2.3,59.919133136003914,
,,,,161,0,161,0,,,,,,,,,,,,,,,,,,,,,,1298.0671228002757,None,,,,,,,,,,,,,,,,,pressure,22,162,aloud,old,yellow,1291.1051409002393,None,1291.1051409002393,None,2,6.326425099745393,1291.1051409002393,None,6.326425099745393,1297.4523612000048,None,1297.9763048999012,None,1297.9763048999012,None,n,0.06327390018850565,1297.9763048999012,None,0.06327390018850565,,,101Aloud,001,2022_Nov_28_1348,ProdSingRedoBetween,2021.2.3,59.919133136003914,
,,,,162,0,162,0,,,,,,,,,,,,,,,,,,,,,,1300.7366559999064,None,,,,,,,,,,,,,,,,,report,86,163,aloud,old,red,1298.5845047999173,None,1298.5845047999173,None,4,1.5032815001904964,1298.5845047999173,None,1.5032815001904964,1300.1296939998865,None,1300.6366496002302,None,1300.6366496002302,None,f,0.07496050000190735,1300.6366496002302,None,0.07496050000190735,,,101Aloud,001,2022_Nov_28_1348,ProdSingRedoBetween,2021.2.3,59.919133136003914,
,,,,163,0,163,0,,,,,,,,,,,,,,,,,,,,,,1306.1254344005138,None,,,,,,,,,,,,,,,,,entrance,83,164,aloud,old,red,1301.2374634006992,None,1301.2374634006992,None,3,4.282022999599576,1301.2374634006992,None,4.282022999599576,1305.541921400465,None,1306.0421376004815,None,1306.0421376004815,None,f,0.06142889987677336,1306.0421376004815,None,0.06142889987677336,,,101Aloud,001,2022_Nov_28_1348,ProdSingRedoBetween,2021.2.3,59.919133136003914,
,,,,164,0,164,0,,,,,,,,,,,,,,,,,,,,,,1308.3775702007115,None,,,,,,,,,,,,,,,,,payment,164,165,aloud,new,null,1306.6287075998262,None,1306.6287075998262,None,1,1.162954400293529,1306.6287075998262,None,1.162954400293529,1307.8153428006917,None,1308.3287875000387,None,1308.3287875000387,None,n,0.03073900006711483,1308.3287875000387,None,0.03073900006711483,,,101Aloud,001,2022_Nov_28_1348,ProdSingRedoBetween,2021.2.3,59.919133136003914,
,,,,165,0,165,0,,,,,,,,,,,,,,,,,,,,,,1311.0514299999923,None,,,,,,,,,,,,,,,,,agreement,21,166,aloud,old,yellow,1308.8874645000324,None,1308.8874645000324,None,5,1.4800496995449066,1308.8874645000324,None,1.4800496995449066,1310.3963553002104,None,1310.8969506006688,None,1310.8969506006688,None,r,0.11867639981210232,1310.8969506006688,None,0.11867639981210232,,,101Aloud,001,2022_Nov_28_1348,ProdSingRedoBetween,2021.2.3,59.919133136003914,
,,,,166,0,166,0,,,,,,,,,,,,,,,,,,,,,,1313.416047600098,None,,,,,,,,,,,,,,,,,error,36,167,aloud,old,blue,1311.5701470002532,None,1311.5701470002532,None,6,1.1813661996275187,1311.5701470002532,None,1.1813661996275187,1312.7868164004758,None,1313.301722300239,None,1313.301722300239,None,r,0.09787329938262701,1313.301722300239,None,0.09787329938262701,,,101Aloud,001,2022_Nov_28_1348,ProdSingRedoBetween,2021.2.3,59.919133136003914,
,,,,167,0,167,0,,,,,,,,,,,,,,,,,,,,,,1316.0683968001977,None,,,,,,,,,,,,,,,,,angle,26,168,aloud,old,yellow,1313.9246097002178,None,1313.9246097002178,None,6,1.434986500069499,1313.9246097002178,None,1.434986500069499,1315.3869045004249,None,1315.9019041005522,None,1315.9019041005522,None,r,0.13770250044763088,1315.9019041005522,None,0.13770250044763088,,,101Aloud,001,2022_Nov_28_1348,ProdSingRedoBetween,2021.2.3,59.919133136003914,
,,,,168,0,168,0,,,,,,,,,,,,,,,,,,,,,,1320.1903013000265,None,,,,,,,,,,,,,,,,,sweet,95,169,aloud,new,null,1316.579402600415,None,1316.579402600415,None,2,2.9721086993813515,1316.579402600415,None,2.9721086993813515,1319.5736853005365,None,1320.0788134001195,None,1320.0788134001195,None,n,0.08089909981936216,1320.0788134001195,None,0.08089909981936216,,,101Aloud,001,2022_Nov_28_1348,ProdSingRedoBetween,2021.2.3,59.919133136003914,
,,,,169,0,169,0,,,,,,,,,,,,,,,,,,,,,,1324.027414300479,None,,,,,,,,,,,,,,,,,silence,103,170,aloud,new,null,1320.7034799000248,None,1320.7034799000248,None,5,2.6561040999367833,1320.7034799000248,None,2.6561040999367833,1323.376796300523,None,1323.8763859998435,None,1323.8763859998435,None,r,0.12313089985400438,1323.8763859998435,None,0.12313089985400438,,,101Aloud,001,2022_Nov_28_1348,ProdSingRedoBetween,2021.2.3,59.919133136003914,
,,,,170,0,170,0,,,,,,,,,,,,,,,,,,,,,,1327.2642280003056,None,,,,,,,,,,,,,,,,,build,144,171,aloud,new,null,1324.5298404004425,None,1324.5298404004425,None,3,2.021730300039053,1324.5298404004425,None,2.021730300039053,1326.5819797003642,None,1327.096411600709,None,1327.096411600709,None,f,0.15117220021784306,1327.096411600709,None,0.15117220021784306,,,101Aloud,001,2022_Nov_28_1348,ProdSingRedoBetween,2021.2.3,59.919133136003914,
,,,,171,0,171,0,,,,,,,,,,,,,,,,,,,,,,1331.53153150063,None,,,,,,,,,,,,,,,,,council,154,172,aloud,new,null,1327.769345600158,None,1327.769345600158,None,2,3.1981170000508428,1327.769345600158,None,3.1981170000508428,1330.9859241005033,None,1331.508024500683,None,1331.508024500683,None,n,0.003688199445605278,1331.508024500683,None,0.003688199445605278,,,101Aloud,001,2022_Nov_28_1348,ProdSingRedoBetween,2021.2.3,59.919133136003914,
,,,,172,0,172,0,,,,,,,,,,,,,,,,,,,,,,1338.0069773998111,None,,,,,,,,,,,,,,,,,suggestion,145,173,aloud,new,null,1332.0483257006854,None,1332.0483257006854,None,2,5.375163099728525,1332.0483257006854,None,5.375163099728525,1337.442176000215,None,1337.9603893002495,None,1337.9603893002495,None,n,0.023280199617147446,1337.9603893002495,None,0.023280199617147446,,,101Aloud,001,2022_Nov_28_1348,ProdSingRedoBetween,2021.2.3,59.919133136003914,
,,,,173,0,173,0,,,,,,,,,,,,,,,,,,,,,,1341.7106894999743,None,,,,,,,,,,,,,,,,,school,171,174,aloud,new,null,1338.5155747998506,None,1338.5155747998506,None,3,2.5560357999056578,1338.5155747998506,None,2.5560357999056578,1341.0986104998738,None,1341.6122212000191,None,1341.6122212000191,None,f,0.08331509958952665,1341.6122212000191,None,0.08331509958952665,,,101Aloud,001,2022_Nov_28_1348,ProdSingRedoBetween,2021.2.3,59.919133136003914,
,,,,174,0,174,0,,,,,,,,,,,,,,,,,,,,,,1345.0342461001128,None,,,,,,,,,,,,,,,,,brilliant,126,175,aloud,new,null,1342.215322200209,None,1342.215322200209,None,2,1.6081807995215058,1342.215322200209,None,1.6081807995215058,1343.84824569989,None,1344.36554000061,None,1344.36554000061,None,n,0.6499397996813059,1344.36554000061,None,0.6499397996813059,,,101Aloud,001,2022_Nov_28_1348,ProdSingRedoBetween,2021.2.3,59.919133136003914,
,,,,175,0,175,0,,,,,,,,,,,,,,,,,,,,,,1347.9171731006354,None,,,,,,,,,,,,,,,,,suspect,162,176,aloud,new,null,1345.5514344004914,None,1345.5514344004914,None,5,1.7200993997976184,1345.5514344004914,None,1.7200993997976184,1347.3008165005594,None,1347.8009155998006,None,1347.8009155998006,None,r,0.09450639970600605,1347.8009155998006,None,0.09450639970600605,,,101Aloud,001,2022_Nov_28_1348,ProdSingRedoBetween,2021.2.3,59.919133136003914,
