StudyLoop.thisRepN,StudyLoop.thisTrialN,StudyLoop.thisN,StudyLoop.thisIndex,TestLoop.thisRepN,TestLoop.thisTrialN,TestLoop.thisN,TestLoop.thisIndex,textCondition.started,textCondition.stopped,keyCondition.keys,keyCondition.rt,keyCondition.started,keyCondition.stopped,Condition,textWelcome.started,textWelcome.stopped,keyWelcome.keys,keyWelcome.rt,keyWelcome.started,keyWelcome.stopped,textAloud.started,textAloud.stopped,textSilent.started,textSilent.stopped,textSing.started,textSing.stopped,conditional_text.started,conditional_text.stopped,textBlank500.started,textBlank500.stopped,study_word,study_num,study_order,study_type,word_color,textStudy.started,textStudy.stopped,keyStudy.keys,keyStudy.started,keyStudy.stopped,textTestInstructions.started,textTestInstructions.stopped,key_resp_3.keys,key_resp_3.rt,key_resp_3.started,key_resp_3.stopped,test_word,test_num,test_order,test_condition,old_new_test,test_word_original_color,textConf.started,textConf.stopped,textConfScale.started,textConfScale.stopped,keyConf.keys,keyConf.rt,keyConf.started,keyConf.stopped,confidence response time,textTestBlank.started,textTestBlank.stopped,textRKN.started,textRKN.stopped,textRKNScale.started,textRKNScale.stopped,keyRKN.keys,keyRKN.rt,keyRKN.started,keyRKN.stopped,rkn response time,textEnd.started,textEnd.stopped,participant,session,date,expName,psychopyVersion,frameRate,
,,,,,,,,30.754394399933517,None,c,1.303902800194919,30.754394399933517,None,,,,,,,,,,,,,,,,,,,,,,,,,,,,,,,,,,,,,,,,,,,,,,,,,,,,,,,,,,,,,,102Sing,001,2022_Nov_28_1413,ProdSingRedoBetween,2021.2.3,59.97832373857181,
,,,,,,,,,,,,,,SingTest,32.10349090024829,None,space,2756.110086599365,32.10349090024829,None,,,,,,,,,,,,,,,,,,,,,,,,,,,,,,,,,,,,,,,,,,,,,,,,,,,,,,,102Sing,001,2022_Nov_28_1413,ProdSingRedoBetween,2021.2.3,59.97832373857181,
0,0,0,0,,,,,,,,,,,,,,,,,,32.10349090024829,None,32.10349090024829,None,32.10349090024829,None,32.10349090024829,None,2790.751436999999,None,income,82,1,sing,red,2788.744421799667,None,None,2788.744421799667,None,,,,,,,,,,,,,,,,,,,,,,,,,,,,,,,,,,,102Sing,001,2022_Nov_28_1413,ProdSingRedoBetween,2021.2.3,59.97832373857181,
1,0,1,0,,,,,,,,,,,,,,,,,,,,,,,,,,2793.270406600088,None,military,6,2,sing,yellow,2791.2553107999265,None,None,2791.2553107999265,None,,,,,,,,,,,,,,,,,,,,,,,,,,,,,,,,,,,102Sing,001,2022_Nov_28_1413,ProdSingRedoBetween,2021.2.3,59.97832373857181,
2,0,2,0,,,,,,,,,,,,,,,,,,,,,,,,,,2795.7731571998447,None,budget,26,3,sing,yellow,2793.7711456995457,None,None,2793.7711456995457,None,,,,,,,,,,,,,,,,,,,,,,,,,,,,,,,,,,,102Sing,001,2022_Nov_28_1413,ProdSingRedoBetween,2021.2.3,59.97832373857181,
3,0,3,0,,,,,,,,,,,,,,,,,,,,,,,,,,2798.275700999424,None,touch,32,4,sing,blue,2796.273493600078,None,None,2796.273493600078,None,,,,,,,,,,,,,,,,,,,,,,,,,,,,,,,,,,,102Sing,001,2022_Nov_28_1413,ProdSingRedoBetween,2021.2.3,59.97832373857181,
4,0,4,0,,,,,,,,,,,,,,,,,,,,,,,,,,2800.7779931994155,None,scene,5,5,sing,yellow,2798.7768288999796,None,None,2798.7768288999796,None,,,,,,,,,,,,,,,,,,,,,,,,,,,,,,,,,,,102Sing,001,2022_Nov_28_1413,ProdSingRedoBetween,2021.2.3,59.97832373857181,
5,0,5,0,,,,,,,,,,,,,,,,,,,,,,,,,,2803.280684299767,None,finance,53,6,sing,blue,2801.2800770998,None,None,2801.2800770998,None,,,,,,,,,,,,,,,,,,,,,,,,,,,,,,,,,,,102Sing,001,2022_Nov_28_1413,ProdSingRedoBetween,2021.2.3,59.97832373857181,
6,0,6,0,,,,,,,,,,,,,,,,,,,,,,,,,,2805.7830833001062,None,problem,22,7,sing,yellow,2803.7816337998956,None,None,2803.7816337998956,None,,,,,,,,,,,,,,,,,,,,,,,,,,,,,,,,,,,102Sing,001,2022_Nov_28_1413,ProdSingRedoBetween,2021.2.3,59.97832373857181,
7,0,7,0,,,,,,,,,,,,,,,,,,,,,,,,,,2808.302322600037,None,phrase,73,8,sing,red,2806.2878721999004,None,None,2806.2878721999004,None,,,,,,,,,,,,,,,,,,,,,,,,,,,,,,,,,,,102Sing,001,2022_Nov_28_1413,ProdSingRedoBetween,2021.2.3,59.97832373857181,
8,0,8,0,,,,,,,,,,,,,,,,,,,,,,,,,,2810.8048769999295,None,finish,58,9,sing,blue,2808.8027868997306,None,None,2808.8027868997306,None,,,,,,,,,,,,,,,,,,,,,,,,,,,,,,,,,,,102Sing,001,2022_Nov_28_1413,ProdSingRedoBetween,2021.2.3,59.97832373857181,
9,0,9,0,,,,,,,,,,,,,,,,,,,,,,,,,,2813.324064699933,None,level,41,10,sing,blue,2811.3117629000917,None,None,2811.3117629000917,None,,,,,,,,,,,,,,,,,,,,,,,,,,,,,,,,,,,102Sing,001,2022_Nov_28_1413,ProdSingRedoBetween,2021.2.3,59.97832373857181,
10,0,10,0,,,,,,,,,,,,,,,,,,,,,,,,,,2815.826423900202,None,accident,81,11,sing,red,2813.824376099743,None,None,2813.824376099743,None,,,,,,,,,,,,,,,,,,,,,,,,,,,,,,,,,,,102Sing,001,2022_Nov_28_1413,ProdSingRedoBetween,2021.2.3,59.97832373857181,
11,0,11,0,,,,,,,,,,,,,,,,,,,,,,,,,,2818.3454256998375,None,growth,51,12,sing,blue,2816.3309233002365,None,None,2816.3309233002365,None,,,,,,,,,,,,,,,,,,,,,,,,,,,,,,,,,,,102Sing,001,2022_Nov_28_1413,ProdSingRedoBetween,2021.2.3,59.97832373857181,
12,0,12,0,,,,,,,,,,,,,,,,,,,,,,,,,,2820.847671999596,None,weather,28,13,sing,yellow,2818.847449200228,None,None,2818.847449200228,None,,,,,,,,,,,,,,,,,,,,,,,,,,,,,,,,,,,102Sing,001,2022_Nov_28_1413,ProdSingRedoBetween,2021.2.3,59.97832373857181,
13,0,13,0,,,,,,,,,,,,,,,,,,,,,,,,,,2823.3506733998656,None,damage,77,14,sing,red,2821.348875399679,None,None,2821.348875399679,None,,,,,,,,,,,,,,,,,,,,,,,,,,,,,,,,,,,102Sing,001,2022_Nov_28_1413,ProdSingRedoBetween,2021.2.3,59.97832373857181,
14,0,14,0,,,,,,,,,,,,,,,,,,,,,,,,,,2825.852828799747,None,minute,89,15,sing,red,2823.8512271000072,None,None,2823.8512271000072,None,,,,,,,,,,,,,,,,,,,,,,,,,,,,,,,,,,,102Sing,001,2022_Nov_28_1413,ProdSingRedoBetween,2021.2.3,59.97832373857181,
15,0,15,0,,,,,,,,,,,,,,,,,,,,,,,,,,2828.355719299987,None,south,38,16,sing,blue,2826.3537836000323,None,None,2826.3537836000323,None,,,,,,,,,,,,,,,,,,,,,,,,,,,,,,,,,,,102Sing,001,2022_Nov_28_1413,ProdSingRedoBetween,2021.2.3,59.97832373857181,
16,0,16,0,,,,,,,,,,,,,,,,,,,,,,,,,,2830.874645699747,None,treatment,62,17,sing,red,2828.8594319997355,None,None,2828.8594319997355,None,,,,,,,,,,,,,,,,,,,,,,,,,,,,,,,,,,,102Sing,001,2022_Nov_28_1413,ProdSingRedoBetween,2021.2.3,59.97832373857181,
17,0,17,0,,,,,,,,,,,,,,,,,,,,,,,,,,2833.377378099598,None,weight,3,18,sing,yellow,2831.377825899981,None,None,2831.377825899981,None,,,,,,,,,,,,,,,,,,,,,,,,,,,,,,,,,,,102Sing,001,2022_Nov_28_1413,ProdSingRedoBetween,2021.2.3,59.97832373857181,
18,0,18,0,,,,,,,,,,,,,,,,,,,,,,,,,,2835.8965115994215,None,measure,55,19,sing,blue,2833.8821987994015,None,None,2833.8821987994015,None,,,,,,,,,,,,,,,,,,,,,,,,,,,,,,,,,,,102Sing,001,2022_Nov_28_1413,ProdSingRedoBetween,2021.2.3,59.97832373857181,
19,0,19,0,,,,,,,,,,,,,,,,,,,,,,,,,,2838.4157287999988,None,fashion,79,20,sing,red,2836.401029399596,None,None,2836.401029399596,None,,,,,,,,,,,,,,,,,,,,,,,,,,,,,,,,,,,102Sing,001,2022_Nov_28_1413,ProdSingRedoBetween,2021.2.3,59.97832373857181,
20,0,20,0,,,,,,,,,,,,,,,,,,,,,,,,,,2840.9181784996763,None,novel,33,21,sing,blue,2838.9178571999073,None,None,2838.9178571999073,None,,,,,,,,,,,,,,,,,,,,,,,,,,,,,,,,,,,102Sing,001,2022_Nov_28_1413,ProdSingRedoBetween,2021.2.3,59.97832373857181,
21,0,21,0,,,,,,,,,,,,,,,,,,,,,,,,,,2843.4372880002484,None,shock,65,22,sing,red,2841.4262784998864,None,None,2841.4262784998864,None,,,,,,,,,,,,,,,,,,,,,,,,,,,,,,,,,,,102Sing,001,2022_Nov_28_1413,ProdSingRedoBetween,2021.2.3,59.97832373857181,
22,0,22,0,,,,,,,,,,,,,,,,,,,,,,,,,,2845.956458600238,None,people,4,23,sing,yellow,2843.9416945995763,None,None,2843.9416945995763,None,,,,,,,,,,,,,,,,,,,,,,,,,,,,,,,,,,,102Sing,001,2022_Nov_28_1413,ProdSingRedoBetween,2021.2.3,59.97832373857181,
23,0,23,0,,,,,,,,,,,,,,,,,,,,,,,,,,2848.475734899752,None,danger,54,24,sing,blue,2846.464062099345,None,None,2846.464062099345,None,,,,,,,,,,,,,,,,,,,,,,,,,,,,,,,,,,,102Sing,001,2022_Nov_28_1413,ProdSingRedoBetween,2021.2.3,59.97832373857181,
24,0,24,0,,,,,,,,,,,,,,,,,,,,,,,,,,2850.994811600074,None,equipment,31,25,sing,blue,2848.988079399802,None,None,2848.988079399802,None,,,,,,,,,,,,,,,,,,,,,,,,,,,,,,,,,,,102Sing,001,2022_Nov_28_1413,ProdSingRedoBetween,2021.2.3,59.97832373857181,
25,0,25,0,,,,,,,,,,,,,,,,,,,,,,,,,,2853.497246200219,None,instrument,67,26,sing,red,2851.4952745996416,None,None,2851.4952745996416,None,,,,,,,,,,,,,,,,,,,,,,,,,,,,,,,,,,,102Sing,001,2022_Nov_28_1413,ProdSingRedoBetween,2021.2.3,59.97832373857181,
26,0,26,0,,,,,,,,,,,,,,,,,,,,,,,,,,2856.0165185993537,None,track,30,27,sing,blue,2854.0017168996856,None,None,2854.0017168996856,None,,,,,,,,,,,,,,,,,,,,,,,,,,,,,,,,,,,102Sing,001,2022_Nov_28_1413,ProdSingRedoBetween,2021.2.3,59.97832373857181,
27,0,27,0,,,,,,,,,,,,,,,,,,,,,,,,,,2858.5190225001425,None,frank,0,28,sing,yellow,2856.517091100104,None,None,2856.517091100104,None,,,,,,,,,,,,,,,,,,,,,,,,,,,,,,,,,,,102Sing,001,2022_Nov_28_1413,ProdSingRedoBetween,2021.2.3,59.97832373857181,
28,0,28,0,,,,,,,,,,,,,,,,,,,,,,,,,,2861.0215131994337,None,private,12,29,sing,yellow,2859.021179500036,None,None,2859.021179500036,None,,,,,,,,,,,,,,,,,,,,,,,,,,,,,,,,,,,102Sing,001,2022_Nov_28_1413,ProdSingRedoBetween,2021.2.3,59.97832373857181,
29,0,29,0,,,,,,,,,,,,,,,,,,,,,,,,,,2863.5407670997083,None,tragedy,17,30,sing,yellow,2861.532675099559,None,None,2861.532675099559,None,,,,,,,,,,,,,,,,,,,,,,,,,,,,,,,,,,,102Sing,001,2022_Nov_28_1413,ProdSingRedoBetween,2021.2.3,59.97832373857181,
30,0,30,0,,,,,,,,,,,,,,,,,,,,,,,,,,2866.0433174995705,None,public,49,31,sing,blue,2864.041018099524,None,None,2864.041018099524,None,,,,,,,,,,,,,,,,,,,,,,,,,,,,,,,,,,,102Sing,001,2022_Nov_28_1413,ProdSingRedoBetween,2021.2.3,59.97832373857181,
31,0,31,0,,,,,,,,,,,,,,,,,,,,,,,,,,2868.545522899367,None,balance,59,32,sing,yellow,2866.5458789998665,None,None,2866.5458789998665,None,,,,,,,,,,,,,,,,,,,,,,,,,,,,,,,,,,,102Sing,001,2022_Nov_28_1413,ProdSingRedoBetween,2021.2.3,59.97832373857181,
32,0,32,0,,,,,,,,,,,,,,,,,,,,,,,,,,2871.0482719996944,None,mankind,34,33,sing,blue,2869.0477002998814,None,None,2869.0477002998814,None,,,,,,,,,,,,,,,,,,,,,,,,,,,,,,,,,,,102Sing,001,2022_Nov_28_1413,ProdSingRedoBetween,2021.2.3,59.97832373857181,
33,0,33,0,,,,,,,,,,,,,,,,,,,,,,,,,,2873.5508265998214,None,present,10,34,sing,yellow,2871.5503677995875,None,None,2871.5503677995875,None,,,,,,,,,,,,,,,,,,,,,,,,,,,,,,,,,,,102Sing,001,2022_Nov_28_1413,ProdSingRedoBetween,2021.2.3,59.97832373857181,
34,0,34,0,,,,,,,,,,,,,,,,,,,,,,,,,,2876.069723399356,None,signal,23,35,sing,yellow,2874.0565706994385,None,None,2874.0565706994385,None,,,,,,,,,,,,,,,,,,,,,,,,,,,,,,,,,,,102Sing,001,2022_Nov_28_1413,ProdSingRedoBetween,2021.2.3,59.97832373857181,
35,0,35,0,,,,,,,,,,,,,,,,,,,,,,,,,,2878.589089100249,None,union,48,36,sing,blue,2876.5739586995915,None,None,2876.5739586995915,None,,,,,,,,,,,,,,,,,,,,,,,,,,,,,,,,,,,102Sing,001,2022_Nov_28_1413,ProdSingRedoBetween,2021.2.3,59.97832373857181,
36,0,36,0,,,,,,,,,,,,,,,,,,,,,,,,,,2881.091549700126,None,benefit,52,37,sing,blue,2879.0894571002573,None,None,2879.0894571002573,None,,,,,,,,,,,,,,,,,,,,,,,,,,,,,,,,,,,102Sing,001,2022_Nov_28_1413,ProdSingRedoBetween,2021.2.3,59.97832373857181,
37,0,37,0,,,,,,,,,,,,,,,,,,,,,,,,,,2883.593889700249,None,place,43,38,sing,blue,2881.593257400207,None,None,2881.593257400207,None,,,,,,,,,,,,,,,,,,,,,,,,,,,,,,,,,,,102Sing,001,2022_Nov_28_1413,ProdSingRedoBetween,2021.2.3,59.97832373857181,
38,0,38,0,,,,,,,,,,,,,,,,,,,,,,,,,,2886.096559899859,None,emergency,44,39,sing,blue,2884.0944542996585,None,None,2884.0944542996585,None,,,,,,,,,,,,,,,,,,,,,,,,,,,,,,,,,,,102Sing,001,2022_Nov_28_1413,ProdSingRedoBetween,2021.2.3,59.97832373857181,
39,0,39,0,,,,,,,,,,,,,,,,,,,,,,,,,,2888.601905799471,None,school,70,40,sing,red,2886.596924699843,None,None,2886.596924699843,None,,,,,,,,,,,,,,,,,,,,,,,,,,,,,,,,,,,102Sing,001,2022_Nov_28_1413,ProdSingRedoBetween,2021.2.3,59.97832373857181,
40,0,40,0,,,,,,,,,,,,,,,,,,,,,,,,,,2891.1182928998023,None,sight,21,41,sing,yellow,2889.1162001993507,None,None,2889.1162001993507,None,,,,,,,,,,,,,,,,,,,,,,,,,,,,,,,,,,,102Sing,001,2022_Nov_28_1413,ProdSingRedoBetween,2021.2.3,59.97832373857181,
41,0,41,0,,,,,,,,,,,,,,,,,,,,,,,,,,2893.6374383000657,None,trash,69,42,sing,red,2891.623544599861,None,None,2891.623544599861,None,,,,,,,,,,,,,,,,,,,,,,,,,,,,,,,,,,,102Sing,001,2022_Nov_28_1413,ProdSingRedoBetween,2021.2.3,59.97832373857181,
42,0,42,0,,,,,,,,,,,,,,,,,,,,,,,,,,2896.1399529995397,None,travel,78,43,sing,red,2894.140576600097,None,None,2894.140576600097,None,,,,,,,,,,,,,,,,,,,,,,,,,,,,,,,,,,,102Sing,001,2022_Nov_28_1413,ProdSingRedoBetween,2021.2.3,59.97832373857181,
43,0,43,0,,,,,,,,,,,,,,,,,,,,,,,,,,2898.659055000171,None,conference,71,44,sing,red,2896.6467850999907,None,None,2896.6467850999907,None,,,,,,,,,,,,,,,,,,,,,,,,,,,,,,,,,,,102Sing,001,2022_Nov_28_1413,ProdSingRedoBetween,2021.2.3,59.97832373857181,
44,0,44,0,,,,,,,,,,,,,,,,,,,,,,,,,,2901.178252100013,None,height,72,45,sing,red,2899.1643910994753,None,None,2899.1643910994753,None,,,,,,,,,,,,,,,,,,,,,,,,,,,,,,,,,,,102Sing,001,2022_Nov_28_1413,ProdSingRedoBetween,2021.2.3,59.97832373857181,
45,0,45,0,,,,,,,,,,,,,,,,,,,,,,,,,,2903.680803399533,None,provision,84,46,sing,red,2901.6788165997714,None,None,2901.6788165997714,None,,,,,,,,,,,,,,,,,,,,,,,,,,,,,,,,,,,102Sing,001,2022_Nov_28_1413,ProdSingRedoBetween,2021.2.3,59.97832373857181,
46,0,46,0,,,,,,,,,,,,,,,,,,,,,,,,,,2906.200069000013,None,beauty,60,47,sing,red,2904.1845614993945,None,None,2904.1845614993945,None,,,,,,,,,,,,,,,,,,,,,,,,,,,,,,,,,,,102Sing,001,2022_Nov_28_1413,ProdSingRedoBetween,2021.2.3,59.97832373857181,
47,0,47,0,,,,,,,,,,,,,,,,,,,,,,,,,,2908.719052599743,None,passage,75,48,sing,red,2906.7068697996438,None,None,2906.7068697996438,None,,,,,,,,,,,,,,,,,,,,,,,,,,,,,,,,,,,102Sing,001,2022_Nov_28_1413,ProdSingRedoBetween,2021.2.3,59.97832373857181,
48,0,48,0,,,,,,,,,,,,,,,,,,,,,,,,,,2911.221737300046,None,speech,57,49,sing,blue,2909.221849599853,None,None,2909.221849599853,None,,,,,,,,,,,,,,,,,,,,,,,,,,,,,,,,,,,102Sing,001,2022_Nov_28_1413,ProdSingRedoBetween,2021.2.3,59.97832373857181,
49,0,49,0,,,,,,,,,,,,,,,,,,,,,,,,,,2913.740769099444,None,master,46,50,sing,blue,2911.7287050001323,None,None,2911.7287050001323,None,,,,,,,,,,,,,,,,,,,,,,,,,,,,,,,,,,,102Sing,001,2022_Nov_28_1413,ProdSingRedoBetween,2021.2.3,59.97832373857181,
50,0,50,0,,,,,,,,,,,,,,,,,,,,,,,,,,2916.243359499611,None,audience,47,51,sing,blue,2914.240970700048,None,None,2914.240970700048,None,,,,,,,,,,,,,,,,,,,,,,,,,,,,,,,,,,,102Sing,001,2022_Nov_28_1413,ProdSingRedoBetween,2021.2.3,59.97832373857181,
51,0,51,0,,,,,,,,,,,,,,,,,,,,,,,,,,2918.7458859002218,None,detective,20,52,sing,yellow,2916.7438957002014,None,None,2916.7438957002014,None,,,,,,,,,,,,,,,,,,,,,,,,,,,,,,,,,,,102Sing,001,2022_Nov_28_1413,ProdSingRedoBetween,2021.2.3,59.97832373857181,
52,0,52,0,,,,,,,,,,,,,,,,,,,,,,,,,,2921.2650298001245,None,bicycle,11,53,sing,yellow,2919.251115899533,None,None,2919.251115899533,None,,,,,,,,,,,,,,,,,,,,,,,,,,,,,,,,,,,102Sing,001,2022_Nov_28_1413,ProdSingRedoBetween,2021.2.3,59.97832373857181,
53,0,53,0,,,,,,,,,,,,,,,,,,,,,,,,,,2923.767522400245,None,debate,37,54,sing,blue,2921.765516899526,None,None,2921.765516899526,None,,,,,,,,,,,,,,,,,,,,,,,,,,,,,,,,,,,102Sing,001,2022_Nov_28_1413,ProdSingRedoBetween,2021.2.3,59.97832373857181,
54,0,54,0,,,,,,,,,,,,,,,,,,,,,,,,,,2926.270065399818,None,harmony,83,55,sing,red,2924.267683199607,None,None,2924.267683199607,None,,,,,,,,,,,,,,,,,,,,,,,,,,,,,,,,,,,102Sing,001,2022_Nov_28_1413,ProdSingRedoBetween,2021.2.3,59.97832373857181,
55,0,55,0,,,,,,,,,,,,,,,,,,,,,,,,,,2928.789091099985,None,voice,15,56,sing,yellow,2926.7790083000436,None,None,2926.7790083000436,None,,,,,,,,,,,,,,,,,,,,,,,,,,,,,,,,,,,102Sing,001,2022_Nov_28_1413,ProdSingRedoBetween,2021.2.3,59.97832373857181,
56,0,56,0,,,,,,,,,,,,,,,,,,,,,,,,,,2931.3083350993693,None,escape,74,57,sing,red,2929.29884929955,None,None,2929.29884929955,None,,,,,,,,,,,,,,,,,,,,,,,,,,,,,,,,,,,102Sing,001,2022_Nov_28_1413,ProdSingRedoBetween,2021.2.3,59.97832373857181,
57,0,57,0,,,,,,,,,,,,,,,,,,,,,,,,,,2933.8106354000047,None,little,87,58,sing,red,2931.809823099524,None,None,2931.809823099524,None,,,,,,,,,,,,,,,,,,,,,,,,,,,,,,,,,,,102Sing,001,2022_Nov_28_1413,ProdSingRedoBetween,2021.2.3,59.97832373857181,
58,0,58,0,,,,,,,,,,,,,,,,,,,,,,,,,,2936.3298902995884,None,permit,80,59,sing,red,2934.315575399436,None,None,2934.315575399436,None,,,,,,,,,,,,,,,,,,,,,,,,,,,,,,,,,,,102Sing,001,2022_Nov_28_1413,ProdSingRedoBetween,2021.2.3,59.97832373857181,
59,0,59,0,,,,,,,,,,,,,,,,,,,,,,,,,,2938.8324384996668,None,department,7,60,sing,yellow,2936.830589500256,None,None,2936.830589500256,None,,,,,,,,,,,,,,,,,,,,,,,,,,,,,,,,,,,102Sing,001,2022_Nov_28_1413,ProdSingRedoBetween,2021.2.3,59.97832373857181,
60,0,60,0,,,,,,,,,,,,,,,,,,,,,,,,,,2941.335080499761,None,brief,9,61,sing,yellow,2939.3328197998926,None,None,2939.3328197998926,None,,,,,,,,,,,,,,,,,,,,,,,,,,,,,,,,,,,102Sing,001,2022_Nov_28_1413,ProdSingRedoBetween,2021.2.3,59.97832373857181,
61,0,61,0,,,,,,,,,,,,,,,,,,,,,,,,,,2943.8541815998033,None,blind,63,62,sing,red,2941.8411489995196,None,None,2941.8411489995196,None,,,,,,,,,,,,,,,,,,,,,,,,,,,,,,,,,,,102Sing,001,2022_Nov_28_1413,ProdSingRedoBetween,2021.2.3,59.97832373857181,
62,0,62,0,,,,,,,,,,,,,,,,,,,,,,,,,,2946.3566896999255,None,surface,18,63,sing,yellow,2944.3547379001975,None,None,2944.3547379001975,None,,,,,,,,,,,,,,,,,,,,,,,,,,,,,,,,,,,102Sing,001,2022_Nov_28_1413,ProdSingRedoBetween,2021.2.3,59.97832373857181,
63,0,63,0,,,,,,,,,,,,,,,,,,,,,,,,,,2948.8592246994376,None,pattern,25,64,sing,yellow,2946.857216499746,None,None,2946.857216499746,None,,,,,,,,,,,,,,,,,,,,,,,,,,,,,,,,,,,102Sing,001,2022_Nov_28_1413,ProdSingRedoBetween,2021.2.3,59.97832373857181,
64,0,64,0,,,,,,,,,,,,,,,,,,,,,,,,,,2951.3616476999596,None,capital,86,65,sing,red,2949.359633400105,None,None,2949.359633400105,None,,,,,,,,,,,,,,,,,,,,,,,,,,,,,,,,,,,102Sing,001,2022_Nov_28_1413,ProdSingRedoBetween,2021.2.3,59.97832373857181,
65,0,65,0,,,,,,,,,,,,,,,,,,,,,,,,,,2953.863951300271,None,employment,36,66,sing,blue,2951.862509000115,None,None,2951.862509000115,None,,,,,,,,,,,,,,,,,,,,,,,,,,,,,,,,,,,102Sing,001,2022_Nov_28_1413,ProdSingRedoBetween,2021.2.3,59.97832373857181,
66,0,66,0,,,,,,,,,,,,,,,,,,,,,,,,,,2956.36647719983,None,pancakes,45,67,sing,blue,2954.3645185995847,None,None,2954.3645185995847,None,,,,,,,,,,,,,,,,,,,,,,,,,,,,,,,,,,,102Sing,001,2022_Nov_28_1413,ProdSingRedoBetween,2021.2.3,59.97832373857181,
67,0,67,0,,,,,,,,,,,,,,,,,,,,,,,,,,2958.869109099731,None,alert,35,68,sing,blue,2956.8690096996725,None,None,2956.8690096996725,None,,,,,,,,,,,,,,,,,,,,,,,,,,,,,,,,,,,102Sing,001,2022_Nov_28_1413,ProdSingRedoBetween,2021.2.3,59.97832373857181,
68,0,68,0,,,,,,,,,,,,,,,,,,,,,,,,,,2961.3883314002305,None,member,8,69,sing,yellow,2959.3738161996007,None,None,2959.3738161996007,None,,,,,,,,,,,,,,,,,,,,,,,,,,,,,,,,,,,102Sing,001,2022_Nov_28_1413,ProdSingRedoBetween,2021.2.3,59.97832373857181,
69,0,69,0,,,,,,,,,,,,,,,,,,,,,,,,,,2963.8905910002068,None,month,24,70,sing,yellow,2961.8897490995005,None,None,2961.8897490995005,None,,,,,,,,,,,,,,,,,,,,,,,,,,,,,,,,,,,102Sing,001,2022_Nov_28_1413,ProdSingRedoBetween,2021.2.3,59.97832373857181,
70,0,70,0,,,,,,,,,,,,,,,,,,,,,,,,,,2966.3931821994483,None,incident,16,71,sing,yellow,2964.391288999468,None,None,2964.391288999468,None,,,,,,,,,,,,,,,,,,,,,,,,,,,,,,,,,,,102Sing,001,2022_Nov_28_1413,ProdSingRedoBetween,2021.2.3,59.97832373857181,
71,0,71,0,,,,,,,,,,,,,,,,,,,,,,,,,,2968.8957902994007,None,government,2,72,sing,yellow,2966.8937820000574,None,None,2966.8937820000574,None,,,,,,,,,,,,,,,,,,,,,,,,,,,,,,,,,,,102Sing,001,2022_Nov_28_1413,ProdSingRedoBetween,2021.2.3,59.97832373857181,
72,0,72,0,,,,,,,,,,,,,,,,,,,,,,,,,,2971.4147060997784,None,agreement,13,73,sing,yellow,2969.400147399865,None,None,2969.400147399865,None,,,,,,,,,,,,,,,,,,,,,,,,,,,,,,,,,,,102Sing,001,2022_Nov_28_1413,ProdSingRedoBetween,2021.2.3,59.97832373857181,
73,0,73,0,,,,,,,,,,,,,,,,,,,,,,,,,,2973.9175066994503,None,appeal,39,74,sing,blue,2971.9152453998104,None,None,2971.9152453998104,None,,,,,,,,,,,,,,,,,,,,,,,,,,,,,,,,,,,102Sing,001,2022_Nov_28_1413,ProdSingRedoBetween,2021.2.3,59.97832373857181,
74,0,74,0,,,,,,,,,,,,,,,,,,,,,,,,,,2976.436589899473,None,candidate,40,75,sing,blue,2974.4222582997754,None,None,2974.4222582997754,None,,,,,,,,,,,,,,,,,,,,,,,,,,,,,,,,,,,102Sing,001,2022_Nov_28_1413,ProdSingRedoBetween,2021.2.3,59.97832373857181,
75,0,75,0,,,,,,,,,,,,,,,,,,,,,,,,,,2978.939188200049,None,power,68,76,sing,red,2976.9386350000277,None,None,2976.9386350000277,None,,,,,,,,,,,,,,,,,,,,,,,,,,,,,,,,,,,102Sing,001,2022_Nov_28_1413,ProdSingRedoBetween,2021.2.3,59.97832373857181,
76,0,76,0,,,,,,,,,,,,,,,,,,,,,,,,,,2981.4584686001763,None,primary,61,77,sing,red,2979.4430932998657,None,None,2979.4430932998657,None,,,,,,,,,,,,,,,,,,,,,,,,,,,,,,,,,,,102Sing,001,2022_Nov_28_1413,ProdSingRedoBetween,2021.2.3,59.97832373857181,
77,0,77,0,,,,,,,,,,,,,,,,,,,,,,,,,,2983.9607926998287,None,spoke,29,78,sing,blue,2981.9588262997568,None,None,2981.9588262997568,None,,,,,,,,,,,,,,,,,,,,,,,,,,,,,,,,,,,102Sing,001,2022_Nov_28_1413,ProdSingRedoBetween,2021.2.3,59.97832373857181,
78,0,78,0,,,,,,,,,,,,,,,,,,,,,,,,,,2986.4799913000315,None,symbol,19,79,sing,yellow,2984.464769899845,None,None,2984.464769899845,None,,,,,,,,,,,,,,,,,,,,,,,,,,,,,,,,,,,102Sing,001,2022_Nov_28_1413,ProdSingRedoBetween,2021.2.3,59.97832373857181,
79,0,79,0,,,,,,,,,,,,,,,,,,,,,,,,,,2988.982472599484,None,force,27,80,sing,yellow,2986.980372699909,None,None,2986.980372699909,None,,,,,,,,,,,,,,,,,,,,,,,,,,,,,,,,,,,102Sing,001,2022_Nov_28_1413,ProdSingRedoBetween,2021.2.3,59.97832373857181,
80,0,80,0,,,,,,,,,,,,,,,,,,,,,,,,,,2991.5017144996673,None,nature,1,81,sing,yellow,2989.4863529996946,None,None,2989.4863529996946,None,,,,,,,,,,,,,,,,,,,,,,,,,,,,,,,,,,,102Sing,001,2022_Nov_28_1413,ProdSingRedoBetween,2021.2.3,59.97832373857181,
81,0,81,0,,,,,,,,,,,,,,,,,,,,,,,,,,2994.0042249001563,None,discovery,88,82,sing,red,2992.0021286997944,None,None,2992.0021286997944,None,,,,,,,,,,,,,,,,,,,,,,,,,,,,,,,,,,,102Sing,001,2022_Nov_28_1413,ProdSingRedoBetween,2021.2.3,59.97832373857181,
82,0,82,0,,,,,,,,,,,,,,,,,,,,,,,,,,2996.523134799674,None,impact,42,83,sing,blue,2994.51298270002,None,None,2994.51298270002,None,,,,,,,,,,,,,,,,,,,,,,,,,,,,,,,,,,,102Sing,001,2022_Nov_28_1413,ProdSingRedoBetween,2021.2.3,59.97832373857181,
83,0,83,0,,,,,,,,,,,,,,,,,,,,,,,,,,2999.042508999817,None,distance,14,84,sing,yellow,2997.0340112000704,None,None,2997.0340112000704,None,,,,,,,,,,,,,,,,,,,,,,,,,,,,,,,,,,,102Sing,001,2022_Nov_28_1413,ProdSingRedoBetween,2021.2.3,59.97832373857181,
84,0,84,0,,,,,,,,,,,,,,,,,,,,,,,,,,3001.545039200224,None,close,64,85,sing,red,2999.5443040998653,None,None,2999.5443040998653,None,,,,,,,,,,,,,,,,,,,,,,,,,,,,,,,,,,,102Sing,001,2022_Nov_28_1413,ProdSingRedoBetween,2021.2.3,59.97832373857181,
85,0,85,0,,,,,,,,,,,,,,,,,,,,,,,,,,3004.0474402001128,None,tough,50,86,sing,blue,3002.0455067995936,None,None,3002.0455067995936,None,,,,,,,,,,,,,,,,,,,,,,,,,,,,,,,,,,,102Sing,001,2022_Nov_28_1413,ProdSingRedoBetween,2021.2.3,59.97832373857181,
86,0,86,0,,,,,,,,,,,,,,,,,,,,,,,,,,3006.550035099499,None,beginning,85,87,sing,red,3004.5479995999485,None,None,3004.5479995999485,None,,,,,,,,,,,,,,,,,,,,,,,,,,,,,,,,,,,102Sing,001,2022_Nov_28_1413,ProdSingRedoBetween,2021.2.3,59.97832373857181,
87,0,87,0,,,,,,,,,,,,,,,,,,,,,,,,,,3009.069100899622,None,title,76,88,sing,red,3007.0538496002555,None,None,3007.0538496002555,None,,,,,,,,,,,,,,,,,,,,,,,,,,,,,,,,,,,102Sing,001,2022_Nov_28_1413,ProdSingRedoBetween,2021.2.3,59.97832373857181,
88,0,88,0,,,,,,,,,,,,,,,,,,,,,,,,,,3011.571717900224,None,couch,56,89,sing,blue,3009.569753699936,None,None,3009.569753699936,None,,,,,,,,,,,,,,,,,,,,,,,,,,,,,,,,,,,102Sing,001,2022_Nov_28_1413,ProdSingRedoBetween,2021.2.3,59.97832373857181,
89,0,89,0,,,,,,,,,,,,,,,,,,,,,,,,,,3014.090894400142,None,session,66,90,sing,red,3012.0756954001263,None,None,3012.0756954001263,None,,,,,,,,,,,,,,,,,,,,,,,,,,,,,,,,,,,102Sing,001,2022_Nov_28_1413,ProdSingRedoBetween,2021.2.3,59.97832373857181,
,,,,,,,,,,,,,,,,,,,,,,,,,,,,,,,,,,,,,,,,,3014.591593399644,None,k,54.44559339992702,3014.591593399644,None,,,,,,,,,,,,,,,,,,,,,,,,,,,,,102Sing,001,2022_Nov_28_1413,ProdSingRedoBetween,2021.2.3,59.97832373857181,
,,,,0,0,0,0,,,,,,,,,,,,,,,,,,,,,,3080.723966299556,None,,,,,,,,,,,,,,,,,still,139,1,sing,new,null,3069.566889599897,None,3069.566889599897,None,6,7.886167299933732,3069.566889599897,None,7.886167299933732,3077.4722806997597,None,3077.990735099651,None,3077.990735099651,None,r,2.702551099471748,3077.990735099651,None,2.702551099471748,,,102Sing,001,2022_Nov_28_1413,ProdSingRedoBetween,2021.2.3,59.97832373857181,
,,,,1,0,1,0,,,,,,,,,,,,,,,,,,,,,,3086.2628370998427,None,,,,,,,,,,,,,,,,,generation,159,2,sing,new,null,3081.232866799459,None,3081.232866799459,None,1,3.428480399772525,3081.232866799459,None,3.428480399772525,3084.6812423001975,None,3085.1952149998397,None,3085.1952149998397,None,n,1.0498525006696582,3085.1952149998397,None,1.0498525006696582,,,102Sing,001,2022_Nov_28_1413,ProdSingRedoBetween,2021.2.3,59.97832373857181,
,,,,2,0,2,0,,,,,,,,,,,,,,,,,,,,,,3091.08423880022,None,,,,,,,,,,,,,,,,,crime,161,3,sing,new,null,3086.7658730000257,None,3086.7658730000257,None,2,2.6872038999572396,3086.7658730000257,None,2.6872038999572396,3089.4868951002136,None,3090.0010201996192,None,3090.0010201996192,None,n,1.0601620003581047,3090.0010201996192,None,1.0601620003581047,,,102Sing,001,2022_Nov_28_1413,ProdSingRedoBetween,2021.2.3,59.97832373857181,
,,,,3,0,3,0,,,,,,,,,,,,,,,,,,,,,,3096.7733584996313,None,,,,,,,,,,,,,,,,,school,70,4,sing,old,red,3091.5873641995713,None,3091.5873641995713,None,6,3.1538506001234055,3091.5873641995713,None,3.1538506001234055,3094.7755908994004,None,3095.2885548993945,None,3095.2885548993945,None,r,1.4685442997142673,3095.2885548993945,None,1.4685442997142673,,,102Sing,001,2022_Nov_28_1413,ProdSingRedoBetween,2021.2.3,59.97832373857181,
,,,,4,0,4,0,,,,,,,,,,,,,,,,,,,,,,3100.663803599775,None,,,,,,,,,,,,,,,,,brief,9,5,sing,old,yellow,3097.279743099585,None,3097.279743099585,None,6,2.3812857000157237,3097.279743099585,None,2.3812857000157237,3099.6791268996894,None,3100.195165200159,None,3100.195165200159,None,r,0.45012930035591125,3100.195165200159,None,0.45012930035591125,,,102Sing,001,2022_Nov_28_1413,ProdSingRedoBetween,2021.2.3,59.97832373857181,
,,,,5,0,5,0,,,,,,,,,,,,,,,,,,,,,,3107.7342785997316,None,,,,,,,,,,,,,,,,,sight,21,6,sing,old,yellow,3101.185329699889,None,3101.185329699889,None,5,3.5877326000481844,3101.185329699889,None,3.5877326000481844,3104.8053037002683,None,3105.31523580011,None,3105.31523580011,None,r,2.4017908005043864,3105.31523580011,None,2.4017908005043864,,,102Sing,001,2022_Nov_28_1413,ProdSingRedoBetween,2021.2.3,59.97832373857181,
,,,,6,0,6,0,,,,,,,,,,,,,,,,,,,,,,3111.1384109994397,None,,,,,,,,,,,,,,,,,error,92,7,sing,new,null,3108.2405110001564,None,3108.2405110001564,None,6,1.9724872997030616,3108.2405110001564,None,1.9724872997030616,3110.236715800129,None,3110.7373609999195,None,3110.7373609999195,None,r,0.37970149982720613,3110.7373609999195,None,0.37970149982720613,,,102Sing,001,2022_Nov_28_1413,ProdSingRedoBetween,2021.2.3,59.97832373857181,
,,,,7,0,7,0,,,,,,,,,,,,,,,,,,,,,,3115.258419100195,None,,,,,,,,,,,,,,,,,working,147,8,sing,new,null,3111.643235700205,None,3111.643235700205,None,1,1.657796200364828,3111.643235700205,None,1.657796200364828,3113.327316300012,None,3113.844719399698,None,3113.844719399698,None,n,1.3842859994620085,3113.844719399698,None,1.3842859994620085,,,102Sing,001,2022_Nov_28_1413,ProdSingRedoBetween,2021.2.3,59.97832373857181,
,,,,8,0,8,0,,,,,,,,,,,,,,,,,,,,,,3118.3280104994774,None,,,,,,,,,,,,,,,,,agency,110,9,sing,new,null,3115.7664016000926,None,3115.7664016000926,None,1,1.3585374001413584,3115.7664016000926,None,1.3585374001413584,3117.146722099744,None,3117.660962499678,None,3117.660962499678,None,n,0.6400178000330925,3117.660962499678,None,0.6400178000330925,,,102Sing,001,2022_Nov_28_1413,ProdSingRedoBetween,2021.2.3,59.97832373857181,
,,,,9,0,9,0,,,,,,,,,,,,,,,,,,,,,,3121.6314335996285,None,,,,,,,,,,,,,,,,,production,172,10,sing,new,null,3118.8363958001137,None,3118.8363958001137,None,1,1.2646419992670417,3118.8363958001137,None,1.2646419992670417,3120.1327345995232,None,3120.6472413996235,None,3120.6472413996235,None,n,0.9577262997627258,3120.6472413996235,None,0.9577262997627258,,,102Sing,001,2022_Nov_28_1413,ProdSingRedoBetween,2021.2.3,59.97832373857181,
,,,,10,0,10,0,,,,,,,,,,,,,,,,,,,,,,3126.9033752996475,None,,,,,,,,,,,,,,,,,guide,156,11,sing,new,null,3122.1428576000035,None,3122.1428576000035,None,4,3.3342292001470923,3122.1428576000035,None,3.3342292001470923,3125.508743399754,None,3126.020119300112,None,3126.020119300112,None,f,0.8568879999220371,3126.020119300112,None,0.8568879999220371,,,102Sing,001,2022_Nov_28_1413,ProdSingRedoBetween,2021.2.3,59.97832373857181,
,,,,11,0,11,0,,,,,,,,,,,,,,,,,,,,,,3131.042315499857,None,,,,,,,,,,,,,,,,,master,46,12,sing,old,blue,3127.404375099577,None,3127.404375099577,None,1,2.256642200052738,3127.404375099577,None,2.256642200052738,3129.690297299996,None,3130.195352599956,None,3130.195352599956,None,n,0.8176384000107646,3130.195352599956,None,0.8176384000107646,,,102Sing,001,2022_Nov_28_1413,ProdSingRedoBetween,2021.2.3,59.97832373857181,
,,,,12,0,12,0,,,,,,,,,,,,,,,,,,,,,,3137.2486325995997,None,,,,,,,,,,,,,,,,,instrument,67,13,sing,old,red,3131.5477868998423,None,3131.5477868998423,None,6,3.8011846002191305,3131.5477868998423,None,3.8011846002191305,3135.380224599503,None,3135.9026899002492,None,3135.9026899002492,None,r,1.3182757999747992,3135.9026899002492,None,1.3182757999747992,,,102Sing,001,2022_Nov_28_1413,ProdSingRedoBetween,2021.2.3,59.97832373857181,
,,,,13,0,13,0,,,,,,,,,,,,,,,,,,,,,,3139.949676199816,None,,,,,,,,,,,,,,,,,empty,146,14,sing,new,null,3137.7652819994837,None,3137.7652819994837,None,1,1.4477794002741575,3137.7652819994837,None,1.4477794002741575,3139.235175599344,None,3139.7584887994453,None,3139.7584887994453,None,n,0.16650420054793358,3139.7584887994453,None,0.16650420054793358,,,102Sing,001,2022_Nov_28_1413,ProdSingRedoBetween,2021.2.3,59.97832373857181,
,,,,14,0,14,0,,,,,,,,,,,,,,,,,,,,,,3143.123056699522,None,,,,,,,,,,,,,,,,,present,10,15,sing,old,yellow,3140.4549054000527,None,3140.4549054000527,None,3,1.885984200052917,3140.4549054000527,None,1.885984200052917,3142.3707119999453,None,3142.885943999514,None,3142.885943999514,None,n,0.20692020002752542,3142.885943999514,None,0.20692020002752542,,,102Sing,001,2022_Nov_28_1413,ProdSingRedoBetween,2021.2.3,59.97832373857181,
,,,,15,0,15,0,,,,,,,,,,,,,,,,,,,,,,3147.5072839995846,None,,,,,,,,,,,,,,,,,direction,116,16,sing,new,null,3143.6426048995927,None,3143.6426048995927,None,1,2.9463294995948672,3143.6426048995927,None,2.9463294995948672,3146.609469600022,None,3147.1246542995796,None,3147.1246542995796,None,n,0.35229119937866926,3147.1246542995796,None,0.35229119937866926,,,102Sing,001,2022_Nov_28_1413,ProdSingRedoBetween,2021.2.3,59.97832373857181,
,,,,16,0,16,0,,,,,,,,,,,,,,,,,,,,,,3151.8114692997187,None,,,,,,,,,,,,,,,,,audience,47,17,sing,old,blue,3148.0185166997835,None,3148.0185166997835,None,1,2.8104213001206517,3148.0185166997835,None,2.8104213001206517,3150.8470515999943,None,3151.3662711996585,None,3151.3662711996585,None,n,0.41469499934464693,3151.3662711996585,None,0.41469499934464693,,,102Sing,001,2022_Nov_28_1413,ProdSingRedoBetween,2021.2.3,59.97832373857181,
,,,,17,0,17,0,,,,,,,,,,,,,,,,,,,,,,3154.4472786998376,None,,,,,,,,,,,,,,,,,article,90,18,sing,new,null,3152.313271800056,None,3152.313271800056,None,1,1.41971439961344,3152.313271800056,None,1.41971439961344,3153.7680053999647,None,3154.280632299371,None,3154.280632299371,None,n,0.14829300064593554,3154.280632299371,None,0.14829300064593554,,,102Sing,001,2022_Nov_28_1413,ProdSingRedoBetween,2021.2.3,59.97832373857181,
,,,,18,0,18,0,,,,,,,,,,,,,,,,,,,,,,3157.8508992996067,None,,,,,,,,,,,,,,,,,military,6,19,sing,old,yellow,3154.964225099422,None,3154.964225099422,None,6,1.5847387006506324,3154.964225099422,None,1.5847387006506324,3156.5689645996317,None,3157.083625299856,None,3157.083625299856,None,r,0.7453273003920913,3157.083625299856,None,0.7453273003920913,,,102Sing,001,2022_Nov_28_1413,ProdSingRedoBetween,2021.2.3,59.97832373857181,
,,,,19,0,19,0,,,,,,,,,,,,,,,,,,,,,,3161.00389380008,None,,,,,,,,,,,,,,,,,emergency,44,20,sing,old,blue,3158.3582841996104,None,3158.3582841996104,None,6,1.510737200267613,3158.3582841996104,None,1.510737200267613,3159.8956221994013,None,3160.4033408993855,None,3160.4033408993855,None,r,0.5695365993306041,3160.4033408993855,None,0.5695365993306041,,,102Sing,001,2022_Nov_28_1413,ProdSingRedoBetween,2021.2.3,59.97832373857181,
,,,,20,0,20,0,,,,,,,,,,,,,,,,,,,,,,3164.5575759001076,None,,,,,,,,,,,,,,,,,reading,102,21,sing,new,null,3161.5056680999696,None,3161.5056680999696,None,4,2.1392923993989825,3161.5056680999696,None,2.1392923993989825,3163.67609910015,None,3164.193238600157,None,3164.193238600157,None,f,0.33971429988741875,3164.193238600157,None,0.33971429988741875,,,102Sing,001,2022_Nov_28_1413,ProdSingRedoBetween,2021.2.3,59.97832373857181,
,,,,21,0,21,0,,,,,,,,,,,,,,,,,,,,,,3167.5623298995197,None,,,,,,,,,,,,,,,,,balance,59,22,sing,old,yellow,3165.0580967999995,None,3165.0580967999995,None,1,1.450823999941349,3165.0580967999995,None,1.450823999941349,3166.5286766001955,None,3167.043520499952,None,3167.043520499952,None,n,0.4974253997206688,3167.043520499952,None,0.4974253997206688,,,102Sing,001,2022_Nov_28_1413,ProdSingRedoBetween,2021.2.3,59.97832373857181,
,,,,22,0,22,0,,,,,,,,,,,,,,,,,,,,,,3170.980400899425,None,,,,,,,,,,,,,,,,,interior,149,23,sing,new,null,3168.0796139994636,None,3168.0796139994636,None,1,1.8933562999591231,3168.0796139994636,None,1.8933562999591231,3170.0008803000674,None,3170.5133600002155,None,3170.5133600002155,None,n,0.4516028007492423,3170.5133600002155,None,0.4516028007492423,,,102Sing,001,2022_Nov_28_1413,ProdSingRedoBetween,2021.2.3,59.97832373857181,
,,,,23,0,23,0,,,,,,,,,,,,,,,,,,,,,,3175.484923299402,None,,,,,,,,,,,,,,,,,minute,89,24,sing,old,red,3171.4848582996055,None,3171.4848582996055,None,4,3.0719857001677155,3171.4848582996055,None,3.0719857001677155,3174.586639699526,None,3175.1029564999044,None,3175.1029564999044,None,f,0.36594130005687475,3175.1029564999044,None,0.36594130005687475,,,102Sing,001,2022_Nov_28_1413,ProdSingRedoBetween,2021.2.3,59.97832373857181,
,,,,24,0,24,0,,,,,,,,,,,,,,,,,,,,,,3178.337752999738,None,,,,,,,,,,,,,,,,,beginning,85,25,sing,old,red,3175.9963688999414,None,3175.9963688999414,None,1,1.4964570999145508,3175.9963688999414,None,1.4964570999145508,3177.521128899418,None,3178.025199700147,None,3178.025199700147,None,n,0.2919167000800371,3178.025199700147,None,0.2919167000800371,,,102Sing,001,2022_Nov_28_1413,ProdSingRedoBetween,2021.2.3,59.97832373857181,
,,,,25,0,25,0,,,,,,,,,,,,,,,,,,,,,,3181.607865699567,None,,,,,,,,,,,,,,,,,vision,107,26,sing,new,null,3178.8383404994383,None,3178.8383404994383,None,6,1.6066681006923318,3178.8383404994383,None,1.6066681006923318,3180.479416599497,None,3180.9944668002427,None,3180.9944668002427,None,r,0.5863952999934554,3180.9944668002427,None,0.5863952999934554,,,102Sing,001,2022_Nov_28_1413,ProdSingRedoBetween,2021.2.3,59.97832373857181,
,,,,26,0,26,0,,,,,,,,,,,,,,,,,,,,,,3184.477459100075,None,,,,,,,,,,,,,,,,,period,130,27,sing,new,null,3182.1104052998126,None,3182.1104052998126,None,1,1.398484000004828,3182.1104052998126,None,1.398484000004828,3183.527760299854,None,3184.0271725002676,None,3184.0271725002676,None,n,0.4337404007092118,3184.0271725002676,None,0.4337404007092118,,,102Sing,001,2022_Nov_28_1413,ProdSingRedoBetween,2021.2.3,59.97832373857181,
,,,,27,0,27,0,,,,,,,,,,,,,,,,,,,,,,3187.230205300264,None,,,,,,,,,,,,,,,,,staff,173,28,sing,new,null,3184.9877888998017,None,3184.9877888998017,None,1,1.3610598994418979,3184.9877888998017,None,1.3610598994418979,3186.3806037995964,None,3186.887708399445,None,3186.887708399445,None,n,0.31717830058187246,3186.887708399445,None,0.31717830058187246,,,102Sing,001,2022_Nov_28_1413,ProdSingRedoBetween,2021.2.3,59.97832373857181,
,,,,28,0,28,0,,,,,,,,,,,,,,,,,,,,,,3190.5000609001145,None,,,,,,,,,,,,,,,,,voice,15,29,sing,old,yellow,3187.742914999835,None,3187.742914999835,None,6,1.157917800359428,3187.742914999835,None,1.157917800359428,3188.9328424995765,None,3189.4324837997556,None,3189.4324837997556,None,r,1.0524423997849226,3189.4324837997556,None,1.0524423997849226,,,102Sing,001,2022_Nov_28_1413,ProdSingRedoBetween,2021.2.3,59.97832373857181,
,,,,29,0,29,0,,,,,,,,,,,,,,,,,,,,,,3193.5031977994367,None,,,,,,,,,,,,,,,,,series,171,30,sing,new,null,3191.0115302000195,None,3191.0115302000195,None,1,1.4094543000683188,3191.0115302000195,None,1.4094543000683188,3192.4616425996646,None,3192.969268700108,None,3192.969268700108,None,n,0.5156265003606677,3192.969268700108,None,0.5156265003606677,,,102Sing,001,2022_Nov_28_1413,ProdSingRedoBetween,2021.2.3,59.97832373857181,
,,,,30,0,30,0,,,,,,,,,,,,,,,,,,,,,,3196.4561032997444,None,,,,,,,,,,,,,,,,,plane,145,31,sing,new,null,3194.012432400137,None,3194.012432400137,None,1,1.304432200267911,3194.012432400137,None,1.304432200267911,3195.344370599836,None,3195.8567058993503,None,3195.8567058993503,None,n,0.5721325008198619,3195.8567058993503,None,0.5721325008198619,,,102Sing,001,2022_Nov_28_1413,ProdSingRedoBetween,2021.2.3,59.97832373857181,
,,,,31,0,31,0,,,,,,,,,,,,,,,,,,,,,,3199.475414900109,None,,,,,,,,,,,,,,,,,population,179,32,sing,new,null,3196.9567652000114,None,3196.9567652000114,None,1,1.5442058993503451,3196.9567652000114,None,1.5442058993503451,3198.533452499658,None,3199.042722599581,None,3199.042722599581,None,n,0.402063200250268,3199.042722599581,None,0.402063200250268,,,102Sing,001,2022_Nov_28_1413,ProdSingRedoBetween,2021.2.3,59.97832373857181,
,,,,32,0,32,0,,,,,,,,,,,,,,,,,,,,,,3203.062332599424,None,,,,,,,,,,,,,,,,,range,134,33,sing,new,null,3199.984907099977,None,3199.984907099977,None,6,1.9559463001787663,3199.984907099977,None,1.9559463001787663,3201.9635116998106,None,3202.478532999754,None,3202.478532999754,None,r,0.5662694992497563,3202.478532999754,None,0.5662694992497563,,,102Sing,001,2022_Nov_28_1413,ProdSingRedoBetween,2021.2.3,59.97832373857181,
,,,,33,0,33,0,,,,,,,,,,,,,,,,,,,,,,3205.7987088002264,None,,,,,,,,,,,,,,,,,split,132,34,sing,new,null,3203.566198299639,None,3203.566198299639,None,1,1.2627769000828266,3203.566198299639,None,1.2627769000828266,3204.849650199525,None,3205.3648068001494,None,3205.3648068001494,None,n,0.4081979002803564,3205.3648068001494,None,0.4081979002803564,,,102Sing,001,2022_Nov_28_1413,ProdSingRedoBetween,2021.2.3,59.97832373857181,
,,,,34,0,34,0,,,,,,,,,,,,,,,,,,,,,,3208.317907899618,None,,,,,,,,,,,,,,,,,express,165,35,sing,new,null,3206.299120299518,None,3206.299120299518,None,1,1.169718500226736,3206.299120299518,None,1.169718500226736,3207.485035300255,None,3207.9878279995173,None,3207.9878279995173,None,n,0.3050212999805808,3207.9878279995173,None,0.3050212999805808,,,102Sing,001,2022_Nov_28_1413,ProdSingRedoBetween,2021.2.3,59.97832373857181,
,,,,35,0,35,0,,,,,,,,,,,,,,,,,,,,,,3211.154026599601,None,,,,,,,,,,,,,,,,,religion,96,36,sing,new,null,3208.821053000167,None,3208.821053000167,None,1,1.3837989000603557,3208.821053000167,None,1.3837989000603557,3210.220630099997,None,3210.726441799663,None,3210.726441799663,None,n,0.4063923005014658,3210.726441799663,None,0.4063923005014658,,,102Sing,001,2022_Nov_28_1413,ProdSingRedoBetween,2021.2.3,59.97832373857181,
,,,,36,0,36,0,,,,,,,,,,,,,,,,,,,,,,3214.607503099367,None,,,,,,,,,,,,,,,,,marriage,125,37,sing,new,null,3211.660619799979,None,3211.660619799979,None,4,1.9521451005712152,3211.660619799979,None,1.9521451005712152,3213.641336299479,None,3214.142845599912,None,3214.142845599912,None,f,0.43796390015631914,3214.142845599912,None,0.43796390015631914,,,102Sing,001,2022_Nov_28_1413,ProdSingRedoBetween,2021.2.3,59.97832373857181,
,,,,37,0,37,0,,,,,,,,,,,,,,,,,,,,,,3217.3602826995775,None,,,,,,,,,,,,,,,,,property,121,38,sing,new,null,3215.1121600996703,None,3215.1121600996703,None,1,1.2126547005027533,3215.1121600996703,None,1.2126547005027533,3216.3445990001783,None,3216.8598849996924,None,3216.8598849996924,None,n,0.4729059003293514,3216.8598849996924,None,0.4729059003293514,,,102Sing,001,2022_Nov_28_1413,ProdSingRedoBetween,2021.2.3,59.97832373857181,
,,,,38,0,38,0,,,,,,,,,,,,,,,,,,,,,,3220.5141425002366,None,,,,,,,,,,,,,,,,,private,12,39,sing,old,yellow,3217.873085299507,None,3217.873085299507,None,4,1.8038614997640252,3217.873085299507,None,1.8038614997640252,3219.698984899558,None,3220.218552099541,None,3220.218552099541,None,f,0.2743331007659435,3220.218552099541,None,0.2743331007659435,,,102Sing,001,2022_Nov_28_1413,ProdSingRedoBetween,2021.2.3,59.97832373857181,
,,,,39,0,39,0,,,,,,,,,,,,,,,,,,,,,,3223.433073800057,None,,,,,,,,,,,,,,,,,power,68,40,sing,old,red,3221.0249413996935,None,3221.0249413996935,None,1,1.3558429004624486,3221.0249413996935,None,1.3558429004624486,3222.4008571999148,None,3222.9191672001034,None,3222.9191672001034,None,n,0.49365059938281775,3222.9191672001034,None,0.49365059938281775,,,102Sing,001,2022_Nov_28_1413,ProdSingRedoBetween,2021.2.3,59.97832373857181,
,,,,40,0,40,0,,,,,,,,,,,,,,,,,,,,,,3226.919809900224,None,,,,,,,,,,,,,,,,,travel,78,41,sing,old,red,3223.9444169001654,None,3223.9444169001654,None,4,2.004387999884784,3223.9444169001654,None,2.004387999884784,3225.970949099399,None,3226.486203899607,None,3226.486203899607,None,f,0.4065030999481678,3226.486203899607,None,0.4065030999481678,,,102Sing,001,2022_Nov_28_1413,ProdSingRedoBetween,2021.2.3,59.97832373857181,
,,,,41,0,41,0,,,,,,,,,,,,,,,,,,,,,,3229.939454499632,None,,,,,,,,,,,,,,,,,candidate,40,42,sing,old,blue,3227.4275735998526,None,3227.4275735998526,None,1,1.2493521999567747,3227.4275735998526,None,1.2493521999567747,3228.7156385993585,None,3229.222276300192,None,3229.222276300192,None,n,0.6945661995559931,3229.222276300192,None,0.6945661995559931,,,102Sing,001,2022_Nov_28_1413,ProdSingRedoBetween,2021.2.3,59.97832373857181,
,,,,42,0,42,0,,,,,,,,,,,,,,,,,,,,,,3233.392921200022,None,,,,,,,,,,,,,,,,,close,64,43,sing,old,red,3230.440110700205,None,3230.440110700205,None,4,1.9325962997972965,3230.440110700205,None,1.9325962997972965,3232.39877029974,None,3232.9090289995074,None,3232.9090289995074,None,f,0.4637852003797889,3232.9090289995074,None,0.4637852003797889,,,102Sing,001,2022_Nov_28_1413,ProdSingRedoBetween,2021.2.3,59.97832373857181,
,,,,43,0,43,0,,,,,,,,,,,,,,,,,,,,,,3236.0622589997947,None,,,,,,,,,,,,,,,,,sound,131,44,sing,new,null,3233.905844000168,None,3233.905844000168,None,1,1.475025400519371,3233.905844000168,None,1.475025400519371,3235.41744299978,None,3235.930669499561,None,3235.930669499561,None,n,0.10622999910265207,3235.930669499561,None,0.10622999910265207,,,102Sing,001,2022_Nov_28_1413,ProdSingRedoBetween,2021.2.3,59.97832373857181,
,,,,44,0,44,0,,,,,,,,,,,,,,,,,,,,,,3241.417505899444,None,,,,,,,,,,,,,,,,,beauty,60,45,sing,old,red,3236.5663940999657,None,3236.5663940999657,None,3,3.1344015998765826,3236.5663940999657,None,3.1344015998765826,3239.7187327994034,None,3240.238422099501,None,3240.238422099501,None,f,1.15834220033139,3240.238422099501,None,1.15834220033139,,,102Sing,001,2022_Nov_28_1413,ProdSingRedoBetween,2021.2.3,59.97832373857181,
,,,,45,0,45,0,,,,,,,,,,,,,,,,,,,,,,3244.7539806999266,None,,,,,,,,,,,,,,,,,pressure,137,46,sing,new,null,3241.929299899377,None,3241.929299899377,None,1,1.8194978004321456,3241.929299899377,None,1.8194978004321456,3243.7710306001827,None,3244.2771921996027,None,3244.2771921996027,None,n,0.4476597998291254,3244.2771921996027,None,0.4476597998291254,,,102Sing,001,2022_Nov_28_1413,ProdSingRedoBetween,2021.2.3,59.97832373857181,
,,,,46,0,46,0,,,,,,,,,,,,,,,,,,,,,,3247.9907093998045,None,,,,,,,,,,,,,,,,,appearance,118,47,sing,new,null,3245.2584926998243,None,3245.2584926998243,None,2,1.6743496004492044,3245.2584926998243,None,1.6743496004492044,3246.9662691997364,None,3247.4733759993687,None,3247.4733759993687,None,f,0.49137379974126816,3247.4733759993687,None,0.49137379974126816,,,102Sing,001,2022_Nov_28_1413,ProdSingRedoBetween,2021.2.3,59.97832373857181,
,,,,47,0,47,0,,,,,,,,,,,,,,,,,,,,,,3251.596272099763,None,,,,,,,,,,,,,,,,,motion,124,48,sing,new,null,3248.500821599737,None,3248.500821599737,None,1,1.3200912000611424,3248.500821599737,None,1.3200912000611424,3249.845268299803,None,3250.362008799799,None,3250.362008799799,None,n,1.2029417995363474,3250.362008799799,None,1.2029417995363474,,,102Sing,001,2022_Nov_28_1413,ProdSingRedoBetween,2021.2.3,59.97832373857181,
,,,,48,0,48,0,,,,,,,,,,,,,,,,,,,,,,3254.2828909996897,None,,,,,,,,,,,,,,,,,enemy,98,49,sing,new,null,3252.118221499957,None,3252.118221499957,None,1,1.1265005003660917,3252.118221499957,None,1.1265005003660917,3253.2660879995674,None,3253.7847803002223,None,3253.7847803002223,None,n,0.46792859956622124,3253.7847803002223,None,0.46792859956622124,,,102Sing,001,2022_Nov_28_1413,ProdSingRedoBetween,2021.2.3,59.97832373857181,
,,,,49,0,49,0,,,,,,,,,,,,,,,,,,,,,,3256.999778999947,None,,,,,,,,,,,,,,,,,platform,158,50,sing,new,null,3254.80484220013,None,3254.80484220013,None,1,1.175929100252688,3254.80484220013,None,1.175929100252688,3255.999755899422,None,3256.506010700017,None,3256.506010700017,None,n,0.4748056000098586,3256.506010700017,None,0.4748056000098586,,,102Sing,001,2022_Nov_28_1413,ProdSingRedoBetween,2021.2.3,59.97832373857181,
,,,,50,0,50,0,,,,,,,,,,,,,,,,,,,,,,3260.0052606994286,None,,,,,,,,,,,,,,,,,place,43,51,sing,old,blue,3257.507241299376,None,3257.507241299376,None,3,1.4815544998273253,3257.507241299376,None,1.4815544998273253,3259.023897599429,None,3259.5397793995216,None,3259.5397793995216,None,f,0.4331693993881345,3259.5397793995216,None,0.4331693993881345,,,102Sing,001,2022_Nov_28_1413,ProdSingRedoBetween,2021.2.3,59.97832373857181,
,,,,51,0,51,0,,,,,,,,,,,,,,,,,,,,,,3265.3246842995286,None,,,,,,,,,,,,,,,,,opening,135,52,sing,new,null,3260.533477699384,None,3260.533477699384,None,2,3.055235800333321,3260.533477699384,None,3.055235800333321,3263.608920699917,None,3264.129075500183,None,3264.129075500183,None,n,1.1797440005466342,3264.129075500183,None,1.1797440005466342,,,102Sing,001,2022_Nov_28_1413,ProdSingRedoBetween,2021.2.3,59.97832373857181,
,,,,52,0,52,0,,,,,,,,,,,,,,,,,,,,,,3269.4161454997957,None,,,,,,,,,,,,,,,,,little,87,53,sing,old,red,3265.828126600012,None,3265.828126600012,None,4,2.560606500133872,3265.828126600012,None,2.560606500133872,3268.4120661998168,None,3268.912069399841,None,3268.912069399841,None,f,0.4687387999147177,3268.912069399841,None,0.4687387999147177,,,102Sing,001,2022_Nov_28_1413,ProdSingRedoBetween,2021.2.3,59.97832373857181,
,,,,53,0,53,0,,,,,,,,,,,,,,,,,,,,,,3272.2481678994372,None,,,,,,,,,,,,,,,,,provision,84,54,sing,old,red,3269.9354536999017,None,3269.9354536999017,None,1,1.2532839998602867,3269.9354536999017,None,1.2532839998602867,3271.2186318999156,None,3271.7311073001474,None,3271.7311073001474,None,n,0.4895721999928355,3271.7311073001474,None,0.4895721999928355,,,102Sing,001,2022_Nov_28_1413,ProdSingRedoBetween,2021.2.3,59.97832373857181,
,,,,54,0,54,0,,,,,,,,,,,,,,,,,,,,,,3274.8505803002045,None,,,,,,,,,,,,,,,,,background,117,55,sing,new,null,3272.7547499993816,None,3272.7547499993816,None,1,1.1859988002106547,3272.7547499993816,None,1.1859988002106547,3273.968865999952,None,3274.483861300163,None,3274.483861300163,None,n,0.3450092002749443,3274.483861300163,None,0.3450092002749443,,,102Sing,001,2022_Nov_28_1413,ProdSingRedoBetween,2021.2.3,59.97832373857181,
,,,,55,0,55,0,,,,,,,,,,,,,,,,,,,,,,3278.554184500128,None,,,,,,,,,,,,,,,,,education,153,56,sing,new,null,3275.3758143000305,None,3275.3758143000305,None,3,2.236885099671781,3275.3758143000305,None,2.236885099671781,3277.6384841995314,None,3278.1399622000754,None,3278.1399622000754,None,f,0.39282430056482553,3278.1399622000754,None,0.39282430056482553,,,102Sing,001,2022_Nov_28_1413,ProdSingRedoBetween,2021.2.3,59.97832373857181,
,,,,56,0,56,0,,,,,,,,,,,,,,,,,,,,,,3281.4074555002153,None,,,,,,,,,,,,,,,,,thick,101,57,sing,new,null,3279.064080399461,None,3279.064080399461,None,1,1.2927274005487561,3279.064080399461,None,1.2927274005487561,3280.379547299817,None,3280.896643099375,None,3280.896643099375,None,n,0.4921333994716406,3280.896643099375,None,0.4921333994716406,,,102Sing,001,2022_Nov_28_1413,ProdSingRedoBetween,2021.2.3,59.97832373857181,
,,,,57,0,57,0,,,,,,,,,,,,,,,,,,,,,,3285.8482312997803,None,,,,,,,,,,,,,,,,,finish,58,58,sing,old,blue,3281.9233238995075,None,3281.9233238995075,None,6,1.5374082997441292,3281.9233238995075,None,1.5374082997441292,3283.4795278999954,None,3283.9951976994053,None,3283.9951976994053,None,r,1.8255593003705144,3283.9951976994053,None,1.8255593003705144,,,102Sing,001,2022_Nov_28_1413,ProdSingRedoBetween,2021.2.3,59.97832373857181,
,,,,58,0,58,0,,,,,,,,,,,,,,,,,,,,,,3288.8648467995226,None,,,,,,,,,,,,,,,,,service,136,59,sing,new,null,3286.368304300122,None,3286.368304300122,None,4,1.5963700003921986,3286.368304300122,None,1.5963700003921986,3287.98769779969,None,3288.49757209979,None,3288.49757209979,None,f,0.34714379999786615,3288.49757209979,None,0.34714379999786615,,,102Sing,001,2022_Nov_28_1413,ProdSingRedoBetween,2021.2.3,59.97832373857181,
,,,,59,0,59,0,,,,,,,,,,,,,,,,,,,,,,3291.4171569999307,None,,,,,,,,,,,,,,,,,principal,126,60,sing,new,null,3289.3695348994806,None,3289.3695348994806,None,1,1.1472225999459624,3289.3695348994806,None,1.1472225999459624,3290.5369735993445,None,3291.052547399886,None,3291.052547399886,None,n,0.3442424004897475,3291.052547399886,None,0.3442424004897475,,,102Sing,001,2022_Nov_28_1413,ProdSingRedoBetween,2021.2.3,59.97832373857181,
,,,,60,0,60,0,,,,,,,,,,,,,,,,,,,,,,3294.1034742994234,None,,,,,,,,,,,,,,,,,treatment,62,61,sing,old,red,3291.923338899389,None,3291.923338899389,None,4,1.3453136002644897,3291.923338899389,None,1.3453136002644897,3293.287883900106,None,3293.8059791997075,None,3293.8059791997075,None,f,0.27881089970469475,3293.8059791997075,None,0.27881089970469475,,,102Sing,001,2022_Nov_28_1413,ProdSingRedoBetween,2021.2.3,59.97832373857181,
,,,,61,0,61,0,,,,,,,,,,,,,,,,,,,,,,3297.341933899559,None,,,,,,,,,,,,,,,,,measure,55,62,sing,old,blue,3294.606729599647,None,3294.606729599647,None,6,1.3099941993132234,3294.606729599647,None,1.3099941993132234,3295.9414427997544,None,3296.4611225994304,None,3296.4611225994304,None,r,0.8636028002947569,3296.4611225994304,None,0.8636028002947569,,,102Sing,001,2022_Nov_28_1413,ProdSingRedoBetween,2021.2.3,59.97832373857181,
,,,,62,0,62,0,,,,,,,,,,,,,,,,,,,,,,3300.075839799829,None,,,,,,,,,,,,,,,,,skill,166,63,sing,new,null,3297.856979300268,None,3297.856979300268,None,1,1.4357480006292462,3297.856979300268,None,1.4357480006292462,3299.313750700094,None,3299.8296620994806,None,3299.8296620994806,None,n,0.2230530995875597,3299.8296620994806,None,0.2230530995875597,,,102Sing,001,2022_Nov_28_1413,ProdSingRedoBetween,2021.2.3,59.97832373857181,
,,,,63,0,63,0,,,,,,,,,,,,,,,,,,,,,,3302.878876899369,None,,,,,,,,,,,,,,,,,government,2,64,sing,old,yellow,3300.579446999356,None,3300.579446999356,None,6,1.2172942999750376,3300.579446999356,None,1.2172942999750376,3301.829513600096,None,3302.3464684998617,None,3302.3464684998617,None,r,0.5141255995258689,3302.3464684998617,None,0.5141255995258689,,,102Sing,001,2022_Nov_28_1413,ProdSingRedoBetween,2021.2.3,59.97832373857181,
,,,,64,0,64,0,,,,,,,,,,,,,,,,,,,,,,3305.1343462001532,None,,,,,,,,,,,,,,,,,death,160,65,sing,new,null,3303.380882299505,None,3303.380882299505,None,1,1.11971400026232,3303.380882299505,None,1.11971400026232,3304.5343092996627,None,3305.0477857999504,None,3305.0477857999504,None,n,0.053029400296509266,3305.0477857999504,None,0.053029400296509266,,,102Sing,001,2022_Nov_28_1413,ProdSingRedoBetween,2021.2.3,59.97832373857181,
,,,,65,0,65,0,,,,,,,,,,,,,,,,,,,,,,3307.7670666994527,None,,,,,,,,,,,,,,,,,escape,74,66,sing,old,red,3305.6600076993927,None,3305.6600076993927,None,1,1.448670900426805,3305.6600076993927,None,1.448670900426805,3307.1372440000996,None,3307.6504279002547,None,3307.6504279002547,None,n,0.09824549965560436,3307.6504279002547,None,0.09824549965560436,,,102Sing,001,2022_Nov_28_1413,ProdSingRedoBetween,2021.2.3,59.97832373857181,
,,,,66,0,66,0,,,,,,,,,,,,,,,,,,,,,,3311.9209402995184,None,,,,,,,,,,,,,,,,,symbol,19,67,sing,old,yellow,3308.283321899362,None,3308.283321899362,None,1,1.1213547000661492,3308.283321899362,None,1.1213547000661492,3309.440708699636,None,3309.9586894996464,None,3309.9586894996464,None,n,1.9339918000623584,3309.9586894996464,None,1.9339918000623584,,,102Sing,001,2022_Nov_28_1413,ProdSingRedoBetween,2021.2.3,59.97832373857181,
,,,,67,0,67,0,,,,,,,,,,,,,,,,,,,,,,3314.5402953997254,None,,,,,,,,,,,,,,,,,damage,77,68,sing,old,red,3312.4287903998047,None,3312.4287903998047,None,4,1.5278586000204086,3312.4287903998047,None,1.5278586000204086,3313.9731377996504,None,3314.475254699588,None,3314.475254699588,None,f,0.04142860043793917,3314.475254699588,None,0.04142860043793917,,,102Sing,001,2022_Nov_28_1413,ProdSingRedoBetween,2021.2.3,59.97832373857181,
,,,,68,0,68,0,,,,,,,,,,,,,,,,,,,,,,3316.8442366002128,None,,,,,,,,,,,,,,,,,throw,144,69,sing,new,null,3315.0568194994703,None,3315.0568194994703,None,1,1.2357450993731618,3315.0568194994703,None,1.2357450993731618,3316.310906100087,None,3316.826255899854,None,3316.826255899854,None,n,0.00248080026358366,3316.826255899854,None,0.00248080026358366,,,102Sing,001,2022_Nov_28_1413,ProdSingRedoBetween,2021.2.3,59.97832373857181,
,,,,69,0,69,0,,,,,,,,,,,,,,,,,,,,,,3320.846795699559,None,,,,,,,,,,,,,,,,,force,27,70,sing,old,yellow,3317.352704499848,None,3317.352704499848,None,2,2.091874700039625,3317.352704499848,None,2.091874700039625,3319.46338630002,None,3319.9704619999975,None,3319.9704619999975,None,n,0.8581449994817376,3319.9704619999975,None,0.8581449994817376,,,102Sing,001,2022_Nov_28_1413,ProdSingRedoBetween,2021.2.3,59.97832373857181,
,,,,70,0,70,0,,,,,,,,,,,,,,,,,,,,,,3323.765941100195,None,,,,,,,,,,,,,,,,,suspect,128,71,sing,new,null,3321.3551674997434,None,3321.3551674997434,None,1,1.8094093995168805,3321.3551674997434,None,1.8094093995168805,3323.1823351001367,None,3323.6878942996264,None,3323.6878942996264,None,n,0.05300569999963045,3323.6878942996264,None,0.05300569999963045,,,102Sing,001,2022_Nov_28_1413,ProdSingRedoBetween,2021.2.3,59.97832373857181,
,,,,71,0,71,0,,,,,,,,,,,,,,,,,,,,,,3327.553412299603,None,,,,,,,,,,,,,,,,,impact,42,72,sing,old,blue,3324.270805099979,None,3324.270805099979,None,5,2.6858459003269672,3324.270805099979,None,2.6858459003269672,3326.989259599708,None,3327.5034839995205,None,3327.5034839995205,None,f,0.021191800013184547,3327.5034839995205,None,0.021191800013184547,,,102Sing,001,2022_Nov_28_1413,ProdSingRedoBetween,2021.2.3,59.97832373857181,
,,,,72,0,72,0,,,,,,,,,,,,,,,,,,,,,,3331.9408786995336,None,,,,,,,,,,,,,,,,,surface,18,73,sing,old,yellow,3328.063666299917,None,3328.063666299917,None,5,3.260884399525821,3328.063666299917,None,3.260884399525821,3331.340607999824,None,3331.8411598000675,None,3331.8411598000675,None,f,0.07557159941643476,3331.8411598000675,None,0.07557159941643476,,,102Sing,001,2022_Nov_28_1413,ProdSingRedoBetween,2021.2.3,59.97832373857181,
,,,,73,0,73,0,,,,,,,,,,,,,,,,,,,,,,3334.4270142996684,None,,,,,,,,,,,,,,,,,native,169,74,sing,new,null,3332.4426076998934,None,3332.4426076998934,None,1,1.2499634996056557,3332.4426076998934,None,1.2499634996056557,3333.712064200081,None,3334.231177199632,None,3334.231177199632,None,n,0.16558680031448603,3334.231177199632,None,0.16558680031448603,,,102Sing,001,2022_Nov_28_1413,ProdSingRedoBetween,2021.2.3,59.97832373857181,
,,,,74,0,74,0,,,,,,,,,,,,,,,,,,,,,,3337.1965838996693,None,,,,,,,,,,,,,,,,,alert,35,75,sing,old,blue,3334.927559499629,None,3334.927559499629,None,6,1.213076900690794,3334.927559499629,None,1.213076900690794,3336.1639305995777,None,3336.6814898997545,None,3336.6814898997545,None,r,0.4992680000141263,3336.6814898997545,None,0.4992680000141263,,,102Sing,001,2022_Nov_28_1413,ProdSingRedoBetween,2021.2.3,59.97832373857181,
,,,,75,0,75,0,,,,,,,,,,,,,,,,,,,,,,3340.099360799417,None,,,,,,,,,,,,,,,,,detective,20,76,sing,old,yellow,3337.7047351002693,None,3337.7047351002693,None,4,1.7798985000699759,3337.7047351002693,None,1.7798985000699759,3339.517050399445,None,3340.033947799355,None,3340.033947799355,None,f,0.05070750042796135,3340.033947799355,None,0.05070750042796135,,,102Sing,001,2022_Nov_28_1413,ProdSingRedoBetween,2021.2.3,59.97832373857181,
,,,,76,0,76,0,,,,,,,,,,,,,,,,,,,,,,3342.3682613000274,None,,,,,,,,,,,,,,,,,length,167,77,sing,new,null,3340.6007150001824,None,3340.6007150001824,None,1,1.132019699551165,3340.6007150001824,None,1.132019699551165,3341.7568140001968,None,3342.2694533998147,None,3342.2694533998147,None,n,0.07918509934097528,3342.2694533998147,None,0.07918509934097528,,,102Sing,001,2022_Nov_28_1413,ProdSingRedoBetween,2021.2.3,59.97832373857181,
,,,,77,0,77,0,,,,,,,,,,,,,,,,,,,,,,3346.1386265996844,None,,,,,,,,,,,,,,,,,conference,71,78,sing,old,red,3342.8804289996624,None,3342.8804289996624,None,5,1.716177400201559,3342.8804289996624,None,1.716177400201559,3344.6204757997766,None,3345.1239805994555,None,3345.1239805994555,None,f,0.9926479998975992,3345.1239805994555,None,0.9926479998975992,,,102Sing,001,2022_Nov_28_1413,ProdSingRedoBetween,2021.2.3,59.97832373857181,
,,,,78,0,78,0,,,,,,,,,,,,,,,,,,,,,,3349.5086204996333,None,,,,,,,,,,,,,,,,,tragedy,17,79,sing,old,yellow,3346.6504488000646,None,3346.6504488000646,None,6,1.3782550003379583,3346.6504488000646,None,1.3782550003379583,3348.061568499543,None,3348.577813900076,None,3348.577813900076,None,r,0.906810199841857,3348.577813900076,None,0.906810199841857,,,102Sing,001,2022_Nov_28_1413,ProdSingRedoBetween,2021.2.3,59.97832373857181,
,,,,79,0,79,0,,,,,,,,,,,,,,,,,,,,,,3351.9607346998528,None,,,,,,,,,,,,,,,,,passage,75,80,sing,old,red,3350.0101370997727,None,3350.0101370997727,None,6,1.330634399317205,3350.0101370997727,None,1.330634399317205,3351.3683580001816,None,3351.8832457996905,None,3351.8832457996905,None,r,0.057553499937057495,3351.8832457996905,None,0.057553499937057495,,,102Sing,001,2022_Nov_28_1413,ProdSingRedoBetween,2021.2.3,59.97832373857181,
,,,,80,0,80,0,,,,,,,,,,,,,,,,,,,,,,3355.6148640001193,None,,,,,,,,,,,,,,,,,debate,37,81,sing,old,blue,3352.461506700143,None,3352.461506700143,None,2,1.8551097000017762,3352.461506700143,None,1.8551097000017762,3354.3489012001082,None,3354.869223999791,None,3354.869223999791,None,n,0.7272781999781728,3354.869223999791,None,0.7272781999781728,,,102Sing,001,2022_Nov_28_1413,ProdSingRedoBetween,2021.2.3,59.97832373857181,
,,,,81,0,81,0,,,,,,,,,,,,,,,,,,,,,,3358.5027618994936,None,,,,,,,,,,,,,,,,,music,141,82,sing,new,null,3356.119663800113,None,3356.119663800113,None,1,1.6849472001194954,3356.119663800113,None,1.6849472001194954,3357.8337440993637,None,3358.334252299741,None,3358.334252299741,None,n,0.15054600033909082,3358.334252299741,None,0.15054600033909082,,,102Sing,001,2022_Nov_28_1413,ProdSingRedoBetween,2021.2.3,59.97832373857181,
,,,,82,0,82,0,,,,,,,,,,,,,,,,,,,,,,3362.621544299647,None,,,,,,,,,,,,,,,,,testimony,148,83,sing,new,null,3359.0179989002645,None,3359.0179989002645,None,3,2.922678300179541,3359.0179989002645,None,2.922678300179541,3361.9719564002007,None,3362.4794014999643,None,3362.4794014999643,None,f,0.11722670029848814,3362.4794014999643,None,0.11722670029848814,,,102Sing,001,2022_Nov_28_1413,ProdSingRedoBetween,2021.2.3,59.97832373857181,
,,,,83,0,83,0,,,,,,,,,,,,,,,,,,,,,,3365.4078260995448,None,,,,,,,,,,,,,,,,,novel,33,84,sing,old,blue,3363.137343700044,None,3363.137343700044,None,6,1.443283500149846,3363.137343700044,None,1.443283500149846,3364.60824439954,None,3365.1128815999255,None,3365.1128815999255,None,r,0.2757501006126404,3365.1128815999255,None,0.2757501006126404,,,102Sing,001,2022_Nov_28_1413,ProdSingRedoBetween,2021.2.3,59.97832373857181,
,,,,84,0,84,0,,,,,,,,,,,,,,,,,,,,,,3370.630369000137,None,,,,,,,,,,,,,,,,,primary,61,85,sing,old,red,3365.9081795001402,None,3365.9081795001402,None,3,2.8244281001389027,3365.9081795001402,None,2.8244281001389027,3368.7612156998366,None,3369.263899100013,None,3369.263899100013,None,n,1.340722099877894,3369.263899100013,None,1.340722099877894,,,102Sing,001,2022_Nov_28_1413,ProdSingRedoBetween,2021.2.3,59.97832373857181,
,,,,85,0,85,0,,,,,,,,,,,,,,,,,,,,,,3373.4998568994924,None,,,,,,,,,,,,,,,,,charter,162,86,sing,new,null,3371.134285699576,None,3371.134285699576,None,1,1.6382760992273688,3371.134285699576,None,1.6382760992273688,3372.7995597999543,None,3373.3015051996335,None,3373.3015051996335,None,n,0.1750678000971675,3373.3015051996335,None,0.1750678000971675,,,102Sing,001,2022_Nov_28_1413,ProdSingRedoBetween,2021.2.3,59.97832373857181,
,,,,86,0,86,0,,,,,,,,,,,,,,,,,,,,,,3376.035198399797,None,,,,,,,,,,,,,,,,,incident,16,87,sing,old,yellow,3374.0009615998715,None,3374.0009615998715,None,1,1.4515187004581094,3374.0009615998715,None,1.4515187004581094,3375.4677225993946,None,3375.968416799791,None,3375.968416799791,None,n,0.03605580050498247,3375.968416799791,None,0.03605580050498247,,,102Sing,001,2022_Nov_28_1413,ProdSingRedoBetween,2021.2.3,59.97832373857181,
,,,,87,0,87,0,,,,,,,,,,,,,,,,,,,,,,3379.2219134997576,None,,,,,,,,,,,,,,,,,burden,106,88,sing,new,null,3376.5415722001344,None,3376.5415722001344,None,1,1.134943399578333,3376.5415722001344,None,1.134943399578333,3377.7050193995237,None,3378.2041509002447,None,3378.2041509002447,None,n,1.000408599153161,3378.2041509002447,None,1.000408599153161,,,102Sing,001,2022_Nov_28_1413,ProdSingRedoBetween,2021.2.3,59.97832373857181,
,,,,88,0,88,0,,,,,,,,,,,,,,,,,,,,,,3381.8743385002017,None,,,,,,,,,,,,,,,,,weight,3,89,sing,old,yellow,3379.725285000168,None,3379.725285000168,None,6,1.199320999905467,3379.725285000168,None,1.199320999905467,3380.9448400996625,None,3381.4572956999764,None,3381.4572956999764,None,r,0.3872525002807379,3381.4572956999764,None,0.3872525002807379,,,102Sing,001,2022_Nov_28_1413,ProdSingRedoBetween,2021.2.3,59.97832373857181,
,,,,89,0,89,0,,,,,,,,,,,,,,,,,,,,,,3384.38208679948,None,,,,,,,,,,,,,,,,,signal,23,90,sing,old,yellow,3382.3781610997394,None,3382.3781610997394,None,6,1.170355699956417,3382.3781610997394,None,1.170355699956417,3383.576724300161,None,3384.07656509988,None,3384.07656509988,None,r,0.27237469982355833,3384.07656509988,None,0.27237469982355833,,,102Sing,001,2022_Nov_28_1413,ProdSingRedoBetween,2021.2.3,59.97832373857181,
,,,,90,0,90,0,,,,,,,,,,,,,,,,,,,,,,3386.731782499701,None,,,,,,,,,,,,,,,,,trend,119,91,sing,new,null,3384.8940554000437,None,3384.8940554000437,None,1,1.1504322001710534,3384.8940554000437,None,1.1504322001710534,3386.0617215000093,None,3386.568468899466,None,3386.568468899466,None,n,0.13218139950186014,3386.568468899466,None,0.13218139950186014,,,102Sing,001,2022_Nov_28_1413,ProdSingRedoBetween,2021.2.3,59.97832373857181,
,,,,91,0,91,0,,,,,,,,,,,,,,,,,,,,,,3388.9979897998273,None,,,,,,,,,,,,,,,,,husband,113,92,sing,new,null,3387.2496564993635,None,3387.2496564993635,None,1,0.9868069998919964,3387.2496564993635,None,0.9868069998919964,3388.264735499397,None,3388.764888400212,None,3388.764888400212,None,n,0.20764230005443096,3388.764888400212,None,0.20764230005443096,,,102Sing,001,2022_Nov_28_1413,ProdSingRedoBetween,2021.2.3,59.97832373857181,
,,,,92,0,92,0,,,,,,,,,,,,,,,,,,,,,,3391.4837815994397,None,,,,,,,,,,,,,,,,,number,104,93,sing,new,null,3389.508779699914,None,3389.508779699914,None,1,1.2236997997388244,3389.508779699914,None,1.2236997997388244,3390.7518331995234,None,3391.2672219993547,None,3391.2672219993547,None,n,0.19338060077279806,3391.2672219993547,None,0.19338060077279806,,,102Sing,001,2022_Nov_28_1413,ProdSingRedoBetween,2021.2.3,59.97832373857181,
,,,,93,0,93,0,,,,,,,,,,,,,,,,,,,,,,3394.8703184993938,None,,,,,,,,,,,,,,,,,pattern,25,94,sing,old,yellow,3391.9871276998892,None,3391.9871276998892,None,2,1.7133785001933575,3391.9871276998892,None,1.7133785001933575,3393.7198912994936,None,3394.2201098995283,None,3394.2201098995283,None,n,0.6323474999517202,3394.2201098995283,None,0.6323474999517202,,,102Sing,001,2022_Nov_28_1413,ProdSingRedoBetween,2021.2.3,59.97832373857181,
,,,,94,0,94,0,,,,,,,,,,,,,,,,,,,,,,3400.9602365000173,None,,,,,,,,,,,,,,,,,session,66,95,sing,old,red,3395.3716246997938,None,3395.3716246997938,None,3,4.784884099848568,3395.3716246997938,None,4.784884099848568,3400.176964700222,None,3400.6803081994876,None,3400.6803081994876,None,f,0.26024459954351187,3400.6803081994876,None,0.26024459954351187,,,102Sing,001,2022_Nov_28_1413,ProdSingRedoBetween,2021.2.3,59.97832373857181,
,,,,95,0,95,0,,,,,,,,,,,,,,,,,,,,,,3404.413401999511,None,,,,,,,,,,,,,,,,,spoke,29,96,sing,old,blue,3401.4819677993655,None,3401.4819677993655,None,1,1.1547472001984715,3401.4819677993655,None,1.1547472001984715,3402.665405499749,None,3403.1836377000436,None,3403.1836377000436,None,n,1.2128512999042869,3403.1836377000436,None,1.2128512999042869,,,102Sing,001,2022_Nov_28_1413,ProdSingRedoBetween,2021.2.3,59.97832373857181,
,,,,96,0,96,0,,,,,,,,,,,,,,,,,,,,,,3406.782422799617,None,,,,,,,,,,,,,,,,,couch,56,97,sing,old,blue,3404.923929300159,None,3404.923929300159,None,1,1.1686455002054572,3404.923929300159,None,1.1686455002054572,3406.122896200046,None,3406.633893299848,None,3406.633893299848,None,n,0.12297600042074919,3406.633893299848,None,0.12297600042074919,,,102Sing,001,2022_Nov_28_1413,ProdSingRedoBetween,2021.2.3,59.97832373857181,
,,,,97,0,97,0,,,,,,,,,,,,,,,,,,,,,,3409.7735634995624,None,,,,,,,,,,,,,,,,,entrance,129,98,sing,new,null,3407.29490670003,None,3407.29490670003,None,3,1.7977165002375841,3407.29490670003,None,1.7977165002375841,3409.123222099617,None,3409.6368429996073,None,3409.6368429996073,None,n,0.1118954997509718,3409.6368429996073,None,0.1118954997509718,,,102Sing,001,2022_Nov_28_1413,ProdSingRedoBetween,2021.2.3,59.97832373857181,
,,,,98,0,98,0,,,,,,,,,,,,,,,,,,,,,,3412.904954600148,None,,,,,,,,,,,,,,,,,evidence,150,99,sing,new,null,3410.286919299513,None,3410.286919299513,None,4,1.9415237000212073,3410.286919299513,None,1.9415237000212073,3412.263305200264,None,3412.7716020997614,None,3412.7716020997614,None,f,0.10481719952076674,3412.7716020997614,None,0.10481719952076674,,,102Sing,001,2022_Nov_28_1413,ProdSingRedoBetween,2021.2.3,59.97832373857181,
,,,,99,0,99,0,,,,,,,,,,,,,,,,,,,,,,3415.5077486000955,None,,,,,,,,,,,,,,,,,region,155,100,sing,new,null,3413.410686499439,None,3413.410686499439,None,1,1.4178216997534037,3413.410686499439,None,1.4178216997534037,3414.859596199356,None,3415.37889679987,None,3415.37889679987,None,n,0.09770589973777533,3415.37889679987,None,0.09770589973777533,,,102Sing,001,2022_Nov_28_1413,ProdSingRedoBetween,2021.2.3,59.97832373857181,
,,,,100,0,100,0,,,,,,,,,,,,,,,,,,,,,,3417.860183400102,None,,,,,,,,,,,,,,,,,shock,65,101,sing,old,red,3416.019674499519,None,3416.019674499519,None,1,1.1048098001629114,3416.019674499519,None,1.1048098001629114,3417.1474029999226,None,3417.6601200001314,None,3417.6601200001314,None,n,0.1765751000493765,3417.6601200001314,None,0.1765751000493765,,,102Sing,001,2022_Nov_28_1413,ProdSingRedoBetween,2021.2.3,59.97832373857181,
,,,,101,0,101,0,,,,,,,,,,,,,,,,,,,,,,3420.164337899536,None,,,,,,,,,,,,,,,,,cousin,163,102,sing,new,null,3418.3653836995363,None,3418.3653836995363,None,1,1.1830501006916165,3418.3653836995363,None,1.1830501006916165,3419.5784280998632,None,3420.0813079997897,None,3420.0813079997897,None,n,0.059403800405561924,3420.0813079997897,None,0.059403800405561924,,,102Sing,001,2022_Nov_28_1413,ProdSingRedoBetween,2021.2.3,59.97832373857181,
,,,,102,0,102,0,,,,,,,,,,,,,,,,,,,,,,3424.3165742000565,None,,,,,,,,,,,,,,,,,tough,50,103,sing,old,blue,3420.685455299914,None,3420.685455299914,None,6,2.9911564998328686,3420.685455299914,None,2.9911564998328686,3423.7047322997823,None,3424.2189926002175,None,3424.2189926002175,None,r,0.07354019954800606,3424.2189926002175,None,0.07354019954800606,,,102Sing,001,2022_Nov_28_1413,ProdSingRedoBetween,2021.2.3,59.97832373857181,
,,,,103,0,103,0,,,,,,,,,,,,,,,,,,,,,,3427.2540144994855,None,,,,,,,,,,,,,,,,,column,177,104,sing,new,null,3424.8198994994164,None,3424.8198994994164,None,1,1.7205339996144176,3424.8198994994164,None,1.7205339996144176,3426.5686777001247,None,3427.0692631993443,None,3427.0692631993443,None,n,0.15925330016762018,3427.0692631993443,None,0.15925330016762018,,,102Sing,001,2022_Nov_28_1413,ProdSingRedoBetween,2021.2.3,59.97832373857181,
,,,,104,0,104,0,,,,,,,,,,,,,,,,,,,,,,3429.6219696998596,None,,,,,,,,,,,,,,,,,capital,86,105,sing,old,red,3427.757733799517,None,3427.757733799517,None,1,1.1508686998859048,3427.757733799517,None,1.1508686998859048,3428.9432395994663,None,3429.45499979984,None,3429.45499979984,None,n,0.14948569983243942,3429.45499979984,None,0.14948569983243942,,,102Sing,001,2022_Nov_28_1413,ProdSingRedoBetween,2021.2.3,59.97832373857181,
,,,,105,0,105,0,,,,,,,,,,,,,,,,,,,,,,3431.757612399757,None,,,,,,,,,,,,,,,,,people,4,106,sing,old,yellow,3430.130457099527,None,3430.130457099527,None,1,1.018193700350821,3430.130457099527,None,1.018193700350821,3431.1765553001314,None,3431.6907152999192,None,3431.6907152999192,None,n,0.04180070012807846,3431.6907152999192,None,0.04180070012807846,,,102Sing,001,2022_Nov_28_1413,ProdSingRedoBetween,2021.2.3,59.97832373857181,
,,,,106,0,106,0,,,,,,,,,,,,,,,,,,,,,,3434.0429787002504,None,,,,,,,,,,,,,,,,,bitter,151,107,sing,new,null,3432.27274759952,None,3432.27274759952,None,1,1.08366210013628,3432.27274759952,None,1.08366210013628,3433.3765968000516,None,3433.8793586995453,None,3433.8793586995453,None,n,0.14103030040860176,3433.8793586995453,None,0.14103030040860176,,,102Sing,001,2022_Nov_28_1413,ProdSingRedoBetween,2021.2.3,59.97832373857181,
,,,,107,0,107,0,,,,,,,,,,,,,,,,,,,,,,3437.099507799372,None,,,,,,,,,,,,,,,,,career,170,108,sing,new,null,3434.5438209995627,None,3434.5438209995627,None,1,1.8127835001796484,3434.5438209995627,None,1.8127835001796484,3436.3831444000825,None,3436.898088599555,None,3436.898088599555,None,n,0.1705197999253869,3436.898088599555,None,0.1705197999253869,,,102Sing,001,2022_Nov_28_1413,ProdSingRedoBetween,2021.2.3,59.97832373857181,
,,,,108,0,108,0,,,,,,,,,,,,,,,,,,,,,,3439.702663999982,None,,,,,,,,,,,,,,,,,income,82,109,sing,old,red,3437.62230649963,None,3437.62230649963,None,1,1.246311199851334,3437.62230649963,None,1.246311199851334,3438.908010199666,None,3439.417378399521,None,3439.417378399521,None,n,0.2592331999912858,3439.417378399521,None,0.2592331999912858,,,102Sing,001,2022_Nov_28_1413,ProdSingRedoBetween,2021.2.3,59.97832373857181,
,,,,109,0,109,0,,,,,,,,,,,,,,,,,,,,,,3442.224759100005,None,,,,,,,,,,,,,,,,,speech,57,110,sing,old,blue,3440.2210102993995,None,3440.2210102993995,None,6,1.4234363995492458,3440.2210102993995,None,1.4234363995492458,3441.6685082996264,None,3442.1766852997243,None,3442.1766852997243,None,r,0.019659499637782574,3442.1766852997243,None,0.019659499637782574,,,102Sing,001,2022_Nov_28_1413,ProdSingRedoBetween,2021.2.3,59.97832373857181,
,,,,110,0,110,0,,,,,,,,,,,,,,,,,,,,,,3445.6879444997758,None,,,,,,,,,,,,,,,,,judge,175,111,sing,new,null,3442.736103599891,None,3442.736103599891,None,1,2.1803604997694492,3442.736103599891,None,2.1803604997694492,3444.9373370995745,None,3445.437758599408,None,3445.437758599408,None,n,0.2306682001799345,3445.437758599408,None,0.2306682001799345,,,102Sing,001,2022_Nov_28_1413,ProdSingRedoBetween,2021.2.3,59.97832373857181,
,,,,111,0,111,0,,,,,,,,,,,,,,,,,,,,,,3452.6449219994247,None,,,,,,,,,,,,,,,,,department,7,112,sing,old,yellow,3446.1886018002406,None,3446.1886018002406,None,6,5.695841699838638,3446.1886018002406,None,5.695841699838638,3451.9168298998848,None,3452.432386899367,None,3452.432386899367,None,r,0.19604200031608343,3452.432386899367,None,0.19604200031608343,,,102Sing,001,2022_Nov_28_1413,ProdSingRedoBetween,2021.2.3,59.97832373857181,
,,,,112,0,112,0,,,,,,,,,,,,,,,,,,,,,,3455.0409776000306,None,,,,,,,,,,,,,,,,,thing,123,113,sing,new,null,3453.1530929999426,None,3453.1530929999426,None,1,1.267421499826014,3453.1530929999426,None,1.267421499826014,3454.4494234994054,None,3454.9711456000805,None,3454.9711456000805,None,n,0.033305500634014606,3454.9711456000805,None,0.033305500634014606,,,102Sing,001,2022_Nov_28_1413,ProdSingRedoBetween,2021.2.3,59.97832373857181,
,,,,113,0,113,0,,,,,,,,,,,,,,,,,,,,,,3458.400318400003,None,,,,,,,,,,,,,,,,,research,140,114,sing,new,null,3455.551270599477,None,3455.551270599477,None,2,2.069083299487829,3455.551270599477,None,2.069083299487829,3457.6513096997514,None,3458.16704009939,None,3458.16704009939,None,n,0.20534889958798885,3458.16704009939,None,0.20534889958798885,,,102Sing,001,2022_Nov_28_1413,ProdSingRedoBetween,2021.2.3,59.97832373857181,
,,,,114,0,114,0,,,,,,,,,,,,,,,,,,,,,,3461.019959299825,None,,,,,,,,,,,,,,,,,danger,54,115,sing,old,blue,3458.9091047002003,None,3458.9091047002003,None,6,1.535299800336361,3458.9091047002003,None,1.535299800336361,3460.470313699916,None,3460.972137999721,None,3460.972137999721,None,r,0.01653899997472763,3460.972137999721,None,0.01653899997472763,,,102Sing,001,2022_Nov_28_1413,ProdSingRedoBetween,2021.2.3,59.97832373857181,
,,,,115,0,115,0,,,,,,,,,,,,,,,,,,,,,,3463.5388997001573,None,,,,,,,,,,,,,,,,,smell,100,116,sing,new,null,3461.533946399577,None,3461.533946399577,None,1,1.198471000418067,3461.533946399577,None,1.198471000418067,3462.756856800057,None,3463.273566399701,None,3463.273566399701,None,n,0.24298979993909597,3463.273566399701,None,0.24298979993909597,,,102Sing,001,2022_Nov_28_1413,ProdSingRedoBetween,2021.2.3,59.97832373857181,
,,,,116,0,116,0,,,,,,,,,,,,,,,,,,,,,,3466.243687399663,None,,,,,,,,,,,,,,,,,south,38,117,sing,old,blue,3464.0415926994756,None,3464.0415926994756,None,6,1.3308397997170687,3464.0415926994756,None,1.3308397997170687,3465.3945165993646,None,3465.9082851996645,None,3465.9082851996645,None,r,0.3121623992919922,3465.9082851996645,None,0.3121623992919922,,,102Sing,001,2022_Nov_28_1413,ProdSingRedoBetween,2021.2.3,59.97832373857181,
,,,,117,0,117,0,,,,,,,,,,,,,,,,,,,,,,3468.5942746000364,None,,,,,,,,,,,,,,,,,harmony,83,118,sing,old,red,3466.7609097994864,None,3466.7609097994864,None,1,1.2035958003252745,3466.7609097994864,None,1.2035958003252745,3467.9998980993405,None,3468.5180778000504,None,3468.5180778000504,None,n,0.05443609971553087,3468.5180778000504,None,0.05443609971553087,,,102Sing,001,2022_Nov_28_1413,ProdSingRedoBetween,2021.2.3,59.97832373857181,
,,,,118,0,118,0,,,,,,,,,,,,,,,,,,,,,,3470.8128960002214,None,,,,,,,,,,,,,,,,,member,8,119,sing,old,yellow,3469.110221299343,None,3469.110221299343,None,1,1.0141971996054053,3469.110221299343,None,1.0141971996054053,3470.1492039998993,None,3470.663018600084,None,3470.663018600084,None,n,0.12541900016367435,3470.663018600084,None,0.12541900016367435,,,102Sing,001,2022_Nov_28_1413,ProdSingRedoBetween,2021.2.3,59.97832373857181,
,,,,119,0,119,0,,,,,,,,,,,,,,,,,,,,,,3473.2654491998255,None,,,,,,,,,,,,,,,,,gesture,93,120,sing,new,null,3471.3172936998308,None,3471.3172936998308,None,1,1.1670033996924758,3471.3172936998308,None,1.1670033996924758,3472.5175684001297,None,3473.0320537993684,None,3473.0320537993684,None,n,0.20440329983830452,3473.0320537993684,None,0.20440329983830452,,,102Sing,001,2022_Nov_28_1413,ProdSingRedoBetween,2021.2.3,59.97832373857181,
,,,,120,0,120,0,,,,,,,,,,,,,,,,,,,,,,3476.401941699907,None,,,,,,,,,,,,,,,,,finance,53,121,sing,old,blue,3473.7759943995625,None,3473.7759943995625,None,2,1.6444891998544335,3473.7759943995625,None,1.6444891998544335,3475.4567722994834,None,3475.968270299956,None,3475.968270299956,None,f,0.4122128998860717,3475.968270299956,None,0.4122128998860717,,,102Sing,001,2022_Nov_28_1413,ProdSingRedoBetween,2021.2.3,59.97832373857181,
,,,,121,0,121,0,,,,,,,,,,,,,,,,,,,,,,3478.937639599666,None,,,,,,,,,,,,,,,,,sunset,95,122,sing,new,null,3476.9136493001133,None,3476.9136493001133,None,1,1.2426917999982834,3476.9136493001133,None,1.2426917999982834,3478.189377400093,None,3478.704186699353,None,3478.704186699353,None,n,0.20426690019667149,3478.704186699353,None,0.20426690019667149,,,102Sing,001,2022_Nov_28_1413,ProdSingRedoBetween,2021.2.3,59.97832373857181,
,,,,122,0,122,0,,,,,,,,,,,,,,,,,,,,,,3481.52357629966,None,,,,,,,,,,,,,,,,,curve,120,123,sing,new,null,3479.448766199872,None,3479.448766199872,None,1,1.3235531998798251,3479.448766199872,None,1.3235531998798251,3480.7930271001533,None,3481.310364900157,None,3481.310364900157,None,n,0.18212920054793358,3481.310364900157,None,0.18212920054793358,,,102Sing,001,2022_Nov_28_1413,ProdSingRedoBetween,2021.2.3,59.97832373857181,
,,,,123,0,123,0,,,,,,,,,,,,,,,,,,,,,,3483.825960399583,None,,,,,,,,,,,,,,,,,public,49,124,sing,old,blue,3482.027462299913,None,3482.027462299913,None,1,1.112872900441289,3482.027462299913,None,1.112872900441289,3483.164318200201,None,3483.6759065994993,None,3483.6759065994993,None,n,0.12046619970351458,3483.6759065994993,None,0.12046619970351458,,,102Sing,001,2022_Nov_28_1413,ProdSingRedoBetween,2021.2.3,59.97832373857181,
,,,,124,0,124,0,,,,,,,,,,,,,,,,,,,,,,3486.211667600088,None,,,,,,,,,,,,,,,,,appeal,39,125,sing,old,blue,3484.3328932002187,None,3484.3328932002187,None,1,1.0874726995825768,3484.3328932002187,None,1.0874726995825768,3485.4455777993426,None,3485.949888699688,None,3485.949888699688,None,n,0.2305009001865983,3485.949888699688,None,0.2305009001865983,,,102Sing,001,2022_Nov_28_1413,ProdSingRedoBetween,2021.2.3,59.97832373857181,
,,,,125,0,125,0,,,,,,,,,,,,,,,,,,,,,,3489.268526699394,None,,,,,,,,,,,,,,,,,problem,22,126,sing,old,yellow,3486.7199689000845,None,3486.7199689000845,None,4,1.892416600137949,3486.7199689000845,None,1.892416600137949,3488.6315609002486,None,3489.135468999855,None,3489.135468999855,None,f,0.10904929973185062,3489.135468999855,None,0.10904929973185062,,,102Sing,001,2022_Nov_28_1413,ProdSingRedoBetween,2021.2.3,59.97832373857181,
,,,,126,0,126,0,,,,,,,,,,,,,,,,,,,,,,3493.3864987995476,None,,,,,,,,,,,,,,,,,permit,80,127,sing,old,red,3489.790898599662,None,3489.790898599662,None,1,1.0854513002559543,3489.790898599662,None,1.0854513002559543,3490.8995113000274,None,3491.4116706997156,None,3491.4116706997156,None,n,1.9525833996012807,3491.4116706997156,None,1.9525833996012807,,,102Sing,001,2022_Nov_28_1413,ProdSingRedoBetween,2021.2.3,59.97832373857181,
,,,,127,0,127,0,,,,,,,,,,,,,,,,,,,,,,3495.9714246001095,None,,,,,,,,,,,,,,,,,worker,127,128,sing,new,null,3493.8998791994527,None,3493.8998791994527,None,1,1.456356399692595,3493.8998791994527,None,1.456356399692595,3495.391237899661,None,3495.90469559934,None,3495.90469559934,None,n,0.04366009961813688,3495.90469559934,None,0.04366009961813688,,,102Sing,001,2022_Nov_28_1413,ProdSingRedoBetween,2021.2.3,59.97832373857181,
,,,,128,0,128,0,,,,,,,,,,,,,,,,,,,,,,3499.2414426999167,None,,,,,,,,,,,,,,,,,meeting,133,129,sing,new,null,3496.4801992997527,None,3496.4801992997527,None,3,2.156367499381304,3496.4801992997527,None,2.156367499381304,3498.657647099346,None,3499.1653613997623,None,3499.1653613997623,None,f,0.0549940001219511,3499.1653613997623,None,0.0549940001219511,,,102Sing,001,2022_Nov_28_1413,ProdSingRedoBetween,2021.2.3,59.97832373857181,
,,,,129,0,129,0,,,,,,,,,,,,,,,,,,,,,,3502.4108501998708,None,,,,,,,,,,,,,,,,,fashion,79,130,sing,old,red,3499.748800800182,None,3499.748800800182,None,5,1.7995658004656434,3499.748800800182,None,1.7995658004656434,3501.579799699597,None,3502.0984835997224,None,3502.0984835997224,None,f,0.28175799921154976,3502.0984835997224,None,0.28175799921154976,,,102Sing,001,2022_Nov_28_1413,ProdSingRedoBetween,2021.2.3,59.97832373857181,
,,,,130,0,130,0,,,,,,,,,,,,,,,,,,,,,,3504.9637425998226,None,,,,,,,,,,,,,,,,,quarter,109,131,sing,new,null,3502.9115552995354,None,3502.9115552995354,None,1,1.3728093998506665,3502.9115552995354,None,1.3728093998506665,3504.3167373994365,None,3504.838291999884,None,3504.838291999884,None,n,0.11004840023815632,3504.838291999884,None,0.11004840023815632,,,102Sing,001,2022_Nov_28_1413,ProdSingRedoBetween,2021.2.3,59.97832373857181,
,,,,131,0,131,0,,,,,,,,,,,,,,,,,,,,,,3509.1517615998164,None,,,,,,,,,,,,,,,,,track,30,132,sing,old,blue,3505.4691615998745,None,3505.4691615998745,None,3,2.943166099488735,3505.4691615998745,None,2.943166099488735,3508.434984399937,None,3508.93754229974,None,3508.93754229974,None,f,0.18679419998079538,3508.93754229974,None,0.18679419998079538,,,102Sing,001,2022_Nov_28_1413,ProdSingRedoBetween,2021.2.3,59.97832373857181,
,,,,132,0,132,0,,,,,,,,,,,,,,,,,,,,,,3512.0054414002225,None,,,,,,,,,,,,,,,,,trail,94,133,sing,new,null,3509.653093099594,None,3509.653093099594,None,1,1.255251799710095,3509.653093099594,None,1.255251799710095,3510.941259799525,None,3511.4544562995434,None,3511.4544562995434,None,n,0.5339019000530243,3511.4544562995434,None,0.5339019000530243,,,102Sing,001,2022_Nov_28_1413,ProdSingRedoBetween,2021.2.3,59.97832373857181,
,,,,133,0,133,0,,,,,,,,,,,,,,,,,,,,,,3515.490945099853,None,,,,,,,,,,,,,,,,,atmosphere,114,134,sing,new,null,3512.5152767999098,None,3512.5152767999098,None,1,1.4650154002010822,3512.5152767999098,None,1.4650154002010822,3514.0091461995617,None,3514.5298515995964,None,3514.5298515995964,None,n,0.9384500002488494,3514.5298515995964,None,0.9384500002488494,,,102Sing,001,2022_Nov_28_1413,ProdSingRedoBetween,2021.2.3,59.97832373857181,
,,,,134,0,134,0,,,,,,,,,,,,,,,,,,,,,,3519.578332199715,None,,,,,,,,,,,,,,,,,patient,142,135,sing,new,null,3515.993013399653,None,3515.993013399653,None,4,2.899276999756694,3515.993013399653,None,2.899276999756694,3518.913952499628,None,3519.432849499397,None,3519.432849499397,None,f,0.11549660004675388,3519.432849499397,None,0.11549660004675388,,,102Sing,001,2022_Nov_28_1413,ProdSingRedoBetween,2021.2.3,59.97832373857181,
,,,,135,0,135,0,,,,,,,,,,,,,,,,,,,,,,3522.147500500083,None,,,,,,,,,,,,,,,,,title,76,136,sing,old,red,3520.078788199462,None,3520.078788199462,None,1,1.4695172002539039,3520.078788199462,None,1.4695172002539039,3521.567658899352,None,3522.08096079994,None,3522.08096079994,None,n,0.05127230007201433,3522.08096079994,None,0.05127230007201433,,,102Sing,001,2022_Nov_28_1413,ProdSingRedoBetween,2021.2.3,59.97832373857181,
,,,,136,0,136,0,,,,,,,,,,,,,,,,,,,,,,3525.3007234996185,None,,,,,,,,,,,,,,,,,quiet,115,137,sing,new,null,3522.6480203997344,None,3522.6480203997344,None,3,2.0043128998950124,3522.6480203997344,None,2.0043128998950124,3524.6843790998682,None,3525.183825300075,None,3525.183825300075,None,f,0.1003286000341177,3525.183825300075,None,0.1003286000341177,,,102Sing,001,2022_Nov_28_1413,ProdSingRedoBetween,2021.2.3,59.97832373857181,
,,,,137,0,137,0,,,,,,,,,,,,,,,,,,,,,,3528.575454100035,None,,,,,,,,,,,,,,,,,nature,1,138,sing,old,yellow,3525.8112100996077,None,3525.8112100996077,None,1,1.9850942995399237,3525.8112100996077,None,1.9850942995399237,3527.8225713996217,None,3528.3401905996725,None,3528.3401905996725,None,n,0.2082914002239704,3528.3401905996725,None,0.2082914002239704,,,102Sing,001,2022_Nov_28_1413,ProdSingRedoBetween,2021.2.3,59.97832373857181,
,,,,138,0,138,0,,,,,,,,,,,,,,,,,,,,,,3531.2565759997815,None,,,,,,,,,,,,,,,,,crowd,168,139,sing,new,null,3529.0947634996846,None,3529.0947634996846,None,1,1.4295207997784019,3529.0947634996846,None,1.4295207997784019,3530.541654699482,None,3531.0565294995904,None,3531.0565294995904,None,n,0.17980969976633787,3531.0565294995904,None,0.17980969976633787,,,102Sing,001,2022_Nov_28_1413,ProdSingRedoBetween,2021.2.3,59.97832373857181,
,,,,139,0,139,0,,,,,,,,,,,,,,,,,,,,,,3534.410362499766,None,,,,,,,,,,,,,,,,,frank,0,140,sing,old,yellow,3531.7658187001944,None,3531.7658187001944,None,6,1.9184817001223564,3531.7658187001944,None,1.9184817001223564,3533.7136730998755,None,3534.2288381997496,None,3534.2288381997496,None,r,0.15150879975408316,3534.2288381997496,None,0.15150879975408316,,,102Sing,001,2022_Nov_28_1413,ProdSingRedoBetween,2021.2.3,59.97832373857181,
,,,,140,0,140,0,,,,,,,,,,,,,,,,,,,,,,3536.9974454995245,None,,,,,,,,,,,,,,,,,majority,103,141,sing,new,null,3534.9172157002613,None,3534.9172157002613,None,1,1.4552124999463558,3534.9172157002613,None,1.4552124999463558,3536.395541699603,None,3536.895806199871,None,3536.895806199871,None,n,0.0765143996104598,3536.895806199871,None,0.0765143996104598,,,102Sing,001,2022_Nov_28_1413,ProdSingRedoBetween,2021.2.3,59.97832373857181,
,,,,141,0,141,0,,,,,,,,,,,,,,,,,,,,,,3540.29966259934,None,,,,,,,,,,,,,,,,,blind,63,142,sing,old,red,3537.513016199693,None,3537.513016199693,None,1,2.0272648008540273,3537.513016199693,None,2.0272648008540273,3539.566656200215,None,3540.083563399501,None,3540.083563399501,None,n,0.18476189952343702,3540.083563399501,None,0.18476189952343702,,,102Sing,001,2022_Nov_28_1413,ProdSingRedoBetween,2021.2.3,59.97832373857181,
,,,,142,0,142,0,,,,,,,,,,,,,,,,,,,,,,3543.0350935999304,None,,,,,,,,,,,,,,,,,mankind,34,143,sing,old,blue,3540.817039700225,None,3540.817039700225,None,1,1.1152788000181317,3540.817039700225,None,1.1152788000181317,3541.951136799529,None,3542.4512681001797,None,3542.4512681001797,None,n,0.5529923001304269,3542.4512681001797,None,0.5529923001304269,,,102Sing,001,2022_Nov_28_1413,ProdSingRedoBetween,2021.2.3,59.97832373857181,
,,,,143,0,143,0,,,,,,,,,,,,,,,,,,,,,,3546.2549476996064,None,,,,,,,,,,,,,,,,,accident,81,144,sing,old,red,3543.5433801999316,None,3543.5433801999316,None,3,2.1328934002667665,3543.5433801999316,None,2.1328934002667665,3545.704861300066,None,3546.208650100045,None,3546.208650100045,None,f,0.01952899992465973,3546.208650100045,None,0.01952899992465973,,,102Sing,001,2022_Nov_28_1413,ProdSingRedoBetween,2021.2.3,59.97832373857181,
,,,,144,0,144,0,,,,,,,,,,,,,,,,,,,,,,3548.957639399916,None,,,,,,,,,,,,,,,,,stand,176,145,sing,new,null,3546.7637254996225,None,3546.7637254996225,None,4,1.5045258002355695,3546.7637254996225,None,1.5045258002355695,3548.2922548996285,None,3548.8112229993567,None,3548.8112229993567,None,f,0.12108100019395351,3548.8112229993567,None,0.12108100019395351,,,102Sing,001,2022_Nov_28_1413,ProdSingRedoBetween,2021.2.3,59.97832373857181,
,,,,145,0,145,0,,,,,,,,,,,,,,,,,,,,,,3551.760426199995,None,,,,,,,,,,,,,,,,,scene,5,146,sing,old,yellow,3549.465180499479,None,3549.465180499479,None,5,1.6429927004501224,3549.465180499479,None,1.6429927004501224,3551.1276610996574,None,3551.6271330993623,None,3551.6271330993623,None,f,0.11311869975179434,3551.6271330993623,None,0.11311869975179434,,,102Sing,001,2022_Nov_28_1413,ProdSingRedoBetween,2021.2.3,59.97832373857181,
,,,,146,0,146,0,,,,,,,,,,,,,,,,,,,,,,3555.180438099429,None,,,,,,,,,,,,,,,,,equipment,31,147,sing,old,blue,3552.2724156994373,None,3552.2724156994373,None,6,1.531695899553597,3552.2724156994373,None,1.531695899553597,3553.8303843000904,None,3554.32993610017,None,3554.32993610017,None,r,0.8343730000779033,3554.32993610017,None,0.8343730000779033,,,102Sing,001,2022_Nov_28_1413,ProdSingRedoBetween,2021.2.3,59.97832373857181,
,,,,147,0,147,0,,,,,,,,,,,,,,,,,,,,,,3558.033067399636,None,,,,,,,,,,,,,,,,,pancakes,45,148,sing,old,blue,3555.685490800068,None,3555.685490800068,None,1,1.6068885000422597,3555.685490800068,None,1.6068885000422597,3557.3205081000924,None,3557.837074900046,None,3557.837074900046,None,n,0.17522429954260588,3557.837074900046,None,0.17522429954260588,,,102Sing,001,2022_Nov_28_1413,ProdSingRedoBetween,2021.2.3,59.97832373857181,
,,,,148,0,148,0,,,,,,,,,,,,,,,,,,,,,,3560.387337599881,None,,,,,,,,,,,,,,,,,right,154,149,sing,new,null,3558.5383195998147,None,3558.5383195998147,None,1,1.2099226992577314,3558.5383195998147,None,1.2099226992577314,3559.768332700245,None,3560.2729278001934,None,3560.2729278001934,None,n,0.09136390034109354,3560.2729278001934,None,0.09136390034109354,,,102Sing,001,2022_Nov_28_1413,ProdSingRedoBetween,2021.2.3,59.97832373857181,
,,,,149,0,149,0,,,,,,,,,,,,,,,,,,,,,,3563.405194199644,None,,,,,,,,,,,,,,,,,level,41,150,sing,old,blue,3560.9097939999774,None,3560.9097939999774,None,1,1.0784446997568011,3560.9097939999774,None,1.0784446997568011,3562.006932899356,None,3562.5210398994386,None,3562.5210398994386,None,n,0.867179499939084,3562.5210398994386,None,0.867179499939084,,,102Sing,001,2022_Nov_28_1413,ProdSingRedoBetween,2021.2.3,59.97832373857181,
,,,,150,0,150,0,,,,,,,,,,,,,,,,,,,,,,3566.2261966001242,None,,,,,,,,,,,,,,,,,weather,28,151,sing,old,yellow,3563.916347700171,None,3563.916347700171,None,1,1.4798414995893836,3563.916347700171,None,1.4798414995893836,3565.425687399693,None,3565.9413569997996,None,3565.9413569997996,None,n,0.2549419002607465,3565.9413569997996,None,0.2549419002607465,,,102Sing,001,2022_Nov_28_1413,ProdSingRedoBetween,2021.2.3,59.97832373857181,
,,,,151,0,151,0,,,,,,,,,,,,,,,,,,,,,,3568.9274904001504,None,,,,,,,,,,,,,,,,,benefit,52,152,sing,old,blue,3566.7326109996065,None,3566.7326109996065,None,1,1.4875928005203605,3566.7326109996065,None,1.4875928005203605,3568.2445149002597,None,3568.7478511994705,None,3568.7478511994705,None,n,0.1523061003535986,3568.7478511994705,None,0.1523061003535986,,,102Sing,001,2022_Nov_28_1413,ProdSingRedoBetween,2021.2.3,59.97832373857181,
,,,,152,0,152,0,,,,,,,,,,,,,,,,,,,,,,3571.763704500161,None,,,,,,,,,,,,,,,,,congress,157,153,sing,new,null,3569.430790499784,None,3569.430790499784,None,1,1.1494892006739974,3569.430790499784,None,1.1494892006739974,3570.6029054000974,None,3571.1159943994135,None,3571.1159943994135,None,n,0.6163162998855114,3571.1159943994135,None,0.6163162998855114,,,102Sing,001,2022_Nov_28_1413,ProdSingRedoBetween,2021.2.3,59.97832373857181,
,,,,153,0,153,0,,,,,,,,,,,,,,,,,,,,,,3575.3172222999856,None,,,,,,,,,,,,,,,,,point,152,154,sing,new,null,3572.276089699939,None,3572.276089699939,None,1,2.2000359995290637,3572.276089699939,None,2.2000359995290637,3574.500931799412,None,3575.009555899538,None,3575.009555899538,None,n,0.29062850028276443,3575.009555899538,None,0.29062850028276443,,,102Sing,001,2022_Nov_28_1413,ProdSingRedoBetween,2021.2.3,59.97832373857181,
,,,,154,0,154,0,,,,,,,,,,,,,,,,,,,,,,3580.0216985000297,None,,,,,,,,,,,,,,,,,month,24,155,sing,old,yellow,3575.821827800013,None,3575.821827800013,None,1,3.4623822001740336,3575.821827800013,None,3.4623822001740336,3579.3063842002302,None,3579.824047399685,None,3579.824047399685,None,n,0.18012010026723146,3579.824047399685,None,0.18012010026723146,,,102Sing,001,2022_Nov_28_1413,ProdSingRedoBetween,2021.2.3,59.97832373857181,
,,,,155,0,155,0,,,,,,,,,,,,,,,,,,,,,,3582.591105699539,None,,,,,,,,,,,,,,,,,build,138,156,sing,new,null,3580.5311953993514,None,3580.5311953993514,None,1,1.1370157999917865,3580.5311953993514,None,1.1370157999917865,3581.6920467000455,None,3582.2073240000755,None,3582.2073240000755,None,n,0.3568919999524951,3582.2073240000755,None,0.3568919999524951,,,102Sing,001,2022_Nov_28_1413,ProdSingRedoBetween,2021.2.3,59.97832373857181,
,,,,156,0,156,0,,,,,,,,,,,,,,,,,,,,,,3584.9768995996565,None,,,,,,,,,,,,,,,,,front,108,157,sing,new,null,3583.0919428998604,None,3583.0919428998604,None,1,1.1442029997706413,3583.0919428998604,None,1.1442029997706413,3584.2704790001735,None,3584.7767755994573,None,3584.7767755994573,None,n,0.17943339981138706,3584.7767755994573,None,0.17943339981138706,,,102Sing,001,2022_Nov_28_1413,ProdSingRedoBetween,2021.2.3,59.97832373857181,
,,,,157,0,157,0,,,,,,,,,,,,,,,,,,,,,,3588.466250100173,None,,,,,,,,,,,,,,,,,hunger,105,158,sing,new,null,3585.4870576001704,None,3585.4870576001704,None,3,2.309086199849844,3585.4870576001704,None,2.309086199849844,3587.8128722999245,None,3588.3166573997587,None,3588.3166573997587,None,f,0.12758819945156574,3588.3166573997587,None,0.12758819945156574,,,102Sing,001,2022_Nov_28_1413,ProdSingRedoBetween,2021.2.3,59.97832373857181,
,,,,158,0,158,0,,,,,,,,,,,,,,,,,,,,,,3591.2842431999743,None,,,,,,,,,,,,,,,,,object,91,159,sing,new,null,3588.982675000094,None,3588.982675000094,None,1,1.4615758992731571,3588.982675000094,None,1.4615758992731571,3590.47369339969,None,3590.985711399466,None,3590.985711399466,None,n,0.2744249003008008,3590.985711399466,None,0.2744249003008008,,,102Sing,001,2022_Nov_28_1413,ProdSingRedoBetween,2021.2.3,59.97832373857181,
,,,,159,0,159,0,,,,,,,,,,,,,,,,,,,,,,3594.2025784002617,None,,,,,,,,,,,,,,,,,union,48,160,sing,old,blue,3591.7876861002296,None,3591.7876861002296,None,1,1.6325123002752662,3591.7876861002296,None,1.6325123002752662,3593.43609079998,None,3593.9409991996363,None,3593.9409991996363,None,n,0.2393281003460288,3593.9409991996363,None,0.2393281003460288,,,102Sing,001,2022_Nov_28_1413,ProdSingRedoBetween,2021.2.3,59.97832373857181,
,,,,160,0,160,0,,,,,,,,,,,,,,,,,,,,,,3597.392195899971,None,,,,,,,,,,,,,,,,,collection,164,161,sing,new,null,3594.70778439939,None,3594.70778439939,None,1,1.872400300577283,3594.70778439939,None,1.872400300577283,3596.6051533995196,None,3597.1086908001453,None,3597.1086908001453,None,n,0.25549300014972687,3597.1086908001453,None,0.25549300014972687,,,102Sing,001,2022_Nov_28_1413,ProdSingRedoBetween,2021.2.3,59.97832373857181,
,,,,161,0,161,0,,,,,,,,,,,,,,,,,,,,,,3600.6786612998694,None,,,,,,,,,,,,,,,,,broad,99,162,sing,new,null,3597.906549599953,None,3597.906549599953,None,1,2.033581499941647,3597.906549599953,None,2.033581499941647,3599.966066999361,None,3600.4757674997672,None,3600.4757674997672,None,n,0.1844835001975298,3600.4757674997672,None,0.1844835001975298,,,102Sing,001,2022_Nov_28_1413,ProdSingRedoBetween,2021.2.3,59.97832373857181,
,,,,162,0,162,0,,,,,,,,,,,,,,,,,,,,,,3603.280288199894,None,,,,,,,,,,,,,,,,,under,111,163,sing,new,null,3601.198207099922,None,3601.198207099922,None,1,1.3179828003048897,3601.198207099922,None,1.3179828003048897,3602.545095999725,None,3603.0488873999566,None,3603.0488873999566,None,n,0.2032166998833418,3603.0488873999566,None,0.2032166998833418,,,102Sing,001,2022_Nov_28_1413,ProdSingRedoBetween,2021.2.3,59.97832373857181,
,,,,163,0,163,0,,,,,,,,,,,,,,,,,,,,,,3606.031256100163,None,,,,,,,,,,,,,,,,,rapid,122,164,sing,new,null,3603.805071699433,None,3603.805071699433,None,1,1.2390367006883025,3603.805071699433,None,1.2390367006883025,3605.0712041994557,None,3605.580829899758,None,3605.580829899758,None,n,0.43131779972463846,3605.580829899758,None,0.43131779972463846,,,102Sing,001,2022_Nov_28_1413,ProdSingRedoBetween,2021.2.3,59.97832373857181,
,,,,164,0,164,0,,,,,,,,,,,,,,,,,,,,,,3608.5862774001434,None,,,,,,,,,,,,,,,,,height,72,165,sing,old,red,3606.540179300122,None,3606.540179300122,None,6,1.175977200269699,3606.540179300122,None,1.175977200269699,3607.737214099616,None,3608.2527602994815,None,3608.2527602994815,None,r,0.30343229975551367,3608.2527602994815,None,0.30343229975551367,,,102Sing,001,2022_Nov_28_1413,ProdSingRedoBetween,2021.2.3,59.97832373857181,
,,,,165,0,165,0,,,,,,,,,,,,,,,,,,,,,,3611.8370329998434,None,,,,,,,,,,,,,,,,,story,178,166,sing,new,null,3609.108984099701,None,3609.108984099701,None,2,2.0231683999300003,3609.108984099701,None,2.0231683999300003,3611.1541833998635,None,3611.6614991994575,None,3611.6614991994575,None,f,0.15063600055873394,3611.6614991994575,None,0.15063600055873394,,,102Sing,001,2022_Nov_28_1413,ProdSingRedoBetween,2021.2.3,59.97832373857181,
,,,,166,0,166,0,,,,,,,,,,,,,,,,,,,,,,3615.326863599941,None,,,,,,,,,,,,,,,,,distance,14,167,sing,old,yellow,3612.3501105001196,None,3612.3501105001196,None,1,1.6620094999670982,3612.3501105001196,None,1.6620094999670982,3614.040134999901,None,3614.543854999356,None,3614.543854999356,None,n,0.7563104005530477,3614.543854999356,None,0.7563104005530477,,,102Sing,001,2022_Nov_28_1413,ProdSingRedoBetween,2021.2.3,59.97832373857181,
,,,,167,0,167,0,,,,,,,,,,,,,,,,,,,,,,3617.8114693993703,None,,,,,,,,,,,,,,,,,agreement,13,168,sing,old,yellow,3615.8408035999164,None,3615.8408035999164,None,1,1.2273309007287025,3615.8408035999164,None,1.2273309007287025,3617.0922437999398,None,3617.5954259997234,None,3617.5954259997234,None,n,0.1927737994119525,3617.5954259997234,None,0.1927737994119525,,,102Sing,001,2022_Nov_28_1413,ProdSingRedoBetween,2021.2.3,59.97832373857181,
,,,,168,0,168,0,,,,,,,,,,,,,,,,,,,,,,3620.428845499642,None,,,,,,,,,,,,,,,,,trash,69,169,sing,old,red,3618.328695300035,None,3618.328695300035,None,6,1.4754416001960635,3618.328695300035,None,1.4754416001960635,3619.8281094999984,None,3620.333178299479,None,3620.333178299479,None,r,0.07895080000162125,3620.333178299479,None,0.07895080000162125,,,102Sing,001,2022_Nov_28_1413,ProdSingRedoBetween,2021.2.3,59.97832373857181,
,,,,169,0,169,0,,,,,,,,,,,,,,,,,,,,,,3622.8641326995566,None,,,,,,,,,,,,,,,,,growth,51,170,sing,old,blue,3620.94315669965,None,3620.94315669965,None,1,1.1970499996095896,3620.94315669965,None,1.1970499996095896,3622.171266099438,None,3622.680978999473,None,3622.680978999473,None,n,0.16305920016020536,3622.680978999473,None,0.16305920016020536,,,102Sing,001,2022_Nov_28_1413,ProdSingRedoBetween,2021.2.3,59.97832373857181,
,,,,170,0,170,0,,,,,,,,,,,,,,,,,,,,,,3625.266992500052,None,,,,,,,,,,,,,,,,,bicycle,11,171,sing,old,yellow,3623.3782321996987,None,3623.3782321996987,None,6,1.2579273004084826,3623.3782321996987,None,1.2579273004084826,3624.6700575994328,None,3625.1837024996057,None,3625.1837024996057,None,r,0.052490499801933765,3625.1837024996057,None,0.052490499801933765,,,102Sing,001,2022_Nov_28_1413,ProdSingRedoBetween,2021.2.3,59.97832373857181,
,,,,171,0,171,0,,,,,,,,,,,,,,,,,,,,,,3627.8237646995112,None,,,,,,,,,,,,,,,,,dance,174,172,sing,new,null,3625.780910599977,None,3625.780910599977,None,1,1.32728479988873,3625.780910599977,None,1.32728479988873,3627.143190599978,None,3627.652660199441,None,3627.652660199441,None,n,0.1435459004715085,3627.652660199441,None,0.1435459004715085,,,102Sing,001,2022_Nov_28_1413,ProdSingRedoBetween,2021.2.3,59.97832373857181,
,,,,172,0,172,0,,,,,,,,,,,,,,,,,,,,,,3630.338820000179,None,,,,,,,,,,,,,,,,,employment,36,173,sing,old,blue,3628.3425656994805,None,3628.3425656994805,None,6,1.3255885997787118,3628.3425656994805,None,1.3255885997787118,3629.6950186993927,None,3630.2108547994867,None,3630.2108547994867,None,r,0.10530820023268461,3630.2108547994867,None,0.10530820023268461,,,102Sing,001,2022_Nov_28_1413,ProdSingRedoBetween,2021.2.3,59.97832373857181,
,,,,173,0,173,0,,,,,,,,,,,,,,,,,,,,,,3632.994084400125,None,,,,,,,,,,,,,,,,,character,143,174,sing,new,null,3630.8479690002277,None,3630.8479690002277,None,1,1.3641805006191134,3630.8479690002277,None,1.3641805006191134,3632.241136999801,None,3632.7450077999383,None,3632.7450077999383,None,n,0.2271506991237402,3632.7450077999383,None,0.2271506991237402,,,102Sing,001,2022_Nov_28_1413,ProdSingRedoBetween,2021.2.3,59.97832373857181,
,,,,174,0,174,0,,,,,,,,,,,,,,,,,,,,,,3635.844200499356,None,,,,,,,,,,,,,,,,,route,97,175,sing,new,null,3633.5111536001787,None,3633.5111536001787,None,1,1.389092999510467,3633.5111536001787,None,1.389092999510467,3634.927365399897,None,3635.439983399585,None,3635.439983399585,None,n,0.38032730016857386,3635.439983399585,None,0.38032730016857386,,,102Sing,001,2022_Nov_28_1413,ProdSingRedoBetween,2021.2.3,59.97832373857181,
,,,,175,0,175,0,,,,,,,,,,,,,,,,,,,,,,3638.7805356997997,None,,,,,,,,,,,,,,,,,hearing,112,176,sing,new,null,3636.354964199476,None,3636.354964199476,None,1,1.6811584997922182,3636.354964199476,None,1.6811584997922182,3638.0661062998697,None,3638.581162000075,None,3638.581162000075,None,n,0.17487239930778742,3638.581162000075,None,0.17487239930778742,,,102Sing,001,2022_Nov_28_1413,ProdSingRedoBetween,2021.2.3,59.97832373857181,
,,,,176,0,176,0,,,,,,,,,,,,,,,,,,,,,,3641.9002820001915,None,,,,,,,,,,,,,,,,,budget,26,177,sing,old,yellow,3639.28721509967,None,3639.28721509967,None,1,1.637007899582386,3639.28721509967,None,1.637007899582386,3640.9520886000246,None,3641.4681949000806,None,3641.4681949000806,None,n,0.40793140046298504,3641.4681949000806,None,0.40793140046298504,,,102Sing,001,2022_Nov_28_1413,ProdSingRedoBetween,2021.2.3,59.97832373857181,
