StudyLoop.thisRepN,StudyLoop.thisTrialN,StudyLoop.thisN,StudyLoop.thisIndex,TestLoop.thisRepN,TestLoop.thisTrialN,TestLoop.thisN,TestLoop.thisIndex,textCondition.started,textCondition.stopped,keyCondition.keys,keyCondition.rt,keyCondition.started,keyCondition.stopped,Condition,textWelcome.started,textWelcome.stopped,keyWelcome.keys,keyWelcome.rt,keyWelcome.started,keyWelcome.stopped,textAloud.started,textAloud.stopped,textSilent.started,textSilent.stopped,textSing.started,textSing.stopped,conditional_text.started,conditional_text.stopped,textBlank500.started,textBlank500.stopped,study_word,study_num,study_order,study_type,word_color,textStudy.started,textStudy.stopped,keyStudy.keys,keyStudy.started,keyStudy.stopped,textTestInstructions.started,textTestInstructions.stopped,key_resp_3.keys,key_resp_3.rt,key_resp_3.started,key_resp_3.stopped,test_word,test_num,test_order,test_condition,old_new_test,test_word_original_color,textConf.started,textConf.stopped,textConfScale.started,textConfScale.stopped,keyConf.keys,keyConf.rt,keyConf.started,keyConf.stopped,confidence response time,textTestBlank.started,textTestBlank.stopped,textRKN.started,textRKN.stopped,textRKNScale.started,textRKNScale.stopped,keyRKN.keys,keyRKN.rt,keyRKN.started,keyRKN.stopped,rkn response time,textEnd.started,textEnd.stopped,participant,session,date,expName,psychopyVersion,frameRate,
,,,,,,,,18.344156100414693,None,a,0.3979815999045968,18.344156100414693,None,,,,,,,,,,,,,,,,,,,,,,,,,,,,,,,,,,,,,,,,,,,,,,,,,,,,,,,,,,,,,,103Silent,001,2022_Nov_28_1535,ProdSingRedoBetween,2021.2.3,59.895912912760174,
,,,,,,,,,,,,,,SilentTest,18.794244600459933,None,space,843.3461450999603,18.794244600459933,None,,,,,,,,,,,,,,,,,,,,,,,,,,,,,,,,,,,,,,,,,,,,,,,,,,,,,,,103Silent,001,2022_Nov_28_1535,ProdSingRedoBetween,2021.2.3,59.895912912760174,
0,0,0,0,,,,,,,,,,,,,,,,,,18.794244600459933,None,18.794244600459933,None,18.794244600459933,None,18.794244600459933,None,864.6880133999512,None,column,39,1,silent,blue,862.6736161001027,None,None,862.6736161001027,None,,,,,,,,,,,,,,,,,,,,,,,,,,,,,,,,,,,103Silent,001,2022_Nov_28_1535,ProdSingRedoBetween,2021.2.3,59.895912912760174,
1,0,1,0,,,,,,,,,,,,,,,,,,,,,,,,,,867.2070668004453,None,native,51,2,silent,blue,865.1967513002455,None,None,865.1967513002455,None,,,,,,,,,,,,,,,,,,,,,,,,,,,,,,,,,,,103Silent,001,2022_Nov_28_1535,ProdSingRedoBetween,2021.2.3,59.895912912760174,
2,0,2,0,,,,,,,,,,,,,,,,,,,,,,,,,,869.7095744004473,None,industry,65,3,silent,red,867.7076280005276,None,None,867.7076280005276,None,,,,,,,,,,,,,,,,,,,,,,,,,,,,,,,,,,,103Silent,001,2022_Nov_28_1535,ProdSingRedoBetween,2021.2.3,59.895912912760174,
3,0,3,0,,,,,,,,,,,,,,,,,,,,,,,,,,872.2288244999945,None,crime,61,4,silent,red,870.2179973004386,None,None,870.2179973004386,None,,,,,,,,,,,,,,,,,,,,,,,,,,,,,,,,,,,103Silent,001,2022_Nov_28_1535,ProdSingRedoBetween,2021.2.3,59.895912912760174,
4,0,4,0,,,,,,,,,,,,,,,,,,,,,,,,,,874.7313898000866,None,detective,42,5,silent,blue,872.7306558005512,None,None,872.7306558005512,None,,,,,,,,,,,,,,,,,,,,,,,,,,,,,,,,,,,103Silent,001,2022_Nov_28_1535,ProdSingRedoBetween,2021.2.3,59.895912912760174,
5,0,5,0,,,,,,,,,,,,,,,,,,,,,,,,,,877.25023279991,None,pressure,1,6,silent,yellow,875.2366821002215,None,None,875.2366821002215,None,,,,,,,,,,,,,,,,,,,,,,,,,,,,,,,,,,,103Silent,001,2022_Nov_28_1535,ProdSingRedoBetween,2021.2.3,59.895912912760174,
6,0,6,0,,,,,,,,,,,,,,,,,,,,,,,,,,879.7699353005737,None,evidence,81,7,silent,red,877.7567851003259,None,None,877.7567851003259,None,,,,,,,,,,,,,,,,,,,,,,,,,,,,,,,,,,,103Silent,001,2022_Nov_28_1535,ProdSingRedoBetween,2021.2.3,59.895912912760174,
7,0,7,0,,,,,,,,,,,,,,,,,,,,,,,,,,882.2888377001509,None,escape,3,8,silent,yellow,880.2735421005636,None,None,880.2735421005636,None,,,,,,,,,,,,,,,,,,,,,,,,,,,,,,,,,,,103Silent,001,2022_Nov_28_1535,ProdSingRedoBetween,2021.2.3,59.895912912760174,
8,0,8,0,,,,,,,,,,,,,,,,,,,,,,,,,,884.8078805003315,None,commercial,41,9,silent,blue,882.7938171997666,None,None,882.7938171997666,None,,,,,,,,,,,,,,,,,,,,,,,,,,,,,,,,,,,103Silent,001,2022_Nov_28_1535,ProdSingRedoBetween,2021.2.3,59.895912912760174,
9,0,9,0,,,,,,,,,,,,,,,,,,,,,,,,,,887.32716049999,None,frank,85,10,silent,red,885.3122711004689,None,None,885.3122711004689,None,,,,,,,,,,,,,,,,,,,,,,,,,,,,,,,,,,,103Silent,001,2022_Nov_28_1535,ProdSingRedoBetween,2021.2.3,59.895912912760174,
10,0,10,0,,,,,,,,,,,,,,,,,,,,,,,,,,889.8463917998597,None,measure,54,11,silent,blue,887.8322224002331,None,None,887.8322224002331,None,,,,,,,,,,,,,,,,,,,,,,,,,,,,,,,,,,,103Silent,001,2022_Nov_28_1535,ProdSingRedoBetween,2021.2.3,59.895912912760174,
11,0,11,0,,,,,,,,,,,,,,,,,,,,,,,,,,892.3655674997717,None,enemy,46,12,silent,blue,890.3543875003234,None,None,890.3543875003234,None,,,,,,,,,,,,,,,,,,,,,,,,,,,,,,,,,,,103Silent,001,2022_Nov_28_1535,ProdSingRedoBetween,2021.2.3,59.895912912760174,
12,0,12,0,,,,,,,,,,,,,,,,,,,,,,,,,,894.8847690997645,None,salary,83,13,silent,red,892.8725904002786,None,None,892.8725904002786,None,,,,,,,,,,,,,,,,,,,,,,,,,,,,,,,,,,,103Silent,001,2022_Nov_28_1535,ProdSingRedoBetween,2021.2.3,59.895912912760174,
13,0,13,0,,,,,,,,,,,,,,,,,,,,,,,,,,897.3873084001243,None,executive,58,14,silent,blue,895.3878640998155,None,None,895.3878640998155,None,,,,,,,,,,,,,,,,,,,,,,,,,,,,,,,,,,,103Silent,001,2022_Nov_28_1535,ProdSingRedoBetween,2021.2.3,59.895912912760174,
14,0,14,0,,,,,,,,,,,,,,,,,,,,,,,,,,899.8897582003847,None,fight,27,15,silent,yellow,897.8876801002771,None,None,897.8876801002771,None,,,,,,,,,,,,,,,,,,,,,,,,,,,,,,,,,,,103Silent,001,2022_Nov_28_1535,ProdSingRedoBetween,2021.2.3,59.895912912760174,
15,0,15,0,,,,,,,,,,,,,,,,,,,,,,,,,,902.3921993002295,None,message,77,16,silent,red,900.3924241000786,None,None,900.3924241000786,None,,,,,,,,,,,,,,,,,,,,,,,,,,,,,,,,,,,103Silent,001,2022_Nov_28_1535,ProdSingRedoBetween,2021.2.3,59.895912912760174,
16,0,16,0,,,,,,,,,,,,,,,,,,,,,,,,,,904.9113894999027,None,under,55,17,silent,blue,902.8966944999993,None,None,902.8966944999993,None,,,,,,,,,,,,,,,,,,,,,,,,,,,,,,,,,,,103Silent,001,2022_Nov_28_1535,ProdSingRedoBetween,2021.2.3,59.895912912760174,
17,0,17,0,,,,,,,,,,,,,,,,,,,,,,,,,,907.4139093002304,None,material,35,18,silent,blue,905.4119610004127,None,None,905.4119610004127,None,,,,,,,,,,,,,,,,,,,,,,,,,,,,,,,,,,,103Silent,001,2022_Nov_28_1535,ProdSingRedoBetween,2021.2.3,59.895912912760174,
18,0,18,0,,,,,,,,,,,,,,,,,,,,,,,,,,909.9164239000529,None,trial,74,19,silent,red,907.914383799769,None,None,907.914383799769,None,,,,,,,,,,,,,,,,,,,,,,,,,,,,,,,,,,,103Silent,001,2022_Nov_28_1535,ProdSingRedoBetween,2021.2.3,59.895912912760174,
19,0,19,0,,,,,,,,,,,,,,,,,,,,,,,,,,912.4189884001389,None,crisis,63,20,silent,red,910.417479400523,None,None,910.417479400523,None,,,,,,,,,,,,,,,,,,,,,,,,,,,,,,,,,,,103Silent,001,2022_Nov_28_1535,ProdSingRedoBetween,2021.2.3,59.895912912760174,
20,0,20,0,,,,,,,,,,,,,,,,,,,,,,,,,,914.938128599897,None,worker,67,21,silent,red,912.9242186006159,None,None,912.9242186006159,None,,,,,,,,,,,,,,,,,,,,,,,,,,,,,,,,,,,103Silent,001,2022_Nov_28_1535,ProdSingRedoBetween,2021.2.3,59.895912912760174,
21,0,21,0,,,,,,,,,,,,,,,,,,,,,,,,,,917.4406524999067,None,state,79,22,silent,red,915.4403560999781,None,None,915.4403560999781,None,,,,,,,,,,,,,,,,,,,,,,,,,,,,,,,,,,,103Silent,001,2022_Nov_28_1535,ProdSingRedoBetween,2021.2.3,59.895912912760174,
22,0,22,0,,,,,,,,,,,,,,,,,,,,,,,,,,919.9597027003765,None,pancakes,19,23,silent,yellow,917.9454338997602,None,None,917.9454338997602,None,,,,,,,,,,,,,,,,,,,,,,,,,,,,,,,,,,,103Silent,001,2022_Nov_28_1535,ProdSingRedoBetween,2021.2.3,59.895912912760174,
23,0,23,0,,,,,,,,,,,,,,,,,,,,,,,,,,922.4622101997957,None,light,78,24,silent,red,920.4630199000239,None,None,920.4630199000239,None,,,,,,,,,,,,,,,,,,,,,,,,,,,,,,,,,,,103Silent,001,2022_Nov_28_1535,ProdSingRedoBetween,2021.2.3,59.895912912760174,
24,0,24,0,,,,,,,,,,,,,,,,,,,,,,,,,,924.9812058005482,None,guest,17,25,silent,yellow,922.9754344001412,None,None,922.9754344001412,None,,,,,,,,,,,,,,,,,,,,,,,,,,,,,,,,,,,103Silent,001,2022_Nov_28_1535,ProdSingRedoBetween,2021.2.3,59.895912912760174,
25,0,25,0,,,,,,,,,,,,,,,,,,,,,,,,,,927.4836023999378,None,strain,7,26,silent,yellow,925.4819333003834,None,None,925.4819333003834,None,,,,,,,,,,,,,,,,,,,,,,,,,,,,,,,,,,,103Silent,001,2022_Nov_28_1535,ProdSingRedoBetween,2021.2.3,59.895912912760174,
26,0,26,0,,,,,,,,,,,,,,,,,,,,,,,,,,929.9864907003939,None,shear,2,27,silent,yellow,927.9842408001423,None,None,927.9842408001423,None,,,,,,,,,,,,,,,,,,,,,,,,,,,,,,,,,,,103Silent,001,2022_Nov_28_1535,ProdSingRedoBetween,2021.2.3,59.895912912760174,
27,0,27,0,,,,,,,,,,,,,,,,,,,,,,,,,,932.505477800034,None,majority,20,28,silent,yellow,930.4939615000039,None,None,930.4939615000039,None,,,,,,,,,,,,,,,,,,,,,,,,,,,,,,,,,,,103Silent,001,2022_Nov_28_1535,ProdSingRedoBetween,2021.2.3,59.895912912760174,
28,0,28,0,,,,,,,,,,,,,,,,,,,,,,,,,,935.0080824997276,None,question,0,29,silent,yellow,933.0084752999246,None,None,933.0084752999246,None,,,,,,,,,,,,,,,,,,,,,,,,,,,,,,,,,,,103Silent,001,2022_Nov_28_1535,ProdSingRedoBetween,2021.2.3,59.895912912760174,
29,0,29,0,,,,,,,,,,,,,,,,,,,,,,,,,,937.5106936004013,None,session,11,30,silent,yellow,935.509182699956,None,None,935.509182699956,None,,,,,,,,,,,,,,,,,,,,,,,,,,,,,,,,,,,103Silent,001,2022_Nov_28_1535,ProdSingRedoBetween,2021.2.3,59.895912912760174,
30,0,30,0,,,,,,,,,,,,,,,,,,,,,,,,,,940.0298872003332,None,block,16,31,silent,yellow,938.0189151000232,None,None,938.0189151000232,None,,,,,,,,,,,,,,,,,,,,,,,,,,,,,,,,,,,103Silent,001,2022_Nov_28_1535,ProdSingRedoBetween,2021.2.3,59.895912912760174,
31,0,31,0,,,,,,,,,,,,,,,,,,,,,,,,,,942.5490602999926,None,write,56,32,silent,blue,940.5347185004503,None,None,940.5347185004503,None,,,,,,,,,,,,,,,,,,,,,,,,,,,,,,,,,,,103Silent,001,2022_Nov_28_1535,ProdSingRedoBetween,2021.2.3,59.895912912760174,
32,0,32,0,,,,,,,,,,,,,,,,,,,,,,,,,,945.0515096001327,None,quantity,22,33,silent,yellow,943.0525265997276,None,None,943.0525265997276,None,,,,,,,,,,,,,,,,,,,,,,,,,,,,,,,,,,,103Silent,001,2022_Nov_28_1535,ProdSingRedoBetween,2021.2.3,59.895912912760174,
33,0,33,0,,,,,,,,,,,,,,,,,,,,,,,,,,947.5705754999071,None,speech,43,34,silent,blue,945.5561509998515,None,None,945.5561509998515,None,,,,,,,,,,,,,,,,,,,,,,,,,,,,,,,,,,,103Silent,001,2022_Nov_28_1535,ProdSingRedoBetween,2021.2.3,59.895912912760174,
34,0,34,0,,,,,,,,,,,,,,,,,,,,,,,,,,950.0731703005731,None,scene,38,35,silent,blue,948.0710939997807,None,None,948.0710939997807,None,,,,,,,,,,,,,,,,,,,,,,,,,,,,,,,,,,,103Silent,001,2022_Nov_28_1535,ProdSingRedoBetween,2021.2.3,59.895912912760174,
35,0,35,0,,,,,,,,,,,,,,,,,,,,,,,,,,952.5757549004629,None,piece,59,36,silent,yellow,950.5733508002013,None,None,950.5733508002013,None,,,,,,,,,,,,,,,,,,,,,,,,,,,,,,,,,,,103Silent,001,2022_Nov_28_1535,ProdSingRedoBetween,2021.2.3,59.895912912760174,
36,0,36,0,,,,,,,,,,,,,,,,,,,,,,,,,,955.078129700385,None,safety,70,37,silent,red,953.0767911998555,None,None,953.0767911998555,None,,,,,,,,,,,,,,,,,,,,,,,,,,,,,,,,,,,103Silent,001,2022_Nov_28_1535,ProdSingRedoBetween,2021.2.3,59.895912912760174,
37,0,37,0,,,,,,,,,,,,,,,,,,,,,,,,,,957.5805187001824,None,ground,34,38,silent,blue,955.5786898005754,None,None,955.5786898005754,None,,,,,,,,,,,,,,,,,,,,,,,,,,,,,,,,,,,103Silent,001,2022_Nov_28_1535,ProdSingRedoBetween,2021.2.3,59.895912912760174,
38,0,38,0,,,,,,,,,,,,,,,,,,,,,,,,,,960.0831260001287,None,clear,48,39,silent,blue,958.0813303999603,None,None,958.0813303999603,None,,,,,,,,,,,,,,,,,,,,,,,,,,,,,,,,,,,103Silent,001,2022_Nov_28_1535,ProdSingRedoBetween,2021.2.3,59.895912912760174,
39,0,39,0,,,,,,,,,,,,,,,,,,,,,,,,,,962.5856629004702,None,power,75,40,silent,red,960.5846023000777,None,None,960.5846023000777,None,,,,,,,,,,,,,,,,,,,,,,,,,,,,,,,,,,,103Silent,001,2022_Nov_28_1535,ProdSingRedoBetween,2021.2.3,59.895912912760174,
40,0,40,0,,,,,,,,,,,,,,,,,,,,,,,,,,965.0881935004145,None,sweet,15,41,silent,yellow,963.0887157004327,None,None,963.0887157004327,None,,,,,,,,,,,,,,,,,,,,,,,,,,,,,,,,,,,103Silent,001,2022_Nov_28_1535,ProdSingRedoBetween,2021.2.3,59.895912912760174,
41,0,41,0,,,,,,,,,,,,,,,,,,,,,,,,,,967.5906813004985,None,committee,5,42,silent,yellow,965.5887617999688,None,None,965.5887617999688,None,,,,,,,,,,,,,,,,,,,,,,,,,,,,,,,,,,,103Silent,001,2022_Nov_28_1535,ProdSingRedoBetween,2021.2.3,59.895912912760174,
42,0,42,0,,,,,,,,,,,,,,,,,,,,,,,,,,970.1098265005276,None,straight,9,43,silent,yellow,968.0952110998333,None,None,968.0952110998333,None,,,,,,,,,,,,,,,,,,,,,,,,,,,,,,,,,,,103Silent,001,2022_Nov_28_1535,ProdSingRedoBetween,2021.2.3,59.895912912760174,
43,0,43,0,,,,,,,,,,,,,,,,,,,,,,,,,,972.6124390996993,None,order,62,44,silent,red,970.6116569004953,None,None,970.6116569004953,None,,,,,,,,,,,,,,,,,,,,,,,,,,,,,,,,,,,103Silent,001,2022_Nov_28_1535,ProdSingRedoBetween,2021.2.3,59.895912912760174,
44,0,44,0,,,,,,,,,,,,,,,,,,,,,,,,,,975.1148254005238,None,agency,10,45,silent,yellow,973.1152635999024,None,None,973.1152635999024,None,,,,,,,,,,,,,,,,,,,,,,,,,,,,,,,,,,,103Silent,001,2022_Nov_28_1535,ProdSingRedoBetween,2021.2.3,59.895912912760174,
45,0,45,0,,,,,,,,,,,,,,,,,,,,,,,,,,977.6172366002575,None,agreement,87,46,silent,red,975.6163178002462,None,None,975.6163178002462,None,,,,,,,,,,,,,,,,,,,,,,,,,,,,,,,,,,,103Silent,001,2022_Nov_28_1535,ProdSingRedoBetween,2021.2.3,59.895912912760174,
46,0,46,0,,,,,,,,,,,,,,,,,,,,,,,,,,980.136560600251,None,front,84,47,silent,red,978.1266478002071,None,None,978.1266478002071,None,,,,,,,,,,,,,,,,,,,,,,,,,,,,,,,,,,,103Silent,001,2022_Nov_28_1535,ProdSingRedoBetween,2021.2.3,59.895912912760174,
47,0,47,0,,,,,,,,,,,,,,,,,,,,,,,,,,982.6553734000772,None,population,25,48,silent,yellow,980.6401401003823,None,None,980.6401401003823,None,,,,,,,,,,,,,,,,,,,,,,,,,,,,,,,,,,,103Silent,001,2022_Nov_28_1535,ProdSingRedoBetween,2021.2.3,59.895912912760174,
48,0,48,0,,,,,,,,,,,,,,,,,,,,,,,,,,985.1746257003397,None,heavy,57,49,silent,blue,983.1616160003468,None,None,983.1616160003468,None,,,,,,,,,,,,,,,,,,,,,,,,,,,,,,,,,,,103Silent,001,2022_Nov_28_1535,ProdSingRedoBetween,2021.2.3,59.895912912760174,
49,0,49,0,,,,,,,,,,,,,,,,,,,,,,,,,,987.6937138997018,None,bitter,68,50,silent,red,985.6787302000448,None,None,985.6787302000448,None,,,,,,,,,,,,,,,,,,,,,,,,,,,,,,,,,,,103Silent,001,2022_Nov_28_1535,ProdSingRedoBetween,2021.2.3,59.895912912760174,
50,0,50,0,,,,,,,,,,,,,,,,,,,,,,,,,,990.1962077999488,None,revolution,36,51,silent,blue,988.1941760005429,None,None,988.1941760005429,None,,,,,,,,,,,,,,,,,,,,,,,,,,,,,,,,,,,103Silent,001,2022_Nov_28_1535,ProdSingRedoBetween,2021.2.3,59.895912912760174,
51,0,51,0,,,,,,,,,,,,,,,,,,,,,,,,,,992.6989464005455,None,nature,50,52,silent,blue,990.6968275001273,None,None,990.6968275001273,None,,,,,,,,,,,,,,,,,,,,,,,,,,,,,,,,,,,103Silent,001,2022_Nov_28_1535,ProdSingRedoBetween,2021.2.3,59.895912912760174,
52,0,52,0,,,,,,,,,,,,,,,,,,,,,,,,,,995.2181601002812,None,dozen,8,53,silent,yellow,993.2095654997975,None,None,993.2095654997975,None,,,,,,,,,,,,,,,,,,,,,,,,,,,,,,,,,,,103Silent,001,2022_Nov_28_1535,ProdSingRedoBetween,2021.2.3,59.895912912760174,
53,0,53,0,,,,,,,,,,,,,,,,,,,,,,,,,,997.7207343997434,None,whole,72,54,silent,red,995.7187002999708,None,None,995.7187002999708,None,,,,,,,,,,,,,,,,,,,,,,,,,,,,,,,,,,,103Silent,001,2022_Nov_28_1535,ProdSingRedoBetween,2021.2.3,59.895912912760174,
54,0,54,0,,,,,,,,,,,,,,,,,,,,,,,,,,1000.2399059999734,None,broad,32,55,silent,blue,998.2326111998409,None,None,998.2326111998409,None,,,,,,,,,,,,,,,,,,,,,,,,,,,,,,,,,,,103Silent,001,2022_Nov_28_1535,ProdSingRedoBetween,2021.2.3,59.895912912760174,
55,0,55,0,,,,,,,,,,,,,,,,,,,,,,,,,,1002.7440205998719,None,goose,64,56,silent,red,1000.7410797998309,None,None,1000.7410797998309,None,,,,,,,,,,,,,,,,,,,,,,,,,,,,,,,,,,,103Silent,001,2022_Nov_28_1535,ProdSingRedoBetween,2021.2.3,59.895912912760174,
56,0,56,0,,,,,,,,,,,,,,,,,,,,,,,,,,1005.2614361001179,None,government,6,57,silent,yellow,1003.2604146003723,None,None,1003.2604146003723,None,,,,,,,,,,,,,,,,,,,,,,,,,,,,,,,,,,,103Silent,001,2022_Nov_28_1535,ProdSingRedoBetween,2021.2.3,59.895912912760174,
57,0,57,0,,,,,,,,,,,,,,,,,,,,,,,,,,1007.7806481001899,None,opening,28,58,silent,yellow,1005.7658802000806,None,None,1005.7658802000806,None,,,,,,,,,,,,,,,,,,,,,,,,,,,,,,,,,,,103Silent,001,2022_Nov_28_1535,ProdSingRedoBetween,2021.2.3,59.895912912760174,
58,0,58,0,,,,,,,,,,,,,,,,,,,,,,,,,,1010.2831890005618,None,watch,21,59,silent,yellow,1008.2811727998778,None,None,1008.2811727998778,None,,,,,,,,,,,,,,,,,,,,,,,,,,,,,,,,,,,103Silent,001,2022_Nov_28_1535,ProdSingRedoBetween,2021.2.3,59.895912912760174,
59,0,59,0,,,,,,,,,,,,,,,,,,,,,,,,,,1012.7857486000285,None,article,71,60,silent,red,1010.7859204001725,None,None,1010.7859204001725,None,,,,,,,,,,,,,,,,,,,,,,,,,,,,,,,,,,,103Silent,001,2022_Nov_28_1535,ProdSingRedoBetween,2021.2.3,59.895912912760174,
60,0,60,0,,,,,,,,,,,,,,,,,,,,,,,,,,1015.3048927001655,None,captain,18,61,silent,yellow,1013.2899435004219,None,None,1013.2899435004219,None,,,,,,,,,,,,,,,,,,,,,,,,,,,,,,,,,,,103Silent,001,2022_Nov_28_1535,ProdSingRedoBetween,2021.2.3,59.895912912760174,
61,0,61,0,,,,,,,,,,,,,,,,,,,,,,,,,,1017.8237524004653,None,discovery,82,62,silent,red,1015.8093130998313,None,None,1015.8093130998313,None,,,,,,,,,,,,,,,,,,,,,,,,,,,,,,,,,,,103Silent,001,2022_Nov_28_1535,ProdSingRedoBetween,2021.2.3,59.895912912760174,
62,0,62,0,,,,,,,,,,,,,,,,,,,,,,,,,,1020.3265709998086,None,primary,12,63,silent,yellow,1018.3244321998209,None,None,1018.3244321998209,None,,,,,,,,,,,,,,,,,,,,,,,,,,,,,,,,,,,103Silent,001,2022_Nov_28_1535,ProdSingRedoBetween,2021.2.3,59.895912912760174,
63,0,63,0,,,,,,,,,,,,,,,,,,,,,,,,,,1022.8290889002383,None,series,73,64,silent,red,1020.8276479998603,None,None,1020.8276479998603,None,,,,,,,,,,,,,,,,,,,,,,,,,,,,,,,,,,,103Silent,001,2022_Nov_28_1535,ProdSingRedoBetween,2021.2.3,59.895912912760174,
64,0,64,0,,,,,,,,,,,,,,,,,,,,,,,,,,1025.3483808999881,None,edition,69,65,silent,red,1023.3337662005797,None,None,1023.3337662005797,None,,,,,,,,,,,,,,,,,,,,,,,,,,,,,,,,,,,103Silent,001,2022_Nov_28_1535,ProdSingRedoBetween,2021.2.3,59.895912912760174,
65,0,65,0,,,,,,,,,,,,,,,,,,,,,,,,,,1027.8508449001238,None,childhood,86,66,silent,red,1025.8501885998994,None,None,1025.8501885998994,None,,,,,,,,,,,,,,,,,,,,,,,,,,,,,,,,,,,103Silent,001,2022_Nov_28_1535,ProdSingRedoBetween,2021.2.3,59.895912912760174,
66,0,66,0,,,,,,,,,,,,,,,,,,,,,,,,,,1030.3698589997366,None,partner,30,67,silent,blue,1028.3561132997274,None,None,1028.3561132997274,None,,,,,,,,,,,,,,,,,,,,,,,,,,,,,,,,,,,103Silent,001,2022_Nov_28_1535,ProdSingRedoBetween,2021.2.3,59.895912912760174,
67,0,67,0,,,,,,,,,,,,,,,,,,,,,,,,,,1032.872481700033,None,spoke,47,68,silent,blue,1030.8704647002742,None,None,1030.8704647002742,None,,,,,,,,,,,,,,,,,,,,,,,,,,,,,,,,,,,103Silent,001,2022_Nov_28_1535,ProdSingRedoBetween,2021.2.3,59.895912912760174,
68,0,68,0,,,,,,,,,,,,,,,,,,,,,,,,,,1035.3745546005666,None,finish,37,69,silent,blue,1033.3735303999856,None,None,1033.3735303999856,None,,,,,,,,,,,,,,,,,,,,,,,,,,,,,,,,,,,103Silent,001,2022_Nov_28_1535,ProdSingRedoBetween,2021.2.3,59.895912912760174,
69,0,69,0,,,,,,,,,,,,,,,,,,,,,,,,,,1037.8938351003453,None,profession,40,70,silent,blue,1035.8795320997015,None,None,1035.8795320997015,None,,,,,,,,,,,,,,,,,,,,,,,,,,,,,,,,,,,103Silent,001,2022_Nov_28_1535,ProdSingRedoBetween,2021.2.3,59.895912912760174,
70,0,70,0,,,,,,,,,,,,,,,,,,,,,,,,,,1040.4132545003667,None,welcome,44,71,silent,blue,1038.4035307997838,None,None,1038.4035307997838,None,,,,,,,,,,,,,,,,,,,,,,,,,,,,,,,,,,,103Silent,001,2022_Nov_28_1535,ProdSingRedoBetween,2021.2.3,59.895912912760174,
71,0,71,0,,,,,,,,,,,,,,,,,,,,,,,,,,1042.9157746005803,None,gesture,4,72,silent,yellow,1040.914937400259,None,None,1040.914937400259,None,,,,,,,,,,,,,,,,,,,,,,,,,,,,,,,,,,,103Silent,001,2022_Nov_28_1535,ProdSingRedoBetween,2021.2.3,59.895912912760174,
72,0,72,0,,,,,,,,,,,,,,,,,,,,,,,,,,1045.4177894005552,None,build,31,73,silent,blue,1043.416774599813,None,None,1043.416774599813,None,,,,,,,,,,,,,,,,,,,,,,,,,,,,,,,,,,,103Silent,001,2022_Nov_28_1535,ProdSingRedoBetween,2021.2.3,59.895912912760174,
73,0,73,0,,,,,,,,,,,,,,,,,,,,,,,,,,1047.9209692003205,None,distance,53,74,silent,blue,1045.918604400009,None,None,1045.918604400009,None,,,,,,,,,,,,,,,,,,,,,,,,,,,,,,,,,,,103Silent,001,2022_Nov_28_1535,ProdSingRedoBetween,2021.2.3,59.895912912760174,
74,0,74,0,,,,,,,,,,,,,,,,,,,,,,,,,,1050.4232075000182,None,review,88,75,silent,red,1048.4212861005217,None,None,1048.4212861005217,None,,,,,,,,,,,,,,,,,,,,,,,,,,,,,,,,,,,103Silent,001,2022_Nov_28_1535,ProdSingRedoBetween,2021.2.3,59.895912912760174,
75,0,75,0,,,,,,,,,,,,,,,,,,,,,,,,,,1052.9256746005267,None,country,29,76,silent,blue,1050.923449200578,None,None,1050.923449200578,None,,,,,,,,,,,,,,,,,,,,,,,,,,,,,,,,,,,103Silent,001,2022_Nov_28_1535,ProdSingRedoBetween,2021.2.3,59.895912912760174,
76,0,76,0,,,,,,,,,,,,,,,,,,,,,,,,,,1055.4283742997795,None,count,89,77,silent,red,1053.4260352002457,None,None,1053.4260352002457,None,,,,,,,,,,,,,,,,,,,,,,,,,,,,,,,,,,,103Silent,001,2022_Nov_28_1535,ProdSingRedoBetween,2021.2.3,59.895912912760174,
77,0,77,0,,,,,,,,,,,,,,,,,,,,,,,,,,1057.9471311997622,None,relation,66,78,silent,red,1055.9323271997273,None,None,1055.9323271997273,None,,,,,,,,,,,,,,,,,,,,,,,,,,,,,,,,,,,103Silent,001,2022_Nov_28_1535,ProdSingRedoBetween,2021.2.3,59.895912912760174,
78,0,78,0,,,,,,,,,,,,,,,,,,,,,,,,,,1060.4499377999455,None,tennis,13,79,silent,yellow,1058.4476755997166,None,None,1058.4476755997166,None,,,,,,,,,,,,,,,,,,,,,,,,,,,,,,,,,,,103Silent,001,2022_Nov_28_1535,ProdSingRedoBetween,2021.2.3,59.895912912760174,
79,0,79,0,,,,,,,,,,,,,,,,,,,,,,,,,,1062.9524007001892,None,motion,45,80,silent,blue,1060.9501777002588,None,None,1060.9501777002588,None,,,,,,,,,,,,,,,,,,,,,,,,,,,,,,,,,,,103Silent,001,2022_Nov_28_1535,ProdSingRedoBetween,2021.2.3,59.895912912760174,
80,0,80,0,,,,,,,,,,,,,,,,,,,,,,,,,,1065.454874000512,None,running,80,81,silent,red,1063.454873399809,None,None,1063.454873399809,None,,,,,,,,,,,,,,,,,,,,,,,,,,,,,,,,,,,103Silent,001,2022_Nov_28_1535,ProdSingRedoBetween,2021.2.3,59.895912912760174,
81,0,81,0,,,,,,,,,,,,,,,,,,,,,,,,,,1067.9574293000624,None,interview,26,82,silent,yellow,1065.9583921004087,None,None,1065.9583921004087,None,,,,,,,,,,,,,,,,,,,,,,,,,,,,,,,,,,,103Silent,001,2022_Nov_28_1535,ProdSingRedoBetween,2021.2.3,59.895912912760174,
82,0,82,0,,,,,,,,,,,,,,,,,,,,,,,,,,1070.4598852004856,None,danger,60,83,silent,red,1068.457929700613,None,None,1068.457929700613,None,,,,,,,,,,,,,,,,,,,,,,,,,,,,,,,,,,,103Silent,001,2022_Nov_28_1535,ProdSingRedoBetween,2021.2.3,59.895912912760174,
83,0,83,0,,,,,,,,,,,,,,,,,,,,,,,,,,1072.9623547997326,None,history,76,84,silent,red,1070.9609959004447,None,None,1070.9609959004447,None,,,,,,,,,,,,,,,,,,,,,,,,,,,,,,,,,,,103Silent,001,2022_Nov_28_1535,ProdSingRedoBetween,2021.2.3,59.895912912760174,
84,0,84,0,,,,,,,,,,,,,,,,,,,,,,,,,,1075.4648317005485,None,military,52,85,silent,blue,1073.4626468997449,None,None,1073.4626468997449,None,,,,,,,,,,,,,,,,,,,,,,,,,,,,,,,,,,,103Silent,001,2022_Nov_28_1535,ProdSingRedoBetween,2021.2.3,59.895912912760174,
85,0,85,0,,,,,,,,,,,,,,,,,,,,,,,,,,1077.9671299001202,None,murder,23,86,silent,yellow,1075.9653833005577,None,None,1075.9653833005577,None,,,,,,,,,,,,,,,,,,,,,,,,,,,,,,,,,,,103Silent,001,2022_Nov_28_1535,ProdSingRedoBetween,2021.2.3,59.895912912760174,
86,0,86,0,,,,,,,,,,,,,,,,,,,,,,,,,,1080.469888200052,None,present,24,87,silent,yellow,1078.4678186001256,None,None,1078.4678186001256,None,,,,,,,,,,,,,,,,,,,,,,,,,,,,,,,,,,,103Silent,001,2022_Nov_28_1535,ProdSingRedoBetween,2021.2.3,59.895912912760174,
87,0,87,0,,,,,,,,,,,,,,,,,,,,,,,,,,1082.9723805002868,None,master,33,88,silent,blue,1080.9721186002716,None,None,1080.9721186002716,None,,,,,,,,,,,,,,,,,,,,,,,,,,,,,,,,,,,103Silent,001,2022_Nov_28_1535,ProdSingRedoBetween,2021.2.3,59.895912912760174,
88,0,88,0,,,,,,,,,,,,,,,,,,,,,,,,,,1085.49163089972,None,theme,14,89,silent,yellow,1083.4761685002595,None,None,1083.4761685002595,None,,,,,,,,,,,,,,,,,,,,,,,,,,,,,,,,,,,103Silent,001,2022_Nov_28_1535,ProdSingRedoBetween,2021.2.3,59.895912912760174,
89,0,89,0,,,,,,,,,,,,,,,,,,,,,,,,,,1087.9941063001752,None,track,49,90,silent,blue,1085.9921761006117,None,None,1085.9921761006117,None,,,,,,,,,,,,,,,,,,,,,,,,,,,,,,,,,,,103Silent,001,2022_Nov_28_1535,ProdSingRedoBetween,2021.2.3,59.895912912760174,
,,,,,,,,,,,,,,,,,,,,,,,,,,,,,,,,,,,,,,,,,1088.4947564005852,None,k,46.42141640000045,1088.4947564005852,None,,,,,,,,,,,,,,,,,,,,,,,,,,,,,103Silent,001,2022_Nov_28_1535,ProdSingRedoBetween,2021.2.3,59.895912912760174,
,,,,0,0,0,0,,,,,,,,,,,,,,,,,,,,,,1161.0028744004667,None,,,,,,,,,,,,,,,,,portion,114,1,silent,new,null,1135.4536254005507,None,1135.4536254005507,None,1,4.886356099508703,1135.4536254005507,None,4.886356099508703,1140.3681757999584,None,1140.8842866998166,None,1140.8842866998166,None,r,20.095705499872565,1140.8842866998166,None,20.095705499872565,,,103Silent,001,2022_Nov_28_1535,ProdSingRedoBetween,2021.2.3,59.895912912760174,
,,,,1,0,1,0,,,,,,,,,,,,,,,,,,,,,,1173.4791366998106,None,,,,,,,,,,,,,,,,,murder,23,2,silent,old,yellow,1161.5212262999266,None,1161.5212262999266,None,6,5.642617699690163,1161.5212262999266,None,5.642617699690163,1167.1942563001066,None,1167.70669549983,None,1167.70669549983,None,f,5.753214200027287,1167.70669549983,None,5.753214200027287,,,103Silent,001,2022_Nov_28_1535,ProdSingRedoBetween,2021.2.3,59.895912912760174,
,,,,2,0,2,0,,,,,,,,,,,,,,,,,,,,,,1180.5545738004148,None,,,,,,,,,,,,,,,,,blind,103,3,silent,new,null,1173.9881266998127,None,1173.9881266998127,None,3,2.6158183999359608,1173.9881266998127,None,2.6158183999359608,1176.6330487001687,None,1177.1347582004964,None,1177.1347582004964,None,n,3.3892326997593045,1177.1347582004964,None,3.3892326997593045,,,103Silent,001,2022_Nov_28_1535,ProdSingRedoBetween,2021.2.3,59.895912912760174,
,,,,3,0,3,0,,,,,,,,,,,,,,,,,,,,,,1186.077096500434,None,,,,,,,,,,,,,,,,,silence,159,4,silent,new,null,1181.0726573998109,None,1181.0726573998109,None,2,2.7151691000908613,1181.0726573998109,None,2.7151691000908613,1183.8091355999932,None,1184.3244783002883,None,1184.3244783002883,None,n,1.7275275997817516,1184.3244783002883,None,1.7275275997817516,,,103Silent,001,2022_Nov_28_1535,ProdSingRedoBetween,2021.2.3,59.895912912760174,
,,,,4,0,4,0,,,,,,,,,,,,,,,,,,,,,,1192.631467600353,None,,,,,,,,,,,,,,,,,exchange,111,5,silent,new,null,1186.593923999928,None,1186.593923999928,None,5,3.8901394000276923,1186.593923999928,None,3.8901394000276923,1190.519553700462,None,1191.0302646998316,None,1191.0302646998316,None,r,1.5735064996406436,1191.0302646998316,None,1.5735064996406436,,,103Silent,001,2022_Nov_28_1535,ProdSingRedoBetween,2021.2.3,59.895912912760174,
,,,,5,0,5,0,,,,,,,,,,,,,,,,,,,,,,1198.2039846004918,None,,,,,,,,,,,,,,,,,background,164,6,silent,new,null,1193.1408484997228,None,1193.1408484997228,None,3,2.6470977002754807,1193.1408484997228,None,2.6470977002754807,1195.822293500416,None,1196.3414460998029,None,1196.3414460998029,None,n,1.8463369999080896,1196.3414460998029,None,1.8463369999080896,,,103Silent,001,2022_Nov_28_1535,ProdSingRedoBetween,2021.2.3,59.895912912760174,
,,,,6,0,6,0,,,,,,,,,,,,,,,,,,,,,,1205.3278398001567,None,,,,,,,,,,,,,,,,,scene,38,7,silent,old,blue,1198.7133542001247,None,1198.7133542001247,None,1,2.6824489003047347,1198.7133542001247,None,2.6824489003047347,1201.4247986003757,None,1201.925622000359,None,1201.925622000359,None,n,3.3741597002372146,1201.925622000359,None,3.3741597002372146,,,103Silent,001,2022_Nov_28_1535,ProdSingRedoBetween,2021.2.3,59.895912912760174,
,,,,7,0,7,0,,,,,,,,,,,,,,,,,,,,,,1210.4996589999646,None,,,,,,,,,,,,,,,,,poetry,108,8,silent,new,null,1205.8324106000364,None,1205.8324106000364,None,6,2.6914453003555536,1205.8324106000364,None,2.6914453003555536,1208.5488227996975,None,1209.0479616001248,None,1209.0479616001248,None,r,1.4278727993369102,1209.0479616001248,None,1.4278727993369102,,,103Silent,001,2022_Nov_28_1535,ProdSingRedoBetween,2021.2.3,59.895912912760174,
,,,,8,0,8,0,,,,,,,,,,,,,,,,,,,,,,1218.292136900127,None,,,,,,,,,,,,,,,,,relation,66,9,silent,old,red,1211.0055162003264,None,1211.0055162003264,None,2,5.214317800477147,1211.0055162003264,None,5.214317800477147,1216.2386901006103,None,1216.7420218000188,None,1216.7420218000188,None,f,1.5178260998800397,1216.7420218000188,None,1.5178260998800397,,,103Silent,001,2022_Nov_28_1535,ProdSingRedoBetween,2021.2.3,59.895912912760174,
,,,,9,0,9,0,,,,,,,,,,,,,,,,,,,,,,1222.7117744004354,None,,,,,,,,,,,,,,,,,nature,50,10,silent,old,blue,1218.7926014997065,None,1218.7926014997065,None,4,2.499379999935627,1218.7926014997065,None,2.499379999935627,1221.312193499878,None,1221.8276506997645,None,1221.8276506997645,None,f,0.8642249004915357,1221.8276506997645,None,0.8642249004915357,,,103Silent,001,2022_Nov_28_1535,ProdSingRedoBetween,2021.2.3,59.895912912760174,
,,,,10,0,10,0,,,,,,,,,,,,,,,,,,,,,,1228.3170881997794,None,,,,,,,,,,,,,,,,,measure,54,11,silent,old,blue,1223.2262789001688,None,1223.2262789001688,None,6,3.4175390005111694,1223.2262789001688,None,3.4175390005111694,1226.6698706001043,None,1227.1881857002154,None,1227.1881857002154,None,r,1.103507800027728,1227.1881857002154,None,1.103507800027728,,,103Silent,001,2022_Nov_28_1535,ProdSingRedoBetween,2021.2.3,59.895912912760174,
,,,,11,0,11,0,,,,,,,,,,,,,,,,,,,,,,1233.1721655000001,None,,,,,,,,,,,,,,,,,front,84,12,silent,old,red,1228.821977400221,None,1228.821977400221,None,3,2.669869000092149,1228.821977400221,None,2.669869000092149,1231.521273500286,None,1232.0252424003556,None,1232.0252424003556,None,n,1.1225405996665359,1232.0252424003556,None,1.1225405996665359,,,103Silent,001,2022_Nov_28_1535,ProdSingRedoBetween,2021.2.3,59.895912912760174,
,,,,12,0,12,0,,,,,,,,,,,,,,,,,,,,,,1240.8648420004174,None,,,,,,,,,,,,,,,,,passage,141,13,silent,new,null,1233.672790300101,None,1233.672790300101,None,1,5.867020799778402,1233.672790300101,None,5.867020799778402,1239.5647312002257,None,1240.078985599801,None,1240.078985599801,None,n,0.7567456997931004,1240.078985599801,None,0.7567456997931004,,,103Silent,001,2022_Nov_28_1535,ProdSingRedoBetween,2021.2.3,59.895912912760174,
,,,,13,0,13,0,,,,,,,,,,,,,,,,,,,,,,1246.3028720999137,None,,,,,,,,,,,,,,,,,property,175,14,silent,new,null,1241.3803032999858,None,1241.3803032999858,None,4,2.8395462995395064,1241.3803032999858,None,2.8395462995395064,1244.2525706002489,None,1244.7715472998098,None,1244.7715472998098,None,f,1.5042524002492428,1244.7715472998098,None,1.5042524002492428,,,103Silent,001,2022_Nov_28_1535,ProdSingRedoBetween,2021.2.3,59.895912912760174,
,,,,14,0,14,0,,,,,,,,,,,,,,,,,,,,,,1253.076903000474,None,,,,,,,,,,,,,,,,,graduate,107,15,silent,new,null,1246.805009700358,None,1246.805009700358,None,5,4.086872699670494,1246.805009700358,None,4.086872699670494,1250.9294966999441,None,1251.4405081998557,None,1251.4405081998557,None,f,1.6114747999235988,1251.4405081998557,None,1.6114747999235988,,,103Silent,001,2022_Nov_28_1535,ProdSingRedoBetween,2021.2.3,59.895912912760174,
,,,,15,0,15,0,,,,,,,,,,,,,,,,,,,,,,1257.7298090998083,None,,,,,,,,,,,,,,,,,trash,118,16,silent,new,null,1253.5826652999967,None,1253.5826652999967,None,2,1.8371067997068167,1253.5826652999967,None,1.8371067997068167,1255.44483149983,None,1255.9522218005732,None,1255.9522218005732,None,n,1.7554339999333024,1255.9522218005732,None,1.7554339999333024,,,103Silent,001,2022_Nov_28_1535,ProdSingRedoBetween,2021.2.3,59.895912912760174,
,,,,16,0,16,0,,,,,,,,,,,,,,,,,,,,,,1262.8851413000375,None,,,,,,,,,,,,,,,,,route,116,17,silent,new,null,1258.2305576996878,None,1258.2305576996878,None,4,2.765350899659097,1258.2305576996878,None,2.765350899659097,1261.0241165999323,None,1261.542877299711,None,1261.542877299711,None,f,1.3248358005657792,1261.542877299711,None,1.3248358005657792,,,103Silent,001,2022_Nov_28_1535,ProdSingRedoBetween,2021.2.3,59.895912912760174,
,,,,17,0,17,0,,,,,,,,,,,,,,,,,,,,,,1269.1748280003667,None,,,,,,,,,,,,,,,,,style,102,18,silent,new,null,1263.4019900001585,None,1263.4019900001585,None,5,3.8657692996785045,1263.4019900001585,None,3.8657692996785045,1267.2927951999009,None,1267.8066599005833,None,1267.8066599005833,None,n,1.3410342996940017,1267.8066599005833,None,1.3410342996940017,,,103Silent,001,2022_Nov_28_1535,ProdSingRedoBetween,2021.2.3,59.895912912760174,
,,,,18,0,18,0,,,,,,,,,,,,,,,,,,,,,,1277.2842795001343,None,,,,,,,,,,,,,,,,,course,154,19,silent,new,null,1269.6787611003965,None,1269.6787611003965,None,3,5.572999400086701,1269.6787611003965,None,5.572999400086701,1275.2814490003511,None,1275.781438300386,None,1275.781438300386,None,n,1.470478500239551,1275.781438300386,None,1.470478500239551,,,103Silent,001,2022_Nov_28_1535,ProdSingRedoBetween,2021.2.3,59.895912912760174,
,,,,19,0,19,0,,,,,,,,,,,,,,,,,,,,,,1284.6735490998253,None,,,,,,,,,,,,,,,,,harmony,156,20,silent,new,null,1277.8052781997249,None,1277.8052781997249,None,4,4.798389599658549,1277.8052781997249,None,4.798389599658549,1282.6244986997917,None,1283.1387654002756,None,1283.1387654002756,None,n,1.5049668001011014,1283.1387654002756,None,1.5049668001011014,,,103Silent,001,2022_Nov_28_1535,ProdSingRedoBetween,2021.2.3,59.895912912760174,
,,,,20,0,20,0,,,,,,,,,,,,,,,,,,,,,,1289.8953534998,None,,,,,,,,,,,,,,,,,balance,160,21,silent,new,null,1285.1898228004575,None,1285.1898228004575,None,6,2.6698190001770854,1285.1898228004575,None,2.6698190001770854,1287.8796795001253,None,1288.393599100411,None,1288.393599100411,None,r,1.4821254005655646,1288.393599100411,None,1.4821254005655646,,,103Silent,001,2022_Nov_28_1535,ProdSingRedoBetween,2021.2.3,59.895912912760174,
,,,,21,0,21,0,,,,,,,,,,,,,,,,,,,,,,1297.6697361003608,None,,,,,,,,,,,,,,,,,broad,32,22,silent,old,blue,1290.405472700484,None,1290.405472700484,None,1,4.062435899861157,1290.405472700484,None,4.062435899861157,1294.4913317002356,None,1295.001884800382,None,1295.001884800382,None,n,2.6498215002939105,1295.001884800382,None,2.6498215002939105,,,103Silent,001,2022_Nov_28_1535,ProdSingRedoBetween,2021.2.3,59.895912912760174,
,,,,22,0,22,0,,,,,,,,,,,,,,,,,,,,,,1302.0408279998228,None,,,,,,,,,,,,,,,,,distance,53,23,silent,old,blue,1298.1701694997028,None,1298.1701694997028,None,4,2.817636700347066,1298.1701694997028,None,2.817636700347066,1301.013925500214,None,1301.5283649004996,None,1301.5283649004996,None,f,0.4914301997050643,1301.5283649004996,None,0.4914301997050643,,,103Silent,001,2022_Nov_28_1535,ProdSingRedoBetween,2021.2.3,59.895912912760174,
,,,,23,0,23,0,,,,,,,,,,,,,,,,,,,,,,1306.0838841004297,None,,,,,,,,,,,,,,,,,quarter,158,24,silent,new,null,1302.5461902003735,None,1302.5461902003735,None,2,2.2494713999330997,1302.5461902003735,None,2.2494713999330997,1304.8270078003407,None,1305.3274157000706,None,1305.3274157000706,None,n,0.7242274004966021,1305.3274157000706,None,0.7242274004966021,,,103Silent,001,2022_Nov_28_1535,ProdSingRedoBetween,2021.2.3,59.895912912760174,
,,,,24,0,24,0,,,,,,,,,,,,,,,,,,,,,,1312.603425799869,None,,,,,,,,,,,,,,,,,recall,157,25,silent,new,null,1306.5988197000697,None,1306.5988197000697,None,3,4.324912800453603,1306.5988197000697,None,4.324912800453603,1310.9525730004534,None,1311.4669323004782,None,1311.4669323004782,None,f,1.1128359008580446,1311.4669323004782,None,1.1128359008580446,,,103Silent,001,2022_Nov_28_1535,ProdSingRedoBetween,2021.2.3,59.895912912760174,
,,,,25,0,25,0,,,,,,,,,,,,,,,,,,,,,,1317.1225091004744,None,,,,,,,,,,,,,,,,,problem,172,26,silent,new,null,1313.1299889003858,None,1313.1299889003858,None,6,2.513563599437475,1313.1299889003858,None,2.513563599437475,1315.6945229005069,None,1316.210572199896,None,1316.210572199896,None,r,0.8971191998571157,1316.210572199896,None,0.8971191998571157,,,103Silent,001,2022_Nov_28_1535,ProdSingRedoBetween,2021.2.3,59.895912912760174,
,,,,26,0,26,0,,,,,,,,,,,,,,,,,,,,,,1323.6454575005919,None,,,,,,,,,,,,,,,,,short,168,27,silent,new,null,1317.6230432000011,None,1317.6230432000011,None,1,4.404730999842286,1317.6230432000011,None,4.404730999842286,1322.045090300031,None,1322.5460502002388,None,1322.5460502002388,None,n,1.081563899293542,1322.5460502002388,None,1.081563899293542,,,103Silent,001,2022_Nov_28_1535,ProdSingRedoBetween,2021.2.3,59.895912912760174,
,,,,27,0,27,0,,,,,,,,,,,,,,,,,,,,,,1328.7507771002129,None,,,,,,,,,,,,,,,,,block,16,28,silent,old,yellow,1324.1517062997445,None,1324.1517062997445,None,4,2.8999432995915413,1324.1517062997445,None,2.8999432995915413,1327.0831703003496,None,1327.5893852999434,None,1327.5893852999434,None,n,1.142288999632001,1327.5893852999434,None,1.142288999632001,,,103Silent,001,2022_Nov_28_1535,ProdSingRedoBetween,2021.2.3,59.895912912760174,
,,,,28,0,28,0,,,,,,,,,,,,,,,,,,,,,,1334.7230975003913,None,,,,,,,,,,,,,,,,,union,170,29,silent,new,null,1329.2540610004216,None,1329.2540610004216,None,6,3.485598700121045,1329.2540610004216,None,3.485598700121045,1332.7570823999122,None,1333.2793259005994,None,1333.2793259005994,None,r,1.428349600173533,1333.2793259005994,None,1.428349600173533,,,103Silent,001,2022_Nov_28_1535,ProdSingRedoBetween,2021.2.3,59.895912912760174,
,,,,29,0,29,0,,,,,,,,,,,,,,,,,,,,,,1340.0787901002914,None,,,,,,,,,,,,,,,,,opening,28,30,silent,old,yellow,1335.2363363001496,None,1335.2363363001496,None,6,3.295333500020206,1335.2363363001496,None,3.295333500020206,1338.5614537000656,None,1339.0611699,None,1339.0611699,None,r,0.9985819002613425,1339.0611699,None,0.9985819002613425,,,103Silent,001,2022_Nov_28_1535,ProdSingRedoBetween,2021.2.3,59.895912912760174,
,,,,30,0,30,0,,,,,,,,,,,,,,,,,,,,,,1344.716726699844,None,,,,,,,,,,,,,,,,,country,29,31,silent,old,blue,1340.5878009004518,None,1340.5878009004518,None,6,3.5437928000465035,1340.5878009004518,None,3.5437928000465035,1344.1517106005922,None,1344.6691072005779,None,1344.6691072005779,None,r,0.030524100176990032,1344.6691072005779,None,0.030524100176990032,,,103Silent,001,2022_Nov_28_1535,ProdSingRedoBetween,2021.2.3,59.895912912760174,
,,,,31,0,31,0,,,,,,,,,,,,,,,,,,,,,,1349.0876099998131,None,,,,,,,,,,,,,,,,,history,76,32,silent,old,red,1345.2217057999223,None,1345.2217057999223,None,5,2.5018127001821995,1345.2217057999223,None,2.5018127001821995,1347.756812499836,None,1348.270508300513,None,1348.270508300513,None,f,0.7890856005251408,1348.270508300513,None,0.7890856005251408,,,103Silent,001,2022_Nov_28_1535,ProdSingRedoBetween,2021.2.3,59.895912912760174,
,,,,32,0,32,0,,,,,,,,,,,,,,,,,,,,,,1353.992602900602,None,,,,,,,,,,,,,,,,,under,55,33,silent,old,blue,1349.594654600136,None,1349.594654600136,None,2,2.6169948000460863,1349.594654600136,None,2.6169948000460863,1352.2423884999007,None,1352.7581794001162,None,1352.7581794001162,None,n,1.205536900088191,1352.7581794001162,None,1.205536900088191,,,103Silent,001,2022_Nov_28_1535,ProdSingRedoBetween,2021.2.3,59.895912912760174,
,,,,33,0,33,0,,,,,,,,,,,,,,,,,,,,,,1359.2812919002026,None,,,,,,,,,,,,,,,,,edition,69,34,silent,old,red,1354.4931592000648,None,1354.4931592000648,None,5,3.646523899398744,1354.4931592000648,None,3.646523899398744,1358.1688726004213,None,1358.6821373999119,None,1358.6821373999119,None,f,0.5774886002764106,1358.6821373999119,None,0.5774886002764106,,,103Silent,001,2022_Nov_28_1535,ProdSingRedoBetween,2021.2.3,59.895912912760174,
,,,,34,0,34,0,,,,,,,,,,,,,,,,,,,,,,1363.8858310002834,None,,,,,,,,,,,,,,,,,trial,74,35,silent,old,red,1359.7819568999112,None,1359.7819568999112,None,6,2.34954550024122,1359.7819568999112,None,2.34954550024122,1362.1504995003343,None,1362.6584200998768,None,1362.6584200998768,None,r,1.2092279000207782,1362.6584200998768,None,1.2092279000207782,,,103Silent,001,2022_Nov_28_1535,ProdSingRedoBetween,2021.2.3,59.895912912760174,
,,,,35,0,35,0,,,,,,,,,,,,,,,,,,,,,,1370.0920425001532,None,,,,,,,,,,,,,,,,,shock,123,36,silent,new,null,1364.3912420002744,None,1364.3912420002744,None,3,3.9802978998050094,1364.3912420002744,None,3.9802978998050094,1368.403013699688,None,1368.910152300261,None,1368.910152300261,None,n,1.1574528003111482,1368.910152300261,None,1.1574528003111482,,,103Silent,001,2022_Nov_28_1535,ProdSingRedoBetween,2021.2.3,59.895912912760174,
,,,,36,0,36,0,,,,,,,,,,,,,,,,,,,,,,1376.5151246003807,None,,,,,,,,,,,,,,,,,industry,65,37,silent,old,red,1370.6014606999233,None,1370.6014606999233,None,6,2.2340787006542087,1370.6014606999233,None,2.2340787006542087,1372.8658012999222,None,1373.3798818998039,None,1373.3798818998039,None,r,3.1196741005405784,1373.3798818998039,None,3.1196741005405784,,,103Silent,001,2022_Nov_28_1535,ProdSingRedoBetween,2021.2.3,59.895912912760174,
,,,,37,0,37,0,,,,,,,,,,,,,,,,,,,,,,1382.138317800127,None,,,,,,,,,,,,,,,,,leader,119,38,silent,new,null,1377.0219950005412,None,1377.0219950005412,None,1,3.6535203997045755,1377.0219950005412,None,3.6535203997045755,1380.7031845999882,None,1381.2110692998394,None,1381.2110692998394,None,n,0.9045425998046994,1381.2110692998394,None,0.9045425998046994,,,103Silent,001,2022_Nov_28_1535,ProdSingRedoBetween,2021.2.3,59.895912912760174,
,,,,38,0,38,0,,,,,,,,,,,,,,,,,,,,,,1385.9744704002514,None,,,,,,,,,,,,,,,,,member,166,39,silent,new,null,1382.6681842003018,None,1382.6681842003018,None,2,2.0072480998933315,1382.6681842003018,None,2.0072480998933315,1384.71108570043,None,1385.2271849000826,None,1385.2271849000826,None,n,0.7284241998568177,1385.2271849000826,None,0.7284241998568177,,,103Silent,001,2022_Nov_28_1535,ProdSingRedoBetween,2021.2.3,59.895912912760174,
,,,,39,0,39,0,,,,,,,,,,,,,,,,,,,,,,1390.0453316997737,None,,,,,,,,,,,,,,,,,population,25,40,silent,old,yellow,1386.4868445005268,None,1386.4868445005268,None,5,2.916691799648106,1386.4868445005268,None,2.916691799648106,1389.4318398004398,None,1389.9497089004144,None,1389.9497089004144,None,f,0.06985799968242645,1389.9497089004144,None,0.06985799968242645,,,103Silent,001,2022_Nov_28_1535,ProdSingRedoBetween,2021.2.3,59.895912912760174,
,,,,40,0,40,0,,,,,,,,,,,,,,,,,,,,,,1393.6821515001357,None,,,,,,,,,,,,,,,,,platform,91,41,silent,new,null,1390.5534274000674,None,1390.5534274000674,None,3,1.8741061994805932,1390.5534274000674,None,1.8741061994805932,1392.4520910000429,None,1392.9671948999166,None,1392.9671948999166,None,n,0.6923683993518353,1392.9671948999166,None,0.6923683993518353,,,103Silent,001,2022_Nov_28_1535,ProdSingRedoBetween,2021.2.3,59.895912912760174,
,,,,41,0,41,0,,,,,,,,,,,,,,,,,,,,,,1397.0525619005784,None,,,,,,,,,,,,,,,,,account,110,42,silent,new,null,1394.1866589002311,None,1394.1866589002311,None,2,2.0968299992382526,1394.1866589002311,None,2.0968299992382526,1396.3050348004326,None,1396.8235343005508,None,1396.8235343005508,None,n,0.20404800027608871,1396.8235343005508,None,0.20404800027608871,,,103Silent,001,2022_Nov_28_1535,ProdSingRedoBetween,2021.2.3,59.895912912760174,
,,,,42,0,42,0,,,,,,,,,,,,,,,,,,,,,,1401.9263673005626,None,,,,,,,,,,,,,,,,,right,109,43,silent,new,null,1397.555309199728,None,1397.555309199728,None,4,2.3282131999731064,1397.555309199728,None,2.3282131999731064,1399.9068263005465,None,1400.4224054003134,None,1400.4224054003134,None,f,1.4772108001634479,1400.4224054003134,None,1.4772108001634479,,,103Silent,001,2022_Nov_28_1535,ProdSingRedoBetween,2021.2.3,59.895912912760174,
,,,,43,0,43,0,,,,,,,,,,,,,,,,,,,,,,1407.3291257005185,None,,,,,,,,,,,,,,,,,theme,14,44,silent,old,yellow,1402.445407900028,None,1402.445407900028,None,6,2.9980443995445967,1402.445407900028,None,2.9980443995445967,1405.4604789000005,None,1405.9676405005157,None,1405.9676405005157,None,r,1.339890300296247,1405.9676405005157,None,1.339890300296247,,,103Silent,001,2022_Nov_28_1535,ProdSingRedoBetween,2021.2.3,59.895912912760174,
,,,,44,0,44,0,,,,,,,,,,,,,,,,,,,,,,1410.7991153001785,None,,,,,,,,,,,,,,,,,escape,3,45,silent,old,yellow,1407.8295312002301,None,1407.8295312002301,None,5,2.2619103994220495,1407.8295312002301,None,2.2619103994220495,1410.1156617002562,None,1410.6263517001644,None,1410.6263517001644,None,f,0.15321759972721338,1410.6263517001644,None,0.15321759972721338,,,103Silent,001,2022_Nov_28_1535,ProdSingRedoBetween,2021.2.3,59.895912912760174,
,,,,45,0,45,0,,,,,,,,,,,,,,,,,,,,,,1414.8198875999078,None,,,,,,,,,,,,,,,,,strain,7,46,silent,old,yellow,1411.3041481003165,None,1411.3041481003165,None,4,2.29135060030967,1411.3041481003165,None,2.29135060030967,1413.6204622006044,None,1414.1356463003904,None,1414.1356463003904,None,f,0.6678033005446196,1414.1356463003904,None,0.6678033005446196,,,103Silent,001,2022_Nov_28_1535,ProdSingRedoBetween,2021.2.3,59.895912912760174,
,,,,46,0,46,0,,,,,,,,,,,,,,,,,,,,,,1417.8405208000913,None,,,,,,,,,,,,,,,,,staff,148,47,silent,new,null,1415.3295651003718,None,1415.3295651003718,None,1,1.6818848000839353,1415.3295651003718,None,1.6818848000839353,1417.0397305004299,None,1417.5391893004999,None,1417.5391893004999,None,n,0.2723198998719454,1417.5391893004999,None,0.2723198998719454,,,103Silent,001,2022_Nov_28_1535,ProdSingRedoBetween,2021.2.3,59.895912912760174,
,,,,47,0,47,0,,,,,,,,,,,,,,,,,,,,,,1421.9103495003656,None,,,,,,,,,,,,,,,,,colonel,178,48,silent,new,null,1418.3492996003479,None,1418.3492996003479,None,1,2.15022880025208,1418.3492996003479,None,2.15022880025208,1420.5324972001836,None,1421.0471304999664,None,1421.0471304999664,None,n,0.8364438004791737,1421.0471304999664,None,0.8364438004791737,,,103Silent,001,2022_Nov_28_1535,ProdSingRedoBetween,2021.2.3,59.895912912760174,
,,,,48,0,48,0,,,,,,,,,,,,,,,,,,,,,,1426.0825805002823,None,,,,,,,,,,,,,,,,,heavy,57,49,silent,old,blue,1422.421539099887,None,1422.421539099887,None,3,2.9018957996740937,1422.421539099887,None,2.9018957996740937,1425.3480927003548,None,1425.851255199872,None,1425.851255199872,None,n,0.2002543993294239,1425.851255199872,None,0.2002543993294239,,,103Silent,001,2022_Nov_28_1535,ProdSingRedoBetween,2021.2.3,59.895912912760174,
,,,,49,0,49,0,,,,,,,,,,,,,,,,,,,,,,1429.172659800388,None,,,,,,,,,,,,,,,,,vision,104,50,silent,new,null,1426.603170200251,None,1426.603170200251,None,5,1.9202873995527625,1426.603170200251,None,1.9202873995527625,1428.556483800523,None,1429.0674168998376,None,1429.0674168998376,None,f,0.08024969976395369,1429.0674168998376,None,0.08024969976395369,,,103Silent,001,2022_Nov_28_1535,ProdSingRedoBetween,2021.2.3,59.895912912760174,
,,,,50,0,50,0,,,,,,,,,,,,,,,,,,,,,,1434.4394632996991,None,,,,,,,,,,,,,,,,,welcome,44,51,silent,old,blue,1429.6892458004877,None,1429.6892458004877,None,4,3.7862139996141195,1429.6892458004877,None,3.7862139996141195,1433.507112200372,None,1434.0245733996853,None,1434.0245733996853,None,f,0.39502330031245947,1434.0245733996853,None,0.39502330031245947,,,103Silent,001,2022_Nov_28_1535,ProdSingRedoBetween,2021.2.3,59.895912912760174,
,,,,51,0,51,0,,,,,,,,,,,,,,,,,,,,,,1437.9428073000163,None,,,,,,,,,,,,,,,,,quantity,22,52,silent,old,yellow,1434.9452873999253,None,1434.9452873999253,None,3,2.1061781998723745,1434.9452873999253,None,2.1061781998723745,1437.0776668004692,None,1437.5942174000666,None,1437.5942174000666,None,n,0.3291718000546098,1437.5942174000666,None,0.3291718000546098,,,103Silent,001,2022_Nov_28_1535,ProdSingRedoBetween,2021.2.3,59.895912912760174,
,,,,52,0,52,0,,,,,,,,,,,,,,,,,,,,,,1445.0500953001902,None,,,,,,,,,,,,,,,,,bitter,68,53,silent,old,red,1438.444150400348,None,1438.444150400348,None,2,4.463229699991643,1438.444150400348,None,4.463229699991643,1442.9401796003804,None,1443.4508642004803,None,1443.4508642004803,None,f,1.5685745999217033,1443.4508642004803,None,1.5685745999217033,,,103Silent,001,2022_Nov_28_1535,ProdSingRedoBetween,2021.2.3,59.895912912760174,
,,,,53,0,53,0,,,,,,,,,,,,,,,,,,,,,,1448.9707137998194,None,,,,,,,,,,,,,,,,,pancakes,19,54,silent,old,yellow,1445.5614453004673,None,1445.5614453004673,None,1,2.1460352996364236,1445.5614453004673,None,2.1460352996364236,1447.739072999917,None,1448.2532630003989,None,1448.2532630003989,None,n,0.6862075002864003,1448.2532630003989,None,0.6862075002864003,,,103Silent,001,2022_Nov_28_1535,ProdSingRedoBetween,2021.2.3,59.895912912760174,
,,,,54,0,54,0,,,,,,,,,,,,,,,,,,,,,,1452.2573426002637,None,,,,,,,,,,,,,,,,,trend,113,55,silent,new,null,1449.485368099995,None,1449.485368099995,None,3,1.838086299598217,1449.485368099995,None,1.838086299598217,1451.3419866999611,None,1451.856894900091,None,1451.856894900091,None,n,0.37052719946950674,1451.856894900091,None,0.37052719946950674,,,103Silent,001,2022_Nov_28_1535,ProdSingRedoBetween,2021.2.3,59.895912912760174,
,,,,55,0,55,0,,,,,,,,,,,,,,,,,,,,,,1458.196425399743,None,,,,,,,,,,,,,,,,,piece,59,56,silent,old,yellow,1452.779678400606,None,1452.779678400606,None,6,4.343727600760758,1452.779678400606,None,4.343727600760758,1457.1467188997194,None,1457.6521437000483,None,1457.6521437000483,None,r,0.5192839000374079,1457.6521437000483,None,0.5192839000374079,,,103Silent,001,2022_Nov_28_1535,ProdSingRedoBetween,2021.2.3,59.895912912760174,
,,,,56,0,56,0,,,,,,,,,,,,,,,,,,,,,,1461.7834863997996,None,,,,,,,,,,,,,,,,,tennis,13,57,silent,old,yellow,1458.7077075000852,None,1458.7077075000852,None,3,1.9677032995969057,1458.7077075000852,None,1.9677032995969057,1460.702008000575,None,1461.217574399896,None,1461.217574399896,None,n,0.5378330005332828,1461.217574399896,None,0.5378330005332828,,,103Silent,001,2022_Nov_28_1535,ProdSingRedoBetween,2021.2.3,59.895912912760174,
,,,,57,0,57,0,,,,,,,,,,,,,,,,,,,,,,1467.023517000489,None,,,,,,,,,,,,,,,,,series,73,58,silent,old,red,1462.2945488998666,None,1462.2945488998666,None,6,4.116815899498761,1462.2945488998666,None,4.116815899498761,1466.4397809002548,None,1466.9554465999827,None,1466.9554465999827,None,r,0.040017000399529934,1466.9554465999827,None,0.040017000399529934,,,103Silent,001,2022_Nov_28_1535,ProdSingRedoBetween,2021.2.3,59.895912912760174,
,,,,58,0,58,0,,,,,,,,,,,,,,,,,,,,,,1471.726955300197,None,,,,,,,,,,,,,,,,,travel,177,59,silent,new,null,1467.539282400161,None,1467.539282400161,None,3,2.1443360997363925,1467.539282400161,None,2.1443360997363925,1469.7130851997063,None,1470.2271397998556,None,1470.2271397998556,None,f,1.472328900359571,1470.2271397998556,None,1.472328900359571,,,103Silent,001,2022_Nov_28_1535,ProdSingRedoBetween,2021.2.3,59.895912912760174,
,,,,59,0,59,0,,,,,,,,,,,,,,,,,,,,,,1478.535748399794,None,,,,,,,,,,,,,,,,,captain,18,60,silent,old,yellow,1472.229133900255,None,1472.229133900255,None,1,4.774226799607277,1472.229133900255,None,4.774226799607277,1477.039277200587,None,1477.5491466000676,None,1477.5491466000676,None,n,0.9581810999661684,1477.5491466000676,None,0.9581810999661684,,,103Silent,001,2022_Nov_28_1535,ProdSingRedoBetween,2021.2.3,59.895912912760174,
,,,,60,0,60,0,,,,,,,,,,,,,,,,,,,,,,1482.4874017005786,None,,,,,,,,,,,,,,,,,clear,48,61,silent,old,blue,1479.0540249999613,None,1479.0540249999613,None,3,1.9893271997570992,1479.0540249999613,None,1.9893271997570992,1481.0726821003482,None,1481.5866831000894,None,1481.5866831000894,None,f,0.8726126002147794,1481.5866831000894,None,0.8726126002147794,,,103Silent,001,2022_Nov_28_1535,ProdSingRedoBetween,2021.2.3,59.895912912760174,
,,,,61,0,61,0,,,,,,,,,,,,,,,,,,,,,,1488.7437354000285,None,,,,,,,,,,,,,,,,,sweet,15,62,silent,old,yellow,1482.9988289000466,None,1482.9988289000466,None,2,4.8205500999465585,1482.9988289000466,None,4.8205500999465585,1487.8452363004908,None,1488.3669108003378,None,1488.3669108003378,None,n,0.34847830049693584,1488.3669108003378,None,0.34847830049693584,,,103Silent,001,2022_Nov_28_1535,ProdSingRedoBetween,2021.2.3,59.895912912760174,
,,,,62,0,62,0,,,,,,,,,,,,,,,,,,,,,,1493.9153701998293,None,,,,,,,,,,,,,,,,,brilliant,169,63,silent,new,null,1489.2538096997887,None,1489.2538096997887,None,4,2.5257617998868227,1489.2538096997887,None,2.5257617998868227,1491.8066846001893,None,1492.3138666003942,None,1492.3138666003942,None,f,1.585516500286758,1492.3138666003942,None,1.585516500286758,,,103Silent,001,2022_Nov_28_1535,ProdSingRedoBetween,2021.2.3,59.895912912760174,
,,,,63,0,63,0,,,,,,,,,,,,,,,,,,,,,,1498.5868533002213,None,,,,,,,,,,,,,,,,,region,130,64,silent,new,null,1494.4191255001351,None,1494.4191255001351,None,5,3.4322089003399014,1494.4191255001351,None,3.4322089003399014,1497.8740789005533,None,1498.3866720004007,None,1498.3866720004007,None,f,0.1766838999465108,1498.3866720004007,None,0.1766838999465108,,,103Silent,001,2022_Nov_28_1535,ProdSingRedoBetween,2021.2.3,59.895912912760174,
,,,,64,0,64,0,,,,,,,,,,,,,,,,,,,,,,1501.9761533001438,None,,,,,,,,,,,,,,,,,evidence,81,65,silent,old,red,1499.0904171001166,None,1499.0904171001166,None,5,2.1848962996155024,1499.0904171001166,None,2.1848962996155024,1501.3071320001036,None,1501.811367300339,None,1501.811367300339,None,f,0.1359900003299117,1501.811367300339,None,0.1359900003299117,,,103Silent,001,2022_Nov_28_1535,ProdSingRedoBetween,2021.2.3,59.895912912760174,
,,,,65,0,65,0,,,,,,,,,,,,,,,,,,,,,,1506.8116624997929,None,,,,,,,,,,,,,,,,,capital,167,66,silent,new,null,1502.4909749999642,None,1502.4909749999642,None,4,2.7924442999064922,1502.4909749999642,None,2.7924442999064922,1505.3149105003104,None,1505.8304436998442,None,1505.8304436998442,None,f,0.9648807002231479,1505.8304436998442,None,0.9648807002231479,,,103Silent,001,2022_Nov_28_1535,ProdSingRedoBetween,2021.2.3,59.895912912760174,
,,,,66,0,66,0,,,,,,,,,,,,,,,,,,,,,,1511.4163081999868,None,,,,,,,,,,,,,,,,,ground,34,67,silent,old,blue,1507.3218101002276,None,1507.3218101002276,None,2,3.145490000024438,1507.3218101002276,None,3.145490000024438,1510.5012544002384,None,1511.0179834999144,None,1511.0179834999144,None,n,0.36936219967901707,1511.0179834999144,None,0.36936219967901707,,,103Silent,001,2022_Nov_28_1535,ProdSingRedoBetween,2021.2.3,59.895912912760174,
,,,,67,0,67,0,,,,,,,,,,,,,,,,,,,,,,1515.0530173005536,None,,,,,,,,,,,,,,,,,count,89,68,silent,old,red,1511.918498300016,None,1511.918498300016,None,2,2.044832299463451,1511.918498300016,None,2.044832299463451,1513.9864499000832,None,1514.4912499999627,None,1514.4912499999627,None,n,0.5360783999785781,1514.4912499999627,None,0.5360783999785781,,,103Silent,001,2022_Nov_28_1535,ProdSingRedoBetween,2021.2.3,59.895912912760174,
,,,,68,0,68,0,,,,,,,,,,,,,,,,,,,,,,1518.1945251002908,None,,,,,,,,,,,,,,,,,profession,40,69,silent,old,blue,1515.5539127998054,None,1515.5539127998054,None,4,1.9375622002407908,1515.5539127998054,None,1.9375622002407908,1517.5296050999314,None,1518.0447008004412,None,1518.0447008004412,None,f,0.11892190016806126,1518.0447008004412,None,0.11892190016806126,,,103Silent,001,2022_Nov_28_1535,ProdSingRedoBetween,2021.2.3,59.895912912760174,
,,,,69,0,69,0,,,,,,,,,,,,,,,,,,,,,,1521.3259596005082,None,,,,,,,,,,,,,,,,,foundation,146,70,silent,new,null,1518.7087516998872,None,1518.7087516998872,None,1,1.9425704004243016,1518.7087516998872,None,1.9425704004243016,1520.6769016003236,None,1521.184604600072,None,1521.184604600072,None,n,0.12278749980032444,1521.184604600072,None,0.12278749980032444,,,103Silent,001,2022_Nov_28_1535,ProdSingRedoBetween,2021.2.3,59.895912912760174,
,,,,70,0,70,0,,,,,,,,,,,,,,,,,,,,,,1526.5477935001254,None,,,,,,,,,,,,,,,,,gesture,4,71,silent,old,yellow,1521.8293727999553,None,1521.8293727999553,None,1,3.445979000069201,1521.8293727999553,None,3.445979000069201,1525.3009166996926,None,1525.8147999001667,None,1525.8147999001667,None,n,0.7164977006614208,1525.8147999001667,None,0.7164977006614208,,,103Silent,001,2022_Nov_28_1535,ProdSingRedoBetween,2021.2.3,59.895912912760174,
,,,,71,0,71,0,,,,,,,,,,,,,,,,,,,,,,1530.8694706000388,None,,,,,,,,,,,,,,,,,motion,45,72,silent,old,blue,1527.0610206006095,None,1527.0610206006095,None,4,2.9982475005090237,1527.0610206006095,None,2.9982475005090237,1530.085792900063,None,1530.5878502000123,None,1530.5878502000123,None,f,0.25543100014328957,1530.5878502000123,None,0.25543100014328957,,,103Silent,001,2022_Nov_28_1535,ProdSingRedoBetween,2021.2.3,59.895912912760174,
,,,,72,0,72,0,,,,,,,,,,,,,,,,,,,,,,1535.373331000097,None,,,,,,,,,,,,,,,,,dozen,8,73,silent,old,yellow,1531.3754494003952,None,1531.3754494003952,None,4,3.3798084994778037,1531.3754494003952,None,3.3798084994778037,1534.7741334000602,None,1535.2770947003737,None,1535.2770947003737,None,f,0.07811770029366016,1535.2770947003737,None,0.07811770029366016,,,103Silent,001,2022_Nov_28_1535,ProdSingRedoBetween,2021.2.3,59.895912912760174,
,,,,73,0,73,0,,,,,,,,,,,,,,,,,,,,,,1538.3792051998898,None,,,,,,,,,,,,,,,,,fellow,128,74,silent,new,null,1535.884321800433,None,1535.884321800433,None,2,1.8712703995406628,1535.884321800433,None,1.8712703995406628,1537.7820608001202,None,1538.2932711998,None,1538.2932711998,None,n,0.062074500136077404,1538.2932711998,None,0.062074500136077404,,,103Silent,001,2022_Nov_28_1535,ProdSingRedoBetween,2021.2.3,59.895912912760174,
,,,,74,0,74,0,,,,,,,,,,,,,,,,,,,,,,1547.1215292001143,None,,,,,,,,,,,,,,,,,agency,10,75,silent,old,yellow,1538.8995513999835,None,1538.8995513999835,None,2,7.367686600424349,1538.8995513999835,None,7.367686600424349,1546.2876013005152,None,1546.8017327999696,None,1546.8017327999696,None,n,0.29758500028401613,1546.8017327999696,None,0.29758500028401613,,,103Silent,001,2022_Nov_28_1535,ProdSingRedoBetween,2021.2.3,59.895912912760174,
,,,,75,0,75,0,,,,,,,,,,,,,,,,,,,,,,1551.3560998002067,None,,,,,,,,,,,,,,,,,suggestion,117,76,silent,new,null,1547.6386297000572,None,1547.6386297000572,None,3,2.9567955005913973,1547.6386297000572,None,2.9567955005913973,1550.6254678005353,None,1551.1405773004517,None,1551.1405773004517,None,f,0.19069810025393963,1551.1405773004517,None,0.19069810025393963,,,103Silent,001,2022_Nov_28_1535,ProdSingRedoBetween,2021.2.3,59.895912912760174,
,,,,76,0,76,0,,,,,,,,,,,,,,,,,,,,,,1555.7464322997257,None,,,,,,,,,,,,,,,,,defeat,138,77,silent,new,null,1551.8605805002153,None,1551.8605805002153,None,1,2.726736799813807,1551.8605805002153,None,2.726736799813807,1554.6166614005342,None,1555.131281199865,None,1555.131281199865,None,n,0.5920818001031876,1555.131281199865,None,0.5920818001031876,,,103Silent,001,2022_Nov_28_1535,ProdSingRedoBetween,2021.2.3,59.895912912760174,
,,,,77,0,77,0,,,,,,,,,,,,,,,,,,,,,,1558.9301784997806,None,,,,,,,,,,,,,,,,,carry,150,78,silent,new,null,1556.2687133997679,None,1556.2687133997679,None,2,1.7984476005658507,1556.2687133997679,None,1.7984476005658507,1558.0983317997307,None,1558.6135029001161,None,1558.6135029001161,None,n,0.2858961997553706,1558.6135029001161,None,0.2858961997553706,,,103Silent,001,2022_Nov_28_1535,ProdSingRedoBetween,2021.2.3,59.895912912760174,
,,,,78,0,78,0,,,,,,,,,,,,,,,,,,,,,,1563.1519068004563,None,,,,,,,,,,,,,,,,,election,145,79,silent,new,null,1559.4387950999662,None,1559.4387950999662,None,4,1.8364525996148586,1559.4387950999662,None,1.8364525996148586,1561.301698899828,None,1561.8167286003008,None,1561.8167286003008,None,f,1.3065899992361665,1561.8167286003008,None,1.3065899992361665,,,103Silent,001,2022_Nov_28_1535,ProdSingRedoBetween,2021.2.3,59.895912912760174,
,,,,79,0,79,0,,,,,,,,,,,,,,,,,,,,,,1566.8714503003284,None,,,,,,,,,,,,,,,,,review,88,80,silent,old,red,1563.6513817002997,None,1563.6513817002997,None,6,2.2558783004060388,1563.6513817002997,None,2.2558783004060388,1565.9403614001349,None,1566.4579680003226,None,1566.4579680003226,None,r,0.3932580007240176,1566.4579680003226,None,0.3932580007240176,,,103Silent,001,2022_Nov_28_1535,ProdSingRedoBetween,2021.2.3,59.895912912760174,
,,,,80,0,80,0,,,,,,,,,,,,,,,,,,,,,,1570.575726499781,None,,,,,,,,,,,,,,,,,build,31,81,silent,old,blue,1567.3817971004173,None,1567.3817971004173,None,3,2.565393900498748,1567.3817971004173,None,2.565393900498748,1569.9762251004577,None,1570.4753767000511,None,1570.4753767000511,None,f,0.07190680038183928,1570.4753767000511,None,0.07190680038183928,,,103Silent,001,2022_Nov_28_1535,ProdSingRedoBetween,2021.2.3,59.895912912760174,
,,,,81,0,81,0,,,,,,,,,,,,,,,,,,,,,,1578.7334577003494,None,,,,,,,,,,,,,,,,,government,6,82,silent,old,yellow,1571.0809367997572,None,1571.0809367997572,None,4,5.650259300135076,1571.0809367997572,None,5.650259300135076,1576.7514530997723,None,1577.265453800559,None,1577.265453800559,None,f,1.4417436998337507,1577.265453800559,None,1.4417436998337507,,,103Silent,001,2022_Nov_28_1535,ProdSingRedoBetween,2021.2.3,59.895912912760174,
,,,,82,0,82,0,,,,,,,,,,,,,,,,,,,,,,1582.7260475000367,None,,,,,,,,,,,,,,,,,interior,139,83,silent,new,null,1579.2416253006086,None,1579.2416253006086,None,4,2.881647599861026,1579.2416253006086,None,2.881647599861026,1582.1595430001616,None,1582.6706784004346,None,1582.6706784004346,None,f,0.028589800000190735,1582.6706784004346,None,0.028589800000190735,,,103Silent,001,2022_Nov_28_1535,ProdSingRedoBetween,2021.2.3,59.895912912760174,
,,,,83,0,83,0,,,,,,,,,,,,,,,,,,,,,,1585.709027200006,None,,,,,,,,,,,,,,,,,reach,126,84,silent,new,null,1583.2436223998666,None,1583.2436223998666,None,2,1.7836600998416543,1583.2436223998666,None,1.7836600998416543,1585.0563810002059,None,1585.556718500331,None,1585.556718500331,None,n,0.12653900031000376,1585.556718500331,None,0.12653900031000376,,,103Silent,001,2022_Nov_28_1535,ProdSingRedoBetween,2021.2.3,59.895912912760174,
,,,,84,0,84,0,,,,,,,,,,,,,,,,,,,,,,1588.7934844000265,None,,,,,,,,,,,,,,,,,primary,12,85,silent,old,yellow,1586.2255009002984,None,1586.2255009002984,None,1,1.8176679005846381,1586.2255009002984,None,1.8176679005846381,1588.062135300599,None,1588.5767224999145,None,1588.5767224999145,None,n,0.18652379978448153,1588.5767224999145,None,0.18652379978448153,,,103Silent,001,2022_Nov_28_1535,ProdSingRedoBetween,2021.2.3,59.895912912760174,
,,,,85,0,85,0,,,,,,,,,,,,,,,,,,,,,,1600.58850419987,None,,,,,,,,,,,,,,,,,finance,100,86,silent,new,null,1589.2973182005808,None,1589.2973182005808,None,4,8.04187330044806,1589.2973182005808,None,8.04187330044806,1597.3724926002324,None,1597.8937109997496,None,1597.8937109997496,None,f,2.669463399797678,1597.8937109997496,None,2.669463399797678,,,103Silent,001,2022_Nov_28_1535,ProdSingRedoBetween,2021.2.3,59.895912912760174,
,,,,86,0,86,0,,,,,,,,,,,,,,,,,,,,,,1604.3087939005345,None,,,,,,,,,,,,,,,,,safety,70,87,silent,old,red,1601.1036918004975,None,1601.1036918004975,None,3,2.411481099203229,1601.1036918004975,None,2.411481099203229,1603.542691799812,None,1604.048651500605,None,1604.048651500605,None,f,0.2425076998770237,1604.048651500605,None,0.2425076998770237,,,103Silent,001,2022_Nov_28_1535,ProdSingRedoBetween,2021.2.3,59.895912912760174,
,,,,87,0,87,0,,,,,,,,,,,,,,,,,,,,,,1610.284963699989,None,,,,,,,,,,,,,,,,,watch,21,88,silent,old,yellow,1604.812598099932,None,1604.812598099932,None,5,4.598545799963176,1604.812598099932,None,4.598545799963176,1609.4304579999298,None,1609.935136999935,None,1609.935136999935,None,f,0.3162636002525687,1609.935136999935,None,0.3162636002525687,,,103Silent,001,2022_Nov_28_1535,ProdSingRedoBetween,2021.2.3,59.895912912760174,
,,,,88,0,88,0,,,,,,,,,,,,,,,,,,,,,,1614.9862580001354,None,,,,,,,,,,,,,,,,,present,24,89,silent,old,yellow,1610.805064899847,None,1610.805064899847,None,2,3.4060987001284957,1610.805064899847,None,3.4060987001284957,1614.2385015003383,None,1614.7566513000056,None,1614.7566513000056,None,n,0.20654230006039143,1614.7566513000056,None,0.20654230006039143,,,103Silent,001,2022_Nov_28_1535,ProdSingRedoBetween,2021.2.3,59.895912912760174,
,,,,89,0,89,0,,,,,,,,,,,,,,,,,,,,,,1621.0086773000658,None,,,,,,,,,,,,,,,,,pressure,1,90,silent,old,yellow,1615.4953030003235,None,1615.4953030003235,None,2,4.204009500332177,1615.4953030003235,None,4.204009500332177,1619.7254857001826,None,1620.2323008999228,None,1620.2323008999228,None,n,0.7548850001767278,1620.2323008999228,None,0.7548850001767278,,,103Silent,001,2022_Nov_28_1535,ProdSingRedoBetween,2021.2.3,59.895912912760174,
,,,,90,0,90,0,,,,,,,,,,,,,,,,,,,,,,1624.6625207001343,None,,,,,,,,,,,,,,,,,write,56,91,silent,old,blue,1621.5154665000737,None,1621.5154665000737,None,5,2.4156627003103495,1621.5154665000737,None,2.4156627003103495,1623.9617883004248,None,1624.4675684999675,None,1624.4675684999675,None,f,0.16752779949456453,1624.4675684999675,None,0.16752779949456453,,,103Silent,001,2022_Nov_28_1535,ProdSingRedoBetween,2021.2.3,59.895912912760174,
,,,,91,0,91,0,,,,,,,,,,,,,,,,,,,,,,1627.4333613002673,None,,,,,,,,,,,,,,,,,symbol,171,92,silent,new,null,1625.1694386005402,None,1625.1694386005402,None,4,1.6577067002654076,1625.1694386005402,None,1.6577067002654076,1626.84889280051,None,1627.3511712001637,None,1627.3511712001637,None,f,0.060194299556314945,1627.3511712001637,None,0.060194299556314945,,,103Silent,001,2022_Nov_28_1535,ProdSingRedoBetween,2021.2.3,59.895912912760174,
,,,,92,0,92,0,,,,,,,,,,,,,,,,,,,,,,1630.80198749993,None,,,,,,,,,,,,,,,,,swift,179,93,silent,new,null,1627.954010100104,None,1627.954010100104,None,1,2.1451658997684717,1627.954010100104,None,2.1451658997684717,1630.1186691001058,None,1630.618541199714,None,1630.618541199714,None,n,0.15260319970548153,1630.618541199714,None,0.15260319970548153,,,103Silent,001,2022_Nov_28_1535,ProdSingRedoBetween,2021.2.3,59.895912912760174,
,,,,93,0,93,0,,,,,,,,,,,,,,,,,,,,,,1638.8435315005481,None,,,,,,,,,,,,,,,,,answer,127,94,silent,new,null,1631.313329000026,None,1631.313329000026,None,2,6.905775299295783,1631.313329000026,None,6.905775299295783,1638.2439139001071,None,1638.7484833998606,None,1638.7484833998606,None,n,0.07858840003609657,1638.7484833998606,None,0.07858840003609657,,,103Silent,001,2022_Nov_28_1535,ProdSingRedoBetween,2021.2.3,59.895912912760174,
,,,,94,0,94,0,,,,,,,,,,,,,,,,,,,,,,1643.5313416002318,None,,,,,,,,,,,,,,,,,interview,26,95,silent,old,yellow,1639.3451180998236,None,1639.3451180998236,None,5,2.929900299757719,1639.3451180998236,None,2.929900299757719,1642.3056787997484,None,1642.8141371998936,None,1642.8141371998936,None,f,0.6929858000949025,1642.8141371998936,None,0.6929858000949025,,,103Silent,001,2022_Nov_28_1535,ProdSingRedoBetween,2021.2.3,59.895912912760174,
,,,,95,0,95,0,,,,,,,,,,,,,,,,,,,,,,1648.035894700326,None,,,,,,,,,,,,,,,,,bucket,120,96,silent,new,null,1644.032927500084,None,1644.032927500084,None,4,2.2181086000055075,1644.032927500084,None,2.2181086000055075,1646.2671961002052,None,1646.769854100421,None,1646.769854100421,None,f,1.241279199719429,1646.769854100421,None,1.241279199719429,,,103Silent,001,2022_Nov_28_1535,ProdSingRedoBetween,2021.2.3,59.895912912760174,
,,,,96,0,96,0,,,,,,,,,,,,,,,,,,,,,,1653.9749640002847,None,,,,,,,,,,,,,,,,,length,142,97,silent,new,null,1648.537236300297,None,1648.537236300297,None,2,4.569856300018728,1648.537236300297,None,4.569856300018728,1653.124355699867,None,1653.6276169000193,None,1653.6276169000193,None,n,0.32746339961886406,1653.6276169000193,None,0.32746339961886406,,,103Silent,001,2022_Nov_28_1535,ProdSingRedoBetween,2021.2.3,59.895912912760174,
,,,,97,0,97,0,,,,,,,,,,,,,,,,,,,,,,1657.645326900296,None,,,,,,,,,,,,,,,,,session,11,98,silent,old,yellow,1654.4944027001038,None,1654.4944027001038,None,5,1.9086651001125574,1654.4944027001038,None,1.9086651001125574,1656.4306532004848,None,1656.9500633999705,None,1656.9500633999705,None,f,0.6770147001370788,1656.9500633999705,None,0.6770147001370788,,,103Silent,001,2022_Nov_28_1535,ProdSingRedoBetween,2021.2.3,59.895912912760174,
,,,,98,0,98,0,,,,,,,,,,,,,,,,,,,,,,1661.8160362001508,None,,,,,,,,,,,,,,,,,military,52,99,silent,old,blue,1658.1549030998722,None,1658.1549030998722,None,6,2.944174200296402,1658.1549030998722,None,2.944174200296402,1661.1166260000318,None,1661.6200179001316,None,1661.6200179001316,None,r,0.16715200059115887,1661.6200179001316,None,0.16715200059115887,,,103Silent,001,2022_Nov_28_1535,ProdSingRedoBetween,2021.2.3,59.895912912760174,
,,,,99,0,99,0,,,,,,,,,,,,,,,,,,,,,,1666.437964600511,None,,,,,,,,,,,,,,,,,payment,125,100,silent,new,null,1662.3166730003431,None,1662.3166730003431,None,4,2.4064790001139045,1662.3166730003431,None,2.4064790001139045,1664.7530910000205,None,1665.2534303003922,None,1665.2534303003922,None,f,1.1655804999172688,1665.2534303003922,None,1.1655804999172688,,,103Silent,001,2022_Nov_28_1535,ProdSingRedoBetween,2021.2.3,59.895912912760174,
,,,,100,0,100,0,,,,,,,,,,,,,,,,,,,,,,1672.5488641001284,None,,,,,,,,,,,,,,,,,group,92,101,silent,new,null,1666.948394600302,None,1666.948394600302,None,2,3.782573699951172,1666.948394600302,None,3.782573699951172,1670.7594167999923,None,1671.2650365997106,None,1671.2650365997106,None,f,1.2582131996750832,1671.2650365997106,None,1.2582131996750832,,,103Silent,001,2022_Nov_28_1535,ProdSingRedoBetween,2021.2.3,59.895912912760174,
,,,,101,0,101,0,,,,,,,,,,,,,,,,,,,,,,1675.729994500056,None,,,,,,,,,,,,,,,,,majority,20,102,silent,old,yellow,1673.067148000002,None,1673.067148000002,None,4,2.007998799905181,1673.067148000002,None,2.007998799905181,1675.0985868005082,None,1675.6193166999146,None,1675.6193166999146,None,f,0.09582560043781996,1675.6193166999146,None,0.09582560043781996,,,103Silent,001,2022_Nov_28_1535,ProdSingRedoBetween,2021.2.3,59.895912912760174,
,,,,102,0,102,0,,,,,,,,,,,,,,,,,,,,,,1679.1835567001253,None,,,,,,,,,,,,,,,,,minor,129,103,silent,new,null,1676.238930599764,None,1676.238930599764,None,1,1.7400660002604127,1676.238930599764,None,1.7400660002604127,1678.0008823005483,None,1678.516273200512,None,1678.516273200512,None,n,0.6467574005946517,1678.516273200512,None,0.6467574005946517,,,103Silent,001,2022_Nov_28_1535,ProdSingRedoBetween,2021.2.3,59.895912912760174,
,,,,103,0,103,0,,,,,,,,,,,,,,,,,,,,,,1683.5897979000583,None,,,,,,,,,,,,,,,,,drama,152,104,silent,new,null,1679.6840570997447,None,1679.6840570997447,None,4,3.2549832994118333,1679.6840570997447,None,3.2549832994118333,1682.953985299915,None,1683.4584990004078,None,1683.4584990004078,None,f,0.1125096995383501,1683.4584990004078,None,0.1125096995383501,,,103Silent,001,2022_Nov_28_1535,ProdSingRedoBetween,2021.2.3,59.895912912760174,
,,,,104,0,104,0,,,,,,,,,,,,,,,,,,,,,,1686.9914354002103,None,,,,,,,,,,,,,,,,,damage,95,105,silent,new,null,1684.107350899838,None,1684.107350899838,None,5,2.1439639003947377,1684.107350899838,None,2.1439639003947377,1686.2929376997054,None,1686.8079840000719,None,1686.8079840000719,None,f,0.15507830027490854,1686.8079840000719,None,0.15507830027490854,,,103Silent,001,2022_Nov_28_1535,ProdSingRedoBetween,2021.2.3,59.895912912760174,
,,,,105,0,105,0,,,,,,,,,,,,,,,,,,,,,,1691.7799137998372,None,,,,,,,,,,,,,,,,,light,78,106,silent,old,red,1687.5067212004215,None,1687.5067212004215,None,1,2.3842887999489903,1687.5067212004215,None,2.3842887999489903,1689.9121796004474,None,1690.4206341002136,None,1690.4206341002136,None,n,1.3424905994907022,1690.4206341002136,None,1.3424905994907022,,,103Silent,001,2022_Nov_28_1535,ProdSingRedoBetween,2021.2.3,59.895912912760174,
,,,,106,0,106,0,,,,,,,,,,,,,,,,,,,,,,1694.8158630998805,None,,,,,,,,,,,,,,,,,medicine,153,107,silent,new,null,1692.285815499723,None,1692.285815499723,None,2,1.7572157997637987,1692.285815499723,None,1.7572157997637987,1694.0664995005354,None,1694.584432600066,None,1694.584432600066,None,n,0.20260549988597631,1694.584432600066,None,0.20260549988597631,,,103Silent,001,2022_Nov_28_1535,ProdSingRedoBetween,2021.2.3,59.895912912760174,
,,,,107,0,107,0,,,,,,,,,,,,,,,,,,,,,,1698.7030410999432,None,,,,,,,,,,,,,,,,,commercial,41,108,silent,old,blue,1695.335397100076,None,1695.335397100076,None,3,2.099566400051117,1695.335397100076,None,2.099566400051117,1697.452418900095,None,1697.955922599882,None,1697.955922599882,None,n,0.727102099917829,1697.955922599882,None,0.727102099917829,,,103Silent,001,2022_Nov_28_1535,ProdSingRedoBetween,2021.2.3,59.895912912760174,
,,,,108,0,108,0,,,,,,,,,,,,,,,,,,,,,,1702.8570784004405,None,,,,,,,,,,,,,,,,,guest,17,109,silent,old,yellow,1699.2094713998958,None,1699.2094713998958,None,4,1.6335690999403596,1699.2094713998958,None,1.6335690999403596,1700.872692800127,None,1701.3725420003757,None,1701.3725420003757,None,f,1.4543972993269563,1701.3725420003757,None,1.4543972993269563,,,103Silent,001,2022_Nov_28_1535,ProdSingRedoBetween,2021.2.3,59.895912912760174,
,,,,109,0,109,0,,,,,,,,,,,,,,,,,,,,,,1706.8109240001068,None,,,,,,,,,,,,,,,,,goose,64,110,silent,old,red,1703.3577843001112,None,1703.3577843001112,None,2,1.59742690064013,1703.3577843001112,None,1.59742690064013,1704.9830392999575,None,1705.4931966997683,None,1705.4931966997683,None,n,1.3018420999869704,1705.4931966997683,None,1.3018420999869704,,,103Silent,001,2022_Nov_28_1535,ProdSingRedoBetween,2021.2.3,59.895912912760174,
,,,,110,0,110,0,,,,,,,,,,,,,,,,,,,,,,1710.1642895005643,None,,,,,,,,,,,,,,,,,straight,9,111,silent,old,yellow,1707.3181886998937,None,1707.3181886998937,None,3,1.9088349994271994,1707.3181886998937,None,1.9088349994271994,1709.2499393001199,None,1709.764243000187,None,1709.764243000187,None,n,0.3747707000002265,1709.764243000187,None,0.3747707000002265,,,103Silent,001,2022_Nov_28_1535,ProdSingRedoBetween,2021.2.3,59.895912912760174,
,,,,111,0,111,0,,,,,,,,,,,,,,,,,,,,,,1713.434457800351,None,,,,,,,,,,,,,,,,,notice,115,112,silent,new,null,1710.6671353001148,None,1710.6671353001148,None,5,2.15201670024544,1710.6671353001148,None,2.15201670024544,1712.8559808004647,None,1713.3678892003372,None,1713.3678892003372,None,f,0.05098710022866726,1713.3678892003372,None,0.05098710022866726,,,103Silent,001,2022_Nov_28_1535,ProdSingRedoBetween,2021.2.3,59.895912912760174,
,,,,112,0,112,0,,,,,,,,,,,,,,,,,,,,,,1717.888806000352,None,,,,,,,,,,,,,,,,,oxygen,121,113,silent,new,null,1713.9362912001088,None,1713.9362912001088,None,1,2.5627124002203345,1713.9362912001088,None,2.5627124002203345,1716.5221522999927,None,1717.0236343005672,None,1717.0236343005672,None,n,0.8353093005716801,1717.0236343005672,None,0.8353093005716801,,,103Silent,001,2022_Nov_28_1535,ProdSingRedoBetween,2021.2.3,59.895912912760174,
,,,,113,0,113,0,,,,,,,,,,,,,,,,,,,,,,1721.4924670001492,None,,,,,,,,,,,,,,,,,question,0,114,silent,old,yellow,1718.4009923003614,None,1718.4009923003614,None,4,1.7380016995593905,1718.4009923003614,None,1.7380016995593905,1720.1598161999136,None,1720.6808842997998,None,1720.6808842997998,None,f,0.7861297000199556,1720.6808842997998,None,0.7861297000199556,,,103Silent,001,2022_Nov_28_1535,ProdSingRedoBetween,2021.2.3,59.895912912760174,
,,,,114,0,114,0,,,,,,,,,,,,,,,,,,,,,,1728.1157422000542,None,,,,,,,,,,,,,,,,,engineer,112,115,silent,new,null,1721.9927567997947,None,1721.9927567997947,None,4,4.098213099874556,1721.9927567997947,None,4.098213099874556,1726.1162643004209,None,1726.6310609001666,None,1726.6310609001666,None,f,1.467988700605929,1726.6310609001666,None,1.467988700605929,,,103Silent,001,2022_Nov_28_1535,ProdSingRedoBetween,2021.2.3,59.895912912760174,
,,,,115,0,115,0,,,,,,,,,,,,,,,,,,,,,,1732.0360979000106,None,,,,,,,,,,,,,,,,,school,97,116,silent,new,null,1728.6253339005634,None,1728.6253339005634,None,2,1.8497043000534177,1728.6253339005634,None,1.8497043000534177,1730.5026424005628,None,1731.0183807006106,None,1731.0183807006106,None,n,1.0005423007532954,1731.0183807006106,None,1.0005423007532954,,,103Silent,001,2022_Nov_28_1535,ProdSingRedoBetween,2021.2.3,59.895912912760174,
,,,,116,0,116,0,,,,,,,,,,,,,,,,,,,,,,1737.324889600277,None,,,,,,,,,,,,,,,,,discovery,82,117,silent,old,red,1732.5374031998217,None,1732.5374031998217,None,3,3.481546299532056,1732.5374031998217,None,3.481546299532056,1736.0423464998603,None,1736.5597825003788,None,1736.5597825003788,None,f,0.7471217000856996,1736.5597825003788,None,0.7471217000856996,,,103Silent,001,2022_Nov_28_1535,ProdSingRedoBetween,2021.2.3,59.895912912760174,
,,,,117,0,117,0,,,,,,,,,,,,,,,,,,,,,,1740.984116700478,None,,,,,,,,,,,,,,,,,shear,2,118,silent,old,yellow,1737.8250866997987,None,1737.8250866997987,None,2,1.8657852998003364,1737.8250866997987,None,1.8657852998003364,1739.710382300429,None,1740.2112335003912,None,1740.2112335003912,None,n,0.7437730003148317,1740.2112335003912,None,0.7437730003148317,,,103Silent,001,2022_Nov_28_1535,ProdSingRedoBetween,2021.2.3,59.895912912760174,
,,,,118,0,118,0,,,,,,,,,,,,,,,,,,,,,,1744.7323054000735,None,,,,,,,,,,,,,,,,,state,79,119,silent,old,red,1741.507426599972,None,1741.507426599972,None,4,2.1114172004163265,1741.507426599972,None,2.1114172004163265,1743.6499698003754,None,1744.1660376004875,None,1744.1660376004875,None,f,0.5488774003461003,1744.1660376004875,None,0.5488774003461003,,,103Silent,001,2022_Nov_28_1535,ProdSingRedoBetween,2021.2.3,59.895912912760174,
,,,,119,0,119,0,,,,,,,,,,,,,,,,,,,,,,1748.285905700177,None,,,,,,,,,,,,,,,,,hearing,136,120,silent,new,null,1745.242943700403,None,1745.242943700403,None,4,2.3999891001731157,1745.242943700403,None,2.3999891001731157,1747.6683047004044,None,1748.172637199983,None,1748.172637199983,None,f,0.09435110073536634,1748.172637199983,None,0.09435110073536634,,,103Silent,001,2022_Nov_28_1535,ProdSingRedoBetween,2021.2.3,59.895912912760174,
,,,,120,0,120,0,,,,,,,,,,,,,,,,,,,,,,1752.3732497999445,None,,,,,,,,,,,,,,,,,speech,43,121,silent,old,blue,1748.7908501001075,None,1748.7908501001075,None,3,1.996152300387621,1748.7908501001075,None,1.996152300387621,1750.8115937002003,None,1751.3275303998962,None,1751.3275303998962,None,n,1.0193135002627969,1751.3275303998962,None,1.0193135002627969,,,103Silent,001,2022_Nov_28_1535,ProdSingRedoBetween,2021.2.3,59.895912912760174,
,,,,121,0,121,0,,,,,,,,,,,,,,,,,,,,,,1755.5595350004733,None,,,,,,,,,,,,,,,,,territory,176,122,silent,new,null,1752.8856210000813,None,1752.8856210000813,None,4,2.077522600069642,1752.8856210000813,None,2.077522600069642,1755.000972200185,None,1755.5096094002947,None,1755.5096094002947,None,f,0.029339700005948544,1755.5096094002947,None,0.029339700005948544,,,103Silent,001,2022_Nov_28_1535,ProdSingRedoBetween,2021.2.3,59.895912912760174,
,,,,122,0,122,0,,,,,,,,,,,,,,,,,,,,,,1758.9130974002182,None,,,,,,,,,,,,,,,,,spoke,47,123,silent,old,blue,1756.061966800131,None,1756.061966800131,None,2,2.1488030003383756,1756.061966800131,None,2.1488030003383756,1758.2308962000534,None,1758.7464223997667,None,1758.7464223997667,None,n,0.13660420011729002,1758.7464223997667,None,0.13660420011729002,,,103Silent,001,2022_Nov_28_1535,ProdSingRedoBetween,2021.2.3,59.895912912760174,
,,,,123,0,123,0,,,,,,,,,,,,,,,,,,,,,,1764.6352773997933,None,,,,,,,,,,,,,,,,,fight,27,124,silent,old,yellow,1759.421030299738,None,1759.421030299738,None,6,4.1818782007321715,1759.421030299738,None,4.1818782007321715,1763.619253899902,None,1764.1361116003245,None,1764.1361116003245,None,r,0.4827767005190253,1764.1361116003245,None,0.4827767005190253,,,103Silent,001,2022_Nov_28_1535,ProdSingRedoBetween,2021.2.3,59.895912912760174,
,,,,124,0,124,0,,,,,,,,,,,,,,,,,,,,,,1768.6557325003669,None,,,,,,,,,,,,,,,,,running,80,125,silent,old,red,1765.148463900201,None,1765.148463900201,None,3,2.5103413006290793,1765.148463900201,None,2.5103413006290793,1767.693339300342,None,1768.2057237001136,None,1768.2057237001136,None,n,0.42916970048099756,1768.2057237001136,None,0.42916970048099756,,,103Silent,001,2022_Nov_28_1535,ProdSingRedoBetween,2021.2.3,59.895912912760174,
,,,,125,0,125,0,,,,,,,,,,,,,,,,,,,,,,1773.7777943005785,None,,,,,,,,,,,,,,,,,break,173,126,silent,new,null,1769.1696233004332,None,1769.1696233004332,None,3,3.6252177003771067,1769.1696233004332,None,3.6252177003771067,1772.8134316997603,None,1773.3274499997497,None,1773.3274499997497,None,n,0.435462299734354,1773.3274499997497,None,0.435462299734354,,,103Silent,001,2022_Nov_28_1535,ProdSingRedoBetween,2021.2.3,59.895912912760174,
,,,,126,0,126,0,,,,,,,,,,,,,,,,,,,,,,1777.7316869003698,None,,,,,,,,,,,,,,,,,committee,5,127,silent,old,yellow,1774.280965199694,None,1774.280965199694,None,4,2.6259051002562046,1774.280965199694,None,2.6259051002562046,1776.932005699724,None,1777.437235900201,None,1777.437235900201,None,f,0.2776220003142953,1777.437235900201,None,0.2776220003142953,,,103Silent,001,2022_Nov_28_1535,ProdSingRedoBetween,2021.2.3,59.895912912760174,
,,,,127,0,127,0,,,,,,,,,,,,,,,,,,,,,,1780.653484900482,None,,,,,,,,,,,,,,,,,treatment,135,128,silent,new,null,1778.2343321004882,None,1778.2343321004882,None,3,1.6644925000146031,1778.2343321004882,None,1.6644925000146031,1779.9200985003263,None,1780.434554300271,None,1780.434554300271,None,f,0.19243029970675707,1780.434554300271,None,0.19243029970675707,,,103Silent,001,2022_Nov_28_1535,ProdSingRedoBetween,2021.2.3,59.895912912760174,
,,,,128,0,128,0,,,,,,,,,,,,,,,,,,,,,,1787.9420194998384,None,,,,,,,,,,,,,,,,,birth,124,129,silent,new,null,1781.1705473000184,None,1781.1705473000184,None,4,4.424354599788785,1781.1705473000184,None,4.424354599788785,1785.625281699933,None,1786.1403897004202,None,1786.1403897004202,None,f,1.7744354996830225,1786.1403897004202,None,1.7744354996830225,,,103Silent,001,2022_Nov_28_1535,ProdSingRedoBetween,2021.2.3,59.895912912760174,
,,,,129,0,129,0,,,,,,,,,,,,,,,,,,,,,,1810.831546800211,None,,,,,,,,,,,,,,,,,working,161,130,silent,new,null,1788.4548068000004,None,1788.4548068000004,None,2,21.443997399881482,1788.4548068000004,None,21.443997399881482,1809.9163445997983,None,1810.4346781000495,None,1810.4346781000495,None,n,0.3761383006349206,1810.4346781000495,None,0.3761383006349206,,,103Silent,001,2022_Nov_28_1535,ProdSingRedoBetween,2021.2.3,59.895912912760174,
,,,,130,0,130,0,,,,,,,,,,,,,,,,,,,,,,1830.6187113001943,None,,,,,,,,,,,,,,,,,finish,37,131,silent,old,blue,1811.3322515999898,None,1811.3322515999898,None,3,17.878539400175214,1811.3322515999898,None,17.878539400175214,1829.2345896000043,None,1829.737539799884,None,1829.737539799884,None,n,0.8494167001917958,1829.737539799884,None,0.8494167001917958,,,103Silent,001,2022_Nov_28_1535,ProdSingRedoBetween,2021.2.3,59.895912912760174,
,,,,131,0,131,0,,,,,,,,,,,,,,,,,,,,,,1835.539476200007,None,,,,,,,,,,,,,,,,,crisis,63,132,silent,old,red,1831.1309569999576,None,1831.1309569999576,None,4,2.007807199843228,1831.1309569999576,None,2.007807199843228,1833.1549281002954,None,1833.654460100457,None,1833.654460100457,None,r,1.8684125998988748,1833.654460100457,None,1.8684125998988748,,,103Silent,001,2022_Nov_28_1535,ProdSingRedoBetween,2021.2.3,59.895912912760174,
,,,,132,0,132,0,,,,,,,,,,,,,,,,,,,,,,1842.5796667998657,None,,,,,,,,,,,,,,,,,article,71,133,silent,old,red,1836.0500857997686,None,1836.0500857997686,None,3,5.92068300023675,1836.0500857997686,None,5.92068300023675,1842.0014061005786,None,1842.513042599894,None,1842.513042599894,None,f,0.041721999645233154,1842.513042599894,None,0.041721999645233154,,,103Silent,001,2022_Nov_28_1535,ProdSingRedoBetween,2021.2.3,59.895912912760174,
,,,,133,0,133,0,,,,,,,,,,,,,,,,,,,,,,1846.7006470002234,None,,,,,,,,,,,,,,,,,native,51,134,silent,old,blue,1843.0921320002526,None,1843.0921320002526,None,3,1.8866175999864936,1843.0921320002526,None,1.8866175999864936,1845.0028817998245,None,1845.5161910001189,None,1845.5161910001189,None,f,1.1665147002786398,1845.5161910001189,None,1.1665147002786398,,,103Silent,001,2022_Nov_28_1535,ProdSingRedoBetween,2021.2.3,59.895912912760174,
,,,,134,0,134,0,,,,,,,,,,,,,,,,,,,,,,1850.3376494999975,None,,,,,,,,,,,,,,,,,agreement,87,135,silent,old,red,1847.2028018999845,None,1847.2028018999845,None,5,2.4720499999821186,1847.2028018999845,None,2.4720499999821186,1849.7109745005146,None,1850.2220194004476,None,1850.2220194004476,None,f,0.10072330012917519,1850.2220194004476,None,0.10072330012917519,,,103Silent,001,2022_Nov_28_1535,ProdSingRedoBetween,2021.2.3,59.895912912760174,
,,,,135,0,135,0,,,,,,,,,,,,,,,,,,,,,,1855.309219200164,None,,,,,,,,,,,,,,,,,attack,98,136,silent,new,null,1850.8550546001643,None,1850.8550546001643,None,6,2.867621099576354,1850.8550546001643,None,2.867621099576354,1853.742240300402,None,1854.247137600556,None,1854.247137600556,None,f,1.0356804998591542,1854.247137600556,None,1.0356804998591542,,,103Silent,001,2022_Nov_28_1535,ProdSingRedoBetween,2021.2.3,59.895912912760174,
,,,,136,0,136,0,,,,,,,,,,,,,,,,,,,,,,1859.1965366005898,None,,,,,,,,,,,,,,,,,frank,85,137,silent,old,red,1855.8220937000588,None,1855.8220937000588,None,6,2.508560299873352,1855.8220937000588,None,2.508560299873352,1858.3643120005727,None,1858.879620300606,None,1858.879620300606,None,r,0.29115370009094477,1858.879620300606,None,0.29115370009094477,,,103Silent,001,2022_Nov_28_1535,ProdSingRedoBetween,2021.2.3,59.895912912760174,
,,,,137,0,137,0,,,,,,,,,,,,,,,,,,,,,,1864.8389936005697,None,,,,,,,,,,,,,,,,,institute,90,138,silent,new,null,1859.6969352001324,None,1859.6969352001324,None,3,2.2898853002116084,1859.6969352001324,None,2.2898853002116084,1862.0172977000475,None,1862.5165967997164,None,1862.5165967997164,None,f,2.2940360996872187,1862.5165967997164,None,2.2940360996872187,,,103Silent,001,2022_Nov_28_1535,ProdSingRedoBetween,2021.2.3,59.895912912760174,
,,,,138,0,138,0,,,,,,,,,,,,,,,,,,,,,,1867.8402241002768,None,,,,,,,,,,,,,,,,,production,165,139,silent,new,null,1865.3536344002932,None,1865.3536344002932,None,2,1.6091464003548026,1865.3536344002932,None,1.6091464003548026,1866.990706300363,None,1867.5094921002164,None,1867.5094921002164,None,n,0.3093941006809473,1867.5094921002164,None,0.3093941006809473,,,103Silent,001,2022_Nov_28_1535,ProdSingRedoBetween,2021.2.3,59.895912912760174,
,,,,139,0,139,0,,,,,,,,,,,,,,,,,,,,,,1870.6763871004805,None,,,,,,,,,,,,,,,,,crowd,94,140,silent,new,null,1868.357844300568,None,1868.357844300568,None,2,1.6129242004826665,1868.357844300568,None,1.6129242004826665,1870.000686599873,None,1870.5076390998438,None,1870.5076390998438,None,n,0.14316229987889528,1870.5076390998438,None,0.14316229987889528,,,103Silent,001,2022_Nov_28_1535,ProdSingRedoBetween,2021.2.3,59.895912912760174,
,,,,140,0,140,0,,,,,,,,,,,,,,,,,,,,,,1881.436585300602,None,,,,,,,,,,,,,,,,,household,149,141,silent,new,null,1871.193897999823,None,1871.193897999823,None,2,7.936880600638688,1871.193897999823,None,7.936880600638688,1879.1509889001027,None,1879.6544677000493,None,1879.6544677000493,None,n,1.7643718998879194,1879.6544677000493,None,1.7643718998879194,,,103Silent,001,2022_Nov_28_1535,ProdSingRedoBetween,2021.2.3,59.895912912760174,
,,,,141,0,141,0,,,,,,,,,,,,,,,,,,,,,,1885.2390328999609,None,,,,,,,,,,,,,,,,,salary,83,142,silent,old,red,1881.9405522001907,None,1881.9405522001907,None,5,2.670079699717462,1881.9405522001907,None,2.670079699717462,1884.639430500567,None,1885.146415100433,None,1885.146415100433,None,f,0.06427490059286356,1885.146415100433,None,0.06427490059286356,,,103Silent,001,2022_Nov_28_1535,ProdSingRedoBetween,2021.2.3,59.895912912760174,
,,,,142,0,142,0,,,,,,,,,,,,,,,,,,,,,,1889.4933673003688,None,,,,,,,,,,,,,,,,,material,35,143,silent,old,blue,1885.7396478997543,None,1885.7396478997543,None,2,2.134965400211513,1885.7396478997543,None,2.134965400211513,1887.8935978999361,None,1888.4091137005016,None,1888.4091137005016,None,n,1.065624000504613,1888.4091137005016,None,1.065624000504613,,,103Silent,001,2022_Nov_28_1535,ProdSingRedoBetween,2021.2.3,59.895912912760174,
,,,,143,0,143,0,,,,,,,,,,,,,,,,,,,,,,1894.1646158006042,None,,,,,,,,,,,,,,,,,danger,60,144,silent,old,red,1890.0010071005672,None,1890.0010071005672,None,3,3.0178292002528906,1890.0010071005672,None,3.0178292002528906,1893.054263100028,None,1893.5642990004271,None,1893.5642990004271,None,n,0.5823697000741959,1893.5642990004271,None,0.5823697000741959,,,103Silent,001,2022_Nov_28_1535,ProdSingRedoBetween,2021.2.3,59.895912912760174,
,,,,144,0,144,0,,,,,,,,,,,,,,,,,,,,,,1903.2068715998903,None,,,,,,,,,,,,,,,,,afternoon,106,145,silent,new,null,1894.673647600226,None,1894.673647600226,None,4,6.297021799720824,1894.673647600226,None,6.297021799720824,1900.9895989000797,None,1901.4970086999238,None,1901.4970086999238,None,f,1.6816646000370383,1901.4970086999238,None,1.6816646000370383,,,103Silent,001,2022_Nov_28_1535,ProdSingRedoBetween,2021.2.3,59.895912912760174,
,,,,145,0,145,0,,,,,,,,,,,,,,,,,,,,,,1906.410239400342,None,,,,,,,,,,,,,,,,,council,151,146,silent,new,null,1903.7190214004368,None,1903.7190214004368,None,5,1.883763900026679,1903.7190214004368,None,1.883763900026679,1905.6393378004432,None,1906.1431811004877,None,1906.1431811004877,None,f,0.24362700060009956,1906.1431811004877,None,0.24362700060009956,,,103Silent,001,2022_Nov_28_1535,ProdSingRedoBetween,2021.2.3,59.895912912760174,
,,,,146,0,146,0,,,,,,,,,,,,,,,,,,,,,,1909.3631238006055,None,,,,,,,,,,,,,,,,,science,137,147,silent,new,null,1906.9116651006043,None,1906.9116651006043,None,4,1.8669363996014,1906.9116651006043,None,1.8669363996014,1908.7992623997852,None,1909.3131859004498,None,1909.3131859004498,None,f,0.03352839965373278,1909.3131859004498,None,0.03352839965373278,,,103Silent,001,2022_Nov_28_1535,ProdSingRedoBetween,2021.2.3,59.895912912760174,
,,,,147,0,147,0,,,,,,,,,,,,,,,,,,,,,,1912.415944300592,None,,,,,,,,,,,,,,,,,childhood,86,148,silent,old,red,1909.8635600004345,None,1909.8635600004345,None,2,1.811056999489665,1909.8635600004345,None,1.811056999489665,1911.6998586999252,None,1912.199417100288,None,1912.199417100288,None,n,0.18740470055490732,1912.199417100288,None,0.18740470055490732,,,103Silent,001,2022_Nov_28_1535,ProdSingRedoBetween,2021.2.3,59.895912912760174,
,,,,148,0,148,0,,,,,,,,,,,,,,,,,,,,,,1915.7050638003275,None,,,,,,,,,,,,,,,,,century,101,149,silent,new,null,1912.9207391999662,None,1912.9207391999662,None,2,1.9538353998214006,1912.9207391999662,None,1.9538353998214006,1914.9025713996962,None,1915.4025771003217,None,1915.4025771003217,None,n,0.2801089007407427,1915.4025771003217,None,0.2801089007407427,,,103Silent,001,2022_Nov_28_1535,ProdSingRedoBetween,2021.2.3,59.895912912760174,
,,,,149,0,149,0,,,,,,,,,,,,,,,,,,,,,,1918.7391429003328,None,,,,,,,,,,,,,,,,,plane,163,150,silent,new,null,1916.2342859003693,None,1916.2342859003693,None,1,1.7682254994288087,1916.2342859003693,None,1.7682254994288087,1918.027265000157,None,1918.5391159998253,None,1918.5391159998253,None,n,0.18355560023337603,1918.5391159998253,None,0.18355560023337603,,,103Silent,001,2022_Nov_28_1535,ProdSingRedoBetween,2021.2.3,59.895912912760174,
,,,,150,0,150,0,,,,,,,,,,,,,,,,,,,,,,1921.7096926001832,None,,,,,,,,,,,,,,,,,order,62,151,silent,old,red,1919.2477831002325,None,1919.2477831002325,None,3,1.8828481994569302,1919.2477831002325,None,1.8828481994569302,1921.1600772999227,None,1921.675300099887,None,1921.675300099887,None,f,0.0152818001806736,1921.675300099887,None,0.0152818001806736,,,103Silent,001,2022_Nov_28_1535,ProdSingRedoBetween,2021.2.3,59.895912912760174,
,,,,151,0,151,0,,,,,,,,,,,,,,,,,,,,,,1924.745061200112,None,,,,,,,,,,,,,,,,,worker,67,152,silent,old,red,1922.2104294002056,None,1922.2104294002056,None,4,1.7361262999475002,1922.2104294002056,None,1.7361262999475002,1923.9776090998203,None,1924.4817812005058,None,1924.4817812005058,None,f,0.23282499983906746,1924.4817812005058,None,0.23282499983906746,,,103Silent,001,2022_Nov_28_1535,ProdSingRedoBetween,2021.2.3,59.895912912760174,
,,,,152,0,152,0,,,,,,,,,,,,,,,,,,,,,,1929.6353283002973,None,,,,,,,,,,,,,,,,,split,155,153,silent,new,null,1925.2551225004718,None,1925.2551225004718,None,2,3.379426800645888,1925.2551225004718,None,3.379426800645888,1928.6664231996983,None,1929.1705116005614,None,1929.1705116005614,None,n,0.4401358002796769,1929.1705116005614,None,0.4401358002796769,,,103Silent,001,2022_Nov_28_1535,ProdSingRedoBetween,2021.2.3,59.895912912760174,
,,,,153,0,153,0,,,,,,,,,,,,,,,,,,,,,,1932.5695636998862,None,,,,,,,,,,,,,,,,,growth,144,154,silent,new,null,1930.153059599921,None,1930.153059599921,None,2,1.689592500217259,1930.153059599921,None,1.689592500217259,1931.869788300246,None,1932.3731484003365,None,1932.3731484003365,None,n,0.16548349987715483,1932.3731484003365,None,0.16548349987715483,,,103Silent,001,2022_Nov_28_1535,ProdSingRedoBetween,2021.2.3,59.895912912760174,
,,,,154,0,154,0,,,,,,,,,,,,,,,,,,,,,,1935.973033300601,None,,,,,,,,,,,,,,,,,enemy,46,155,silent,old,blue,1933.0808992004022,None,1933.0808992004022,None,6,2.241724199615419,1933.0808992004022,None,2.241724199615419,1935.3403243003413,None,1935.8394456999376,None,1935.8394456999376,None,r,0.11515359953045845,1935.8394456999376,None,0.11515359953045845,,,103Silent,001,2022_Nov_28_1535,ProdSingRedoBetween,2021.2.3,59.895912912760174,
,,,,155,0,155,0,,,,,,,,,,,,,,,,,,,,,,1939.2276202999055,None,,,,,,,,,,,,,,,,,cousin,162,156,silent,new,null,1936.4856139002368,None,1936.4856139002368,None,2,1.5809885002672672,1936.4856139002368,None,1.5809885002672672,1938.094809900038,None,1938.6133781997487,None,1938.6133781997487,None,n,0.5973113002255559,1938.6133781997487,None,0.5973113002255559,,,103Silent,001,2022_Nov_28_1535,ProdSingRedoBetween,2021.2.3,59.895912912760174,
,,,,156,0,156,0,,,,,,,,,,,,,,,,,,,,,,1943.681188000366,None,,,,,,,,,,,,,,,,,crime,61,157,silent,old,red,1939.7297074003145,None,1939.7297074003145,None,4,3.4088931996375322,1939.7297074003145,None,3.4088931996375322,1943.1644192002714,None,1943.6641015997157,None,1943.6641015997157,None,f,0.002909500151872635,1943.6641015997157,None,0.002909500151872635,,,103Silent,001,2022_Nov_28_1535,ProdSingRedoBetween,2021.2.3,59.895912912760174,
,,,,157,0,157,0,,,,,,,,,,,,,,,,,,,,,,1946.9839866003022,None,,,,,,,,,,,,,,,,,figure,99,158,silent,new,null,1944.1900613997132,None,1944.1900613997132,None,3,2.004527600482106,1944.1900613997132,None,2.004527600482106,1946.2184266997501,None,1946.7339209998026,None,1946.7339209998026,None,n,0.22073729988187551,1946.7339209998026,None,0.22073729988187551,,,103Silent,001,2022_Nov_28_1535,ProdSingRedoBetween,2021.2.3,59.895912912760174,
,,,,158,0,158,0,,,,,,,,,,,,,,,,,,,,,,1953.4235994005576,None,,,,,,,,,,,,,,,,,track,49,159,silent,old,blue,1947.487641500309,None,1947.487641500309,None,2,5.114956500008702,1947.487641500309,None,5.114956500008702,1952.6240461003035,None,1953.1276740003377,None,1953.1276740003377,None,n,0.2669369000941515,1953.1276740003377,None,0.2669369000941515,,,103Silent,001,2022_Nov_28_1535,ProdSingRedoBetween,2021.2.3,59.895912912760174,
,,,,159,0,159,0,,,,,,,,,,,,,,,,,,,,,,1956.5934164999053,None,,,,,,,,,,,,,,,,,degree,134,160,silent,new,null,1953.924070900306,None,1953.924070900306,None,3,2.1025157002732158,1953.924070900306,None,2.1025157002732158,1956.0440031001344,None,1956.5492909997702,None,1956.5492909997702,None,f,0.01322800014168024,1956.5492909997702,None,0.01322800014168024,,,103Silent,001,2022_Nov_28_1535,ProdSingRedoBetween,2021.2.3,59.895912912760174,
,,,,160,0,160,0,,,,,,,,,,,,,,,,,,,,,,1959.4463692000136,None,,,,,,,,,,,,,,,,,message,77,161,silent,old,red,1957.1040471997112,None,1957.1040471997112,None,4,1.7465354008600116,1957.1040471997112,None,1.7465354008600116,1958.8827822003514,None,1959.399714499712,None,1959.399714499712,None,f,0.02688940055668354,1959.399714499712,None,0.02688940055668354,,,103Silent,001,2022_Nov_28_1535,ProdSingRedoBetween,2021.2.3,59.895912912760174,
,,,,161,0,161,0,,,,,,,,,,,,,,,,,,,,,,1964.0009313002229,None,,,,,,,,,,,,,,,,,prime,174,162,silent,new,null,1959.9493853999302,None,1959.9493853999302,None,2,3.309161899611354,1959.9493853999302,None,3.309161899611354,1963.2848143000156,None,1963.7842739000916,None,1963.7842739000916,None,n,0.19434129912406206,1963.7842739000916,None,0.19434129912406206,,,103Silent,001,2022_Nov_28_1535,ProdSingRedoBetween,2021.2.3,59.895912912760174,
,,,,162,0,162,0,,,,,,,,,,,,,,,,,,,,,,1967.6879460001364,None,,,,,,,,,,,,,,,,,power,75,163,silent,old,red,1964.5102102998644,None,1964.5102102998644,None,4,1.6443680003285408,1964.5102102998644,None,1.6443680003285408,1966.170601299964,None,1966.6782049005851,None,1966.6782049005851,None,f,0.9883506000041962,1966.6782049005851,None,0.9883506000041962,,,103Silent,001,2022_Nov_28_1535,ProdSingRedoBetween,2021.2.3,59.895912912760174,
,,,,163,0,163,0,,,,,,,,,,,,,,,,,,,,,,1973.6956158000976,None,,,,,,,,,,,,,,,,,expansion,131,164,silent,new,null,1968.2002269998193,None,1968.2002269998193,None,4,4.786284999921918,1968.2002269998193,None,4.786284999921918,1973.009900700301,None,1973.5106270005926,None,1973.5106270005926,None,n,0.1559477001428604,1973.5106270005926,None,0.1559477001428604,,,103Silent,001,2022_Nov_28_1535,ProdSingRedoBetween,2021.2.3,59.895912912760174,
,,,,164,0,164,0,,,,,,,,,,,,,,,,,,,,,,1980.6340338001028,None,,,,,,,,,,,,,,,,,whole,72,165,silent,old,red,1974.213905800134,None,1974.213905800134,None,2,5.660541700199246,1974.213905800134,None,5.660541700199246,1979.9028518004343,None,1980.4206980001181,None,1980.4206980001181,None,n,0.1898520002141595,1980.4206980001181,None,0.1898520002141595,,,103Silent,001,2022_Nov_28_1535,ProdSingRedoBetween,2021.2.3,59.895912912760174,
,,,,165,0,165,0,,,,,,,,,,,,,,,,,,,,,,1983.437023400329,None,,,,,,,,,,,,,,,,,column,39,166,silent,old,blue,1981.1364048998803,None,1981.1364048998803,None,4,1.7060841005295515,1981.1364048998803,None,1.7060841005295515,1982.8697600997984,None,1983.372841000557,None,1983.372841000557,None,f,0.04555699974298477,1983.372841000557,None,0.04555699974298477,,,103Silent,001,2022_Nov_28_1535,ProdSingRedoBetween,2021.2.3,59.895912912760174,
,,,,166,0,166,0,,,,,,,,,,,,,,,,,,,,,,1987.6579280002043,None,,,,,,,,,,,,,,,,,partner,30,167,silent,old,blue,1983.9455014998093,None,1983.9455014998093,None,4,2.153002799488604,1983.9455014998093,None,2.153002799488604,1986.124781999737,None,1986.6403596000746,None,1986.6403596000746,None,f,1.002092900685966,1986.6403596000746,None,1.002092900685966,,,103Silent,001,2022_Nov_28_1535,ProdSingRedoBetween,2021.2.3,59.895912912760174,
,,,,167,0,167,0,,,,,,,,,,,,,,,,,,,,,,1992.8303139004856,None,,,,,,,,,,,,,,,,,executive,58,168,silent,old,blue,1988.16955900006,None,1988.16955900006,None,3,3.6810018997639418,1988.16955900006,None,3.6810018997639418,1991.883026599884,None,1992.3961642002687,None,1992.3961642002687,None,n,0.40640390012413263,1992.3961642002687,None,0.40640390012413263,,,103Silent,001,2022_Nov_28_1535,ProdSingRedoBetween,2021.2.3,59.895912912760174,
,,,,168,0,168,0,,,,,,,,,,,,,,,,,,,,,,1996.8002276998013,None,,,,,,,,,,,,,,,,,thick,143,169,silent,new,null,1993.3326622005552,None,1993.3326622005552,None,1,2.74978160019964,1993.3326622005552,None,2.74978160019964,1996.0996313998476,None,1996.6053977999836,None,1996.6053977999836,None,n,0.1734146997332573,1996.6053977999836,None,0.1734146997332573,,,103Silent,001,2022_Nov_28_1535,ProdSingRedoBetween,2021.2.3,59.895912912760174,
,,,,169,0,169,0,,,,,,,,,,,,,,,,,,,,,,2003.9740749998018,None,,,,,,,,,,,,,,,,,south,105,170,silent,new,null,1997.3099022004753,None,1997.3099022004753,None,3,5.532615000382066,1997.3099022004753,None,5.532615000382066,2002.8764834003523,None,2003.3984099002555,None,2003.3984099002555,None,f,0.5480805998668075,2003.3984099002555,None,0.5480805998668075,,,103Silent,001,2022_Nov_28_1535,ProdSingRedoBetween,2021.2.3,59.895912912760174,
,,,,170,0,170,0,,,,,,,,,,,,,,,,,,,,,,2006.8771083997563,None,,,,,,,,,,,,,,,,,sunset,96,171,silent,new,null,2004.491091599688,None,2004.491091599688,None,1,1.6315802996978164,2004.491091599688,None,1.6315802996978164,2006.1503798002377,None,2006.6602977998555,None,2006.6602977998555,None,n,0.19015320017933846,2006.6602977998555,None,0.19015320017933846,,,103Silent,001,2022_Nov_28_1535,ProdSingRedoBetween,2021.2.3,59.895912912760174,
,,,,171,0,171,0,,,,,,,,,,,,,,,,,,,,,,2009.8298784997314,None,,,,,,,,,,,,,,,,,master,33,172,silent,old,blue,2007.388369800523,None,2007.388369800523,None,1,1.7822064999490976,2007.388369800523,None,1.7822064999490976,2009.198986900039,None,2009.7180500999093,None,2009.7180500999093,None,n,0.0924466997385025,2009.7180500999093,None,0.0924466997385025,,,103Silent,001,2022_Nov_28_1535,ProdSingRedoBetween,2021.2.3,59.895912912760174,
,,,,172,0,172,0,,,,,,,,,,,,,,,,,,,,,,2012.7493309006095,None,,,,,,,,,,,,,,,,,trail,132,173,silent,new,null,2010.335924600251,None,2010.335924600251,None,3,1.7145368997007608,2010.335924600251,None,1.7145368997007608,2012.0660667996854,None,2012.5659797005355,None,2012.5659797005355,None,n,0.16453389916568995,2012.5659797005355,None,0.16453389916568995,,,103Silent,001,2022_Nov_28_1535,ProdSingRedoBetween,2021.2.3,59.895912912760174,
