StudyLoop.thisRepN,StudyLoop.thisTrialN,StudyLoop.thisN,StudyLoop.thisIndex,TestLoop.thisRepN,TestLoop.thisTrialN,TestLoop.thisN,TestLoop.thisIndex,textCondition.started,textCondition.stopped,keyCondition.keys,keyCondition.rt,keyCondition.started,keyCondition.stopped,Condition,textWelcome.started,textWelcome.stopped,keyWelcome.keys,keyWelcome.rt,keyWelcome.started,keyWelcome.stopped,textAloud.started,textAloud.stopped,textSilent.started,textSilent.stopped,textSing.started,textSing.stopped,conditional_text.started,conditional_text.stopped,textBlank500.started,textBlank500.stopped,study_word,study_num,study_order,study_type,word_color,textStudy.started,textStudy.stopped,keyStudy.keys,keyStudy.started,keyStudy.stopped,textTestInstructions.started,textTestInstructions.stopped,key_resp_3.keys,key_resp_3.rt,key_resp_3.started,key_resp_3.stopped,test_word,test_num,test_order,test_condition,old_new_test,test_word_original_color,textConf.started,textConf.stopped,textConfScale.started,textConfScale.stopped,keyConf.keys,keyConf.rt,keyConf.started,keyConf.stopped,confidence response time,textTestBlank.started,textTestBlank.stopped,textRKN.started,textRKN.stopped,textRKNScale.started,textRKNScale.stopped,keyRKN.keys,keyRKN.rt,keyRKN.started,keyRKN.stopped,rkn response time,textEnd.started,textEnd.stopped,participant,session,date,expName,psychopyVersion,frameRate
,,,,,,,,947.8389842,None,b,158.1824096,947.8389842,None,,,,,,,,,,,,,,,,,,,,,,,,,,,,,,,,,,,,,,,,,,,,,,,,,,,,,,,,,,,,,,Nov28Aloud1,104,2022_Nov_28_1700,ProdSingRedoBetween,2021.2.3,59.94707868
,,,,,,,,,,,,,,AloudTest,1106.086525,None,space,8.9583817,1106.086525,None,,,,,,,,,,,,,,,,,,,,,,,,,,,,,,,,,,,,,,,,,,,,,,,,,,,,,,,Nov28Aloud1,104,2022_Nov_28_1700,ProdSingRedoBetween,2021.2.3,59.94707868
0,0,0,0,,,,,,,,,,,,,,,,,,1106.086525,None,1106.086525,None,1106.086525,None,1106.086525,None,1117.586959,None,empty,2,1,aloud,yellow,1115.579921,None,None,1115.579921,None,,,,,,,,,,,,,,,,,,,,,,,,,,,,,,,,,,,Nov28Aloud1,104,2022_Nov_28_1700,ProdSingRedoBetween,2021.2.3,59.94707868
1,0,1,0,,,,,,,,,,,,,,,,,,,,,,,,,,1120.089475,None,under,44,2,aloud,blue,1118.087474,None,None,1118.087474,None,,,,,,,,,,,,,,,,,,,,,,,,,,,,,,,,,,,Nov28Aloud1,104,2022_Nov_28_1700,ProdSingRedoBetween,2021.2.3,59.94707868
2,0,2,0,,,,,,,,,,,,,,,,,,,,,,,,,,1122.591985,None,column,84,3,aloud,red,1120.591791,None,None,1120.591791,None,,,,,,,,,,,,,,,,,,,,,,,,,,,,,,,,,,,Nov28Aloud1,104,2022_Nov_28_1700,ProdSingRedoBetween,2021.2.3,59.94707868
3,0,3,0,,,,,,,,,,,,,,,,,,,,,,,,,,1125.094407,None,capital,86,4,aloud,red,1123.092758,None,None,1123.092758,None,,,,,,,,,,,,,,,,,,,,,,,,,,,,,,,,,,,Nov28Aloud1,104,2022_Nov_28_1700,ProdSingRedoBetween,2021.2.3,59.94707868
4,0,4,0,,,,,,,,,,,,,,,,,,,,,,,,,,1127.61361,None,dozen,11,5,aloud,yellow,1125.598854,None,None,1125.598854,None,,,,,,,,,,,,,,,,,,,,,,,,,,,,,,,,,,,Nov28Aloud1,104,2022_Nov_28_1700,ProdSingRedoBetween,2021.2.3,59.94707868
5,0,5,0,,,,,,,,,,,,,,,,,,,,,,,,,,1130.132817,None,count,58,6,aloud,blue,1128.117125,None,None,1128.117125,None,,,,,,,,,,,,,,,,,,,,,,,,,,,,,,,,,,,Nov28Aloud1,104,2022_Nov_28_1700,ProdSingRedoBetween,2021.2.3,59.94707868
6,0,6,0,,,,,,,,,,,,,,,,,,,,,,,,,,1132.635215,None,frank,48,7,aloud,blue,1130.635889,None,None,1130.635889,None,,,,,,,,,,,,,,,,,,,,,,,,,,,,,,,,,,,Nov28Aloud1,104,2022_Nov_28_1700,ProdSingRedoBetween,2021.2.3,59.94707868
7,0,7,0,,,,,,,,,,,,,,,,,,,,,,,,,,1135.15449,None,guard,29,8,aloud,blue,1133.141144,None,None,1133.141144,None,,,,,,,,,,,,,,,,,,,,,,,,,,,,,,,,,,,Nov28Aloud1,104,2022_Nov_28_1700,ProdSingRedoBetween,2021.2.3,59.94707868
8,0,8,0,,,,,,,,,,,,,,,,,,,,,,,,,,1137.656911,None,poetry,71,9,aloud,red,1135.654983,None,None,1135.654983,None,,,,,,,,,,,,,,,,,,,,,,,,,,,,,,,,,,,Nov28Aloud1,104,2022_Nov_28_1700,ProdSingRedoBetween,2021.2.3,59.94707868
9,0,9,0,,,,,,,,,,,,,,,,,,,,,,,,,,1140.176188,None,tough,50,10,aloud,blue,1138.161356,None,None,1138.161356,None,,,,,,,,,,,,,,,,,,,,,,,,,,,,,,,,,,,Nov28Aloud1,104,2022_Nov_28_1700,ProdSingRedoBetween,2021.2.3,59.94707868
10,0,10,0,,,,,,,,,,,,,,,,,,,,,,,,,,1142.678348,None,safety,82,11,aloud,red,1140.679072,None,None,1140.679072,None,,,,,,,,,,,,,,,,,,,,,,,,,,,,,,,,,,,Nov28Aloud1,104,2022_Nov_28_1700,ProdSingRedoBetween,2021.2.3,59.94707868
11,0,11,0,,,,,,,,,,,,,,,,,,,,,,,,,,1145.181194,None,opening,33,12,aloud,blue,1143.179026,None,None,1143.179026,None,,,,,,,,,,,,,,,,,,,,,,,,,,,,,,,,,,,Nov28Aloud1,104,2022_Nov_28_1700,ProdSingRedoBetween,2021.2.3,59.94707868
12,0,12,0,,,,,,,,,,,,,,,,,,,,,,,,,,1147.68336,None,break,59,13,aloud,yellow,1145.683737,None,None,1145.683737,None,,,,,,,,,,,,,,,,,,,,,,,,,,,,,,,,,,,Nov28Aloud1,104,2022_Nov_28_1700,ProdSingRedoBetween,2021.2.3,59.94707868
13,0,13,0,,,,,,,,,,,,,,,,,,,,,,,,,,1150.186091,None,instrument,19,14,aloud,yellow,1148.18415,None,None,1148.18415,None,,,,,,,,,,,,,,,,,,,,,,,,,,,,,,,,,,,Nov28Aloud1,104,2022_Nov_28_1700,ProdSingRedoBetween,2021.2.3,59.94707868
14,0,14,0,,,,,,,,,,,,,,,,,,,,,,,,,,1152.704961,None,object,66,15,aloud,red,1150.692633,None,None,1150.692633,None,,,,,,,,,,,,,,,,,,,,,,,,,,,,,,,,,,,Nov28Aloud1,104,2022_Nov_28_1700,ProdSingRedoBetween,2021.2.3,59.94707868
15,0,15,0,,,,,,,,,,,,,,,,,,,,,,,,,,1155.224426,None,state,15,16,aloud,yellow,1153.210144,None,None,1153.210144,None,,,,,,,,,,,,,,,,,,,,,,,,,,,,,,,,,,,Nov28Aloud1,104,2022_Nov_28_1700,ProdSingRedoBetween,2021.2.3,59.94707868
16,0,16,0,,,,,,,,,,,,,,,,,,,,,,,,,,1157.727085,None,breath,32,17,aloud,blue,1155.724828,None,None,1155.724828,None,,,,,,,,,,,,,,,,,,,,,,,,,,,,,,,,,,,Nov28Aloud1,104,2022_Nov_28_1700,ProdSingRedoBetween,2021.2.3,59.94707868
17,0,17,0,,,,,,,,,,,,,,,,,,,,,,,,,,1160.246017,None,testimony,60,18,aloud,red,1158.233555,None,None,1158.233555,None,,,,,,,,,,,,,,,,,,,,,,,,,,,,,,,,,,,Nov28Aloud1,104,2022_Nov_28_1700,ProdSingRedoBetween,2021.2.3,59.94707868
18,0,18,0,,,,,,,,,,,,,,,,,,,,,,,,,,1162.765303,None,conference,30,19,aloud,blue,1160.761184,None,None,1160.761184,None,,,,,,,,,,,,,,,,,,,,,,,,,,,,,,,,,,,Nov28Aloud1,104,2022_Nov_28_1700,ProdSingRedoBetween,2021.2.3,59.94707868
19,0,19,0,,,,,,,,,,,,,,,,,,,,,,,,,,1165.284597,None,universal,4,20,aloud,yellow,1163.269569,None,None,1163.269569,None,,,,,,,,,,,,,,,,,,,,,,,,,,,,,,,,,,,Nov28Aloud1,104,2022_Nov_28_1700,ProdSingRedoBetween,2021.2.3,59.94707868
20,0,20,0,,,,,,,,,,,,,,,,,,,,,,,,,,1167.787038,None,discovery,41,21,aloud,blue,1165.784991,None,None,1165.784991,None,,,,,,,,,,,,,,,,,,,,,,,,,,,,,,,,,,,Nov28Aloud1,104,2022_Nov_28_1700,ProdSingRedoBetween,2021.2.3,59.94707868
21,0,21,0,,,,,,,,,,,,,,,,,,,,,,,,,,1170.289441,None,length,47,22,aloud,blue,1168.287568,None,None,1168.287568,None,,,,,,,,,,,,,,,,,,,,,,,,,,,,,,,,,,,Nov28Aloud1,104,2022_Nov_28_1700,ProdSingRedoBetween,2021.2.3,59.94707868
22,0,22,0,,,,,,,,,,,,,,,,,,,,,,,,,,1172.808437,None,orchestra,87,23,aloud,red,1170.798759,None,None,1170.798759,None,,,,,,,,,,,,,,,,,,,,,,,,,,,,,,,,,,,Nov28Aloud1,104,2022_Nov_28_1700,ProdSingRedoBetween,2021.2.3,59.94707868
23,0,23,0,,,,,,,,,,,,,,,,,,,,,,,,,,1175.327949,None,write,45,24,aloud,blue,1173.3134,None,None,1173.3134,None,,,,,,,,,,,,,,,,,,,,,,,,,,,,,,,,,,,Nov28Aloud1,104,2022_Nov_28_1700,ProdSingRedoBetween,2021.2.3,59.94707868
24,0,24,0,,,,,,,,,,,,,,,,,,,,,,,,,,1177.830367,None,title,42,25,aloud,blue,1175.830983,None,None,1175.830983,None,,,,,,,,,,,,,,,,,,,,,,,,,,,,,,,,,,,Nov28Aloud1,104,2022_Nov_28_1700,ProdSingRedoBetween,2021.2.3,59.94707868
25,0,25,0,,,,,,,,,,,,,,,,,,,,,,,,,,1180.349665,None,vision,76,26,aloud,red,1178.339914,None,None,1178.339914,None,,,,,,,,,,,,,,,,,,,,,,,,,,,,,,,,,,,Nov28Aloud1,104,2022_Nov_28_1700,ProdSingRedoBetween,2021.2.3,59.94707868
26,0,26,0,,,,,,,,,,,,,,,,,,,,,,,,,,1182.851986,None,height,9,27,aloud,yellow,1180.849987,None,None,1180.849987,None,,,,,,,,,,,,,,,,,,,,,,,,,,,,,,,,,,,Nov28Aloud1,104,2022_Nov_28_1700,ProdSingRedoBetween,2021.2.3,59.94707868
27,0,27,0,,,,,,,,,,,,,,,,,,,,,,,,,,1185.371156,None,travel,36,28,aloud,blue,1183.361411,None,None,1183.361411,None,,,,,,,,,,,,,,,,,,,,,,,,,,,,,,,,,,,Nov28Aloud1,104,2022_Nov_28_1700,ProdSingRedoBetween,2021.2.3,59.94707868
28,0,28,0,,,,,,,,,,,,,,,,,,,,,,,,,,1187.890467,None,concern,20,29,aloud,yellow,1185.877522,None,None,1185.877522,None,,,,,,,,,,,,,,,,,,,,,,,,,,,,,,,,,,,Nov28Aloud1,104,2022_Nov_28_1700,ProdSingRedoBetween,2021.2.3,59.94707868
29,0,29,0,,,,,,,,,,,,,,,,,,,,,,,,,,1190.40958,None,medicine,56,30,aloud,blue,1188.394169,None,None,1188.394169,None,,,,,,,,,,,,,,,,,,,,,,,,,,,,,,,,,,,Nov28Aloud1,104,2022_Nov_28_1700,ProdSingRedoBetween,2021.2.3,59.94707868
30,0,30,0,,,,,,,,,,,,,,,,,,,,,,,,,,1192.911999,None,partner,64,31,aloud,red,1190.912455,None,None,1190.912455,None,,,,,,,,,,,,,,,,,,,,,,,,,,,,,,,,,,,Nov28Aloud1,104,2022_Nov_28_1700,ProdSingRedoBetween,2021.2.3,59.94707868
31,0,31,0,,,,,,,,,,,,,,,,,,,,,,,,,,1195.431215,None,audience,5,32,aloud,yellow,1193.417884,None,None,1193.417884,None,,,,,,,,,,,,,,,,,,,,,,,,,,,,,,,,,,,Nov28Aloud1,104,2022_Nov_28_1700,ProdSingRedoBetween,2021.2.3,59.94707868
32,0,32,0,,,,,,,,,,,,,,,,,,,,,,,,,,1197.933792,None,trail,7,33,aloud,yellow,1195.931747,None,None,1195.931747,None,,,,,,,,,,,,,,,,,,,,,,,,,,,,,,,,,,,Nov28Aloud1,104,2022_Nov_28_1700,ProdSingRedoBetween,2021.2.3,59.94707868
33,0,33,0,,,,,,,,,,,,,,,,,,,,,,,,,,1200.436113,None,science,18,34,aloud,yellow,1198.434954,None,None,1198.434954,None,,,,,,,,,,,,,,,,,,,,,,,,,,,,,,,,,,,Nov28Aloud1,104,2022_Nov_28_1700,ProdSingRedoBetween,2021.2.3,59.94707868
34,0,34,0,,,,,,,,,,,,,,,,,,,,,,,,,,1202.938667,None,century,61,35,aloud,red,1200.936647,None,None,1200.936647,None,,,,,,,,,,,,,,,,,,,,,,,,,,,,,,,,,,,Nov28Aloud1,104,2022_Nov_28_1700,ProdSingRedoBetween,2021.2.3,59.94707868
35,0,35,0,,,,,,,,,,,,,,,,,,,,,,,,,,1205.441284,None,commercial,80,36,aloud,red,1203.441224,None,None,1203.441224,None,,,,,,,,,,,,,,,,,,,,,,,,,,,,,,,,,,,Nov28Aloud1,104,2022_Nov_28_1700,ProdSingRedoBetween,2021.2.3,59.94707868
36,0,36,0,,,,,,,,,,,,,,,,,,,,,,,,,,1207.943706,None,bicycle,3,37,aloud,yellow,1205.942163,None,None,1205.942163,None,,,,,,,,,,,,,,,,,,,,,,,,,,,,,,,,,,,Nov28Aloud1,104,2022_Nov_28_1700,ProdSingRedoBetween,2021.2.3,59.94707868
37,0,37,0,,,,,,,,,,,,,,,,,,,,,,,,,,1210.446231,None,quantity,68,38,aloud,red,1208.446817,None,None,1208.446817,None,,,,,,,,,,,,,,,,,,,,,,,,,,,,,,,,,,,Nov28Aloud1,104,2022_Nov_28_1700,ProdSingRedoBetween,2021.2.3,59.94707868
38,0,38,0,,,,,,,,,,,,,,,,,,,,,,,,,,1212.948744,None,payment,43,39,aloud,blue,1210.949141,None,None,1210.949141,None,,,,,,,,,,,,,,,,,,,,,,,,,,,,,,,,,,,Nov28Aloud1,104,2022_Nov_28_1700,ProdSingRedoBetween,2021.2.3,59.94707868
39,0,39,0,,,,,,,,,,,,,,,,,,,,,,,,,,1215.468107,None,working,89,40,aloud,red,1213.461463,None,None,1213.461463,None,,,,,,,,,,,,,,,,,,,,,,,,,,,,,,,,,,,Nov28Aloud1,104,2022_Nov_28_1700,ProdSingRedoBetween,2021.2.3,59.94707868
40,0,40,0,,,,,,,,,,,,,,,,,,,,,,,,,,1217.970417,None,education,40,41,aloud,blue,1215.968452,None,None,1215.968452,None,,,,,,,,,,,,,,,,,,,,,,,,,,,,,,,,,,,Nov28Aloud1,104,2022_Nov_28_1700,ProdSingRedoBetween,2021.2.3,59.94707868
41,0,41,0,,,,,,,,,,,,,,,,,,,,,,,,,,1220.489577,None,turkey,75,42,aloud,red,1218.474855,None,None,1218.474855,None,,,,,,,,,,,,,,,,,,,,,,,,,,,,,,,,,,,Nov28Aloud1,104,2022_Nov_28_1700,ProdSingRedoBetween,2021.2.3,59.94707868
42,0,42,0,,,,,,,,,,,,,,,,,,,,,,,,,,1222.992115,None,crowd,67,43,aloud,red,1220.990172,None,None,1220.990172,None,,,,,,,,,,,,,,,,,,,,,,,,,,,,,,,,,,,Nov28Aloud1,104,2022_Nov_28_1700,ProdSingRedoBetween,2021.2.3,59.94707868
43,0,43,0,,,,,,,,,,,,,,,,,,,,,,,,,,1225.494475,None,tragedy,25,44,aloud,yellow,1223.492654,None,None,1223.492654,None,,,,,,,,,,,,,,,,,,,,,,,,,,,,,,,,,,,Nov28Aloud1,104,2022_Nov_28_1700,ProdSingRedoBetween,2021.2.3,59.94707868
44,0,44,0,,,,,,,,,,,,,,,,,,,,,,,,,,1228.013787,None,relation,21,45,aloud,yellow,1226.000646,None,None,1226.000646,None,,,,,,,,,,,,,,,,,,,,,,,,,,,,,,,,,,,Nov28Aloud1,104,2022_Nov_28_1700,ProdSingRedoBetween,2021.2.3,59.94707868
45,0,45,0,,,,,,,,,,,,,,,,,,,,,,,,,,1230.51592,None,dance,73,46,aloud,red,1228.513987,None,None,1228.513987,None,,,,,,,,,,,,,,,,,,,,,,,,,,,,,,,,,,,Nov28Aloud1,104,2022_Nov_28_1700,ProdSingRedoBetween,2021.2.3,59.94707868
46,0,46,0,,,,,,,,,,,,,,,,,,,,,,,,,,1233.018692,None,country,54,47,aloud,blue,1231.016752,None,None,1231.016752,None,,,,,,,,,,,,,,,,,,,,,,,,,,,,,,,,,,,Nov28Aloud1,104,2022_Nov_28_1700,ProdSingRedoBetween,2021.2.3,59.94707868
47,0,47,0,,,,,,,,,,,,,,,,,,,,,,,,,,1235.521169,None,sunset,22,48,aloud,yellow,1233.520372,None,None,1233.520372,None,,,,,,,,,,,,,,,,,,,,,,,,,,,,,,,,,,,Nov28Aloud1,104,2022_Nov_28_1700,ProdSingRedoBetween,2021.2.3,59.94707868
48,0,48,0,,,,,,,,,,,,,,,,,,,,,,,,,,1238.040502,None,season,55,49,aloud,blue,1236.025893,None,None,1236.025893,None,,,,,,,,,,,,,,,,,,,,,,,,,,,,,,,,,,,Nov28Aloud1,104,2022_Nov_28_1700,ProdSingRedoBetween,2021.2.3,59.94707868
49,0,49,0,,,,,,,,,,,,,,,,,,,,,,,,,,1240.542903,None,grade,52,50,aloud,blue,1238.540915,None,None,1238.540915,None,,,,,,,,,,,,,,,,,,,,,,,,,,,,,,,,,,,Nov28Aloud1,104,2022_Nov_28_1700,ProdSingRedoBetween,2021.2.3,59.94707868
50,0,50,0,,,,,,,,,,,,,,,,,,,,,,,,,,1243.062021,None,still,14,51,aloud,yellow,1241.054307,None,None,1241.054307,None,,,,,,,,,,,,,,,,,,,,,,,,,,,,,,,,,,,Nov28Aloud1,104,2022_Nov_28_1700,ProdSingRedoBetween,2021.2.3,59.94707868
51,0,51,0,,,,,,,,,,,,,,,,,,,,,,,,,,1245.581249,None,bitter,28,52,aloud,yellow,1243.571246,None,None,1243.571246,None,,,,,,,,,,,,,,,,,,,,,,,,,,,,,,,,,,,Nov28Aloud1,104,2022_Nov_28_1700,ProdSingRedoBetween,2021.2.3,59.94707868
52,0,52,0,,,,,,,,,,,,,,,,,,,,,,,,,,1248.08389,None,article,23,53,aloud,yellow,1246.081768,None,None,1246.081768,None,,,,,,,,,,,,,,,,,,,,,,,,,,,,,,,,,,,Nov28Aloud1,104,2022_Nov_28_1700,ProdSingRedoBetween,2021.2.3,59.94707868
53,0,53,0,,,,,,,,,,,,,,,,,,,,,,,,,,1250.602865,None,message,53,54,aloud,blue,1248.592958,None,None,1248.592958,None,,,,,,,,,,,,,,,,,,,,,,,,,,,,,,,,,,,Nov28Aloud1,104,2022_Nov_28_1700,ProdSingRedoBetween,2021.2.3,59.94707868
54,0,54,0,,,,,,,,,,,,,,,,,,,,,,,,,,1253.105457,None,thick,0,55,aloud,yellow,1251.10436,None,None,1251.10436,None,,,,,,,,,,,,,,,,,,,,,,,,,,,,,,,,,,,Nov28Aloud1,104,2022_Nov_28_1700,ProdSingRedoBetween,2021.2.3,59.94707868
55,0,55,0,,,,,,,,,,,,,,,,,,,,,,,,,,1255.624585,None,material,6,56,aloud,yellow,1253.610159,None,None,1253.610159,None,,,,,,,,,,,,,,,,,,,,,,,,,,,,,,,,,,,Nov28Aloud1,104,2022_Nov_28_1700,ProdSingRedoBetween,2021.2.3,59.94707868
56,0,56,0,,,,,,,,,,,,,,,,,,,,,,,,,,1258.127219,None,finance,83,57,aloud,red,1256.125111,None,None,1256.125111,None,,,,,,,,,,,,,,,,,,,,,,,,,,,,,,,,,,,Nov28Aloud1,104,2022_Nov_28_1700,ProdSingRedoBetween,2021.2.3,59.94707868
57,0,57,0,,,,,,,,,,,,,,,,,,,,,,,,,,1260.646568,None,appearance,88,58,aloud,red,1258.637498,None,None,1258.637498,None,,,,,,,,,,,,,,,,,,,,,,,,,,,,,,,,,,,Nov28Aloud1,104,2022_Nov_28_1700,ProdSingRedoBetween,2021.2.3,59.94707868
58,0,58,0,,,,,,,,,,,,,,,,,,,,,,,,,,1263.148741,None,tennis,16,59,aloud,yellow,1261.14681,None,None,1261.14681,None,,,,,,,,,,,,,,,,,,,,,,,,,,,,,,,,,,,Nov28Aloud1,104,2022_Nov_28_1700,ProdSingRedoBetween,2021.2.3,59.94707868
59,0,59,0,,,,,,,,,,,,,,,,,,,,,,,,,,1265.667733,None,native,34,60,aloud,blue,1263.653823,None,None,1263.653823,None,,,,,,,,,,,,,,,,,,,,,,,,,,,,,,,,,,,Nov28Aloud1,104,2022_Nov_28_1700,ProdSingRedoBetween,2021.2.3,59.94707868
60,0,60,0,,,,,,,,,,,,,,,,,,,,,,,,,,1268.170386,None,mankind,26,61,aloud,yellow,1266.169806,None,None,1266.169806,None,,,,,,,,,,,,,,,,,,,,,,,,,,,,,,,,,,,Nov28Aloud1,104,2022_Nov_28_1700,ProdSingRedoBetween,2021.2.3,59.94707868
61,0,61,0,,,,,,,,,,,,,,,,,,,,,,,,,,1270.673649,None,agreement,46,62,aloud,blue,1268.67077,None,None,1268.67077,None,,,,,,,,,,,,,,,,,,,,,,,,,,,,,,,,,,,Nov28Aloud1,104,2022_Nov_28_1700,ProdSingRedoBetween,2021.2.3,59.94707868
62,0,62,0,,,,,,,,,,,,,,,,,,,,,,,,,,1273.175114,None,growth,77,63,aloud,red,1271.175083,None,None,1271.175083,None,,,,,,,,,,,,,,,,,,,,,,,,,,,,,,,,,,,Nov28Aloud1,104,2022_Nov_28_1700,ProdSingRedoBetween,2021.2.3,59.94707868
63,0,63,0,,,,,,,,,,,,,,,,,,,,,,,,,,1275.694622,None,nature,81,64,aloud,red,1273.679781,None,None,1273.679781,None,,,,,,,,,,,,,,,,,,,,,,,,,,,,,,,,,,,Nov28Aloud1,104,2022_Nov_28_1700,ProdSingRedoBetween,2021.2.3,59.94707868
64,0,64,0,,,,,,,,,,,,,,,,,,,,,,,,,,1278.197084,None,music,17,65,aloud,yellow,1276.197508,None,None,1276.197508,None,,,,,,,,,,,,,,,,,,,,,,,,,,,,,,,,,,,Nov28Aloud1,104,2022_Nov_28_1700,ProdSingRedoBetween,2021.2.3,59.94707868
65,0,65,0,,,,,,,,,,,,,,,,,,,,,,,,,,1280.699696,None,harmony,13,66,aloud,yellow,1278.697842,None,None,1278.697842,None,,,,,,,,,,,,,,,,,,,,,,,,,,,,,,,,,,,Nov28Aloud1,104,2022_Nov_28_1700,ProdSingRedoBetween,2021.2.3,59.94707868
66,0,66,0,,,,,,,,,,,,,,,,,,,,,,,,,,1283.202106,None,institute,38,67,aloud,blue,1281.200162,None,None,1281.200162,None,,,,,,,,,,,,,,,,,,,,,,,,,,,,,,,,,,,Nov28Aloud1,104,2022_Nov_28_1700,ProdSingRedoBetween,2021.2.3,59.94707868
67,0,67,0,,,,,,,,,,,,,,,,,,,,,,,,,,1285.7046,None,track,49,68,aloud,blue,1283.704281,None,None,1283.704281,None,,,,,,,,,,,,,,,,,,,,,,,,,,,,,,,,,,,Nov28Aloud1,104,2022_Nov_28_1700,ProdSingRedoBetween,2021.2.3,59.94707868
68,0,68,0,,,,,,,,,,,,,,,,,,,,,,,,,,1288.206842,None,mechanical,51,69,aloud,blue,1286.206572,None,None,1286.206572,None,,,,,,,,,,,,,,,,,,,,,,,,,,,,,,,,,,,Nov28Aloud1,104,2022_Nov_28_1700,ProdSingRedoBetween,2021.2.3,59.94707868
69,0,69,0,,,,,,,,,,,,,,,,,,,,,,,,,,1290.709659,None,stand,57,70,aloud,blue,1288.708084,None,None,1288.708084,None,,,,,,,,,,,,,,,,,,,,,,,,,,,,,,,,,,,Nov28Aloud1,104,2022_Nov_28_1700,ProdSingRedoBetween,2021.2.3,59.94707868
70,0,70,0,,,,,,,,,,,,,,,,,,,,,,,,,,1293.228578,None,match,12,71,aloud,yellow,1291.214379,None,None,1291.214379,None,,,,,,,,,,,,,,,,,,,,,,,,,,,,,,,,,,,Nov28Aloud1,104,2022_Nov_28_1700,ProdSingRedoBetween,2021.2.3,59.94707868
71,0,71,0,,,,,,,,,,,,,,,,,,,,,,,,,,1295.731302,None,silence,8,72,aloud,yellow,1293.730346,None,None,1293.730346,None,,,,,,,,,,,,,,,,,,,,,,,,,,,,,,,,,,,Nov28Aloud1,104,2022_Nov_28_1700,ProdSingRedoBetween,2021.2.3,59.94707868
72,0,72,0,,,,,,,,,,,,,,,,,,,,,,,,,,1298.250496,None,smell,70,73,aloud,red,1296.235786,None,None,1296.235786,None,,,,,,,,,,,,,,,,,,,,,,,,,,,,,,,,,,,Nov28Aloud1,104,2022_Nov_28_1700,ProdSingRedoBetween,2021.2.3,59.94707868
73,0,73,0,,,,,,,,,,,,,,,,,,,,,,,,,,1300.753052,None,impact,24,74,aloud,yellow,1298.753741,None,None,1298.753741,None,,,,,,,,,,,,,,,,,,,,,,,,,,,,,,,,,,,Nov28Aloud1,104,2022_Nov_28_1700,ProdSingRedoBetween,2021.2.3,59.94707868
74,0,74,0,,,,,,,,,,,,,,,,,,,,,,,,,,1303.255448,None,meeting,69,75,aloud,red,1301.25511,None,None,1301.25511,None,,,,,,,,,,,,,,,,,,,,,,,,,,,,,,,,,,,Nov28Aloud1,104,2022_Nov_28_1700,ProdSingRedoBetween,2021.2.3,59.94707868
75,0,75,0,,,,,,,,,,,,,,,,,,,,,,,,,,1305.757962,None,salary,31,76,aloud,blue,1303.755926,None,None,1303.755926,None,,,,,,,,,,,,,,,,,,,,,,,,,,,,,,,,,,,Nov28Aloud1,104,2022_Nov_28_1700,ProdSingRedoBetween,2021.2.3,59.94707868
76,0,76,0,,,,,,,,,,,,,,,,,,,,,,,,,,1308.277208,None,scene,85,77,aloud,red,1306.264153,None,None,1306.264153,None,,,,,,,,,,,,,,,,,,,,,,,,,,,,,,,,,,,Nov28Aloud1,104,2022_Nov_28_1700,ProdSingRedoBetween,2021.2.3,59.94707868
77,0,77,0,,,,,,,,,,,,,,,,,,,,,,,,,,1310.779605,None,phrase,62,78,aloud,red,1308.777582,None,None,1308.777582,None,,,,,,,,,,,,,,,,,,,,,,,,,,,,,,,,,,,Nov28Aloud1,104,2022_Nov_28_1700,ProdSingRedoBetween,2021.2.3,59.94707868
78,0,78,0,,,,,,,,,,,,,,,,,,,,,,,,,,1313.298715,None,symbol,10,79,aloud,yellow,1311.2845,None,None,1311.2845,None,,,,,,,,,,,,,,,,,,,,,,,,,,,,,,,,,,,Nov28Aloud1,104,2022_Nov_28_1700,ProdSingRedoBetween,2021.2.3,59.94707868
79,0,79,0,,,,,,,,,,,,,,,,,,,,,,,,,,1315.801287,None,addition,37,80,aloud,blue,1313.799347,None,None,1313.799347,None,,,,,,,,,,,,,,,,,,,,,,,,,,,,,,,,,,,Nov28Aloud1,104,2022_Nov_28_1700,ProdSingRedoBetween,2021.2.3,59.94707868
80,0,80,0,,,,,,,,,,,,,,,,,,,,,,,,,,1318.303894,None,attack,78,81,aloud,red,1316.302026,None,None,1316.302026,None,,,,,,,,,,,,,,,,,,,,,,,,,,,,,,,,,,,Nov28Aloud1,104,2022_Nov_28_1700,ProdSingRedoBetween,2021.2.3,59.94707868
81,0,81,0,,,,,,,,,,,,,,,,,,,,,,,,,,1320.823086,None,burden,79,82,aloud,red,1318.810131,None,None,1318.810131,None,,,,,,,,,,,,,,,,,,,,,,,,,,,,,,,,,,,Nov28Aloud1,104,2022_Nov_28_1700,ProdSingRedoBetween,2021.2.3,59.94707868
82,0,82,0,,,,,,,,,,,,,,,,,,,,,,,,,,1323.342178,None,signal,72,83,aloud,red,1321.328495,None,None,1321.328495,None,,,,,,,,,,,,,,,,,,,,,,,,,,,,,,,,,,,Nov28Aloud1,104,2022_Nov_28_1700,ProdSingRedoBetween,2021.2.3,59.94707868
83,0,83,0,,,,,,,,,,,,,,,,,,,,,,,,,,1325.844665,None,population,27,84,aloud,yellow,1323.844859,None,None,1323.844859,None,,,,,,,,,,,,,,,,,,,,,,,,,,,,,,,,,,,Nov28Aloud1,104,2022_Nov_28_1700,ProdSingRedoBetween,2021.2.3,59.94707868
84,0,84,0,,,,,,,,,,,,,,,,,,,,,,,,,,1328.363747,None,provision,74,85,aloud,red,1326.354502,None,None,1326.354502,None,,,,,,,,,,,,,,,,,,,,,,,,,,,,,,,,,,,Nov28Aloud1,104,2022_Nov_28_1700,ProdSingRedoBetween,2021.2.3,59.94707868
85,0,85,0,,,,,,,,,,,,,,,,,,,,,,,,,,1330.866319,None,short,65,86,aloud,red,1328.865791,None,None,1328.865791,None,,,,,,,,,,,,,,,,,,,,,,,,,,,,,,,,,,,Nov28Aloud1,104,2022_Nov_28_1700,ProdSingRedoBetween,2021.2.3,59.94707868
86,0,86,0,,,,,,,,,,,,,,,,,,,,,,,,,,1333.368859,None,dream,1,87,aloud,yellow,1331.36682,None,None,1331.36682,None,,,,,,,,,,,,,,,,,,,,,,,,,,,,,,,,,,,Nov28Aloud1,104,2022_Nov_28_1700,ProdSingRedoBetween,2021.2.3,59.94707868
87,0,87,0,,,,,,,,,,,,,,,,,,,,,,,,,,1335.8881,None,department,39,88,aloud,blue,1333.877923,None,None,1333.877923,None,,,,,,,,,,,,,,,,,,,,,,,,,,,,,,,,,,,Nov28Aloud1,104,2022_Nov_28_1700,ProdSingRedoBetween,2021.2.3,59.94707868
88,0,88,0,,,,,,,,,,,,,,,,,,,,,,,,,,1338.40722,None,agency,63,89,aloud,red,1336.391651,None,None,1336.391651,None,,,,,,,,,,,,,,,,,,,,,,,,,,,,,,,,,,,Nov28Aloud1,104,2022_Nov_28_1700,ProdSingRedoBetween,2021.2.3,59.94707868
89,0,89,0,,,,,,,,,,,,,,,,,,,,,,,,,,1340.926265,None,court,35,90,aloud,blue,1338.911223,None,None,1338.911223,None,,,,,,,,,,,,,,,,,,,,,,,,,,,,,,,,,,,Nov28Aloud1,104,2022_Nov_28_1700,ProdSingRedoBetween,2021.2.3,59.94707868
,,,,,,,,,,,,,,,,,,,,,,,,,,,,,,,,,,,,,,,,,1341.427059,None,k,79.0012622,1341.427059,None,,,,,,,,,,,,,,,,,,,,,,,,,,,,,Nov28Aloud1,104,2022_Nov_28_1700,ProdSingRedoBetween,2021.2.3,59.94707868
,,,,0,0,0,0,,,,,,,,,,,,,,,,,,,,,,1431.383744,None,,,,,,,,,,,,,,,,,conference,30,1,aloud,old,blue,1420.970096,None,1420.970096,None,6,6.68222,1420.970096,None,6.68222,1427.68221,None,1428.200464,None,1428.200464,None,r,3.163941899,1428.200464,None,3.163941899,,,Nov28Aloud1,104,2022_Nov_28_1700,ProdSingRedoBetween,2021.2.3,59.94707868
,,,,1,0,1,0,,,,,,,,,,,,,,,,,,,,,,1444.446174,None,,,,,,,,,,,,,,,,,afternoon,147,2,aloud,new,null,1431.887366,None,1431.887366,None,1,5.5889758,1431.887366,None,5.5889758,1437.505983,None,1438.010693,None,1438.010693,None,n,6.4095611,1438.010693,None,6.4095611,,,Nov28Aloud1,104,2022_Nov_28_1700,ProdSingRedoBetween,2021.2.3,59.94707868
,,,,2,0,2,0,,,,,,,,,,,,,,,,,,,,,,1463.833504,None,,,,,,,,,,,,,,,,,crisis,116,3,aloud,new,null,1444.957,None,1444.957,None,1,2.8393753,1444.957,None,2.8393753,1447.822237,None,1448.336643,None,1448.336643,None,r,15.4756935,1448.336643,None,15.4756935,,,Nov28Aloud1,104,2022_Nov_28_1700,ProdSingRedoBetween,2021.2.3,59.94707868
,,,,3,0,3,0,,,,,,,,,,,,,,,,,,,,,,1477.479198,None,,,,,,,,,,,,,,,,,month,104,4,aloud,new,null,1464.336032,None,1464.336032,None,4,8.644176601,1464.336032,None,8.644176601,1473.015322,None,1473.525283,None,1473.525283,None,n,3.9269266,1473.525283,None,3.9269266,,,Nov28Aloud1,104,2022_Nov_28_1700,ProdSingRedoBetween,2021.2.3,59.94707868
,,,,4,0,4,0,,,,,,,,,,,,,,,,,,,,,,1487.989613,None,,,,,,,,,,,,,,,,,ground,115,5,aloud,new,null,1477.984197,None,1477.984197,None,2,8.3562645,1477.984197,None,8.3562645,1486.379534,None,1486.888674,None,1486.888674,None,f,1.0835494,1486.888674,None,1.0835494,,,Nov28Aloud1,104,2022_Nov_28_1700,ProdSingRedoBetween,2021.2.3,59.94707868
,,,,5,0,5,0,,,,,,,,,,,,,,,,,,,,,,1493.128149,None,,,,,,,,,,,,,,,,,reading,99,6,aloud,new,null,1488.497558,None,1488.497558,None,1,2.8028086,1488.497558,None,2.8028086,1491.332685,None,1491.843636,None,1491.843636,None,r,1.2645395,1491.843636,None,1.2645395,,,Nov28Aloud1,104,2022_Nov_28_1700,ProdSingRedoBetween,2021.2.3,59.94707868
,,,,6,0,6,0,,,,,,,,,,,,,,,,,,,,,,1496.564951,None,,,,,,,,,,,,,,,,,guard,29,7,aloud,old,blue,1493.638123,None,1493.638123,None,6,1.998074099,1493.638123,None,1.998074099,1495.664623,None,1496.168162,None,1496.168162,None,r,0.3800814,1496.168162,None,0.3800814,,,Nov28Aloud1,104,2022_Nov_28_1700,ProdSingRedoBetween,2021.2.3,59.94707868
,,,,7,0,7,0,,,,,,,,,,,,,,,,,,,,,,1499.803488,None,,,,,,,,,,,,,,,,,travel,36,8,aloud,old,blue,1497.082149,None,1497.082149,None,6,1.70598,1497.082149,None,1.70598,1498.817186,None,1499.320317,None,1499.320317,None,r,0.452152199,1499.320317,None,0.452152199,,,Nov28Aloud1,104,2022_Nov_28_1700,ProdSingRedoBetween,2021.2.3,59.94707868
,,,,8,0,8,0,,,,,,,,,,,,,,,,,,,,,,1502.770779,None,,,,,,,,,,,,,,,,,dozen,11,9,aloud,old,yellow,1500.325921,None,1500.325921,None,6,1.438325,1500.325921,None,1.438325,1501.787999,None,1502.287241,None,1502.287241,None,r,0.4528999,1502.287241,None,0.4528999,,,Nov28Aloud1,104,2022_Nov_28_1700,ProdSingRedoBetween,2021.2.3,59.94707868
,,,,9,0,9,0,,,,,,,,,,,,,,,,,,,,,,1509.978301,None,,,,,,,,,,,,,,,,,congress,105,10,aloud,new,null,1503.284549,None,1503.284549,None,3,4.7678618,1503.284549,None,4.7678618,1508.083653,None,1508.59637,None,1508.59637,None,f,1.3598601,1508.59637,None,1.3598601,,,Nov28Aloud1,104,2022_Nov_28_1700,ProdSingRedoBetween,2021.2.3,59.94707868
,,,,10,0,10,0,,,,,,,,,,,,,,,,,,,,,,1514.883155,None,,,,,,,,,,,,,,,,,provision,74,11,aloud,old,red,1510.483409,None,1510.483409,None,5,3.0809482,1510.483409,None,3.0809482,1513.593184,None,1514.100721,None,1514.100721,None,f,0.7595006,1514.100721,None,0.7595006,,,Nov28Aloud1,104,2022_Nov_28_1700,ProdSingRedoBetween,2021.2.3,59.94707868
,,,,11,0,11,0,,,,,,,,,,,,,,,,,,,,,,1519.521822,None,,,,,,,,,,,,,,,,,tragedy,25,12,aloud,old,yellow,1515.395198,None,1515.395198,None,4,3.1850481,1515.395198,None,3.1850481,1518.610509,None,1519.120872,None,1519.120872,None,f,0.3714137,1519.120872,None,0.3714137,,,Nov28Aloud1,104,2022_Nov_28_1700,ProdSingRedoBetween,2021.2.3,59.94707868
,,,,12,0,12,0,,,,,,,,,,,,,,,,,,,,,,1522.224619,None,,,,,,,,,,,,,,,,,height,9,13,aloud,old,yellow,1520.027471,None,1520.027471,None,6,1.568633401,1520.027471,None,1.568633401,1521.624921,None,1522.143117,None,1522.143117,None,r,0.0531227,1522.143117,None,0.0531227,,,Nov28Aloud1,104,2022_Nov_28_1700,ProdSingRedoBetween,2021.2.3,59.94707868
,,,,13,0,13,0,,,,,,,,,,,,,,,,,,,,,,1525.410948,None,,,,,,,,,,,,,,,,,dance,73,14,aloud,old,red,1522.724404,None,1522.724404,None,6,2.0717933,1522.724404,None,2.0717933,1524.828076,None,1525.34884,None,1525.34884,None,r,0.0315014,1525.34884,None,0.0315014,,,Nov28Aloud1,104,2022_Nov_28_1700,ProdSingRedoBetween,2021.2.3,59.94707868
,,,,14,0,14,0,,,,,,,,,,,,,,,,,,,,,,1529.5843,None,,,,,,,,,,,,,,,,,capital,86,15,aloud,old,red,1525.91245,None,1525.91245,None,6,1.3878048,1525.91245,None,1.3878048,1527.334567,None,1527.857032,None,1527.857032,None,r,1.7071628,1527.857032,None,1.7071628,,,Nov28Aloud1,104,2022_Nov_28_1700,ProdSingRedoBetween,2021.2.3,59.94707868
,,,,15,0,15,0,,,,,,,,,,,,,,,,,,,,,,1536.889058,None,,,,,,,,,,,,,,,,,strength,111,16,aloud,new,null,1530.101823,None,1530.101823,None,2,5.3103529,1530.101823,None,5.3103529,1535.446253,None,1535.954289,None,1535.954289,None,f,0.9059535,1535.954289,None,0.9059535,,,Nov28Aloud1,104,2022_Nov_28_1700,ProdSingRedoBetween,2021.2.3,59.94707868
,,,,16,0,16,0,,,,,,,,,,,,,,,,,,,,,,1541.259402,None,,,,,,,,,,,,,,,,,power,113,17,aloud,new,null,1537.397613,None,1537.397613,None,2,2.550625,1537.397613,None,2.550625,1539.975851,None,1540.481019,None,1540.481019,None,f,0.7551426,1540.481019,None,0.7551426,,,Nov28Aloud1,104,2022_Nov_28_1700,ProdSingRedoBetween,2021.2.3,59.94707868
,,,,17,0,17,0,,,,,,,,,,,,,,,,,,,,,,1550.472654,None,,,,,,,,,,,,,,,,,minute,162,18,aloud,new,null,1541.770512,None,1541.770512,None,1,6.5457199,1541.770512,None,6.5457199,1548.335079,None,1548.850289,None,1548.850289,None,f,1.6021379,1548.850289,None,1.6021379,,,Nov28Aloud1,104,2022_Nov_28_1700,ProdSingRedoBetween,2021.2.3,59.94707868
,,,,18,0,18,0,,,,,,,,,,,,,,,,,,,,,,1555.473563,None,,,,,,,,,,,,,,,,,health,127,19,aloud,new,null,1550.994393,None,1550.994393,None,3,2.609702501,1550.994393,None,2.609702501,1553.622747,None,1554.124856,None,1554.124856,None,f,1.3274103,1554.124856,None,1.3274103,,,Nov28Aloud1,104,2022_Nov_28_1700,ProdSingRedoBetween,2021.2.3,59.94707868
,,,,19,0,19,0,,,,,,,,,,,,,,,,,,,,,,1558.780185,None,,,,,,,,,,,,,,,,,department,39,20,aloud,old,blue,1555.978597,None,1555.978597,None,6,1.9297685,1555.978597,None,1.9297685,1557.934223,None,1558.443908,None,1558.443908,None,r,0.3123415,1558.443908,None,0.3123415,,,Nov28Aloud1,104,2022_Nov_28_1700,ProdSingRedoBetween,2021.2.3,59.94707868
,,,,20,0,20,0,,,,,,,,,,,,,,,,,,,,,,1562.215484,None,,,,,,,,,,,,,,,,,crowd,67,21,aloud,old,red,1559.297977,None,1559.297977,None,6,2.010146401,1559.297977,None,2.010146401,1561.332514,None,1561.846774,None,1561.846774,None,r,0.3493732,1561.846774,None,0.3493732,,,Nov28Aloud1,104,2022_Nov_28_1700,ProdSingRedoBetween,2021.2.3,59.94707868
,,,,21,0,21,0,,,,,,,,,,,,,,,,,,,,,,1569.937816,None,,,,,,,,,,,,,,,,,attack,78,22,aloud,old,red,1562.733475,None,1562.733475,None,3,6.2626347,1562.733475,None,6.2626347,1569.021677,None,1569.526876,None,1569.526876,None,f,0.3812103,1569.526876,None,0.3812103,,,Nov28Aloud1,104,2022_Nov_28_1700,ProdSingRedoBetween,2021.2.3,59.94707868
,,,,22,0,22,0,,,,,,,,,,,,,,,,,,,,,,1574.67578,None,,,,,,,,,,,,,,,,,object,66,23,aloud,old,red,1570.447438,None,1570.447438,None,3,2.8606634,1570.447438,None,2.8606634,1573.325811,None,1573.830216,None,1573.830216,None,f,0.8218006,1573.830216,None,0.8218006,,,Nov28Aloud1,104,2022_Nov_28_1700,ProdSingRedoBetween,2021.2.3,59.94707868
,,,,23,0,23,0,,,,,,,,,,,,,,,,,,,,,,1579.163985,None,,,,,,,,,,,,,,,,,primary,93,24,aloud,new,null,1575.203051,None,1575.203051,None,1,2.0731008,1575.203051,None,2.0731008,1577.29957,None,1577.812575,None,1577.812575,None,r,1.327401401,1577.812575,None,1.327401401,,,Nov28Aloud1,104,2022_Nov_28_1700,ProdSingRedoBetween,2021.2.3,59.94707868
,,,,24,0,24,0,,,,,,,,,,,,,,,,,,,,,,1589.807853,None,,,,,,,,,,,,,,,,,partner,64,25,aloud,old,red,1579.670055,None,1579.670055,None,1,1.5900412,1579.670055,None,1.5900412,1581.285703,None,1581.799978,None,1581.799978,None,n,7.9881366,1581.799978,None,7.9881366,,,Nov28Aloud1,104,2022_Nov_28_1700,ProdSingRedoBetween,2021.2.3,59.94707868
,,,,25,0,25,0,,,,,,,,,,,,,,,,,,,,,,1594.462458,None,,,,,,,,,,,,,,,,,short,65,26,aloud,old,red,1590.310029,None,1590.310029,None,5,2.813957,1590.310029,None,2.813957,1593.145091,None,1593.655782,None,1593.655782,None,f,0.7802807,1593.655782,None,0.7802807,,,Nov28Aloud1,104,2022_Nov_28_1700,ProdSingRedoBetween,2021.2.3,59.94707868
,,,,26,0,26,0,,,,,,,,,,,,,,,,,,,,,,1602.422338,None,,,,,,,,,,,,,,,,,contract,117,27,aloud,new,null,1594.969668,None,1594.969668,None,4,5.3785023,1594.969668,None,5.3785023,1600.37003,None,1600.888509,None,1600.888509,None,f,1.5075779,1600.888509,None,1.5075779,,,Nov28Aloud1,104,2022_Nov_28_1700,ProdSingRedoBetween,2021.2.3,59.94707868
,,,,27,0,27,0,,,,,,,,,,,,,,,,,,,,,,1611.162537,None,,,,,,,,,,,,,,,,,pressure,138,28,aloud,new,null,1602.939337,None,1602.939337,None,3,6.7046617,1602.939337,None,6.7046617,1609.672628,None,1610.183932,None,1610.183932,None,f,0.9561334,1610.183932,None,0.9561334,,,Nov28Aloud1,104,2022_Nov_28_1700,ProdSingRedoBetween,2021.2.3,59.94707868
,,,,28,0,28,0,,,,,,,,,,,,,,,,,,,,,,1616.551231,None,,,,,,,,,,,,,,,,,broad,109,29,aloud,new,null,1611.674079,None,1611.674079,None,1,2.985944799,1611.674079,None,2.985944799,1614.68305,None,1615.18564,None,1615.18564,None,r,1.3463559,1615.18564,None,1.3463559,,,Nov28Aloud1,104,2022_Nov_28_1700,ProdSingRedoBetween,2021.2.3,59.94707868
,,,,29,0,29,0,,,,,,,,,,,,,,,,,,,,,,1622.974287,None,,,,,,,,,,,,,,,,,concern,20,30,aloud,old,yellow,1617.059861,None,1617.059861,None,3,4.360204199,1617.059861,None,4.360204199,1621.443036,None,1621.956573,None,1621.956573,None,f,0.9994023,1621.956573,None,0.9994023,,,Nov28Aloud1,104,2022_Nov_28_1700,ProdSingRedoBetween,2021.2.3,59.94707868
,,,,30,0,30,0,,,,,,,,,,,,,,,,,,,,,,1626.994827,None,,,,,,,,,,,,,,,,,estate,158,31,aloud,new,null,1623.486064,None,1623.486064,None,1,2.0941485,1623.486064,None,2.0941485,1625.615392,None,1626.134486,None,1626.134486,None,r,0.8294404,1626.134486,None,0.8294404,,,Nov28Aloud1,104,2022_Nov_28_1700,ProdSingRedoBetween,2021.2.3,59.94707868
,,,,31,0,31,0,,,,,,,,,,,,,,,,,,,,,,1630.649908,None,,,,,,,,,,,,,,,,,thick,0,32,aloud,old,yellow,1627.505974,None,1627.505974,None,6,1.434042101,1627.505974,None,1.434042101,1628.966695,None,1629.48113,None,1629.48113,None,r,1.1389491,1629.48113,None,1.1389491,,,Nov28Aloud1,104,2022_Nov_28_1700,ProdSingRedoBetween,2021.2.3,59.94707868
,,,,32,0,32,0,,,,,,,,,,,,,,,,,,,,,,1634.674549,None,,,,,,,,,,,,,,,,,store,97,33,aloud,new,null,1631.16049,None,1631.16049,None,1,2.3235245,1631.16049,None,2.3235245,1633.50268,None,1634.006303,None,1634.006303,None,f,0.6456439,1634.006303,None,0.6456439,,,Nov28Aloud1,104,2022_Nov_28_1700,ProdSingRedoBetween,2021.2.3,59.94707868
,,,,33,0,33,0,,,,,,,,,,,,,,,,,,,,,,1639.107054,None,,,,,,,,,,,,,,,,,exchange,103,34,aloud,new,null,1635.18653,None,1635.18653,None,1,1.865421,1635.18653,None,1.865421,1637.071954,None,1637.578805,None,1637.578805,None,r,1.513317401,1637.578805,None,1.513317401,,,Nov28Aloud1,104,2022_Nov_28_1700,ProdSingRedoBetween,2021.2.3,59.94707868
,,,,34,0,34,0,,,,,,,,,,,,,,,,,,,,,,1644.428714,None,,,,,,,,,,,,,,,,,meeting,69,35,aloud,old,red,1639.612514,None,1639.612514,None,3,3.6713842,1639.612514,None,3.6713842,1643.319133,None,1643.828242,None,1643.828242,None,f,0.5837184,1643.828242,None,0.5837184,,,Nov28Aloud1,104,2022_Nov_28_1700,ProdSingRedoBetween,2021.2.3,59.94707868
,,,,35,0,35,0,,,,,,,,,,,,,,,,,,,,,,1650.351644,None,,,,,,,,,,,,,,,,,second,173,36,aloud,new,null,1644.935914,None,1644.935914,None,3,4.2921126,1644.935914,None,4.2921126,1649.257379,None,1649.767807,None,1649.767807,None,f,0.564246899,1649.767807,None,0.564246899,,,Nov28Aloud1,104,2022_Nov_28_1700,ProdSingRedoBetween,2021.2.3,59.94707868
,,,,36,0,36,0,,,,,,,,,,,,,,,,,,,,,,1657.008039,None,,,,,,,,,,,,,,,,,research,174,37,aloud,new,null,1650.862355,None,1650.862355,None,3,5.4056201,1650.862355,None,5.4056201,1656.295612,None,1656.815369,None,1656.815369,None,f,0.1726353,1656.815369,None,0.1726353,,,Nov28Aloud1,104,2022_Nov_28_1700,ProdSingRedoBetween,2021.2.3,59.94707868
,,,,37,0,37,0,,,,,,,,,,,,,,,,,,,,,,1659.577398,None,,,,,,,,,,,,,,,,,turkey,75,38,aloud,old,red,1657.513546,None,1657.513546,None,6,1.3863732,1657.513546,None,1.3863732,1658.926874,None,1659.436579,None,1659.436579,None,r,0.1114057,1659.436579,None,0.1114057,,,Nov28Aloud1,104,2022_Nov_28_1700,ProdSingRedoBetween,2021.2.3,59.94707868
,,,,38,0,38,0,,,,,,,,,,,,,,,,,,,,,,1662.64706,None,,,,,,,,,,,,,,,,,title,42,39,aloud,old,blue,1660.083114,None,1660.083114,None,6,1.6808414,1660.083114,None,1.6808414,1661.781418,None,1662.29935,None,1662.29935,None,r,0.3205676,1662.29935,None,0.3205676,,,Nov28Aloud1,104,2022_Nov_28_1700,ProdSingRedoBetween,2021.2.3,59.94707868
,,,,39,0,39,0,,,,,,,,,,,,,,,,,,,,,,1668.990118,None,,,,,,,,,,,,,,,,,signal,72,40,aloud,old,red,1663.149583,None,1663.149583,None,3,4.3743864,1663.149583,None,4.3743864,1667.553044,None,1668.060013,None,1668.060013,None,f,0.896087101,1668.060013,None,0.896087101,,,Nov28Aloud1,104,2022_Nov_28_1700,ProdSingRedoBetween,2021.2.3,59.94707868
,,,,40,0,40,0,,,,,,,,,,,,,,,,,,,,,,1674.041902,None,,,,,,,,,,,,,,,,,burden,79,41,aloud,old,red,1669.504081,None,1669.504081,None,1,2.3638767,1669.504081,None,2.3638767,1671.891574,None,1672.40706,None,1672.40706,None,f,1.6048048,1672.40706,None,1.6048048,,,Nov28Aloud1,104,2022_Nov_28_1700,ProdSingRedoBetween,2021.2.3,59.94707868
,,,,41,0,41,0,,,,,,,,,,,,,,,,,,,,,,1686.910205,None,,,,,,,,,,,,,,,,,discovery,41,42,aloud,old,blue,1674.54478,None,1674.54478,None,2,10.0191308,1674.54478,None,10.0191308,1684.587171,None,1685.097753,None,1685.097753,None,f,1.7863252,1685.097753,None,1.7863252,,,Nov28Aloud1,104,2022_Nov_28_1700,ProdSingRedoBetween,2021.2.3,59.94707868
,,,,42,0,42,0,,,,,,,,,,,,,,,,,,,,,,1690.474919,None,,,,,,,,,,,,,,,,,weather,140,43,aloud,new,null,1687.42521,None,1687.42521,None,3,2.0266908,1687.42521,None,2.0266908,1689.475303,None,1689.978823,None,1689.978823,None,f,0.4730799,1689.978823,None,0.4730799,,,Nov28Aloud1,104,2022_Nov_28_1700,ProdSingRedoBetween,2021.2.3,59.94707868
,,,,43,0,43,0,,,,,,,,,,,,,,,,,,,,,,1696.198668,None,,,,,,,,,,,,,,,,,length,47,44,aloud,old,blue,1690.984602,None,1690.984602,None,1,3.9552182,1690.984602,None,3.9552182,1694.970794,None,1695.479775,None,1695.479775,None,f,0.7001865,1695.479775,None,0.7001865,,,Nov28Aloud1,104,2022_Nov_28_1700,ProdSingRedoBetween,2021.2.3,59.94707868
,,,,44,0,44,0,,,,,,,,,,,,,,,,,,,,,,1699.917622,None,,,,,,,,,,,,,,,,,nature,81,45,aloud,old,red,1696.705856,None,1696.705856,None,6,1.641960501,1696.705856,None,1.641960501,1698.370372,None,1698.883364,None,1698.883364,None,r,1.0164646,1698.883364,None,1.0164646,,,Nov28Aloud1,104,2022_Nov_28_1700,ProdSingRedoBetween,2021.2.3,59.94707868
,,,,45,0,45,0,,,,,,,,,,,,,,,,,,,,,,1707.041344,None,,,,,,,,,,,,,,,,,member,135,46,aloud,new,null,1700.419541,None,1700.419541,None,3,4.416366899,1700.419541,None,4.416366899,1704.856932,None,1705.362627,None,1705.362627,None,f,1.649128701,1705.362627,None,1.649128701,,,Nov28Aloud1,104,2022_Nov_28_1700,ProdSingRedoBetween,2021.2.3,59.94707868
,,,,46,0,46,0,,,,,,,,,,,,,,,,,,,,,,1710.53346,None,,,,,,,,,,,,,,,,,material,6,47,aloud,old,yellow,1707.542289,None,1707.542289,None,6,1.5014741,1707.542289,None,1.5014741,1709.061097,None,1709.564313,None,1709.564313,None,r,0.9356876,1709.564313,None,0.9356876,,,Nov28Aloud1,104,2022_Nov_28_1700,ProdSingRedoBetween,2021.2.3,59.94707868
,,,,47,0,47,0,,,,,,,,,,,,,,,,,,,,,,1716.518991,None,,,,,,,,,,,,,,,,,century,61,48,aloud,old,red,1711.04896,None,1711.04896,None,6,4.2191276,1711.04896,None,4.2191276,1715.294034,None,1715.803279,None,1715.803279,None,f,0.688487,1715.803279,None,0.688487,,,Nov28Aloud1,104,2022_Nov_28_1700,ProdSingRedoBetween,2021.2.3,59.94707868
,,,,48,0,48,0,,,,,,,,,,,,,,,,,,,,,,1721.505811,None,,,,,,,,,,,,,,,,,defeat,172,49,aloud,new,null,1717.024918,None,1717.024918,None,1,2.0109622,1717.024918,None,2.0109622,1719.05818,None,1719.5706,None,1719.5706,None,f,1.9132978,1719.5706,None,1.9132978,,,Nov28Aloud1,104,2022_Nov_28_1700,ProdSingRedoBetween,2021.2.3,59.94707868
,,,,49,0,49,0,,,,,,,,,,,,,,,,,,,,,,1724.342068,None,,,,,,,,,,,,,,,,,medicine,56,50,aloud,old,blue,1722.021617,None,1722.021617,None,6,1.4703082,1722.021617,None,1.4703082,1723.516088,None,1724.028553,None,1724.028553,None,r,0.2872358,1724.028553,None,0.2872358,,,Nov28Aloud1,104,2022_Nov_28_1700,ProdSingRedoBetween,2021.2.3,59.94707868
,,,,50,0,50,0,,,,,,,,,,,,,,,,,,,,,,1731.515822,None,,,,,,,,,,,,,,,,,service,177,51,aloud,new,null,1724.853861,None,1724.853861,None,3,5.3178917,1724.853861,None,5.3178917,1730.19994,None,1730.715321,None,1730.715321,None,n,0.776518799,1730.715321,None,0.776518799,,,Nov28Aloud1,104,2022_Nov_28_1700,ProdSingRedoBetween,2021.2.3,59.94707868
,,,,51,0,51,0,,,,,,,,,,,,,,,,,,,,,,1735.869898,None,,,,,,,,,,,,,,,,,state,15,52,aloud,old,yellow,1732.022364,None,1732.022364,None,5,2.9174438,1732.022364,None,2.9174438,1734.969991,None,1735.472212,None,1735.472212,None,f,0.3715181,1735.472212,None,0.3715181,,,Nov28Aloud1,104,2022_Nov_28_1700,ProdSingRedoBetween,2021.2.3,59.94707868
,,,,52,0,52,0,,,,,,,,,,,,,,,,,,,,,,1740.674957,None,,,,,,,,,,,,,,,,,quick,92,53,aloud,new,null,1736.375611,None,1736.375611,None,3,3.3242227,1736.375611,None,3.3242227,1739.727225,None,1740.243264,None,1740.243264,None,f,0.4006994,1740.243264,None,0.4006994,,,Nov28Aloud1,104,2022_Nov_28_1700,ProdSingRedoBetween,2021.2.3,59.94707868
,,,,53,0,53,0,,,,,,,,,,,,,,,,,,,,,,1747.281562,None,,,,,,,,,,,,,,,,,piece,146,54,aloud,new,null,1741.177239,None,1741.177239,None,1,3.9148016,1741.177239,None,3.9148016,1745.116605,None,1745.630058,None,1745.630058,None,f,1.6297553,1745.630058,None,1.6297553,,,Nov28Aloud1,104,2022_Nov_28_1700,ProdSingRedoBetween,2021.2.3,59.94707868
,,,,54,0,54,0,,,,,,,,,,,,,,,,,,,,,,1750.968584,None,,,,,,,,,,,,,,,,,safety,82,55,aloud,old,red,1747.790821,None,1747.790821,None,5,2.2291262,1747.790821,None,2.2291262,1750.052008,None,1750.555805,None,1750.555805,None,f,0.3840035,1750.555805,None,0.3840035,,,Nov28Aloud1,104,2022_Nov_28_1700,ProdSingRedoBetween,2021.2.3,59.94707868
,,,,55,0,55,0,,,,,,,,,,,,,,,,,,,,,,1756.991221,None,,,,,,,,,,,,,,,,,leader,150,56,aloud,new,null,1751.470207,None,1751.470207,None,3,3.6534916,1751.470207,None,3.6534916,1755.151927,None,1755.659977,None,1755.659977,None,f,1.3037956,1755.659977,None,1.3037956,,,Nov28Aloud1,104,2022_Nov_28_1700,ProdSingRedoBetween,2021.2.3,59.94707868
,,,,56,0,56,0,,,,,,,,,,,,,,,,,,,,,,1762.229759,None,,,,,,,,,,,,,,,,,tough,50,57,aloud,old,blue,1757.499639,None,1757.499639,None,5,2.2000836,1757.499639,None,2.2000836,1759.727277,None,1760.231752,None,1760.231752,None,f,1.9720694,1760.231752,None,1.9720694,,,Nov28Aloud1,104,2022_Nov_28_1700,ProdSingRedoBetween,2021.2.3,59.94707868
,,,,57,0,57,0,,,,,,,,,,,,,,,,,,,,,,1766.283839,None,,,,,,,,,,,,,,,,,speech,164,58,aloud,new,null,1762.739453,None,1762.739453,None,6,2.0243317,1762.739453,None,2.0243317,1764.782598,None,1765.289903,None,1765.289903,None,r,0.977752401,1765.289903,None,0.977752401,,,Nov28Aloud1,104,2022_Nov_28_1700,ProdSingRedoBetween,2021.2.3,59.94707868
,,,,58,0,58,0,,,,,,,,,,,,,,,,,,,,,,1768.920824,None,,,,,,,,,,,,,,,,,empty,2,59,aloud,old,yellow,1766.794032,None,1766.794032,None,6,1.321726399,1766.794032,None,1.321726399,1768.136736,None,1768.639277,None,1768.639277,None,r,0.2603992,1768.639277,None,0.2603992,,,Nov28Aloud1,104,2022_Nov_28_1700,ProdSingRedoBetween,2021.2.3,59.94707868
,,,,59,0,59,0,,,,,,,,,,,,,,,,,,,,,,1773.290893,None,,,,,,,,,,,,,,,,,addition,37,60,aloud,old,blue,1769.42073,None,1769.42073,None,3,1.790953199,1769.42073,None,1.790953199,1771.240127,None,1771.741189,None,1771.741189,None,f,1.5185963,1771.741189,None,1.5185963,,,Nov28Aloud1,104,2022_Nov_28_1700,ProdSingRedoBetween,2021.2.3,59.94707868
,,,,60,0,60,0,,,,,,,,,,,,,,,,,,,,,,1778.19724,None,,,,,,,,,,,,,,,,,individual,142,61,aloud,new,null,1773.810788,None,1773.810788,None,5,3.281183399,1773.810788,None,3.281183399,1777.118552,None,1777.628645,None,1777.628645,None,n,0.5431429,1777.628645,None,0.5431429,,,Nov28Aloud1,104,2022_Nov_28_1700,ProdSingRedoBetween,2021.2.3,59.94707868
,,,,61,0,61,0,,,,,,,,,,,,,,,,,,,,,,1780.664842,None,,,,,,,,,,,,,,,,,write,45,62,aloud,old,blue,1778.728139,None,1778.728139,None,6,1.2996762,1778.728139,None,1.2996762,1780.051259,None,1780.56481,None,1780.56481,None,r,0.071069,1780.56481,None,0.071069,,,Nov28Aloud1,104,2022_Nov_28_1700,ProdSingRedoBetween,2021.2.3,59.94707868
,,,,62,0,62,0,,,,,,,,,,,,,,,,,,,,,,1787.271445,None,,,,,,,,,,,,,,,,,military,152,63,aloud,new,null,1781.182153,None,1781.182153,None,4,5.0057677,1781.182153,None,5.0057677,1786.212334,None,1786.720962,None,1786.720962,None,f,0.5309446,1786.720962,None,0.5309446,,,Nov28Aloud1,104,2022_Nov_28_1700,ProdSingRedoBetween,2021.2.3,59.94707868
,,,,63,0,63,0,,,,,,,,,,,,,,,,,,,,,,1790.591411,None,,,,,,,,,,,,,,,,,message,53,64,aloud,old,blue,1787.77846,None,1787.77846,None,6,1.6333056,1787.77846,None,1.6333056,1789.444195,None,1789.960704,None,1789.960704,None,r,0.6029741,1789.960704,None,0.6029741,,,Nov28Aloud1,104,2022_Nov_28_1700,ProdSingRedoBetween,2021.2.3,59.94707868
,,,,64,0,64,0,,,,,,,,,,,,,,,,,,,,,,1796.047939,None,,,,,,,,,,,,,,,,,article,23,65,aloud,old,yellow,1791.092022,None,1791.092022,None,2,3.311716801,1791.092022,None,3.311716801,1794.433311,None,1794.94729,None,1794.94729,None,f,1.0724636,1794.94729,None,1.0724636,,,Nov28Aloud1,104,2022_Nov_28_1700,ProdSingRedoBetween,2021.2.3,59.94707868
,,,,65,0,65,0,,,,,,,,,,,,,,,,,,,,,,1800.034171,None,,,,,,,,,,,,,,,,,mechanical,51,66,aloud,old,blue,1796.548158,None,1796.548158,None,6,2.7675087,1796.548158,None,2.7675087,1799.33326,None,1799.839684,None,1799.839684,None,r,0.171946499,1799.839684,None,0.171946499,,,Nov28Aloud1,104,2022_Nov_28_1700,ProdSingRedoBetween,2021.2.3,59.94707868
,,,,66,0,66,0,,,,,,,,,,,,,,,,,,,,,,1808.242272,None,,,,,,,,,,,,,,,,,little,119,67,aloud,new,null,1800.537503,None,1800.537503,None,2,5.538229399,1800.537503,None,5.538229399,1806.10937,None,1806.624,None,1806.624,None,n,1.5876866,1806.624,None,1.5876866,,,Nov28Aloud1,104,2022_Nov_28_1700,ProdSingRedoBetween,2021.2.3,59.94707868
,,,,67,0,67,0,,,,,,,,,,,,,,,,,,,,,,1811.813986,None,,,,,,,,,,,,,,,,,pretty,157,68,aloud,new,null,1808.750375,None,1808.750375,None,1,1.9653918,1808.750375,None,1.9653918,1810.746622,None,1811.262012,None,1811.262012,None,r,0.5258418,1811.262012,None,0.5258418,,,Nov28Aloud1,104,2022_Nov_28_1700,ProdSingRedoBetween,2021.2.3,59.94707868
,,,,68,0,68,0,,,,,,,,,,,,,,,,,,,,,,1815.499405,None,,,,,,,,,,,,,,,,,voice,131,69,aloud,new,null,1812.32388,None,1812.32388,None,1,2.2158096,1812.32388,None,2.2158096,1814.566582,None,1815.072338,None,1815.072338,None,r,0.3952492,1815.072338,None,0.3952492,,,Nov28Aloud1,104,2022_Nov_28_1700,ProdSingRedoBetween,2021.2.3,59.94707868
,,,,69,0,69,0,,,,,,,,,,,,,,,,,,,,,,1820.771572,None,,,,,,,,,,,,,,,,,report,165,70,aloud,new,null,1816.003103,None,1816.003103,None,3,3.8804577,1816.003103,None,3.8804577,1819.90531,None,1820.411826,None,1820.411826,None,f,0.3438693,1820.411826,None,0.3438693,,,Nov28Aloud1,104,2022_Nov_28_1700,ProdSingRedoBetween,2021.2.3,59.94707868
,,,,70,0,70,0,,,,,,,,,,,,,,,,,,,,,,1827.461575,None,,,,,,,,,,,,,,,,,foundation,169,71,aloud,new,null,1821.280313,None,1821.280313,None,1,3.4994401,1821.280313,None,3.4994401,1824.813463,None,1825.332445,None,1825.332445,None,f,2.111157901,1825.332445,None,2.111157901,,,Nov28Aloud1,104,2022_Nov_28_1700,ProdSingRedoBetween,2021.2.3,59.94707868
,,,,71,0,71,0,,,,,,,,,,,,,,,,,,,,,,1835.655084,None,,,,,,,,,,,,,,,,,surprise,100,72,aloud,new,null,1827.973918,None,1827.973918,None,4,5.8537379,1827.973918,None,5.8537379,1833.854219,None,1834.371856,None,1834.371856,None,n,1.255851001,1834.371856,None,1.255851001,,,Nov28Aloud1,104,2022_Nov_28_1700,ProdSingRedoBetween,2021.2.3,59.94707868
,,,,72,0,72,0,,,,,,,,,,,,,,,,,,,,,,1840.090694,None,,,,,,,,,,,,,,,,,break,59,73,aloud,old,yellow,1836.170441,None,1836.170441,None,3,1.9933607,1836.170441,None,1.9933607,1838.193723,None,1838.712886,None,1838.712886,None,f,1.3627236,1838.712886,None,1.3627236,,,Nov28Aloud1,104,2022_Nov_28_1700,ProdSingRedoBetween,2021.2.3,59.94707868
,,,,73,0,73,0,,,,,,,,,,,,,,,,,,,,,,1845.130546,None,,,,,,,,,,,,,,,,,measure,118,74,aloud,new,null,1840.603944,None,1840.603944,None,3,2.6398395,1840.603944,None,2.6398395,1843.267059,None,1843.78059,None,1843.78059,None,f,1.3190979,1843.78059,None,1.3190979,,,Nov28Aloud1,104,2022_Nov_28_1700,ProdSingRedoBetween,2021.2.3,59.94707868
,,,,74,0,74,0,,,,,,,,,,,,,,,,,,,,,,1850.317629,None,,,,,,,,,,,,,,,,,universal,4,75,aloud,old,yellow,1845.636917,None,1845.636917,None,5,3.5507179,1845.636917,None,3.5507179,1849.220816,None,1849.733658,None,1849.733658,None,r,0.557880101,1849.733658,None,0.557880101,,,Nov28Aloud1,104,2022_Nov_28_1700,ProdSingRedoBetween,2021.2.3,59.94707868
,,,,75,0,75,0,,,,,,,,,,,,,,,,,,,,,,1854.121455,None,,,,,,,,,,,,,,,,,tennis,16,76,aloud,old,yellow,1850.825636,None,1850.825636,None,1,2.114167199,1850.825636,None,2.114167199,1852.975025,None,1853.489062,None,1853.489062,None,r,0.60266,1853.489062,None,0.60266,,,Nov28Aloud1,104,2022_Nov_28_1700,ProdSingRedoBetween,2021.2.3,59.94707868
,,,,76,0,76,0,,,,,,,,,,,,,,,,,,,,,,1860.360989,None,,,,,,,,,,,,,,,,,damage,112,77,aloud,new,null,1854.629091,None,1854.629091,None,2,4.814428,1854.629091,None,4.814428,1859.46877,None,1859.977174,None,1859.977174,None,f,0.3623916,1859.977174,None,0.3623916,,,Nov28Aloud1,104,2022_Nov_28_1700,ProdSingRedoBetween,2021.2.3,59.94707868
,,,,77,0,77,0,,,,,,,,,,,,,,,,,,,,,,1863.964568,None,,,,,,,,,,,,,,,,,orchestra,87,78,aloud,old,red,1860.864615,None,1860.864615,None,6,1.410898499,1860.864615,None,1.410898499,1862.301171,None,1862.813578,None,1862.813578,None,r,1.1340189,1862.813578,None,1.1340189,,,Nov28Aloud1,104,2022_Nov_28_1700,ProdSingRedoBetween,2021.2.3,59.94707868
,,,,78,0,78,0,,,,,,,,,,,,,,,,,,,,,,1869.870541,None,,,,,,,,,,,,,,,,,under,44,79,aloud,old,blue,1864.469964,None,1864.469964,None,2,3.4697049,1864.469964,None,3.4697049,1867.969253,None,1868.473848,None,1868.473848,None,f,1.377789699,1868.473848,None,1.377789699,,,Nov28Aloud1,104,2022_Nov_28_1700,ProdSingRedoBetween,2021.2.3,59.94707868
,,,,79,0,79,0,,,,,,,,,,,,,,,,,,,,,,1873.941197,None,,,,,,,,,,,,,,,,,clean,133,80,aloud,new,null,1870.371875,None,1870.371875,None,2,2.6876285,1870.371875,None,2.6876285,1873.091649,None,1873.597274,None,1873.597274,None,f,0.326487401,1873.597274,None,0.326487401,,,Nov28Aloud1,104,2022_Nov_28_1700,ProdSingRedoBetween,2021.2.3,59.94707868
,,,,80,0,80,0,,,,,,,,,,,,,,,,,,,,,,1883.650857,None,,,,,,,,,,,,,,,,,listen,153,81,aloud,new,null,1874.455683,None,1874.455683,None,3,6.9878969,1874.455683,None,6.9878969,1881.466996,None,1881.975734,None,1881.975734,None,f,1.659726201,1881.975734,None,1.659726201,,,Nov28Aloud1,104,2022_Nov_28_1700,ProdSingRedoBetween,2021.2.3,59.94707868
,,,,81,0,81,0,,,,,,,,,,,,,,,,,,,,,,1900.017203,None,,,,,,,,,,,,,,,,,alert,149,82,aloud,new,null,1884.157273,None,1884.157273,None,3,13.9983266,1884.157273,None,13.9983266,1898.181926,None,1898.684103,None,1898.684103,None,n,1.3034456,1898.684103,None,1.3034456,,,Nov28Aloud1,104,2022_Nov_28_1700,ProdSingRedoBetween,2021.2.3,59.94707868
,,,,82,0,82,0,,,,,,,,,,,,,,,,,,,,,,1907.660183,None,,,,,,,,,,,,,,,,,death,155,83,aloud,new,null,1900.523464,None,1900.523464,None,1,5.032349899,1900.523464,None,5.032349899,1905.582756,None,1906.090115,None,1906.090115,None,r,1.5376262,1906.090115,None,1.5376262,,,Nov28Aloud1,104,2022_Nov_28_1700,ProdSingRedoBetween,2021.2.3,59.94707868
,,,,83,0,83,0,,,,,,,,,,,,,,,,,,,,,,1913.480706,None,,,,,,,,,,,,,,,,,beginning,98,84,aloud,new,null,1908.175554,None,1908.175554,None,5,3.884281499,1908.175554,None,3.884281499,1912.087922,None,1912.599329,None,1912.599329,None,r,0.8522731,1912.599329,None,0.8522731,,,Nov28Aloud1,104,2022_Nov_28_1700,ProdSingRedoBetween,2021.2.3,59.94707868
,,,,84,0,84,0,,,,,,,,,,,,,,,,,,,,,,1917.651444,None,,,,,,,,,,,,,,,,,south,102,85,aloud,new,null,1913.990268,None,1913.990268,None,1,2.389272099,1913.990268,None,2.389272099,1916.40294,None,1916.921527,None,1916.921527,None,r,0.7059779,1916.921527,None,0.7059779,,,Nov28Aloud1,104,2022_Nov_28_1700,ProdSingRedoBetween,2021.2.3,59.94707868
,,,,85,0,85,0,,,,,,,,,,,,,,,,,,,,,,1920.437665,None,,,,,,,,,,,,,,,,,frank,48,86,aloud,old,blue,1918.163934,None,1918.163934,None,6,1.4635839,1918.163934,None,1.4635839,1919.662639,None,1920.174751,None,1920.174751,None,r,0.236893101,1920.174751,None,0.236893101,,,Nov28Aloud1,104,2022_Nov_28_1700,ProdSingRedoBetween,2021.2.3,59.94707868
,,,,86,0,86,0,,,,,,,,,,,,,,,,,,,,,,1923.573758,None,,,,,,,,,,,,,,,,,childhood,159,87,aloud,new,null,1920.950335,None,1920.950335,None,1,1.725066801,1920.950335,None,1.725066801,1922.715953,None,1923.223625,None,1923.223625,None,r,0.3318035,1923.223625,None,0.3318035,,,Nov28Aloud1,104,2022_Nov_28_1700,ProdSingRedoBetween,2021.2.3,59.94707868
,,,,87,0,87,0,,,,,,,,,,,,,,,,,,,,,,1926.762313,None,,,,,,,,,,,,,,,,,prime,170,88,aloud,new,null,1924.074362,None,1924.074362,None,1,1.745075,1924.074362,None,1.745075,1925.847232,None,1926.378707,None,1926.378707,None,r,0.3529451,1926.378707,None,0.3529451,,,Nov28Aloud1,104,2022_Nov_28_1700,ProdSingRedoBetween,2021.2.3,59.94707868
,,,,88,0,88,0,,,,,,,,,,,,,,,,,,,,,,1930.447288,None,,,,,,,,,,,,,,,,,charter,107,89,aloud,new,null,1927.287702,None,1927.287702,None,2,1.5157514,1927.287702,None,1.5157514,1928.830301,None,1929.3323,None,1929.3323,None,f,1.0872458,1929.3323,None,1.0872458,,,Nov28Aloud1,104,2022_Nov_28_1700,ProdSingRedoBetween,2021.2.3,59.94707868
,,,,89,0,89,0,,,,,,,,,,,,,,,,,,,,,,1937.671415,None,,,,,,,,,,,,,,,,,mankind,26,90,aloud,old,yellow,1930.964126,None,1930.964126,None,3,5.4793009,1930.964126,None,5.4793009,1936.471441,None,1936.974315,None,1936.974315,None,f,0.677161301,1936.974315,None,0.677161301,,,Nov28Aloud1,104,2022_Nov_28_1700,ProdSingRedoBetween,2021.2.3,59.94707868
,,,,90,0,90,0,,,,,,,,,,,,,,,,,,,,,,1944.395426,None,,,,,,,,,,,,,,,,,platform,126,91,aloud,new,null,1938.180347,None,1938.180347,None,3,2.911094,1938.180347,None,2.911094,1941.111232,None,1941.634842,None,1941.634842,None,f,2.7286623,1941.634842,None,2.7286623,,,Nov28Aloud1,104,2022_Nov_28_1700,ProdSingRedoBetween,2021.2.3,59.94707868
,,,,91,0,91,0,,,,,,,,,,,,,,,,,,,,,,1948.550405,None,,,,,,,,,,,,,,,,,company,148,92,aloud,new,null,1944.916015,None,1944.916015,None,5,2.191586999,1944.916015,None,2.191586999,1947.141356,None,1947.653682,None,1947.653682,None,r,0.8779351,1947.653682,None,0.8779351,,,Nov28Aloud1,104,2022_Nov_28_1700,ProdSingRedoBetween,2021.2.3,59.94707868
,,,,92,0,92,0,,,,,,,,,,,,,,,,,,,,,,1952.420114,None,,,,,,,,,,,,,,,,,expansion,161,93,aloud,new,null,1949.068929,None,1949.068929,None,2,2.4305259,1949.068929,None,2.4305259,1951.521136,None,1952.040298,None,1952.040298,None,r,0.3630382,1952.040298,None,0.3630382,,,Nov28Aloud1,104,2022_Nov_28_1700,ProdSingRedoBetween,2021.2.3,59.94707868
,,,,93,0,93,0,,,,,,,,,,,,,,,,,,,,,,1955.355724,None,,,,,,,,,,,,,,,,,season,55,94,aloud,old,blue,1952.921475,None,1952.921475,None,6,1.426058699,1952.921475,None,1.426058699,1954.386227,None,1954.890791,None,1954.890791,None,r,0.4406606,1954.890791,None,0.4406606,,,Nov28Aloud1,104,2022_Nov_28_1700,ProdSingRedoBetween,2021.2.3,59.94707868
,,,,94,0,94,0,,,,,,,,,,,,,,,,,,,,,,1960.594107,None,,,,,,,,,,,,,,,,,income,176,95,aloud,new,null,1955.858747,None,1955.858747,None,4,3.0248455,1955.858747,None,3.0248455,1958.912833,None,1959.427829,None,1959.427829,None,f,1.1436347,1959.427829,None,1.1436347,,,Nov28Aloud1,104,2022_Nov_28_1700,ProdSingRedoBetween,2021.2.3,59.94707868
,,,,95,0,95,0,,,,,,,,,,,,,,,,,,,,,,1968.068241,None,,,,,,,,,,,,,,,,,bucket,110,96,aloud,new,null,1961.108721,None,1961.108721,None,3,5.654929699,1961.108721,None,5.654929699,1966.794073,None,1967.302132,None,1967.302132,None,n,0.749232,1967.302132,None,0.749232,,,Nov28Aloud1,104,2022_Nov_28_1700,ProdSingRedoBetween,2021.2.3,59.94707868
,,,,96,0,96,0,,,,,,,,,,,,,,,,,,,,,,1972.306011,None,,,,,,,,,,,,,,,,,patient,96,97,aloud,new,null,1968.580672,None,1968.580672,None,1,2.238869701,1968.580672,None,2.238869701,1970.849484,None,1971.359406,None,1971.359406,None,f,0.924028,1971.359406,None,0.924028,,,Nov28Aloud1,104,2022_Nov_28_1700,ProdSingRedoBetween,2021.2.3,59.94707868
,,,,97,0,97,0,,,,,,,,,,,,,,,,,,,,,,1976.998914,None,,,,,,,,,,,,,,,,,rough,166,98,aloud,new,null,1972.815251,None,1972.815251,None,6,2.3321108,1972.815251,None,2.3321108,1975.175513,None,1975.680953,None,1975.680953,None,f,1.282634499,1975.680953,None,1.282634499,,,Nov28Aloud1,104,2022_Nov_28_1700,ProdSingRedoBetween,2021.2.3,59.94707868
,,,,98,0,98,0,,,,,,,,,,,,,,,,,,,,,,1983.650445,None,,,,,,,,,,,,,,,,,population,27,99,aloud,old,yellow,1977.537267,None,1977.537267,None,6,4.8980305,1977.537267,None,4.8980305,1982.470691,None,1982.983321,None,1982.983321,None,r,0.652047601,1982.983321,None,0.652047601,,,Nov28Aloud1,104,2022_Nov_28_1700,ProdSingRedoBetween,2021.2.3,59.94707868
,,,,99,0,99,0,,,,,,,,,,,,,,,,,,,,,,1986.590708,None,,,,,,,,,,,,,,,,,trail,7,100,aloud,old,yellow,1984.156244,None,1984.156244,None,6,1.5831417,1984.156244,None,1.5831417,1985.770957,None,1986.286419,None,1986.286419,None,r,0.2688886,1986.286419,None,0.2688886,,,Nov28Aloud1,104,2022_Nov_28_1700,ProdSingRedoBetween,2021.2.3,59.94707868
,,,,100,0,100,0,,,,,,,,,,,,,,,,,,,,,,1988.922547,None,,,,,,,,,,,,,,,,,finance,83,101,aloud,old,red,1987.110549,None,1987.110549,None,6,1.004828599,1987.110549,None,1.004828599,1988.140271,None,1988.655703,None,1988.655703,None,r,0.2517416,1988.655703,None,0.2517416,,,Nov28Aloud1,104,2022_Nov_28_1700,ProdSingRedoBetween,2021.2.3,59.94707868
,,,,101,0,101,0,,,,,,,,,,,,,,,,,,,,,,1993.045008,None,,,,,,,,,,,,,,,,,stand,57,102,aloud,old,blue,1989.434043,None,1989.434043,None,4,2.569339501,1989.434043,None,2.569339501,1992.027944,None,1992.545252,None,1992.545252,None,f,0.4740077,1992.545252,None,0.4740077,,,Nov28Aloud1,104,2022_Nov_28_1700,ProdSingRedoBetween,2021.2.3,59.94707868
,,,,102,0,102,0,,,,,,,,,,,,,,,,,,,,,,1995.96297,None,,,,,,,,,,,,,,,,,testimony,60,103,aloud,old,red,1993.562288,None,1993.562288,None,6,1.385243599,1993.562288,None,1.385243599,1994.978532,None,1995.483306,None,1995.483306,None,r,0.46408,1995.483306,None,0.46408,,,Nov28Aloud1,104,2022_Nov_28_1700,ProdSingRedoBetween,2021.2.3,59.94707868
,,,,103,0,103,0,,,,,,,,,,,,,,,,,,,,,,1998.932596,None,,,,,,,,,,,,,,,,,division,106,104,aloud,new,null,1996.469032,None,1996.469032,None,6,1.3823624,1996.469032,None,1.3823624,1997.882938,None,1998.382252,None,1998.382252,None,r,0.5330814,1998.382252,None,0.5330814,,,Nov28Aloud1,104,2022_Nov_28_1700,ProdSingRedoBetween,2021.2.3,59.94707868
,,,,104,0,104,0,,,,,,,,,,,,,,,,,,,,,,2004.354633,None,,,,,,,,,,,,,,,,,sight,141,105,aloud,new,null,1999.447185,None,1999.447185,None,3,3.3961972,1999.447185,None,3.3961972,2002.872148,None,2003.387009,None,2003.387009,None,f,0.9364093,2003.387009,None,0.9364093,,,Nov28Aloud1,104,2022_Nov_28_1700,ProdSingRedoBetween,2021.2.3,59.94707868
,,,,105,0,105,0,,,,,,,,,,,,,,,,,,,,,,2007.824749,None,,,,,,,,,,,,,,,,,edition,156,106,aloud,new,null,2004.864256,None,2004.864256,None,3,1.931205999,2004.864256,None,1.931205999,2006.830375,None,2007.341038,None,2007.341038,None,f,0.454342299,2007.341038,None,0.454342299,,,Nov28Aloud1,104,2022_Nov_28_1700,ProdSingRedoBetween,2021.2.3,59.94707868
,,,,106,0,106,0,,,,,,,,,,,,,,,,,,,,,,2011.378902,None,,,,,,,,,,,,,,,,,silence,8,107,aloud,old,yellow,2008.333741,None,2008.333741,None,5,2.2056116,2008.333741,None,2.2056116,2010.562058,None,2011.068913,None,2011.068913,None,r,0.2784066,2011.068913,None,0.2784066,,,Nov28Aloud1,104,2022_Nov_28_1700,ProdSingRedoBetween,2021.2.3,59.94707868
,,,,107,0,107,0,,,,,,,,,,,,,,,,,,,,,,2017.184017,None,,,,,,,,,,,,,,,,,volume,90,108,aloud,new,null,2011.881576,None,2011.881576,None,5,4.369903901,2011.881576,None,4.369903901,2016.267811,None,2016.767011,None,2016.767011,None,f,0.3883173,2016.767011,None,0.3883173,,,Nov28Aloud1,104,2022_Nov_28_1700,ProdSingRedoBetween,2021.2.3,59.94707868
,,,,108,0,108,0,,,,,,,,,,,,,,,,,,,,,,2020.954473,None,,,,,,,,,,,,,,,,,scale,94,109,aloud,new,null,2017.691167,None,2017.691167,None,4,2.408398099,2017.691167,None,2.408398099,2020.128064,None,2020.642623,None,2020.642623,None,f,0.2888844,2020.642623,None,0.2888844,,,Nov28Aloud1,104,2022_Nov_28_1700,ProdSingRedoBetween,2021.2.3,59.94707868
,,,,109,0,109,0,,,,,,,,,,,,,,,,,,,,,,2029.129285,None,,,,,,,,,,,,,,,,,grade,52,110,aloud,old,blue,2021.457747,None,2021.457747,None,4,6.073559499,2021.457747,None,6.073559499,2027.56264,None,2028.0646,None,2028.0646,None,n,1.0347207,2028.0646,None,1.0347207,,,Nov28Aloud1,104,2022_Nov_28_1700,ProdSingRedoBetween,2021.2.3,59.94707868
,,,,110,0,110,0,,,,,,,,,,,,,,,,,,,,,,2035.31879,None,,,,,,,,,,,,,,,,,mayor,122,111,aloud,new,null,2029.63498,None,2029.63498,None,1,2.5202704,2029.63498,None,2.5202704,2032.183201,None,2032.683045,None,2032.683045,None,n,2.61638,2032.683045,None,2.61638,,,Nov28Aloud1,104,2022_Nov_28_1700,ProdSingRedoBetween,2021.2.3,59.94707868
,,,,111,0,111,0,,,,,,,,,,,,,,,,,,,,,,2042.692548,None,,,,,,,,,,,,,,,,,cousin,128,112,aloud,new,null,2035.829421,None,2035.829421,None,1,4.413887801,2035.829421,None,4.413887801,2040.276489,None,2040.791038,None,2040.791038,None,r,1.876185,2040.791038,None,1.876185,,,Nov28Aloud1,104,2022_Nov_28_1700,ProdSingRedoBetween,2021.2.3,59.94707868
,,,,112,0,112,0,,,,,,,,,,,,,,,,,,,,,,2047.88132,None,,,,,,,,,,,,,,,,,court,35,113,aloud,old,blue,2043.193302,None,2043.193302,None,6,2.1781359,2043.193302,None,2.1781359,2045.395488,None,2045.896886,None,2045.896886,None,r,1.962403201,2045.896886,None,1.962403201,,,Nov28Aloud1,104,2022_Nov_28_1700,ProdSingRedoBetween,2021.2.3,59.94707868
,,,,113,0,113,0,,,,,,,,,,,,,,,,,,,,,,2052.802922,None,,,,,,,,,,,,,,,,,curve,137,114,aloud,new,null,2048.38688,None,2048.38688,None,1,2.9763856,2048.38688,None,2.9763856,2051.390792,None,2051.901848,None,2051.901848,None,r,0.8854445,2051.901848,None,0.8854445,,,Nov28Aloud1,104,2022_Nov_28_1700,ProdSingRedoBetween,2021.2.3,59.94707868
,,,,114,0,114,0,,,,,,,,,,,,,,,,,,,,,,2056.378147,None,,,,,,,,,,,,,,,,,poetry,71,115,aloud,old,red,2053.320851,None,2053.320851,None,6,1.5385903,2053.320851,None,1.5385903,2054.895868,None,2055.412132,None,2055.412132,None,f,0.9430438,2055.412132,None,0.9430438,,,Nov28Aloud1,104,2022_Nov_28_1700,ProdSingRedoBetween,2021.2.3,59.94707868
,,,,115,0,115,0,,,,,,,,,,,,,,,,,,,,,,2059.443713,None,,,,,,,,,,,,,,,,,bicycle,3,116,aloud,old,yellow,2056.900763,None,2056.900763,None,6,1.5345185,2056.900763,None,1.5345185,2058.459924,None,2058.964736,None,2058.964736,None,r,0.4546554,2058.964736,None,0.4546554,,,Nov28Aloud1,104,2022_Nov_28_1700,ProdSingRedoBetween,2021.2.3,59.94707868
,,,,116,0,116,0,,,,,,,,,,,,,,,,,,,,,,2063.029563,None,,,,,,,,,,,,,,,,,track,49,117,aloud,old,blue,2059.953885,None,2059.953885,None,6,2.2892624,2059.953885,None,2.2892624,2062.262478,None,2062.771683,None,2062.771683,None,r,0.2397443,2062.771683,None,0.2397443,,,Nov28Aloud1,104,2022_Nov_28_1700,ProdSingRedoBetween,2021.2.3,59.94707868
,,,,117,0,117,0,,,,,,,,,,,,,,,,,,,,,,2065.615685,None,,,,,,,,,,,,,,,,,growth,77,118,aloud,old,red,2063.534247,None,2063.534247,None,6,1.2849969,2063.534247,None,1.2849969,2064.848935,None,2065.35416,None,2065.35416,None,r,0.2410816,2065.35416,None,0.2410816,,,Nov28Aloud1,104,2022_Nov_28_1700,ProdSingRedoBetween,2021.2.3,59.94707868
,,,,118,0,118,0,,,,,,,,,,,,,,,,,,,,,,2069.605808,None,,,,,,,,,,,,,,,,,route,139,119,aloud,new,null,2066.125052,None,2066.125052,None,1,2.2461923,2066.125052,None,2.2461923,2068.402461,None,2068.908555,None,2068.908555,None,n,0.6786722,2068.908555,None,0.6786722,,,Nov28Aloud1,104,2022_Nov_28_1700,ProdSingRedoBetween,2021.2.3,59.94707868
,,,,119,0,119,0,,,,,,,,,,,,,,,,,,,,,,2073.323437,None,,,,,,,,,,,,,,,,,native,34,120,aloud,old,blue,2070.121053,None,2070.121053,None,1,2.4020793,2070.121053,None,2.4020793,2072.54777,None,2073.056303,None,2073.056303,None,n,0.2508748,2073.056303,None,0.2508748,,,Nov28Aloud1,104,2022_Nov_28_1700,ProdSingRedoBetween,2021.2.3,59.94707868
,,,,120,0,120,0,,,,,,,,,,,,,,,,,,,,,,2078.712051,None,,,,,,,,,,,,,,,,,working,89,121,aloud,old,red,2073.827406,None,2073.827406,None,1,3.0078268,2073.827406,None,3.0078268,2076.868991,None,2077.38157,None,2077.38157,None,n,1.3016743,2077.38157,None,1.3016743,,,Nov28Aloud1,104,2022_Nov_28_1700,ProdSingRedoBetween,2021.2.3,59.94707868
,,,,121,0,121,0,,,,,,,,,,,,,,,,,,,,,,2083.199891,None,,,,,,,,,,,,,,,,,impact,24,122,aloud,old,yellow,2079.222583,None,2079.222583,None,5,2.2128388,2079.222583,None,2.2128388,2081.471587,None,2081.987326,None,2081.987326,None,f,1.1918987,2081.987326,None,1.1918987,,,Nov28Aloud1,104,2022_Nov_28_1700,ProdSingRedoBetween,2021.2.3,59.94707868
,,,,122,0,122,0,,,,,,,,,,,,,,,,,,,,,,2085.669103,None,,,,,,,,,,,,,,,,,quantity,68,123,aloud,old,red,2083.711401,None,2083.711401,None,6,1.339807699,2083.711401,None,1.339807699,2085.075845,None,2085.58941,None,2085.58941,None,r,0.061759,2085.58941,None,0.061759,,,Nov28Aloud1,104,2022_Nov_28_1700,ProdSingRedoBetween,2021.2.3,59.94707868
,,,,123,0,123,0,,,,,,,,,,,,,,,,,,,,,,2087.794213,None,,,,,,,,,,,,,,,,,music,17,124,aloud,old,yellow,2086.185165,None,2086.185165,None,6,0.7941229,2086.185165,None,0.7941229,2087.015468,None,2087.521052,None,2087.521052,None,r,0.2422023,2087.521052,None,0.2422023,,,Nov28Aloud1,104,2022_Nov_28_1700,ProdSingRedoBetween,2021.2.3,59.94707868
,,,,124,0,124,0,,,,,,,,,,,,,,,,,,,,,,2089.923237,None,,,,,,,,,,,,,,,,,instrument,19,125,aloud,old,yellow,2088.308165,None,2088.308165,None,6,0.9430943,2088.308165,None,0.9430943,2089.275788,None,2089.79843,None,2089.79843,None,r,0.1087611,2089.79843,None,0.1087611,,,Nov28Aloud1,104,2022_Nov_28_1700,ProdSingRedoBetween,2021.2.3,59.94707868
,,,,125,0,125,0,,,,,,,,,,,,,,,,,,,,,,2091.660737,None,,,,,,,,,,,,,,,,,commercial,80,126,aloud,old,red,2090.431121,None,2090.431121,None,6,0.6522598,2090.431121,None,0.6522598,2091.114257,None,2091.62498,None,2091.62498,None,r,0.018395,2091.62498,None,0.018395,,,Nov28Aloud1,104,2022_Nov_28_1700,ProdSingRedoBetween,2021.2.3,59.94707868
,,,,126,0,126,0,,,,,,,,,,,,,,,,,,,,,,2095.662383,None,,,,,,,,,,,,,,,,,victory,95,127,aloud,new,null,2092.187595,None,2092.187595,None,2,2.5916136,2092.187595,None,2.5916136,2094.799336,None,2095.312152,None,2095.312152,None,f,0.323015899,2095.312152,None,0.323015899,,,Nov28Aloud1,104,2022_Nov_28_1700,ProdSingRedoBetween,2021.2.3,59.94707868
,,,,127,0,127,0,,,,,,,,,,,,,,,,,,,,,,2100.95097,None,,,,,,,,,,,,,,,,,smell,70,128,aloud,old,red,2096.176192,None,2096.176192,None,2,3.8909185,2096.176192,None,3.8909185,2100.085492,None,2100.600749,None,2100.600749,None,f,0.322458699,2100.600749,None,0.322458699,,,Nov28Aloud1,104,2022_Nov_28_1700,ProdSingRedoBetween,2021.2.3,59.94707868
,,,,128,0,128,0,,,,,,,,,,,,,,,,,,,,,,2107.941082,None,,,,,,,,,,,,,,,,,straight,108,129,aloud,new,null,2101.451509,None,2101.451509,None,1,5.5836928,2101.451509,None,5.5836928,2107.063569,None,2107.574223,None,2107.574223,None,r,0.3490371,2107.574223,None,0.3490371,,,Nov28Aloud1,104,2022_Nov_28_1700,ProdSingRedoBetween,2021.2.3,59.94707868
,,,,129,0,129,0,,,,,,,,,,,,,,,,,,,,,,2116.082675,None,,,,,,,,,,,,,,,,,motion,91,130,aloud,new,null,2108.446252,None,2108.446252,None,2,3.8928351,2108.446252,None,3.8928351,2112.37097,None,2112.879525,None,2112.879525,None,n,3.1796348,2112.879525,None,3.1796348,,,Nov28Aloud1,104,2022_Nov_28_1700,ProdSingRedoBetween,2021.2.3,59.94707868
,,,,130,0,130,0,,,,,,,,,,,,,,,,,,,,,,2119.619557,None,,,,,,,,,,,,,,,,,relation,21,131,aloud,old,yellow,2116.610138,None,2116.610138,None,6,2.2089828,2116.610138,None,2.2089828,2118.838379,None,2119.354894,None,2119.354894,None,r,0.2482661,2119.354894,None,0.2482661,,,Nov28Aloud1,104,2022_Nov_28_1700,ProdSingRedoBetween,2021.2.3,59.94707868
,,,,131,0,131,0,,,,,,,,,,,,,,,,,,,,,,2122.672336,None,,,,,,,,,,,,,,,,,direction,136,132,aloud,new,null,2120.121754,None,2120.121754,None,3,1.8254448,2120.121754,None,1.8254448,2121.971674,None,2122.472561,None,2122.472561,None,f,0.1786599,2122.472561,None,0.1786599,,,Nov28Aloud1,104,2022_Nov_28_1700,ProdSingRedoBetween,2021.2.3,59.94707868
,,,,132,0,132,0,,,,,,,,,,,,,,,,,,,,,,2125.048561,None,,,,,,,,,,,,,,,,,education,40,133,aloud,old,blue,2123.188177,None,2123.188177,None,6,1.2551413,2123.188177,None,1.2551413,2124.483202,None,2124.99411,None,2124.99411,None,r,0.0253041,2124.99411,None,0.0253041,,,Nov28Aloud1,104,2022_Nov_28_1700,ProdSingRedoBetween,2021.2.3,59.94707868
,,,,133,0,133,0,,,,,,,,,,,,,,,,,,,,,,2127.410709,None,,,,,,,,,,,,,,,,,phrase,62,134,aloud,old,red,2125.561141,None,2125.561141,None,6,1.2659884,2125.561141,None,1.2659884,2126.847177,None,2127.361726,None,2127.361726,None,r,0.0334042,2127.361726,None,0.0334042,,,Nov28Aloud1,104,2022_Nov_28_1700,ProdSingRedoBetween,2021.2.3,59.94707868
,,,,134,0,134,0,,,,,,,,,,,,,,,,,,,,,,2130.930856,None,,,,,,,,,,,,,,,,,raise,114,135,aloud,new,null,2127.915442,None,2127.915442,None,3,1.415756,2127.915442,None,1.415756,2129.351604,None,2129.871172,None,2129.871172,None,f,1.0441072,2129.871172,None,1.0441072,,,Nov28Aloud1,104,2022_Nov_28_1700,ProdSingRedoBetween,2021.2.3,59.94707868
,,,,135,0,135,0,,,,,,,,,,,,,,,,,,,,,,2134.000608,None,,,,,,,,,,,,,,,,,angle,121,136,aloud,new,null,2131.433066,None,2131.433066,None,3,1.529960601,2131.433066,None,1.529960601,2132.989796,None,2133.501886,None,2133.501886,None,f,0.4692444,2133.501886,None,0.4692444,,,Nov28Aloud1,104,2022_Nov_28_1700,ProdSingRedoBetween,2021.2.3,59.94707868
,,,,136,0,136,0,,,,,,,,,,,,,,,,,,,,,,2138.821986,None,,,,,,,,,,,,,,,,,collection,124,137,aloud,new,null,2134.507968,None,2134.507968,None,2,2.991161999,2134.507968,None,2.991161999,2137.52262,None,2138.040936,None,2138.040936,None,f,0.7541131,2138.040936,None,0.7541131,,,Nov28Aloud1,104,2022_Nov_28_1700,ProdSingRedoBetween,2021.2.3,59.94707868
,,,,137,0,137,0,,,,,,,,,,,,,,,,,,,,,,2141.37502,None,,,,,,,,,,,,,,,,,solution,178,138,aloud,new,null,2139.334802,None,2139.334802,None,6,1.468301699,2139.334802,None,1.468301699,2140.826092,None,2141.345382,None,2141.345382,None,r,0.0097887,2141.345382,None,0.0097887,,,Nov28Aloud1,104,2022_Nov_28_1700,ProdSingRedoBetween,2021.2.3,59.94707868
,,,,138,0,138,0,,,,,,,,,,,,,,,,,,,,,,2149.032281,None,,,,,,,,,,,,,,,,,notice,130,139,aloud,new,null,2141.878977,None,2141.878977,None,1,5.2441355,2141.878977,None,5.2441355,2147.149709,None,2147.66435,None,2147.66435,None,f,1.3388334,2147.66435,None,1.3388334,,,Nov28Aloud1,104,2022_Nov_28_1700,ProdSingRedoBetween,2021.2.3,59.94707868
,,,,139,0,139,0,,,,,,,,,,,,,,,,,,,,,,2153.019729,None,,,,,,,,,,,,,,,,,place,168,140,aloud,new,null,2149.543107,None,2149.543107,None,5,2.4759222,2149.543107,None,2.4759222,2152.036514,None,2152.542381,None,2152.542381,None,f,0.4527067,2152.542381,None,0.4527067,,,Nov28Aloud1,104,2022_Nov_28_1700,ProdSingRedoBetween,2021.2.3,59.94707868
,,,,140,0,140,0,,,,,,,,,,,,,,,,,,,,,,2155.672248,None,,,,,,,,,,,,,,,,,symbol,10,141,aloud,old,yellow,2153.52599,None,2153.52599,None,6,1.3732869,2153.52599,None,1.3732869,2154.922947,None,2155.430069,None,2155.430069,None,r,0.2210259,2155.430069,None,0.2210259,,,Nov28Aloud1,104,2022_Nov_28_1700,ProdSingRedoBetween,2021.2.3,59.94707868
,,,,141,0,141,0,,,,,,,,,,,,,,,,,,,,,,2158.424876,None,,,,,,,,,,,,,,,,,agreement,46,142,aloud,old,blue,2156.181026,None,2156.181026,None,6,1.150135499,2156.181026,None,1.150135499,2157.358161,None,2157.867957,None,2157.867957,None,r,0.5271787,2157.867957,None,0.5271787,,,Nov28Aloud1,104,2022_Nov_28_1700,ProdSingRedoBetween,2021.2.3,59.94707868
,,,,142,0,142,0,,,,,,,,,,,,,,,,,,,,,,2161.160829,None,,,,,,,,,,,,,,,,,payment,43,143,aloud,old,blue,2158.927117,None,2158.927117,None,6,1.3799939,2158.927117,None,1.3799939,2160.333096,None,2160.845106,None,2160.845106,None,r,0.286034101,2160.845106,None,0.286034101,,,Nov28Aloud1,104,2022_Nov_28_1700,ProdSingRedoBetween,2021.2.3,59.94707868
,,,,143,0,143,0,,,,,,,,,,,,,,,,,,,,,,2164.849178,None,,,,,,,,,,,,,,,,,session,167,144,aloud,new,null,2161.675759,None,2161.675759,None,4,2.399189901,2161.675759,None,2.399189901,2164.104557,None,2164.621919,None,2164.621919,None,f,0.197183601,2164.621919,None,0.197183601,,,Nov28Aloud1,104,2022_Nov_28_1700,ProdSingRedoBetween,2021.2.3,59.94707868
,,,,144,0,144,0,,,,,,,,,,,,,,,,,,,,,,2167.984493,None,,,,,,,,,,,,,,,,,agency,63,145,aloud,old,red,2165.354786,None,2165.354786,None,6,1.9763483,2165.354786,None,1.9763483,2167.357707,None,2167.86781,None,2167.86781,None,r,0.0953538,2167.86781,None,0.0953538,,,Nov28Aloud1,104,2022_Nov_28_1700,ProdSingRedoBetween,2021.2.3,59.94707868
,,,,145,0,145,0,,,,,,,,,,,,,,,,,,,,,,2171.821437,None,,,,,,,,,,,,,,,,,region,179,146,aloud,new,null,2168.488053,None,2168.488053,None,2,2.5950889,2168.488053,None,2.5950889,2171.106752,None,2171.62901,None,2171.62901,None,f,0.173947,2171.62901,None,0.173947,,,Nov28Aloud1,104,2022_Nov_28_1700,ProdSingRedoBetween,2021.2.3,59.94707868
,,,,146,0,146,0,,,,,,,,,,,,,,,,,,,,,,2174.925658,None,,,,,,,,,,,,,,,,,count,58,147,aloud,old,blue,2172.332638,None,2172.332638,None,6,1.862423699,2172.332638,None,1.862423699,2174.225664,None,2174.742216,None,2174.742216,None,r,0.156944901,2174.742216,None,0.156944901,,,Nov28Aloud1,104,2022_Nov_28_1700,ProdSingRedoBetween,2021.2.3,59.94707868
,,,,147,0,147,0,,,,,,,,,,,,,,,,,,,,,,2180.947162,None,,,,,,,,,,,,,,,,,bitter,28,148,aloud,old,yellow,2175.430852,None,2175.430852,None,3,4.7641426,2175.430852,None,4.7641426,2180.219694,None,2180.730645,None,2180.730645,None,f,0.2006377,2180.730645,None,0.2006377,,,Nov28Aloud1,104,2022_Nov_28_1700,ProdSingRedoBetween,2021.2.3,59.94707868
,,,,148,0,148,0,,,,,,,,,,,,,,,,,,,,,,2187.370467,None,,,,,,,,,,,,,,,,,salary,31,149,aloud,old,blue,2181.457833,None,2181.457833,None,5,4.9532121,2181.457833,None,4.9532121,2186.43797,None,2186.958113,None,2186.958113,None,f,0.3969681,2186.958113,None,0.3969681,,,Nov28Aloud1,104,2022_Nov_28_1700,ProdSingRedoBetween,2021.2.3,59.94707868
,,,,149,0,149,0,,,,,,,,,,,,,,,,,,,,,,2191.157587,None,,,,,,,,,,,,,,,,,breath,32,150,aloud,old,blue,2187.87092,None,2187.87092,None,6,1.8202985,2187.87092,None,1.8202985,2189.716278,None,2190.22612,None,2190.22612,None,r,0.904983399,2190.22612,None,0.904983399,,,Nov28Aloud1,104,2022_Nov_28_1700,ProdSingRedoBetween,2021.2.3,59.94707868
,,,,150,0,150,0,,,,,,,,,,,,,,,,,,,,,,2195.261615,None,,,,,,,,,,,,,,,,,incident,160,151,aloud,new,null,2191.660821,None,2191.660821,None,1,2.694346501,2191.660821,None,2.694346501,2194.37843,None,2194.878076,None,2194.878076,None,r,0.356957301,2194.878076,None,0.356957301,,,Nov28Aloud1,104,2022_Nov_28_1700,ProdSingRedoBetween,2021.2.3,59.94707868
,,,,151,0,151,0,,,,,,,,,,,,,,,,,,,,,,2197.847578,None,,,,,,,,,,,,,,,,,dream,1,152,aloud,old,yellow,2195.771805,None,2195.771805,None,6,1.4632068,2195.771805,None,1.4632068,2197.263675,None,2197.764214,None,2197.764214,None,r,0.062844899,2197.764214,None,0.062844899,,,Nov28Aloud1,104,2022_Nov_28_1700,ProdSingRedoBetween,2021.2.3,59.94707868
,,,,152,0,152,0,,,,,,,,,,,,,,,,,,,,,,2203.519837,None,,,,,,,,,,,,,,,,,community,171,153,aloud,new,null,2198.355642,None,2198.355642,None,4,3.9433739,2198.355642,None,3.9433739,2202.320892,None,2202.841356,None,2202.841356,None,f,0.6496929,2202.841356,None,0.6496929,,,Nov28Aloud1,104,2022_Nov_28_1700,ProdSingRedoBetween,2021.2.3,59.94707868
,,,,153,0,153,0,,,,,,,,,,,,,,,,,,,,,,2208.391364,None,,,,,,,,,,,,,,,,,society,132,154,aloud,new,null,2204.037302,None,2204.037302,None,4,2.5897815,2204.037302,None,2.5897815,2206.659214,None,2207.17673,None,2207.17673,None,f,1.1862956,2207.17673,None,1.1862956,,,Nov28Aloud1,104,2022_Nov_28_1700,ProdSingRedoBetween,2021.2.3,59.94707868
,,,,154,0,154,0,,,,,,,,,,,,,,,,,,,,,,2217.60568,None,,,,,,,,,,,,,,,,,shear,101,155,aloud,new,null,2208.896809,None,2208.896809,None,3,7.314439599,2208.896809,None,7.314439599,2216.242967,None,2216.754176,None,2216.754176,None,f,0.8168419,2216.754176,None,0.8168419,,,Nov28Aloud1,104,2022_Nov_28_1700,ProdSingRedoBetween,2021.2.3,59.94707868
,,,,155,0,155,0,,,,,,,,,,,,,,,,,,,,,,2221.587964,None,,,,,,,,,,,,,,,,,pattern,154,156,aloud,new,null,2218.121583,None,2218.121583,None,2,2.7374423,2218.121583,None,2.7374423,2220.888178,None,2221.387825,None,2221.387825,None,n,0.175217,2221.387825,None,0.175217,,,Nov28Aloud1,104,2022_Nov_28_1700,ProdSingRedoBetween,2021.2.3,59.94707868
,,,,156,0,156,0,,,,,,,,,,,,,,,,,,,,,,2225.375102,None,,,,,,,,,,,,,,,,,point,134,157,aloud,new,null,2222.090312,None,2222.090312,None,4,2.344869,2222.090312,None,2.344869,2224.464806,None,2224.97821,None,2224.97821,None,f,0.368722,2224.97821,None,0.368722,,,Nov28Aloud1,104,2022_Nov_28_1700,ProdSingRedoBetween,2021.2.3,59.94707868
,,,,157,0,157,0,,,,,,,,,,,,,,,,,,,,,,2229.112035,None,,,,,,,,,,,,,,,,,institute,38,158,aloud,old,blue,2225.875656,None,2225.875656,None,6,2.5192882,2225.875656,None,2.5192882,2228.412636,None,2228.914167,None,2228.914167,None,r,0.1688828,2228.914167,None,0.1688828,,,Nov28Aloud1,104,2022_Nov_28_1700,ProdSingRedoBetween,2021.2.3,59.94707868
,,,,158,0,158,0,,,,,,,,,,,,,,,,,,,,,,2234.951223,None,,,,,,,,,,,,,,,,,opening,33,159,aloud,old,blue,2229.615474,None,2229.615474,None,3,3.2595057,2229.615474,None,3.2595057,2232.900624,None,2233.407665,None,2233.407665,None,f,1.5232511,2233.407665,None,1.5232511,,,Nov28Aloud1,104,2022_Nov_28_1700,ProdSingRedoBetween,2021.2.3,59.94707868
,,,,159,0,159,0,,,,,,,,,,,,,,,,,,,,,,2237.88882,None,,,,,,,,,,,,,,,,,sunset,22,160,aloud,old,yellow,2235.454789,None,2235.454789,None,6,1.8760552,2235.454789,None,1.8760552,2237.361345,None,2237.873656,None,2237.873656,None,r,0.0016077,2237.873656,None,0.0016077,,,Nov28Aloud1,104,2022_Nov_28_1700,ProdSingRedoBetween,2021.2.3,59.94707868
,,,,160,0,160,0,,,,,,,,,,,,,,,,,,,,,,2245.228205,None,,,,,,,,,,,,,,,,,fight,120,161,aloud,new,null,2238.406986,None,2238.406986,None,2,5.6439622,2238.406986,None,5.6439622,2244.089976,None,2244.594248,None,2244.594248,None,n,0.6166311,2244.594248,None,0.6166311,,,Nov28Aloud1,104,2022_Nov_28_1700,ProdSingRedoBetween,2021.2.3,59.94707868
,,,,161,0,161,0,,,,,,,,,,,,,,,,,,,,,,2255.004535,None,,,,,,,,,,,,,,,,,still,14,162,aloud,old,yellow,2245.738207,None,2245.738207,None,2,8.2087152,2245.738207,None,8.2087152,2253.971452,None,2254.471927,None,2254.471927,None,f,0.5149448,2254.471927,None,0.5149448,,,Nov28Aloud1,104,2022_Nov_28_1700,ProdSingRedoBetween,2021.2.3,59.94707868
,,,,162,0,162,0,,,,,,,,,,,,,,,,,,,,,,2258.774986,None,,,,,,,,,,,,,,,,,appearance,88,163,aloud,old,red,2255.516085,None,2255.516085,None,6,2.0870132,2255.516085,None,2.0870132,2257.623716,None,2258.124506,None,2258.124506,None,r,0.6224053,2258.124506,None,0.6224053,,,Nov28Aloud1,104,2022_Nov_28_1700,ProdSingRedoBetween,2021.2.3,59.94707868
,,,,163,0,163,0,,,,,,,,,,,,,,,,,,,,,,2262.595454,None,,,,,,,,,,,,,,,,,match,12,164,aloud,old,yellow,2259.287221,None,2259.287221,None,4,2.4600058,2259.287221,None,2.4600058,2261.784171,None,2262.300217,None,2262.300217,None,f,0.2707439,2262.300217,None,0.2707439,,,Nov28Aloud1,104,2022_Nov_28_1700,ProdSingRedoBetween,2021.2.3,59.94707868
,,,,164,0,164,0,,,,,,,,,,,,,,,,,,,,,,2266.466198,None,,,,,,,,,,,,,,,,,block,123,165,aloud,new,null,2263.102746,None,2263.102746,None,1,1.692154299,2263.102746,None,1.692154299,2264.817487,None,2265.336052,None,2265.336052,None,f,1.106864001,2265.336052,None,1.106864001,,,Nov28Aloud1,104,2022_Nov_28_1700,ProdSingRedoBetween,2021.2.3,59.94707868
,,,,165,0,165,0,,,,,,,,,,,,,,,,,,,,,,2269.569818,None,,,,,,,,,,,,,,,,,finish,145,166,aloud,new,null,2266.973619,None,2266.973619,None,2,1.9572629,2266.973619,None,1.9572629,2268.95938,None,2269.472037,None,2269.472037,None,f,0.066968299,2269.472037,None,0.066968299,,,Nov28Aloud1,104,2022_Nov_28_1700,ProdSingRedoBetween,2021.2.3,59.94707868
,,,,166,0,166,0,,,,,,,,,,,,,,,,,,,,,,2273.174748,None,,,,,,,,,,,,,,,,,close,175,167,aloud,new,null,2270.079338,None,2270.079338,None,2,2.0356462,2270.079338,None,2.0356462,2272.1444,None,2272.655647,None,2272.655647,None,n,0.4913474,2272.655647,None,0.4913474,,,Nov28Aloud1,104,2022_Nov_28_1700,ProdSingRedoBetween,2021.2.3,59.94707868
,,,,167,0,167,0,,,,,,,,,,,,,,,,,,,,,,2276.759481,None,,,,,,,,,,,,,,,,,bureau,144,168,aloud,new,null,2273.70144,None,2273.70144,None,3,1.7974394,2273.70144,None,1.7974394,2275.530327,None,2276.044142,None,2276.044142,None,n,0.686842601,2276.044142,None,0.686842601,,,Nov28Aloud1,104,2022_Nov_28_1700,ProdSingRedoBetween,2021.2.3,59.94707868
,,,,168,0,168,0,,,,,,,,,,,,,,,,,,,,,,2279.929365,None,,,,,,,,,,,,,,,,,audience,5,169,aloud,old,yellow,2277.262896,None,2277.262896,None,6,1.6839704,2277.262896,None,1.6839704,2278.978554,None,2279.479294,None,2279.479294,None,r,0.427645599,2279.479294,None,0.427645599,,,Nov28Aloud1,104,2022_Nov_28_1700,ProdSingRedoBetween,2021.2.3,59.94707868
,,,,169,0,169,0,,,,,,,,,,,,,,,,,,,,,,2285.234552,None,,,,,,,,,,,,,,,,,recall,129,170,aloud,new,null,2280.433816,None,2280.433816,None,3,3.0089546,2280.433816,None,3.0089546,2283.469166,None,2283.983425,None,2283.983425,None,f,1.2194181,2283.983425,None,1.2194181,,,Nov28Aloud1,104,2022_Nov_28_1700,ProdSingRedoBetween,2021.2.3,59.94707868
,,,,170,0,170,0,,,,,,,,,,,,,,,,,,,,,,2288.604795,None,,,,,,,,,,,,,,,,,column,84,171,aloud,old,red,2285.739119,None,2285.739119,None,4,2.311746201,2285.739119,None,2.311746201,2288.070822,None,2288.576258,None,2288.576258,None,f,0.0106073,2288.576258,None,0.0106073,,,Nov28Aloud1,104,2022_Nov_28_1700,ProdSingRedoBetween,2021.2.3,59.94707868
,,,,171,0,171,0,,,,,,,,,,,,,,,,,,,,,,2295.561492,None,,,,,,,,,,,,,,,,,force,143,172,aloud,new,null,2289.117403,None,2289.117403,None,3,5.7173365,2289.117403,None,5.7173365,2294.86076,None,2295.361594,None,2295.361594,None,f,0.1692748,2295.361594,None,0.1692748,,,Nov28Aloud1,104,2022_Nov_28_1700,ProdSingRedoBetween,2021.2.3,59.94707868
,,,,172,0,172,0,,,,,,,,,,,,,,,,,,,,,,2303.53599,None,,,,,,,,,,,,,,,,,style,125,173,aloud,new,null,2296.078978,None,2296.078978,None,2,5.8197845,2296.078978,None,5.8197845,2301.926989,None,2302.435253,None,2302.435253,None,r,1.0715461,2302.435253,None,1.0715461,,,Nov28Aloud1,104,2022_Nov_28_1700,ProdSingRedoBetween,2021.2.3,59.94707868
,,,,173,0,173,0,,,,,,,,,,,,,,,,,,,,,,2312.194937,None,,,,,,,,,,,,,,,,,split,151,174,aloud,new,null,2304.049142,None,2304.049142,None,3,7.2976523,2304.049142,None,7.2976523,2311.380158,None,2311.8973,None,2311.8973,None,n,0.281542,2311.8973,None,0.281542,,,Nov28Aloud1,104,2022_Nov_28_1700,ProdSingRedoBetween,2021.2.3,59.94707868
,,,,174,0,174,0,,,,,,,,,,,,,,,,,,,,,,2315.450859,None,,,,,,,,,,,,,,,,,country,54,175,aloud,old,blue,2312.69892,None,2312.69892,None,3,2.0160561,2312.69892,None,2.0160561,2314.736026,None,2315.24817,None,2315.24817,None,n,0.170739301,2315.24817,None,0.170739301,,,Nov28Aloud1,104,2022_Nov_28_1700,ProdSingRedoBetween,2021.2.3,59.94707868
,,,,175,0,175,0,,,,,,,,,,,,,,,,,,,,,,2318.9017,None,,,,,,,,,,,,,,,,,harmony,13,176,aloud,old,yellow,2315.968815,None,2315.968815,None,6,1.3141399,2315.968815,None,1.3141399,2317.30132,None,2317.80351,None,2317.80351,None,r,1.0794014,2317.80351,None,1.0794014,,,Nov28Aloud1,104,2022_Nov_28_1700,ProdSingRedoBetween,2021.2.3,59.94707868
,,,,176,0,176,0,,,,,,,,,,,,,,,,,,,,,,2322.405095,None,,,,,,,,,,,,,,,,,center,163,177,aloud,new,null,2319.410366,None,2319.410366,None,3,2.0724368,2319.410366,None,2.0724368,2321.506084,None,2322.023153,None,2322.023153,None,f,0.3635511,2322.023153,None,0.3635511,,,Nov28Aloud1,104,2022_Nov_28_1700,ProdSingRedoBetween,2021.2.3,59.94707868
,,,,177,0,177,0,,,,,,,,,,,,,,,,,,,,,,2325.574814,None,,,,,,,,,,,,,,,,,scene,85,178,aloud,old,red,2322.913044,None,2322.913044,None,2,1.9297547,2322.913044,None,1.9297547,2324.858892,None,2325.367726,None,2325.367726,None,f,0.1871998,2325.367726,None,0.1871998,,,Nov28Aloud1,104,2022_Nov_28_1700,ProdSingRedoBetween,2021.2.3,59.94707868
,,,,178,0,178,0,,,,,,,,,,,,,,,,,,,,,,2328.044123,None,,,,,,,,,,,,,,,,,vision,76,179,aloud,old,red,2326.081053,None,2326.081053,None,6,1.3137378,2326.081053,None,1.3137378,2327.413442,None,2327.93205,None,2327.93205,None,r,0.094662,2327.93205,None,0.094662,,,Nov28Aloud1,104,2022_Nov_28_1700,ProdSingRedoBetween,2021.2.3,59.94707868
,,,,179,0,179,0,,,,,,,,,,,,,,,,,,,,,,2330.75208,None,,,,,,,,,,,,,,,,,science,18,180,aloud,old,yellow,2328.555015,None,2328.555015,None,6,1.5278797,2328.555015,None,1.5278797,2330.113871,None,2330.624943,None,2330.624943,None,r,0.1060455,2330.624943,None,0.1060455,,,Nov28Aloud1,104,2022_Nov_28_1700,ProdSingRedoBetween,2021.2.3,59.94707868
,,,,,,,,,,,,,,,,,,,,,,,,,,,,,,,,,,,,,,,,,,,,,,,,,,,,,,,,,,,,,,,,,,,,,,,,,2331.264602,None,,,,,,
