StudyLoop.thisRepN,StudyLoop.thisTrialN,StudyLoop.thisN,StudyLoop.thisIndex,TestLoop.thisRepN,TestLoop.thisTrialN,TestLoop.thisN,TestLoop.thisIndex,textCondition.started,textCondition.stopped,keyCondition.keys,keyCondition.rt,keyCondition.started,keyCondition.stopped,Condition,textWelcome.started,textWelcome.stopped,keyWelcome.keys,keyWelcome.rt,keyWelcome.started,keyWelcome.stopped,textAloud.started,textAloud.stopped,textSilent.started,textSilent.stopped,textSing.started,textSing.stopped,conditional_text.started,conditional_text.stopped,textBlank500.started,textBlank500.stopped,study_word,study_num,study_order,study_type,word_color,textStudy.started,textStudy.stopped,keyStudy.keys,keyStudy.started,keyStudy.stopped,textTestInstructions.started,textTestInstructions.stopped,key_resp_3.keys,key_resp_3.rt,key_resp_3.started,key_resp_3.stopped,test_word,test_num,test_order,test_condition,old_new_test,test_word_original_color,textConf.started,textConf.stopped,textConfScale.started,textConfScale.stopped,keyConf.keys,keyConf.rt,keyConf.started,keyConf.stopped,confidence response time,textTestBlank.started,textTestBlank.stopped,textRKN.started,textRKN.stopped,textRKNScale.started,textRKNScale.stopped,keyRKN.keys,keyRKN.rt,keyRKN.started,keyRKN.stopped,rkn response time,textEnd.started,textEnd.stopped,participant,session,date,expName,psychopyVersion,frameRate,
,,,,,,,,37.50112679973245,None,c,2.69881400000304,37.50112679973245,None,,,,,,,,,,,,,,,,,,,,,,,,,,,,,,,,,,,,,,,,,,,,,,,,,,,,,,,,,,,,,,105 Sing,001,2022_Nov_29_1005,ProdSingRedoBetween,2021.2.3,59.94039543098589,
,,,,,,,,,,,,,,SingTest,40.249733599834144,None,space,392.67736400011927,40.249733599834144,None,,,,,,,,,,,,,,,,,,,,,,,,,,,,,,,,,,,,,,,,,,,,,,,,,,,,,,,105 Sing,001,2022_Nov_29_1005,ProdSingRedoBetween,2021.2.3,59.94039543098589,
0,0,0,0,,,,,,,,,,,,,,,,,,40.249733599834144,None,40.249733599834144,None,40.249733599834144,None,40.249733599834144,None,435.47009490057826,None,weight,8,1,sing,yellow,433.4567446000874,None,None,433.4567446000874,None,,,,,,,,,,,,,,,,,,,,,,,,,,,,,,,,,,,105 Sing,001,2022_Nov_29_1005,ProdSingRedoBetween,2021.2.3,59.94039543098589,
1,0,1,0,,,,,,,,,,,,,,,,,,,,,,,,,,437.9871449004859,None,straight,28,2,sing,yellow,435.98289920017123,None,None,435.98289920017123,None,,,,,,,,,,,,,,,,,,,,,,,,,,,,,,,,,,,105 Sing,001,2022_Nov_29_1005,ProdSingRedoBetween,2021.2.3,59.94039543098589,
2,0,2,0,,,,,,,,,,,,,,,,,,,,,,,,,,440.4901780001819,None,childhood,32,3,sing,blue,438.4874015003443,None,None,438.4874015003443,None,,,,,,,,,,,,,,,,,,,,,,,,,,,,,,,,,,,105 Sing,001,2022_Nov_29_1005,ProdSingRedoBetween,2021.2.3,59.94039543098589,
3,0,3,0,,,,,,,,,,,,,,,,,,,,,,,,,,442.99190180003643,None,sweet,9,4,sing,yellow,440.99128600023687,None,None,440.99128600023687,None,,,,,,,,,,,,,,,,,,,,,,,,,,,,,,,,,,,105 Sing,001,2022_Nov_29_1005,ProdSingRedoBetween,2021.2.3,59.94039543098589,
4,0,4,0,,,,,,,,,,,,,,,,,,,,,,,,,,445.5112215001136,None,carry,53,5,sing,blue,443.49760700017214,None,None,443.49760700017214,None,,,,,,,,,,,,,,,,,,,,,,,,,,,,,,,,,,,105 Sing,001,2022_Nov_29_1005,ProdSingRedoBetween,2021.2.3,59.94039543098589,
5,0,5,0,,,,,,,,,,,,,,,,,,,,,,,,,,448.0137387001887,None,bright,72,6,sing,red,446.01264119986445,None,None,446.01264119986445,None,,,,,,,,,,,,,,,,,,,,,,,,,,,,,,,,,,,105 Sing,001,2022_Nov_29_1005,ProdSingRedoBetween,2021.2.3,59.94039543098589,
6,0,6,0,,,,,,,,,,,,,,,,,,,,,,,,,,450.5160081004724,None,beginning,82,7,sing,red,448.5139939999208,None,None,448.5139939999208,None,,,,,,,,,,,,,,,,,,,,,,,,,,,,,,,,,,,105 Sing,001,2022_Nov_29_1005,ProdSingRedoBetween,2021.2.3,59.94039543098589,
7,0,7,0,,,,,,,,,,,,,,,,,,,,,,,,,,453.0186042999849,None,suspect,34,8,sing,blue,451.0189955001697,None,None,451.0189955001697,None,,,,,,,,,,,,,,,,,,,,,,,,,,,,,,,,,,,105 Sing,001,2022_Nov_29_1005,ProdSingRedoBetween,2021.2.3,59.94039543098589,
8,0,8,0,,,,,,,,,,,,,,,,,,,,,,,,,,455.5381056005135,None,message,4,9,sing,yellow,453.5239925002679,None,None,453.5239925002679,None,,,,,,,,,,,,,,,,,,,,,,,,,,,,,,,,,,,105 Sing,001,2022_Nov_29_1005,ProdSingRedoBetween,2021.2.3,59.94039543098589,
9,0,9,0,,,,,,,,,,,,,,,,,,,,,,,,,,458.04030460026115,None,cousin,3,10,sing,yellow,456.0382567998022,None,None,456.0382567998022,None,,,,,,,,,,,,,,,,,,,,,,,,,,,,,,,,,,,105 Sing,001,2022_Nov_29_1005,ProdSingRedoBetween,2021.2.3,59.94039543098589,
10,0,10,0,,,,,,,,,,,,,,,,,,,,,,,,,,460.5429073004052,None,series,76,11,sing,red,458.54120380058885,None,None,458.54120380058885,None,,,,,,,,,,,,,,,,,,,,,,,,,,,,,,,,,,,105 Sing,001,2022_Nov_29_1005,ProdSingRedoBetween,2021.2.3,59.94039543098589,
11,0,11,0,,,,,,,,,,,,,,,,,,,,,,,,,,463.0454537998885,None,strain,81,12,sing,red,461.0434045000002,None,None,461.0434045000002,None,,,,,,,,,,,,,,,,,,,,,,,,,,,,,,,,,,,105 Sing,001,2022_Nov_29_1005,ProdSingRedoBetween,2021.2.3,59.94039543098589,
12,0,12,0,,,,,,,,,,,,,,,,,,,,,,,,,,465.56437470018864,None,captain,48,13,sing,blue,463.5492118000984,None,None,463.5492118000984,None,,,,,,,,,,,,,,,,,,,,,,,,,,,,,,,,,,,105 Sing,001,2022_Nov_29_1005,ProdSingRedoBetween,2021.2.3,59.94039543098589,
13,0,13,0,,,,,,,,,,,,,,,,,,,,,,,,,,468.06703400053084,None,court,78,14,sing,red,466.06534210033715,None,None,466.06534210033715,None,,,,,,,,,,,,,,,,,,,,,,,,,,,,,,,,,,,105 Sing,001,2022_Nov_29_1005,ProdSingRedoBetween,2021.2.3,59.94039543098589,
14,0,14,0,,,,,,,,,,,,,,,,,,,,,,,,,,470.5861939005554,None,hunger,25,15,sing,yellow,468.5747452005744,None,None,468.5747452005744,None,,,,,,,,,,,,,,,,,,,,,,,,,,,,,,,,,,,105 Sing,001,2022_Nov_29_1005,ProdSingRedoBetween,2021.2.3,59.94039543098589,
15,0,15,0,,,,,,,,,,,,,,,,,,,,,,,,,,473.0887184003368,None,drama,12,16,sing,yellow,471.0865451004356,None,None,471.0865451004356,None,,,,,,,,,,,,,,,,,,,,,,,,,,,,,,,,,,,105 Sing,001,2022_Nov_29_1005,ProdSingRedoBetween,2021.2.3,59.94039543098589,
16,0,16,0,,,,,,,,,,,,,,,,,,,,,,,,,,475.6080068005249,None,finance,73,17,sing,red,473.6003890996799,None,None,473.6003890996799,None,,,,,,,,,,,,,,,,,,,,,,,,,,,,,,,,,,,105 Sing,001,2022_Nov_29_1005,ProdSingRedoBetween,2021.2.3,59.94039543098589,
17,0,17,0,,,,,,,,,,,,,,,,,,,,,,,,,,478.1105526005849,None,sound,65,18,sing,red,476.1098832003772,None,None,476.1098832003772,None,,,,,,,,,,,,,,,,,,,,,,,,,,,,,,,,,,,105 Sing,001,2022_Nov_29_1005,ProdSingRedoBetween,2021.2.3,59.94039543098589,
18,0,18,0,,,,,,,,,,,,,,,,,,,,,,,,,,480.62933559995145,None,population,29,19,sing,blue,478.61910150013864,None,None,478.61910150013864,None,,,,,,,,,,,,,,,,,,,,,,,,,,,,,,,,,,,105 Sing,001,2022_Nov_29_1005,ProdSingRedoBetween,2021.2.3,59.94039543098589,
19,0,19,0,,,,,,,,,,,,,,,,,,,,,,,,,,483.1320198997855,None,dispute,38,20,sing,blue,481.1319749997929,None,None,481.1319749997929,None,,,,,,,,,,,,,,,,,,,,,,,,,,,,,,,,,,,105 Sing,001,2022_Nov_29_1005,ProdSingRedoBetween,2021.2.3,59.94039543098589,
20,0,20,0,,,,,,,,,,,,,,,,,,,,,,,,,,485.6346134999767,None,answer,10,21,sing,yellow,483.63264130055904,None,None,483.63264130055904,None,,,,,,,,,,,,,,,,,,,,,,,,,,,,,,,,,,,105 Sing,001,2022_Nov_29_1005,ProdSingRedoBetween,2021.2.3,59.94039543098589,
21,0,21,0,,,,,,,,,,,,,,,,,,,,,,,,,,488.15387620031834,None,space,63,22,sing,red,486.13829729985446,None,None,486.13829729985446,None,,,,,,,,,,,,,,,,,,,,,,,,,,,,,,,,,,,105 Sing,001,2022_Nov_29_1005,ProdSingRedoBetween,2021.2.3,59.94039543098589,
22,0,22,0,,,,,,,,,,,,,,,,,,,,,,,,,,490.6562965000048,None,block,17,23,sing,yellow,488.65600410010666,None,None,488.65600410010666,None,,,,,,,,,,,,,,,,,,,,,,,,,,,,,,,,,,,105 Sing,001,2022_Nov_29_1005,ProdSingRedoBetween,2021.2.3,59.94039543098589,
23,0,23,0,,,,,,,,,,,,,,,,,,,,,,,,,,493.1751902997494,None,silence,50,24,sing,blue,491.1655333004892,None,None,491.1655333004892,None,,,,,,,,,,,,,,,,,,,,,,,,,,,,,,,,,,,105 Sing,001,2022_Nov_29_1005,ProdSingRedoBetween,2021.2.3,59.94039543098589,
24,0,24,0,,,,,,,,,,,,,,,,,,,,,,,,,,495.6779859997332,None,front,24,25,sing,yellow,493.67594309989363,None,None,493.67594309989363,None,,,,,,,,,,,,,,,,,,,,,,,,,,,,,,,,,,,105 Sing,001,2022_Nov_29_1005,ProdSingRedoBetween,2021.2.3,59.94039543098589,
25,0,25,0,,,,,,,,,,,,,,,,,,,,,,,,,,498.18027279991657,None,skill,33,26,sing,blue,496.178462699987,None,None,496.178462699987,None,,,,,,,,,,,,,,,,,,,,,,,,,,,,,,,,,,,105 Sing,001,2022_Nov_29_1005,ProdSingRedoBetween,2021.2.3,59.94039543098589,
26,0,26,0,,,,,,,,,,,,,,,,,,,,,,,,,,500.6996697001159,None,quarter,77,27,sing,red,498.6913441000506,None,None,498.6913441000506,None,,,,,,,,,,,,,,,,,,,,,,,,,,,,,,,,,,,105 Sing,001,2022_Nov_29_1005,ProdSingRedoBetween,2021.2.3,59.94039543098589,
27,0,27,0,,,,,,,,,,,,,,,,,,,,,,,,,,503.2187312003225,None,individual,86,28,sing,red,501.20773859973997,None,None,501.20773859973997,None,,,,,,,,,,,,,,,,,,,,,,,,,,,,,,,,,,,105 Sing,001,2022_Nov_29_1005,ProdSingRedoBetween,2021.2.3,59.94039543098589,
28,0,28,0,,,,,,,,,,,,,,,,,,,,,,,,,,505.7379962997511,None,growth,40,29,sing,blue,503.72907490003854,None,None,503.72907490003854,None,,,,,,,,,,,,,,,,,,,,,,,,,,,,,,,,,,,105 Sing,001,2022_Nov_29_1005,ProdSingRedoBetween,2021.2.3,59.94039543098589,
29,0,29,0,,,,,,,,,,,,,,,,,,,,,,,,,,508.2572044003755,None,author,43,30,sing,blue,506.2446240996942,None,None,506.2446240996942,None,,,,,,,,,,,,,,,,,,,,,,,,,,,,,,,,,,,105 Sing,001,2022_Nov_29_1005,ProdSingRedoBetween,2021.2.3,59.94039543098589,
30,0,30,0,,,,,,,,,,,,,,,,,,,,,,,,,,510.7763069998473,None,minute,83,31,sing,red,508.76091540046036,None,None,508.76091540046036,None,,,,,,,,,,,,,,,,,,,,,,,,,,,,,,,,,,,105 Sing,001,2022_Nov_29_1005,ProdSingRedoBetween,2021.2.3,59.94039543098589,
31,0,31,0,,,,,,,,,,,,,,,,,,,,,,,,,,513.2787945000455,None,spoke,26,32,sing,yellow,511.27685880009085,None,None,511.27685880009085,None,,,,,,,,,,,,,,,,,,,,,,,,,,,,,,,,,,,105 Sing,001,2022_Nov_29_1005,ProdSingRedoBetween,2021.2.3,59.94039543098589,
32,0,32,0,,,,,,,,,,,,,,,,,,,,,,,,,,515.7813411997631,None,rural,20,33,sing,yellow,513.7822021003813,None,None,513.7822021003813,None,,,,,,,,,,,,,,,,,,,,,,,,,,,,,,,,,,,105 Sing,001,2022_Nov_29_1005,ProdSingRedoBetween,2021.2.3,59.94039543098589,
33,0,33,0,,,,,,,,,,,,,,,,,,,,,,,,,,518.2838848996907,None,smell,80,34,sing,red,516.2847068998963,None,None,516.2847068998963,None,,,,,,,,,,,,,,,,,,,,,,,,,,,,,,,,,,,105 Sing,001,2022_Nov_29_1005,ProdSingRedoBetween,2021.2.3,59.94039543098589,
34,0,34,0,,,,,,,,,,,,,,,,,,,,,,,,,,520.7863650005311,None,distance,16,35,sing,yellow,518.7849078001454,None,None,518.7849078001454,None,,,,,,,,,,,,,,,,,,,,,,,,,,,,,,,,,,,105 Sing,001,2022_Nov_29_1005,ProdSingRedoBetween,2021.2.3,59.94039543098589,
35,0,35,0,,,,,,,,,,,,,,,,,,,,,,,,,,523.2888452000916,None,novel,84,36,sing,red,521.2897701999173,None,None,521.2897701999173,None,,,,,,,,,,,,,,,,,,,,,,,,,,,,,,,,,,,105 Sing,001,2022_Nov_29_1005,ProdSingRedoBetween,2021.2.3,59.94039543098589,
36,0,36,0,,,,,,,,,,,,,,,,,,,,,,,,,,525.8077316004783,None,military,70,37,sing,red,523.7994248000905,None,None,523.7994248000905,None,,,,,,,,,,,,,,,,,,,,,,,,,,,,,,,,,,,105 Sing,001,2022_Nov_29_1005,ProdSingRedoBetween,2021.2.3,59.94039543098589,
37,0,37,0,,,,,,,,,,,,,,,,,,,,,,,,,,528.3105421997607,None,interview,61,38,sing,red,526.3115801997483,None,None,526.3115801997483,None,,,,,,,,,,,,,,,,,,,,,,,,,,,,,,,,,,,105 Sing,001,2022_Nov_29_1005,ProdSingRedoBetween,2021.2.3,59.94039543098589,
38,0,38,0,,,,,,,,,,,,,,,,,,,,,,,,,,530.8294874001294,None,story,0,39,sing,yellow,528.8166642002761,None,None,528.8166642002761,None,,,,,,,,,,,,,,,,,,,,,,,,,,,,,,,,,,,105 Sing,001,2022_Nov_29_1005,ProdSingRedoBetween,2021.2.3,59.94039543098589,
39,0,39,0,,,,,,,,,,,,,,,,,,,,,,,,,,533.3318571001291,None,display,37,40,sing,blue,531.3301967997104,None,None,531.3301967997104,None,,,,,,,,,,,,,,,,,,,,,,,,,,,,,,,,,,,105 Sing,001,2022_Nov_29_1005,ProdSingRedoBetween,2021.2.3,59.94039543098589,
40,0,40,0,,,,,,,,,,,,,,,,,,,,,,,,,,535.8343235002831,None,general,89,41,sing,red,533.832603899762,None,None,533.832603899762,None,,,,,,,,,,,,,,,,,,,,,,,,,,,,,,,,,,,105 Sing,001,2022_Nov_29_1005,ProdSingRedoBetween,2021.2.3,59.94039543098589,
41,0,41,0,,,,,,,,,,,,,,,,,,,,,,,,,,538.3368127997965,None,owner,41,42,sing,blue,536.3372718002647,None,None,536.3372718002647,None,,,,,,,,,,,,,,,,,,,,,,,,,,,,,,,,,,,105 Sing,001,2022_Nov_29_1005,ProdSingRedoBetween,2021.2.3,59.94039543098589,
42,0,42,0,,,,,,,,,,,,,,,,,,,,,,,,,,540.8561354000121,None,agreement,66,43,sing,red,538.840926900506,None,None,538.840926900506,None,,,,,,,,,,,,,,,,,,,,,,,,,,,,,,,,,,,105 Sing,001,2022_Nov_29_1005,ProdSingRedoBetween,2021.2.3,59.94039543098589,
43,0,43,0,,,,,,,,,,,,,,,,,,,,,,,,,,543.3589204996824,None,stranger,69,44,sing,red,541.3585895998403,None,None,541.3585895998403,None,,,,,,,,,,,,,,,,,,,,,,,,,,,,,,,,,,,105 Sing,001,2022_Nov_29_1005,ProdSingRedoBetween,2021.2.3,59.94039543098589,
44,0,44,0,,,,,,,,,,,,,,,,,,,,,,,,,,545.8780156997964,None,crime,64,45,sing,red,543.8632180001587,None,None,543.8632180001587,None,,,,,,,,,,,,,,,,,,,,,,,,,,,,,,,,,,,105 Sing,001,2022_Nov_29_1005,ProdSingRedoBetween,2021.2.3,59.94039543098589,
45,0,45,0,,,,,,,,,,,,,,,,,,,,,,,,,,548.3816462000832,None,native,75,46,sing,red,546.3785474002361,None,None,546.3785474002361,None,,,,,,,,,,,,,,,,,,,,,,,,,,,,,,,,,,,105 Sing,001,2022_Nov_29_1005,ProdSingRedoBetween,2021.2.3,59.94039543098589,
46,0,46,0,,,,,,,,,,,,,,,,,,,,,,,,,,550.8830337999389,None,suggestion,15,47,sing,yellow,548.8809823999181,None,None,548.8809823999181,None,,,,,,,,,,,,,,,,,,,,,,,,,,,,,,,,,,,105 Sing,001,2022_Nov_29_1005,ProdSingRedoBetween,2021.2.3,59.94039543098589,
47,0,47,0,,,,,,,,,,,,,,,,,,,,,,,,,,553.3855701005086,None,angle,31,48,sing,blue,551.3845774997026,None,None,551.3845774997026,None,,,,,,,,,,,,,,,,,,,,,,,,,,,,,,,,,,,105 Sing,001,2022_Nov_29_1005,ProdSingRedoBetween,2021.2.3,59.94039543098589,
48,0,48,0,,,,,,,,,,,,,,,,,,,,,,,,,,555.8879605000839,None,citizen,85,49,sing,red,553.888098699972,None,None,553.888098699972,None,,,,,,,,,,,,,,,,,,,,,,,,,,,,,,,,,,,105 Sing,001,2022_Nov_29_1005,ProdSingRedoBetween,2021.2.3,59.94039543098589,
49,0,49,0,,,,,,,,,,,,,,,,,,,,,,,,,,558.4071741998196,None,frank,47,50,sing,blue,556.3914355998859,None,None,556.3914355998859,None,,,,,,,,,,,,,,,,,,,,,,,,,,,,,,,,,,,105 Sing,001,2022_Nov_29_1005,ProdSingRedoBetween,2021.2.3,59.94039543098589,
50,0,50,0,,,,,,,,,,,,,,,,,,,,,,,,,,560.9096184996888,None,report,49,51,sing,blue,558.9073849003762,None,None,558.9073849003762,None,,,,,,,,,,,,,,,,,,,,,,,,,,,,,,,,,,,105 Sing,001,2022_Nov_29_1005,ProdSingRedoBetween,2021.2.3,59.94039543098589,
51,0,51,0,,,,,,,,,,,,,,,,,,,,,,,,,,563.4289180999622,None,universal,59,52,sing,yellow,561.4135316004977,None,None,561.4135316004977,None,,,,,,,,,,,,,,,,,,,,,,,,,,,,,,,,,,,105 Sing,001,2022_Nov_29_1005,ProdSingRedoBetween,2021.2.3,59.94039543098589,
52,0,52,0,,,,,,,,,,,,,,,,,,,,,,,,,,565.9480306999758,None,private,74,53,sing,red,563.9351808996871,None,None,563.9351808996871,None,,,,,,,,,,,,,,,,,,,,,,,,,,,,,,,,,,,105 Sing,001,2022_Nov_29_1005,ProdSingRedoBetween,2021.2.3,59.94039543098589,
53,0,53,0,,,,,,,,,,,,,,,,,,,,,,,,,,568.450542700477,None,entrance,44,54,sing,blue,566.4488252997398,None,None,566.4488252997398,None,,,,,,,,,,,,,,,,,,,,,,,,,,,,,,,,,,,105 Sing,001,2022_Nov_29_1005,ProdSingRedoBetween,2021.2.3,59.94039543098589,
54,0,54,0,,,,,,,,,,,,,,,,,,,,,,,,,,570.953103300184,None,theme,39,55,sing,blue,568.9524496998638,None,None,568.9524496998638,None,,,,,,,,,,,,,,,,,,,,,,,,,,,,,,,,,,,105 Sing,001,2022_Nov_29_1005,ProdSingRedoBetween,2021.2.3,59.94039543098589,
55,0,55,0,,,,,,,,,,,,,,,,,,,,,,,,,,573.4554837001488,None,express,7,56,sing,yellow,571.4553615003824,None,None,571.4553615003824,None,,,,,,,,,,,,,,,,,,,,,,,,,,,,,,,,,,,105 Sing,001,2022_Nov_29_1005,ProdSingRedoBetween,2021.2.3,59.94039543098589,
56,0,56,0,,,,,,,,,,,,,,,,,,,,,,,,,,575.9578309003264,None,country,51,57,sing,blue,573.9584044003859,None,None,573.9584044003859,None,,,,,,,,,,,,,,,,,,,,,,,,,,,,,,,,,,,105 Sing,001,2022_Nov_29_1005,ProdSingRedoBetween,2021.2.3,59.94039543098589,
57,0,57,0,,,,,,,,,,,,,,,,,,,,,,,,,,578.4607067005709,None,touch,14,58,sing,yellow,576.4605560004711,None,None,576.4605560004711,None,,,,,,,,,,,,,,,,,,,,,,,,,,,,,,,,,,,105 Sing,001,2022_Nov_29_1005,ProdSingRedoBetween,2021.2.3,59.94039543098589,
58,0,58,0,,,,,,,,,,,,,,,,,,,,,,,,,,580.9630823004991,None,trail,2,59,sing,yellow,578.9606814999133,None,None,578.9606814999133,None,,,,,,,,,,,,,,,,,,,,,,,,,,,,,,,,,,,105 Sing,001,2022_Nov_29_1005,ProdSingRedoBetween,2021.2.3,59.94039543098589,
59,0,59,0,,,,,,,,,,,,,,,,,,,,,,,,,,583.4822025997564,None,profession,67,60,sing,red,581.469828300178,None,None,581.469828300178,None,,,,,,,,,,,,,,,,,,,,,,,,,,,,,,,,,,,105 Sing,001,2022_Nov_29_1005,ProdSingRedoBetween,2021.2.3,59.94039543098589,
60,0,60,0,,,,,,,,,,,,,,,,,,,,,,,,,,585.9880079999566,None,government,52,61,sing,blue,583.9830069998279,None,None,583.9830069998279,None,,,,,,,,,,,,,,,,,,,,,,,,,,,,,,,,,,,105 Sing,001,2022_Nov_29_1005,ProdSingRedoBetween,2021.2.3,59.94039543098589,
61,0,61,0,,,,,,,,,,,,,,,,,,,,,,,,,,588.520627300255,None,group,55,62,sing,blue,586.5061991997063,None,None,586.5061991997063,None,,,,,,,,,,,,,,,,,,,,,,,,,,,,,,,,,,,105 Sing,001,2022_Nov_29_1005,ProdSingRedoBetween,2021.2.3,59.94039543098589,
62,0,62,0,,,,,,,,,,,,,,,,,,,,,,,,,,591.0230817003176,None,blind,60,63,sing,red,589.0210480997339,None,None,589.0210480997339,None,,,,,,,,,,,,,,,,,,,,,,,,,,,,,,,,,,,105 Sing,001,2022_Nov_29_1005,ProdSingRedoBetween,2021.2.3,59.94039543098589,
63,0,63,0,,,,,,,,,,,,,,,,,,,,,,,,,,593.5254778005183,None,management,36,64,sing,blue,591.523512000218,None,None,591.523512000218,None,,,,,,,,,,,,,,,,,,,,,,,,,,,,,,,,,,,105 Sing,001,2022_Nov_29_1005,ProdSingRedoBetween,2021.2.3,59.94039543098589,
64,0,64,0,,,,,,,,,,,,,,,,,,,,,,,,,,596.0444195000455,None,equipment,6,65,sing,yellow,594.0321078002453,None,None,594.0321078002453,None,,,,,,,,,,,,,,,,,,,,,,,,,,,,,,,,,,,105 Sing,001,2022_Nov_29_1005,ProdSingRedoBetween,2021.2.3,59.94039543098589,
65,0,65,0,,,,,,,,,,,,,,,,,,,,,,,,,,598.547028100118,None,prime,54,66,sing,blue,596.5452364003286,None,None,596.5452364003286,None,,,,,,,,,,,,,,,,,,,,,,,,,,,,,,,,,,,105 Sing,001,2022_Nov_29_1005,ProdSingRedoBetween,2021.2.3,59.94039543098589,
66,0,66,0,,,,,,,,,,,,,,,,,,,,,,,,,,601.0661356998608,None,question,11,67,sing,yellow,599.0539329005405,None,None,599.0539329005405,None,,,,,,,,,,,,,,,,,,,,,,,,,,,,,,,,,,,105 Sing,001,2022_Nov_29_1005,ProdSingRedoBetween,2021.2.3,59.94039543098589,
67,0,67,0,,,,,,,,,,,,,,,,,,,,,,,,,,603.5854364996776,None,position,88,68,sing,red,601.5707192001864,None,None,601.5707192001864,None,,,,,,,,,,,,,,,,,,,,,,,,,,,,,,,,,,,105 Sing,001,2022_Nov_29_1005,ProdSingRedoBetween,2021.2.3,59.94039543098589,
68,0,68,0,,,,,,,,,,,,,,,,,,,,,,,,,,606.1045506997034,None,business,58,69,sing,blue,604.0900453999639,None,None,604.0900453999639,None,,,,,,,,,,,,,,,,,,,,,,,,,,,,,,,,,,,105 Sing,001,2022_Nov_29_1005,ProdSingRedoBetween,2021.2.3,59.94039543098589,
69,0,69,0,,,,,,,,,,,,,,,,,,,,,,,,,,608.6235635997728,None,concern,27,70,sing,yellow,606.6121711004525,None,None,606.6121711004525,None,,,,,,,,,,,,,,,,,,,,,,,,,,,,,,,,,,,105 Sing,001,2022_Nov_29_1005,ProdSingRedoBetween,2021.2.3,59.94039543098589,
70,0,70,0,,,,,,,,,,,,,,,,,,,,,,,,,,611.126439800486,None,scale,56,71,sing,blue,609.1243724999949,None,None,609.1243724999949,None,,,,,,,,,,,,,,,,,,,,,,,,,,,,,,,,,,,105 Sing,001,2022_Nov_29_1005,ProdSingRedoBetween,2021.2.3,59.94039543098589,
71,0,71,0,,,,,,,,,,,,,,,,,,,,,,,,,,613.6455672997981,None,expansion,5,72,sing,yellow,611.6339495005086,None,None,611.6339495005086,None,,,,,,,,,,,,,,,,,,,,,,,,,,,,,,,,,,,105 Sing,001,2022_Nov_29_1005,ProdSingRedoBetween,2021.2.3,59.94039543098589,
72,0,72,0,,,,,,,,,,,,,,,,,,,,,,,,,,616.1480673998594,None,institute,35,73,sing,blue,614.1474160002545,None,None,614.1474160002545,None,,,,,,,,,,,,,,,,,,,,,,,,,,,,,,,,,,,105 Sing,001,2022_Nov_29_1005,ProdSingRedoBetween,2021.2.3,59.94039543098589,
73,0,73,0,,,,,,,,,,,,,,,,,,,,,,,,,,618.6506000002846,None,title,62,74,sing,red,616.6498988997191,None,None,616.6498988997191,None,,,,,,,,,,,,,,,,,,,,,,,,,,,,,,,,,,,105 Sing,001,2022_Nov_29_1005,ProdSingRedoBetween,2021.2.3,59.94039543098589,
74,0,74,0,,,,,,,,,,,,,,,,,,,,,,,,,,621.1527407998219,None,quiet,42,75,sing,blue,619.1508354004472,None,None,619.1508354004472,None,,,,,,,,,,,,,,,,,,,,,,,,,,,,,,,,,,,105 Sing,001,2022_Nov_29_1005,ProdSingRedoBetween,2021.2.3,59.94039543098589,
75,0,75,0,,,,,,,,,,,,,,,,,,,,,,,,,,623.6552630001679,None,turkey,23,76,sing,yellow,621.653548900038,None,None,621.653548900038,None,,,,,,,,,,,,,,,,,,,,,,,,,,,,,,,,,,,105 Sing,001,2022_Nov_29_1005,ProdSingRedoBetween,2021.2.3,59.94039543098589,
76,0,76,0,,,,,,,,,,,,,,,,,,,,,,,,,,626.174743800424,None,division,1,77,sing,yellow,624.1635159002617,None,None,624.1635159002617,None,,,,,,,,,,,,,,,,,,,,,,,,,,,,,,,,,,,105 Sing,001,2022_Nov_29_1005,ProdSingRedoBetween,2021.2.3,59.94039543098589,
77,0,77,0,,,,,,,,,,,,,,,,,,,,,,,,,,628.6774198999628,None,territory,19,78,sing,yellow,626.675247900188,None,None,626.675247900188,None,,,,,,,,,,,,,,,,,,,,,,,,,,,,,,,,,,,105 Sing,001,2022_Nov_29_1005,ProdSingRedoBetween,2021.2.3,59.94039543098589,
78,0,78,0,,,,,,,,,,,,,,,,,,,,,,,,,,631.1797150997445,None,count,18,79,sing,yellow,629.1786067001522,None,None,629.1786067001522,None,,,,,,,,,,,,,,,,,,,,,,,,,,,,,,,,,,,105 Sing,001,2022_Nov_29_1005,ProdSingRedoBetween,2021.2.3,59.94039543098589,
79,0,79,0,,,,,,,,,,,,,,,,,,,,,,,,,,633.6822522003204,None,drove,68,80,sing,red,631.6803614003584,None,None,631.6803614003584,None,,,,,,,,,,,,,,,,,,,,,,,,,,,,,,,,,,,105 Sing,001,2022_Nov_29_1005,ProdSingRedoBetween,2021.2.3,59.94039543098589,
80,0,80,0,,,,,,,,,,,,,,,,,,,,,,,,,,636.1847427999601,None,impact,57,81,sing,blue,634.1826108004898,None,None,634.1826108004898,None,,,,,,,,,,,,,,,,,,,,,,,,,,,,,,,,,,,105 Sing,001,2022_Nov_29_1005,ProdSingRedoBetween,2021.2.3,59.94039543098589,
81,0,81,0,,,,,,,,,,,,,,,,,,,,,,,,,,638.6870283000171,None,smooth,22,82,sing,yellow,636.6852157004178,None,None,636.6852157004178,None,,,,,,,,,,,,,,,,,,,,,,,,,,,,,,,,,,,105 Sing,001,2022_Nov_29_1005,ProdSingRedoBetween,2021.2.3,59.94039543098589,
82,0,82,0,,,,,,,,,,,,,,,,,,,,,,,,,,641.1896953005344,None,shear,87,83,sing,red,639.1875908998773,None,None,639.1875908998773,None,,,,,,,,,,,,,,,,,,,,,,,,,,,,,,,,,,,105 Sing,001,2022_Nov_29_1005,ProdSingRedoBetween,2021.2.3,59.94039543098589,
83,0,83,0,,,,,,,,,,,,,,,,,,,,,,,,,,643.6921728998423,None,estate,71,84,sing,red,641.6920971004292,None,None,641.6920971004292,None,,,,,,,,,,,,,,,,,,,,,,,,,,,,,,,,,,,105 Sing,001,2022_Nov_29_1005,ProdSingRedoBetween,2021.2.3,59.94039543098589,
84,0,84,0,,,,,,,,,,,,,,,,,,,,,,,,,,646.211437500082,None,subject,46,85,sing,blue,644.1977682998404,None,None,644.1977682998404,None,,,,,,,,,,,,,,,,,,,,,,,,,,,,,,,,,,,105 Sing,001,2022_Nov_29_1005,ProdSingRedoBetween,2021.2.3,59.94039543098589,
85,0,85,0,,,,,,,,,,,,,,,,,,,,,,,,,,648.7304535005242,None,bicycle,13,86,sing,yellow,646.7151111997664,None,None,646.7151111997664,None,,,,,,,,,,,,,,,,,,,,,,,,,,,,,,,,,,,105 Sing,001,2022_Nov_29_1005,ProdSingRedoBetween,2021.2.3,59.94039543098589,
86,0,86,0,,,,,,,,,,,,,,,,,,,,,,,,,,651.2327463002875,None,capital,79,87,sing,red,649.2310301000252,None,None,649.2310301000252,None,,,,,,,,,,,,,,,,,,,,,,,,,,,,,,,,,,,105 Sing,001,2022_Nov_29_1005,ProdSingRedoBetween,2021.2.3,59.94039543098589,
87,0,87,0,,,,,,,,,,,,,,,,,,,,,,,,,,653.7522526998073,None,afternoon,21,88,sing,yellow,651.7404845999554,None,None,651.7404845999554,None,,,,,,,,,,,,,,,,,,,,,,,,,,,,,,,,,,,105 Sing,001,2022_Nov_29_1005,ProdSingRedoBetween,2021.2.3,59.94039543098589,
88,0,88,0,,,,,,,,,,,,,,,,,,,,,,,,,,656.2547968002036,None,order,30,89,sing,blue,654.2523921001703,None,None,654.2523921001703,None,,,,,,,,,,,,,,,,,,,,,,,,,,,,,,,,,,,105 Sing,001,2022_Nov_29_1005,ProdSingRedoBetween,2021.2.3,59.94039543098589,
89,0,89,0,,,,,,,,,,,,,,,,,,,,,,,,,,658.7738282000646,None,defeat,45,90,sing,blue,656.7621712004766,None,None,656.7621712004766,None,,,,,,,,,,,,,,,,,,,,,,,,,,,,,,,,,,,105 Sing,001,2022_Nov_29_1005,ProdSingRedoBetween,2021.2.3,59.94039543098589,
,,,,,,,,,,,,,,,,,,,,,,,,,,,,,,,,,,,,,,,,,659.2747061997652,None,k,272.95548499934375,659.2747061997652,None,,,,,,,,,,,,,,,,,,,,,,,,,,,,,105 Sing,001,2022_Nov_29_1005,ProdSingRedoBetween,2021.2.3,59.94039543098589,
,,,,0,0,0,0,,,,,,,,,,,,,,,,,,,,,,948.4639589004219,None,,,,,,,,,,,,,,,,,title,62,1,sing,old,red,932.7578592998907,None,932.7578592998907,None,6,10.216467599384487,932.7578592998907,None,10.216467599384487,942.9954968001693,None,943.5146685000509,None,943.5146685000509,None,f,4.931596400216222,943.5146685000509,None,4.931596400216222,,,105 Sing,001,2022_Nov_29_1005,ProdSingRedoBetween,2021.2.3,59.94039543098589,
,,,,1,0,1,0,,,,,,,,,,,,,,,,,,,,,,964.8460702998564,None,,,,,,,,,,,,,,,,,character,95,2,sing,new,null,948.9715962000191,None,948.9715962000191,None,5,10.290482999756932,948.9715962000191,None,10.290482999756932,959.3019324000925,None,959.811920600012,None,959.811920600012,None,f,5.018333399668336,959.811920600012,None,5.018333399668336,,,105 Sing,001,2022_Nov_29_1005,ProdSingRedoBetween,2021.2.3,59.94039543098589,
,,,,2,0,2,0,,,,,,,,,,,,,,,,,,,,,,971.1356367003173,None,,,,,,,,,,,,,,,,,frank,47,3,sing,old,blue,965.3673859005794,None,965.3673859005794,None,6,3.4066709000617266,965.3673859005794,None,3.4066709000617266,968.8086590999737,None,969.3168283002451,None,969.3168283002451,None,r,1.7933706007897854,969.3168283002451,None,1.7933706007897854,,,105 Sing,001,2022_Nov_29_1005,ProdSingRedoBetween,2021.2.3,59.94039543098589,
,,,,3,0,3,0,,,,,,,,,,,,,,,,,,,,,,981.6958862999454,None,,,,,,,,,,,,,,,,,nation,165,4,sing,new,null,971.640864700079,None,971.640864700079,None,6,3.4533294001594186,971.640864700079,None,3.4533294001594186,975.122706499882,None,975.6275837998837,None,975.6275837998837,None,f,6.050524299964309,975.6275837998837,None,6.050524299964309,,,105 Sing,001,2022_Nov_29_1005,ProdSingRedoBetween,2021.2.3,59.94039543098589,
,,,,4,0,4,0,,,,,,,,,,,,,,,,,,,,,,988.3718953998759,None,,,,,,,,,,,,,,,,,blind,60,5,sing,old,red,982.2018005000427,None,982.2018005000427,None,6,4.044649699702859,982.2018005000427,None,4.044649699702859,986.2672365996987,None,986.7678640000522,None,986.7678640000522,None,r,1.5824883999302983,986.7678640000522,None,1.5824883999302983,,,105 Sing,001,2022_Nov_29_1005,ProdSingRedoBetween,2021.2.3,59.94039543098589,
,,,,5,0,5,0,,,,,,,,,,,,,,,,,,,,,,994.9642126001418,None,,,,,,,,,,,,,,,,,order,30,6,sing,old,blue,988.8879669997841,None,988.8879669997841,None,6,4.878190300427377,988.8879669997841,None,4.878190300427377,993.7925987998024,None,994.2963014002889,None,994.2963014002889,None,r,0.6379013992846012,994.2963014002889,None,0.6379013992846012,,,105 Sing,001,2022_Nov_29_1005,ProdSingRedoBetween,2021.2.3,59.94039543098589,
,,,,6,0,6,0,,,,,,,,,,,,,,,,,,,,,,998.6305085998029,None,,,,,,,,,,,,,,,,,minute,83,7,sing,old,red,995.493317800574,None,995.493317800574,None,6,2.297047999687493,995.493317800574,None,2.297047999687493,997.8216289998963,None,998.3306969003752,None,998.3306969003752,None,r,0.27531930059194565,998.3306969003752,None,0.27531930059194565,,,105 Sing,001,2022_Nov_29_1005,ProdSingRedoBetween,2021.2.3,59.94039543098589,
,,,,7,0,7,0,,,,,,,,,,,,,,,,,,,,,,1008.9898880999535,None,,,,,,,,,,,,,,,,,tragedy,160,8,sing,new,null,999.1327315000817,None,999.1327315000817,None,6,6.12938579916954,999.1327315000817,None,6.12938579916954,1005.2892086002976,None,1005.8034770004451,None,1005.8034770004451,None,f,3.162639099173248,1005.8034770004451,None,3.162639099173248,,,105 Sing,001,2022_Nov_29_1005,ProdSingRedoBetween,2021.2.3,59.94039543098589,
,,,,8,0,8,0,,,,,,,,,,,,,,,,,,,,,,1024.0248913997784,None,,,,,,,,,,,,,,,,,budget,90,9,sing,new,null,1009.5033812997863,None,1009.5033812997863,None,5,6.214615399949253,1009.5033812997863,None,6.214615399949253,1015.7499381005764,None,1016.2693731999025,None,1016.2693731999025,None,f,7.7369522005319595,1016.2693731999025,None,7.7369522005319595,,,105 Sing,001,2022_Nov_29_1005,ProdSingRedoBetween,2021.2.3,59.94039543098589,
,,,,9,0,9,0,,,,,,,,,,,,,,,,,,,,,,1032.0149864004925,None,,,,,,,,,,,,,,,,,profession,67,10,sing,old,red,1024.546865100041,None,1024.546865100041,None,6,6.227226000279188,1024.546865100041,None,6.227226000279188,1030.7968051005155,None,1031.3158983998,None,1031.3158983998,None,f,0.6663951994851232,1031.3158983998,None,0.6663951994851232,,,105 Sing,001,2022_Nov_29_1005,ProdSingRedoBetween,2021.2.3,59.94039543098589,
,,,,10,0,10,0,,,,,,,,,,,,,,,,,,,,,,1038.25240950007,None,,,,,,,,,,,,,,,,,resistance,114,11,sing,new,null,1032.535732500255,None,1032.535732500255,None,6,4.8384513994678855,1032.535732500255,None,4.8384513994678855,1037.4087244998664,None,1037.9187182998285,None,1037.9187182998285,None,f,0.3033557999879122,1037.9187182998285,None,0.3033557999879122,,,105 Sing,001,2022_Nov_29_1005,ProdSingRedoBetween,2021.2.3,59.94039543098589,
,,,,11,0,11,0,,,,,,,,,,,,,,,,,,,,,,1043.8089255001396,None,,,,,,,,,,,,,,,,,rough,99,12,sing,new,null,1038.7645775005221,None,1038.7645775005221,None,6,3.0254053995013237,1038.7645775005221,None,3.0254053995013237,1041.8072800002992,None,1042.3078882005066,None,1042.3078882005066,None,f,1.4742395002394915,1042.3078882005066,None,1.4742395002394915,,,105 Sing,001,2022_Nov_29_1005,ProdSingRedoBetween,2021.2.3,59.94039543098589,
,,,,12,0,12,0,,,,,,,,,,,,,,,,,,,,,,1047.4967315001413,None,,,,,,,,,,,,,,,,,angle,31,13,sing,old,blue,1044.312471500598,None,1044.312471500598,None,6,2.3415951998904347,1044.312471500598,None,2.3415951998904347,1046.6804924001917,None,1047.2136776996776,None,1047.2136776996776,None,f,0.25627840030938387,1047.2136776996776,None,0.25627840030938387,,,105 Sing,001,2022_Nov_29_1005,ProdSingRedoBetween,2021.2.3,59.94039543098589,
,,,,13,0,13,0,,,,,,,,,,,,,,,,,,,,,,1051.3053593998775,None,,,,,,,,,,,,,,,,,alert,126,14,sing,new,null,1048.0204296996817,None,1048.0204296996817,None,6,2.3054913002997637,1048.0204296996817,None,2.3054913002997637,1050.3502852004021,None,1050.864904999733,None,1050.864904999733,None,r,0.39703369978815317,1050.864904999733,None,0.39703369978815317,,,105 Sing,001,2022_Nov_29_1005,ProdSingRedoBetween,2021.2.3,59.94039543098589,
,,,,14,0,14,0,,,,,,,,,,,,,,,,,,,,,,1053.9346583001316,None,,,,,,,,,,,,,,,,,store,113,15,sing,new,null,1051.8166356002912,None,1051.8166356002912,None,6,1.2134144995361567,1051.8166356002912,None,1.2134144995361567,1053.0519222998992,None,1053.5511062005535,None,1053.5511062005535,None,f,0.3591043995693326,1053.5511062005535,None,0.3591043995693326,,,105 Sing,001,2022_Nov_29_1005,ProdSingRedoBetween,2021.2.3,59.94039543098589,
,,,,15,0,15,0,,,,,,,,,,,,,,,,,,,,,,1070.8014663998038,None,,,,,,,,,,,,,,,,,close,175,16,sing,new,null,1054.4380564000458,None,1054.4380564000458,None,6,1.6159079996868968,1054.4380564000458,None,1.6159079996868968,1056.0743821999058,None,1056.5895499000326,None,1056.5895499000326,None,f,14.192472199909389,1056.5895499000326,None,14.192472199909389,,,105 Sing,001,2022_Nov_29_1005,ProdSingRedoBetween,2021.2.3,59.94039543098589,
,,,,16,0,16,0,,,,,,,,,,,,,,,,,,,,,,1073.3707458004355,None,,,,,,,,,,,,,,,,,majority,168,17,sing,new,null,1071.3114534998313,None,1071.3114534998313,None,6,1.214504700154066,1071.3114534998313,None,1.214504700154066,1072.5549314999953,None,1073.0770398005843,None,1073.0770398005843,None,f,0.2729609999805689,1073.0770398005843,None,0.2729609999805689,,,105 Sing,001,2022_Nov_29_1005,ProdSingRedoBetween,2021.2.3,59.94039543098589,
,,,,17,0,17,0,,,,,,,,,,,,,,,,,,,,,,1075.7398129999638,None,,,,,,,,,,,,,,,,,beauty,162,18,sing,new,null,1073.8744526999071,None,1073.8744526999071,None,6,1.0595689993351698,1073.8744526999071,None,1.0595689993351698,1074.956971200183,None,1075.4611240001395,None,1075.4611240001395,None,f,0.24893090035766363,1075.4611240001395,None,0.24893090035766363,,,105 Sing,001,2022_Nov_29_1005,ProdSingRedoBetween,2021.2.3,59.94039543098589,
,,,,18,0,18,0,,,,,,,,,,,,,,,,,,,,,,1082.4631454003975,None,,,,,,,,,,,,,,,,,guest,153,19,sing,new,null,1076.249810299836,None,1076.249810299836,None,6,1.2283838000148535,1076.249810299836,None,1.2283838000148535,1077.5111771002412,None,1078.0263184998184,None,1078.0263184998184,None,f,4.419656199403107,1078.0263184998184,None,4.419656199403107,,,105 Sing,001,2022_Nov_29_1005,ProdSingRedoBetween,2021.2.3,59.94039543098589,
,,,,19,0,19,0,,,,,,,,,,,,,,,,,,,,,,1084.9489831998944,None,,,,,,,,,,,,,,,,,broad,131,20,sing,new,null,1082.963516799733,None,1082.963516799733,None,6,1.1144801005721092,1082.963516799733,None,1.1144801005721092,1084.0991329997778,None,1084.5987275000662,None,1084.5987275000662,None,f,0.3192058000713587,1084.5987275000662,None,0.3192058000713587,,,105 Sing,001,2022_Nov_29_1005,ProdSingRedoBetween,2021.2.3,59.94039543098589,
,,,,20,0,20,0,,,,,,,,,,,,,,,,,,,,,,1088.9210657002404,None,,,,,,,,,,,,,,,,,appearance,116,21,sing,new,null,1085.4538978002965,None,1085.4538978002965,None,6,2.6003048000857234,1085.4538978002965,None,2.6003048000857234,1088.0941344005987,None,1088.6024684999138,None,1088.6024684999138,None,f,0.29140100069344044,1088.6024684999138,None,0.29140100069344044,,,105 Sing,001,2022_Nov_29_1005,ProdSingRedoBetween,2021.2.3,59.94039543098589,
,,,,21,0,21,0,,,,,,,,,,,,,,,,,,,,,,1090.8047193000093,None,,,,,,,,,,,,,,,,,quarter,77,22,sing,old,red,1089.4402066003531,None,1089.4402066003531,None,6,0.7897627996280789,1089.4402066003531,None,0.7897627996280789,1090.2556579997763,None,1090.760906400159,None,1090.760906400159,None,f,0.02109729964286089,1090.760906400159,None,0.02109729964286089,,,105 Sing,001,2022_Nov_29_1005,ProdSingRedoBetween,2021.2.3,59.94039543098589,
,,,,22,0,22,0,,,,,,,,,,,,,,,,,,,,,,1093.29048360046,None,,,,,,,,,,,,,,,,,exchange,111,23,sing,new,null,1091.3109721997753,None,1091.3109721997753,None,6,0.743155499920249,1091.3109721997753,None,0.743155499920249,1092.0823347000405,None,1092.5900429999456,None,1092.5900429999456,None,f,0.6799241006374359,1092.5900429999456,None,0.6799241006374359,,,105 Sing,001,2022_Nov_29_1005,ProdSingRedoBetween,2021.2.3,59.94039543098589,
,,,,23,0,23,0,,,,,,,,,,,,,,,,,,,,,,1096.578225900419,None,,,,,,,,,,,,,,,,,expansion,5,24,sing,old,yellow,1093.8001143997535,None,1093.8001143997535,None,6,0.8861806998029351,1093.8001143997535,None,0.8861806998029351,1094.7223581001163,None,1095.2293925005943,None,1095.2293925005943,None,f,1.328613500110805,1095.2293925005943,None,1.328613500110805,,,105 Sing,001,2022_Nov_29_1005,ProdSingRedoBetween,2021.2.3,59.94039543098589,
,,,,24,0,24,0,,,,,,,,,,,,,,,,,,,,,,1098.6958967000246,None,,,,,,,,,,,,,,,,,error,121,25,sing,new,null,1097.0809815004468,None,1097.0809815004468,None,6,0.7969677997753024,1097.0809815004468,None,0.7969677997753024,1097.901709199883,None,1098.415370600298,None,1098.415370600298,None,f,0.2545587997883558,1098.415370600298,None,0.2545587997883558,,,105 Sing,001,2022_Nov_29_1005,ProdSingRedoBetween,2021.2.3,59.94039543098589,
,,,,25,0,25,0,,,,,,,,,,,,,,,,,,,,,,1101.083118500188,None,,,,,,,,,,,,,,,,,union,147,26,sing,new,null,1099.1994277006015,None,1099.1994277006015,None,6,1.022532100789249,1099.1994277006015,None,1.022532100789249,1100.2487054998055,None,1100.753762899898,None,1100.753762899898,None,f,0.30019199941307306,1100.753762899898,None,0.30019199941307306,,,105 Sing,001,2022_Nov_29_1005,ProdSingRedoBetween,2021.2.3,59.94039543098589,
,,,,26,0,26,0,,,,,,,,,,,,,,,,,,,,,,1106.003245100379,None,,,,,,,,,,,,,,,,,interview,61,27,sing,old,red,1101.585824600421,None,1101.585824600421,None,6,1.8441605996340513,1101.585824600421,None,1.8441605996340513,1103.4529758999124,None,1103.9680126002058,None,1103.9680126002058,None,r,2.005992199294269,1103.9680126002058,None,2.005992199294269,,,105 Sing,001,2022_Nov_29_1005,ProdSingRedoBetween,2021.2.3,59.94039543098589,
,,,,27,0,27,0,,,,,,,,,,,,,,,,,,,,,,1113.3605970004573,None,,,,,,,,,,,,,,,,,company,120,28,sing,new,null,1106.5202868003398,None,1106.5202868003398,None,6,0.997643300332129,1106.5202868003398,None,0.997643300332129,1107.5411627003923,None,1108.0597767001018,None,1108.0597767001018,None,f,5.282051700167358,1108.0597767001018,None,5.282051700167358,,,105 Sing,001,2022_Nov_29_1005,ProdSingRedoBetween,2021.2.3,59.94039543098589,
,,,,28,0,28,0,,,,,,,,,,,,,,,,,,,,,,1115.6793513000011,None,,,,,,,,,,,,,,,,,crime,64,29,sing,old,red,1113.8643620004877,None,1113.8643620004877,None,6,0.9495597993955016,1113.8643620004877,None,0.9495597993955016,1114.8284836001694,None,1115.3320901002735,None,1115.3320901002735,None,f,0.32983339950442314,1115.3320901002735,None,0.32983339950442314,,,105 Sing,001,2022_Nov_29_1005,ProdSingRedoBetween,2021.2.3,59.94039543098589,
,,,,29,0,29,0,,,,,,,,,,,,,,,,,,,,,,1118.037495500408,None,,,,,,,,,,,,,,,,,population,29,30,sing,old,blue,1116.1917278999463,None,1116.1917278999463,None,6,1.0861908001825213,1116.1917278999463,None,1.0861908001825213,1117.3030839003623,None,1117.8203715002164,None,1117.8203715002164,None,r,0.1936082998290658,1117.8203715002164,None,0.1936082998290658,,,105 Sing,001,2022_Nov_29_1005,ProdSingRedoBetween,2021.2.3,59.94039543098589,
,,,,30,0,30,0,,,,,,,,,,,,,,,,,,,,,,1121.868994500488,None,,,,,,,,,,,,,,,,,estate,71,31,sing,old,red,1118.555156700313,None,1118.555156700313,None,6,2.4267686000093818,1118.555156700313,None,2.4267686000093818,1121.0028848005459,None,1121.5129017997533,None,1121.5129017997533,None,r,0.32509849965572357,1121.5129017997533,None,0.32509849965572357,,,105 Sing,001,2022_Nov_29_1005,ProdSingRedoBetween,2021.2.3,59.94039543098589,
,,,,31,0,31,0,,,,,,,,,,,,,,,,,,,,,,1124.1713559003547,None,,,,,,,,,,,,,,,,,music,176,32,sing,new,null,1122.3716080999002,None,1122.3716080999002,None,6,1.010271300561726,1122.3716080999002,None,1.010271300561726,1123.4054343998432,None,1123.9098747000098,None,1123.9098747000098,None,f,0.24005849938839674,1123.9098747000098,None,0.24005849938839674,,,105 Sing,001,2022_Nov_29_1005,ProdSingRedoBetween,2021.2.3,59.94039543098589,
,,,,32,0,32,0,,,,,,,,,,,,,,,,,,,,,,1126.3401779998094,None,,,,,,,,,,,,,,,,,series,76,33,sing,old,red,1124.6840703999624,None,1124.6840703999624,None,6,0.9778005992993712,1124.6840703999624,None,0.9778005992993712,1125.6922514997423,None,1126.2119987998158,None,1126.2119987998158,None,r,0.09810320008546114,1126.2119987998158,None,0.09810320008546114,,,105 Sing,001,2022_Nov_29_1005,ProdSingRedoBetween,2021.2.3,59.94039543098589,
,,,,33,0,33,0,,,,,,,,,,,,,,,,,,,,,,1128.558826699853,None,,,,,,,,,,,,,,,,,owner,41,34,sing,old,blue,1126.846840900369,None,1126.846840900369,None,6,0.8549538999795914,1126.846840900369,None,0.8549538999795914,1127.7326249005273,None,1128.2420741999522,None,1128.2420741999522,None,f,0.2998064002022147,1128.2420741999522,None,0.2998064002022147,,,105 Sing,001,2022_Nov_29_1005,ProdSingRedoBetween,2021.2.3,59.94039543098589,
,,,,34,0,34,0,,,,,,,,,,,,,,,,,,,,,,1137.9682692997158,None,,,,,,,,,,,,,,,,,career,105,35,sing,new,null,1129.066959200427,None,1129.066959200427,None,6,1.386926899664104,1129.066959200427,None,1.386926899664104,1130.4786115000024,None,1130.9808410005644,None,1130.9808410005644,None,f,6.96898590028286,1130.9808410005644,None,6.96898590028286,,,105 Sing,001,2022_Nov_29_1005,ProdSingRedoBetween,2021.2.3,59.94039543098589,
,,,,35,0,35,0,,,,,,,,,,,,,,,,,,,,,,1142.2893310999498,None,,,,,,,,,,,,,,,,,department,106,36,sing,new,null,1138.4791571004316,None,1138.4791571004316,None,6,2.1347336005419493,1138.4791571004316,None,2.1347336005419493,1140.63935509976,None,1141.1425903998315,None,1141.1425903998315,None,f,1.1272895000874996,1141.1425903998315,None,1.1272895000874996,,,105 Sing,001,2022_Nov_29_1005,ProdSingRedoBetween,2021.2.3,59.94039543098589,
,,,,36,0,36,0,,,,,,,,,,,,,,,,,,,,,,1144.64176160004,None,,,,,,,,,,,,,,,,,afternoon,21,37,sing,old,yellow,1142.7981259999797,None,1142.7981259999797,None,6,0.9598284000530839,1142.7981259999797,None,0.9598284000530839,1143.7808098001406,None,1144.2923093996942,None,1144.2923093996942,None,f,0.3215942997485399,1144.2923093996942,None,0.3215942997485399,,,105 Sing,001,2022_Nov_29_1005,ProdSingRedoBetween,2021.2.3,59.94039543098589,
,,,,37,0,37,0,,,,,,,,,,,,,,,,,,,,,,1147.7278842004016,None,,,,,,,,,,,,,,,,,capital,79,38,sing,old,red,1145.1480847001076,None,1145.1480847001076,None,6,0.8737805001437664,1145.1480847001076,None,0.8737805001437664,1146.0444269003347,None,1146.5459788003936,None,1146.5459788003936,None,f,1.1639830004423857,1146.5459788003936,None,1.1639830004423857,,,105 Sing,001,2022_Nov_29_1005,ProdSingRedoBetween,2021.2.3,59.94039543098589,
,,,,38,0,38,0,,,,,,,,,,,,,,,,,,,,,,1149.7135397996753,None,,,,,,,,,,,,,,,,,sweet,9,39,sing,old,yellow,1148.2354731997475,None,1148.2354731997475,None,6,0.7223029993474483,1148.2354731997475,None,0.7223029993474483,1148.9870166005567,None,1149.4967264998704,None,1149.4967264998704,None,f,0.18908239994198084,1149.4967264998704,None,0.18908239994198084,,,105 Sing,001,2022_Nov_29_1005,ProdSingRedoBetween,2021.2.3,59.94039543098589,
,,,,39,0,39,0,,,,,,,,,,,,,,,,,,,,,,1151.765561000444,None,,,,,,,,,,,,,,,,,smell,80,40,sing,old,red,1150.2234281003475,None,1150.2234281003475,None,6,0.846429399214685,1150.2234281003475,None,0.846429399214685,1151.099179700017,None,1151.5985259003937,None,1151.5985259003937,None,f,0.15126800071448088,1151.5985259003937,None,0.15126800071448088,,,105 Sing,001,2022_Nov_29_1005,ProdSingRedoBetween,2021.2.3,59.94039543098589,
,,,,40,0,40,0,,,,,,,,,,,,,,,,,,,,,,1153.717561500147,None,,,,,,,,,,,,,,,,,turkey,23,41,sing,old,yellow,1152.2732559004799,None,1152.2732559004799,None,6,0.8606373006477952,1152.2732559004799,None,0.8606373006477952,1153.15340820048,None,1153.667563199997,None,1153.667563199997,None,r,0.02632919978350401,1153.667563199997,None,0.02632919978350401,,,105 Sing,001,2022_Nov_29_1005,ProdSingRedoBetween,2021.2.3,59.94039543098589,
,,,,41,0,41,0,,,,,,,,,,,,,,,,,,,,,,1159.2911906996742,None,,,,,,,,,,,,,,,,,short,161,42,sing,new,null,1154.2203903002664,None,1154.2203903002664,None,6,1.017616200260818,1154.2203903002664,None,1.017616200260818,1155.272696999833,None,1155.786333899945,None,1155.786333899945,None,f,3.4754906995221972,1155.786333899945,None,3.4754906995221972,,,105 Sing,001,2022_Nov_29_1005,ProdSingRedoBetween,2021.2.3,59.94039543098589,
,,,,42,0,42,0,,,,,,,,,,,,,,,,,,,,,,1162.2259125001729,None,,,,,,,,,,,,,,,,,object,124,43,sing,new,null,1159.7902798000723,None,1159.7902798000723,None,6,1.6876071002334356,1159.7902798000723,None,1.6876071002334356,1161.5134827997535,None,1162.0258263004944,None,1162.0258263004944,None,r,0.18002389930188656,1162.0258263004944,None,0.18002389930188656,,,105 Sing,001,2022_Nov_29_1005,ProdSingRedoBetween,2021.2.3,59.94039543098589,
,,,,43,0,43,0,,,,,,,,,,,,,,,,,,,,,,1164.561643499881,None,,,,,,,,,,,,,,,,,general,89,44,sing,old,red,1162.7368878005072,None,1162.7368878005072,None,6,0.9249310996383429,1162.7368878005072,None,0.9249310996383429,1163.6795527003706,None,1164.1947776004672,None,1164.1947776004672,None,f,0.3470975998789072,1164.1947776004672,None,0.3470975998789072,,,105 Sing,001,2022_Nov_29_1005,ProdSingRedoBetween,2021.2.3,59.94039543098589,
,,,,44,0,44,0,,,,,,,,,,,,,,,,,,,,,,1167.7648267000914,None,,,,,,,,,,,,,,,,,subject,46,45,sing,old,blue,1165.082564400509,None,1165.082564400509,None,6,1.339274199679494,1165.082564400509,None,1.339274199679494,1166.4534946000203,None,1166.9686177000403,None,1166.9686177000403,None,f,0.7732194997370243,1166.9686177000403,None,0.7732194997370243,,,105 Sing,001,2022_Nov_29_1005,ProdSingRedoBetween,2021.2.3,59.94039543098589,
,,,,45,0,45,0,,,,,,,,,,,,,,,,,,,,,,1171.4224736001343,None,,,,,,,,,,,,,,,,,collection,140,46,sing,new,null,1168.2760290997103,None,1168.2760290997103,None,6,2.033697299659252,1168.2760290997103,None,2.033697299659252,1170.3376531004906,None,1170.8515292005613,None,1170.8515292005613,None,r,0.5464463997632265,1170.8515292005613,None,0.5464463997632265,,,105 Sing,001,2022_Nov_29_1005,ProdSingRedoBetween,2021.2.3,59.94039543098589,
,,,,46,0,46,0,,,,,,,,,,,,,,,,,,,,,,1173.539711699821,None,,,,,,,,,,,,,,,,,express,7,47,sing,old,yellow,1171.9422169001773,None,1171.9422169001773,None,6,0.807603900320828,1171.9422169001773,None,0.807603900320828,1172.7734575001523,None,1173.2912146002054,None,1173.2912146002054,None,f,0.22672490030527115,1173.2912146002054,None,0.22672490030527115,,,105 Sing,001,2022_Nov_29_1005,ProdSingRedoBetween,2021.2.3,59.94039543098589,
,,,,47,0,47,0,,,,,,,,,,,,,,,,,,,,,,1175.4904621001333,None,,,,,,,,,,,,,,,,,rural,20,48,sing,old,yellow,1174.0598178999498,None,1174.0598178999498,None,6,0.770011399872601,1174.0598178999498,None,0.770011399872601,1174.8562742006034,None,1175.361903499812,None,1175.361903499812,None,r,0.10797770041972399,1175.361903499812,None,0.10797770041972399,,,105 Sing,001,2022_Nov_29_1005,ProdSingRedoBetween,2021.2.3,59.94039543098589,
,,,,48,0,48,0,,,,,,,,,,,,,,,,,,,,,,1181.214538000524,None,,,,,,,,,,,,,,,,,captain,48,49,sing,old,blue,1175.9934943998232,None,1175.9934943998232,None,6,4.588425800204277,1175.9934943998232,None,4.588425800204277,1180.613441100344,None,1181.1323862997815,None,1181.1323862997815,None,r,0.05744880065321922,1181.1323862997815,None,0.05744880065321922,,,105 Sing,001,2022_Nov_29_1005,ProdSingRedoBetween,2021.2.3,59.94039543098589,
,,,,49,0,49,0,,,,,,,,,,,,,,,,,,,,,,1184.2490387000144,None,,,,,,,,,,,,,,,,,society,96,50,sing,new,null,1181.7290439000353,None,1181.7290439000353,None,6,1.196908699348569,1181.7290439000353,None,1.196908699348569,1182.9478313997388,None,1183.448574400507,None,1183.448574400507,None,f,0.7813836997374892,1183.448574400507,None,0.7813836997374892,,,105 Sing,001,2022_Nov_29_1005,ProdSingRedoBetween,2021.2.3,59.94039543098589,
,,,,50,0,50,0,,,,,,,,,,,,,,,,,,,,,,1186.335862500593,None,,,,,,,,,,,,,,,,,treatment,178,51,sing,new,null,1184.7581428000703,None,1184.7581428000703,None,6,0.8959050998091698,1184.7581428000703,None,0.8959050998091698,1185.6855313004926,None,1186.1998535003513,None,1186.1998535003513,None,f,0.11015130020678043,1186.1998535003513,None,0.11015130020678043,,,105 Sing,001,2022_Nov_29_1005,ProdSingRedoBetween,2021.2.3,59.94039543098589,
,,,,51,0,51,0,,,,,,,,,,,,,,,,,,,,,,1188.2352184997872,None,,,,,,,,,,,,,,,,,public,138,52,sing,new,null,1186.872452000156,None,1186.872452000156,None,6,0.653294799849391,1186.872452000156,None,0.653294799849391,1187.5533250998706,None,1188.068300999701,None,1188.068300999701,None,f,0.13753960002213717,1188.068300999701,None,0.13753960002213717,,,105 Sing,001,2022_Nov_29_1005,ProdSingRedoBetween,2021.2.3,59.94039543098589,
,,,,52,0,52,0,,,,,,,,,,,,,,,,,,,,,,1191.989027400501,None,,,,,,,,,,,,,,,,,orchestra,174,53,sing,new,null,1188.7377577004954,None,1188.7377577004954,None,6,1.9240033002570271,1188.7377577004954,None,1.9240033002570271,1190.6881424998865,None,1191.1881173001602,None,1191.1881173001602,None,f,0.777518100105226,1191.1881173001602,None,0.777518100105226,,,105 Sing,001,2022_Nov_29_1005,ProdSingRedoBetween,2021.2.3,59.94039543098589,
,,,,53,0,53,0,,,,,,,,,,,,,,,,,,,,,,1196.0597638003528,None,,,,,,,,,,,,,,,,,stranger,69,54,sing,old,red,1192.4894631998613,None,1192.4894631998613,None,6,1.8286696998402476,1192.4894631998613,None,1.8286696998402476,1194.347923300229,None,1194.8596807997674,None,1194.8596807997674,None,f,1.1702189994975924,1194.8596807997674,None,1.1702189994975924,,,105 Sing,001,2022_Nov_29_1005,ProdSingRedoBetween,2021.2.3,59.94039543098589,
,,,,54,0,54,0,,,,,,,,,,,,,,,,,,,,,,1197.9114950997755,None,,,,,,,,,,,,,,,,,route,141,55,sing,new,null,1196.5667281001806,None,1196.5667281001806,None,6,0.7190677002072334,1196.5667281001806,None,0.7190677002072334,1197.3129994999617,None,1197.831060600467,None,1197.831060600467,None,f,0.05461740028113127,1197.831060600467,None,0.05461740028113127,,,105 Sing,001,2022_Nov_29_1005,ProdSingRedoBetween,2021.2.3,59.94039543098589,
,,,,55,0,55,0,,,,,,,,,,,,,,,,,,,,,,1200.6142672002316,None,,,,,,,,,,,,,,,,,native,75,56,sing,old,red,1198.4172585001215,None,1198.4172585001215,None,6,1.3325435994192958,1198.4172585001215,None,1.3325435994192958,1199.7869559004903,None,1200.2972603999078,None,1200.2972603999078,None,f,0.2925519999116659,1200.2972603999078,None,0.2925519999116659,,,105 Sing,001,2022_Nov_29_1005,ProdSingRedoBetween,2021.2.3,59.94039543098589,
,,,,56,0,56,0,,,,,,,,,,,,,,,,,,,,,,1203.1205126997083,None,,,,,,,,,,,,,,,,,emergency,135,57,sing,new,null,1201.1260286001489,None,1201.1260286001489,None,6,0.759761399589479,1201.1260286001489,None,0.759761399589479,1201.919195400551,None,1202.4328410001472,None,1202.4328410001472,None,f,0.6531614996492863,1202.4328410001472,None,0.6531614996492863,,,105 Sing,001,2022_Nov_29_1005,ProdSingRedoBetween,2021.2.3,59.94039543098589,
,,,,57,0,57,0,,,,,,,,,,,,,,,,,,,,,,1205.490036699921,None,,,,,,,,,,,,,,,,,silence,50,58,sing,old,blue,1203.6340743005276,None,1203.6340743005276,None,6,0.9319229004904628,1203.6340743005276,None,0.9319229004904628,1204.5912955999374,None,1205.105394399725,None,1205.105394399725,None,f,0.36462209932506084,1205.105394399725,None,0.36462209932506084,,,105 Sing,001,2022_Nov_29_1005,ProdSingRedoBetween,2021.2.3,59.94039543098589,
,,,,58,0,58,0,,,,,,,,,,,,,,,,,,,,,,1207.9046216001734,None,,,,,,,,,,,,,,,,,finance,73,59,sing,old,red,1206.003324500285,None,1206.003324500285,None,6,0.8584694005548954,1206.003324500285,None,0.8584694005548954,1206.8881053002551,None,1207.3889079997316,None,1207.3889079997316,None,f,0.4970525000244379,1207.3889079997316,None,0.4970525000244379,,,105 Sing,001,2022_Nov_29_1005,ProdSingRedoBetween,2021.2.3,59.94039543098589,
,,,,59,0,59,0,,,,,,,,,,,,,,,,,,,,,,1210.7754564005882,None,,,,,,,,,,,,,,,,,bicycle,13,60,sing,old,yellow,1208.417456800118,None,1208.417456800118,None,6,1.4043820993974805,1208.417456800118,None,1.4043820993974805,1209.8452706998214,None,1210.3633729005232,None,1210.3633729005232,None,f,0.3864561999216676,1210.3633729005232,None,0.3864561999216676,,,105 Sing,001,2022_Nov_29_1005,ProdSingRedoBetween,2021.2.3,59.94039543098589,
,,,,60,0,60,0,,,,,,,,,,,,,,,,,,,,,,1213.5605017002672,None,,,,,,,,,,,,,,,,,private,74,61,sing,old,red,1211.30089019984,None,1211.30089019984,None,6,1.3288157004863024,1211.30089019984,None,1.3288157004863024,1212.6615180997178,None,1213.1769558005035,None,1213.1769558005035,None,f,0.3567793006077409,1213.1769558005035,None,0.3567793006077409,,,105 Sing,001,2022_Nov_29_1005,ProdSingRedoBetween,2021.2.3,59.94039543098589,
,,,,61,0,61,0,,,,,,,,,,,,,,,,,,,,,,1216.0796892996877,None,,,,,,,,,,,,,,,,,recall,152,62,sing,new,null,1214.0735836001113,None,1214.0735836001113,None,6,1.1160840997472405,1214.0735836001113,None,1.1160840997472405,1215.2121403003111,None,1215.7148222997785,None,1215.7148222997785,None,f,0.33892149943858385,1215.7148222997785,None,0.33892149943858385,,,105 Sing,001,2022_Nov_29_1005,ProdSingRedoBetween,2021.2.3,59.94039543098589,
,,,,62,0,62,0,,,,,,,,,,,,,,,,,,,,,,1218.5154309999198,None,,,,,,,,,,,,,,,,,equipment,6,63,sing,old,yellow,1216.5898176999763,None,1216.5898176999763,None,6,0.983963499777019,1216.5898176999763,None,0.983963499777019,1217.6043635997921,None,1218.12005660031,None,1218.12005660031,None,f,0.3657288998365402,1218.12005660031,None,0.3657288998365402,,,105 Sing,001,2022_Nov_29_1005,ProdSingRedoBetween,2021.2.3,59.94039543098589,
,,,,63,0,63,0,,,,,,,,,,,,,,,,,,,,,,1220.5847532004118,None,,,,,,,,,,,,,,,,,south,136,64,sing,new,null,1219.0257468000054,None,1219.0257468000054,None,6,0.6840732004493475,1219.0257468000054,None,0.6840732004493475,1219.7358547998592,None,1220.2505946001038,None,1220.2505946001038,None,f,0.30712899938225746,1220.2505946001038,None,0.30712899938225746,,,105 Sing,001,2022_Nov_29_1005,ProdSingRedoBetween,2021.2.3,59.94039543098589,
,,,,64,0,64,0,,,,,,,,,,,,,,,,,,,,,,1223.303554000333,None,,,,,,,,,,,,,,,,,block,17,65,sing,old,yellow,1221.0864936001599,None,1221.0864936001599,None,6,1.1353324996307492,1221.0864936001599,None,1.1353324996307492,1222.261790599674,None,1222.7732840003446,None,1222.7732840003446,None,f,0.5044059995561838,1222.7732840003446,None,0.5044059995561838,,,105 Sing,001,2022_Nov_29_1005,ProdSingRedoBetween,2021.2.3,59.94039543098589,
,,,,65,0,65,0,,,,,,,,,,,,,,,,,,,,,,1225.6558734001592,None,,,,,,,,,,,,,,,,,drove,68,66,sing,old,red,1223.8205578997731,None,1223.8205578997731,None,6,0.9212707998231053,1223.8205578997731,None,0.9212707998231053,1224.7730419002473,None,1225.2722738999873,None,1225.2722738999873,None,f,0.3576028002426028,1225.2722738999873,None,0.3576028002426028,,,105 Sing,001,2022_Nov_29_1005,ProdSingRedoBetween,2021.2.3,59.94039543098589,
,,,,66,0,66,0,,,,,,,,,,,,,,,,,,,,,,1228.8941534003243,None,,,,,,,,,,,,,,,,,agreement,66,67,sing,old,red,1226.1624586004764,None,1226.1624586004764,None,6,1.6193809993565083,1226.1624586004764,None,1.6193809993565083,1227.8146782005206,None,1228.3257216997445,None,1228.3257216997445,None,r,0.544216699898243,1228.3257216997445,None,0.544216699898243,,,105 Sing,001,2022_Nov_29_1005,ProdSingRedoBetween,2021.2.3,59.94039543098589,
,,,,67,0,67,0,,,,,,,,,,,,,,,,,,,,,,1230.9945670003071,None,,,,,,,,,,,,,,,,,debate,149,68,sing,new,null,1229.4130461998284,None,1229.4130461998284,None,6,0.6966713005676866,1229.4130461998284,None,0.6966713005676866,1230.1268202997744,None,1230.6284274999052,None,1230.6284274999052,None,f,0.34529689978808165,1230.6284274999052,None,0.34529689978808165,,,105 Sing,001,2022_Nov_29_1005,ProdSingRedoBetween,2021.2.3,59.94039543098589,
,,,,68,0,68,0,,,,,,,,,,,,,,,,,,,,,,1236.2005313998088,None,,,,,,,,,,,,,,,,,smooth,22,69,sing,old,yellow,1231.5044766003266,None,1231.5044766003266,None,6,1.3172791004180908,1231.5044766003266,None,1.3172791004180908,1232.8493499001488,None,1233.36618669983,None,1233.36618669983,None,r,2.8075914001092315,1233.36618669983,None,2.8075914001092315,,,105 Sing,001,2022_Nov_29_1005,ProdSingRedoBetween,2021.2.3,59.94039543098589,
,,,,69,0,69,0,,,,,,,,,,,,,,,,,,,,,,1239.6904214005917,None,,,,,,,,,,,,,,,,,benefit,167,70,sing,new,null,1236.7009723996744,None,1236.7009723996744,None,6,1.6247588004916906,1236.7009723996744,None,1.6247588004916906,1238.3534783003852,None,1238.8689593998715,None,1238.8689593998715,None,r,0.8008746998384595,1238.8689593998715,None,0.8008746998384595,,,105 Sing,001,2022_Nov_29_1005,ProdSingRedoBetween,2021.2.3,59.94039543098589,
,,,,70,0,70,0,,,,,,,,,,,,,,,,,,,,,,1241.8720529004931,None,,,,,,,,,,,,,,,,,goose,109,71,sing,new,null,1240.2118035005406,None,1240.2118035005406,None,6,0.8340188004076481,1240.2118035005406,None,0.8340188004076481,1241.076705600135,None,1241.5929086003453,None,1241.5929086003453,None,f,0.25280729960650206,1241.5929086003453,None,0.25280729960650206,,,105 Sing,001,2022_Nov_29_1005,ProdSingRedoBetween,2021.2.3,59.94039543098589,
,,,,71,0,71,0,,,,,,,,,,,,,,,,,,,,,,1244.107644200325,None,,,,,,,,,,,,,,,,,pancakes,115,72,sing,new,null,1242.3851696001366,None,1242.3851696001366,None,6,0.8525120001286268,1242.3851696001366,None,0.8525120001286268,1243.2592764003202,None,1243.779739400372,None,1243.779739400372,None,f,0.3059876998886466,1243.779739400372,None,0.3059876998886466,,,105 Sing,001,2022_Nov_29_1005,ProdSingRedoBetween,2021.2.3,59.94039543098589,
,,,,72,0,72,0,,,,,,,,,,,,,,,,,,,,,,1246.5280229002237,None,,,,,,,,,,,,,,,,,executive,97,73,sing,new,null,1244.6172254001722,None,1244.6172254001722,None,6,1.1084250006824732,1244.6172254001722,None,1.1084250006824732,1245.7477657999843,None,1246.2649597004056,None,1246.2649597004056,None,f,0.24483809992671013,1246.2649597004056,None,0.24483809992671013,,,105 Sing,001,2022_Nov_29_1005,ProdSingRedoBetween,2021.2.3,59.94039543098589,
,,,,73,0,73,0,,,,,,,,,,,,,,,,,,,,,,1248.6788779003546,None,,,,,,,,,,,,,,,,,audience,173,74,sing,new,null,1247.033665300347,None,1247.033665300347,None,6,0.7162159997969866,1247.033665300347,None,0.7162159997969866,1247.7899382999167,None,1248.2952292002738,None,1248.2952292002738,None,f,0.35842400044202805,1248.2952292002738,None,0.35842400044202805,,,105 Sing,001,2022_Nov_29_1005,ProdSingRedoBetween,2021.2.3,59.94039543098589,
,,,,74,0,74,0,,,,,,,,,,,,,,,,,,,,,,1251.1479997001588,None,,,,,,,,,,,,,,,,,disease,177,75,sing,new,null,1249.2013654001057,None,1249.2013654001057,None,6,0.7884077997878194,1249.2013654001057,None,0.7884077997878194,1250.0220264997333,None,1250.5339601002634,None,1250.5339601002634,None,f,0.5838172007352114,1250.5339601002634,None,0.5838172007352114,,,105 Sing,001,2022_Nov_29_1005,ProdSingRedoBetween,2021.2.3,59.94039543098589,
,,,,75,0,75,0,,,,,,,,,,,,,,,,,,,,,,1253.1666518999264,None,,,,,,,,,,,,,,,,,citizen,85,76,sing,old,red,1251.6620279001072,None,1251.6620279001072,None,6,0.6637510005384684,1251.6620279001072,None,0.6637510005384684,1252.3499491000548,None,1252.8596710003912,None,1252.8596710003912,None,r,0.2821257999166846,1252.8596710003912,None,0.2821257999166846,,,105 Sing,001,2022_Nov_29_1005,ProdSingRedoBetween,2021.2.3,59.94039543098589,
,,,,76,0,76,0,,,,,,,,,,,,,,,,,,,,,,1254.901414600201,None,,,,,,,,,,,,,,,,,partner,101,77,sing,new,null,1253.6754529997706,None,1253.6754529997706,None,6,0.5141271995380521,1253.6754529997706,None,0.5141271995380521,1254.2216567005962,None,1254.7347506005317,None,1254.7347506005317,None,f,0.14287410024553537,1254.7347506005317,None,0.14287410024553537,,,105 Sing,001,2022_Nov_29_1005,ProdSingRedoBetween,2021.2.3,59.94039543098589,
,,,,77,0,77,0,,,,,,,,,,,,,,,,,,,,,,1256.7702027000487,None,,,,,,,,,,,,,,,,,universal,59,78,sing,old,yellow,1255.4099987996742,None,1255.4099987996742,None,6,0.45959969982504845,1255.4099987996742,None,0.45959969982504845,1255.8926231004298,None,1256.4075647005811,None,1256.4075647005811,None,r,0.3341127000749111,1256.4075647005811,None,0.3341127000749111,,,105 Sing,001,2022_Nov_29_1005,ProdSingRedoBetween,2021.2.3,59.94039543098589,
,,,,78,0,78,0,,,,,,,,,,,,,,,,,,,,,,1258.8389809001237,None,,,,,,,,,,,,,,,,,region,144,79,sing,new,null,1257.2830010000616,None,1257.2830010000616,None,6,0.6507505001500249,1257.2830010000616,None,0.6507505001500249,1257.9601480998099,None,1258.472055800259,None,1258.472055800259,None,f,0.3496192004531622,1258.472055800259,None,0.3496192004531622,,,105 Sing,001,2022_Nov_29_1005,ProdSingRedoBetween,2021.2.3,59.94039543098589,
,,,,79,0,79,0,,,,,,,,,,,,,,,,,,,,,,1264.4447009004653,None,,,,,,,,,,,,,,,,,suspect,34,80,sing,old,blue,1259.3472578004003,None,1259.3472578004003,None,6,3.9864592999219894,1259.3472578004003,None,3.9864592999219894,1263.3615912999958,None,1263.8606975004077,None,1263.8606975004077,None,f,0.5609761998057365,1263.8606975004077,None,0.5609761998057365,,,105 Sing,001,2022_Nov_29_1005,ProdSingRedoBetween,2021.2.3,59.94039543098589,
,,,,80,0,80,0,,,,,,,,,,,,,,,,,,,,,,1266.6634600004181,None,,,,,,,,,,,,,,,,,minor,122,81,sing,new,null,1264.9565631998703,None,1264.9565631998703,None,6,0.8331357995048165,1264.9565631998703,None,0.8331357995048165,1265.8168363999575,None,1266.3311860002577,None,1266.3311860002577,None,f,0.3066507000476122,1266.3311860002577,None,0.3066507000476122,,,105 Sing,001,2022_Nov_29_1005,ProdSingRedoBetween,2021.2.3,59.94039543098589,
,,,,81,0,81,0,,,,,,,,,,,,,,,,,,,,,,1268.65206869971,None,,,,,,,,,,,,,,,,,design,159,82,sing,new,null,1267.1772939004004,None,1267.1772939004004,None,6,0.6123556001111865,1267.1772939004004,None,0.6123556001111865,1267.8189796004444,None,1268.3323347000405,None,1268.3323347000405,None,f,0.2972599007189274,1268.3323347000405,None,0.2972599007189274,,,105 Sing,001,2022_Nov_29_1005,ProdSingRedoBetween,2021.2.3,59.94039543098589,
,,,,82,0,82,0,,,,,,,,,,,,,,,,,,,,,,1270.7675304999575,None,,,,,,,,,,,,,,,,,swift,92,83,sing,new,null,1269.1673745000735,None,1269.1673745000735,None,6,0.7102872999384999,1269.1673745000735,None,0.7102872999384999,1269.9025515001267,None,1270.4207386001945,None,1270.4207386001945,None,f,0.3289225995540619,1270.4207386001945,None,0.3289225995540619,,,105 Sing,001,2022_Nov_29_1005,ProdSingRedoBetween,2021.2.3,59.94039543098589,
,,,,83,0,83,0,,,,,,,,,,,,,,,,,,,,,,1273.219777500257,None,,,,,,,,,,,,,,,,,trend,107,84,sing,new,null,1271.2770467000082,None,1271.2770467000082,None,6,0.904598300345242,1271.2770467000082,None,0.904598300345242,1272.2023208998144,None,1272.7086577005684,None,1272.7086577005684,None,f,0.4890201995149255,1272.7086577005684,None,0.4890201995149255,,,105 Sing,001,2022_Nov_29_1005,ProdSingRedoBetween,2021.2.3,59.94039543098589,
,,,,84,0,84,0,,,,,,,,,,,,,,,,,,,,,,1286.065915999934,None,,,,,,,,,,,,,,,,,height,98,85,sing,new,null,1273.7263580998406,None,1273.7263580998406,None,6,3.3433341002091765,1273.7263580998406,None,3.3433341002091765,1277.101201100275,None,1277.6077666003257,None,1277.6077666003257,None,f,8.429889000020921,1277.6077666003257,None,8.429889000020921,,,105 Sing,001,2022_Nov_29_1005,ProdSingRedoBetween,2021.2.3,59.94039543098589,
,,,,85,0,85,0,,,,,,,,,,,,,,,,,,,,,,1288.2516596000642,None,,,,,,,,,,,,,,,,,institute,35,86,sing,old,blue,1286.5772877000272,None,1286.5772877000272,None,6,0.8283327994868159,1286.5772877000272,None,0.8283327994868159,1287.4349110005423,None,1287.9409373998642,None,1287.9409373998642,None,f,0.28074439987540245,1287.9409373998642,None,0.28074439987540245,,,105 Sing,001,2022_Nov_29_1005,ProdSingRedoBetween,2021.2.3,59.94039543098589,
,,,,86,0,86,0,,,,,,,,,,,,,,,,,,,,,,1290.2869607005268,None,,,,,,,,,,,,,,,,,dispute,38,87,sing,old,blue,1288.77075590007,None,1288.77075590007,None,6,0.6588661996647716,1288.77075590007,None,0.6588661996647716,1289.4583675004542,None,1289.9699518997222,None,1289.9699518997222,None,f,0.29174540005624294,1289.9699518997222,None,0.29174540005624294,,,105 Sing,001,2022_Nov_29_1005,ProdSingRedoBetween,2021.2.3,59.94039543098589,
,,,,87,0,87,0,,,,,,,,,,,,,,,,,,,,,,1295.0584524003789,None,,,,,,,,,,,,,,,,,clean,157,88,sing,new,null,1290.789644700475,None,1290.789644700475,None,6,1.2320129005238414,1290.789644700475,None,1.2320129005238414,1292.0426655001938,None,1292.5580691006035,None,1292.5580691006035,None,f,2.4795426996424794,1292.5580691006035,None,2.4795426996424794,,,105 Sing,001,2022_Nov_29_1005,ProdSingRedoBetween,2021.2.3,59.94039543098589,
,,,,88,0,88,0,,,,,,,,,,,,,,,,,,,,,,1297.427487200126,None,,,,,,,,,,,,,,,,,sound,65,89,sing,old,red,1295.5774070005864,None,1295.5774070005864,None,6,0.9803278995677829,1295.5774070005864,None,0.9803278995677829,1296.5831326004118,None,1297.0970828002319,None,1297.0970828002319,None,f,0.30851530004292727,1297.0970828002319,None,0.30851530004292727,,,105 Sing,001,2022_Nov_29_1005,ProdSingRedoBetween,2021.2.3,59.94039543098589,
,,,,89,0,89,0,,,,,,,,,,,,,,,,,,,,,,1301.5483044004068,None,,,,,,,,,,,,,,,,,death,119,90,sing,new,null,1297.9366341000423,None,1297.9366341000423,None,6,1.3089100001379848,1297.9366341000423,None,1.3089100001379848,1299.2640225002542,None,1299.7631997996941,None,1299.7631997996941,None,f,1.7624083003029227,1299.7631997996941,None,1.7624083003029227,,,105 Sing,001,2022_Nov_29_1005,ProdSingRedoBetween,2021.2.3,59.94039543098589,
,,,,90,0,90,0,,,,,,,,,,,,,,,,,,,,,,1305.5686825998127,None,,,,,,,,,,,,,,,,,primary,158,91,sing,new,null,1302.0571177005768,None,1302.0571177005768,None,6,1.3805965995416045,1302.0571177005768,None,1.3805965995416045,1303.466862000525,None,1303.9716459996998,None,1303.9716459996998,None,f,1.5779446996748447,1303.9716459996998,None,1.5779446996748447,,,105 Sing,001,2022_Nov_29_1005,ProdSingRedoBetween,2021.2.3,59.94039543098589,
,,,,91,0,91,0,,,,,,,,,,,,,,,,,,,,,,1307.604127800092,None,,,,,,,,,,,,,,,,,mechanical,139,92,sing,new,null,1306.0757585000247,None,1306.0757585000247,None,6,0.6658565998077393,1306.0757585000247,None,0.6658565998077393,1306.7724147001281,None,1307.288120600395,None,1307.288120600395,None,f,0.2935215001925826,1307.288120600395,None,0.2935215001925826,,,105 Sing,001,2022_Nov_29_1005,ProdSingRedoBetween,2021.2.3,59.94039543098589,
,,,,92,0,92,0,,,,,,,,,,,,,,,,,,,,,,1309.5754805998877,None,,,,,,,,,,,,,,,,,carry,53,93,sing,old,blue,1308.1147333001718,None,1308.1147333001718,None,6,0.8030209001153708,1308.1147333001718,None,0.8030209001153708,1308.9394255001098,None,1309.4396342001855,None,1309.4396342001855,None,r,0.10200890060514212,1309.4396342001855,None,0.10200890060514212,,,105 Sing,001,2022_Nov_29_1005,ProdSingRedoBetween,2021.2.3,59.94039543098589,
,,,,93,0,93,0,,,,,,,,,,,,,,,,,,,,,,1311.91776330024,None,,,,,,,,,,,,,,,,,military,70,94,sing,old,red,1310.105584600009,None,1310.105584600009,None,6,0.9320539999753237,1310.105584600009,None,0.9320539999753237,1311.062656099908,None,1311.5767676001415,None,1311.5767676001415,None,r,0.3092000000178814,1311.5767676001415,None,0.3092000000178814,,,105 Sing,001,2022_Nov_29_1005,ProdSingRedoBetween,2021.2.3,59.94039543098589,
,,,,94,0,94,0,,,,,,,,,,,,,,,,,,,,,,1314.0441335998476,None,,,,,,,,,,,,,,,,,quick,108,95,sing,new,null,1312.4339870000258,None,1312.4339870000258,None,6,0.7476065000519156,1312.4339870000258,None,0.7476065000519156,1313.212677899748,None,1313.7322249002755,None,1313.7322249002755,None,f,0.28942659962922335,1313.7322249002755,None,0.28942659962922335,,,105 Sing,001,2022_Nov_29_1005,ProdSingRedoBetween,2021.2.3,59.94039543098589,
,,,,95,0,95,0,,,,,,,,,,,,,,,,,,,,,,1320.9019164005294,None,,,,,,,,,,,,,,,,,quiet,42,96,sing,old,blue,1314.5489790001884,None,1314.5489790001884,None,6,0.8565928004682064,1314.5489790001884,None,0.8565928004682064,1315.432923800312,None,1315.950434700586,None,1315.950434700586,None,r,4.935019100084901,1315.950434700586,None,4.935019100084901,,,105 Sing,001,2022_Nov_29_1005,ProdSingRedoBetween,2021.2.3,59.94039543098589,
,,,,96,0,96,0,,,,,,,,,,,,,,,,,,,,,,1323.0030404003337,None,,,,,,,,,,,,,,,,,listen,110,97,sing,new,null,1321.4114819001406,None,1321.4114819001406,None,6,0.7460689004510641,1321.4114819001406,None,0.7460689004510641,1322.186654000543,None,1322.6912425002083,None,1322.6912425002083,None,f,0.29046199936419725,1322.6912425002083,None,0.29046199936419725,,,105 Sing,001,2022_Nov_29_1005,ProdSingRedoBetween,2021.2.3,59.94039543098589,
,,,,97,0,97,0,,,,,,,,,,,,,,,,,,,,,,1328.3592638000846,None,,,,,,,,,,,,,,,,,spoke,26,98,sing,old,yellow,1323.5111971003935,None,1323.5111971003935,None,6,3.406371299177408,1323.5111971003935,None,3.406371299177408,1326.9423080999404,None,1327.464972300455,None,1327.464972300455,None,f,0.8686613002792001,1327.464972300455,None,0.8686613002792001,,,105 Sing,001,2022_Nov_29_1005,ProdSingRedoBetween,2021.2.3,59.94039543098589,
,,,,98,0,98,0,,,,,,,,,,,,,,,,,,,,,,1330.8107869001105,None,,,,,,,,,,,,,,,,,shear,87,99,sing,old,red,1328.8601470002905,None,1328.8601470002905,None,6,0.8573815003037453,1328.8601470002905,None,0.8573815003037453,1329.74603950046,None,1330.2603555005044,None,1330.2603555005044,None,f,0.5211893999949098,1330.2603555005044,None,0.5211893999949098,,,105 Sing,001,2022_Nov_29_1005,ProdSingRedoBetween,2021.2.3,59.94039543098589,
,,,,99,0,99,0,,,,,,,,,,,,,,,,,,,,,,1345.2751924004406,None,,,,,,,,,,,,,,,,,council,102,100,sing,new,null,1331.3176285997033,None,1331.3176285997033,None,6,11.615900599397719,1331.3176285997033,None,11.615900599397719,1342.9572958005592,None,1343.4610614003614,None,1343.4610614003614,None,f,1.7924108002334833,1343.4610614003614,None,1.7924108002334833,,,105 Sing,001,2022_Nov_29_1005,ProdSingRedoBetween,2021.2.3,59.94039543098589,
,,,,100,0,100,0,,,,,,,,,,,,,,,,,,,,,,1348.065837400034,None,,,,,,,,,,,,,,,,,business,58,101,sing,old,blue,1345.8010208997875,None,1345.8010208997875,None,6,1.1326232999563217,1345.8010208997875,None,1.1326232999563217,1346.9705900000408,None,1347.4776042997837,None,1347.4776042997837,None,f,0.5600139005109668,1347.4776042997837,None,0.5600139005109668,,,105 Sing,001,2022_Nov_29_1005,ProdSingRedoBetween,2021.2.3,59.94039543098589,
,,,,101,0,101,0,,,,,,,,,,,,,,,,,,,,,,1350.1801102999598,None,,,,,,,,,,,,,,,,,portion,100,102,sing,new,null,1348.5825887005776,None,1348.5825887005776,None,6,0.7989817000925541,1348.5825887005776,None,0.7989817000925541,1349.4138171002269,None,1349.9180656997487,None,1349.9180656997487,None,r,0.23943560011684895,1349.9180656997487,None,0.23943560011684895,,,105 Sing,001,2022_Nov_29_1005,ProdSingRedoBetween,2021.2.3,59.94039543098589,
,,,,102,0,102,0,,,,,,,,,,,,,,,,,,,,,,1352.182150799781,None,,,,,,,,,,,,,,,,,sight,123,103,sing,new,null,1350.6881037000567,None,1350.6881037000567,None,6,0.6614153003320098,1350.6881037000567,None,0.6614153003320098,1351.3675840003416,None,1351.882155600004,None,1351.882155600004,None,f,0.27525279950350523,1351.882155600004,None,0.27525279950350523,,,105 Sing,001,2022_Nov_29_1005,ProdSingRedoBetween,2021.2.3,59.94039543098589,
,,,,103,0,103,0,,,,,,,,,,,,,,,,,,,,,,1354.4674409003928,None,,,,,,,,,,,,,,,,,story,0,104,sing,old,yellow,1352.6846452001482,None,1352.6846452001482,None,6,0.7928732996806502,1352.6846452001482,None,0.7928732996806502,1353.5021933000535,None,1354.0219887997955,None,1354.0219887997955,None,f,0.41571690049022436,1354.0219887997955,None,0.41571690049022436,,,105 Sing,001,2022_Nov_29_1005,ProdSingRedoBetween,2021.2.3,59.94039543098589,
,,,,104,0,104,0,,,,,,,,,,,,,,,,,,,,,,1359.9731922000647,None,,,,,,,,,,,,,,,,,bright,72,105,sing,old,red,1354.9746455000713,None,1354.9746455000713,None,6,3.7747849002480507,1354.9746455000713,None,3.7747849002480507,1358.777300500311,None,1359.289329400286,None,1359.289329400286,None,f,0.6681185001507401,1359.289329400286,None,0.6681185001507401,,,105 Sing,001,2022_Nov_29_1005,ProdSingRedoBetween,2021.2.3,59.94039543098589,
,,,,105,0,105,0,,,,,,,,,,,,,,,,,,,,,,1362.1754600005224,None,,,,,,,,,,,,,,,,,mankind,179,106,sing,new,null,1360.4735535997897,None,1360.4735535997897,None,6,0.8359775999560952,1360.4735535997897,None,0.8359775999560952,1361.325906299986,None,1361.8275265004486,None,1361.8275265004486,None,f,0.32198890019208193,1361.8275265004486,None,0.32198890019208193,,,105 Sing,001,2022_Nov_29_1005,ProdSingRedoBetween,2021.2.3,59.94039543098589,
,,,,106,0,106,0,,,,,,,,,,,,,,,,,,,,,,1364.7450334997848,None,,,,,,,,,,,,,,,,,hunger,25,107,sing,old,yellow,1362.6824329998344,None,1362.6824329998344,None,6,0.7789250994101167,1362.6824329998344,None,0.7789250994101167,1363.4777719005942,None,1363.9793825000525,None,1363.9793825000525,None,f,0.7461425000801682,1363.9793825000525,None,0.7461425000801682,,,105 Sing,001,2022_Nov_29_1005,ProdSingRedoBetween,2021.2.3,59.94039543098589,
,,,,107,0,107,0,,,,,,,,,,,,,,,,,,,,,,1366.646356800571,None,,,,,,,,,,,,,,,,,touch,14,108,sing,old,yellow,1365.247822499834,None,1365.247822499834,None,6,0.541661599650979,1365.247822499834,None,0.541661599650979,1365.8121253997087,None,1366.3143581999466,None,1366.3143581999466,None,f,0.3151275999844074,1366.3143581999466,None,0.3151275999844074,,,105 Sing,001,2022_Nov_29_1005,ProdSingRedoBetween,2021.2.3,59.94039543098589,
,,,,108,0,108,0,,,,,,,,,,,,,,,,,,,,,,1369.148922599852,None,,,,,,,,,,,,,,,,,distance,16,109,sing,old,yellow,1367.153380099684,None,1367.153380099684,None,6,1.1561587005853653,1367.153380099684,None,1.1561587005853653,1368.3415395999327,None,1368.8535684999079,None,1368.8535684999079,None,f,0.271976999938488,1368.8535684999079,None,0.271976999938488,,,105 Sing,001,2022_Nov_29_1005,ProdSingRedoBetween,2021.2.3,59.94039543098589,
,,,,109,0,109,0,,,,,,,,,,,,,,,,,,,,,,1372.2690727002919,None,,,,,,,,,,,,,,,,,couch,117,110,sing,new,null,1369.6514280997217,None,1369.6514280997217,None,6,1.6580595998093486,1369.6514280997217,None,1.6580595998093486,1371.3371510002762,None,1371.8570956997573,None,1371.8570956997573,None,f,0.38845890015363693,1371.8570956997573,None,0.38845890015363693,,,105 Sing,001,2022_Nov_29_1005,ProdSingRedoBetween,2021.2.3,59.94039543098589,
,,,,110,0,110,0,,,,,,,,,,,,,,,,,,,,,,1380.0295328004286,None,,,,,,,,,,,,,,,,,author,43,111,sing,old,blue,1372.7848412999883,None,1372.7848412999883,None,6,6.068505899980664,1372.7848412999883,None,6.068505899980664,1378.875479400158,None,1379.3797823004425,None,1379.3797823004425,None,r,0.6258188998326659,1379.3797823004425,None,0.6258188998326659,,,105 Sing,001,2022_Nov_29_1005,ProdSingRedoBetween,2021.2.3,59.94039543098589,
,,,,111,0,111,0,,,,,,,,,,,,,,,,,,,,,,1382.6124378005043,None,,,,,,,,,,,,,,,,,management,36,112,sing,old,blue,1380.5474265003577,None,1380.5474265003577,None,6,1.1380583001300693,1380.5474265003577,None,1.1380583001300693,1381.712671100162,None,1382.2154130004346,None,1382.2154130004346,None,f,0.36601549945771694,1382.2154130004346,None,0.36601549945771694,,,105 Sing,001,2022_Nov_29_1005,ProdSingRedoBetween,2021.2.3,59.94039543098589,
,,,,112,0,112,0,,,,,,,,,,,,,,,,,,,,,,1384.7478740997612,None,,,,,,,,,,,,,,,,,point,155,113,sing,new,null,1383.114799500443,None,1383.114799500443,None,6,0.8586681000888348,1383.114799500443,None,0.8586681000888348,1383.9984336001799,None,1384.497674900107,None,1384.497674900107,None,f,0.21991270035505295,1384.497674900107,None,0.21991270035505295,,,105 Sing,001,2022_Nov_29_1005,ProdSingRedoBetween,2021.2.3,59.94039543098589,
,,,,113,0,113,0,,,,,,,,,,,,,,,,,,,,,,1390.3878929996863,None,,,,,,,,,,,,,,,,,suggestion,15,114,sing,old,yellow,1385.256171300076,None,1385.256171300076,None,6,4.317368799820542,1385.256171300076,None,4.317368799820542,1389.6040617004037,None,1390.1112281000242,None,1390.1112281000242,None,f,0.25424819998443127,1390.1112281000242,None,0.25424819998443127,,,105 Sing,001,2022_Nov_29_1005,ProdSingRedoBetween,2021.2.3,59.94039543098589,
,,,,114,0,114,0,,,,,,,,,,,,,,,,,,,,,,1396.2457519005984,None,,,,,,,,,,,,,,,,,position,88,115,sing,old,red,1390.8909261003137,None,1390.8909261003137,None,6,1.3385529005900025,1390.8909261003137,None,1.3385529005900025,1392.270455500111,None,1392.7799733998254,None,1392.7799733998254,None,f,3.4336097007617354,1392.7799733998254,None,3.4336097007617354,,,105 Sing,001,2022_Nov_29_1005,ProdSingRedoBetween,2021.2.3,59.94039543098589,
,,,,115,0,115,0,,,,,,,,,,,,,,,,,,,,,,1400.3134078001603,None,,,,,,,,,,,,,,,,,novel,84,116,sing,old,red,1396.7601898005232,None,1396.7601898005232,None,6,0.9652658002451062,1396.7601898005232,None,0.9652658002451062,1397.7457563998178,None,1398.261576199904,None,1398.261576199904,None,f,2.031875300221145,1398.261576199904,None,2.031875300221145,,,105 Sing,001,2022_Nov_29_1005,ProdSingRedoBetween,2021.2.3,59.94039543098589,
,,,,116,0,116,0,,,,,,,,,,,,,,,,,,,,,,1402.4820701004937,None,,,,,,,,,,,,,,,,,raise,134,117,sing,new,null,1400.814662899822,None,1400.814662899822,None,6,0.958759400062263,1400.814662899822,None,0.958759400062263,1401.7994514005259,None,1402.3050038004294,None,1402.3050038004294,None,f,0.1486602993682027,1402.3050038004294,None,0.1486602993682027,,,105 Sing,001,2022_Nov_29_1005,ProdSingRedoBetween,2021.2.3,59.94039543098589,
,,,,117,0,117,0,,,,,,,,,,,,,,,,,,,,,,1404.5020121997222,None,,,,,,,,,,,,,,,,,childhood,32,118,sing,old,blue,1402.9873978001997,None,1402.9873978001997,None,6,0.7620916999876499,1402.9873978001997,None,0.7620916999876499,1403.7852135999128,None,1404.3026767000556,None,1404.3026767000556,None,f,0.16685520019382238,1404.3026767000556,None,0.16685520019382238,,,105 Sing,001,2022_Nov_29_1005,ProdSingRedoBetween,2021.2.3,59.94039543098589,
,,,,118,0,118,0,,,,,,,,,,,,,,,,,,,,,,1406.9935929998755,None,,,,,,,,,,,,,,,,,court,78,119,sing,old,red,1405.016842700541,None,1405.016842700541,None,6,0.9647121001034975,1405.016842700541,None,0.9647121001034975,1406.0099236005917,None,1406.5196973001584,None,1406.5196973001584,None,f,0.44599759951233864,1406.5196973001584,None,0.44599759951233864,,,105 Sing,001,2022_Nov_29_1005,ProdSingRedoBetween,2021.2.3,59.94039543098589,
,,,,119,0,119,0,,,,,,,,,,,,,,,,,,,,,,1412.7256308002397,None,,,,,,,,,,,,,,,,,concern,27,120,sing,old,yellow,1407.508616000414,None,1407.508616000414,None,6,4.320910299196839,1407.508616000414,None,4.320910299196839,1411.8624039003626,None,1412.3785651996732,None,1412.3785651996732,None,f,0.33083519991487265,1412.3785651996732,None,0.33083519991487265,,,105 Sing,001,2022_Nov_29_1005,ProdSingRedoBetween,2021.2.3,59.94039543098589,
,,,,120,0,120,0,,,,,,,,,,,,,,,,,,,,,,1414.777883199975,None,,,,,,,,,,,,,,,,,plane,130,121,sing,new,null,1413.231963899918,None,1413.231963899918,None,6,0.7815364999696612,1413.231963899918,None,0.7815364999696612,1414.051307800226,None,1414.5611322000623,None,1414.5611322000623,None,f,0.19633710011839867,1414.5611322000623,None,0.19633710011839867,,,105 Sing,001,2022_Nov_29_1005,ProdSingRedoBetween,2021.2.3,59.94039543098589,
,,,,121,0,121,0,,,,,,,,,,,,,,,,,,,,,,1416.813122600317,None,,,,,,,,,,,,,,,,,election,132,122,sing,new,null,1415.2883895002306,None,1415.2883895002306,None,6,0.6849458999931812,1415.2883895002306,None,0.6849458999931812,1415.9996618004516,None,1416.513197700493,None,1416.513197700493,None,f,0.2760971002280712,1416.513197700493,None,0.2760971002280712,,,105 Sing,001,2022_Nov_29_1005,ProdSingRedoBetween,2021.2.3,59.94039543098589,
,,,,122,0,122,0,,,,,,,,,,,,,,,,,,,,,,1419.215307599865,None,,,,,,,,,,,,,,,,,community,127,123,sing,new,null,1417.3159435996786,None,1417.3159435996786,None,6,0.8974020006135106,1417.3159435996786,None,0.8974020006135106,1418.2328414004296,None,1418.7483927998692,None,1418.7483927998692,None,f,0.4490804001688957,1418.7483927998692,None,0.4490804001688957,,,105 Sing,001,2022_Nov_29_1005,ProdSingRedoBetween,2021.2.3,59.94039543098589,
,,,,123,0,123,0,,,,,,,,,,,,,,,,,,,,,,1422.1372058000416,None,,,,,,,,,,,,,,,,,display,37,124,sing,old,blue,1419.7194154001772,None,1419.7194154001772,None,6,1.069978299550712,1419.7194154001772,None,1.069978299550712,1420.8201796002686,None,1421.3344759000465,None,1421.3344759000465,None,f,0.7829329008236527,1421.3344759000465,None,0.7829329008236527,,,105 Sing,001,2022_Nov_29_1005,ProdSingRedoBetween,2021.2.3,59.94039543098589,
,,,,124,0,124,0,,,,,,,,,,,,,,,,,,,,,,1424.3730212002993,None,,,,,,,,,,,,,,,,,question,11,125,sing,old,yellow,1422.665833500214,None,1422.665833500214,None,6,0.8354996992275119,1422.665833500214,None,0.8354996992275119,1423.5261575002223,None,1424.044292599894,None,1424.044292599894,None,f,0.29742810036987066,1424.044292599894,None,0.29742810036987066,,,105 Sing,001,2022_Nov_29_1005,ProdSingRedoBetween,2021.2.3,59.94039543098589,
,,,,125,0,125,0,,,,,,,,,,,,,,,,,,,,,,1426.689688500017,None,,,,,,,,,,,,,,,,,sleep,151,126,sing,new,null,1424.896533800289,None,1424.896533800289,None,6,0.6691384995356202,1424.896533800289,None,0.6691384995356202,1425.5994680998847,None,1426.1102312998846,None,1426.1102312998846,None,f,0.559362799860537,1426.1102312998846,None,0.559362799860537,,,105 Sing,001,2022_Nov_29_1005,ProdSingRedoBetween,2021.2.3,59.94039543098589,
,,,,126,0,126,0,,,,,,,,,,,,,,,,,,,,,,1428.758526599966,None,,,,,,,,,,,,,,,,,nature,118,127,sing,new,null,1427.196078600362,None,1427.196078600362,None,6,0.6412949999794364,1427.196078600362,None,0.6412949999794364,1427.8593333996832,None,1428.3767918003723,None,1428.3767918003723,None,f,0.3645620997995138,1428.3767918003723,None,0.3645620997995138,,,105 Sing,001,2022_Nov_29_1005,ProdSingRedoBetween,2021.2.3,59.94039543098589,
,,,,127,0,127,0,,,,,,,,,,,,,,,,,,,,,,1431.944975600578,None,,,,,,,,,,,,,,,,,government,52,128,sing,old,blue,1429.2682017004117,None,1429.2682017004117,None,6,1.6652060002088547,1429.2682017004117,None,1.6652060002088547,1430.9655950004235,None,1431.4808424003422,None,1431.4808424003422,None,f,0.44462740048766136,1431.4808424003422,None,0.44462740048766136,,,105 Sing,001,2022_Nov_29_1005,ProdSingRedoBetween,2021.2.3,59.94039543098589,
,,,,128,0,128,0,,,,,,,,,,,,,,,,,,,,,,1433.9970263997093,None,,,,,,,,,,,,,,,,,front,24,129,sing,old,yellow,1432.4489492997527,None,1432.4489492997527,None,6,0.7164380000904202,1432.4489492997527,None,0.7164380000904202,1433.2030853005126,None,1433.71591420006,None,1433.71591420006,None,f,0.26555849984288216,1433.71591420006,None,0.26555849984288216,,,105 Sing,001,2022_Nov_29_1005,ProdSingRedoBetween,2021.2.3,59.94039543098589,
,,,,129,0,129,0,,,,,,,,,,,,,,,,,,,,,,1436.3327118000016,None,,,,,,,,,,,,,,,,,scale,56,130,sing,old,blue,1434.509166199714,None,1434.509166199714,None,6,0.9602597998455167,1434.509166199714,None,0.9602597998455167,1435.500673700124,None,1436.0160889001563,None,1436.0160889001563,None,f,0.30140160024166107,1436.0160889001563,None,0.30140160024166107,,,105 Sing,001,2022_Nov_29_1005,ProdSingRedoBetween,2021.2.3,59.94039543098589,
,,,,130,0,130,0,,,,,,,,,,,,,,,,,,,,,,1438.4681865004823,None,,,,,,,,,,,,,,,,,motion,163,131,sing,new,null,1436.8365034004673,None,1436.8365034004673,None,6,0.7529258001595736,1436.8365034004673,None,0.7529258001595736,1437.6259606005624,None,1438.1370037999004,None,1438.1370037999004,None,f,0.30838940013200045,1438.1370037999004,None,0.30838940013200045,,,105 Sing,001,2022_Nov_29_1005,ProdSingRedoBetween,2021.2.3,59.94039543098589,
,,,,131,0,131,0,,,,,,,,,,,,,,,,,,,,,,1440.7871270002797,None,,,,,,,,,,,,,,,,,platform,170,132,sing,new,null,1438.9693424999714,None,1438.9693424999714,None,6,0.9479684997349977,1438.9693424999714,None,0.9479684997349977,1439.9388803001493,None,1440.4535905001685,None,1440.4535905001685,None,f,0.30383129976689816,1440.4535905001685,None,0.30383129976689816,,,105 Sing,001,2022_Nov_29_1005,ProdSingRedoBetween,2021.2.3,59.94039543098589,
,,,,132,0,132,0,,,,,,,,,,,,,,,,,,,,,,1443.5276512997225,None,,,,,,,,,,,,,,,,,atmosphere,143,133,sing,new,null,1441.2934231003746,None,1441.2934231003746,None,6,1.5599327003583312,1441.2934231003746,None,1.5599327003583312,1442.8741949005052,None,1443.3921145005152,None,1443.3921145005152,None,f,0.10943310055881739,1443.3921145005152,None,0.10943310055881739,,,105 Sing,001,2022_Nov_29_1005,ProdSingRedoBetween,2021.2.3,59.94039543098589,
,,,,133,0,133,0,,,,,,,,,,,,,,,,,,,,,,1445.7484229002148,None,,,,,,,,,,,,,,,,,search,104,134,sing,new,null,1444.0445825001225,None,1444.0445825001225,None,6,0.7926861001178622,1444.0445825001225,None,0.7926861001178622,1444.862542600371,None,1445.3750450005755,None,1445.3750450005755,None,f,0.3423109007999301,1445.3750450005755,None,0.3423109007999301,,,105 Sing,001,2022_Nov_29_1005,ProdSingRedoBetween,2021.2.3,59.94039543098589,
,,,,134,0,134,0,,,,,,,,,,,,,,,,,,,,,,1447.6771162003279,None,,,,,,,,,,,,,,,,,household,93,135,sing,new,null,1446.2594095999375,None,1446.2594095999375,None,6,0.7139793997630477,1446.2594095999375,None,0.7139793997630477,1446.9953846000135,None,1447.5170299001038,None,1447.5170299001038,None,f,0.14437139965593815,1447.5170299001038,None,0.14437139965593815,,,105 Sing,001,2022_Nov_29_1005,ProdSingRedoBetween,2021.2.3,59.94039543098589,
,,,,135,0,135,0,,,,,,,,,,,,,,,,,,,,,,1449.7460484001786,None,,,,,,,,,,,,,,,,,defeat,45,136,sing,old,blue,1448.1819115998223,None,1448.1819115998223,None,6,0.7353314002975821,1448.1819115998223,None,0.7353314002975821,1448.9484751997516,None,1449.4625984001905,None,1449.4625984001905,None,f,0.26275799982249737,1449.4625984001905,None,0.26275799982249737,,,105 Sing,001,2022_Nov_29_1005,ProdSingRedoBetween,2021.2.3,59.94039543098589,
,,,,136,0,136,0,,,,,,,,,,,,,,,,,,,,,,1453.933599400334,None,,,,,,,,,,,,,,,,,count,18,137,sing,old,yellow,1450.25547560025,None,1450.25547560025,None,6,1.925840899348259,1450.25547560025,None,1.925840899348259,1452.1987017998472,None,1452.7006235998124,None,1452.7006235998124,None,f,1.2087139999493957,1452.7006235998124,None,1.2087139999493957,,,105 Sing,001,2022_Nov_29_1005,ProdSingRedoBetween,2021.2.3,59.94039543098589,
,,,,137,0,137,0,,,,,,,,,,,,,,,,,,,,,,1455.9523031003773,None,,,,,,,,,,,,,,,,,report,49,138,sing,old,blue,1454.4404704002663,None,1454.4404704002663,None,6,0.6771192997694016,1454.4404704002663,None,0.6771192997694016,1455.145441699773,None,1455.6522236997262,None,1455.6522236997262,None,f,0.27306879963725805,1455.6522236997262,None,0.27306879963725805,,,105 Sing,001,2022_Nov_29_1005,ProdSingRedoBetween,2021.2.3,59.94039543098589,
,,,,138,0,138,0,,,,,,,,,,,,,,,,,,,,,,1459.8581266999245,None,,,,,,,,,,,,,,,,,cover,94,139,sing,new,null,1456.4615051997826,None,1456.4615051997826,None,6,2.2319069001823664,1456.4615051997826,None,2.2319069001823664,1458.7265293998644,None,1459.2400139998645,None,1459.2400139998645,None,f,0.5893933000043035,1459.2400139998645,None,0.5893933000043035,,,105 Sing,001,2022_Nov_29_1005,ProdSingRedoBetween,2021.2.3,59.94039543098589,
,,,,139,0,139,0,,,,,,,,,,,,,,,,,,,,,,1464.2605253001675,None,,,,,,,,,,,,,,,,,measure,148,140,sing,new,null,1460.3815719000995,None,1460.3815719000995,None,6,2.4797604996711016,1460.3815719000995,None,2.4797604996711016,1462.8959479006007,None,1463.4158663004637,None,1463.4158663004637,None,r,0.8214526996016502,1463.4158663004637,None,0.8214526996016502,,,105 Sing,001,2022_Nov_29_1005,ProdSingRedoBetween,2021.2.3,59.94039543098589,
,,,,140,0,140,0,,,,,,,,,,,,,,,,,,,,,,1466.60157490056,None,,,,,,,,,,,,,,,,,symbol,150,141,sing,new,null,1464.7677146000788,None,1464.7677146000788,None,6,0.8615276999771595,1464.7677146000788,None,0.8615276999771595,1465.6466194000095,None,1466.145957400091,None,1466.145957400091,None,f,0.41930800024420023,1466.145957400091,None,0.41930800024420023,,,105 Sing,001,2022_Nov_29_1005,ProdSingRedoBetween,2021.2.3,59.94039543098589,
,,,,141,0,141,0,,,,,,,,,,,,,,,,,,,,,,1468.5979704000056,None,,,,,,,,,,,,,,,,,place,142,142,sing,new,null,1467.1173355998471,None,1467.1173355998471,None,6,0.6800152994692326,1467.1173355998471,None,0.6800152994692326,1467.8192157000303,None,1468.3365665003657,None,1468.3365665003657,None,f,0.2367515005171299,1468.3365665003657,None,0.2367515005171299,,,105 Sing,001,2022_Nov_29_1005,ProdSingRedoBetween,2021.2.3,59.94039543098589,
,,,,142,0,142,0,,,,,,,,,,,,,,,,,,,,,,1470.6001890003681,None,,,,,,,,,,,,,,,,,cousin,3,143,sing,old,yellow,1469.1052787005901,None,1469.1052787005901,None,6,0.9244103999808431,1469.1052787005901,None,0.9244103999808431,1470.0616851001978,None,1470.570125900209,None,1470.570125900209,None,r,0.011278199963271618,1470.570125900209,None,0.011278199963271618,,,105 Sing,001,2022_Nov_29_1005,ProdSingRedoBetween,2021.2.3,59.94039543098589,
,,,,143,0,143,0,,,,,,,,,,,,,,,,,,,,,,1472.5854901000857,None,,,,,,,,,,,,,,,,,strain,81,144,sing,old,red,1471.1139467004687,None,1471.1139467004687,None,6,0.7554159006103873,1471.1139467004687,None,0.7554159006103873,1471.8886436000466,None,1472.4020755002275,None,1472.4020755002275,None,r,0.15527020022273064,1472.4020755002275,None,0.15527020022273064,,,105 Sing,001,2022_Nov_29_1005,ProdSingRedoBetween,2021.2.3,59.94039543098589,
,,,,144,0,144,0,,,,,,,,,,,,,,,,,,,,,,1475.788665600121,None,,,,,,,,,,,,,,,,,weight,8,145,sing,old,yellow,1473.101206900552,None,1473.101206900552,None,6,0.6320976996794343,1473.101206900552,None,0.6320976996794343,1473.7550018997863,None,1474.2609155997634,None,1474.2609155997634,None,f,1.4965172996744514,1474.2609155997634,None,1.4965172996744514,,,105 Sing,001,2022_Nov_29_1005,ProdSingRedoBetween,2021.2.3,59.94039543098589,
,,,,145,0,145,0,,,,,,,,,,,,,,,,,,,,,,1483.4964212998748,None,,,,,,,,,,,,,,,,,force,125,146,sing,new,null,1476.2913735006005,None,1476.2913735006005,None,6,1.0979318004101515,1476.2913735006005,None,1.0979318004101515,1477.412258299999,None,1477.9285498997197,None,1477.9285498997197,None,f,5.548844199627638,1477.9285498997197,None,5.548844199627638,,,105 Sing,001,2022_Nov_29_1005,ProdSingRedoBetween,2021.2.3,59.94039543098589,
,,,,146,0,146,0,,,,,,,,,,,,,,,,,,,,,,1486.9709165999666,None,,,,,,,,,,,,,,,,,entrance,44,147,sing,old,blue,1484.005028700456,None,1484.005028700456,None,6,2.0163585003465414,1484.005028700456,None,2.0163585003465414,1486.0543911000714,None,1486.5662652002648,None,1486.5662652002648,None,r,0.38311289995908737,1486.5662652002648,None,0.38311289995908737,,,105 Sing,001,2022_Nov_29_1005,ProdSingRedoBetween,2021.2.3,59.94039543098589,
,,,,147,0,147,0,,,,,,,,,,,,,,,,,,,,,,1488.6181837003678,None,,,,,,,,,,,,,,,,,revolution,137,148,sing,new,null,1487.484977000393,None,1487.484977000393,None,6,0.416202399879694,1487.484977000393,None,0.416202399879694,1487.918976600282,None,1488.4226922998205,None,1488.4226922998205,None,f,0.16664930060505867,1488.4226922998205,None,0.16664930060505867,,,105 Sing,001,2022_Nov_29_1005,ProdSingRedoBetween,2021.2.3,59.94039543098589,
,,,,148,0,148,0,,,,,,,,,,,,,,,,,,,,,,1490.5048106005415,None,,,,,,,,,,,,,,,,,guard,145,149,sing,new,null,1489.1186158005148,None,1489.1186158005148,None,6,0.7189223002642393,1489.1186158005148,None,0.7189223002642393,1489.8602400999516,None,1490.3700913004577,None,1490.3700913004577,None,f,0.11532319989055395,1490.3700913004577,None,0.11532319989055395,,,105 Sing,001,2022_Nov_29_1005,ProdSingRedoBetween,2021.2.3,59.94039543098589,
,,,,149,0,149,0,,,,,,,,,,,,,,,,,,,,,,1492.0382366003469,None,,,,,,,,,,,,,,,,,poetry,171,150,sing,new,null,1491.0123957004398,None,1491.0123957004398,None,6,0.39289139956235886,1491.0123957004398,None,0.39289139956235886,1491.4288673996925,None,1491.9431480998173,None,1491.9431480998173,None,f,0.070304399356246,1491.9431480998173,None,0.070304399356246,,,105 Sing,001,2022_Nov_29_1005,ProdSingRedoBetween,2021.2.3,59.94039543098589,
,,,,150,0,150,0,,,,,,,,,,,,,,,,,,,,,,1493.9065089998767,None,,,,,,,,,,,,,,,,,individual,86,151,sing,old,red,1492.5484047997743,None,1492.5484047997743,None,6,0.6649606004357338,1492.5484047997743,None,0.6649606004357338,1493.2424272997305,None,1493.7634677002206,None,1493.7634677002206,None,f,0.11387369967997074,1493.7634677002206,None,0.11387369967997074,,,105 Sing,001,2022_Nov_29_1005,ProdSingRedoBetween,2021.2.3,59.94039543098589,
,,,,151,0,151,0,,,,,,,,,,,,,,,,,,,,,,1502.1668611997738,None,,,,,,,,,,,,,,,,,space,63,152,sing,old,red,1494.4100224003196,None,1494.4100224003196,None,6,4.883267599157989,1494.4100224003196,None,4.883267599157989,1499.3132720002905,None,1499.8174841003492,None,1499.8174841003492,None,f,2.331910999491811,1499.8174841003492,None,2.331910999491811,,,105 Sing,001,2022_Nov_29_1005,ProdSingRedoBetween,2021.2.3,59.94039543098589,
,,,,152,0,152,0,,,,,,,,,,,,,,,,,,,,,,1504.7365309000015,None,,,,,,,,,,,,,,,,,income,169,153,sing,new,null,1502.6907986998558,None,1502.6907986998558,None,6,1.0023280996829271,1502.6907986998558,None,1.0023280996829271,1503.7197965998203,None,1504.2338019004092,None,1504.2338019004092,None,f,0.4834059001877904,1504.2338019004092,None,0.4834059001877904,,,105 Sing,001,2022_Nov_29_1005,ProdSingRedoBetween,2021.2.3,59.94039543098589,
,,,,153,0,153,0,,,,,,,,,,,,,,,,,,,,,,1508.3220846997574,None,,,,,,,,,,,,,,,,,division,1,154,sing,old,yellow,1505.258092599921,None,1505.258092599921,None,6,1.731160500086844,1505.258092599921,None,1.731160500086844,1507.0245174998417,None,1507.5370489005,None,1507.5370489005,None,f,0.7561212005093694,1507.5370489005,None,0.7561212005093694,,,105 Sing,001,2022_Nov_29_1005,ProdSingRedoBetween,2021.2.3,59.94039543098589,
,,,,154,0,154,0,,,,,,,,,,,,,,,,,,,,,,1510.9404565999284,None,,,,,,,,,,,,,,,,,power,129,155,sing,new,null,1508.8227681005374,None,1508.8227681005374,None,6,1.1503670001402497,1508.8227681005374,None,1.1503670001402497,1510.002120600082,None,1510.50647640042,None,1510.50647640042,None,r,0.41875179950147867,1510.50647640042,None,0.41875179950147867,,,105 Sing,001,2022_Nov_29_1005,ProdSingRedoBetween,2021.2.3,59.94039543098589,
,,,,155,0,155,0,,,,,,,,,,,,,,,,,,,,,,1512.9423507004976,None,,,,,,,,,,,,,,,,,skill,33,156,sing,old,blue,1511.4597955001518,None,1511.4597955001518,None,6,0.6494028996676207,1511.4597955001518,None,0.6494028996676207,1512.1284501003101,None,1512.642317100428,None,1512.642317100428,None,f,0.27510250080376863,1512.642317100428,None,0.27510250080376863,,,105 Sing,001,2022_Nov_29_1005,ProdSingRedoBetween,2021.2.3,59.94039543098589,
,,,,156,0,156,0,,,,,,,,,,,,,,,,,,,,,,1515.1279106996953,None,,,,,,,,,,,,,,,,,group,55,157,sing,old,blue,1513.4463322004303,None,1513.4463322004303,None,6,0.6468984000384808,1513.4463322004303,None,0.6468984000384808,1514.1196218999103,None,1514.6272662002593,None,1514.6272662002593,None,f,0.47392760030925274,1514.6272662002593,None,0.47392760030925274,,,105 Sing,001,2022_Nov_29_1005,ProdSingRedoBetween,2021.2.3,59.94039543098589,
,,,,157,0,157,0,,,,,,,,,,,,,,,,,,,,,,1517.296821099706,None,,,,,,,,,,,,,,,,,throw,164,158,sing,new,null,1515.6391639001667,None,1515.6391639001667,None,6,0.8140428997576237,1515.6391639001667,None,0.8140428997576237,1516.4808349004015,None,1516.983723600395,None,1516.983723600395,None,f,0.28549049980938435,1516.983723600395,None,0.28549049980938435,,,105 Sing,001,2022_Nov_29_1005,ProdSingRedoBetween,2021.2.3,59.94039543098589,
,,,,158,0,158,0,,,,,,,,,,,,,,,,,,,,,,1519.199341500178,None,,,,,,,,,,,,,,,,,message,4,159,sing,old,yellow,1517.8021144997329,None,1517.8021144997329,None,6,0.6592274997383356,1517.8021144997329,None,0.6592274997383356,1518.4862478002906,None,1518.9990897998214,None,1518.9990897998214,None,f,0.18217669986188412,1518.9990897998214,None,0.18217669986188412,,,105 Sing,001,2022_Nov_29_1005,ProdSingRedoBetween,2021.2.3,59.94039543098589,
,,,,159,0,159,0,,,,,,,,,,,,,,,,,,,,,,1521.417246799916,None,,,,,,,,,,,,,,,,,trail,2,160,sing,old,yellow,1519.7047779001296,None,1519.7047779001296,None,6,0.9325270997360349,1519.7047779001296,None,0.9325270997360349,1520.6694323997945,None,1521.183962199837,None,1521.183962199837,None,r,0.20529749989509583,1521.183962199837,None,0.20529749989509583,,,105 Sing,001,2022_Nov_29_1005,ProdSingRedoBetween,2021.2.3,59.94039543098589,
,,,,160,0,160,0,,,,,,,,,,,,,,,,,,,,,,1523.3212777003646,None,,,,,,,,,,,,,,,,,little,112,161,sing,new,null,1521.924094600603,None,1521.924094600603,None,6,0.6251942999660969,1521.924094600603,None,0.6251942999660969,1522.5711882002652,None,1523.0906469002366,None,1523.0906469002366,None,f,0.20276609994471073,1523.0906469002366,None,0.20276609994471073,,,105 Sing,001,2022_Nov_29_1005,ProdSingRedoBetween,2021.2.3,59.94039543098589,
,,,,161,0,161,0,,,,,,,,,,,,,,,,,,,,,,1525.1713233003393,None,,,,,,,,,,,,,,,,,theme,39,162,sing,old,blue,1523.8460419997573,None,1523.8460419997573,None,6,0.4071690998971462,1523.8460419997573,None,0.4071690998971462,1524.2726114001125,None,1524.7901014005765,None,1524.7901014005765,None,f,0.3592221001163125,1524.7901014005765,None,0.3592221001163125,,,105 Sing,001,2022_Nov_29_1005,ProdSingRedoBetween,2021.2.3,59.94039543098589,
,,,,162,0,162,0,,,,,,,,,,,,,,,,,,,,,,1526.9564434001222,None,,,,,,,,,,,,,,,,,country,51,163,sing,old,blue,1525.6754763005301,None,1525.6754763005301,None,6,0.6498206993564963,1525.6754763005301,None,0.6498206993564963,1526.3587063001469,None,1526.8730640001595,None,1526.8730640001595,None,r,0.06021189969033003,1526.8730640001595,None,0.06021189969033003,,,105 Sing,001,2022_Nov_29_1005,ProdSingRedoBetween,2021.2.3,59.94039543098589,
,,,,163,0,163,0,,,,,,,,,,,,,,,,,,,,,,1528.9250993998721,None,,,,,,,,,,,,,,,,,comedy,156,164,sing,new,null,1527.461613100022,None,1527.461613100022,None,6,0.6316688004881144,1527.461613100022,None,0.6316688004881144,1528.1339322002605,None,1528.6492065005004,None,1528.6492065005004,None,f,0.260016200132668,1528.6492065005004,None,0.260016200132668,,,105 Sing,001,2022_Nov_29_1005,ProdSingRedoBetween,2021.2.3,59.94039543098589,
,,,,164,0,164,0,,,,,,,,,,,,,,,,,,,,,,1530.7601575003937,None,,,,,,,,,,,,,,,,,finish,146,165,sing,new,null,1529.4365851003677,None,1529.4365851003677,None,6,0.4887915998697281,1529.4365851003677,None,0.4887915998697281,1529.9549817005172,None,1530.4610627004877,None,1530.4610627004877,None,f,0.272057899273932,1530.4610627004877,None,0.272057899273932,,,105 Sing,001,2022_Nov_29_1005,ProdSingRedoBetween,2021.2.3,59.94039543098589,
,,,,165,0,165,0,,,,,,,,,,,,,,,,,,,,,,1532.6453784005716,None,,,,,,,,,,,,,,,,,graduate,128,166,sing,new,null,1531.2686622003093,None,1531.2686622003093,None,6,0.6965616997331381,1531.2686622003093,None,0.6965616997331381,1531.9974616002291,None,1532.5121215004474,None,1532.5121215004474,None,f,0.10911209974437952,1532.5121215004474,None,0.10911209974437952,,,105 Sing,001,2022_Nov_29_1005,ProdSingRedoBetween,2021.2.3,59.94039543098589,
,,,,166,0,166,0,,,,,,,,,,,,,,,,,,,,,,1534.2479114998132,None,,,,,,,,,,,,,,,,,health,154,167,sing,new,null,1533.1471546003595,None,1533.1471546003595,None,6,0.41007780004292727,1533.1471546003595,None,0.41007780004292727,1533.5826948005706,None,1534.1048811003566,None,1534.1048811003566,None,f,0.11643539927899837,1534.1048811003566,None,0.11643539927899837,,,105 Sing,001,2022_Nov_29_1005,ProdSingRedoBetween,2021.2.3,59.94039543098589,
,,,,167,0,167,0,,,,,,,,,,,,,,,,,,,,,,1535.9163271002471,None,,,,,,,,,,,,,,,,,broke,103,168,sing,new,null,1534.7525823004544,None,1534.7525823004544,None,6,0.34078949969261885,1534.7525823004544,None,0.34078949969261885,1535.1148404004052,None,1535.615278299898,None,1535.615278299898,None,f,0.2698013000190258,1535.615278299898,None,0.2698013000190258,,,105 Sing,001,2022_Nov_29_1005,ProdSingRedoBetween,2021.2.3,59.94039543098589,
,,,,168,0,168,0,,,,,,,,,,,,,,,,,,,,,,1537.6671178005636,None,,,,,,,,,,,,,,,,,drama,12,169,sing,old,yellow,1536.4160380996764,None,1536.4160380996764,None,6,0.4772875998169184,1536.4160380996764,None,0.4772875998169184,1536.9266661005095,None,1537.43372059986,None,1537.43372059986,None,f,0.20352419931441545,1537.43372059986,None,0.20352419931441545,,,105 Sing,001,2022_Nov_29_1005,ProdSingRedoBetween,2021.2.3,59.94039543098589,
,,,,169,0,169,0,,,,,,,,,,,,,,,,,,,,,,1539.8562219003215,None,,,,,,,,,,,,,,,,,answer,10,170,sing,old,yellow,1538.175138500519,None,1538.175138500519,None,6,0.597974999807775,1538.175138500519,None,0.597974999807775,1538.802172800526,None,1539.3022688003257,None,1539.3022688003257,None,f,0.5350516000762582,1539.3022688003257,None,0.5350516000762582,,,105 Sing,001,2022_Nov_29_1005,ProdSingRedoBetween,2021.2.3,59.94039543098589,
,,,,170,0,170,0,,,,,,,,,,,,,,,,,,,,,,1541.7211110005155,None,,,,,,,,,,,,,,,,,growth,40,171,sing,old,blue,1540.3839720999822,None,1540.3839720999822,None,6,0.5573470992967486,1540.3839720999822,None,0.5573470992967486,1540.9794367998838,None,1541.4909218996763,None,1541.4909218996763,None,f,0.21032229997217655,1541.4909218996763,None,0.21032229997217655,,,105 Sing,001,2022_Nov_29_1005,ProdSingRedoBetween,2021.2.3,59.94039543098589,
,,,,171,0,171,0,,,,,,,,,,,,,,,,,,,,,,1544.0067591005936,None,,,,,,,,,,,,,,,,,straight,28,172,sing,old,yellow,1542.2249221997336,None,1542.2249221997336,None,6,0.9403168996796012,1542.2249221997336,None,0.9403168996796012,1543.1907842000946,None,1543.6958536002785,None,1543.6958536002785,None,r,0.2853565001860261,1543.6958536002785,None,0.2853565001860261,,,105 Sing,001,2022_Nov_29_1005,ProdSingRedoBetween,2021.2.3,59.94039543098589,
,,,,172,0,172,0,,,,,,,,,,,,,,,,,,,,,,1546.4091145005077,None,,,,,,,,,,,,,,,,,property,172,173,sing,new,null,1544.5194434998557,None,1544.5194434998557,None,6,1.0699960002675653,1544.5194434998557,None,1.0699960002675653,1545.608293400146,None,1546.109001800418,None,1546.109001800418,None,f,0.2802189998328686,1546.109001800418,None,0.2802189998328686,,,105 Sing,001,2022_Nov_29_1005,ProdSingRedoBetween,2021.2.3,59.94039543098589,
,,,,173,0,173,0,,,,,,,,,,,,,,,,,,,,,,1549.211869300343,None,,,,,,,,,,,,,,,,,shape,166,174,sing,new,null,1546.9220558004454,None,1546.9220558004454,None,6,0.4671644000336528,1546.9220558004454,None,0.4671644000336528,1547.4147795001045,None,1547.9278904004022,None,1547.9278904004022,None,f,1.2532623000442982,1547.9278904004022,None,1.2532623000442982,,,105 Sing,001,2022_Nov_29_1005,ProdSingRedoBetween,2021.2.3,59.94039543098589,
,,,,174,0,174,0,,,,,,,,,,,,,,,,,,,,,,1551.1138110999018,None,,,,,,,,,,,,,,,,,territory,19,175,sing,old,yellow,1549.7334302002564,None,1549.7334302002564,None,6,0.7116924999281764,1549.7334302002564,None,0.7116924999281764,1550.46463830024,None,1550.9689591005445,None,1550.9689591005445,None,r,0.11622359976172447,1550.9689591005445,None,0.11622359976172447,,,105 Sing,001,2022_Nov_29_1005,ProdSingRedoBetween,2021.2.3,59.94039543098589,
,,,,175,0,175,0,,,,,,,,,,,,,,,,,,,,,,1553.2991805002093,None,,,,,,,,,,,,,,,,,prime,54,176,sing,old,blue,1551.6279287999496,None,1551.6279287999496,None,6,0.8653060998767614,1551.6279287999496,None,0.8653060998767614,1552.5239698002115,None,1553.032558100298,None,1553.032558100298,None,f,0.23657849989831448,1553.032558100298,None,0.23657849989831448,,,105 Sing,001,2022_Nov_29_1005,ProdSingRedoBetween,2021.2.3,59.94039543098589,
