StudyLoop.thisRepN,StudyLoop.thisTrialN,StudyLoop.thisN,StudyLoop.thisIndex,TestLoop.thisRepN,TestLoop.thisTrialN,TestLoop.thisN,TestLoop.thisIndex,textCondition.started,textCondition.stopped,keyCondition.keys,keyCondition.rt,keyCondition.started,keyCondition.stopped,Condition,textWelcome.started,textWelcome.stopped,keyWelcome.keys,keyWelcome.rt,keyWelcome.started,keyWelcome.stopped,textAloud.started,textAloud.stopped,textSilent.started,textSilent.stopped,textSing.started,textSing.stopped,conditional_text.started,conditional_text.stopped,textBlank500.started,textBlank500.stopped,study_word,study_num,study_order,study_type,word_color,textStudy.started,textStudy.stopped,keyStudy.keys,keyStudy.started,keyStudy.stopped,textTestInstructions.started,textTestInstructions.stopped,key_resp_3.keys,key_resp_3.rt,key_resp_3.started,key_resp_3.stopped,test_word,test_num,test_order,test_condition,old_new_test,test_word_original_color,textConf.started,textConf.stopped,textConfScale.started,textConfScale.stopped,keyConf.keys,keyConf.rt,keyConf.started,keyConf.stopped,confidence response time,textTestBlank.started,textTestBlank.stopped,textRKN.started,textRKN.stopped,textRKNScale.started,textRKNScale.stopped,keyRKN.keys,keyRKN.rt,keyRKN.started,keyRKN.stopped,rkn response time,textEnd.started,textEnd.stopped,participant,session,date,expName,psychopyVersion,frameRate,
,,,,,,,,39.51781850028783,None,a,2.52365979924798,39.51781850028783,None,,,,,,,,,,,,,,,,,,,,,,,,,,,,,,,,,,,,,,,,,,,,,,,,,,,,,,,,,,,,,,106 Silent,001,2022_Nov_29_1035,ProdSingRedoBetween,2021.2.3,59.900792375109695,
,,,,,,,,,,,,,,SilentTest,42.0943851005286,None,space,1656.1041570995003,42.0943851005286,None,,,,,,,,,,,,,,,,,,,,,,,,,,,,,,,,,,,,,,,,,,,,,,,,,,,,,,,106 Silent,001,2022_Nov_29_1035,ProdSingRedoBetween,2021.2.3,59.900792375109695,
0,0,0,0,,,,,,,,,,,,,,,,,,42.0943851005286,None,42.0943851005286,None,42.0943851005286,None,42.0943851005286,None,1700.7350952001289,None,colonel,9,1,silent,yellow,1698.7220609001815,None,None,1698.7220609001815,None,,,,,,,,,,,,,,,,,,,,,,,,,,,,,,,,,,,106 Silent,001,2022_Nov_29_1035,ProdSingRedoBetween,2021.2.3,59.900792375109695,
1,0,1,0,,,,,,,,,,,,,,,,,,,,,,,,,,1703.2380746006966,None,opening,67,2,silent,red,1701.236049500294,None,None,1701.236049500294,None,,,,,,,,,,,,,,,,,,,,,,,,,,,,,,,,,,,106 Silent,001,2022_Nov_29_1035,ProdSingRedoBetween,2021.2.3,59.900792375109695,
2,0,2,0,,,,,,,,,,,,,,,,,,,,,,,,,,1705.75713849999,None,music,46,3,silent,blue,1703.7418487006798,None,None,1703.7418487006798,None,,,,,,,,,,,,,,,,,,,,,,,,,,,,,,,,,,,106 Silent,001,2022_Nov_29_1035,ProdSingRedoBetween,2021.2.3,59.900792375109695,
3,0,3,0,,,,,,,,,,,,,,,,,,,,,,,,,,1708.259736300446,None,account,14,4,silent,yellow,1706.2604793999344,None,None,1706.2604793999344,None,,,,,,,,,,,,,,,,,,,,,,,,,,,,,,,,,,,106 Silent,001,2022_Nov_29_1035,ProdSingRedoBetween,2021.2.3,59.900792375109695,
4,0,4,0,,,,,,,,,,,,,,,,,,,,,,,,,,1710.762260700576,None,reading,24,5,silent,yellow,1708.7627090001479,None,None,1708.7627090001479,None,,,,,,,,,,,,,,,,,,,,,,,,,,,,,,,,,,,106 Silent,001,2022_Nov_29_1035,ProdSingRedoBetween,2021.2.3,59.900792375109695,
5,0,5,0,,,,,,,,,,,,,,,,,,,,,,,,,,1713.2814447004348,None,point,64,6,silent,red,1711.2668440006673,None,None,1711.2668440006673,None,,,,,,,,,,,,,,,,,,,,,,,,,,,,,,,,,,,106 Silent,001,2022_Nov_29_1035,ProdSingRedoBetween,2021.2.3,59.900792375109695,
6,0,6,0,,,,,,,,,,,,,,,,,,,,,,,,,,1715.7840237999335,None,entrance,15,7,silent,yellow,1713.782883300446,None,None,1713.782883300446,None,,,,,,,,,,,,,,,,,,,,,,,,,,,,,,,,,,,106 Silent,001,2022_Nov_29_1035,ProdSingRedoBetween,2021.2.3,59.900792375109695,
7,0,7,0,,,,,,,,,,,,,,,,,,,,,,,,,,1718.303080700338,None,surprise,40,8,silent,blue,1716.2963535003364,None,None,1716.2963535003364,None,,,,,,,,,,,,,,,,,,,,,,,,,,,,,,,,,,,106 Silent,001,2022_Nov_29_1035,ProdSingRedoBetween,2021.2.3,59.900792375109695,
8,0,8,0,,,,,,,,,,,,,,,,,,,,,,,,,,1720.8219501003623,None,resistance,85,9,silent,red,1718.8064630003646,None,None,1718.8064630003646,None,,,,,,,,,,,,,,,,,,,,,,,,,,,,,,,,,,,106 Silent,001,2022_Nov_29_1035,ProdSingRedoBetween,2021.2.3,59.900792375109695,
9,0,9,0,,,,,,,,,,,,,,,,,,,,,,,,,,1723.324490699917,None,fashion,51,10,silent,blue,1721.3225277001038,None,None,1721.3225277001038,None,,,,,,,,,,,,,,,,,,,,,,,,,,,,,,,,,,,106 Silent,001,2022_Nov_29_1035,ProdSingRedoBetween,2021.2.3,59.900792375109695,
10,0,10,0,,,,,,,,,,,,,,,,,,,,,,,,,,1725.8439623005688,None,government,68,11,silent,red,1723.834742099978,None,None,1723.834742099978,None,,,,,,,,,,,,,,,,,,,,,,,,,,,,,,,,,,,106 Silent,001,2022_Nov_29_1035,ProdSingRedoBetween,2021.2.3,59.900792375109695,
11,0,11,0,,,,,,,,,,,,,,,,,,,,,,,,,,1728.3630942003801,None,property,36,12,silent,blue,1726.3486232003197,None,None,1726.3486232003197,None,,,,,,,,,,,,,,,,,,,,,,,,,,,,,,,,,,,106 Silent,001,2022_Nov_29_1035,ProdSingRedoBetween,2021.2.3,59.900792375109695,
12,0,12,0,,,,,,,,,,,,,,,,,,,,,,,,,,1730.865480300039,None,permit,11,13,silent,yellow,1728.8641223004088,None,None,1728.8641223004088,None,,,,,,,,,,,,,,,,,,,,,,,,,,,,,,,,,,,106 Silent,001,2022_Nov_29_1035,ProdSingRedoBetween,2021.2.3,59.900792375109695,
13,0,13,0,,,,,,,,,,,,,,,,,,,,,,,,,,1733.3847934007645,None,motion,44,14,silent,blue,1731.3738889005035,None,None,1731.3738889005035,None,,,,,,,,,,,,,,,,,,,,,,,,,,,,,,,,,,,106 Silent,001,2022_Nov_29_1035,ProdSingRedoBetween,2021.2.3,59.900792375109695,
14,0,14,0,,,,,,,,,,,,,,,,,,,,,,,,,,1735.8872298002243,None,military,32,15,silent,blue,1733.8882267000154,None,None,1733.8882267000154,None,,,,,,,,,,,,,,,,,,,,,,,,,,,,,,,,,,,106 Silent,001,2022_Nov_29_1035,ProdSingRedoBetween,2021.2.3,59.900792375109695,
15,0,15,0,,,,,,,,,,,,,,,,,,,,,,,,,,1738.4064308004454,None,judge,38,16,silent,blue,1736.3927921000868,None,None,1736.3927921000868,None,,,,,,,,,,,,,,,,,,,,,,,,,,,,,,,,,,,106 Silent,001,2022_Nov_29_1035,ProdSingRedoBetween,2021.2.3,59.900792375109695,
16,0,16,0,,,,,,,,,,,,,,,,,,,,,,,,,,1740.909014900215,None,empty,77,17,silent,red,1738.9083909001201,None,None,1738.9083909001201,None,,,,,,,,,,,,,,,,,,,,,,,,,,,,,,,,,,,106 Silent,001,2022_Nov_29_1035,ProdSingRedoBetween,2021.2.3,59.900792375109695,
17,0,17,0,,,,,,,,,,,,,,,,,,,,,,,,,,1743.428147200495,None,escape,78,18,silent,red,1741.4127681003883,None,None,1741.4127681003883,None,,,,,,,,,,,,,,,,,,,,,,,,,,,,,,,,,,,106 Silent,001,2022_Nov_29_1035,ProdSingRedoBetween,2021.2.3,59.900792375109695,
18,0,18,0,,,,,,,,,,,,,,,,,,,,,,,,,,1745.9473824007437,None,phrase,31,19,silent,blue,1743.9328765999526,None,None,1743.9328765999526,None,,,,,,,,,,,,,,,,,,,,,,,,,,,,,,,,,,,106 Silent,001,2022_Nov_29_1035,ProdSingRedoBetween,2021.2.3,59.900792375109695,
19,0,19,0,,,,,,,,,,,,,,,,,,,,,,,,,,1748.4494904000312,None,exchange,59,20,silent,yellow,1746.4477201001719,None,None,1746.4477201001719,None,,,,,,,,,,,,,,,,,,,,,,,,,,,,,,,,,,,106 Silent,001,2022_Nov_29_1035,ProdSingRedoBetween,2021.2.3,59.900792375109695,
20,0,20,0,,,,,,,,,,,,,,,,,,,,,,,,,,1750.9687705002725,None,quarter,69,21,silent,red,1748.9561990005895,None,None,1748.9561990005895,None,,,,,,,,,,,,,,,,,,,,,,,,,,,,,,,,,,,106 Silent,001,2022_Nov_29_1035,ProdSingRedoBetween,2021.2.3,59.900792375109695,
21,0,21,0,,,,,,,,,,,,,,,,,,,,,,,,,,1753.4714965000749,None,management,39,22,silent,blue,1751.4694245001301,None,None,1751.4694245001301,None,,,,,,,,,,,,,,,,,,,,,,,,,,,,,,,,,,,106 Silent,001,2022_Nov_29_1035,ProdSingRedoBetween,2021.2.3,59.900792375109695,
22,0,22,0,,,,,,,,,,,,,,,,,,,,,,,,,,1755.974031000398,None,tragedy,71,23,silent,red,1753.9747068006545,None,None,1753.9747068006545,None,,,,,,,,,,,,,,,,,,,,,,,,,,,,,,,,,,,106 Silent,001,2022_Nov_29_1035,ProdSingRedoBetween,2021.2.3,59.900792375109695,
23,0,23,0,,,,,,,,,,,,,,,,,,,,,,,,,,1758.4931128006428,None,clean,53,24,silent,blue,1756.479302099906,None,None,1756.479302099906,None,,,,,,,,,,,,,,,,,,,,,,,,,,,,,,,,,,,106 Silent,001,2022_Nov_29_1035,ProdSingRedoBetween,2021.2.3,59.900792375109695,
24,0,24,0,,,,,,,,,,,,,,,,,,,,,,,,,,1760.9956312002614,None,income,25,25,silent,yellow,1758.9936235006899,None,None,1758.9936235006899,None,,,,,,,,,,,,,,,,,,,,,,,,,,,,,,,,,,,106 Silent,001,2022_Nov_29_1035,ProdSingRedoBetween,2021.2.3,59.900792375109695,
25,0,25,0,,,,,,,,,,,,,,,,,,,,,,,,,,1763.497805500403,None,principal,41,26,silent,blue,1761.4961465001106,None,None,1761.4961465001106,None,,,,,,,,,,,,,,,,,,,,,,,,,,,,,,,,,,,106 Silent,001,2022_Nov_29_1035,ProdSingRedoBetween,2021.2.3,59.900792375109695,
26,0,26,0,,,,,,,,,,,,,,,,,,,,,,,,,,1766.0171167999506,None,alert,28,27,silent,yellow,1764.010032299906,None,None,1764.010032299906,None,,,,,,,,,,,,,,,,,,,,,,,,,,,,,,,,,,,106 Silent,001,2022_Nov_29_1035,ProdSingRedoBetween,2021.2.3,59.900792375109695,
27,0,27,0,,,,,,,,,,,,,,,,,,,,,,,,,,1768.5197742003947,None,frank,73,28,silent,red,1766.517767100595,None,None,1766.517767100595,None,,,,,,,,,,,,,,,,,,,,,,,,,,,,,,,,,,,106 Silent,001,2022_Nov_29_1035,ProdSingRedoBetween,2021.2.3,59.900792375109695,
28,0,28,0,,,,,,,,,,,,,,,,,,,,,,,,,,1771.0389924002811,None,heavy,70,29,silent,red,1769.0343110999092,None,None,1769.0343110999092,None,,,,,,,,,,,,,,,,,,,,,,,,,,,,,,,,,,,106 Silent,001,2022_Nov_29_1035,ProdSingRedoBetween,2021.2.3,59.900792375109695,
29,0,29,0,,,,,,,,,,,,,,,,,,,,,,,,,,1773.5414810003713,None,revolution,5,30,silent,yellow,1771.5421566003934,None,None,1771.5421566003934,None,,,,,,,,,,,,,,,,,,,,,,,,,,,,,,,,,,,106 Silent,001,2022_Nov_29_1035,ProdSingRedoBetween,2021.2.3,59.900792375109695,
30,0,30,0,,,,,,,,,,,,,,,,,,,,,,,,,,1776.0437670005485,None,session,55,31,silent,blue,1774.0443107001483,None,None,1774.0443107001483,None,,,,,,,,,,,,,,,,,,,,,,,,,,,,,,,,,,,106 Silent,001,2022_Nov_29_1035,ProdSingRedoBetween,2021.2.3,59.900792375109695,
31,0,31,0,,,,,,,,,,,,,,,,,,,,,,,,,,1778.5464548002928,None,right,26,32,silent,yellow,1776.546814000234,None,None,1776.546814000234,None,,,,,,,,,,,,,,,,,,,,,,,,,,,,,,,,,,,106 Silent,001,2022_Nov_29_1035,ProdSingRedoBetween,2021.2.3,59.900792375109695,
32,0,32,0,,,,,,,,,,,,,,,,,,,,,,,,,,1781.0654815007001,None,length,37,33,silent,blue,1779.0511556006968,None,None,1779.0511556006968,None,,,,,,,,,,,,,,,,,,,,,,,,,,,,,,,,,,,106 Silent,001,2022_Nov_29_1035,ProdSingRedoBetween,2021.2.3,59.900792375109695,
33,0,33,0,,,,,,,,,,,,,,,,,,,,,,,,,,1783.5850229002535,None,partner,33,34,silent,blue,1781.571890000254,None,None,1781.571890000254,None,,,,,,,,,,,,,,,,,,,,,,,,,,,,,,,,,,,106 Silent,001,2022_Nov_29_1035,ProdSingRedoBetween,2021.2.3,59.900792375109695,
34,0,34,0,,,,,,,,,,,,,,,,,,,,,,,,,,1786.0873752003536,None,commercial,81,35,silent,red,1784.086347900331,None,None,1784.086347900331,None,,,,,,,,,,,,,,,,,,,,,,,,,,,,,,,,,,,106 Silent,001,2022_Nov_29_1035,ProdSingRedoBetween,2021.2.3,59.900792375109695,
35,0,35,0,,,,,,,,,,,,,,,,,,,,,,,,,,1788.5897938003764,None,travel,23,36,silent,yellow,1786.5908162007108,None,None,1786.5908162007108,None,,,,,,,,,,,,,,,,,,,,,,,,,,,,,,,,,,,106 Silent,001,2022_Nov_29_1035,ProdSingRedoBetween,2021.2.3,59.900792375109695,
36,0,36,0,,,,,,,,,,,,,,,,,,,,,,,,,,1791.0923939999193,None,profession,18,37,silent,yellow,1789.0914006000385,None,None,1789.0914006000385,None,,,,,,,,,,,,,,,,,,,,,,,,,,,,,,,,,,,106 Silent,001,2022_Nov_29_1035,ProdSingRedoBetween,2021.2.3,59.900792375109695,
37,0,37,0,,,,,,,,,,,,,,,,,,,,,,,,,,1793.6114914007485,None,capital,42,38,silent,blue,1791.5961143001914,None,None,1791.5961143001914,None,,,,,,,,,,,,,,,,,,,,,,,,,,,,,,,,,,,106 Silent,001,2022_Nov_29_1035,ProdSingRedoBetween,2021.2.3,59.900792375109695,
38,0,38,0,,,,,,,,,,,,,,,,,,,,,,,,,,1796.114041400142,None,salary,47,39,silent,blue,1794.1119729001075,None,None,1794.1119729001075,None,,,,,,,,,,,,,,,,,,,,,,,,,,,,,,,,,,,106 Silent,001,2022_Nov_29_1035,ProdSingRedoBetween,2021.2.3,59.900792375109695,
39,0,39,0,,,,,,,,,,,,,,,,,,,,,,,,,,1798.6331472005695,None,grade,84,40,silent,red,1796.6178899006918,None,None,1796.6178899006918,None,,,,,,,,,,,,,,,,,,,,,,,,,,,,,,,,,,,106 Silent,001,2022_Nov_29_1035,ProdSingRedoBetween,2021.2.3,59.900792375109695,
40,0,40,0,,,,,,,,,,,,,,,,,,,,,,,,,,1801.1356315007433,None,business,66,41,silent,red,1799.1336505999789,None,None,1799.1336505999789,None,,,,,,,,,,,,,,,,,,,,,,,,,,,,,,,,,,,106 Silent,001,2022_Nov_29_1035,ProdSingRedoBetween,2021.2.3,59.900792375109695,
41,0,41,0,,,,,,,,,,,,,,,,,,,,,,,,,,1803.654565100558,None,brilliant,58,42,silent,blue,1801.6450884006917,None,None,1801.6450884006917,None,,,,,,,,,,,,,,,,,,,,,,,,,,,,,,,,,,,106 Silent,001,2022_Nov_29_1035,ProdSingRedoBetween,2021.2.3,59.900792375109695,
42,0,42,0,,,,,,,,,,,,,,,,,,,,,,,,,,1806.157475400716,None,mechanical,27,43,silent,yellow,1804.157118900679,None,None,1804.157118900679,None,,,,,,,,,,,,,,,,,,,,,,,,,,,,,,,,,,,106 Silent,001,2022_Nov_29_1035,ProdSingRedoBetween,2021.2.3,59.900792375109695,
43,0,43,0,,,,,,,,,,,,,,,,,,,,,,,,,,1808.659850500524,None,union,2,44,silent,yellow,1806.660244400613,None,None,1806.660244400613,None,,,,,,,,,,,,,,,,,,,,,,,,,,,,,,,,,,,106 Silent,001,2022_Nov_29_1035,ProdSingRedoBetween,2021.2.3,59.900792375109695,
44,0,44,0,,,,,,,,,,,,,,,,,,,,,,,,,,1811.17885929998,None,trial,54,45,silent,blue,1809.1665601003915,None,None,1809.1665601003915,None,,,,,,,,,,,,,,,,,,,,,,,,,,,,,,,,,,,106 Silent,001,2022_Nov_29_1035,ProdSingRedoBetween,2021.2.3,59.900792375109695,
45,0,45,0,,,,,,,,,,,,,,,,,,,,,,,,,,1813.6982454005629,None,level,74,46,silent,red,1811.688821299933,None,None,1811.688821299933,None,,,,,,,,,,,,,,,,,,,,,,,,,,,,,,,,,,,106 Silent,001,2022_Nov_29_1035,ProdSingRedoBetween,2021.2.3,59.900792375109695,
46,0,46,0,,,,,,,,,,,,,,,,,,,,,,,,,,1816.2007579999045,None,dispute,4,47,silent,yellow,1814.198669200763,None,None,1814.198669200763,None,,,,,,,,,,,,,,,,,,,,,,,,,,,,,,,,,,,106 Silent,001,2022_Nov_29_1035,ProdSingRedoBetween,2021.2.3,59.900792375109695,
47,0,47,0,,,,,,,,,,,,,,,,,,,,,,,,,,1818.71988660004,None,quiet,83,48,silent,red,1816.706689200364,None,None,1816.706689200364,None,,,,,,,,,,,,,,,,,,,,,,,,,,,,,,,,,,,106 Silent,001,2022_Nov_29_1035,ProdSingRedoBetween,2021.2.3,59.900792375109695,
48,0,48,0,,,,,,,,,,,,,,,,,,,,,,,,,,1821.2391659999266,None,comedy,89,49,silent,red,1819.2312002005056,None,None,1819.2312002005056,None,,,,,,,,,,,,,,,,,,,,,,,,,,,,,,,,,,,106 Silent,001,2022_Nov_29_1035,ProdSingRedoBetween,2021.2.3,59.900792375109695,
49,0,49,0,,,,,,,,,,,,,,,,,,,,,,,,,,1823.7578737000003,None,vision,60,50,silent,red,1821.7441896004602,None,None,1821.7441896004602,None,,,,,,,,,,,,,,,,,,,,,,,,,,,,,,,,,,,106 Silent,001,2022_Nov_29_1035,ProdSingRedoBetween,2021.2.3,59.900792375109695,
50,0,50,0,,,,,,,,,,,,,,,,,,,,,,,,,,1826.2774750003591,None,edition,19,51,silent,yellow,1824.2676272001117,None,None,1824.2676272001117,None,,,,,,,,,,,,,,,,,,,,,,,,,,,,,,,,,,,106 Silent,001,2022_Nov_29_1035,ProdSingRedoBetween,2021.2.3,59.900792375109695,
51,0,51,0,,,,,,,,,,,,,,,,,,,,,,,,,,1828.7795652002096,None,number,20,52,silent,yellow,1826.7776792999357,None,None,1826.7776792999357,None,,,,,,,,,,,,,,,,,,,,,,,,,,,,,,,,,,,106 Silent,001,2022_Nov_29_1035,ProdSingRedoBetween,2021.2.3,59.900792375109695,
52,0,52,0,,,,,,,,,,,,,,,,,,,,,,,,,,1831.2824349999428,None,harmony,21,53,silent,yellow,1829.2832957003266,None,None,1829.2832957003266,None,,,,,,,,,,,,,,,,,,,,,,,,,,,,,,,,,,,106 Silent,001,2022_Nov_29_1035,ProdSingRedoBetween,2021.2.3,59.900792375109695,
53,0,53,0,,,,,,,,,,,,,,,,,,,,,,,,,,1833.7846989007667,None,atmosphere,34,54,silent,blue,1831.7837165007368,None,None,1831.7837165007368,None,,,,,,,,,,,,,,,,,,,,,,,,,,,,,,,,,,,106 Silent,001,2022_Nov_29_1035,ProdSingRedoBetween,2021.2.3,59.900792375109695,
54,0,54,0,,,,,,,,,,,,,,,,,,,,,,,,,,1836.2874581003562,None,period,0,55,silent,yellow,1834.2871952001005,None,None,1834.2871952001005,None,,,,,,,,,,,,,,,,,,,,,,,,,,,,,,,,,,,106 Silent,001,2022_Nov_29_1035,ProdSingRedoBetween,2021.2.3,59.900792375109695,
55,0,55,0,,,,,,,,,,,,,,,,,,,,,,,,,,1838.8066179007292,None,error,3,56,silent,yellow,1836.791757600382,None,None,1836.791757600382,None,,,,,,,,,,,,,,,,,,,,,,,,,,,,,,,,,,,106 Silent,001,2022_Nov_29_1035,ProdSingRedoBetween,2021.2.3,59.900792375109695,
56,0,56,0,,,,,,,,,,,,,,,,,,,,,,,,,,1841.3087726999074,None,treatment,56,57,silent,blue,1839.309084000066,None,None,1839.309084000066,None,,,,,,,,,,,,,,,,,,,,,,,,,,,,,,,,,,,106 Silent,001,2022_Nov_29_1035,ProdSingRedoBetween,2021.2.3,59.900792375109695,
57,0,57,0,,,,,,,,,,,,,,,,,,,,,,,,,,1843.811637500301,None,height,6,58,silent,yellow,1841.8096510004252,None,None,1841.8096510004252,None,,,,,,,,,,,,,,,,,,,,,,,,,,,,,,,,,,,106 Silent,001,2022_Nov_29_1035,ProdSingRedoBetween,2021.2.3,59.900792375109695,
58,0,58,0,,,,,,,,,,,,,,,,,,,,,,,,,,1846.3140481999144,None,surface,10,59,silent,yellow,1844.313758100383,None,None,1844.313758100383,None,,,,,,,,,,,,,,,,,,,,,,,,,,,,,,,,,,,106 Silent,001,2022_Nov_29_1035,ProdSingRedoBetween,2021.2.3,59.900792375109695,
59,0,59,0,,,,,,,,,,,,,,,,,,,,,,,,,,1848.8332489999011,None,afternoon,86,60,silent,red,1846.8251693006605,None,None,1846.8251693006605,None,,,,,,,,,,,,,,,,,,,,,,,,,,,,,,,,,,,106 Silent,001,2022_Nov_29_1035,ProdSingRedoBetween,2021.2.3,59.900792375109695,
60,0,60,0,,,,,,,,,,,,,,,,,,,,,,,,,,1851.35221260041,None,universal,17,61,silent,yellow,1849.3378628008068,None,None,1849.3378628008068,None,,,,,,,,,,,,,,,,,,,,,,,,,,,,,,,,,,,106 Silent,001,2022_Nov_29_1035,ProdSingRedoBetween,2021.2.3,59.900792375109695,
61,0,61,0,,,,,,,,,,,,,,,,,,,,,,,,,,1853.8549919007346,None,childhood,62,62,silent,red,1851.8529191007838,None,None,1851.8529191007838,None,,,,,,,,,,,,,,,,,,,,,,,,,,,,,,,,,,,106 Silent,001,2022_Nov_29_1035,ProdSingRedoBetween,2021.2.3,59.900792375109695,
62,0,62,0,,,,,,,,,,,,,,,,,,,,,,,,,,1856.374091600068,None,population,16,63,silent,yellow,1854.3609645003453,None,None,1854.3609645003453,None,,,,,,,,,,,,,,,,,,,,,,,,,,,,,,,,,,,106 Silent,001,2022_Nov_29_1035,ProdSingRedoBetween,2021.2.3,59.900792375109695,
63,0,63,0,,,,,,,,,,,,,,,,,,,,,,,,,,1858.8931897003204,None,minor,75,64,silent,red,1856.8781072003767,None,None,1856.8781072003767,None,,,,,,,,,,,,,,,,,,,,,,,,,,,,,,,,,,,106 Silent,001,2022_Nov_29_1035,ProdSingRedoBetween,2021.2.3,59.900792375109695,
64,0,64,0,,,,,,,,,,,,,,,,,,,,,,,,,,1861.4124179007486,None,primary,72,65,silent,red,1859.3984020007774,None,None,1859.3984020007774,None,,,,,,,,,,,,,,,,,,,,,,,,,,,,,,,,,,,106 Silent,001,2022_Nov_29_1035,ProdSingRedoBetween,2021.2.3,59.900792375109695,
65,0,65,0,,,,,,,,,,,,,,,,,,,,,,,,,,1863.9316797005013,None,place,57,66,silent,blue,1861.9160203002393,None,None,1861.9160203002393,None,,,,,,,,,,,,,,,,,,,,,,,,,,,,,,,,,,,106 Silent,001,2022_Nov_29_1035,ProdSingRedoBetween,2021.2.3,59.900792375109695,
66,0,66,0,,,,,,,,,,,,,,,,,,,,,,,,,,1866.4342579999939,None,reach,50,67,silent,blue,1864.4319398999214,None,None,1864.4319398999214,None,,,,,,,,,,,,,,,,,,,,,,,,,,,,,,,,,,,106 Silent,001,2022_Nov_29_1035,ProdSingRedoBetween,2021.2.3,59.900792375109695,
67,0,67,0,,,,,,,,,,,,,,,,,,,,,,,,,,1868.953332000412,None,cousin,48,68,silent,blue,1866.9399617007002,None,None,1866.9399617007002,None,,,,,,,,,,,,,,,,,,,,,,,,,,,,,,,,,,,106 Silent,001,2022_Nov_29_1035,ProdSingRedoBetween,2021.2.3,59.900792375109695,
68,0,68,0,,,,,,,,,,,,,,,,,,,,,,,,,,1871.4557897001505,None,south,45,69,silent,blue,1869.4555405005813,None,None,1869.4555405005813,None,,,,,,,,,,,,,,,,,,,,,,,,,,,,,,,,,,,106 Silent,001,2022_Nov_29_1035,ProdSingRedoBetween,2021.2.3,59.900792375109695,
69,0,69,0,,,,,,,,,,,,,,,,,,,,,,,,,,1873.9583153007552,None,notice,7,70,silent,yellow,1871.9563057003543,None,None,1871.9563057003543,None,,,,,,,,,,,,,,,,,,,,,,,,,,,,,,,,,,,106 Silent,001,2022_Nov_29_1035,ProdSingRedoBetween,2021.2.3,59.900792375109695,
70,0,70,0,,,,,,,,,,,,,,,,,,,,,,,,,,1876.4608712000772,None,breath,87,71,silent,red,1874.4605334000662,None,None,1874.4605334000662,None,,,,,,,,,,,,,,,,,,,,,,,,,,,,,,,,,,,106 Silent,001,2022_Nov_29_1035,ProdSingRedoBetween,2021.2.3,59.900792375109695,
71,0,71,0,,,,,,,,,,,,,,,,,,,,,,,,,,1878.9632480004802,None,fight,35,72,silent,blue,1876.9638680005446,None,None,1876.9638680005446,None,,,,,,,,,,,,,,,,,,,,,,,,,,,,,,,,,,,106 Silent,001,2022_Nov_29_1035,ProdSingRedoBetween,2021.2.3,59.900792375109695,
72,0,72,0,,,,,,,,,,,,,,,,,,,,,,,,,,1881.465875800699,None,department,12,73,silent,yellow,1879.464688600041,None,None,1879.464688600041,None,,,,,,,,,,,,,,,,,,,,,,,,,,,,,,,,,,,106 Silent,001,2022_Nov_29_1035,ProdSingRedoBetween,2021.2.3,59.900792375109695,
73,0,73,0,,,,,,,,,,,,,,,,,,,,,,,,,,1883.985042700544,None,sleep,30,74,silent,blue,1881.9750059004873,None,None,1881.9750059004873,None,,,,,,,,,,,,,,,,,,,,,,,,,,,,,,,,,,,106 Silent,001,2022_Nov_29_1035,ProdSingRedoBetween,2021.2.3,59.900792375109695,
74,0,74,0,,,,,,,,,,,,,,,,,,,,,,,,,,1886.4875987004489,None,order,49,75,silent,blue,1884.4883062001318,None,None,1884.4883062001318,None,,,,,,,,,,,,,,,,,,,,,,,,,,,,,,,,,,,106 Silent,001,2022_Nov_29_1035,ProdSingRedoBetween,2021.2.3,59.900792375109695,
75,0,75,0,,,,,,,,,,,,,,,,,,,,,,,,,,1888.9901558998972,None,gesture,13,76,silent,yellow,1886.9900001008064,None,None,1886.9900001008064,None,,,,,,,,,,,,,,,,,,,,,,,,,,,,,,,,,,,106 Silent,001,2022_Nov_29_1035,ProdSingRedoBetween,2021.2.3,59.900792375109695,
76,0,76,0,,,,,,,,,,,,,,,,,,,,,,,,,,1891.49226010032,None,state,8,77,silent,yellow,1889.4902210002765,None,None,1889.4902210002765,None,,,,,,,,,,,,,,,,,,,,,,,,,,,,,,,,,,,106 Silent,001,2022_Nov_29_1035,ProdSingRedoBetween,2021.2.3,59.900792375109695,
77,0,77,0,,,,,,,,,,,,,,,,,,,,,,,,,,1893.994662700221,None,election,52,78,silent,blue,1891.9927769005299,None,None,1891.9927769005299,None,,,,,,,,,,,,,,,,,,,,,,,,,,,,,,,,,,,106 Silent,001,2022_Nov_29_1035,ProdSingRedoBetween,2021.2.3,59.900792375109695,
78,0,78,0,,,,,,,,,,,,,,,,,,,,,,,,,,1896.5140639003366,None,trash,43,79,silent,blue,1894.4997570002452,None,None,1894.4997570002452,None,,,,,,,,,,,,,,,,,,,,,,,,,,,,,,,,,,,106 Silent,001,2022_Nov_29_1035,ProdSingRedoBetween,2021.2.3,59.900792375109695,
79,0,79,0,,,,,,,,,,,,,,,,,,,,,,,,,,1899.033266399987,None,shear,79,80,silent,red,1897.0243648001924,None,None,1897.0243648001924,None,,,,,,,,,,,,,,,,,,,,,,,,,,,,,,,,,,,106 Silent,001,2022_Nov_29_1035,ProdSingRedoBetween,2021.2.3,59.900792375109695,
80,0,80,0,,,,,,,,,,,,,,,,,,,,,,,,,,1901.5357626006007,None,contract,29,81,silent,blue,1899.535184700042,None,None,1899.535184700042,None,,,,,,,,,,,,,,,,,,,,,,,,,,,,,,,,,,,106 Silent,001,2022_Nov_29_1035,ProdSingRedoBetween,2021.2.3,59.900792375109695,
81,0,81,0,,,,,,,,,,,,,,,,,,,,,,,,,,1904.038269800134,None,object,61,82,silent,red,1902.0362602006644,None,None,1902.0362602006644,None,,,,,,,,,,,,,,,,,,,,,,,,,,,,,,,,,,,106 Silent,001,2022_Nov_29_1035,ProdSingRedoBetween,2021.2.3,59.900792375109695,
82,0,82,0,,,,,,,,,,,,,,,,,,,,,,,,,,1906.540838200599,None,citizen,88,83,silent,red,1904.5417414000258,None,None,1904.5417414000258,None,,,,,,,,,,,,,,,,,,,,,,,,,,,,,,,,,,,106 Silent,001,2022_Nov_29_1035,ProdSingRedoBetween,2021.2.3,59.900792375109695,
83,0,83,0,,,,,,,,,,,,,,,,,,,,,,,,,,1909.0600348003209,None,produce,82,84,silent,red,1907.0448839999735,None,None,1907.0448839999735,None,,,,,,,,,,,,,,,,,,,,,,,,,,,,,,,,,,,106 Silent,001,2022_Nov_29_1035,ProdSingRedoBetween,2021.2.3,59.900792375109695,
84,0,84,0,,,,,,,,,,,,,,,,,,,,,,,,,,1911.56247310061,None,court,63,85,silent,red,1909.5630296999589,None,None,1909.5630296999589,None,,,,,,,,,,,,,,,,,,,,,,,,,,,,,,,,,,,106 Silent,001,2022_Nov_29_1035,ProdSingRedoBetween,2021.2.3,59.900792375109695,
85,0,85,0,,,,,,,,,,,,,,,,,,,,,,,,,,1914.0649338001385,None,beginning,22,86,silent,yellow,1912.0628457004204,None,None,1912.0628457004204,None,,,,,,,,,,,,,,,,,,,,,,,,,,,,,,,,,,,106 Silent,001,2022_Nov_29_1035,ProdSingRedoBetween,2021.2.3,59.900792375109695,
86,0,86,0,,,,,,,,,,,,,,,,,,,,,,,,,,1916.5675145005807,None,under,76,87,silent,red,1914.5659245001152,None,None,1914.5659245001152,None,,,,,,,,,,,,,,,,,,,,,,,,,,,,,,,,,,,106 Silent,001,2022_Nov_29_1035,ProdSingRedoBetween,2021.2.3,59.900792375109695,
87,0,87,0,,,,,,,,,,,,,,,,,,,,,,,,,,1919.086403700523,None,victory,65,88,silent,red,1917.0716643007472,None,None,1917.0716643007472,None,,,,,,,,,,,,,,,,,,,,,,,,,,,,,,,,,,,106 Silent,001,2022_Nov_29_1035,ProdSingRedoBetween,2021.2.3,59.900792375109695,
88,0,88,0,,,,,,,,,,,,,,,,,,,,,,,,,,1921.5890128007159,None,swift,80,89,silent,red,1919.5870203999802,None,None,1919.5870203999802,None,,,,,,,,,,,,,,,,,,,,,,,,,,,,,,,,,,,106 Silent,001,2022_Nov_29_1035,ProdSingRedoBetween,2021.2.3,59.900792375109695,
89,0,89,0,,,,,,,,,,,,,,,,,,,,,,,,,,1924.1081902002916,None,break,1,90,silent,yellow,1922.0939875999466,None,None,1922.0939875999466,None,,,,,,,,,,,,,,,,,,,,,,,,,,,,,,,,,,,106 Silent,001,2022_Nov_29_1035,ProdSingRedoBetween,2021.2.3,59.900792375109695,
,,,,,,,,,,,,,,,,,,,,,,,,,,,,,,,,,,,,,,,,,1924.6102783000097,None,k,209.32345850020647,1924.6102783000097,None,,,,,,,,,,,,,,,,,,,,,,,,,,,,,106 Silent,001,2022_Nov_29_1035,ProdSingRedoBetween,2021.2.3,59.900792375109695,
,,,,0,0,0,0,,,,,,,,,,,,,,,,,,,,,,2159.559713100083,None,,,,,,,,,,,,,,,,,motion,44,1,silent,old,blue,2134.4548591999337,None,2134.4548591999337,None,1,17.190906500443816,2134.4548591999337,None,17.190906500443816,2151.669493000023,None,2152.173802100122,None,2152.173802100122,None,r,7.359891400672495,2152.173802100122,None,7.359891400672495,,,106 Silent,001,2022_Nov_29_1035,ProdSingRedoBetween,2021.2.3,59.900792375109695,
,,,,1,0,1,0,,,,,,,,,,,,,,,,,,,,,,2165.148943800479,None,,,,,,,,,,,,,,,,,worker,143,2,silent,new,null,2160.0773692000657,None,2160.0773692000657,None,1,3.2645108001306653,2160.0773692000657,None,3.2645108001306653,2163.3647616999224,None,2163.870768200606,None,2163.870768200606,None,r,1.24682870041579,2163.870768200606,None,1.24682870041579,,,106 Silent,001,2022_Nov_29_1035,ProdSingRedoBetween,2021.2.3,59.900792375109695,
,,,,2,0,2,0,,,,,,,,,,,,,,,,,,,,,,2173.990813500248,None,,,,,,,,,,,,,,,,,gesture,13,3,silent,old,yellow,2165.650546400808,None,2165.650546400808,None,6,3.8591650994494557,2165.650546400808,None,3.8591650994494557,2169.5381925003603,None,2170.0536710005254,None,2170.0536710005254,None,r,3.9200302995741367,2170.0536710005254,None,3.9200302995741367,,,106 Silent,001,2022_Nov_29_1035,ProdSingRedoBetween,2021.2.3,59.900792375109695,
,,,,3,0,3,0,,,,,,,,,,,,,,,,,,,,,,2178.012267800048,None,,,,,,,,,,,,,,,,,master,149,4,silent,new,null,2174.4940689001232,None,2174.4940689001232,None,1,1.7759905997663736,2174.4940689001232,None,1.7759905997663736,2176.294614000246,None,2176.7991639003158,None,2176.7991639003158,None,r,1.1826154002919793,2176.7991639003158,None,1.1826154002919793,,,106 Silent,001,2022_Nov_29_1035,ProdSingRedoBetween,2021.2.3,59.900792375109695,
,,,,4,0,4,0,,,,,,,,,,,,,,,,,,,,,,2182.8162062000483,None,,,,,,,,,,,,,,,,,research,136,5,silent,new,null,2178.5134831005707,None,2178.5134831005707,None,6,2.2682262994349003,2178.5134831005707,None,2.2682262994349003,2180.8038424002007,None,2181.314839700237,None,2181.314839700237,None,r,1.4748613005504012,2181.314839700237,None,1.4748613005504012,,,106 Silent,001,2022_Nov_29_1035,ProdSingRedoBetween,2021.2.3,59.900792375109695,
,,,,5,0,5,0,,,,,,,,,,,,,,,,,,,,,,2187.604898300022,None,,,,,,,,,,,,,,,,,opening,67,6,silent,old,red,2183.3254350004718,None,2183.3254350004718,None,6,2.752442800439894,2183.3254350004718,None,2.752442800439894,2186.106126700528,None,2186.6201224001125,None,2186.6201224001125,None,r,0.9618581999093294,2186.6201224001125,None,0.9618581999093294,,,106 Silent,001,2022_Nov_29_1035,ProdSingRedoBetween,2021.2.3,59.900792375109695,
,,,,6,0,6,0,,,,,,,,,,,,,,,,,,,,,,2191.5914410008118,None,,,,,,,,,,,,,,,,,tragedy,71,7,silent,old,red,2188.1178558003157,None,2188.1178558003157,None,6,2.007993300445378,2188.1178558003157,None,2.007993300445378,2190.1578766005114,None,2190.6622461006045,None,2190.6622461006045,None,r,0.9114421997219324,2190.6622461006045,None,0.9114421997219324,,,106 Silent,001,2022_Nov_29_1035,ProdSingRedoBetween,2021.2.3,59.900792375109695,
,,,,7,0,7,0,,,,,,,,,,,,,,,,,,,,,,2197.681079700589,None,,,,,,,,,,,,,,,,,silence,148,8,silent,new,null,2192.105161100626,None,2192.105161100626,None,6,4.132525499910116,2192.105161100626,None,4.132525499910116,2196.2645914005116,None,2196.7805293006822,None,2196.7805293006822,None,r,0.881159900687635,2196.7805293006822,None,0.881159900687635,,,106 Silent,001,2022_Nov_29_1035,ProdSingRedoBetween,2021.2.3,59.900792375109695,
,,,,8,0,8,0,,,,,,,,,,,,,,,,,,,,,,2201.253083700314,None,,,,,,,,,,,,,,,,,resistance,85,9,silent,old,red,2198.1896560005844,None,2198.1896560005844,None,6,2.111943899653852,2198.1896560005844,None,2.111943899653852,2200.3218871001154,None,2200.8343313001096,None,2200.8343313001096,None,r,0.3872251994907856,2200.8343313001096,None,0.3872251994907856,,,106 Silent,001,2022_Nov_29_1035,ProdSingRedoBetween,2021.2.3,59.900792375109695,
,,,,9,0,9,0,,,,,,,,,,,,,,,,,,,,,,2204.371085400693,None,,,,,,,,,,,,,,,,,escape,78,10,silent,old,red,2201.779880300164,None,2201.779880300164,None,6,1.7057481994852424,2201.779880300164,None,1.7057481994852424,2203.50489510037,None,2204.0068316999823,None,2204.0068316999823,None,r,0.3430198999121785,2204.0068316999823,None,0.3430198999121785,,,106 Silent,001,2022_Nov_29_1035,ProdSingRedoBetween,2021.2.3,59.900792375109695,
,,,,10,0,10,0,,,,,,,,,,,,,,,,,,,,,,2209.743023900315,None,,,,,,,,,,,,,,,,,bright,105,11,silent,new,null,2204.8728876002133,None,2204.8728876002133,None,3,3.7727189008146524,2204.8728876002133,None,3.7727189008146524,2208.67734460067,None,2209.1925774002448,None,2209.1925774002448,None,r,0.5250281002372503,2209.1925774002448,None,0.5250281002372503,,,106 Silent,001,2022_Nov_29_1035,ProdSingRedoBetween,2021.2.3,59.900792375109695,
,,,,11,0,11,0,,,,,,,,,,,,,,,,,,,,,,2214.0976926004514,None,,,,,,,,,,,,,,,,,swift,80,12,silent,old,red,2210.2560772001743,None,2210.2560772001743,None,1,2.605539600364864,2210.2560772001743,None,2.605539600364864,2212.881180400029,None,2213.400725500658,None,2213.400725500658,None,r,0.6688752993941307,2213.400725500658,None,0.6688752993941307,,,106 Silent,001,2022_Nov_29_1035,ProdSingRedoBetween,2021.2.3,59.900792375109695,
,,,,12,0,12,0,,,,,,,,,,,,,,,,,,,,,,2217.4229755001143,None,,,,,,,,,,,,,,,,,entrance,15,13,silent,old,yellow,2214.606661300175,None,2214.606661300175,None,6,1.759148900397122,2214.606661300175,None,1.759148900397122,2216.3849280001596,None,2216.9038725001737,None,2216.9038725001737,None,r,0.4940606001764536,2216.9038725001737,None,0.4940606001764536,,,106 Silent,001,2022_Nov_29_1035,ProdSingRedoBetween,2021.2.3,59.900792375109695,
,,,,13,0,13,0,,,,,,,,,,,,,,,,,,,,,,2224.3576229000464,None,,,,,,,,,,,,,,,,,whole,116,14,silent,new,null,2217.9390718005598,None,2217.9390718005598,None,2,4.898518200032413,2217.9390718005598,None,4.898518200032413,2222.858569400385,None,2223.373534200713,None,2223.373534200713,None,r,0.9601056994870305,2223.373534200713,None,0.9601056994870305,,,106 Silent,001,2022_Nov_29_1035,ProdSingRedoBetween,2021.2.3,59.900792375109695,
,,,,14,0,14,0,,,,,,,,,,,,,,,,,,,,,,2228.4134407006204,None,,,,,,,,,,,,,,,,,trial,54,15,silent,old,blue,2224.865562500432,None,2224.865562500432,None,2,2.3880672995001078,2224.865562500432,None,2.3880672995001078,2227.278221300803,None,2227.780353700742,None,2227.780353700742,None,r,0.601499100215733,2227.780353700742,None,0.601499100215733,,,106 Silent,001,2022_Nov_29_1035,ProdSingRedoBetween,2021.2.3,59.900792375109695,
,,,,15,0,15,0,,,,,,,,,,,,,,,,,,,,,,2235.171267299913,None,,,,,,,,,,,,,,,,,crime,174,16,silent,new,null,2228.93568040058,None,2228.93568040058,None,2,5.262038700282574,2228.93568040058,None,5.262038700282574,2234.2257273001596,None,2234.735346400179,None,2234.735346400179,None,r,0.4143709996715188,2234.735346400179,None,0.4143709996715188,,,106 Silent,001,2022_Nov_29_1035,ProdSingRedoBetween,2021.2.3,59.900792375109695,
,,,,16,0,16,0,,,,,,,,,,,,,,,,,,,,,,2238.438378300518,None,,,,,,,,,,,,,,,,,title,168,17,silent,new,null,2235.68620620016,None,2235.68620620016,None,2,1.535520300269127,2235.68620620016,None,1.535520300269127,2237.2383772004396,None,2237.7404666999355,None,2237.7404666999355,None,r,0.6731468997895718,2237.7404666999355,None,0.6731468997895718,,,106 Silent,001,2022_Nov_29_1035,ProdSingRedoBetween,2021.2.3,59.900792375109695,
,,,,17,0,17,0,,,,,,,,,,,,,,,,,,,,,,2243.0460395002738,None,,,,,,,,,,,,,,,,,break,1,18,silent,old,yellow,2238.946569800377,None,2238.946569800377,None,5,3.0430377004668117,2238.946569800377,None,3.0430377004668117,2242.0106402002275,None,2242.5258911000565,None,2242.5258911000565,None,r,0.49579150043427944,2242.5258911000565,None,0.49579150043427944,,,106 Silent,001,2022_Nov_29_1035,ProdSingRedoBetween,2021.2.3,59.900792375109695,
,,,,18,0,18,0,,,,,,,,,,,,,,,,,,,,,,2247.2471721004695,None,,,,,,,,,,,,,,,,,sleep,30,19,silent,old,blue,2243.564212200232,None,2243.564212200232,None,6,2.497344900853932,2243.564212200232,None,2.497344900853932,2246.083362800069,None,2246.596706500277,None,2246.596706500277,None,r,0.6328756995499134,2246.596706500277,None,0.6328756995499134,,,106 Silent,001,2022_Nov_29_1035,ProdSingRedoBetween,2021.2.3,59.900792375109695,
,,,,19,0,19,0,,,,,,,,,,,,,,,,,,,,,,2251.1344461999834,None,,,,,,,,,,,,,,,,,state,8,20,silent,old,yellow,2247.7552482001483,None,2247.7552482001483,None,2,2.3464182997122407,2247.7552482001483,None,2.3464182997122407,2250.11693330016,None,2250.63090489991,None,2250.63090489991,None,r,0.4866845002397895,2250.63090489991,None,0.4866845002397895,,,106 Silent,001,2022_Nov_29_1035,ProdSingRedoBetween,2021.2.3,59.900792375109695,
,,,,20,0,20,0,,,,,,,,,,,,,,,,,,,,,,2255.64083340019,None,,,,,,,,,,,,,,,,,equipment,108,21,silent,new,null,2251.6433806000277,None,2251.6433806000277,None,1,2.9302722001448274,2251.6433806000277,None,2.9302722001448274,2254.615376099944,None,2255.1282064002007,None,2255.1282064002007,None,r,0.4936148002743721,2255.1282064002007,None,0.4936148002743721,,,106 Silent,001,2022_Nov_29_1035,ProdSingRedoBetween,2021.2.3,59.900792375109695,
,,,,21,0,21,0,,,,,,,,,,,,,,,,,,,,,,2258.6585618006065,None,,,,,,,,,,,,,,,,,command,92,22,silent,new,null,2256.161929300055,None,2256.161929300055,None,2,1.7156940000131726,2256.161929300055,None,1.7156940000131726,2257.9105831002817,None,2258.430235400796,None,2258.430235400796,None,r,0.19944070000201464,2258.430235400796,None,0.19944070000201464,,,106 Silent,001,2022_Nov_29_1035,ProdSingRedoBetween,2021.2.3,59.900792375109695,
,,,,22,0,22,0,,,,,,,,,,,,,,,,,,,,,,2261.4276566999033,None,,,,,,,,,,,,,,,,,permit,11,23,silent,old,yellow,2259.162366100587,None,2259.162366100587,None,2,1.5951328007504344,2259.162366100587,None,1.5951328007504344,2260.7846579002216,None,2261.2945056008175,None,2261.2945056008175,None,r,0.10293840058147907,2261.2945056008175,None,0.10293840058147907,,,106 Silent,001,2022_Nov_29_1035,ProdSingRedoBetween,2021.2.3,59.900792375109695,
,,,,23,0,23,0,,,,,,,,,,,,,,,,,,,,,,2266.7165856007487,None,,,,,,,,,,,,,,,,,citizen,88,24,silent,old,red,2261.9284959007055,None,2261.9284959007055,None,5,4.0690558003261685,2261.9284959007055,None,4.0690558003261685,2266.017331900075,None,2266.523366600275,None,2266.523366600275,None,r,0.17022680025547743,2266.523366600275,None,0.17022680025547743,,,106 Silent,001,2022_Nov_29_1035,ProdSingRedoBetween,2021.2.3,59.900792375109695,
,,,,24,0,24,0,,,,,,,,,,,,,,,,,,,,,,2269.672237300314,None,,,,,,,,,,,,,,,,,beginning,22,25,silent,old,yellow,2267.233446000144,None,2267.233446000144,None,6,1.7801524000242352,2267.233446000144,None,1.7801524000242352,2269.041266700253,None,2269.552883000113,None,2269.552883000113,None,r,0.100755600258708,2269.552883000113,None,0.100755600258708,,,106 Silent,001,2022_Nov_29_1035,ProdSingRedoBetween,2021.2.3,59.900792375109695,
,,,,25,0,25,0,,,,,,,,,,,,,,,,,,,,,,2272.5389044005424,None,,,,,,,,,,,,,,,,,chief,155,26,silent,new,null,2270.1879088999704,None,2270.1879088999704,None,1,1.7135978993028402,2270.1879088999704,None,1.7135978993028402,2271.9251664001495,None,2272.439079700038,None,2272.439079700038,None,r,0.07053279969841242,2272.439079700038,None,0.07053279969841242,,,106 Silent,001,2022_Nov_29_1035,ProdSingRedoBetween,2021.2.3,59.900792375109695,
,,,,26,0,26,0,,,,,,,,,,,,,,,,,,,,,,2275.5921147000045,None,,,,,,,,,,,,,,,,,frank,73,27,silent,old,red,2273.043981000781,None,2273.043981000781,None,6,1.9215866001322865,2273.043981000781,None,1.9215866001322865,2274.992429099977,None,2275.4982874002308,None,2275.4982874002308,None,r,0.0671735005453229,2275.4982874002308,None,0.0671735005453229,,,106 Silent,001,2022_Nov_29_1035,ProdSingRedoBetween,2021.2.3,59.900792375109695,
,,,,27,0,27,0,,,,,,,,,,,,,,,,,,,,,,2281.532489100471,None,,,,,,,,,,,,,,,,,brief,96,28,silent,new,null,2276.1002812003717,None,2276.1002812003717,None,6,2.6415216997265816,2276.1002812003717,None,2.6415216997265816,2278.77155970037,None,2279.28199960012,None,2279.28199960012,None,r,2.2198215005919337,2279.28199960012,None,2.2198215005919337,,,106 Silent,001,2022_Nov_29_1035,ProdSingRedoBetween,2021.2.3,59.900792375109695,
,,,,28,0,28,0,,,,,,,,,,,,,,,,,,,,,,2284.1338981008157,None,,,,,,,,,,,,,,,,,commercial,81,29,silent,old,red,2282.0380734000355,None,2282.0380734000355,None,6,1.4155900003388524,2282.0380734000355,None,1.4155900003388524,2283.4920850005,None,2284.0037166001275,None,2284.0037166001275,None,r,0.11388440057635307,2284.0037166001275,None,0.11388440057635307,,,106 Silent,001,2022_Nov_29_1035,ProdSingRedoBetween,2021.2.3,59.900792375109695,
,,,,29,0,29,0,,,,,,,,,,,,,,,,,,,,,,2288.974935100414,None,,,,,,,,,,,,,,,,,universal,17,30,silent,old,yellow,2284.6345072006807,None,2284.6345072006807,None,5,3.7152298996225,2284.6345072006807,None,3.7152298996225,2288.377306099981,None,2288.8888141000643,None,2288.8888141000643,None,r,0.06098479963839054,2288.8888141000643,None,0.06098479963839054,,,106 Silent,001,2022_Nov_29_1035,ProdSingRedoBetween,2021.2.3,59.900792375109695,
,,,,30,0,30,0,,,,,,,,,,,,,,,,,,,,,,2294.0963070001453,None,,,,,,,,,,,,,,,,,rough,171,31,silent,new,null,2289.497983600013,None,2289.497983600013,None,4,3.835499900393188,2289.497983600013,None,3.835499900393188,2293.361613200046,None,2293.883675900288,None,2293.883675900288,None,r,0.17788270022720098,2293.883675900288,None,0.17788270022720098,,,106 Silent,001,2022_Nov_29_1035,ProdSingRedoBetween,2021.2.3,59.900792375109695,
,,,,31,0,31,0,,,,,,,,,,,,,,,,,,,,,,2296.896699300036,None,,,,,,,,,,,,,,,,,working,95,32,silent,new,null,2294.6171810002998,None,2294.6171810002998,None,4,1.6923045003786683,2294.6171810002998,None,1.6923045003786683,2296.3321905005723,None,2296.8467773003504,None,2296.8467773003504,None,r,0.022890200838446617,2296.8467773003504,None,0.022890200838446617,,,106 Silent,001,2022_Nov_29_1035,ProdSingRedoBetween,2021.2.3,59.900792375109695,
,,,,32,0,32,0,,,,,,,,,,,,,,,,,,,,,,2301.972193799913,None,,,,,,,,,,,,,,,,,range,111,33,silent,new,null,2297.4087347006425,None,2297.4087347006425,None,5,2.180699000135064,2297.4087347006425,None,2.180699000135064,2299.6175194000825,None,2300.122570800595,None,2300.122570800595,None,r,1.8270863993093371,2300.122570800595,None,1.8270863993093371,,,106 Silent,001,2022_Nov_29_1035,ProdSingRedoBetween,2021.2.3,59.900792375109695,
,,,,33,0,33,0,,,,,,,,,,,,,,,,,,,,,,2304.639765200205,None,,,,,,,,,,,,,,,,,quarter,69,34,silent,old,red,2302.4989298004657,None,2302.4989298004657,None,6,1.4424224002286792,2302.4989298004657,None,1.4424224002286792,2303.9732296001166,None,2304.4930175002664,None,2304.4930175002664,None,r,0.12862030044198036,2304.4930175002664,None,0.12862030044198036,,,106 Silent,001,2022_Nov_29_1035,ProdSingRedoBetween,2021.2.3,59.900792375109695,
,,,,34,0,34,0,,,,,,,,,,,,,,,,,,,,,,2307.223715499975,None,,,,,,,,,,,,,,,,,colonel,9,35,silent,old,yellow,2305.159876900725,None,2305.159876900725,None,6,1.3655663998797536,2305.159876900725,None,1.3655663998797536,2306.5580106005073,None,2307.0761561002582,None,2307.0761561002582,None,r,0.12129640020430088,2307.0761561002582,None,0.12129640020430088,,,106 Silent,001,2022_Nov_29_1035,ProdSingRedoBetween,2021.2.3,59.900792375109695,
,,,,35,0,35,0,,,,,,,,,,,,,,,,,,,,,,2309.4758735001087,None,,,,,,,,,,,,,,,,,surprise,40,36,silent,old,blue,2307.7360409004614,None,2307.7360409004614,None,6,1.1734635001048446,2307.7360409004614,None,1.1734635001048446,2308.9267584001645,None,2309.4261639006436,None,2309.4261639006436,None,r,0.019594299606978893,2309.4261639006436,None,0.019594299606978893,,,106 Silent,001,2022_Nov_29_1035,ProdSingRedoBetween,2021.2.3,59.900792375109695,
,,,,36,0,36,0,,,,,,,,,,,,,,,,,,,,,,2313.2137716999277,None,,,,,,,,,,,,,,,,,member,97,37,silent,new,null,2309.978066300042,None,2309.978066300042,None,1,2.539423200301826,2309.978066300042,None,2.539423200301826,2312.545692800544,None,2313.046271700412,None,2313.046271700412,None,r,0.13533500023186207,2313.046271700412,None,0.13533500023186207,,,106 Silent,001,2022_Nov_29_1035,ProdSingRedoBetween,2021.2.3,59.900792375109695,
,,,,37,0,37,0,,,,,,,,,,,,,,,,,,,,,,2317.267033500597,None,,,,,,,,,,,,,,,,,provision,165,38,silent,new,null,2313.722752400674,None,2313.722752400674,None,1,1.5547783998772502,2313.722752400674,None,1.5547783998772502,2315.3043454000726,None,2315.82399840001,None,2315.82399840001,None,f,1.4216310000047088,2315.82399840001,None,1.4216310000047088,,,106 Silent,001,2022_Nov_29_1035,ProdSingRedoBetween,2021.2.3,59.900792375109695,
,,,,38,0,38,0,,,,,,,,,,,,,,,,,,,,,,2323.4398201005533,None,,,,,,,,,,,,,,,,,business,66,39,silent,old,red,2317.7690501008183,None,2317.7690501008183,None,5,4.340343800373375,2317.7690501008183,None,4.340343800373375,2322.139508300461,None,2322.6424978002906,None,2322.6424978002906,None,r,0.7709031002596021,2322.6424978002906,None,0.7709031002596021,,,106 Silent,001,2022_Nov_29_1035,ProdSingRedoBetween,2021.2.3,59.900792375109695,
,,,,39,0,39,0,,,,,,,,,,,,,,,,,,,,,,2325.8755876002833,None,,,,,,,,,,,,,,,,,exchange,59,40,silent,old,yellow,2323.947341900319,None,2323.947341900319,None,6,1.3381136003881693,2323.947341900319,None,1.3381136003881693,2325.309678000398,None,2325.8119488004595,None,2325.8119488004595,None,r,0.04151329956948757,2325.8119488004595,None,0.04151329956948757,,,106 Silent,001,2022_Nov_29_1035,ProdSingRedoBetween,2021.2.3,59.900792375109695,
,,,,40,0,40,0,,,,,,,,,,,,,,,,,,,,,,2329.078847900033,None,,,,,,,,,,,,,,,,,charter,151,41,silent,new,null,2326.3777513001114,None,2326.3777513001114,None,6,1.8357222005724907,2326.3777513001114,None,1.8357222005724907,2328.248350800015,None,2328.7618889007717,None,2328.7618889007717,None,f,0.299622000195086,2328.7618889007717,None,0.299622000195086,,,106 Silent,001,2022_Nov_29_1035,ProdSingRedoBetween,2021.2.3,59.900792375109695,
,,,,41,0,41,0,,,,,,,,,,,,,,,,,,,,,,2332.849342400208,None,,,,,,,,,,,,,,,,,color,140,42,silent,new,null,2329.585884800181,None,2329.585884800181,None,1,2.5555557999759912,2329.585884800181,None,2.5555557999759912,2332.166439300403,None,2332.6701688002795,None,2332.6701688002795,None,r,0.15122180059552193,2332.6701688002795,None,0.15122180059552193,,,106 Silent,001,2022_Nov_29_1035,ProdSingRedoBetween,2021.2.3,59.900792375109695,
,,,,42,0,42,0,,,,,,,,,,,,,,,,,,,,,,2335.4728089002892,None,,,,,,,,,,,,,,,,,treatment,56,43,silent,old,blue,2333.3587493002415,None,2333.3587493002415,None,6,1.5346826994791627,2333.3587493002415,None,1.5346826994791627,2334.9189974004403,None,2335.418739300221,None,2335.418739300221,None,r,0.02688600029796362,2335.418739300221,None,0.02688600029796362,,,106 Silent,001,2022_Nov_29_1035,ProdSingRedoBetween,2021.2.3,59.900792375109695,
,,,,43,0,43,0,,,,,,,,,,,,,,,,,,,,,,2338.488234099932,None,,,,,,,,,,,,,,,,,atmosphere,34,44,silent,old,blue,2335.9874738007784,None,2335.9874738007784,None,6,1.1539089009165764,2335.9874738007784,None,1.1539089009165764,2337.171313300729,None,2337.670794799924,None,2337.670794799924,None,r,0.7986467992886901,2337.670794799924,None,0.7986467992886901,,,106 Silent,001,2022_Nov_29_1035,ProdSingRedoBetween,2021.2.3,59.900792375109695,
,,,,44,0,44,0,,,,,,,,,,,,,,,,,,,,,,2342.6279019005597,None,,,,,,,,,,,,,,,,,orchestra,144,45,silent,new,null,2338.998444800265,None,2338.998444800265,None,1,1.751040999777615,2338.998444800265,None,1.751040999777615,2340.781844600104,None,2341.291086300276,None,2341.291086300276,None,r,1.3064949000254273,2341.291086300276,None,1.3064949000254273,,,106 Silent,001,2022_Nov_29_1035,ProdSingRedoBetween,2021.2.3,59.900792375109695,
,,,,45,0,45,0,,,,,,,,,,,,,,,,,,,,,,2345.7120135007426,None,,,,,,,,,,,,,,,,,judge,38,46,silent,old,blue,2343.158933000639,None,2343.158933000639,None,2,1.9345303000882268,2343.158933000639,None,1.9345303000882268,2345.1194435004145,None,2345.6329391002655,None,2345.6329391002655,None,r,0.060643600299954414,2345.6329391002655,None,0.060643600299954414,,,106 Silent,001,2022_Nov_29_1035,ProdSingRedoBetween,2021.2.3,59.900792375109695,
,,,,46,0,46,0,,,,,,,,,,,,,,,,,,,,,,2349.1986426003277,None,,,,,,,,,,,,,,,,,clean,53,47,silent,old,blue,2346.214283700101,None,2346.214283700101,None,4,2.319560999982059,2346.214283700101,None,2.319560999982059,2348.580489899963,None,2349.0821874001995,None,2349.0821874001995,None,r,0.09926050063222647,2349.0821874001995,None,0.09926050063222647,,,106 Silent,001,2022_Nov_29_1035,ProdSingRedoBetween,2021.2.3,59.900792375109695,
,,,,47,0,47,0,,,,,,,,,,,,,,,,,,,,,,2352.6863681999967,None,,,,,,,,,,,,,,,,,benefit,102,48,silent,new,null,2349.702582200058,None,2349.702582200058,None,4,1.622732000425458,2349.702582200058,None,1.622732000425458,2351.3602940002456,None,2351.868337900378,None,2351.868337900378,None,r,0.7931022997945547,2351.868337900378,None,0.7931022997945547,,,106 Silent,001,2022_Nov_29_1035,ProdSingRedoBetween,2021.2.3,59.900792375109695,
,,,,48,0,48,0,,,,,,,,,,,,,,,,,,,,,,2355.421716400422,None,,,,,,,,,,,,,,,,,service,175,49,silent,new,null,2353.201326900162,None,2353.201326900162,None,5,1.6201681001111865,2353.201326900162,None,1.6201681001111865,2354.8471194999292,None,2355.3548215003684,None,2355.3548215003684,None,r,0.04249399993568659,2355.3548215003684,None,0.04249399993568659,,,106 Silent,001,2022_Nov_29_1035,ProdSingRedoBetween,2021.2.3,59.900792375109695,
,,,,49,0,49,0,,,,,,,,,,,,,,,,,,,,,,2358.107761300169,None,,,,,,,,,,,,,,,,,youth,127,50,silent,new,null,2355.930820800364,None,2355.930820800364,None,1,1.5465893996879458,2355.930820800364,None,1.5465893996879458,2357.5069163003936,None,2358.01785940025,None,2358.01785940025,None,r,0.059610200114548206,2358.01785940025,None,0.059610200114548206,,,106 Silent,001,2022_Nov_29_1035,ProdSingRedoBetween,2021.2.3,59.900792375109695,
,,,,50,0,50,0,,,,,,,,,,,,,,,,,,,,,,2360.4434071006253,None,,,,,,,,,,,,,,,,,weight,112,51,silent,new,null,2358.61156410072,None,2358.61156410072,None,1,1.2418776992708445,2358.61156410072,None,1.2418776992708445,2359.8801822001114,None,2360.3974792007357,None,2360.3974792007357,None,r,0.016111000441014767,2360.3974792007357,None,0.016111000441014767,,,106 Silent,001,2022_Nov_29_1035,ProdSingRedoBetween,2021.2.3,59.900792375109695,
,,,,51,0,51,0,,,,,,,,,,,,,,,,,,,,,,2364.847851300612,None,,,,,,,,,,,,,,,,,listen,158,52,silent,new,null,2360.951535000466,None,2360.951535000466,None,4,3.093918800354004,2360.951535000466,None,3.093918800354004,2364.0701852999628,None,2364.580998199992,None,2364.580998199992,None,r,0.24844249989837408,2364.580998199992,None,0.24844249989837408,,,106 Silent,001,2022_Nov_29_1035,ProdSingRedoBetween,2021.2.3,59.900792375109695,
,,,,52,0,52,0,,,,,,,,,,,,,,,,,,,,,,2367.450136899948,None,,,,,,,,,,,,,,,,,place,57,53,silent,old,blue,2365.3529097000137,None,2365.3529097000137,None,4,1.5485576000064611,2365.3529097000137,None,1.5485576000064611,2366.92823900003,None,2367.433938600123,None,2367.433938600123,None,r,0.0033935001119971275,2367.433938600123,None,0.0033935001119971275,,,106 Silent,001,2022_Nov_29_1035,ProdSingRedoBetween,2021.2.3,59.900792375109695,
,,,,53,0,53,0,,,,,,,,,,,,,,,,,,,,,,2370.641130000353,None,,,,,,,,,,,,,,,,,object,61,54,silent,old,red,2367.9630096005276,None,2367.9630096005276,None,4,1.3944314001128078,2367.9630096005276,None,1.3944314001128078,2369.3887113006786,None,2369.9029748002067,None,2369.9029748002067,None,r,0.7185180997475982,2369.9029748002067,None,0.7185180997475982,,,106 Silent,001,2022_Nov_29_1035,ProdSingRedoBetween,2021.2.3,59.900792375109695,
,,,,54,0,54,0,,,,,,,,,,,,,,,,,,,,,,2373.559657400474,None,,,,,,,,,,,,,,,,,under,76,55,silent,old,red,2371.154173100367,None,2371.154173100367,None,1,1.7391158007085323,2371.154173100367,None,1.7391158007085323,2372.9249290004373,None,2373.4468371002004,None,2373.4468371002004,None,r,0.09471889957785606,2373.4468371002004,None,0.09471889957785606,,,106 Silent,001,2022_Nov_29_1035,ProdSingRedoBetween,2021.2.3,59.900792375109695,
,,,,55,0,55,0,,,,,,,,,,,,,,,,,,,,,,2376.1757222004235,None,,,,,,,,,,,,,,,,,reach,50,56,silent,old,blue,2374.0785447005183,None,2374.0785447005183,None,5,1.5348489005118608,2374.0785447005183,None,1.5348489005118608,2375.6427800999954,None,2376.149423200637,None,2376.149423200637,None,r,0.00788129959255457,2376.149423200637,None,0.00788129959255457,,,106 Silent,001,2022_Nov_29_1035,ProdSingRedoBetween,2021.2.3,59.900792375109695,
,,,,56,0,56,0,,,,,,,,,,,,,,,,,,,,,,2379.145615500398,None,,,,,,,,,,,,,,,,,management,39,57,silent,old,blue,2376.6799817001447,None,2376.6799817001447,None,6,1.3333827992901206,2376.6799817001447,None,1.3333827992901206,2378.0484426999465,None,2378.561626800336,None,2378.561626800336,None,r,0.5638145999982953,2378.561626800336,None,0.5638145999982953,,,106 Silent,001,2022_Nov_29_1035,ProdSingRedoBetween,2021.2.3,59.900792375109695,
,,,,57,0,57,0,,,,,,,,,,,,,,,,,,,,,,2383.6372179007158,None,,,,,,,,,,,,,,,,,account,14,58,silent,old,yellow,2379.651274400763,None,2379.651274400763,None,4,3.3700574999675155,2379.651274400763,None,3.3700574999675155,2383.049293300137,None,2383.557111000642,None,2383.557111000642,None,r,0.05630000028759241,2383.557111000642,None,0.05630000028759241,,,106 Silent,001,2022_Nov_29_1035,ProdSingRedoBetween,2021.2.3,59.900792375109695,
,,,,58,0,58,0,,,,,,,,,,,,,,,,,,,,,,2388.7049250006676,None,,,,,,,,,,,,,,,,,impact,166,59,silent,new,null,2384.153802100569,None,2384.153802100569,None,4,3.875471600331366,2384.153802100569,None,3.875471600331366,2388.055699300021,None,2388.5587458005175,None,2388.5587458005175,None,r,0.12663349974900484,2388.5587458005175,None,0.12663349974900484,,,106 Silent,001,2022_Nov_29_1035,ProdSingRedoBetween,2021.2.3,59.900792375109695,
,,,,59,0,59,0,,,,,,,,,,,,,,,,,,,,,,2393.3929294003174,None,,,,,,,,,,,,,,,,,travel,23,60,silent,old,yellow,2389.2160523999482,None,2389.2160523999482,None,6,3.549304699525237,2389.2160523999482,None,3.549304699525237,2392.8014171002433,None,2393.3122355006635,None,2393.3122355006635,None,r,0.053128100000321865,2393.3122355006635,None,0.053128100000321865,,,106 Silent,001,2022_Nov_29_1035,ProdSingRedoBetween,2021.2.3,59.900792375109695,
,,,,60,0,60,0,,,,,,,,,,,,,,,,,,,,,,2397.215761899948,None,,,,,,,,,,,,,,,,,graduate,129,61,silent,new,null,2393.8995386008173,None,2393.8995386008173,None,1,2.401969499886036,2393.8995386008173,None,2.401969499886036,2396.338347600773,None,2396.846218100749,None,2396.846218100749,None,r,0.35099050030112267,2396.846218100749,None,0.35099050030112267,,,106 Silent,001,2022_Nov_29_1035,ProdSingRedoBetween,2021.2.3,59.900792375109695,
,,,,61,0,61,0,,,,,,,,,,,,,,,,,,,,,,2399.5490884007886,None,,,,,,,,,,,,,,,,,shear,79,62,silent,old,red,2397.7306213006377,None,2397.7306213006377,None,1,1.218678600154817,2397.7306213006377,None,1.218678600154817,2398.9682142008096,None,2399.48217689991,None,2399.48217689991,None,r,0.051200599409639835,2399.48217689991,None,0.051200599409639835,,,106 Silent,001,2022_Nov_29_1035,ProdSingRedoBetween,2021.2.3,59.900792375109695,
,,,,62,0,62,0,,,,,,,,,,,,,,,,,,,,,,2402.201580100693,None,,,,,,,,,,,,,,,,,throw,177,63,silent,new,null,2400.0537993004546,None,2400.0537993004546,None,1,1.4555596997961402,2400.0537993004546,None,1.4555596997961402,2401.537676700391,None,2402.054398700595,None,2402.054398700595,None,r,0.12691129930317402,2402.054398700595,None,0.12691129930317402,,,106 Silent,001,2022_Nov_29_1035,ProdSingRedoBetween,2021.2.3,59.900792375109695,
,,,,63,0,63,0,,,,,,,,,,,,,,,,,,,,,,2404.5602039005607,None,,,,,,,,,,,,,,,,,history,164,64,silent,new,null,2402.710276800208,None,2402.710276800208,None,1,1.2310325000435114,2402.710276800208,None,1.2310325000435114,2403.971499199979,None,2404.4773086002097,None,2404.4773086002097,None,r,0.048199200071394444,2404.4773086002097,None,0.048199200071394444,,,106 Silent,001,2022_Nov_29_1035,ProdSingRedoBetween,2021.2.3,59.900792375109695,
,,,,64,0,64,0,,,,,,,,,,,,,,,,,,,,,,2406.91519010067,None,,,,,,,,,,,,,,,,,profession,18,65,silent,old,yellow,2405.071756700054,None,2405.071756700054,None,6,1.2615483002737164,2405.071756700054,None,1.2615483002737164,2406.356984000653,None,2406.856399600394,None,2406.856399600394,None,r,0.029236599802970886,2406.856399600394,None,0.029236599802970886,,,106 Silent,001,2022_Nov_29_1035,ProdSingRedoBetween,2021.2.3,59.900792375109695,
,,,,65,0,65,0,,,,,,,,,,,,,,,,,,,,,,2410.660595100373,None,,,,,,,,,,,,,,,,,split,138,66,silent,new,null,2407.4315169006586,None,2407.4315169006586,None,4,2.053771199658513,2407.4315169006586,None,2.053771199658513,2409.509362500161,None,2410.0096750007942,None,2410.0096750007942,None,r,0.6275210995227098,2410.0096750007942,None,0.6275210995227098,,,106 Silent,001,2022_Nov_29_1035,ProdSingRedoBetween,2021.2.3,59.900792375109695,
,,,,66,0,66,0,,,,,,,,,,,,,,,,,,,,,,2413.1139093004167,None,,,,,,,,,,,,,,,,,pancakes,90,67,silent,new,null,2411.1611777003855,None,2411.1611777003855,None,1,1.324091199785471,2411.1611777003855,None,1.324091199785471,2412.514044900425,None,2413.0326490001753,None,2413.0326490001753,None,r,0.06067540030926466,2413.0326490001753,None,0.06067540030926466,,,106 Silent,001,2022_Nov_29_1035,ProdSingRedoBetween,2021.2.3,59.900792375109695,
,,,,67,0,67,0,,,,,,,,,,,,,,,,,,,,,,2417.6170783005655,None,,,,,,,,,,,,,,,,,concern,167,68,silent,new,null,2413.6221872000024,None,2413.6221872000024,None,1,2.7831317000091076,2413.6221872000024,None,2.7831317000091076,2416.4387506004423,None,2416.953498300165,None,2416.953498300165,None,r,0.635775700211525,2416.953498300165,None,0.635775700211525,,,106 Silent,001,2022_Nov_29_1035,ProdSingRedoBetween,2021.2.3,59.900792375109695,
,,,,68,0,68,0,,,,,,,,,,,,,,,,,,,,,,2421.8054748000577,None,,,,,,,,,,,,,,,,,instrument,101,69,silent,new,null,2418.125599300489,None,2418.125599300489,None,6,2.8558270996436477,2418.125599300489,None,2.8558270996436477,2421.0063177002594,None,2421.524185200222,None,2421.524185200222,None,r,0.24925620015710592,2421.524185200222,None,0.24925620015710592,,,106 Silent,001,2022_Nov_29_1035,ProdSingRedoBetween,2021.2.3,59.900792375109695,
,,,,69,0,69,0,,,,,,,,,,,,,,,,,,,,,,2424.347209200263,None,,,,,,,,,,,,,,,,,harmony,21,70,silent,old,yellow,2422.3099785000086,None,2422.3099785000086,None,6,1.3754735998809338,2422.3099785000086,None,1.3754735998809338,2423.7087371004745,None,2424.2269736006856,None,2424.2269736006856,None,r,0.09045379981398582,2424.2269736006856,None,0.09045379981398582,,,106 Silent,001,2022_Nov_29_1035,ProdSingRedoBetween,2021.2.3,59.900792375109695,
,,,,70,0,70,0,,,,,,,,,,,,,,,,,,,,,,2427.127518100664,None,,,,,,,,,,,,,,,,,material,150,71,silent,new,null,2424.858287299983,None,2424.858287299983,None,6,1.1710537001490593,2424.858287299983,None,1.1710537001490593,2426.062166900374,None,2426.5759586002678,None,2426.5759586002678,None,r,0.5253322999924421,2426.5759586002678,None,0.5253322999924421,,,106 Silent,001,2022_Nov_29_1035,ProdSingRedoBetween,2021.2.3,59.900792375109695,
,,,,71,0,71,0,,,,,,,,,,,,,,,,,,,,,,2429.700392600149,None,,,,,,,,,,,,,,,,,disease,109,72,silent,new,null,2427.6376193007454,None,2427.6376193007454,None,1,1.2236353000625968,2427.6376193007454,None,1.2236353000625968,2428.880069400184,None,2429.397405700758,None,2429.397405700758,None,r,0.27195299975574017,2429.397405700758,None,0.27195299975574017,,,106 Silent,001,2022_Nov_29_1035,ProdSingRedoBetween,2021.2.3,59.900792375109695,
,,,,72,0,72,0,,,,,,,,,,,,,,,,,,,,,,2432.1314564999193,None,,,,,,,,,,,,,,,,,union,2,73,silent,old,yellow,2430.217068900354,None,2430.217068900354,None,1,1.1962007004767656,2430.217068900354,None,1.1962007004767656,2431.4328797003254,None,2431.9508564006537,None,2431.9508564006537,None,r,0.1583211999386549,2431.9508564006537,None,0.1583211999386549,,,106 Silent,001,2022_Nov_29_1035,ProdSingRedoBetween,2021.2.3,59.900792375109695,
,,,,73,0,73,0,,,,,,,,,,,,,,,,,,,,,,2434.9896245002747,None,,,,,,,,,,,,,,,,,quiet,83,74,silent,old,red,2432.634841300547,None,2432.634841300547,None,5,1.770444999448955,2432.634841300547,None,1.770444999448955,2434.434924200177,None,2434.9433238003403,None,2434.9433238003403,None,r,0.022190400399267673,2434.9433238003403,None,0.022190400399267673,,,106 Silent,001,2022_Nov_29_1035,ProdSingRedoBetween,2021.2.3,59.900792375109695,
,,,,74,0,74,0,,,,,,,,,,,,,,,,,,,,,,2437.7038533007726,None,,,,,,,,,,,,,,,,,session,55,75,silent,old,blue,2435.5119088999927,None,2435.5119088999927,None,5,1.565404100343585,2435.5119088999927,None,1.565404100343585,2437.110342000611,None,2437.6235426003113,None,2437.6235426003113,None,r,0.061648800037801266,2437.6235426003113,None,0.061648800037801266,,,106 Silent,001,2022_Nov_29_1035,ProdSingRedoBetween,2021.2.3,59.900792375109695,
,,,,75,0,75,0,,,,,,,,,,,,,,,,,,,,,,2440.044591700658,None,,,,,,,,,,,,,,,,,figure,100,76,silent,new,null,2438.217271900736,None,2438.217271900736,None,5,1.268126199953258,2438.217271900736,None,1.268126199953258,2439.511384400539,None,2440.026018500328,None,2440.026018500328,None,r,0.003238399513065815,2440.026018500328,None,0.003238399513065815,,,106 Silent,001,2022_Nov_29_1035,ProdSingRedoBetween,2021.2.3,59.900792375109695,
,,,,76,0,76,0,,,,,,,,,,,,,,,,,,,,,,2442.643707400188,None,,,,,,,,,,,,,,,,,smooth,119,77,silent,new,null,2440.5621926002204,None,2440.5621926002204,None,3,1.4752829000353813,2440.5621926002204,None,1.4752829000353813,2442.06661810074,None,2442.581515500322,None,2442.581515500322,None,r,0.039925700053572655,2442.581515500322,None,0.039925700053572655,,,106 Silent,001,2022_Nov_29_1035,ProdSingRedoBetween,2021.2.3,59.900792375109695,
,,,,77,0,77,0,,,,,,,,,,,,,,,,,,,,,,2445.177980400622,None,,,,,,,,,,,,,,,,,level,74,78,silent,old,red,2443.165901100263,None,2443.165901100263,None,3,1.4394373996183276,2443.165901100263,None,1.4394373996183276,2444.6338805006817,None,2445.144720800221,None,2445.144720800221,None,r,0.012521700002253056,2445.144720800221,None,0.012521700002253056,,,106 Silent,001,2022_Nov_29_1035,ProdSingRedoBetween,2021.2.3,59.900792375109695,
,,,,78,0,78,0,,,,,,,,,,,,,,,,,,,,,,2447.6801173007116,None,,,,,,,,,,,,,,,,,substance,156,79,silent,new,null,2445.685916600749,None,2445.685916600749,None,6,1.4154791999608278,2445.685916600749,None,1.4154791999608278,2447.1359011000022,None,2447.6471378002316,None,2447.6471378002316,None,r,0.014148200862109661,2447.6471378002316,None,0.014148200862109661,,,106 Silent,001,2022_Nov_29_1035,ProdSingRedoBetween,2021.2.3,59.900792375109695,
,,,,79,0,79,0,,,,,,,,,,,,,,,,,,,,,,2454.522529900074,None,,,,,,,,,,,,,,,,,notice,7,80,silent,old,yellow,2448.189919900149,None,2448.189919900149,None,6,5.295293499715626,2448.189919900149,None,5.295293499715626,2453.5056306999177,None,2454.0233687004074,None,2454.0233687004074,None,r,0.47792910039424896,2454.0233687004074,None,0.47792910039424896,,,106 Silent,001,2022_Nov_29_1035,ProdSingRedoBetween,2021.2.3,59.900792375109695,
,,,,80,0,80,0,,,,,,,,,,,,,,,,,,,,,,2457.54027520027,None,,,,,,,,,,,,,,,,,edition,19,81,silent,old,yellow,2455.0381818003953,None,2455.0381818003953,None,1,1.8391351997852325,2455.0381818003953,None,1.8391351997852325,2456.908805700019,None,2457.4238678999245,None,2457.4238678999245,None,r,0.10126059968024492,2457.4238678999245,None,0.10126059968024492,,,106 Silent,001,2022_Nov_29_1035,ProdSingRedoBetween,2021.2.3,59.900792375109695,
,,,,81,0,81,0,,,,,,,,,,,,,,,,,,,,,,2459.8258655006066,None,,,,,,,,,,,,,,,,,design,93,82,silent,new,null,2458.042845500633,None,2458.042845500633,None,1,1.1945023005828261,2458.042845500633,None,1.1945023005828261,2459.2668852005154,None,2459.778571800329,None,2459.778571800329,None,r,0.018655899912118912,2459.778571800329,None,0.018655899912118912,,,106 Silent,001,2022_Nov_29_1035,ProdSingRedoBetween,2021.2.3,59.900792375109695,
,,,,82,0,82,0,,,,,,,,,,,,,,,,,,,,,,2462.3615991007537,None,,,,,,,,,,,,,,,,,department,12,83,silent,old,yellow,2460.3333287006244,None,2460.3333287006244,None,1,1.0639173006638885,2460.3333287006244,None,1.0639173006638885,2461.4277420006692,None,2461.9278549002483,None,2461.9278549002483,None,r,0.4052780997008085,2461.9278549002483,None,0.4052780997008085,,,106 Silent,001,2022_Nov_29_1035,ProdSingRedoBetween,2021.2.3,59.900792375109695,
,,,,83,0,83,0,,,,,,,,,,,,,,,,,,,,,,2466.7002854999155,None,,,,,,,,,,,,,,,,,cousin,48,84,silent,old,blue,2462.868259999901,None,2462.868259999901,None,6,1.9848865997046232,2462.868259999901,None,1.9848865997046232,2464.8845514003187,None,2465.398129899986,None,2465.398129899986,None,r,1.2791328998282552,2465.398129899986,None,1.2791328998282552,,,106 Silent,001,2022_Nov_29_1035,ProdSingRedoBetween,2021.2.3,59.900792375109695,
,,,,84,0,84,0,,,,,,,,,,,,,,,,,,,,,,2474.456892900169,None,,,,,,,,,,,,,,,,,incident,99,85,silent,new,null,2467.206666599959,None,2467.206666599959,None,6,5.982440199702978,2467.206666599959,None,5.982440199702978,2473.205881100148,None,2473.718287100084,None,2473.718287100084,None,r,0.710920499637723,2473.718287100084,None,0.710920499637723,,,106 Silent,001,2022_Nov_29_1035,ProdSingRedoBetween,2021.2.3,59.900792375109695,
,,,,85,0,85,0,,,,,,,,,,,,,,,,,,,,,,2478.5151815004647,None,,,,,,,,,,,,,,,,,burden,139,86,silent,new,null,2474.9594435002655,None,2474.9594435002655,None,6,2.5497653000056744,2474.9594435002655,None,2.5497653000056744,2477.5324192000553,None,2478.0478997007012,None,2478.0478997007012,None,r,0.44550339970737696,2478.0478997007012,None,0.44550339970737696,,,106 Silent,001,2022_Nov_29_1035,ProdSingRedoBetween,2021.2.3,59.900792375109695,
,,,,86,0,86,0,,,,,,,,,,,,,,,,,,,,,,2480.996932500042,None,,,,,,,,,,,,,,,,,population,16,87,silent,old,yellow,2479.033102000132,None,2479.033102000132,None,6,0.9643818000331521,2479.033102000132,None,0.9643818000331521,2480.0233527002856,None,2480.535246600397,None,2480.535246600397,None,r,0.4379679998382926,2480.535246600397,None,0.4379679998382926,,,106 Silent,001,2022_Nov_29_1035,ProdSingRedoBetween,2021.2.3,59.900792375109695,
,,,,87,0,87,0,,,,,,,,,,,,,,,,,,,,,,2483.601595000364,None,,,,,,,,,,,,,,,,,length,37,88,silent,old,blue,2481.504863800481,None,2481.504863800481,None,2,1.5243145003914833,2481.504863800481,None,1.5243145003914833,2483.0502887004986,None,2483.550117100589,None,2483.550117100589,None,r,0.023183099925518036,2483.550117100589,None,0.023183099925518036,,,106 Silent,001,2022_Nov_29_1035,ProdSingRedoBetween,2021.2.3,59.900792375109695,
,,,,88,0,88,0,,,,,,,,,,,,,,,,,,,,,,2486.2204827005044,None,,,,,,,,,,,,,,,,,victory,65,89,silent,old,red,2484.12204330042,None,2484.12204330042,None,1,1.4350699000060558,2484.12204330042,None,1.4350699000060558,2485.5885346001014,None,2486.104003400542,None,2486.104003400542,None,r,0.09321269951760769,2486.104003400542,None,0.09321269951760769,,,106 Silent,001,2022_Nov_29_1035,ProdSingRedoBetween,2021.2.3,59.900792375109695,
,,,,89,0,89,0,,,,,,,,,,,,,,,,,,,,,,2488.754911600612,None,,,,,,,,,,,,,,,,,heavy,70,90,silent,old,red,2486.7427526004612,None,2486.7427526004612,None,5,1.4303983999416232,2486.7427526004612,None,1.4303983999416232,2488.2057623006403,None,2488.706643300131,None,2488.706643300131,None,r,0.018450300209224224,2488.706643300131,None,0.018450300209224224,,,106 Silent,001,2022_Nov_29_1035,ProdSingRedoBetween,2021.2.3,59.900792375109695,
,,,,90,0,90,0,,,,,,,,,,,,,,,,,,,,,,2491.44069590047,None,,,,,,,,,,,,,,,,,height,6,91,silent,old,yellow,2489.2556771999225,None,2489.2556771999225,None,6,1.5334626007825136,2489.2556771999225,None,1.5334626007825136,2490.808652400039,None,2491.326724300161,None,2491.326724300161,None,r,0.08637669961899519,2491.326724300161,None,0.08637669961899519,,,106 Silent,001,2022_Nov_29_1035,ProdSingRedoBetween,2021.2.3,59.900792375109695,
,,,,91,0,91,0,,,,,,,,,,,,,,,,,,,,,,2494.0933656003326,None,,,,,,,,,,,,,,,,,pretty,131,92,silent,new,null,2491.9503317000344,None,2491.9503317000344,None,1,1.4948287000879645,2491.9503317000344,None,1.4948287000879645,2493.477169200778,None,2493.984439600259,None,2493.984439600259,None,r,0.08468599990010262,2493.984439600259,None,0.08468599990010262,,,106 Silent,001,2022_Nov_29_1035,ProdSingRedoBetween,2021.2.3,59.900792375109695,
,,,,92,0,92,0,,,,,,,,,,,,,,,,,,,,,,2496.4624722003937,None,,,,,,,,,,,,,,,,,debate,91,93,silent,new,null,2494.612560700625,None,2494.612560700625,None,1,1.2564848000183702,2494.612560700625,None,1.2564848000183702,2495.897118200548,None,2496.412326800637,None,2496.412326800637,None,r,0.03281969949603081,2496.412326800637,None,0.03281969949603081,,,106 Silent,001,2022_Nov_29_1035,ProdSingRedoBetween,2021.2.3,59.900792375109695,
,,,,93,0,93,0,,,,,,,,,,,,,,,,,,,,,,2499.73431430012,None,,,,,,,,,,,,,,,,,century,98,94,silent,new,null,2496.9740683007985,None,2496.9740683007985,None,1,2.1350955003872514,2496.9740683007985,None,2.1350955003872514,2499.133249600418,None,2499.639243900776,None,2499.639243900776,None,r,0.06210299953818321,2499.639243900776,None,0.06210299953818321,,,106 Silent,001,2022_Nov_29_1035,ProdSingRedoBetween,2021.2.3,59.900792375109695,
,,,,94,0,94,0,,,,,,,,,,,,,,,,,,,,,,2501.9512451002374,None,,,,,,,,,,,,,,,,,trash,43,95,silent,old,blue,2500.255323700607,None,2500.255323700607,None,1,1.0537120001390576,2500.255323700607,None,1.0537120001390576,2501.3372180005535,None,2501.8511960003525,None,2501.8511960003525,None,r,0.0739529998973012,2501.8511960003525,None,0.0739529998973012,,,106 Silent,001,2022_Nov_29_1035,ProdSingRedoBetween,2021.2.3,59.900792375109695,
,,,,95,0,95,0,,,,,,,,,,,,,,,,,,,,,,2505.1377350008115,None,,,,,,,,,,,,,,,,,medicine,132,96,silent,new,null,2502.4648938002065,None,2502.4648938002065,None,1,1.3962701000273228,2502.4648938002065,None,1.3962701000273228,2503.888602199964,None,2504.404386700131,None,2504.404386700131,None,r,0.7127649998292327,2504.404386700131,None,0.7127649998292327,,,106 Silent,001,2022_Nov_29_1035,ProdSingRedoBetween,2021.2.3,59.900792375109695,
,,,,96,0,96,0,,,,,,,,,,,,,,,,,,,,,,2508.1240012999624,None,,,,,,,,,,,,,,,,,committee,159,97,silent,new,null,2505.638374800794,None,2505.638374800794,None,5,1.430850399658084,2505.638374800794,None,1.430850399658084,2507.094367600046,None,2507.6068025007844,None,2507.6068025007844,None,r,0.4943300997838378,2507.6068025007844,None,0.4943300997838378,,,106 Silent,001,2022_Nov_29_1035,ProdSingRedoBetween,2021.2.3,59.900792375109695,
,,,,97,0,97,0,,,,,,,,,,,,,,,,,,,,,,2510.676650600508,None,,,,,,,,,,,,,,,,,minute,122,98,silent,new,null,2508.6320975003764,None,2508.6320975003764,None,1,1.4050451004877687,2508.6320975003764,None,1.4050451004877687,2510.060520700179,None,2510.569810400717,None,2510.569810400717,None,r,0.07532520033419132,2510.569810400717,None,0.07532520033419132,,,106 Silent,001,2022_Nov_29_1035,ProdSingRedoBetween,2021.2.3,59.900792375109695,
,,,,98,0,98,0,,,,,,,,,,,,,,,,,,,,,,2512.7975913006812,None,,,,,,,,,,,,,,,,,spoke,133,99,silent,new,null,2511.1863493006676,None,2511.1863493006676,None,1,0.9867842998355627,2511.1863493006676,None,0.9867842998355627,2512.197584300302,None,2512.7164592007175,None,2512.7164592007175,None,r,0.048809099942445755,2512.7164592007175,None,0.048809099942445755,,,106 Silent,001,2022_Nov_29_1035,ProdSingRedoBetween,2021.2.3,59.900792375109695,
,,,,99,0,99,0,,,,,,,,,,,,,,,,,,,,,,2515.069082800299,None,,,,,,,,,,,,,,,,,country,161,100,silent,new,null,2513.319155100733,None,2513.319155100733,None,1,1.1498713996261358,2513.319155100733,None,1.1498713996261358,2514.4971765000373,None,2514.9975393004715,None,2514.9975393004715,None,r,0.03952729981392622,2514.9975393004715,None,0.03952729981392622,,,106 Silent,001,2022_Nov_29_1035,ProdSingRedoBetween,2021.2.3,59.900792375109695,
,,,,100,0,100,0,,,,,,,,,,,,,,,,,,,,,,2517.3541742004454,None,,,,,,,,,,,,,,,,,principal,41,101,silent,old,blue,2515.5899622002617,None,2515.5899622002617,None,1,1.1511946003884077,2515.5899622002617,None,1.1511946003884077,2516.769555900246,None,2517.2958155004308,None,2517.2958155004308,None,r,0.021625100634992123,2517.2958155004308,None,0.021625100634992123,,,106 Silent,001,2022_Nov_29_1035,ProdSingRedoBetween,2021.2.3,59.900792375109695,
,,,,101,0,101,0,,,,,,,,,,,,,,,,,,,,,,2519.4352871999145,None,,,,,,,,,,,,,,,,,safety,114,102,silent,new,null,2517.8738287007436,None,2517.8738287007436,None,1,0.9953219005838037,2517.8738287007436,None,0.9953219005838037,2518.8883047001436,None,2519.4057796001434,None,2519.4057796001434,None,r,0.00738890003412962,2519.4057796001434,None,0.00738890003412962,,,106 Silent,001,2022_Nov_29_1035,ProdSingRedoBetween,2021.2.3,59.900792375109695,
,,,,102,0,102,0,,,,,,,,,,,,,,,,,,,,,,2521.687558799982,None,,,,,,,,,,,,,,,,,childhood,62,103,silent,old,red,2519.9360415004194,None,2519.9360415004194,None,1,1.1732156993821263,2519.9360415004194,None,1.1732156993821263,2521.1446118000895,None,2521.6573243001476,None,2521.6573243001476,None,r,0.003835899755358696,2521.6573243001476,None,0.003835899755358696,,,106 Silent,001,2022_Nov_29_1035,ProdSingRedoBetween,2021.2.3,59.900792375109695,
,,,,103,0,103,0,,,,,,,,,,,,,,,,,,,,,,2525.474366100505,None,,,,,,,,,,,,,,,,,property,36,104,silent,old,blue,2522.196338900365,None,2522.196338900365,None,6,2.128650499507785,2522.196338900365,None,2.128650499507785,2524.342498900369,None,2524.857386399992,None,2524.857386399992,None,r,0.5956793008372188,2524.857386399992,None,0.5956793008372188,,,106 Silent,001,2022_Nov_29_1035,ProdSingRedoBetween,2021.2.3,59.900792375109695,
,,,,104,0,104,0,,,,,,,,,,,,,,,,,,,,,,2528.0820032004267,None,,,,,,,,,,,,,,,,,signal,115,105,silent,new,null,2525.9803097005934,None,2525.9803097005934,None,1,1.512745900079608,2525.9803097005934,None,1.512745900079608,2527.5119559001178,None,2528.0319412006065,None,2528.0319412006065,None,r,0.02133760042488575,2528.0319412006065,None,0.02133760042488575,,,106 Silent,001,2022_Nov_29_1035,ProdSingRedoBetween,2021.2.3,59.900792375109695,
,,,,105,0,105,0,,,,,,,,,,,,,,,,,,,,,,2531.347749000415,None,,,,,,,,,,,,,,,,,partner,33,106,silent,old,blue,2528.5953758005053,None,2528.5953758005053,None,6,1.6179199004545808,2528.5953758005053,None,1.6179199004545808,2530.230864100158,None,2530.7466194005683,None,2530.7466194005683,None,r,0.5783929005265236,2530.7466194005683,None,0.5783929005265236,,,106 Silent,001,2022_Nov_29_1035,ProdSingRedoBetween,2021.2.3,59.900792375109695,
,,,,106,0,106,0,,,,,,,,,,,,,,,,,,,,,,2536.1350944004953,None,,,,,,,,,,,,,,,,,dispute,4,107,silent,old,yellow,2531.851124700159,None,2531.851124700159,None,4,3.3219322999939322,2531.851124700159,None,3.3219322999939322,2535.201003400609,None,2535.7030699001625,None,2535.7030699001625,None,r,0.41395500022917986,2535.7030699001625,None,0.41395500022917986,,,106 Silent,001,2022_Nov_29_1035,ProdSingRedoBetween,2021.2.3,59.900792375109695,
,,,,107,0,107,0,,,,,,,,,,,,,,,,,,,,,,2538.320790800266,None,,,,,,,,,,,,,,,,,number,20,108,silent,old,yellow,2536.6356840999797,None,2536.6356840999797,None,1,1.0813327003270388,2536.6356840999797,None,1.0813327003270388,2537.739159900695,None,2538.2541850004345,None,2538.2541850004345,None,r,0.04704369977116585,2538.2541850004345,None,0.04704369977116585,,,106 Silent,001,2022_Nov_29_1035,ProdSingRedoBetween,2021.2.3,59.900792375109695,
,,,,108,0,108,0,,,,,,,,,,,,,,,,,,,,,,2540.540845000185,None,,,,,,,,,,,,,,,,,alert,28,109,silent,old,yellow,2538.8214042000473,None,2538.8214042000473,None,1,1.0956837004050612,2538.8214042000473,None,1.0956837004050612,2539.941094200127,None,2540.4564272006974,None,2540.4564272006974,None,r,0.05289429984986782,2540.4564272006974,None,0.05289429984986782,,,106 Silent,001,2022_Nov_29_1035,ProdSingRedoBetween,2021.2.3,59.900792375109695,
,,,,109,0,109,0,,,,,,,,,,,,,,,,,,,,,,2542.7585781002417,None,,,,,,,,,,,,,,,,,character,120,110,silent,new,null,2541.0453812005,None,2541.0453812005,None,1,1.1516332998871803,2541.0453812005,None,1.1516332998871803,2542.2254723003134,None,2542.72528410051,None,2542.72528410051,None,r,0.007732699625194073,2542.72528410051,None,0.007732699625194073,,,106 Silent,001,2022_Nov_29_1035,ProdSingRedoBetween,2021.2.3,59.900792375109695,
,,,,110,0,110,0,,,,,,,,,,,,,,,,,,,,,,2545.1821681000292,None,,,,,,,,,,,,,,,,,capital,42,111,silent,old,blue,2543.2643015999347,None,2543.2643015999347,None,1,1.1487794006243348,2543.2643015999347,None,1.1487794006243348,2544.447617799975,None,2544.9668203005567,None,2544.9668203005567,None,r,0.19049189984798431,2544.9668203005567,None,0.19049189984798431,,,106 Silent,001,2022_Nov_29_1035,ProdSingRedoBetween,2021.2.3,59.900792375109695,
,,,,111,0,111,0,,,,,,,,,,,,,,,,,,,,,,2547.9303295006976,None,,,,,,,,,,,,,,,,,primary,72,112,silent,old,red,2545.7029047003016,None,2545.7029047003016,None,1,1.6542945001274347,2545.7029047003016,None,1.6542945001274347,2547.3890939000994,None,2547.902099300176,None,2547.902099300176,None,r,0.007033300586044788,2547.902099300176,None,0.007033300586044788,,,106 Silent,001,2022_Nov_29_1035,ProdSingRedoBetween,2021.2.3,59.900792375109695,
,,,,112,0,112,0,,,,,,,,,,,,,,,,,,,,,,2550.69986240007,None,,,,,,,,,,,,,,,,,government,68,113,silent,old,red,2548.4401590004563,None,2548.4401590004563,None,6,1.180800899863243,2548.4401590004563,None,1.180800899863243,2549.651974800043,None,2550.170088400133,None,2550.170088400133,None,r,0.507073599845171,2550.170088400133,None,0.507073599845171,,,106 Silent,001,2022_Nov_29_1035,ProdSingRedoBetween,2021.2.3,59.900792375109695,
,,,,113,0,113,0,,,,,,,,,,,,,,,,,,,,,,2554.1031838003546,None,,,,,,,,,,,,,,,,,surface,10,114,silent,old,yellow,2551.2094447007403,None,2551.2094447007403,None,2,1.8516159998252988,2551.2094447007403,None,1.8516159998252988,2553.0885418001562,None,2553.606701700017,None,2553.606701700017,None,r,0.47825520019978285,2553.606701700017,None,0.47825520019978285,,,106 Silent,001,2022_Nov_29_1035,ProdSingRedoBetween,2021.2.3,59.900792375109695,
,,,,114,0,114,0,,,,,,,,,,,,,,,,,,,,,,2556.4555418007076,None,,,,,,,,,,,,,,,,,fight,35,115,silent,old,blue,2554.6165642002597,None,2554.6165642002597,None,6,1.2204539999365807,2554.6165642002597,None,1.2204539999365807,2555.857127400115,None,2556.372220000252,None,2556.372220000252,None,r,0.06478490028530359,2556.372220000252,None,0.06478490028530359,,,106 Silent,001,2022_Nov_29_1035,ProdSingRedoBetween,2021.2.3,59.900792375109695,
,,,,115,0,115,0,,,,,,,,,,,,,,,,,,,,,,2559.1949616000056,None,,,,,,,,,,,,,,,,,produce,82,116,silent,old,red,2556.9644026001915,None,2556.9644026001915,None,6,1.2166005996987224,2556.9644026001915,None,1.2166005996987224,2558.208728400059,None,2558.71031470038,None,2558.71031470038,None,r,0.4548912001773715,2558.71031470038,None,0.4548912001773715,,,106 Silent,001,2022_Nov_29_1035,ProdSingRedoBetween,2021.2.3,59.900792375109695,
,,,,116,0,116,0,,,,,,,,,,,,,,,,,,,,,,2561.844611099921,None,,,,,,,,,,,,,,,,,phrase,31,117,silent,old,blue,2559.727537500672,None,2559.727537500672,None,6,1.149426900781691,2559.727537500672,None,1.149426900781691,2560.898225400597,None,2561.410458200611,None,2561.410458200611,None,r,0.40270490013062954,2561.410458200611,None,0.40270490013062954,,,106 Silent,001,2022_Nov_29_1035,ProdSingRedoBetween,2021.2.3,59.900792375109695,
,,,,117,0,117,0,,,,,,,,,,,,,,,,,,,,,,2564.2297827005386,None,,,,,,,,,,,,,,,,,point,64,118,silent,old,red,2562.3446235004812,None,2562.3446235004812,None,1,1.276520600542426,2562.3446235004812,None,1.276520600542426,2563.6463993005455,None,2564.153639600612,None,2564.153639600612,None,r,0.05944650061428547,2564.153639600612,None,0.05944650061428547,,,106 Silent,001,2022_Nov_29_1035,ProdSingRedoBetween,2021.2.3,59.900792375109695,
,,,,118,0,118,0,,,,,,,,,,,,,,,,,,,,,,2567.1359464004636,None,,,,,,,,,,,,,,,,,music,46,119,silent,old,blue,2564.7463043006137,None,2564.7463043006137,None,1,1.3627121997997165,2564.7463043006137,None,1.3627121997997165,2566.133573400788,None,2566.6534966006875,None,2566.6534966006875,None,r,0.45565340016037226,2566.6534966006875,None,0.45565340016037226,,,106 Silent,001,2022_Nov_29_1035,ProdSingRedoBetween,2021.2.3,59.900792375109695,
,,,,119,0,119,0,,,,,,,,,,,,,,,,,,,,,,2569.568404099904,None,,,,,,,,,,,,,,,,,territory,94,120,silent,new,null,2567.6601349003613,None,2567.6601349003613,None,1,1.136888600885868,2567.6601349003613,None,1.136888600885868,2568.8193600000814,None,2569.32391080074,None,2569.32391080074,None,r,0.22518640011548996,2569.32391080074,None,0.22518640011548996,,,106 Silent,001,2022_Nov_29_1035,ProdSingRedoBetween,2021.2.3,59.900792375109695,
,,,,120,0,120,0,,,,,,,,,,,,,,,,,,,,,,2572.187811700627,None,,,,,,,,,,,,,,,,,mechanical,27,121,silent,old,yellow,2570.0847308002412,None,2570.0847308002412,None,1,1.4803272001445293,2570.0847308002412,None,1.4803272001445293,2571.5948779005557,None,2572.1047355001792,None,2572.1047355001792,None,r,0.06816809996962547,2572.1047355001792,None,0.06816809996962547,,,106 Silent,001,2022_Nov_29_1035,ProdSingRedoBetween,2021.2.3,59.900792375109695,
,,,,121,0,121,0,,,,,,,,,,,,,,,,,,,,,,2576.9926819000393,None,,,,,,,,,,,,,,,,,accident,162,122,silent,new,null,2572.688577200286,None,2572.688577200286,None,4,3.3724329005926847,2572.688577200286,None,3.3724329005926847,2576.0917687006295,None,2576.5978300003335,None,2576.5978300003335,None,r,0.36713190004229546,2576.5978300003335,None,0.36713190004229546,,,106 Silent,001,2022_Nov_29_1035,ProdSingRedoBetween,2021.2.3,59.900792375109695,
,,,,122,0,122,0,,,,,,,,,,,,,,,,,,,,,,2579.1781432004645,None,,,,,,,,,,,,,,,,,income,25,123,silent,old,yellow,2577.499717500061,None,2577.499717500061,None,1,1.0734457997605205,2577.499717500061,None,1.0734457997605205,2578.605005000718,None,2579.111701000482,None,2579.111701000482,None,r,0.03738699946552515,2579.111701000482,None,0.03738699946552515,,,106 Silent,001,2022_Nov_29_1035,ProdSingRedoBetween,2021.2.3,59.900792375109695,
,,,,123,0,123,0,,,,,,,,,,,,,,,,,,,,,,2585.784845800139,None,,,,,,,,,,,,,,,,,corner,152,124,silent,new,null,2579.685186800547,None,2579.685186800547,None,6,5.223818700760603,2579.685186800547,None,5.223818700760603,2584.9365958999842,None,2585.451281300746,None,2585.451281300746,None,r,0.3138018995523453,2585.451281300746,None,0.3138018995523453,,,106 Silent,001,2022_Nov_29_1035,ProdSingRedoBetween,2021.2.3,59.900792375109695,
,,,,124,0,124,0,,,,,,,,,,,,,,,,,,,,,,2587.9870098000392,None,,,,,,,,,,,,,,,,,error,3,125,silent,old,yellow,2586.287819799967,None,2586.287819799967,None,1,1.085249699652195,2586.287819799967,None,1.085249699652195,2587.4104924006388,None,2587.9204249000177,None,2587.9204249000177,None,r,0.03654420003294945,2587.9204249000177,None,0.03654420003294945,,,106 Silent,001,2022_Nov_29_1035,ProdSingRedoBetween,2021.2.3,59.900792375109695,
,,,,125,0,125,0,,,,,,,,,,,,,,,,,,,,,,2590.1058360002935,None,,,,,,,,,,,,,,,,,symbol,142,126,silent,new,null,2588.49426220078,None,2588.49426220078,None,1,1.038769599981606,2588.49426220078,None,1.038769599981606,2589.5643949005753,None,2590.0725910002366,None,2590.0725910002366,None,r,0.01241610012948513,2590.0725910002366,None,0.01241610012948513,,,106 Silent,001,2022_Nov_29_1035,ProdSingRedoBetween,2021.2.3,59.900792375109695,
,,,,126,0,126,0,,,,,,,,,,,,,,,,,,,,,,2592.2245556004345,None,,,,,,,,,,,,,,,,,meeting,121,127,silent,new,null,2590.612547600642,None,2590.612547600642,None,1,1.0324719995260239,2590.612547600642,None,1.0324719995260239,2591.674951599911,None,2592.1797537002712,None,2592.1797537002712,None,r,0.025165499188005924,2592.1797537002712,None,0.025165499188005924,,,106 Silent,001,2022_Nov_29_1035,ProdSingRedoBetween,2021.2.3,59.900792375109695,
,,,,127,0,127,0,,,,,,,,,,,,,,,,,,,,,,2595.7614186005667,None,,,,,,,,,,,,,,,,,season,113,128,silent,new,null,2592.7367336004972,None,2592.7367336004972,None,4,2.012190000154078,2592.7367336004972,None,2.012190000154078,2594.7770994007587,None,2595.278408500366,None,2595.278408500366,None,r,0.45460270065814257,2595.278408500366,None,0.45460270065814257,,,106 Silent,001,2022_Nov_29_1035,ProdSingRedoBetween,2021.2.3,59.900792375109695,
,,,,128,0,128,0,,,,,,,,,,,,,,,,,,,,,,2597.948755700141,None,,,,,,,,,,,,,,,,,couch,137,129,silent,new,null,2596.2717047007754,None,2596.2717047007754,None,1,1.0933618005365133,2596.2717047007754,None,1.0933618005365133,2597.3865517005324,None,2597.902673200704,None,2597.902673200704,None,r,0.01430830080062151,2597.902673200704,None,0.01430830080062151,,,106 Silent,001,2022_Nov_29_1035,ProdSingRedoBetween,2021.2.3,59.900792375109695,
,,,,129,0,129,0,,,,,,,,,,,,,,,,,,,,,,2600.6174697000533,None,,,,,,,,,,,,,,,,,search,179,130,silent,new,null,2598.482339099981,None,2598.482339099981,None,1,0.9305712003260851,2598.482339099981,None,0.9305712003260851,2599.432380100712,None,2599.9359301002696,None,2599.9359301002696,None,r,0.6611353000625968,2599.9359301002696,None,0.6611353000625968,,,106 Silent,001,2022_Nov_29_1035,ProdSingRedoBetween,2021.2.3,59.900792375109695,
,,,,130,0,130,0,,,,,,,,,,,,,,,,,,,,,,2603.3523458000273,None,,,,,,,,,,,,,,,,,production,141,131,silent,new,null,2601.1231072004884,None,2601.1231072004884,None,6,1.3618902992457151,2601.1231072004884,None,1.3618902992457151,2602.5028304001316,None,2603.002107700333,None,2603.002107700333,None,r,0.33086409978568554,2603.002107700333,None,0.33086409978568554,,,106 Silent,001,2022_Nov_29_1035,ProdSingRedoBetween,2021.2.3,59.900792375109695,
,,,,131,0,131,0,,,,,,,,,,,,,,,,,,,,,,2605.554540500045,None,,,,,,,,,,,,,,,,,industry,110,132,silent,new,null,2603.8643450001255,None,2603.8643450001255,None,1,1.1086678002029657,2603.8643450001255,None,1.1086678002029657,2605.0088726002723,None,2605.5212512006983,None,2605.5212512006983,None,r,0.011790799908339977,2605.5212512006983,None,0.011790799908339977,,,106 Silent,001,2022_Nov_29_1035,ProdSingRedoBetween,2021.2.3,59.900792375109695,
,,,,132,0,132,0,,,,,,,,,,,,,,,,,,,,,,2608.709443599917,None,,,,,,,,,,,,,,,,,court,63,133,silent,old,red,2606.0593900000677,None,2606.0593900000677,None,4,1.6335887992754579,2606.0593900000677,None,1.6335887992754579,2607.7244092999026,None,2608.227027799934,None,2608.227027799934,None,r,0.458003600127995,2608.227027799934,None,0.458003600127995,,,106 Silent,001,2022_Nov_29_1035,ProdSingRedoBetween,2021.2.3,59.900792375109695,
,,,,133,0,133,0,,,,,,,,,,,,,,,,,,,,,,2611.4103201003745,None,,,,,,,,,,,,,,,,,salary,47,134,silent,old,blue,2609.235550600104,None,2609.235550600104,None,1,1.153387000784278,2609.235550600104,None,1.153387000784278,2610.4123745001853,None,2610.9266413003206,None,2610.9266413003206,None,r,0.4623103002086282,2610.9266413003206,None,0.4623103002086282,,,106 Silent,001,2022_Nov_29_1035,ProdSingRedoBetween,2021.2.3,59.900792375109695,
,,,,134,0,134,0,,,,,,,,,,,,,,,,,,,,,,2613.829706400633,None,,,,,,,,,,,,,,,,,author,135,135,silent,new,null,2611.9136108001694,None,2611.9136108001694,None,1,1.2992626996710896,2611.9136108001694,None,1.2992626996710896,2613.2316554002464,None,2613.74623600021,None,2613.74623600021,None,r,0.058602100238204,2613.74623600021,None,0.058602100238204,,,106 Silent,001,2022_Nov_29_1035,ProdSingRedoBetween,2021.2.3,59.900792375109695,
,,,,135,0,135,0,,,,,,,,,,,,,,,,,,,,,,2616.2151560001075,None,,,,,,,,,,,,,,,,,bureau,134,136,silent,new,null,2614.3374952999875,None,2614.3374952999875,None,1,1.2915076008066535,2614.3374952999875,None,1.2915076008066535,2615.647923500277,None,2616.1500802002847,None,2616.1500802002847,None,r,0.046789499931037426,2616.1500802002847,None,0.046789499931037426,,,106 Silent,001,2022_Nov_29_1035,ProdSingRedoBetween,2021.2.3,59.900792375109695,
,,,,136,0,136,0,,,,,,,,,,,,,,,,,,,,,,2623.659093800001,None,,,,,,,,,,,,,,,,,murder,118,137,silent,new,null,2616.723861400038,None,2616.723861400038,None,6,5.953073499724269,2616.723861400038,None,5.953073499724269,2622.7049140008166,None,2623.209224600345,None,2623.209224600345,None,r,0.41991550009697676,2623.209224600345,None,0.41991550009697676,,,106 Silent,001,2022_Nov_29_1035,ProdSingRedoBetween,2021.2.3,59.900792375109695,
,,,,137,0,137,0,,,,,,,,,,,,,,,,,,,,,,2625.891366300173,None,,,,,,,,,,,,,,,,,budget,163,138,silent,new,null,2624.1754566999152,None,2624.1754566999152,None,1,1.1414389004930854,2624.1754566999152,None,1.1414389004930854,2625.340836999938,None,2625.8526775008067,None,2625.8526775008067,None,r,0.016256099566817284,2625.8526775008067,None,0.016256099566817284,,,106 Silent,001,2022_Nov_29_1035,ProdSingRedoBetween,2021.2.3,59.900792375109695,
,,,,138,0,138,0,,,,,,,,,,,,,,,,,,,,,,2632.164433100261,None,,,,,,,,,,,,,,,,,society,178,139,silent,new,null,2626.4011289002374,None,2626.4011289002374,None,6,2.3879942996427417,2626.4011289002374,None,2.3879942996427417,2628.812757800333,None,2629.328290500678,None,2629.328290500678,None,r,2.8046741001307964,2629.328290500678,None,2.8046741001307964,,,106 Silent,001,2022_Nov_29_1035,ProdSingRedoBetween,2021.2.3,59.900792375109695,
,,,,139,0,139,0,,,,,,,,,,,,,,,,,,,,,,2634.8835233999416,None,,,,,,,,,,,,,,,,,right,26,140,silent,old,yellow,2632.665067200549,None,2632.665067200549,None,6,1.3799407994374633,2632.665067200549,None,1.3799407994374633,2634.072674500756,None,2634.5837063007057,None,2634.5837063007057,None,r,0.2692663995549083,2634.5837063007057,None,0.2692663995549083,,,106 Silent,001,2022_Nov_29_1035,ProdSingRedoBetween,2021.2.3,59.900792375109695,
,,,,140,0,140,0,,,,,,,,,,,,,,,,,,,,,,2637.8712816005573,None,,,,,,,,,,,,,,,,,interior,126,141,silent,new,null,2635.393248100765,None,2635.393248100765,None,1,1.86758999992162,2635.393248100765,None,1.86758999992162,2637.289293200709,None,2637.8034607004374,None,2637.8034607004374,None,r,0.049476999789476395,2637.8034607004374,None,0.049476999789476395,,,106 Silent,001,2022_Nov_29_1035,ProdSingRedoBetween,2021.2.3,59.900792375109695,
,,,,141,0,141,0,,,,,,,,,,,,,,,,,,,,,,2640.539372100495,None,,,,,,,,,,,,,,,,,contract,29,142,silent,old,blue,2638.382840000093,None,2638.382840000093,None,1,1.1981364991515875,2638.382840000093,None,1.1981364991515875,2639.6110467007384,None,2640.1226872000843,None,2640.1226872000843,None,r,0.38622070010751486,2640.1226872000843,None,0.38622070010751486,,,106 Silent,001,2022_Nov_29_1035,ProdSingRedoBetween,2021.2.3,59.900792375109695,
,,,,142,0,142,0,,,,,,,,,,,,,,,,,,,,,,2643.9594761999324,None,,,,,,,,,,,,,,,,,empty,77,143,silent,old,red,2641.05160050001,None,2641.05160050001,None,6,1.4655257994309068,2641.05160050001,None,1.4655257994309068,2642.550543700345,None,2643.06149070058,None,2643.06149070058,None,r,0.8794375006109476,2643.06149070058,None,0.8794375006109476,,,106 Silent,001,2022_Nov_29_1035,ProdSingRedoBetween,2021.2.3,59.900792375109695,
,,,,143,0,143,0,,,,,,,,,,,,,,,,,,,,,,2647.8530989000574,None,,,,,,,,,,,,,,,,,platform,176,144,silent,new,null,2644.46743830014,None,2644.46743830014,None,4,2.425455200485885,2644.46743830014,None,2.425455200485885,2646.914529800415,None,2647.432724200189,None,2647.432724200189,None,r,0.38829359970986843,2647.432724200189,None,0.38829359970986843,,,106 Silent,001,2022_Nov_29_1035,ProdSingRedoBetween,2021.2.3,59.900792375109695,
,,,,144,0,144,0,,,,,,,,,,,,,,,,,,,,,,2650.568014600314,None,,,,,,,,,,,,,,,,,brilliant,58,145,silent,old,blue,2648.3690765006468,None,2648.3690765006468,None,1,1.1158541003242135,2648.3690765006468,None,1.1158541003242135,2649.51658350043,None,2650.0346030006185,None,2650.0346030006185,None,r,0.5142382001504302,2650.0346030006185,None,0.5142382001504302,,,106 Silent,001,2022_Nov_29_1035,ProdSingRedoBetween,2021.2.3,59.900792375109695,
,,,,145,0,145,0,,,,,,,,,,,,,,,,,,,,,,2652.951573700644,None,,,,,,,,,,,,,,,,,south,45,146,silent,old,blue,2651.084167700261,None,2651.084167700261,None,6,1.2087656995281577,2651.084167700261,None,1.2087656995281577,2652.319511299953,None,2652.8361177006736,None,2652.8361177006736,None,r,0.088744199834764,2652.8361177006736,None,0.088744199834764,,,106 Silent,001,2022_Nov_29_1035,ProdSingRedoBetween,2021.2.3,59.900792375109695,
,,,,146,0,146,0,,,,,,,,,,,,,,,,,,,,,,2655.9047338003293,None,,,,,,,,,,,,,,,,,background,154,147,silent,new,null,2653.453622000292,None,2653.453622000292,None,2,1.4232268994674087,2653.453622000292,None,1.4232268994674087,2654.9049225999042,None,2655.4097918001935,None,2655.4097918001935,None,r,0.46700229961425066,2655.4097918001935,None,0.46700229961425066,,,106 Silent,001,2022_Nov_29_1035,ProdSingRedoBetween,2021.2.3,59.900792375109695,
,,,,147,0,147,0,,,,,,,,,,,,,,,,,,,,,,2660.025692600757,None,,,,,,,,,,,,,,,,,conference,145,148,silent,new,null,2656.4052703008056,None,2656.4052703008056,None,5,2.7516431007534266,2656.4052703008056,None,2.7516431007534266,2659.1823701001704,None,2659.700102100149,None,2659.700102100149,None,r,0.30493960063904524,2659.700102100149,None,0.30493960063904524,,,106 Silent,001,2022_Nov_29_1035,ProdSingRedoBetween,2021.2.3,59.900792375109695,
,,,,148,0,148,0,,,,,,,,,,,,,,,,,,,,,,2662.64039270021,None,,,,,,,,,,,,,,,,,minor,75,149,silent,old,red,2660.527996400371,None,2660.527996400371,None,6,1.532898299396038,2660.527996400371,None,1.532898299396038,2662.0804008003324,None,2662.5991339003667,None,2662.5991339003667,None,r,0.013961399905383587,2662.5991339003667,None,0.013961399905383587,,,106 Silent,001,2022_Nov_29_1035,ProdSingRedoBetween,2021.2.3,59.900792375109695,
,,,,149,0,149,0,,,,,,,,,,,,,,,,,,,,,,2664.947115099989,None,,,,,,,,,,,,,,,,,column,130,150,silent,new,null,2663.154106700793,None,2663.154106700793,None,6,0.8109256001189351,2663.154106700793,None,0.8109256001189351,2663.996171900071,None,2664.5022351006046,None,2664.5022351006046,None,r,0.4146224996075034,2664.5022351006046,None,0.4146224996075034,,,106 Silent,001,2022_Nov_29_1035,ProdSingRedoBetween,2021.2.3,59.900792375109695,
,,,,150,0,150,0,,,,,,,,,,,,,,,,,,,,,,2668.051678100601,None,,,,,,,,,,,,,,,,,distance,172,151,silent,new,null,2665.4557837005705,None,2665.4557837005705,None,6,1.6691171992570162,2665.4557837005705,None,1.6691171992570162,2667.153098200448,None,2667.6711170999333,None,2667.6711170999333,None,r,0.3497880008071661,2667.6711170999333,None,0.3497880008071661,,,106 Silent,001,2022_Nov_29_1035,ProdSingRedoBetween,2021.2.3,59.900792375109695,
,,,,151,0,151,0,,,,,,,,,,,,,,,,,,,,,,2670.2858225004748,None,,,,,,,,,,,,,,,,,grade,84,152,silent,old,red,2668.5607454003766,None,2668.5607454003766,None,1,1.172290500253439,2668.5607454003766,None,1.172290500253439,2669.751607400365,None,2670.2568597001955,None,2670.2568597001955,None,r,0.004286600276827812,2670.2568597001955,None,0.004286600276827812,,,106 Silent,001,2022_Nov_29_1035,ProdSingRedoBetween,2021.2.3,59.900792375109695,
,,,,152,0,152,0,,,,,,,,,,,,,,,,,,,,,,2672.8561353003606,None,,,,,,,,,,,,,,,,,sweet,170,153,silent,new,null,2670.8077378002927,None,2670.8077378002927,None,1,1.1091085001826286,2670.8077378002927,None,1.1091085001826286,2671.938983700238,None,2672.4441663008183,None,2672.4441663008183,None,r,0.3847444001585245,2672.4441663008183,None,0.3847444001585245,,,106 Silent,001,2022_Nov_29_1035,ProdSingRedoBetween,2021.2.3,59.900792375109695,
,,,,153,0,153,0,,,,,,,,,,,,,,,,,,,,,,2677.0758418003097,None,,,,,,,,,,,,,,,,,shock,107,154,silent,new,null,2673.36262810044,None,2673.36262810044,None,2,3.114241600036621,2673.36262810044,None,3.114241600036621,2676.493410400115,None,2676.9941016007215,None,2676.9941016007215,None,r,0.06683680042624474,2676.9941016007215,None,0.06683680042624474,,,106 Silent,001,2022_Nov_29_1035,ProdSingRedoBetween,2021.2.3,59.900792375109695,
,,,,154,0,154,0,,,,,,,,,,,,,,,,,,,,,,2679.6116615002975,None,,,,,,,,,,,,,,,,,build,104,155,silent,new,null,2677.5885679004714,None,2677.5885679004714,None,1,1.4642896996811032,2677.5885679004714,None,1.4642896996811032,2679.078947400674,None,2679.5784757006913,None,2679.5784757006913,None,r,0.010491999797523022,2679.5784757006913,None,0.010491999797523022,,,106 Silent,001,2022_Nov_29_1035,ProdSingRedoBetween,2021.2.3,59.900792375109695,
,,,,155,0,155,0,,,,,,,,,,,,,,,,,,,,,,2685.334088300355,None,,,,,,,,,,,,,,,,,taste,103,156,silent,new,null,2680.114473500289,None,2680.114473500289,None,3,4.266389099881053,2680.114473500289,None,4.266389099881053,2684.4012804003432,None,2684.9006234006956,None,2684.9006234006956,None,r,0.40822810027748346,2684.9006234006956,None,0.40822810027748346,,,106 Silent,001,2022_Nov_29_1035,ProdSingRedoBetween,2021.2.3,59.900792375109695,
,,,,156,0,156,0,,,,,,,,,,,,,,,,,,,,,,2689.0709787001833,None,,,,,,,,,,,,,,,,,addition,117,157,silent,new,null,2685.8375113001093,None,2685.8375113001093,None,1,1.5515174996107817,2685.8375113001093,None,1.5515174996107817,2687.423750200309,None,2687.94083470013,None,2687.94083470013,None,r,1.1119846999645233,2687.94083470013,None,1.1119846999645233,,,106 Silent,001,2022_Nov_29_1035,ProdSingRedoBetween,2021.2.3,59.900792375109695,
,,,,157,0,157,0,,,,,,,,,,,,,,,,,,,,,,2691.8903899006546,None,,,,,,,,,,,,,,,,,reading,24,158,silent,old,yellow,2689.5740948002785,None,2689.5740948002785,None,1,1.3427291996777058,2689.5740948002785,None,1.3427291996777058,2690.9409109000117,None,2691.44858050067,None,2691.44858050067,None,r,0.42033670004457235,2691.44858050067,None,0.42033670004457235,,,106 Silent,001,2022_Nov_29_1035,ProdSingRedoBetween,2021.2.3,59.900792375109695,
,,,,158,0,158,0,,,,,,,,,,,,,,,,,,,,,,2695.011588600464,None,,,,,,,,,,,,,,,,,direction,147,159,silent,new,null,2692.3942273007706,None,2692.3942273007706,None,1,1.6665324997156858,2692.3942273007706,None,1.6665324997156858,2694.0801092004403,None,2694.600445000455,None,2694.600445000455,None,r,0.388446900062263,2694.600445000455,None,0.388446900062263,,,106 Silent,001,2022_Nov_29_1035,ProdSingRedoBetween,2021.2.3,59.900792375109695,
,,,,159,0,159,0,,,,,,,,,,,,,,,,,,,,,,2697.9147425005212,None,,,,,,,,,,,,,,,,,vision,60,160,silent,old,red,2695.5224999003112,None,2695.5224999003112,None,6,1.4343689000234008,2695.5224999003112,None,1.4343689000234008,2696.9873630004004,None,2697.5054288003594,None,2697.5054288003594,None,r,0.38744569942355156,2697.5054288003594,None,0.38744569942355156,,,106 Silent,001,2022_Nov_29_1035,ProdSingRedoBetween,2021.2.3,59.900792375109695,
,,,,160,0,160,0,,,,,,,,,,,,,,,,,,,,,,2700.8995608007535,None,,,,,,,,,,,,,,,,,breath,87,161,silent,old,red,2698.4232121007517,None,2698.4232121007517,None,6,1.573572300374508,2698.4232121007517,None,1.573572300374508,2700.0201214002445,None,2700.5356876002625,None,2700.5356876002625,None,r,0.33317499980330467,2700.5356876002625,None,0.33317499980330467,,,106 Silent,001,2022_Nov_29_1035,ProdSingRedoBetween,2021.2.3,59.900792375109695,
,,,,161,0,161,0,,,,,,,,,,,,,,,,,,,,,,2704.6212367005646,None,,,,,,,,,,,,,,,,,cover,128,162,silent,new,null,2701.406596700661,None,2701.406596700661,None,1,2.350297600030899,2701.406596700661,None,2.350297600030899,2703.7955184001476,None,2704.3030575001612,None,2704.3030575001612,None,r,0.28563279937952757,2704.3030575001612,None,0.28563279937952757,,,106 Silent,001,2022_Nov_29_1035,ProdSingRedoBetween,2021.2.3,59.900792375109695,
,,,,162,0,162,0,,,,,,,,,,,,,,,,,,,,,,2706.9889357006177,None,,,,,,,,,,,,,,,,,defeat,125,163,silent,new,null,2705.122034200467,None,2705.122034200467,None,1,1.1868219999596477,2705.122034200467,None,1.1868219999596477,2706.3444525003433,None,2706.855633600615,None,2706.855633600615,None,r,0.11724640056490898,2706.855633600615,None,0.11724640056490898,,,106 Silent,001,2022_Nov_29_1035,ProdSingRedoBetween,2021.2.3,59.900792375109695,
,,,,163,0,163,0,,,,,,,,,,,,,,,,,,,,,,2709.2421913007274,None,,,,,,,,,,,,,,,,,trend,146,164,silent,new,null,2707.493798200041,None,2707.493798200041,None,1,1.0470000999048352,2707.493798200041,None,1.0470000999048352,2708.5569660002366,None,2709.0673887003213,None,2709.0673887003213,None,r,0.14555520005524158,2709.0673887003213,None,0.14555520005524158,,,106 Silent,001,2022_Nov_29_1035,ProdSingRedoBetween,2021.2.3,59.900792375109695,
,,,,164,0,164,0,,,,,,,,,,,,,,,,,,,,,,2711.543528600596,None,,,,,,,,,,,,,,,,,crisis,157,165,silent,new,null,2709.748049000278,None,2709.748049000278,None,1,1.2166682006791234,2709.748049000278,None,1.2166682006791234,2710.998401200399,None,2711.5103239007294,None,2711.5103239007294,None,r,0.014410000294446945,2711.5103239007294,None,0.014410000294446945,,,106 Silent,001,2022_Nov_29_1035,ProdSingRedoBetween,2021.2.3,59.900792375109695,
,,,,165,0,165,0,,,,,,,,,,,,,,,,,,,,,,2715.385838000104,None,,,,,,,,,,,,,,,,,order,49,166,silent,old,blue,2712.057685300708,None,2712.057685300708,None,4,2.6029866002500057,2712.057685300708,None,2.6029866002500057,2714.6907637007535,None,2715.1974019007757,None,2715.1974019007757,None,r,0.1674666004255414,2715.1974019007757,None,0.1674666004255414,,,106 Silent,001,2022_Nov_29_1035,ProdSingRedoBetween,2021.2.3,59.900792375109695,
,,,,166,0,166,0,,,,,,,,,,,,,,,,,,,,,,2717.5829615006223,None,,,,,,,,,,,,,,,,,fellow,169,167,silent,new,null,2715.8979772999883,None,2715.8979772999883,None,1,1.0668167993426323,2715.8979772999883,None,1.0668167993426323,2716.9835569001734,None,2717.483006200753,None,2717.483006200753,None,r,0.0738188000395894,2717.483006200753,None,0.0738188000395894,,,106 Silent,001,2022_Nov_29_1035,ProdSingRedoBetween,2021.2.3,59.900792375109695,
,,,,167,0,167,0,,,,,,,,,,,,,,,,,,,,,,2720.535829300061,None,,,,,,,,,,,,,,,,,fashion,51,168,silent,old,blue,2718.091005500406,None,2718.091005500406,None,4,1.7539416002109647,2718.091005500406,None,1.7539416002109647,2719.8684862004593,None,2720.369064300321,None,2720.369064300321,None,r,0.13970809988677502,2720.369064300321,None,0.13970809988677502,,,106 Silent,001,2022_Nov_29_1035,ProdSingRedoBetween,2021.2.3,59.900792375109695,
,,,,168,0,168,0,,,,,,,,,,,,,,,,,,,,,,2722.9145913999528,None,,,,,,,,,,,,,,,,,period,0,169,silent,old,yellow,2721.0463964007795,None,2721.0463964007795,None,6,1.2703912993893027,2721.0463964007795,None,1.2703912993893027,2722.340549699962,None,2722.8604520000517,None,2722.8604520000517,None,r,0.01643409952521324,2722.8604520000517,None,0.01643409952521324,,,106 Silent,001,2022_Nov_29_1035,ProdSingRedoBetween,2021.2.3,59.900792375109695,
,,,,169,0,169,0,,,,,,,,,,,,,,,,,,,,,,2725.841231100261,None,,,,,,,,,,,,,,,,,afternoon,86,170,silent,old,red,2723.43132300023,None,2723.43132300023,None,6,1.141600700095296,2723.43132300023,None,1.141600700095296,2724.592389400117,None,2725.107261000201,None,2725.107261000201,None,r,0.7055212995037436,2725.107261000201,None,0.7055212995037436,,,106 Silent,001,2022_Nov_29_1035,ProdSingRedoBetween,2021.2.3,59.900792375109695,
,,,,170,0,170,0,,,,,,,,,,,,,,,,,,,,,,2727.89316480048,None,,,,,,,,,,,,,,,,,finish,173,171,silent,new,null,2726.3451383002102,None,2726.3451383002102,None,6,0.9317433005198836,2726.3451383002102,None,0.9317433005198836,2727.295632100664,None,2727.8137429002672,None,2727.8137429002672,None,r,0.06308290082961321,2727.8137429002672,None,0.06308290082961321,,,106 Silent,001,2022_Nov_29_1035,ProdSingRedoBetween,2021.2.3,59.900792375109695,
,,,,171,0,171,0,,,,,,,,,,,,,,,,,,,,,,2731.648341600783,None,,,,,,,,,,,,,,,,,military,32,172,silent,old,blue,2728.3967236001045,None,2728.3967236001045,None,6,0.7121516996994615,2728.3967236001045,None,0.7121516996994615,2729.133565400727,None,2729.6482648001984,None,2729.6482648001984,None,r,1.972503799945116,2729.6482648001984,None,1.972503799945116,,,106 Silent,001,2022_Nov_29_1035,ProdSingRedoBetween,2021.2.3,59.900792375109695,
,,,,172,0,172,0,,,,,,,,,,,,,,,,,,,,,,2733.7489686002955,None,,,,,,,,,,,,,,,,,election,52,173,silent,old,blue,2732.148831699975,None,2732.148831699975,None,6,0.9439257998019457,2732.148831699975,None,0.9439257998019457,2733.116058600135,None,2733.620119600557,None,2733.620119600557,None,r,0.11262880079448223,2733.620119600557,None,0.11262880079448223,,,106 Silent,001,2022_Nov_29_1035,ProdSingRedoBetween,2021.2.3,59.900792375109695,
