StudyLoop.thisRepN,StudyLoop.thisTrialN,StudyLoop.thisN,StudyLoop.thisIndex,TestLoop.thisRepN,TestLoop.thisTrialN,TestLoop.thisN,TestLoop.thisIndex,textCondition.started,textCondition.stopped,keyCondition.keys,keyCondition.rt,keyCondition.started,keyCondition.stopped,Condition,textWelcome.started,textWelcome.stopped,keyWelcome.keys,keyWelcome.rt,keyWelcome.started,keyWelcome.stopped,textAloud.started,textAloud.stopped,textSilent.started,textSilent.stopped,textSing.started,textSing.stopped,conditional_text.started,conditional_text.stopped,textBlank500.started,textBlank500.stopped,study_word,study_num,study_order,study_type,word_color,textStudy.started,textStudy.stopped,keyStudy.keys,keyStudy.started,keyStudy.stopped,textTestInstructions.started,textTestInstructions.stopped,key_resp_3.keys,key_resp_3.rt,key_resp_3.started,key_resp_3.stopped,test_word,test_num,test_order,test_condition,old_new_test,test_word_original_color,textConf.started,textConf.stopped,textConfScale.started,textConfScale.stopped,keyConf.keys,keyConf.rt,keyConf.started,keyConf.stopped,confidence response time,textTestBlank.started,textTestBlank.stopped,textRKN.started,textRKN.stopped,textRKNScale.started,textRKNScale.stopped,keyRKN.keys,keyRKN.rt,keyRKN.started,keyRKN.stopped,rkn response time,textEnd.started,textEnd.stopped,participant,session,date,expName,psychopyVersion,frameRate,
,,,,,,,,31.722800600342453,None,b,2.36648750025779,31.722800600342453,None,,,,,,,,,,,,,,,,,,,,,,,,,,,,,,,,,,,,,,,,,,,,,,,,,,,,,,,,,,,,,,107 Aloud,001,2022_Nov_29_1127,ProdSingRedoBetween,2021.2.3,59.99372451085396,
,,,,,,,,,,,,,,AloudTest,34.13326350040734,None,space,864.4100065007806,34.13326350040734,None,,,,,,,,,,,,,,,,,,,,,,,,,,,,,,,,,,,,,,,,,,,,,,,,,,,,,,,107 Aloud,001,2022_Nov_29_1127,ProdSingRedoBetween,2021.2.3,59.99372451085396,
0,0,0,0,,,,,,,,,,,,,,,,,,34.13326350040734,None,34.13326350040734,None,34.13326350040734,None,34.13326350040734,None,901.0889360001311,None,reading,7,1,aloud,yellow,899.0818308005109,None,None,899.0818308005109,None,,,,,,,,,,,,,,,,,,,,,,,,,,,,,,,,,,,107 Aloud,001,2022_Nov_29_1127,ProdSingRedoBetween,2021.2.3,59.99372451085396,
1,0,1,0,,,,,,,,,,,,,,,,,,,,,,,,,,903.5914479000494,None,hunger,5,2,aloud,yellow,901.5893899006769,None,None,901.5893899006769,None,,,,,,,,,,,,,,,,,,,,,,,,,,,,,,,,,,,107 Aloud,001,2022_Nov_29_1127,ProdSingRedoBetween,2021.2.3,59.99372451085396,
2,0,2,0,,,,,,,,,,,,,,,,,,,,,,,,,,906.0939781004563,None,express,56,3,aloud,blue,904.0922439005226,None,None,904.0922439005226,None,,,,,,,,,,,,,,,,,,,,,,,,,,,,,,,,,,,107 Aloud,001,2022_Nov_29_1127,ProdSingRedoBetween,2021.2.3,59.99372451085396,
3,0,3,0,,,,,,,,,,,,,,,,,,,,,,,,,,908.6131012002006,None,company,17,4,aloud,yellow,906.598062700592,None,None,906.598062700592,None,,,,,,,,,,,,,,,,,,,,,,,,,,,,,,,,,,,107 Aloud,001,2022_Nov_29_1127,ProdSingRedoBetween,2021.2.3,59.99372451085396,
4,0,4,0,,,,,,,,,,,,,,,,,,,,,,,,,,911.1156497001648,None,religion,43,5,aloud,blue,909.1133913006634,None,None,909.1133913006634,None,,,,,,,,,,,,,,,,,,,,,,,,,,,,,,,,,,,107 Aloud,001,2022_Nov_29_1127,ProdSingRedoBetween,2021.2.3,59.99372451085396,
5,0,5,0,,,,,,,,,,,,,,,,,,,,,,,,,,913.634722799994,None,department,21,6,aloud,yellow,911.622982500121,None,None,911.622982500121,None,,,,,,,,,,,,,,,,,,,,,,,,,,,,,,,,,,,107 Aloud,001,2022_Nov_29_1127,ProdSingRedoBetween,2021.2.3,59.99372451085396,
6,0,6,0,,,,,,,,,,,,,,,,,,,,,,,,,,916.1373903006315,None,guest,23,7,aloud,yellow,914.1353802001104,None,None,914.1353802001104,None,,,,,,,,,,,,,,,,,,,,,,,,,,,,,,,,,,,107 Aloud,001,2022_Nov_29_1127,ProdSingRedoBetween,2021.2.3,59.99372451085396,
7,0,7,0,,,,,,,,,,,,,,,,,,,,,,,,,,918.6564600002021,None,health,40,8,aloud,blue,916.6421302007511,None,None,916.6421302007511,None,,,,,,,,,,,,,,,,,,,,,,,,,,,,,,,,,,,107 Aloud,001,2022_Nov_29_1127,ProdSingRedoBetween,2021.2.3,59.99372451085396,
8,0,8,0,,,,,,,,,,,,,,,,,,,,,,,,,,921.1756653003395,None,debate,72,9,aloud,red,919.160458500497,None,None,919.160458500497,None,,,,,,,,,,,,,,,,,,,,,,,,,,,,,,,,,,,107 Aloud,001,2022_Nov_29_1127,ProdSingRedoBetween,2021.2.3,59.99372451085396,
9,0,9,0,,,,,,,,,,,,,,,,,,,,,,,,,,923.6781336003914,None,ground,79,10,aloud,red,921.676041200757,None,None,921.676041200757,None,,,,,,,,,,,,,,,,,,,,,,,,,,,,,,,,,,,107 Aloud,001,2022_Nov_29_1127,ProdSingRedoBetween,2021.2.3,59.99372451085396,
10,0,10,0,,,,,,,,,,,,,,,,,,,,,,,,,,926.1806105999276,None,mechanical,15,11,aloud,yellow,924.1815556008369,None,None,924.1815556008369,None,,,,,,,,,,,,,,,,,,,,,,,,,,,,,,,,,,,107 Aloud,001,2022_Nov_29_1127,ProdSingRedoBetween,2021.2.3,59.99372451085396,
11,0,11,0,,,,,,,,,,,,,,,,,,,,,,,,,,928.6831865003332,None,individual,45,12,aloud,blue,926.6841065008193,None,None,926.6841065008193,None,,,,,,,,,,,,,,,,,,,,,,,,,,,,,,,,,,,107 Aloud,001,2022_Nov_29_1127,ProdSingRedoBetween,2021.2.3,59.99372451085396,
12,0,12,0,,,,,,,,,,,,,,,,,,,,,,,,,,931.202252600342,None,master,38,13,aloud,blue,929.1899135001004,None,None,929.1899135001004,None,,,,,,,,,,,,,,,,,,,,,,,,,,,,,,,,,,,107 Aloud,001,2022_Nov_29_1127,ProdSingRedoBetween,2021.2.3,59.99372451085396,
13,0,13,0,,,,,,,,,,,,,,,,,,,,,,,,,,933.721334300004,None,listen,57,14,aloud,blue,931.7088625999168,None,None,931.7088625999168,None,,,,,,,,,,,,,,,,,,,,,,,,,,,,,,,,,,,107 Aloud,001,2022_Nov_29_1127,ProdSingRedoBetween,2021.2.3,59.99372451085396,
14,0,14,0,,,,,,,,,,,,,,,,,,,,,,,,,,936.2240518005565,None,profession,42,15,aloud,blue,934.2220358001068,None,None,934.2220358001068,None,,,,,,,,,,,,,,,,,,,,,,,,,,,,,,,,,,,107 Aloud,001,2022_Nov_29_1127,ProdSingRedoBetween,2021.2.3,59.99372451085396,
15,0,15,0,,,,,,,,,,,,,,,,,,,,,,,,,,938.7429677005857,None,spoke,58,16,aloud,blue,936.7330344999209,None,None,936.7330344999209,None,,,,,,,,,,,,,,,,,,,,,,,,,,,,,,,,,,,107 Aloud,001,2022_Nov_29_1127,ProdSingRedoBetween,2021.2.3,59.99372451085396,
16,0,16,0,,,,,,,,,,,,,,,,,,,,,,,,,,941.2623692005873,None,suggestion,49,17,aloud,blue,939.2558904001489,None,None,939.2558904001489,None,,,,,,,,,,,,,,,,,,,,,,,,,,,,,,,,,,,107 Aloud,001,2022_Nov_29_1127,ProdSingRedoBetween,2021.2.3,59.99372451085396,
17,0,17,0,,,,,,,,,,,,,,,,,,,,,,,,,,943.7814456000924,None,mayor,0,18,aloud,yellow,941.7752058999613,None,None,941.7752058999613,None,,,,,,,,,,,,,,,,,,,,,,,,,,,,,,,,,,,107 Aloud,001,2022_Nov_29_1127,ProdSingRedoBetween,2021.2.3,59.99372451085396,
18,0,18,0,,,,,,,,,,,,,,,,,,,,,,,,,,946.3006778005511,None,commercial,32,19,aloud,blue,944.2913073003292,None,None,944.2913073003292,None,,,,,,,,,,,,,,,,,,,,,,,,,,,,,,,,,,,107 Aloud,001,2022_Nov_29_1127,ProdSingRedoBetween,2021.2.3,59.99372451085396,
19,0,19,0,,,,,,,,,,,,,,,,,,,,,,,,,,948.8031451003626,None,career,11,20,aloud,yellow,946.8012454006821,None,None,946.8012454006821,None,,,,,,,,,,,,,,,,,,,,,,,,,,,,,,,,,,,107 Aloud,001,2022_Nov_29_1127,ProdSingRedoBetween,2021.2.3,59.99372451085396,
20,0,20,0,,,,,,,,,,,,,,,,,,,,,,,,,,951.3055051006377,None,reach,73,21,aloud,red,949.303748300299,None,None,949.303748300299,None,,,,,,,,,,,,,,,,,,,,,,,,,,,,,,,,,,,107 Aloud,001,2022_Nov_29_1127,ProdSingRedoBetween,2021.2.3,59.99372451085396,
21,0,21,0,,,,,,,,,,,,,,,,,,,,,,,,,,953.808207700029,None,frank,71,22,aloud,red,951.80603600014,None,None,951.80603600014,None,,,,,,,,,,,,,,,,,,,,,,,,,,,,,,,,,,,107 Aloud,001,2022_Nov_29_1127,ProdSingRedoBetween,2021.2.3,59.99372451085396,
22,0,22,0,,,,,,,,,,,,,,,,,,,,,,,,,,956.3273525005206,None,finish,78,23,aloud,red,954.3145861001685,None,None,954.3145861001685,None,,,,,,,,,,,,,,,,,,,,,,,,,,,,,,,,,,,107 Aloud,001,2022_Nov_29_1127,ProdSingRedoBetween,2021.2.3,59.99372451085396,
23,0,23,0,,,,,,,,,,,,,,,,,,,,,,,,,,958.8463308000937,None,rough,46,24,aloud,blue,956.8341289004311,None,None,956.8341289004311,None,,,,,,,,,,,,,,,,,,,,,,,,,,,,,,,,,,,107 Aloud,001,2022_Nov_29_1127,ProdSingRedoBetween,2021.2.3,59.99372451085396,
24,0,24,0,,,,,,,,,,,,,,,,,,,,,,,,,,961.349074200727,None,working,82,25,aloud,red,959.348531300202,None,None,959.348531300202,None,,,,,,,,,,,,,,,,,,,,,,,,,,,,,,,,,,,107 Aloud,001,2022_Nov_29_1127,ProdSingRedoBetween,2021.2.3,59.99372451085396,
25,0,25,0,,,,,,,,,,,,,,,,,,,,,,,,,,963.8514490006492,None,dream,19,26,aloud,yellow,961.851668599993,None,None,961.851668599993,None,,,,,,,,,,,,,,,,,,,,,,,,,,,,,,,,,,,107 Aloud,001,2022_Nov_29_1127,ProdSingRedoBetween,2021.2.3,59.99372451085396,
26,0,26,0,,,,,,,,,,,,,,,,,,,,,,,,,,966.3540486004204,None,level,69,27,aloud,red,964.3520127004012,None,None,964.3520127004012,None,,,,,,,,,,,,,,,,,,,,,,,,,,,,,,,,,,,107 Aloud,001,2022_Nov_29_1127,ProdSingRedoBetween,2021.2.3,59.99372451085396,
27,0,27,0,,,,,,,,,,,,,,,,,,,,,,,,,,968.8566460004076,None,phrase,60,28,aloud,red,966.8552739005536,None,None,966.8552739005536,None,,,,,,,,,,,,,,,,,,,,,,,,,,,,,,,,,,,107 Aloud,001,2022_Nov_29_1127,ProdSingRedoBetween,2021.2.3,59.99372451085396,
28,0,28,0,,,,,,,,,,,,,,,,,,,,,,,,,,971.3590622004122,None,crisis,54,29,aloud,blue,969.3578842002898,None,None,969.3578842002898,None,,,,,,,,,,,,,,,,,,,,,,,,,,,,,,,,,,,107 Aloud,001,2022_Nov_29_1127,ProdSingRedoBetween,2021.2.3,59.99372451085396,
29,0,29,0,,,,,,,,,,,,,,,,,,,,,,,,,,973.861430699937,None,track,48,30,aloud,blue,971.8596811005846,None,None,971.8596811005846,None,,,,,,,,,,,,,,,,,,,,,,,,,,,,,,,,,,,107 Aloud,001,2022_Nov_29_1127,ProdSingRedoBetween,2021.2.3,59.99372451085396,
30,0,30,0,,,,,,,,,,,,,,,,,,,,,,,,,,976.3807055000216,None,little,13,31,aloud,yellow,974.3666031006724,None,None,974.3666031006724,None,,,,,,,,,,,,,,,,,,,,,,,,,,,,,,,,,,,107 Aloud,001,2022_Nov_29_1127,ProdSingRedoBetween,2021.2.3,59.99372451085396,
31,0,31,0,,,,,,,,,,,,,,,,,,,,,,,,,,978.8831462003291,None,trash,74,32,aloud,red,976.8811590000987,None,None,976.8811590000987,None,,,,,,,,,,,,,,,,,,,,,,,,,,,,,,,,,,,107 Aloud,001,2022_Nov_29_1127,ProdSingRedoBetween,2021.2.3,59.99372451085396,
32,0,32,0,,,,,,,,,,,,,,,,,,,,,,,,,,981.4023778000847,None,music,22,33,aloud,yellow,979.3955936003476,None,None,979.3955936003476,None,,,,,,,,,,,,,,,,,,,,,,,,,,,,,,,,,,,107 Aloud,001,2022_Nov_29_1127,ProdSingRedoBetween,2021.2.3,59.99372451085396,
33,0,33,0,,,,,,,,,,,,,,,,,,,,,,,,,,983.9048979999498,None,government,88,34,aloud,red,981.9029852002859,None,None,981.9029852002859,None,,,,,,,,,,,,,,,,,,,,,,,,,,,,,,,,,,,107 Aloud,001,2022_Nov_29_1127,ProdSingRedoBetween,2021.2.3,59.99372451085396,
34,0,34,0,,,,,,,,,,,,,,,,,,,,,,,,,,986.4073912007734,None,attack,35,35,aloud,blue,984.4077325006947,None,None,984.4077325006947,None,,,,,,,,,,,,,,,,,,,,,,,,,,,,,,,,,,,107 Aloud,001,2022_Nov_29_1127,ProdSingRedoBetween,2021.2.3,59.99372451085396,
35,0,35,0,,,,,,,,,,,,,,,,,,,,,,,,,,988.9264985006303,None,junior,41,36,aloud,blue,986.9259582003579,None,None,986.9259582003579,None,,,,,,,,,,,,,,,,,,,,,,,,,,,,,,,,,,,107 Aloud,001,2022_Nov_29_1127,ProdSingRedoBetween,2021.2.3,59.99372451085396,
36,0,36,0,,,,,,,,,,,,,,,,,,,,,,,,,,991.4457183005288,None,brief,9,37,aloud,yellow,989.4374331003055,None,None,989.4374331003055,None,,,,,,,,,,,,,,,,,,,,,,,,,,,,,,,,,,,107 Aloud,001,2022_Nov_29_1127,ProdSingRedoBetween,2021.2.3,59.99372451085396,
37,0,37,0,,,,,,,,,,,,,,,,,,,,,,,,,,993.9649490006268,None,equipment,1,38,aloud,yellow,991.9513063002378,None,None,991.9513063002378,None,,,,,,,,,,,,,,,,,,,,,,,,,,,,,,,,,,,107 Aloud,001,2022_Nov_29_1127,ProdSingRedoBetween,2021.2.3,59.99372451085396,
38,0,38,0,,,,,,,,,,,,,,,,,,,,,,,,,,996.4673599004745,None,season,76,39,aloud,red,994.4671699004248,None,None,994.4671699004248,None,,,,,,,,,,,,,,,,,,,,,,,,,,,,,,,,,,,107 Aloud,001,2022_Nov_29_1127,ProdSingRedoBetween,2021.2.3,59.99372451085396,
39,0,39,0,,,,,,,,,,,,,,,,,,,,,,,,,,998.9700066000223,None,detective,62,40,aloud,red,996.9679284999147,None,None,996.9679284999147,None,,,,,,,,,,,,,,,,,,,,,,,,,,,,,,,,,,,107 Aloud,001,2022_Nov_29_1127,ProdSingRedoBetween,2021.2.3,59.99372451085396,
40,0,40,0,,,,,,,,,,,,,,,,,,,,,,,,,,1001.4889109004289,None,platform,44,41,aloud,blue,999.4823447000235,None,None,999.4823447000235,None,,,,,,,,,,,,,,,,,,,,,,,,,,,,,,,,,,,107 Aloud,001,2022_Nov_29_1127,ProdSingRedoBetween,2021.2.3,59.99372451085396,
41,0,41,0,,,,,,,,,,,,,,,,,,,,,,,,,,1003.9915208006278,None,nation,59,42,aloud,yellow,1001.9895753003657,None,None,1001.9895753003657,None,,,,,,,,,,,,,,,,,,,,,,,,,,,,,,,,,,,107 Aloud,001,2022_Nov_29_1127,ProdSingRedoBetween,2021.2.3,59.99372451085396,
42,0,42,0,,,,,,,,,,,,,,,,,,,,,,,,,,1006.4940819004551,None,budget,3,43,aloud,yellow,1004.492132300511,None,None,1004.492132300511,None,,,,,,,,,,,,,,,,,,,,,,,,,,,,,,,,,,,107 Aloud,001,2022_Nov_29_1127,ProdSingRedoBetween,2021.2.3,59.99372451085396,
43,0,43,0,,,,,,,,,,,,,,,,,,,,,,,,,,1009.0132723003626,None,bitter,34,44,aloud,blue,1006.9983715005219,None,None,1006.9983715005219,None,,,,,,,,,,,,,,,,,,,,,,,,,,,,,,,,,,,107 Aloud,001,2022_Nov_29_1127,ProdSingRedoBetween,2021.2.3,59.99372451085396,
44,0,44,0,,,,,,,,,,,,,,,,,,,,,,,,,,1011.51577620022,None,cross,53,45,aloud,blue,1009.5137879000977,None,None,1009.5137879000977,None,,,,,,,,,,,,,,,,,,,,,,,,,,,,,,,,,,,107 Aloud,001,2022_Nov_29_1127,ProdSingRedoBetween,2021.2.3,59.99372451085396,
45,0,45,0,,,,,,,,,,,,,,,,,,,,,,,,,,1014.0182222006842,None,accident,39,46,aloud,blue,1012.016404800117,None,None,1012.016404800117,None,,,,,,,,,,,,,,,,,,,,,,,,,,,,,,,,,,,107 Aloud,001,2022_Nov_29_1127,ProdSingRedoBetween,2021.2.3,59.99372451085396,
46,0,46,0,,,,,,,,,,,,,,,,,,,,,,,,,,1016.5374075006694,None,harmony,61,47,aloud,red,1014.5259194001555,None,None,1014.5259194001555,None,,,,,,,,,,,,,,,,,,,,,,,,,,,,,,,,,,,107 Aloud,001,2022_Nov_29_1127,ProdSingRedoBetween,2021.2.3,59.99372451085396,
47,0,47,0,,,,,,,,,,,,,,,,,,,,,,,,,,1019.0401298999786,None,match,66,48,aloud,red,1017.0379941007122,None,None,1017.0379941007122,None,,,,,,,,,,,,,,,,,,,,,,,,,,,,,,,,,,,107 Aloud,001,2022_Nov_29_1127,ProdSingRedoBetween,2021.2.3,59.99372451085396,
48,0,48,0,,,,,,,,,,,,,,,,,,,,,,,,,,1021.5591079005972,None,speech,28,49,aloud,yellow,1019.550083800219,None,None,1019.550083800219,None,,,,,,,,,,,,,,,,,,,,,,,,,,,,,,,,,,,107 Aloud,001,2022_Nov_29_1127,ProdSingRedoBetween,2021.2.3,59.99372451085396,
49,0,49,0,,,,,,,,,,,,,,,,,,,,,,,,,,1024.0613248003647,None,command,63,50,aloud,red,1022.0596099002287,None,None,1022.0596099002287,None,,,,,,,,,,,,,,,,,,,,,,,,,,,,,,,,,,,107 Aloud,001,2022_Nov_29_1127,ProdSingRedoBetween,2021.2.3,59.99372451085396,
50,0,50,0,,,,,,,,,,,,,,,,,,,,,,,,,,1026.5807762006298,None,split,50,51,aloud,blue,1024.569185799919,None,None,1024.569185799919,None,,,,,,,,,,,,,,,,,,,,,,,,,,,,,,,,,,,107 Aloud,001,2022_Nov_29_1127,ProdSingRedoBetween,2021.2.3,59.99372451085396,
51,0,51,0,,,,,,,,,,,,,,,,,,,,,,,,,,1029.0832417001948,None,degree,16,52,aloud,yellow,1027.0812961002812,None,None,1027.0812961002812,None,,,,,,,,,,,,,,,,,,,,,,,,,,,,,,,,,,,107 Aloud,001,2022_Nov_29_1127,ProdSingRedoBetween,2021.2.3,59.99372451085396,
52,0,52,0,,,,,,,,,,,,,,,,,,,,,,,,,,1031.5857856003568,None,minor,81,53,aloud,red,1029.5835183002055,None,None,1029.5835183002055,None,,,,,,,,,,,,,,,,,,,,,,,,,,,,,,,,,,,107 Aloud,001,2022_Nov_29_1127,ProdSingRedoBetween,2021.2.3,59.99372451085396,
53,0,53,0,,,,,,,,,,,,,,,,,,,,,,,,,,1034.0880831005052,None,watch,27,54,aloud,yellow,1032.0862417006865,None,None,1032.0862417006865,None,,,,,,,,,,,,,,,,,,,,,,,,,,,,,,,,,,,107 Aloud,001,2022_Nov_29_1127,ProdSingRedoBetween,2021.2.3,59.99372451085396,
54,0,54,0,,,,,,,,,,,,,,,,,,,,,,,,,,1036.5907144006342,None,century,55,55,aloud,blue,1034.5886830007657,None,None,1034.5886830007657,None,,,,,,,,,,,,,,,,,,,,,,,,,,,,,,,,,,,107 Aloud,001,2022_Nov_29_1127,ProdSingRedoBetween,2021.2.3,59.99372451085396,
55,0,55,0,,,,,,,,,,,,,,,,,,,,,,,,,,1039.0930300001055,None,guide,51,56,aloud,blue,1037.091703900136,None,None,1037.091703900136,None,,,,,,,,,,,,,,,,,,,,,,,,,,,,,,,,,,,107 Aloud,001,2022_Nov_29_1127,ProdSingRedoBetween,2021.2.3,59.99372451085396,
56,0,56,0,,,,,,,,,,,,,,,,,,,,,,,,,,1041.596751499921,None,material,12,57,aloud,yellow,1039.5940132001415,None,None,1039.5940132001415,None,,,,,,,,,,,,,,,,,,,,,,,,,,,,,,,,,,,107 Aloud,001,2022_Nov_29_1127,ProdSingRedoBetween,2021.2.3,59.99372451085396,
57,0,57,0,,,,,,,,,,,,,,,,,,,,,,,,,,1044.0982656003907,None,running,47,58,aloud,blue,1042.0969092007726,None,None,1042.0969092007726,None,,,,,,,,,,,,,,,,,,,,,,,,,,,,,,,,,,,107 Aloud,001,2022_Nov_29_1127,ProdSingRedoBetween,2021.2.3,59.99372451085396,
58,0,58,0,,,,,,,,,,,,,,,,,,,,,,,,,,1046.6173908002675,None,republic,80,59,aloud,red,1044.6026272000745,None,None,1044.6026272000745,None,,,,,,,,,,,,,,,,,,,,,,,,,,,,,,,,,,,107 Aloud,001,2022_Nov_29_1127,ProdSingRedoBetween,2021.2.3,59.99372451085396,
59,0,59,0,,,,,,,,,,,,,,,,,,,,,,,,,,1049.1366614000872,None,captain,31,60,aloud,blue,1047.12956830021,None,None,1047.12956830021,None,,,,,,,,,,,,,,,,,,,,,,,,,,,,,,,,,,,107 Aloud,001,2022_Nov_29_1127,ProdSingRedoBetween,2021.2.3,59.99372451085396,
60,0,60,0,,,,,,,,,,,,,,,,,,,,,,,,,,1051.639164400287,None,under,64,61,aloud,red,1049.637040500529,None,None,1049.637040500529,None,,,,,,,,,,,,,,,,,,,,,,,,,,,,,,,,,,,107 Aloud,001,2022_Nov_29_1127,ProdSingRedoBetween,2021.2.3,59.99372451085396,
61,0,61,0,,,,,,,,,,,,,,,,,,,,,,,,,,1054.1416788008064,None,personnel,67,62,aloud,red,1052.141399600543,None,None,1052.141399600543,None,,,,,,,,,,,,,,,,,,,,,,,,,,,,,,,,,,,107 Aloud,001,2022_Nov_29_1127,ProdSingRedoBetween,2021.2.3,59.99372451085396,
62,0,62,0,,,,,,,,,,,,,,,,,,,,,,,,,,1056.6607780000195,None,election,25,63,aloud,yellow,1054.645104500465,None,None,1054.645104500465,None,,,,,,,,,,,,,,,,,,,,,,,,,,,,,,,,,,,107 Aloud,001,2022_Nov_29_1127,ProdSingRedoBetween,2021.2.3,59.99372451085396,
63,0,63,0,,,,,,,,,,,,,,,,,,,,,,,,,,1059.1629140004516,None,stranger,24,64,aloud,yellow,1057.1632626000792,None,None,1057.1632626000792,None,,,,,,,,,,,,,,,,,,,,,,,,,,,,,,,,,,,107 Aloud,001,2022_Nov_29_1127,ProdSingRedoBetween,2021.2.3,59.99372451085396,
64,0,64,0,,,,,,,,,,,,,,,,,,,,,,,,,,1061.6821167003363,None,literature,10,65,aloud,yellow,1059.6759074004367,None,None,1059.6759074004367,None,,,,,,,,,,,,,,,,,,,,,,,,,,,,,,,,,,,107 Aloud,001,2022_Nov_29_1127,ProdSingRedoBetween,2021.2.3,59.99372451085396,
65,0,65,0,,,,,,,,,,,,,,,,,,,,,,,,,,1064.2017069002613,None,volume,26,66,aloud,yellow,1062.1872451007366,None,None,1062.1872451007366,None,,,,,,,,,,,,,,,,,,,,,,,,,,,,,,,,,,,107 Aloud,001,2022_Nov_29_1127,ProdSingRedoBetween,2021.2.3,59.99372451085396,
66,0,66,0,,,,,,,,,,,,,,,,,,,,,,,,,,1066.7040544003248,None,agency,77,67,aloud,red,1064.7050275001675,None,None,1064.7050275001675,None,,,,,,,,,,,,,,,,,,,,,,,,,,,,,,,,,,,107 Aloud,001,2022_Nov_29_1127,ProdSingRedoBetween,2021.2.3,59.99372451085396,
67,0,67,0,,,,,,,,,,,,,,,,,,,,,,,,,,1069.20660790056,None,colonel,8,68,aloud,yellow,1067.2058711005375,None,None,1067.2058711005375,None,,,,,,,,,,,,,,,,,,,,,,,,,,,,,,,,,,,107 Aloud,001,2022_Nov_29_1127,ProdSingRedoBetween,2021.2.3,59.99372451085396,
68,0,68,0,,,,,,,,,,,,,,,,,,,,,,,,,,1071.7091848002747,None,blind,18,69,aloud,yellow,1069.7073274003342,None,None,1069.7073274003342,None,,,,,,,,,,,,,,,,,,,,,,,,,,,,,,,,,,,107 Aloud,001,2022_Nov_29_1127,ProdSingRedoBetween,2021.2.3,59.99372451085396,
69,0,69,0,,,,,,,,,,,,,,,,,,,,,,,,,,1074.2116656005383,None,union,29,70,aloud,blue,1072.2102407999337,None,None,1072.2102407999337,None,,,,,,,,,,,,,,,,,,,,,,,,,,,,,,,,,,,107 Aloud,001,2022_Nov_29_1127,ProdSingRedoBetween,2021.2.3,59.99372451085396,
70,0,70,0,,,,,,,,,,,,,,,,,,,,,,,,,,1076.730795700103,None,review,85,71,aloud,red,1074.7171521000564,None,None,1074.7171521000564,None,,,,,,,,,,,,,,,,,,,,,,,,,,,,,,,,,,,107 Aloud,001,2022_Nov_29_1127,ProdSingRedoBetween,2021.2.3,59.99372451085396,
71,0,71,0,,,,,,,,,,,,,,,,,,,,,,,,,,1079.2332489006221,None,machinery,14,72,aloud,yellow,1077.2312876004726,None,None,1077.2312876004726,None,,,,,,,,,,,,,,,,,,,,,,,,,,,,,,,,,,,107 Aloud,001,2022_Nov_29_1127,ProdSingRedoBetween,2021.2.3,59.99372451085396,
72,0,72,0,,,,,,,,,,,,,,,,,,,,,,,,,,1081.752554400824,None,citizen,30,73,aloud,blue,1079.7368564000353,None,None,1079.7368564000353,None,,,,,,,,,,,,,,,,,,,,,,,,,,,,,,,,,,,107 Aloud,001,2022_Nov_29_1127,ProdSingRedoBetween,2021.2.3,59.99372451085396,
73,0,73,0,,,,,,,,,,,,,,,,,,,,,,,,,,1084.271604700014,None,benefit,70,74,aloud,red,1082.257110000588,None,None,1082.257110000588,None,,,,,,,,,,,,,,,,,,,,,,,,,,,,,,,,,,,107 Aloud,001,2022_Nov_29_1127,ProdSingRedoBetween,2021.2.3,59.99372451085396,
74,0,74,0,,,,,,,,,,,,,,,,,,,,,,,,,,1086.7908581001684,None,sight,2,75,aloud,yellow,1084.7792167002335,None,None,1084.7792167002335,None,,,,,,,,,,,,,,,,,,,,,,,,,,,,,,,,,,,107 Aloud,001,2022_Nov_29_1127,ProdSingRedoBetween,2021.2.3,59.99372451085396,
75,0,75,0,,,,,,,,,,,,,,,,,,,,,,,,,,1089.2933769002557,None,trail,75,76,aloud,red,1087.2940691001713,None,None,1087.2940691001713,None,,,,,,,,,,,,,,,,,,,,,,,,,,,,,,,,,,,107 Aloud,001,2022_Nov_29_1127,ProdSingRedoBetween,2021.2.3,59.99372451085396,
76,0,76,0,,,,,,,,,,,,,,,,,,,,,,,,,,1091.7979292003438,None,direction,89,77,aloud,red,1089.7946271002293,None,None,1089.7946271002293,None,,,,,,,,,,,,,,,,,,,,,,,,,,,,,,,,,,,107 Aloud,001,2022_Nov_29_1127,ProdSingRedoBetween,2021.2.3,59.99372451085396,
77,0,77,0,,,,,,,,,,,,,,,,,,,,,,,,,,1094.3151245005429,None,society,33,78,aloud,blue,1092.3140505999327,None,None,1092.3140505999327,None,,,,,,,,,,,,,,,,,,,,,,,,,,,,,,,,,,,107 Aloud,001,2022_Nov_29_1127,ProdSingRedoBetween,2021.2.3,59.99372451085396,
78,0,78,0,,,,,,,,,,,,,,,,,,,,,,,,,,1096.8341396003962,None,vision,37,79,aloud,blue,1094.8187796007842,None,None,1094.8187796007842,None,,,,,,,,,,,,,,,,,,,,,,,,,,,,,,,,,,,107 Aloud,001,2022_Nov_29_1127,ProdSingRedoBetween,2021.2.3,59.99372451085396,
79,0,79,0,,,,,,,,,,,,,,,,,,,,,,,,,,1099.336707400158,None,symbol,68,80,aloud,red,1097.3354596002027,None,None,1097.3354596002027,None,,,,,,,,,,,,,,,,,,,,,,,,,,,,,,,,,,,107 Aloud,001,2022_Nov_29_1127,ProdSingRedoBetween,2021.2.3,59.99372451085396,
80,0,80,0,,,,,,,,,,,,,,,,,,,,,,,,,,1101.8558473000303,None,production,84,81,aloud,red,1099.8416384002194,None,None,1099.8416384002194,None,,,,,,,,,,,,,,,,,,,,,,,,,,,,,,,,,,,107 Aloud,001,2022_Nov_29_1127,ProdSingRedoBetween,2021.2.3,59.99372451085396,
81,0,81,0,,,,,,,,,,,,,,,,,,,,,,,,,,1104.3750309003517,None,series,83,82,aloud,red,1102.3691048007458,None,None,1102.3691048007458,None,,,,,,,,,,,,,,,,,,,,,,,,,,,,,,,,,,,107 Aloud,001,2022_Nov_29_1127,ProdSingRedoBetween,2021.2.3,59.99372451085396,
82,0,82,0,,,,,,,,,,,,,,,,,,,,,,,,,,1106.877449400723,None,escape,65,83,aloud,red,1104.8775008004159,None,None,1104.8775008004159,None,,,,,,,,,,,,,,,,,,,,,,,,,,,,,,,,,,,107 Aloud,001,2022_Nov_29_1127,ProdSingRedoBetween,2021.2.3,59.99372451085396,
83,0,83,0,,,,,,,,,,,,,,,,,,,,,,,,,,1109.3800369007513,None,court,52,84,aloud,blue,1107.3799988003448,None,None,1107.3799988003448,None,,,,,,,,,,,,,,,,,,,,,,,,,,,,,,,,,,,107 Aloud,001,2022_Nov_29_1127,ProdSingRedoBetween,2021.2.3,59.99372451085396,
84,0,84,0,,,,,,,,,,,,,,,,,,,,,,,,,,1111.8991547999904,None,sound,36,85,aloud,blue,1109.8847087007016,None,None,1109.8847087007016,None,,,,,,,,,,,,,,,,,,,,,,,,,,,,,,,,,,,107 Aloud,001,2022_Nov_29_1127,ProdSingRedoBetween,2021.2.3,59.99372451085396,
85,0,85,0,,,,,,,,,,,,,,,,,,,,,,,,,,1114.4017056003213,None,skill,86,86,aloud,red,1112.3997235000134,None,None,1112.3997235000134,None,,,,,,,,,,,,,,,,,,,,,,,,,,,,,,,,,,,107 Aloud,001,2022_Nov_29_1127,ProdSingRedoBetween,2021.2.3,59.99372451085396,
86,0,86,0,,,,,,,,,,,,,,,,,,,,,,,,,,1116.9042033003643,None,tough,6,87,aloud,yellow,1114.9030771004036,None,None,1114.9030771004036,None,,,,,,,,,,,,,,,,,,,,,,,,,,,,,,,,,,,107 Aloud,001,2022_Nov_29_1127,ProdSingRedoBetween,2021.2.3,59.99372451085396,
87,0,87,0,,,,,,,,,,,,,,,,,,,,,,,,,,1119.4066774006933,None,recall,20,88,aloud,yellow,1117.4050934007391,None,None,1117.4050934007391,None,,,,,,,,,,,,,,,,,,,,,,,,,,,,,,,,,,,107 Aloud,001,2022_Nov_29_1127,ProdSingRedoBetween,2021.2.3,59.99372451085396,
88,0,88,0,,,,,,,,,,,,,,,,,,,,,,,,,,1121.9257033001631,None,business,87,89,aloud,red,1119.9140019007027,None,None,1119.9140019007027,None,,,,,,,,,,,,,,,,,,,,,,,,,,,,,,,,,,,107 Aloud,001,2022_Nov_29_1127,ProdSingRedoBetween,2021.2.3,59.99372451085396,
89,0,89,0,,,,,,,,,,,,,,,,,,,,,,,,,,1124.4280366003513,None,birth,4,90,aloud,yellow,1122.4262009002268,None,None,1122.4262009002268,None,,,,,,,,,,,,,,,,,,,,,,,,,,,,,,,,,,,107 Aloud,001,2022_Nov_29_1127,ProdSingRedoBetween,2021.2.3,59.99372451085396,
,,,,,,,,,,,,,,,,,,,,,,,,,,,,,,,,,,,,,,,,,1124.9422333007678,None,k,196.1523579005152,1124.9422333007678,None,,,,,,,,,,,,,,,,,,,,,,,,,,,,,107 Aloud,001,2022_Nov_29_1127,ProdSingRedoBetween,2021.2.3,59.99372451085396,
,,,,0,0,0,0,,,,,,,,,,,,,,,,,,,,,,1337.357338600792,None,,,,,,,,,,,,,,,,,department,21,1,aloud,old,yellow,1321.6357589000836,None,1321.6357589000836,None,6,11.482778599485755,1321.6357589000836,None,11.482778599485755,1333.1385257001966,None,1333.6601244006306,None,1333.6601244006306,None,r,3.6824548998847604,1333.6601244006306,None,3.6824548998847604,,,107 Aloud,001,2022_Nov_29_1127,ProdSingRedoBetween,2021.2.3,59.99372451085396,
,,,,1,0,1,0,,,,,,,,,,,,,,,,,,,,,,1348.2182636000216,None,,,,,,,,,,,,,,,,,rapid,173,2,aloud,new,null,1337.86816140078,None,1337.86816140078,None,3,7.94645950011909,1337.86816140078,None,7.94645950011909,1345.8357987999916,None,1346.3524217000231,None,1346.3524217000231,None,f,1.8381250007078052,1346.3524217000231,None,1.8381250007078052,,,107 Aloud,001,2022_Nov_29_1127,ProdSingRedoBetween,2021.2.3,59.99372451085396,
,,,,2,0,2,0,,,,,,,,,,,,,,,,,,,,,,1352.7227049004287,None,,,,,,,,,,,,,,,,,public,94,3,aloud,new,null,1348.7224072003737,None,1348.7224072003737,None,6,2.6683868002146482,1348.7224072003737,None,2.6683868002146482,1351.428625500761,None,1351.9437792003155,None,1351.9437792003155,None,r,0.7587954001501203,1351.9437792003155,None,0.7587954001501203,,,107 Aloud,001,2022_Nov_29_1127,ProdSingRedoBetween,2021.2.3,59.99372451085396,
,,,,3,0,3,0,,,,,,,,,,,,,,,,,,,,,,1355.7275304999202,None,,,,,,,,,,,,,,,,,production,84,4,aloud,old,red,1353.2232850007713,None,1353.2232850007713,None,6,1.863336899317801,1353.2232850007713,None,1.863336899317801,1355.1162048000842,None,1355.6257161004469,None,1355.6257161004469,None,r,0.08488839957863092,1355.6257161004469,None,0.08488839957863092,,,107 Aloud,001,2022_Nov_29_1127,ProdSingRedoBetween,2021.2.3,59.99372451085396,
,,,,4,0,4,0,,,,,,,,,,,,,,,,,,,,,,1360.4302251003683,None,,,,,,,,,,,,,,,,,relation,136,5,aloud,new,null,1356.2428221004084,None,1356.2428221004084,None,6,1.9078812999650836,1356.2428221004084,None,1.9078812999650836,1358.190498300828,None,1358.695503900759,None,1358.695503900759,None,r,1.7029808992519975,1358.695503900759,None,1.7029808992519975,,,107 Aloud,001,2022_Nov_29_1127,ProdSingRedoBetween,2021.2.3,59.99372451085396,
,,,,5,0,5,0,,,,,,,,,,,,,,,,,,,,,,1366.3696618005633,None,,,,,,,,,,,,,,,,,shear,99,6,aloud,new,null,1360.9324871003628,None,1360.9324871003628,None,1,2.5700048999860883,1360.9324871003628,None,2.5700048999860883,1363.5352720003575,None,1364.0527961999178,None,1364.0527961999178,None,n,2.2896822998300195,1364.0527961999178,None,2.2896822998300195,,,107 Aloud,001,2022_Nov_29_1127,ProdSingRedoBetween,2021.2.3,59.99372451085396,
,,,,6,0,6,0,,,,,,,,,,,,,,,,,,,,,,1371.9418762000278,None,,,,,,,,,,,,,,,,,fashion,131,7,aloud,new,null,1366.8789729001,None,1366.8789729001,None,3,3.327550199814141,1366.8789729001,None,3.327550199814141,1370.229709200561,None,1370.7434717006981,None,1370.7434717006981,None,f,1.1670386996120214,1370.7434717006981,None,1.1670386996120214,,,107 Aloud,001,2022_Nov_29_1127,ProdSingRedoBetween,2021.2.3,59.99372451085396,
,,,,7,0,7,0,,,,,,,,,,,,,,,,,,,,,,1377.4140292005613,None,,,,,,,,,,,,,,,,,attack,35,8,aloud,old,blue,1372.4605111004785,None,1372.4605111004785,None,1,2.114057299681008,1372.4605111004785,None,2.114057299681008,1374.6010639006272,None,1375.111630000174,None,1375.111630000174,None,n,2.2868097005411983,1375.111630000174,None,2.2868097005411983,,,107 Aloud,001,2022_Nov_29_1127,ProdSingRedoBetween,2021.2.3,59.99372451085396,
,,,,8,0,8,0,,,,,,,,,,,,,,,,,,,,,,1381.2344065001234,None,,,,,,,,,,,,,,,,,reading,7,9,aloud,old,yellow,1377.9234447004274,None,1377.9234447004274,None,6,1.6670867996290326,1377.9234447004274,None,1.6670867996290326,1379.6171266008168,None,1380.1167606003582,None,1380.1167606003582,None,r,1.0977909993380308,1380.1167606003582,None,1.0977909993380308,,,107 Aloud,001,2022_Nov_29_1127,ProdSingRedoBetween,2021.2.3,59.99372451085396,
,,,,9,0,9,0,,,,,,,,,,,,,,,,,,,,,,1385.4886158006266,None,,,,,,,,,,,,,,,,,match,66,10,aloud,old,red,1381.740063100122,None,1381.740063100122,None,6,2.9226077999919653,1381.740063100122,None,2.9226077999919653,1384.6933952001855,None,1385.2051575006917,None,1385.2051575006917,None,r,0.25728730019181967,1385.2051575006917,None,0.25728730019181967,,,107 Aloud,001,2022_Nov_29_1127,ProdSingRedoBetween,2021.2.3,59.99372451085396,
,,,,10,0,10,0,,,,,,,,,,,,,,,,,,,,,,1388.6085390001535,None,,,,,,,,,,,,,,,,,trail,75,11,aloud,old,red,1385.9952357001603,None,1385.9952357001603,None,6,1.7792955003678799,1385.9952357001603,None,1.7792955003678799,1387.790735900402,None,1388.2930686008185,None,1388.2930686008185,None,r,0.2973343003541231,1388.2930686008185,None,0.2973343003541231,,,107 Aloud,001,2022_Nov_29_1127,ProdSingRedoBetween,2021.2.3,59.99372451085396,
,,,,11,0,11,0,,,,,,,,,,,,,,,,,,,,,,1393.9470711005852,None,,,,,,,,,,,,,,,,,split,50,12,aloud,old,blue,1389.1090709008276,None,1389.1090709008276,None,4,3.5294671999290586,1389.1090709008276,None,3.5294671999290586,1392.6639443999156,None,1393.1676197005436,None,1393.1676197005436,None,f,0.7589084003120661,1393.1676197005436,None,0.7589084003120661,,,107 Aloud,001,2022_Nov_29_1127,ProdSingRedoBetween,2021.2.3,59.99372451085396,
,,,,12,0,12,0,,,,,,,,,,,,,,,,,,,,,,1399.4859517002478,None,,,,,,,,,,,,,,,,,master,38,13,aloud,old,blue,1394.4489036006853,None,1394.4489036006853,None,5,3.6778367003425956,1394.4489036006853,None,3.6778367003425956,1398.1513460008428,None,1398.6519908001646,None,1398.6519908001646,None,f,0.8185001006349921,1398.6519908001646,None,0.8185001006349921,,,107 Aloud,001,2022_Nov_29_1127,ProdSingRedoBetween,2021.2.3,59.99372451085396,
,,,,13,0,13,0,,,,,,,,,,,,,,,,,,,,,,1406.309516100213,None,,,,,,,,,,,,,,,,,chief,142,14,aloud,new,null,1399.9898738004267,None,1399.9898738004267,None,5,4.97660019993782,1399.9898738004267,None,4.97660019993782,1404.9932935005054,None,1405.5086259003729,None,1405.5086259003729,None,r,0.7698349002748728,1405.5086259003729,None,0.7698349002748728,,,107 Aloud,001,2022_Nov_29_1127,ProdSingRedoBetween,2021.2.3,59.99372451085396,
,,,,14,0,14,0,,,,,,,,,,,,,,,,,,,,,,1411.7678711004555,None,,,,,,,,,,,,,,,,,audience,129,15,aloud,new,null,1406.8186273006722,None,1406.8186273006722,None,2,3.219855200499296,1406.8186273006722,None,3.219855200499296,1410.0629671001807,None,1410.565667600371,None,1410.565667600371,None,f,1.1770518999546766,1410.565667600371,None,1.1770518999546766,,,107 Aloud,001,2022_Nov_29_1127,ProdSingRedoBetween,2021.2.3,59.99372451085396,
,,,,15,0,15,0,,,,,,,,,,,,,,,,,,,,,,1417.2716442001984,None,,,,,,,,,,,,,,,,,clean,162,16,aloud,new,null,1412.2900780001655,None,1412.2900780001655,None,3,4.092515600845218,1412.2900780001655,None,4.092515600845218,1416.4075349001214,None,1416.9247727002949,None,1416.9247727002949,None,f,0.3298569992184639,1416.9247727002949,None,0.3298569992184639,,,107 Aloud,001,2022_Nov_29_1127,ProdSingRedoBetween,2021.2.3,59.99372451085396,
,,,,16,0,16,0,,,,,,,,,,,,,,,,,,,,,,1426.2626662002876,None,,,,,,,,,,,,,,,,,problem,175,17,aloud,new,null,1417.7836593007669,None,1417.7836593007669,None,4,6.982842800207436,1417.7836593007669,None,6.982842800207436,1424.8050992004573,None,1425.311833200045,None,1425.311833200045,None,r,0.9346244996413589,1425.311833200045,None,0.9346244996413589,,,107 Aloud,001,2022_Nov_29_1127,ProdSingRedoBetween,2021.2.3,59.99372451085396,
,,,,17,0,17,0,,,,,,,,,,,,,,,,,,,,,,1429.7161663006991,None,,,,,,,,,,,,,,,,,education,169,18,aloud,new,null,1426.763432700187,None,1426.763432700187,None,6,1.4593148995190859,1426.763432700187,None,1.4593148995190859,1428.2617565002292,None,1428.7668454004452,None,1428.7668454004452,None,r,0.9195906007662416,1428.7668454004452,None,0.9195906007662416,,,107 Aloud,001,2022_Nov_29_1127,ProdSingRedoBetween,2021.2.3,59.99372451085396,
,,,,18,0,18,0,,,,,,,,,,,,,,,,,,,,,,1434.9213706003502,None,,,,,,,,,,,,,,,,,conference,174,19,aloud,new,null,1430.2258134000003,None,1430.2258134000003,None,3,3.7165718004107475,1430.2258134000003,None,3.7165718004107475,1433.973388100043,None,1434.4877273999155,None,1434.4877273999155,None,f,0.40666559990495443,1434.4877273999155,None,0.40666559990495443,,,107 Aloud,001,2022_Nov_29_1127,ProdSingRedoBetween,2021.2.3,59.99372451085396,
,,,,19,0,19,0,,,,,,,,,,,,,,,,,,,,,,1438.324951200746,None,,,,,,,,,,,,,,,,,colonel,8,20,aloud,old,yellow,1435.430185600184,None,1435.430185600184,None,6,1.5202325992286205,1435.430185600184,None,1.5202325992286205,1436.9737130999565,None,1437.4767801007256,None,1437.4767801007256,None,r,0.8255331004038453,1437.4767801007256,None,0.8255331004038453,,,107 Aloud,001,2022_Nov_29_1127,ProdSingRedoBetween,2021.2.3,59.99372451085396,
,,,,20,0,20,0,,,,,,,,,,,,,,,,,,,,,,1441.2952192006633,None,,,,,,,,,,,,,,,,,member,125,21,aloud,new,null,1438.8293943004683,None,1438.8293943004683,None,6,1.5369669999927282,1438.8293943004683,None,1.5369669999927282,1440.4024571003392,None,1440.910812200047,None,1440.910812200047,None,r,0.36751330085098743,1440.910812200047,None,0.36751330085098743,,,107 Aloud,001,2022_Nov_29_1127,ProdSingRedoBetween,2021.2.3,59.99372451085396,
,,,,21,0,21,0,,,,,,,,,,,,,,,,,,,,,,1444.664427800104,None,,,,,,,,,,,,,,,,,literature,10,22,aloud,old,yellow,1441.799028600566,None,1441.799028600566,None,6,2.0073634004220366,1441.799028600566,None,2.0073634004220366,1443.8299424005672,None,1444.3343446999788,None,1444.3343446999788,None,r,0.3040673993527889,1444.3343446999788,None,0.3040673993527889,,,107 Aloud,001,2022_Nov_29_1127,ProdSingRedoBetween,2021.2.3,59.99372451085396,
,,,,22,0,22,0,,,,,,,,,,,,,,,,,,,,,,1447.917598400265,None,,,,,,,,,,,,,,,,,smooth,109,23,aloud,new,null,1445.1724099004641,None,1445.1724099004641,None,1,1.5860013999044895,1445.1724099004641,None,1.5860013999044895,1446.789679100737,None,1447.3019934007898,None,1447.3019934007898,None,f,0.5845317002385855,1447.3019934007898,None,0.5845317002385855,,,107 Aloud,001,2022_Nov_29_1127,ProdSingRedoBetween,2021.2.3,59.99372451085396,
,,,,23,0,23,0,,,,,,,,,,,,,,,,,,,,,,1450.888060000725,None,,,,,,,,,,,,,,,,,minor,81,24,aloud,old,red,1448.424274300225,None,1448.424274300225,None,6,1.6221325993537903,1448.424274300225,None,1.6221325993537903,1450.0695850001648,None,1450.5810404000804,None,1450.5810404000804,None,r,0.281360499560833,1450.5810404000804,None,0.281360499560833,,,107 Aloud,001,2022_Nov_29_1127,ProdSingRedoBetween,2021.2.3,59.99372451085396,
,,,,24,0,24,0,,,,,,,,,,,,,,,,,,,,,,1454.190545600839,None,,,,,,,,,,,,,,,,,committee,124,25,aloud,new,null,1451.3901901002973,None,1451.3901901002973,None,1,1.6642677998170257,1451.3901901002973,None,1.6642677998170257,1453.0725177004933,None,1453.57534340024,None,1453.57534340024,None,f,0.5910411002114415,1453.57534340024,None,0.5910411002114415,,,107 Aloud,001,2022_Nov_29_1127,ProdSingRedoBetween,2021.2.3,59.99372451085396,
,,,,25,0,25,0,,,,,,,,,,,,,,,,,,,,,,1460.6470282999799,None,,,,,,,,,,,,,,,,,danger,134,26,aloud,new,null,1454.699211500585,None,1454.699211500585,None,3,3.4511156994849443,1454.699211500585,None,3.4511156994849443,1458.1779845003039,None,1458.6786288004369,None,1458.6786288004369,None,n,1.9437410002574325,1458.6786288004369,None,1.9437410002574325,,,107 Aloud,001,2022_Nov_29_1127,ProdSingRedoBetween,2021.2.3,59.99372451085396,
,,,,26,0,26,0,,,,,,,,,,,,,,,,,,,,,,1465.6851055007428,None,,,,,,,,,,,,,,,,,graduate,153,27,aloud,new,null,1461.1560618001968,None,1461.1560618001968,None,5,3.506462600082159,1461.1560618001968,None,3.506462600082159,1464.6869378006086,None,1465.2016219999641,None,1465.2016219999641,None,r,0.4528188994154334,1465.2016219999641,None,0.4528188994154334,,,107 Aloud,001,2022_Nov_29_1127,ProdSingRedoBetween,2021.2.3,59.99372451085396,
,,,,27,0,27,0,,,,,,,,,,,,,,,,,,,,,,1468.4063527006656,None,,,,,,,,,,,,,,,,,command,63,28,aloud,old,red,1466.2015741001815,None,1466.2015741001815,None,6,1.3568811994045973,1466.2015741001815,None,1.3568811994045973,1467.5873266002163,None,1468.087830000557,None,1468.087830000557,None,r,0.2865888997912407,1468.087830000557,None,0.2865888997912407,,,107 Aloud,001,2022_Nov_29_1127,ProdSingRedoBetween,2021.2.3,59.99372451085396,
,,,,28,0,28,0,,,,,,,,,,,,,,,,,,,,,,1471.6744162002578,None,,,,,,,,,,,,,,,,,carry,98,29,aloud,new,null,1468.9285341007635,None,1468.9285341007635,None,2,1.6698006000369787,1468.9285341007635,None,1.6698006000369787,1470.6254039006308,None,1471.1443322002888,None,1471.1443322002888,None,n,0.5100711993873119,1471.1443322002888,None,0.5100711993873119,,,107 Aloud,001,2022_Nov_29_1127,ProdSingRedoBetween,2021.2.3,59.99372451085396,
,,,,29,0,29,0,,,,,,,,,,,,,,,,,,,,,,1474.8108272999525,None,,,,,,,,,,,,,,,,,mayor,0,30,aloud,old,yellow,1472.188518400304,None,1472.188518400304,None,6,1.761998999863863,1472.188518400304,None,1.761998999863863,1473.9788299007341,None,1474.4939023004845,None,1474.4939023004845,None,r,0.28837869968265295,1474.4939023004845,None,0.28837869968265295,,,107 Aloud,001,2022_Nov_29_1127,ProdSingRedoBetween,2021.2.3,59.99372451085396,
,,,,30,0,30,0,,,,,,,,,,,,,,,,,,,,,,1478.1811246005818,None,,,,,,,,,,,,,,,,,passage,176,31,aloud,new,null,1475.3149529006332,None,1475.3149529006332,None,2,1.8676530001685023,1475.3149529006332,None,1.8676530001685023,1477.2206018008292,None,1477.7351398002356,None,1477.7351398002356,None,f,0.4152128994464874,1477.7351398002356,None,0.4152128994464874,,,107 Aloud,001,2022_Nov_29_1127,ProdSingRedoBetween,2021.2.3,59.99372451085396,
,,,,31,0,31,0,,,,,,,,,,,,,,,,,,,,,,1481.2841945001855,None,,,,,,,,,,,,,,,,,candidate,133,32,aloud,new,null,1478.6831356007606,None,1478.6831356007606,None,6,1.8031094996258616,1478.6831356007606,None,1.8031094996258616,1480.5232664002106,None,1481.036593100056,None,1481.036593100056,None,r,0.225777099840343,1481.036593100056,None,0.225777099840343,,,107 Aloud,001,2022_Nov_29_1127,ProdSingRedoBetween,2021.2.3,59.99372451085396,
,,,,32,0,32,0,,,,,,,,,,,,,,,,,,,,,,1484.871107100509,None,,,,,,,,,,,,,,,,,ground,79,33,aloud,old,red,1481.7880456000566,None,1481.7880456000566,None,2,1.5942929005250335,1481.7880456000566,None,1.5942929005250335,1483.4029276007786,None,1483.9033465003595,None,1483.9033465003595,None,f,0.9429789008572698,1483.9033465003595,None,0.9429789008572698,,,107 Aloud,001,2022_Nov_29_1127,ProdSingRedoBetween,2021.2.3,59.99372451085396,
,,,,33,0,33,0,,,,,,,,,,,,,,,,,,,,,,1488.325916800648,None,,,,,,,,,,,,,,,,,brilliant,144,34,aloud,new,null,1485.3729791007936,None,1485.3729791007936,None,1,1.6654383996501565,1485.3729791007936,None,1.6654383996501565,1487.0634473003447,None,1487.5772188007832,None,1487.5772188007832,None,f,0.7251634998247027,1487.5772188007832,None,0.7251634998247027,,,107 Aloud,001,2022_Nov_29_1127,ProdSingRedoBetween,2021.2.3,59.99372451085396,
,,,,34,0,34,0,,,,,,,,,,,,,,,,,,,,,,1491.9152418002486,None,,,,,,,,,,,,,,,,,collection,128,35,aloud,new,null,1488.8314375001937,None,1488.8314375001937,None,4,2.3029530001804233,1488.8314375001937,None,2.3029530001804233,1491.1653186008334,None,1491.6788038006052,None,1491.6788038006052,None,f,0.20763249974697828,1491.6788038006052,None,0.20763249974697828,,,107 Aloud,001,2022_Nov_29_1127,ProdSingRedoBetween,2021.2.3,59.99372451085396,
,,,,35,0,35,0,,,,,,,,,,,,,,,,,,,,,,1495.1658574007452,None,,,,,,,,,,,,,,,,,design,119,36,aloud,new,null,1492.4287734003738,None,1492.4287734003738,None,6,1.9616018002852798,1492.4287734003738,None,1.9616018002852798,1494.4190839007497,None,1494.9327945001423,None,1494.9327945001423,None,r,0.20163480006158352,1494.9327945001423,None,0.20163480006158352,,,107 Aloud,001,2022_Nov_29_1127,ProdSingRedoBetween,2021.2.3,59.99372451085396,
,,,,36,0,36,0,,,,,,,,,,,,,,,,,,,,,,1501.6211906000972,None,,,,,,,,,,,,,,,,,broke,102,37,aloud,new,null,1495.6754644000903,None,1495.6754644000903,None,2,4.13893279992044,1495.6754644000903,None,4.13893279992044,1499.8419201001525,None,1500.3533246004954,None,1500.3533246004954,None,n,1.245035500265658,1500.3533246004954,None,1.245035500265658,,,107 Aloud,001,2022_Nov_29_1127,ProdSingRedoBetween,2021.2.3,59.99372451085396,
,,,,37,0,37,0,,,,,,,,,,,,,,,,,,,,,,1504.7745986003429,None,,,,,,,,,,,,,,,,,worker,152,38,aloud,new,null,1502.1284750001505,None,1502.1284750001505,None,2,1.8457474000751972,1502.1284750001505,None,1.8457474000751972,1504.0000130999833,None,1504.5098414001986,None,1504.5098414001986,None,f,0.24038999993354082,1504.5098414001986,None,0.24038999993354082,,,107 Aloud,001,2022_Nov_29_1127,ProdSingRedoBetween,2021.2.3,59.99372451085396,
,,,,38,0,38,0,,,,,,,,,,,,,,,,,,,,,,1507.262518000789,None,,,,,,,,,,,,,,,,,vision,37,39,aloud,old,blue,1505.2753971004859,None,1505.2753971004859,None,1,1.306836100295186,1505.2753971004859,None,1.306836100295186,1506.6106839003041,None,1507.115741699934,None,1507.115741699934,None,f,0.11473019979894161,1507.115741699934,None,0.11473019979894161,,,107 Aloud,001,2022_Nov_29_1127,ProdSingRedoBetween,2021.2.3,59.99372451085396,
,,,,39,0,39,0,,,,,,,,,,,,,,,,,,,,,,1509.8291472001001,None,,,,,,,,,,,,,,,,,machinery,14,40,aloud,old,yellow,1507.778404599987,None,1507.778404599987,None,6,1.4119068002328277,1507.778404599987,None,1.4119068002328277,1509.2136168004945,None,1509.729329300113,None,1509.729329300113,None,r,0.06890290044248104,1509.729329300113,None,0.06890290044248104,,,107 Aloud,001,2022_Nov_29_1127,ProdSingRedoBetween,2021.2.3,59.99372451085396,
,,,,40,0,40,0,,,,,,,,,,,,,,,,,,,,,,1512.3986900001764,None,,,,,,,,,,,,,,,,,people,137,41,aloud,new,null,1510.3398655001074,None,1510.3398655001074,None,6,1.4024596000090241,1510.3398655001074,None,1.4024596000090241,1511.769917900674,None,1512.2840824006125,None,1512.2840824006125,None,r,0.09830010030418634,1512.2840824006125,None,0.09830010030418634,,,107 Aloud,001,2022_Nov_29_1127,ProdSingRedoBetween,2021.2.3,59.99372451085396,
,,,,41,0,41,0,,,,,,,,,,,,,,,,,,,,,,1516.1353804999962,None,,,,,,,,,,,,,,,,,sight,2,42,aloud,old,yellow,1512.9120445000008,None,1512.9120445000008,None,3,1.4621834000572562,1512.9120445000008,None,1.4621834000572562,1514.401782900095,None,1514.9131818003953,None,1514.9131818003953,None,f,1.197104400023818,1514.9131818003953,None,1.197104400023818,,,107 Aloud,001,2022_Nov_29_1127,ProdSingRedoBetween,2021.2.3,59.99372451085396,
,,,,42,0,42,0,,,,,,,,,,,,,,,,,,,,,,1519.2099866000935,None,,,,,,,,,,,,,,,,,captain,31,43,aloud,old,blue,1516.6496287006885,None,1516.6496287006885,None,6,1.628858500160277,1516.6496287006885,None,1.628858500160277,1518.3108675004914,None,1518.8217283999547,None,1518.8217283999547,None,r,0.3528236001729965,1518.8217283999547,None,0.3528236001729965,,,107 Aloud,001,2022_Nov_29_1127,ProdSingRedoBetween,2021.2.3,59.99372451085396,
,,,,43,0,43,0,,,,,,,,,,,,,,,,,,,,,,1522.775367400609,None,,,,,,,,,,,,,,,,,straight,161,44,aloud,new,null,1519.7298377007246,None,1519.7298377007246,None,2,1.7245894996449351,1519.7298377007246,None,1.7245894996449351,1521.4843738004565,None,1521.9933419004083,None,1521.9933419004083,None,f,0.7569483993574977,1521.9933419004083,None,0.7569483993574977,,,107 Aloud,001,2022_Nov_29_1127,ProdSingRedoBetween,2021.2.3,59.99372451085396,
,,,,44,0,44,0,,,,,,,,,,,,,,,,,,,,,,1527.4969719005749,None,,,,,,,,,,,,,,,,,military,122,45,aloud,new,null,1523.2869981005788,None,1523.2869981005788,None,3,2.9431875003501773,1523.2869981005788,None,2.9431875003501773,1526.2475938005373,None,1526.7630088999867,None,1526.7630088999867,None,f,0.7152207996696234,1526.7630088999867,None,0.7152207996696234,,,107 Aloud,001,2022_Nov_29_1127,ProdSingRedoBetween,2021.2.3,59.99372451085396,
,,,,45,0,45,0,,,,,,,,,,,,,,,,,,,,,,1531.433980400674,None,,,,,,,,,,,,,,,,,crisis,54,46,aloud,old,blue,1528.0082453005016,None,1528.0082453005016,None,6,2.5739543000236154,1528.0082453005016,None,2.5739543000236154,1530.6050317008048,None,1531.1222481001168,None,1531.1222481001168,None,r,0.28422379959374666,1531.1222481001168,None,0.28422379959374666,,,107 Aloud,001,2022_Nov_29_1127,ProdSingRedoBetween,2021.2.3,59.99372451085396,
,,,,46,0,46,0,,,,,,,,,,,,,,,,,,,,,,1534.6874158000574,None,,,,,,,,,,,,,,,,,welcome,107,47,aloud,new,null,1531.938100900501,None,1531.938100900501,None,3,1.508202899247408,1531.938100900501,None,1.508202899247408,1533.475748100318,None,1533.9868525005877,None,1533.9868525005877,None,f,0.6833568001165986,1533.9868525005877,None,0.6833568001165986,,,107 Aloud,001,2022_Nov_29_1127,ProdSingRedoBetween,2021.2.3,59.99372451085396,
,,,,47,0,47,0,,,,,,,,,,,,,,,,,,,,,,1537.7405769005418,None,,,,,,,,,,,,,,,,,brief,9,48,aloud,old,yellow,1535.195440900512,None,1535.195440900512,None,3,1.8508017994463444,1535.195440900512,None,1.8508017994463444,1537.0769051006064,None,1537.5902144005522,None,1537.5902144005522,None,f,0.12001619953662157,1537.5902144005522,None,0.12001619953662157,,,107 Aloud,001,2022_Nov_29_1127,ProdSingRedoBetween,2021.2.3,59.99372451085396,
,,,,48,0,48,0,,,,,,,,,,,,,,,,,,,,,,1540.6101128002629,None,,,,,,,,,,,,,,,,,weight,127,49,aloud,new,null,1538.2518090000376,None,1538.2518090000376,None,1,1.3543103002011776,1538.2518090000376,None,1.3543103002011776,1539.630305800587,None,1540.1442007999867,None,1540.1442007999867,None,n,0.43800750002264977,1540.1442007999867,None,0.43800750002264977,,,107 Aloud,001,2022_Nov_29_1127,ProdSingRedoBetween,2021.2.3,59.99372451085396,
,,,,49,0,49,0,,,,,,,,,,,,,,,,,,,,,,1544.79762510024,None,,,,,,,,,,,,,,,,,individual,45,50,aloud,old,blue,1541.1178184999153,None,1541.1178184999153,None,6,2.080543899908662,1541.1178184999153,None,2.080543899908662,1543.235243100673,None,1543.7505804002285,None,1543.7505804002285,None,r,1.0236464999616146,1543.7505804002285,None,1.0236464999616146,,,107 Aloud,001,2022_Nov_29_1127,ProdSingRedoBetween,2021.2.3,59.99372451085396,
,,,,50,0,50,0,,,,,,,,,,,,,,,,,,,,,,1547.2832228001207,None,,,,,,,,,,,,,,,,,tennis,104,51,aloud,new,null,1545.302084300667,None,1545.302084300667,None,1,1.2163784001022577,1545.302084300667,None,1.2163784001022577,1546.5493898000568,None,1547.0499168001115,None,1547.0499168001115,None,n,0.20444929972290993,1547.0499168001115,None,0.20444929972290993,,,107 Aloud,001,2022_Nov_29_1127,ProdSingRedoBetween,2021.2.3,59.99372451085396,
,,,,51,0,51,0,,,,,,,,,,,,,,,,,,,,,,1549.8192314999178,None,,,,,,,,,,,,,,,,,service,114,52,aloud,new,null,1547.788482800126,None,1547.788482800126,None,2,1.3856753995642066,1547.788482800126,None,1.3856753995642066,1549.2052927007899,None,1549.7192925000563,None,1549.7192925000563,None,n,0.07094290014356375,1549.7192925000563,None,0.07094290014356375,,,107 Aloud,001,2022_Nov_29_1127,ProdSingRedoBetween,2021.2.3,59.99372451085396,
,,,,52,0,52,0,,,,,,,,,,,,,,,,,,,,,,1553.6417073002085,None,,,,,,,,,,,,,,,,,tough,6,53,aloud,old,yellow,1550.327379600145,None,1550.327379600145,None,4,2.2709322003647685,1550.327379600145,None,2.2709322003647685,1552.6254528006539,None,1553.1436956999823,None,1553.1436956999823,None,f,0.47055660001933575,1553.1436956999823,None,0.47055660001933575,,,107 Aloud,001,2022_Nov_29_1127,ProdSingRedoBetween,2021.2.3,59.99372451085396,
,,,,53,0,53,0,,,,,,,,,,,,,,,,,,,,,,1556.4259655000642,None,,,,,,,,,,,,,,,,,staff,145,54,aloud,new,null,1554.1584163000807,None,1554.1584163000807,None,3,1.4477548999711871,1554.1584163000807,None,1.4477548999711871,1555.6275355005637,None,1556.1421406008303,None,1556.1421406008303,None,f,0.2559679998084903,1556.1421406008303,None,0.2559679998084903,,,107 Aloud,001,2022_Nov_29_1127,ProdSingRedoBetween,2021.2.3,59.99372451085396,
,,,,54,0,54,0,,,,,,,,,,,,,,,,,,,,,,1562.1843445999548,None,,,,,,,,,,,,,,,,,platform,44,55,aloud,old,blue,1556.940179400146,None,1556.940179400146,None,5,3.7301326002925634,1556.940179400146,None,3.7301326002925634,1560.6978863999248,None,1561.2009960003197,None,1561.2009960003197,None,r,0.9572349991649389,1561.2009960003197,None,0.9572349991649389,,,107 Aloud,001,2022_Nov_29_1127,ProdSingRedoBetween,2021.2.3,59.99372451085396,
,,,,55,0,55,0,,,,,,,,,,,,,,,,,,,,,,1565.0344340000302,None,,,,,,,,,,,,,,,,,guide,51,56,aloud,old,blue,1562.7024932000786,None,1562.7024932000786,None,1,1.2639113999903202,1562.7024932000786,None,1.2639113999903202,1563.9900833005086,None,1564.5028915004805,None,1564.5028915004805,None,n,0.5033325999975204,1564.5028915004805,None,0.5033325999975204,,,107 Aloud,001,2022_Nov_29_1127,ProdSingRedoBetween,2021.2.3,59.99372451085396,
,,,,56,0,56,0,,,,,,,,,,,,,,,,,,,,,,1567.797212800011,None,,,,,,,,,,,,,,,,,force,100,57,aloud,new,null,1565.5405286001042,None,1565.5405286001042,None,2,1.513617199845612,1565.5405286001042,None,1.513617199845612,1567.079294600524,None,1567.5868102004752,None,1567.5868102004752,None,n,0.17935000080615282,1567.5868102004752,None,0.17935000080615282,,,107 Aloud,001,2022_Nov_29_1127,ProdSingRedoBetween,2021.2.3,59.99372451085396,
,,,,57,0,57,0,,,,,,,,,,,,,,,,,,,,,,1571.4075146000832,None,,,,,,,,,,,,,,,,,crowd,90,58,aloud,new,null,1568.3043762007728,None,1568.3043762007728,None,5,2.5337691996246576,1568.3043762007728,None,2.5337691996246576,1570.8615790000185,None,1571.376301000826,None,1571.376301000826,None,f,0.005848700180649757,1571.376301000826,None,0.005848700180649757,,,107 Aloud,001,2022_Nov_29_1127,ProdSingRedoBetween,2021.2.3,59.99372451085396,
,,,,58,0,58,0,,,,,,,,,,,,,,,,,,,,,,1574.3603180004284,None,,,,,,,,,,,,,,,,,election,25,59,aloud,old,yellow,1571.9123382000253,None,1571.9123382000253,None,5,1.7979450998827815,1571.9123382000253,None,1.7979450998827815,1573.7264775000513,None,1574.2322507007048,None,1574.2322507007048,None,f,0.10207080002874136,1574.2322507007048,None,0.10207080002874136,,,107 Aloud,001,2022_Nov_29_1127,ProdSingRedoBetween,2021.2.3,59.99372451085396,
,,,,59,0,59,0,,,,,,,,,,,,,,,,,,,,,,1579.01598510053,None,,,,,,,,,,,,,,,,,running,47,60,aloud,old,blue,1574.8635853007436,None,1574.8635853007436,None,3,2.846610300242901,1574.8635853007436,None,2.846610300242901,1577.730151500553,None,1578.2352427002043,None,1578.2352427002043,None,f,0.7549819992855191,1578.2352427002043,None,0.7549819992855191,,,107 Aloud,001,2022_Nov_29_1127,ProdSingRedoBetween,2021.2.3,59.99372451085396,
,,,,60,0,60,0,,,,,,,,,,,,,,,,,,,,,,1582.4684067005292,None,,,,,,,,,,,,,,,,,bitter,34,61,aloud,old,blue,1579.5172270005569,None,1579.5172270005569,None,3,1.960940600372851,1579.5172270005569,None,1.960940600372851,1581.502909200266,None,1582.0197881003842,None,1582.0197881003842,None,f,0.4185235993936658,1582.0197881003842,None,0.4185235993936658,,,107 Aloud,001,2022_Nov_29_1127,ProdSingRedoBetween,2021.2.3,59.99372451085396,
,,,,61,0,61,0,,,,,,,,,,,,,,,,,,,,,,1588.876640100032,None,,,,,,,,,,,,,,,,,employment,112,62,aloud,new,null,1582.977310700342,None,1582.977310700342,None,6,3.396836099214852,1582.977310700342,None,3.396836099214852,1586.3902817005292,None,1586.8922856003046,None,1586.8922856003046,None,r,1.9620702005922794,1586.8922856003046,None,1.9620702005922794,,,107 Aloud,001,2022_Nov_29_1127,ProdSingRedoBetween,2021.2.3,59.99372451085396,
,,,,62,0,62,0,,,,,,,,,,,,,,,,,,,,,,1592.4948696000502,None,,,,,,,,,,,,,,,,,balance,110,63,aloud,new,null,1589.3920016000047,None,1589.3920016000047,None,2,2.150325399823487,1589.3920016000047,None,2.150325399823487,1591.5725174006075,None,1592.078207500279,None,1592.078207500279,None,n,0.3999232007190585,1592.078207500279,None,0.3999232007190585,,,107 Aloud,001,2022_Nov_29_1127,ProdSingRedoBetween,2021.2.3,59.99372451085396,
,,,,63,0,63,0,,,,,,,,,,,,,,,,,,,,,,1595.2809725003317,None,,,,,,,,,,,,,,,,,religion,43,64,aloud,old,blue,1592.9972277004272,None,1592.9972277004272,None,6,1.560953300446272,1592.9972277004272,None,1.560953300446272,1594.5806495007128,None,1595.0840424001217,None,1595.0840424001217,None,r,0.17014530021697283,1595.0840424001217,None,0.17014530021697283,,,107 Aloud,001,2022_Nov_29_1127,ProdSingRedoBetween,2021.2.3,59.99372451085396,
,,,,64,0,64,0,,,,,,,,,,,,,,,,,,,,,,1598.5344456005841,None,,,,,,,,,,,,,,,,,second,148,65,aloud,new,null,1595.7848174003884,None,1595.7848174003884,None,2,1.3893359005451202,1595.7848174003884,None,1.3893359005451202,1597.2014693003148,None,1597.7238282002509,None,1597.7238282002509,None,n,0.786354299634695,1597.7238282002509,None,0.786354299634695,,,107 Aloud,001,2022_Nov_29_1127,ProdSingRedoBetween,2021.2.3,59.99372451085396,
,,,,65,0,65,0,,,,,,,,,,,,,,,,,,,,,,1603.890980500728,None,,,,,,,,,,,,,,,,,beginning,163,66,aloud,new,null,1599.036338900216,None,1599.036338900216,None,4,2.777824600227177,1599.036338900216,None,2.777824600227177,1601.840781800449,None,1602.361661599949,None,1602.361661599949,None,f,1.5085164001211524,1602.361661599949,None,1.5085164001211524,,,107 Aloud,001,2022_Nov_29_1127,ProdSingRedoBetween,2021.2.3,59.99372451085396,
,,,,66,0,66,0,,,,,,,,,,,,,,,,,,,,,,1610.4963614000008,None,,,,,,,,,,,,,,,,,direction,89,67,aloud,old,red,1604.3943648999557,None,1604.3943648999557,None,6,5.25163650047034,1604.3943648999557,None,5.25163650047034,1609.6624198006466,None,1610.1640147008002,None,1610.1640147008002,None,r,0.31407259963452816,1610.1640147008002,None,0.31407259963452816,,,107 Aloud,001,2022_Nov_29_1127,ProdSingRedoBetween,2021.2.3,59.99372451085396,
,,,,67,0,67,0,,,,,,,,,,,,,,,,,,,,,,1613.1684729000553,None,,,,,,,,,,,,,,,,,impact,91,68,aloud,new,null,1611.0041602002457,None,1611.0041602002457,None,1,1.2819654997438192,1611.0041602002457,None,1.2819654997438192,1612.3166551999748,None,1612.8373998999596,None,1612.8373998999596,None,n,0.3127643000334501,1612.8373998999596,None,0.3127643000334501,,,107 Aloud,001,2022_Nov_29_1127,ProdSingRedoBetween,2021.2.3,59.99372451085396,
,,,,68,0,68,0,,,,,,,,,,,,,,,,,,,,,,1619.0382191007957,None,,,,,,,,,,,,,,,,,equipment,1,69,aloud,old,yellow,1613.6934373006225,None,1613.6934373006225,None,6,4.488679499365389,1613.6934373006225,None,4.488679499365389,1618.2100999001414,None,1618.7234525000677,None,1618.7234525000677,None,r,0.2906867004930973,1618.7234525000677,None,0.2906867004930973,,,107 Aloud,001,2022_Nov_29_1127,ProdSingRedoBetween,2021.2.3,59.99372451085396,
,,,,69,0,69,0,,,,,,,,,,,,,,,,,,,,,,1623.3089638007805,None,,,,,,,,,,,,,,,,,break,166,70,aloud,new,null,1619.5490417005494,None,1619.5490417005494,None,2,1.3450480001047254,1619.5490417005494,None,1.3450480001047254,1620.9245902001858,None,1621.4302035002038,None,1621.4302035002038,None,n,1.8479977995157242,1621.4302035002038,None,1.8479977995157242,,,107 Aloud,001,2022_Nov_29_1127,ProdSingRedoBetween,2021.2.3,59.99372451085396,
,,,,70,0,70,0,,,,,,,,,,,,,,,,,,,,,,1626.7330105006695,None,,,,,,,,,,,,,,,,,company,17,71,aloud,old,yellow,1623.823939899914,None,1623.823939899914,None,2,1.798224799335003,1623.823939899914,None,1.798224799335003,1625.6496745003387,None,1626.169625500217,None,1626.169625500217,None,f,0.5408891001716256,1626.169625500217,None,0.5408891001716256,,,107 Aloud,001,2022_Nov_29_1127,ProdSingRedoBetween,2021.2.3,59.99372451085396,
,,,,71,0,71,0,,,,,,,,,,,,,,,,,,,,,,1630.5034385006875,None,,,,,,,,,,,,,,,,,union,29,72,aloud,old,blue,1627.250669600442,None,1627.250669600442,None,1,1.3153411000967026,1627.250669600442,None,1.3153411000967026,1628.605790000409,None,1629.114929300733,None,1629.114929300733,None,n,1.363150899298489,1629.114929300733,None,1.363150899298489,,,107 Aloud,001,2022_Nov_29_1127,ProdSingRedoBetween,2021.2.3,59.99372451085396,
,,,,72,0,72,0,,,,,,,,,,,,,,,,,,,,,,1633.636118300259,None,,,,,,,,,,,,,,,,,victory,93,73,aloud,new,null,1631.0180975003168,None,1631.0180975003168,None,3,1.563981200568378,1631.0180975003168,None,1.563981200568378,1632.60337060038,None,1633.1116728000343,None,1633.1116728000343,None,f,0.5024298001080751,1633.1116728000343,None,0.5024298001080751,,,107 Aloud,001,2022_Nov_29_1127,ProdSingRedoBetween,2021.2.3,59.99372451085396,
,,,,73,0,73,0,,,,,,,,,,,,,,,,,,,,,,1637.356514500454,None,,,,,,,,,,,,,,,,,citizen,30,74,aloud,old,blue,1634.1388264000416,None,1634.1388264000416,None,6,2.4192151995375752,1634.1388264000416,None,2.4192151995375752,1636.589970400557,None,1637.0959125999361,None,1637.0959125999361,None,r,0.23818450048565865,1637.0959125999361,None,0.23818450048565865,,,107 Aloud,001,2022_Nov_29_1127,ProdSingRedoBetween,2021.2.3,59.99372451085396,
,,,,74,0,74,0,,,,,,,,,,,,,,,,,,,,,,1641.2103311000392,None,,,,,,,,,,,,,,,,,recall,20,75,aloud,old,yellow,1637.8573852004483,None,1637.8573852004483,None,2,1.964660999365151,1637.8573852004483,None,1.964660999365151,1639.8433090001345,None,1640.3471148004755,None,1640.3471148004755,None,f,0.834948300383985,1640.3471148004755,None,0.834948300383985,,,107 Aloud,001,2022_Nov_29_1127,ProdSingRedoBetween,2021.2.3,59.99372451085396,
,,,,75,0,75,0,,,,,,,,,,,,,,,,,,,,,,1644.3663129005581,None,,,,,,,,,,,,,,,,,symbol,68,76,aloud,old,red,1641.7109748004004,None,1641.7109748004004,None,2,1.231075600720942,1641.7109748004004,None,1.231075600720942,1642.9621183006093,None,1643.4712564004585,None,1643.4712564004585,None,n,0.8629954000934958,1643.4712564004585,None,0.8629954000934958,,,107 Aloud,001,2022_Nov_29_1127,ProdSingRedoBetween,2021.2.3,59.99372451085396,
,,,,76,0,76,0,,,,,,,,,,,,,,,,,,,,,,1647.8501216005534,None,,,,,,,,,,,,,,,,,height,135,77,aloud,new,null,1644.882242999971,None,1644.882242999971,None,1,1.691834299825132,1644.882242999971,None,1.691834299825132,1646.60084020067,None,1647.119499500841,None,1647.119499500841,None,n,0.7106045996770263,1647.119499500841,None,0.7106045996770263,,,107 Aloud,001,2022_Nov_29_1127,ProdSingRedoBetween,2021.2.3,59.99372451085396,
,,,,77,0,77,0,,,,,,,,,,,,,,,,,,,,,,1651.7066958006471,None,,,,,,,,,,,,,,,,,object,138,78,aloud,new,null,1648.3684062007815,None,1648.3684062007815,None,6,1.9656620994210243,1648.3684062007815,None,1.9656620994210243,1650.3539769006893,None,1650.8544239001349,None,1650.8544239001349,None,r,0.8237095000222325,1650.8544239001349,None,0.8237095000222325,,,107 Aloud,001,2022_Nov_29_1127,ProdSingRedoBetween,2021.2.3,59.99372451085396,
,,,,78,0,78,0,,,,,,,,,,,,,,,,,,,,,,1654.2399854008108,None,,,,,,,,,,,,,,,,,mechanical,15,79,aloud,old,yellow,1652.2343856003135,None,1652.2343856003135,None,6,1.3636326994746923,1652.2343856003135,None,1.3636326994746923,1653.6274168007076,None,1654.1433672001585,None,1654.1433672001585,None,r,0.07074949983507395,1654.1433672001585,None,0.07074949983507395,,,107 Aloud,001,2022_Nov_29_1127,ProdSingRedoBetween,2021.2.3,59.99372451085396,
,,,,79,0,79,0,,,,,,,,,,,,,,,,,,,,,,1657.3261566003785,None,,,,,,,,,,,,,,,,,career,11,80,aloud,old,yellow,1654.7418648004532,None,1654.7418648004532,None,6,1.4080815995112062,1654.7418648004532,None,1.4080815995112062,1656.1752142002806,None,1656.6802641004324,None,1656.6802641004324,None,r,0.6218373002484441,1656.6802641004324,None,0.6218373002484441,,,107 Aloud,001,2022_Nov_29_1127,ProdSingRedoBetween,2021.2.3,59.99372451085396,
,,,,80,0,80,0,,,,,,,,,,,,,,,,,,,,,,1659.6452924003825,None,,,,,,,,,,,,,,,,,debate,72,81,aloud,old,red,1657.8321700002998,None,1657.8321700002998,None,6,1.1577481999993324,1657.8321700002998,None,1.1577481999993324,1659.012201900594,None,1659.5117935007438,None,1659.5117935007438,None,r,0.10216399934142828,1659.5117935007438,None,0.10216399934142828,,,107 Aloud,001,2022_Nov_29_1127,ProdSingRedoBetween,2021.2.3,59.99372451085396,
,,,,81,0,81,0,,,,,,,,,,,,,,,,,,,,,,1661.880809600465,None,,,,,,,,,,,,,,,,,commercial,32,82,aloud,old,blue,1660.1461162008345,None,1660.1461162008345,None,6,1.0678220000118017,1660.1461162008345,None,1.0678220000118017,1661.2379113007337,None,1661.7472836999223,None,1661.7472836999223,None,r,0.10667970031499863,1661.7472836999223,None,0.10667970031499863,,,107 Aloud,001,2022_Nov_29_1127,ProdSingRedoBetween,2021.2.3,59.99372451085396,
,,,,82,0,82,0,,,,,,,,,,,,,,,,,,,,,,1665.4677033005282,None,,,,,,,,,,,,,,,,,dream,19,83,aloud,old,yellow,1662.381397000514,None,1662.381397000514,None,1,1.7125794999301434,1662.381397000514,None,1.7125794999301434,1664.1163573004305,None,1664.6169840004295,None,1664.6169840004295,None,f,0.8289037998765707,1664.6169840004295,None,0.8289037998765707,,,107 Aloud,001,2022_Nov_29_1127,ProdSingRedoBetween,2021.2.3,59.99372451085396,
,,,,83,0,83,0,,,,,,,,,,,,,,,,,,,,,,1667.736787199974,None,,,,,,,,,,,,,,,,,birth,4,84,aloud,old,yellow,1665.9742376003414,None,1665.9742376003414,None,1,1.095855699852109,1665.9742376003414,None,1.095855699852109,1667.089727600105,None,1667.604753500782,None,1667.604753500782,None,f,0.1132818004116416,1667.604753500782,None,0.1132818004116416,,,107 Aloud,001,2022_Nov_29_1127,ProdSingRedoBetween,2021.2.3,59.99372451085396,
,,,,84,0,84,0,,,,,,,,,,,,,,,,,,,,,,1670.3394472999498,None,,,,,,,,,,,,,,,,,society,33,85,aloud,old,blue,1668.2439432004467,None,1668.2439432004467,None,6,1.1301672998815775,1668.2439432004467,None,1.1301672998815775,1669.4064255999401,None,1669.9064044002444,None,1669.9064044002444,None,r,0.4116817004978657,1669.9064044002444,None,0.4116817004978657,,,107 Aloud,001,2022_Nov_29_1127,ProdSingRedoBetween,2021.2.3,59.99372451085396,
,,,,85,0,85,0,,,,,,,,,,,,,,,,,,,,,,1673.0593504002318,None,,,,,,,,,,,,,,,,,touch,101,86,aloud,new,null,1670.841648700647,None,1670.841648700647,None,1,1.2604513000696898,1670.841648700647,None,1.2604513000696898,1672.1276812003925,None,1672.6418364001438,None,1672.6418364001438,None,f,0.3963978998363018,1672.6418364001438,None,0.3963978998363018,,,107 Aloud,001,2022_Nov_29_1127,ProdSingRedoBetween,2021.2.3,59.99372451085396,
,,,,86,0,86,0,,,,,,,,,,,,,,,,,,,,,,1675.6819924004376,None,,,,,,,,,,,,,,,,,court,52,87,aloud,old,blue,1673.5621453002095,None,1673.5621453002095,None,2,1.4118647994473577,1673.5621453002095,None,1.4118647994473577,1674.9994935002178,None,1675.5121256001294,None,1675.5121256001294,None,f,0.14214360062032938,1675.5121256001294,None,0.14214360062032938,,,107 Aloud,001,2022_Nov_29_1127,ProdSingRedoBetween,2021.2.3,59.99372451085396,
,,,,87,0,87,0,,,,,,,,,,,,,,,,,,,,,,1678.0973267005756,None,,,,,,,,,,,,,,,,,track,48,88,aloud,old,blue,1676.1952967001125,None,1676.1952967001125,None,2,1.2347338004037738,1676.1952967001125,None,1.2347338004037738,1677.4499043002725,None,1677.9678346002474,None,1677.9678346002474,None,f,0.1100960997864604,1677.9678346002474,None,0.1100960997864604,,,107 Aloud,001,2022_Nov_29_1127,ProdSingRedoBetween,2021.2.3,59.99372451085396,
,,,,88,0,88,0,,,,,,,,,,,,,,,,,,,,,,1680.78502640035,None,,,,,,,,,,,,,,,,,strain,126,89,aloud,new,null,1678.5993822002783,None,1678.5993822002783,None,2,1.3666590005159378,1678.5993822002783,None,1.3666590005159378,1679.987647600472,None,1680.4996457006782,None,1680.4996457006782,None,f,0.2584560001268983,1680.4996457006782,None,0.2584560001268983,,,107 Aloud,001,2022_Nov_29_1127,ProdSingRedoBetween,2021.2.3,59.99372451085396,
,,,,89,0,89,0,,,,,,,,,,,,,,,,,,,,,,1683.504524600692,None,,,,,,,,,,,,,,,,,story,118,90,aloud,new,null,1681.3060562005267,None,1681.3060562005267,None,2,1.3081714995205402,1681.3060562005267,None,1.3081714995205402,1682.6445432007313,None,1683.157661500387,None,1683.157661500387,None,f,0.32037820015102625,1683.157661500387,None,0.32037820015102625,,,107 Aloud,001,2022_Nov_29_1127,ProdSingRedoBetween,2021.2.3,59.99372451085396,
,,,,90,0,90,0,,,,,,,,,,,,,,,,,,,,,,1685.9047134006396,None,,,,,,,,,,,,,,,,,trial,167,91,aloud,new,null,1684.0271302005276,None,1684.0271302005276,None,2,1.1468815002590418,1684.0271302005276,None,1.1468815002590418,1685.2056570006534,None,1685.7094026003033,None,1685.7094026003033,None,f,0.17669110000133514,1685.7094026003033,None,0.17669110000133514,,,107 Aloud,001,2022_Nov_29_1127,ProdSingRedoBetween,2021.2.3,59.99372451085396,
,,,,91,0,91,0,,,,,,,,,,,,,,,,,,,,,,1687.9792295005172,None,,,,,,,,,,,,,,,,,thing,165,92,aloud,new,null,1686.4114914005622,None,1686.4114914005622,None,2,0.8586387997493148,1686.4114914005622,None,0.8586387997493148,1687.301953700371,None,1687.807030000724,None,1687.807030000724,None,f,0.1510593993589282,1687.807030000724,None,0.1510593993589282,,,107 Aloud,001,2022_Nov_29_1127,ProdSingRedoBetween,2021.2.3,59.99372451085396,
,,,,92,0,92,0,,,,,,,,,,,,,,,,,,,,,,1690.492890900001,None,,,,,,,,,,,,,,,,,finish,78,93,aloud,old,red,1688.4992263000458,None,1688.4992263000458,None,2,0.9789494005963206,1688.4992263000458,None,0.9789494005963206,1689.5085350004956,None,1690.0091468999162,None,1690.0091468999162,None,f,0.4528079992160201,1690.0091468999162,None,0.4528079992160201,,,107 Aloud,001,2022_Nov_29_1127,ProdSingRedoBetween,2021.2.3,59.99372451085396,
,,,,93,0,93,0,,,,,,,,,,,,,,,,,,,,,,1693.2139217006043,None,,,,,,,,,,,,,,,,,express,56,94,aloud,old,blue,1691.0037005003542,None,1691.0037005003542,None,6,1.4101633001118898,1691.0037005003542,None,1.4101633001118898,1692.4455246003345,None,1692.9483067002147,None,1692.9483067002147,None,r,0.24159070011228323,1692.9483067002147,None,0.24159070011228323,,,107 Aloud,001,2022_Nov_29_1127,ProdSingRedoBetween,2021.2.3,59.99372451085396,
,,,,94,0,94,0,,,,,,,,,,,,,,,,,,,,,,1695.614642499946,None,,,,,,,,,,,,,,,,,personnel,67,95,aloud,old,red,1693.7360863005742,None,1693.7360863005742,None,6,1.0218255994841456,1693.7360863005742,None,1.0218255994841456,1694.7901371000335,None,1695.297650700435,None,1695.297650700435,None,r,0.2922770995646715,1695.297650700435,None,0.2922770995646715,,,107 Aloud,001,2022_Nov_29_1127,ProdSingRedoBetween,2021.2.3,59.99372451085396,
,,,,95,0,95,0,,,,,,,,,,,,,,,,,,,,,,1698.417343600653,None,,,,,,,,,,,,,,,,,permit,105,96,aloud,new,null,1696.1243432005867,None,1696.1243432005867,None,2,1.5538363996893167,1696.1243432005867,None,1.5538363996893167,1697.7095674006268,None,1698.2171360999346,None,1698.2171360999346,None,f,0.1810259995982051,1698.2171360999346,None,0.1810259995982051,,,107 Aloud,001,2022_Nov_29_1127,ProdSingRedoBetween,2021.2.3,59.99372451085396,
,,,,96,0,96,0,,,,,,,,,,,,,,,,,,,,,,1701.236932599917,None,,,,,,,,,,,,,,,,,working,82,97,aloud,old,red,1698.9250507000834,None,1698.9250507000834,None,2,0.9529186999425292,1698.9250507000834,None,0.9529186999425292,1699.9074408002198,None,1700.4203769005835,None,1700.4203769005835,None,f,0.7936540003865957,1700.4203769005835,None,0.7936540003865957,,,107 Aloud,001,2022_Nov_29_1127,ProdSingRedoBetween,2021.2.3,59.99372451085396,
,,,,97,0,97,0,,,,,,,,,,,,,,,,,,,,,,1703.7894362006336,None,,,,,,,,,,,,,,,,,business,87,98,aloud,old,red,1701.7392064007,None,1701.7392064007,None,2,1.1546935001388192,1701.7392064007,None,1.1546935001388192,1702.9225774006918,None,1703.4287091000006,None,1703.4287091000006,None,f,0.3451193002983928,1703.4287091000006,None,0.3451193002983928,,,107 Aloud,001,2022_Nov_29_1127,ProdSingRedoBetween,2021.2.3,59.99372451085396,
,,,,98,0,98,0,,,,,,,,,,,,,,,,,,,,,,1706.0082510001957,None,,,,,,,,,,,,,,,,,light,158,99,aloud,new,null,1704.298714700155,None,1704.298714700155,None,2,1.0595383001491427,1704.298714700155,None,1.0595383001491427,1705.3744318000972,None,1705.8763562999666,None,1705.8763562999666,None,f,0.11363600008189678,1705.8763562999666,None,0.11363600008189678,,,107 Aloud,001,2022_Nov_29_1127,ProdSingRedoBetween,2021.2.3,59.99372451085396,
,,,,99,0,99,0,,,,,,,,,,,,,,,,,,,,,,1708.0435120007023,None,,,,,,,,,,,,,,,,,broad,146,100,aloud,new,null,1706.5277417004108,None,1706.5277417004108,None,2,0.9102830002084374,1706.5277417004108,None,0.9102830002084374,1707.4619602002203,None,1707.9772439999506,None,1707.9772439999506,None,f,0.04473489988595247,1707.9772439999506,None,0.04473489988595247,,,107 Aloud,001,2022_Nov_29_1127,ProdSingRedoBetween,2021.2.3,59.99372451085396,
,,,,100,0,100,0,,,,,,,,,,,,,,,,,,,,,,1710.1321563003585,None,,,,,,,,,,,,,,,,,voice,106,101,aloud,new,null,1708.5466537000611,None,1708.5466537000611,None,2,0.80336709972471,1708.5466537000611,None,0.80336709972471,1709.3834212003276,None,1709.8979024002329,None,1709.8979024002329,None,f,0.2039345996454358,1709.8979024002329,None,0.2039345996454358,,,107 Aloud,001,2022_Nov_29_1127,ProdSingRedoBetween,2021.2.3,59.99372451085396,
,,,,101,0,101,0,,,,,,,,,,,,,,,,,,,,,,1714.199798299931,None,,,,,,,,,,,,,,,,,little,13,102,aloud,old,yellow,1710.6491400003433,None,1710.6491400003433,None,6,2.532817400060594,1710.6491400003433,None,2.532817400060594,1713.2065805001184,None,1713.7159580001608,None,1713.7159580001608,None,r,0.46591699961572886,1713.7159580001608,None,0.46591699961572886,,,107 Aloud,001,2022_Nov_29_1127,ProdSingRedoBetween,2021.2.3,59.99372451085396,
,,,,102,0,102,0,,,,,,,,,,,,,,,,,,,,,,1716.8141100006178,None,,,,,,,,,,,,,,,,,pretty,151,103,aloud,new,null,1714.7073695007712,None,1714.7073695007712,None,3,1.3467758996412158,1714.7073695007712,None,1.3467758996412158,1716.095046600327,None,1716.6023054001853,None,1716.6023054001853,None,n,0.1716184001415968,1716.6023054001853,None,0.1716184001415968,,,107 Aloud,001,2022_Nov_29_1127,ProdSingRedoBetween,2021.2.3,59.99372451085396,
,,,,103,0,103,0,,,,,,,,,,,,,,,,,,,,,,1719.9886402999982,None,,,,,,,,,,,,,,,,,population,96,104,aloud,new,null,1717.3275459008291,None,1717.3275459008291,None,6,1.8704942995682359,1717.3275459008291,None,1.8704942995682359,1719.2236540000886,None,1719.7387761007994,None,1719.7387761007994,None,r,0.2351460000500083,1719.7387761007994,None,0.2351460000500083,,,107 Aloud,001,2022_Nov_29_1127,ProdSingRedoBetween,2021.2.3,59.99372451085396,
,,,,104,0,104,0,,,,,,,,,,,,,,,,,,,,,,1723.62576200068,None,,,,,,,,,,,,,,,,,range,95,105,aloud,new,null,1720.4898626003414,None,1720.4898626003414,None,3,1.756083500571549,1720.4898626003414,None,1.756083500571549,1722.274564000778,None,1722.779396400787,None,1722.779396400787,None,r,0.8265185002237558,1722.779396400787,None,0.8265185002237558,,,107 Aloud,001,2022_Nov_29_1127,ProdSingRedoBetween,2021.2.3,59.99372451085396,
,,,,105,0,105,0,,,,,,,,,,,,,,,,,,,,,,1730.4166588000953,None,,,,,,,,,,,,,,,,,curve,120,106,aloud,new,null,1724.144927999936,None,1724.144927999936,None,3,4.700931800529361,1724.144927999936,None,4.700931800529361,1728.864589500241,None,1729.3650827007368,None,1729.3650827007368,None,n,1.0328281000256538,1729.3650827007368,None,1.0328281000256538,,,107 Aloud,001,2022_Nov_29_1127,ProdSingRedoBetween,2021.2.3,59.99372451085396,
,,,,106,0,106,0,,,,,,,,,,,,,,,,,,,,,,1733.3858037004247,None,,,,,,,,,,,,,,,,,distance,130,107,aloud,new,null,1730.9189170002937,None,1730.9189170002937,None,2,1.4629816999658942,1730.9189170002937,None,1.4629816999658942,1732.4029636001214,None,1732.9220682000741,None,1732.9220682000741,None,f,0.4359631994739175,1732.9220682000741,None,0.4359631994739175,,,107 Aloud,001,2022_Nov_29_1127,ProdSingRedoBetween,2021.2.3,59.99372451085396,
,,,,107,0,107,0,,,,,,,,,,,,,,,,,,,,,,1737.3395236004144,None,,,,,,,,,,,,,,,,,sleep,149,108,aloud,new,null,1733.8936072001234,None,1733.8936072001234,None,1,2.576336500234902,1733.8936072001234,None,2.576336500234902,1736.4888356002048,None,1736.991018500179,None,1736.991018500179,None,f,0.31890949979424477,1736.991018500179,None,0.31890949979424477,,,107 Aloud,001,2022_Nov_29_1127,ProdSingRedoBetween,2021.2.3,59.99372451085396,
,,,,108,0,108,0,,,,,,,,,,,,,,,,,,,,,,1741.9115788005292,None,,,,,,,,,,,,,,,,,present,97,109,aloud,new,null,1737.8460159003735,None,1737.8460159003735,None,2,1.2319411998614669,1737.8460159003735,None,1.2319411998614669,1739.1128978999332,None,1739.6286985008046,None,1739.6286985008046,None,f,2.2572216000407934,1739.6286985008046,None,2.2572216000407934,,,107 Aloud,001,2022_Nov_29_1127,ProdSingRedoBetween,2021.2.3,59.99372451085396,
,,,,109,0,109,0,,,,,,,,,,,,,,,,,,,,,,1745.0138520002365,None,,,,,,,,,,,,,,,,,budget,3,110,aloud,old,yellow,1742.413678000681,None,1742.413678000681,None,3,1.4241997003555298,1742.413678000681,None,1.4241997003555298,1743.8628473002464,None,1744.3665336007252,None,1744.3665336007252,None,f,0.6313252998515964,1744.3665336007252,None,0.6313252998515964,,,107 Aloud,001,2022_Nov_29_1127,ProdSingRedoBetween,2021.2.3,59.99372451085396,
,,,,110,0,110,0,,,,,,,,,,,,,,,,,,,,,,1748.034488500096,None,,,,,,,,,,,,,,,,,review,85,111,aloud,old,red,1745.527217800729,None,1745.527217800729,None,2,1.4466682998463511,1745.527217800729,None,1.4466682998463511,1747.0026920000091,None,1747.5199391003698,None,1747.5199391003698,None,f,0.4940558997914195,1747.5199391003698,None,0.4940558997914195,,,107 Aloud,001,2022_Nov_29_1127,ProdSingRedoBetween,2021.2.3,59.99372451085396,
,,,,111,0,111,0,,,,,,,,,,,,,,,,,,,,,,1750.7882905006409,None,,,,,,,,,,,,,,,,,republic,80,112,aloud,old,red,1748.543623700738,None,1748.543623700738,None,6,1.270218800753355,1748.543623700738,None,1.270218800753355,1749.8353343000636,None,1750.3375016003847,None,1750.3375016003847,None,r,0.4205272002145648,1750.3375016003847,None,0.4205272002145648,,,107 Aloud,001,2022_Nov_29_1127,ProdSingRedoBetween,2021.2.3,59.99372451085396,
,,,,112,0,112,0,,,,,,,,,,,,,,,,,,,,,,1753.8059927001595,None,,,,,,,,,,,,,,,,,addition,123,113,aloud,new,null,1751.3036739006639,None,1751.3036739006639,None,3,1.8782083997502923,1751.3036739006639,None,1.8782083997502923,1753.2069697007537,None,1753.713170000352,None,1753.713170000352,None,n,0.07680139970034361,1753.713170000352,None,0.07680139970034361,,,107 Aloud,001,2022_Nov_29_1127,ProdSingRedoBetween,2021.2.3,59.99372451085396,
,,,,113,0,113,0,,,,,,,,,,,,,,,,,,,,,,1756.6084796003997,None,,,,,,,,,,,,,,,,,leader,157,114,aloud,new,null,1754.309326400049,None,1754.309326400049,None,1,1.6004769001156092,1754.309326400049,None,1.6004769001156092,1755.9501285003498,None,1756.4582957001403,None,1756.4582957001403,None,f,0.12345889955759048,1756.4582957001403,None,0.12345889955759048,,,107 Aloud,001,2022_Nov_29_1127,ProdSingRedoBetween,2021.2.3,59.99372451085396,
,,,,114,0,114,0,,,,,,,,,,,,,,,,,,,,,,1759.7452215999365,None,,,,,,,,,,,,,,,,,watch,27,115,aloud,old,yellow,1757.1092917006463,None,1757.1092917006463,None,1,1.9126727003604174,1757.1092917006463,None,1.9126727003604174,1759.0526680005714,None,1759.5617233002558,None,1759.5617233002558,None,f,0.1560853999108076,1759.5617233002558,None,0.1560853999108076,,,107 Aloud,001,2022_Nov_29_1127,ProdSingRedoBetween,2021.2.3,59.99372451085396,
,,,,115,0,115,0,,,,,,,,,,,,,,,,,,,,,,1763.3489394001663,None,,,,,,,,,,,,,,,,,agreement,170,116,aloud,new,null,1760.2623024005443,None,1760.2623024005443,None,2,1.5997734004631639,1760.2623024005443,None,1.5997734004631639,1761.886184300296,None,1762.3978748004884,None,1762.3978748004884,None,f,0.9359128000214696,1762.3978748004884,None,0.9359128000214696,,,107 Aloud,001,2022_Nov_29_1127,ProdSingRedoBetween,2021.2.3,59.99372451085396,
,,,,116,0,116,0,,,,,,,,,,,,,,,,,,,,,,1767.487318600528,None,,,,,,,,,,,,,,,,,income,111,117,aloud,new,null,1763.8501667007804,None,1763.8501667007804,None,2,3.0357231004163623,1763.8501667007804,None,3.0357231004163623,1766.903710000217,None,1767.4033317007124,None,1767.4033317007124,None,f,0.0667000999674201,1767.4033317007124,None,0.0667000999674201,,,107 Aloud,001,2022_Nov_29_1127,ProdSingRedoBetween,2021.2.3,59.99372451085396,
,,,,117,0,117,0,,,,,,,,,,,,,,,,,,,,,,1770.055501700379,None,,,,,,,,,,,,,,,,,piece,116,118,aloud,new,null,1767.9948921008036,None,1767.9948921008036,None,2,1.3792925998568535,1767.9948921008036,None,1.3792925998568535,1769.4147868007421,None,1769.9220483005047,None,1769.9220483005047,None,f,0.10781989991664886,1769.9220483005047,None,0.10781989991664886,,,107 Aloud,001,2022_Nov_29_1127,ProdSingRedoBetween,2021.2.3,59.99372451085396,
,,,,118,0,118,0,,,,,,,,,,,,,,,,,,,,,,1773.7093005999923,None,,,,,,,,,,,,,,,,,detective,62,119,aloud,old,red,1770.5558910006657,None,1770.5558910006657,None,3,1.593975500203669,1770.5558910006657,None,1.593975500203669,1772.1757430005819,None,1772.6827128008008,None,1772.6827128008008,None,f,1.0032089995220304,1772.6827128008008,None,1.0032089995220304,,,107 Aloud,001,2022_Nov_29_1127,ProdSingRedoBetween,2021.2.3,59.99372451085396,
,,,,119,0,119,0,,,,,,,,,,,,,,,,,,,,,,1778.815640900284,None,,,,,,,,,,,,,,,,,trash,74,120,aloud,old,red,1774.2132256999612,None,1774.2132256999612,None,4,3.544608499854803,1774.2132256999612,None,3.544608499854803,1777.7814808003604,None,1778.2973239999264,None,1778.2973239999264,None,r,0.5006182994693518,1778.2973239999264,None,0.5006182994693518,,,107 Aloud,001,2022_Nov_29_1127,ProdSingRedoBetween,2021.2.3,59.99372451085396,
,,,,120,0,120,0,,,,,,,,,,,,,,,,,,,,,,1788.5906883999705,None,,,,,,,,,,,,,,,,,blind,18,121,aloud,old,yellow,1779.3216349007562,None,1779.3216349007562,None,4,8.628140700049698,1779.3216349007562,None,8.628140700049698,1787.9733804007992,None,1788.4785338006914,None,1788.4785338006914,None,r,0.08730409946292639,1788.4785338006914,None,0.08730409946292639,,,107 Aloud,001,2022_Nov_29_1127,ProdSingRedoBetween,2021.2.3,59.99372451085396,
,,,,121,0,121,0,,,,,,,,,,,,,,,,,,,,,,1791.9938241001219,None,,,,,,,,,,,,,,,,,frank,71,122,aloud,old,red,1789.1066340999678,None,1789.1066340999678,None,1,1.1951611991971731,1789.1066340999678,None,1.1951611991971731,1790.3279141001403,None,1790.8478240007535,None,1790.8478240007535,None,n,1.1259629996493459,1790.8478240007535,None,1.1259629996493459,,,107 Aloud,001,2022_Nov_29_1127,ProdSingRedoBetween,2021.2.3,59.99372451085396,
,,,,122,0,122,0,,,,,,,,,,,,,,,,,,,,,,1794.734299200587,None,,,,,,,,,,,,,,,,,stranger,24,123,aloud,old,yellow,1792.4949074005708,None,1792.4949074005708,None,4,1.3910533003509045,1792.4949074005708,None,1.3910533003509045,1793.9221981000155,None,1794.4315197002143,None,1794.4315197002143,None,r,0.2704159999266267,1794.4315197002143,None,0.2704159999266267,,,107 Aloud,001,2022_Nov_29_1127,ProdSingRedoBetween,2021.2.3,59.99372451085396,
,,,,123,0,123,0,,,,,,,,,,,,,,,,,,,,,,1797.2701250007376,None,,,,,,,,,,,,,,,,,goose,179,124,aloud,new,null,1795.2587514007464,None,1795.2587514007464,None,1,1.2191065000370145,1795.2587514007464,None,1.2191065000370145,1796.5029658004642,None,1797.0184639999643,None,1797.0184639999643,None,n,0.22748969960957766,1797.0184639999643,None,0.22748969960957766,,,107 Aloud,001,2022_Nov_29_1127,ProdSingRedoBetween,2021.2.3,59.99372451085396,
,,,,124,0,124,0,,,,,,,,,,,,,,,,,,,,,,1800.4190158005804,None,,,,,,,,,,,,,,,,,safety,171,125,aloud,new,null,1797.7858225004748,None,1797.7858225004748,None,4,1.4599668998271227,1797.7858225004748,None,1.4599668998271227,1799.2714454000816,None,1799.7913262005895,None,1799.7913262005895,None,r,0.6063227001577616,1799.7913262005895,None,0.6063227001577616,,,107 Aloud,001,2022_Nov_29_1127,ProdSingRedoBetween,2021.2.3,59.99372451085396,
,,,,125,0,125,0,,,,,,,,,,,,,,,,,,,,,,1803.0221997005865,None,,,,,,,,,,,,,,,,,nation,59,126,aloud,old,yellow,1800.9235332999378,None,1800.9235332999378,None,4,1.1462116995826364,1800.9235332999378,None,1.1462116995826364,1802.0874789003283,None,1802.5976148005575,None,1802.5976148005575,None,r,0.39224829990416765,1802.5976148005575,None,0.39224829990416765,,,107 Aloud,001,2022_Nov_29_1127,ProdSingRedoBetween,2021.2.3,59.99372451085396,
,,,,126,0,126,0,,,,,,,,,,,,,,,,,,,,,,1805.3740562004969,None,,,,,,,,,,,,,,,,,cover,132,127,aloud,new,null,1803.525372300297,None,1803.525372300297,None,4,1.1685744998976588,1803.525372300297,None,1.1685744998976588,1804.7317567002028,None,1805.2408199999481,None,1805.2408199999481,None,r,0.10900429915636778,1805.2408199999481,None,0.10900429915636778,,,107 Aloud,001,2022_Nov_29_1127,ProdSingRedoBetween,2021.2.3,59.99372451085396,
,,,,127,0,127,0,,,,,,,,,,,,,,,,,,,,,,1808.6787729002535,None,,,,,,,,,,,,,,,,,guest,23,128,aloud,old,yellow,1805.88903170079,None,1805.88903170079,None,4,2.196807099506259,1805.88903170079,None,2.196807099506259,1808.1160034006462,None,1808.6272833999246,None,1808.6272833999246,None,r,0.03452300000935793,1808.6272833999246,None,0.03452300000935793,,,107 Aloud,001,2022_Nov_29_1127,ProdSingRedoBetween,2021.2.3,59.99372451085396,
,,,,128,0,128,0,,,,,,,,,,,,,,,,,,,,,,1812.4144978001714,None,,,,,,,,,,,,,,,,,hunger,5,129,aloud,old,yellow,1809.1838241005316,None,1809.1838241005316,None,4,2.301880500279367,1809.1838241005316,None,2.301880500279367,1811.5135312005877,None,1812.0180276008323,None,1812.0180276008323,None,r,0.38001769967377186,1812.0180276008323,None,0.38001769967377186,,,107 Aloud,001,2022_Nov_29_1127,ProdSingRedoBetween,2021.2.3,59.99372451085396,
,,,,129,0,129,0,,,,,,,,,,,,,,,,,,,,,,1816.6687509007752,None,,,,,,,,,,,,,,,,,waste,150,130,aloud,new,null,1812.9234389001504,None,1812.9234389001504,None,4,2.9462144002318382,1812.9234389001504,None,2.9462144002318382,1815.8885904001072,None,1816.4055118001997,None,1816.4055118001997,None,r,0.2402867004275322,1816.4055118001997,None,0.2402867004275322,,,107 Aloud,001,2022_Nov_29_1127,ProdSingRedoBetween,2021.2.3,59.99372451085396,
,,,,130,0,130,0,,,,,,,,,,,,,,,,,,,,,,1818.770502800122,None,,,,,,,,,,,,,,,,,spoke,58,131,aloud,old,blue,1817.1809510001913,None,1817.1809510001913,None,4,0.752810399979353,1817.1809510001913,None,0.752810399979353,1817.9549852004275,None,1818.4735354008153,None,1818.4735354008153,None,r,0.2761193001642823,1818.4735354008153,None,0.2761193001642823,,,107 Aloud,001,2022_Nov_29_1127,ProdSingRedoBetween,2021.2.3,59.99372451085396,
,,,,131,0,131,0,,,,,,,,,,,,,,,,,,,,,,1822.0240539005026,None,,,,,,,,,,,,,,,,,novel,160,132,aloud,new,null,1819.276605900377,None,1819.276605900377,None,1,1.7131433999165893,1819.276605900377,None,1.7131433999165893,1821.0072875004262,None,1821.50669379998,None,1821.50669379998,None,n,0.49893700052052736,1821.50669379998,None,0.49893700052052736,,,107 Aloud,001,2022_Nov_29_1127,ProdSingRedoBetween,2021.2.3,59.99372451085396,
,,,,132,0,132,0,,,,,,,,,,,,,,,,,,,,,,1824.509900400415,None,,,,,,,,,,,,,,,,,fellow,159,133,aloud,new,null,1822.5278929006308,None,1822.5278929006308,None,2,1.333836399950087,1822.5278929006308,None,1.333836399950087,1823.8936661006883,None,1824.4001714000478,None,1824.4001714000478,None,n,0.08577080070972443,1824.4001714000478,None,0.08577080070972443,,,107 Aloud,001,2022_Nov_29_1127,ProdSingRedoBetween,2021.2.3,59.99372451085396,
,,,,133,0,133,0,,,,,,,,,,,,,,,,,,,,,,1827.3793394006789,None,,,,,,,,,,,,,,,,,narrow,156,134,aloud,new,null,1825.0211948007345,None,1825.0211948007345,None,2,1.648543699644506,1825.0211948007345,None,1.648543699644506,1826.696699300781,None,1827.199159000069,None,1827.199159000069,None,n,0.15861750021576881,1827.199159000069,None,0.15861750021576881,,,107 Aloud,001,2022_Nov_29_1127,ProdSingRedoBetween,2021.2.3,59.99372451085396,
,,,,134,0,134,0,,,,,,,,,,,,,,,,,,,,,,1829.59810390044,None,,,,,,,,,,,,,,,,,measure,178,135,aloud,new,null,1827.8871515002102,None,1827.8871515002102,None,2,1.0945977997034788,1827.8871515002102,None,1.0945977997034788,1828.9989669006318,None,1829.5041877003387,None,1829.5041877003387,None,n,0.07759959995746613,1829.5041877003387,None,0.07759959995746613,,,107 Aloud,001,2022_Nov_29_1127,ProdSingRedoBetween,2021.2.3,59.99372451085396,
,,,,135,0,135,0,,,,,,,,,,,,,,,,,,,,,,1832.3842713003978,None,,,,,,,,,,,,,,,,,junior,41,136,aloud,old,blue,1830.1140890000388,None,1830.1140890000388,None,4,1.595745999366045,1830.1140890000388,None,1.595745999366045,1831.7449076008052,None,1832.254140900448,None,1832.254140900448,None,r,0.11158690042793751,1832.254140900448,None,0.11158690042793751,,,107 Aloud,001,2022_Nov_29_1127,ProdSingRedoBetween,2021.2.3,59.99372451085396,
,,,,136,0,136,0,,,,,,,,,,,,,,,,,,,,,,1834.469464700669,None,,,,,,,,,,,,,,,,,reach,73,137,aloud,old,red,1832.885450400412,None,1832.885450400412,None,4,0.7603847002610564,1832.885450400412,None,0.7603847002610564,1833.6751520000398,None,1834.1862880000845,None,1834.1862880000845,None,r,0.25944249983876944,1834.1862880000845,None,0.25944249983876944,,,107 Aloud,001,2022_Nov_29_1127,ProdSingRedoBetween,2021.2.3,59.99372451085396,
,,,,137,0,137,0,,,,,,,,,,,,,,,,,,,,,,1838.3753343001008,None,,,,,,,,,,,,,,,,,science,164,138,aloud,new,null,1834.9723240006715,None,1834.9723240006715,None,2,2.76940940041095,1834.9723240006715,None,2.76940940041095,1837.7751536006108,None,1838.2904154006392,None,1838.2904154006392,None,n,0.05935019999742508,1838.2904154006392,None,0.05935019999742508,,,107 Aloud,001,2022_Nov_29_1127,ProdSingRedoBetween,2021.2.3,59.99372451085396,
,,,,138,0,138,0,,,,,,,,,,,,,,,,,,,,,,1841.6440738001838,None,,,,,,,,,,,,,,,,,breath,113,139,aloud,new,null,1838.8940548999235,None,1838.8940548999235,None,2,2.0636821007356048,1838.8940548999235,None,2.0636821007356048,1840.9851993005723,None,1841.4938103007153,None,1841.4938103007153,None,n,0.12781780026853085,1841.4938103007153,None,0.12781780026853085,,,107 Aloud,001,2022_Nov_29_1127,ProdSingRedoBetween,2021.2.3,59.99372451085396,
,,,,139,0,139,0,,,,,,,,,,,,,,,,,,,,,,1843.847953800112,None,,,,,,,,,,,,,,,,,speech,28,140,aloud,old,yellow,1842.144501999952,None,1842.144501999952,None,2,1.0932532995939255,1842.144501999952,None,1.0932532995939255,1843.2631744006649,None,1843.7696243999526,None,1843.7696243999526,None,n,0.05998989939689636,1843.7696243999526,None,0.05998989939689636,,,107 Aloud,001,2022_Nov_29_1127,ProdSingRedoBetween,2021.2.3,59.99372451085396,
,,,,140,0,140,0,,,,,,,,,,,,,,,,,,,,,,1851.9037872003391,None,,,,,,,,,,,,,,,,,accident,39,141,aloud,old,blue,1844.363186900504,None,1844.363186900504,None,3,6.522463999688625,1844.363186900504,None,6.522463999688625,1850.9055775003508,None,1851.4311978006735,None,1851.4311978006735,None,n,0.45453110057860613,1851.4311978006735,None,0.45453110057860613,,,107 Aloud,001,2022_Nov_29_1127,ProdSingRedoBetween,2021.2.3,59.99372451085396,
,,,,141,0,141,0,,,,,,,,,,,,,,,,,,,,,,1854.5397605001926,None,,,,,,,,,,,,,,,,,judge,172,142,aloud,new,null,1852.407879699953,None,1852.407879699953,None,4,1.4537690002471209,1852.407879699953,None,1.4537690002471209,1853.8919416004792,None,1854.4063233006746,None,1854.4063233006746,None,r,0.11137610021978617,1854.4063233006746,None,0.11137610021978617,,,107 Aloud,001,2022_Nov_29_1127,ProdSingRedoBetween,2021.2.3,59.99372451085396,
,,,,142,0,142,0,,,,,,,,,,,,,,,,,,,,,,1856.4588681003079,None,,,,,,,,,,,,,,,,,state,147,143,aloud,new,null,1855.0502214003354,None,1855.0502214003354,None,4,0.6674728002399206,1855.0502214003354,None,0.6674728002399206,1855.742297200486,None,1856.2478232001886,None,1856.2478232001886,None,r,0.1819267002865672,1856.2478232001886,None,0.1819267002865672,,,107 Aloud,001,2022_Nov_29_1127,ProdSingRedoBetween,2021.2.3,59.99372451085396,
,,,,143,0,143,0,,,,,,,,,,,,,,,,,,,,,,1858.2435584003106,None,,,,,,,,,,,,,,,,,century,55,144,aloud,old,blue,1856.9794094003737,None,1856.9794094003737,None,4,0.4744118005037308,1856.9794094003737,None,0.4744118005037308,1857.4821180002764,None,1857.9976818999276,None,1857.9976818999276,None,r,0.22414399962872267,1857.9976818999276,None,0.22414399962872267,,,107 Aloud,001,2022_Nov_29_1127,ProdSingRedoBetween,2021.2.3,59.99372451085396,
,,,,144,0,144,0,,,,,,,,,,,,,,,,,,,,,,1859.796500599943,None,,,,,,,,,,,,,,,,,engineer,117,145,aloud,new,null,1858.7459577005357,None,1858.7459577005357,None,4,0.4119040993973613,1858.7459577005357,None,0.4119040993973613,1859.1903706006706,None,1859.6970327999443,None,1859.6970327999443,None,r,0.06868560053408146,1859.6970327999443,None,0.06868560053408146,,,107 Aloud,001,2022_Nov_29_1127,ProdSingRedoBetween,2021.2.3,59.99372451085396,
,,,,145,0,145,0,,,,,,,,,,,,,,,,,,,,,,1861.6302293008193,None,,,,,,,,,,,,,,,,,strength,177,146,aloud,new,null,1860.2988237002864,None,1860.2988237002864,None,4,0.5149800004437566,1860.2988237002864,None,0.5149800004437566,1860.8369462005794,None,1861.3483174005523,None,1861.3483174005523,None,r,0.2573612006381154,1861.3483174005523,None,0.2573612006381154,,,107 Aloud,001,2022_Nov_29_1127,ProdSingRedoBetween,2021.2.3,59.99372451085396,
,,,,146,0,146,0,,,,,,,,,,,,,,,,,,,,,,1863.5487965000793,None,,,,,,,,,,,,,,,,,alert,139,147,aloud,new,null,1862.1326248999685,None,1862.1326248999685,None,4,0.8011868000030518,1862.1326248999685,None,0.8011868000030518,1862.9724827008322,None,1863.482244499959,None,1863.482244499959,None,r,0.05145519971847534,1863.482244499959,None,0.05145519971847534,,,107 Aloud,001,2022_Nov_29_1127,ProdSingRedoBetween,2021.2.3,59.99372451085396,
,,,,147,0,147,0,,,,,,,,,,,,,,,,,,,,,,1865.267070800066,None,,,,,,,,,,,,,,,,,council,154,148,aloud,new,null,1864.056944400072,None,1864.056944400072,None,4,0.5167727004736662,1864.056944400072,None,0.5167727004736662,1864.5997763006017,None,1865.1056655999273,None,1865.1056655999273,None,r,0.14008659962564707,1865.1056655999273,None,0.14008659962564707,,,107 Aloud,001,2022_Nov_29_1127,ProdSingRedoBetween,2021.2.3,59.99372451085396,
,,,,148,0,148,0,,,,,,,,,,,,,,,,,,,,,,1867.035474699922,None,,,,,,,,,,,,,,,,,quick,168,149,aloud,new,null,1865.7740636002272,None,1865.7740636002272,None,4,0.6077357996255159,1865.7740636002272,None,0.6077357996255159,1866.4069417007267,None,1866.9221494002268,None,1866.9221494002268,None,r,0.09152119979262352,1866.9221494002268,None,0.09152119979262352,,,107 Aloud,001,2022_Nov_29_1127,ProdSingRedoBetween,2021.2.3,59.99372451085396,
,,,,149,0,149,0,,,,,,,,,,,,,,,,,,,,,,1868.6037954008207,None,,,,,,,,,,,,,,,,,cross,53,150,aloud,old,blue,1867.5439806003124,None,1867.5439806003124,None,4,0.38163570035248995,1867.5439806003124,None,0.38163570035248995,1867.958205100149,None,1868.4702110001817,None,1868.4702110001817,None,r,0.10337429959326982,1868.4702110001817,None,0.10337429959326982,,,107 Aloud,001,2022_Nov_29_1127,ProdSingRedoBetween,2021.2.3,59.99372451085396,
,,,,150,0,150,0,,,,,,,,,,,,,,,,,,,,,,1869.9884395999834,None,,,,,,,,,,,,,,,,,country,103,151,aloud,new,null,1869.1066781999543,None,1869.1066781999543,None,4,0.29091049917042255,1869.1066781999543,None,0.29091049917042255,1869.4241754999384,None,1869.9385769004002,None,1869.9385769004002,None,r,0.019157500006258488,1869.9385769004002,None,0.019157500006258488,,,107 Aloud,001,2022_Nov_29_1127,ProdSingRedoBetween,2021.2.3,59.99372451085396,
,,,,151,0,151,0,,,,,,,,,,,,,,,,,,,,,,1871.6734985001385,None,,,,,,,,,,,,,,,,,sound,36,152,aloud,old,blue,1870.497984500602,None,1870.497984500602,None,4,0.3315978003665805,1870.497984500602,None,0.3315978003665805,1870.8572472007945,None,1871.3602159004658,None,1871.3602159004658,None,r,0.29347500018775463,1871.3602159004658,None,0.29347500018775463,,,107 Aloud,001,2022_Nov_29_1127,ProdSingRedoBetween,2021.2.3,59.99372451085396,
,,,,152,0,152,0,,,,,,,,,,,,,,,,,,,,,,1875.2772603007033,None,,,,,,,,,,,,,,,,,government,88,153,aloud,old,red,1872.1861166004092,None,1872.1861166004092,None,6,2.2677584001794457,1872.1861166004092,None,2.2677584001794457,1874.4817892005667,None,1874.9961402006447,None,1874.9961402006447,None,r,0.24945059977471828,1874.9961402006447,None,0.24945059977471828,,,107 Aloud,001,2022_Nov_29_1127,ProdSingRedoBetween,2021.2.3,59.99372451085396,
,,,,153,0,153,0,,,,,,,,,,,,,,,,,,,,,,1878.430261200294,None,,,,,,,,,,,,,,,,,level,69,154,aloud,old,red,1875.7805254003033,None,1875.7805254003033,None,6,1.7050465000793338,1875.7805254003033,None,1.7050465000793338,1877.5132182007656,None,1878.0170740000904,None,1878.0170740000904,None,r,0.3965910002589226,1878.0170740000904,None,0.3965910002589226,,,107 Aloud,001,2022_Nov_29_1127,ProdSingRedoBetween,2021.2.3,59.99372451085396,
,,,,154,0,154,0,,,,,,,,,,,,,,,,,,,,,,1880.6825410006568,None,,,,,,,,,,,,,,,,,benefit,70,155,aloud,old,red,1878.9398986008018,None,1878.9398986008018,None,6,1.0817112997174263,1878.9398986008018,None,1.0817112997174263,1880.0515955006704,None,1880.5657155001536,None,1880.5657155001536,None,r,0.08795589953660965,1880.5657155001536,None,0.08795589953660965,,,107 Aloud,001,2022_Nov_29_1127,ProdSingRedoBetween,2021.2.3,59.99372451085396,
,,,,155,0,155,0,,,,,,,,,,,,,,,,,,,,,,1883.4016255000606,None,,,,,,,,,,,,,,,,,harmony,61,156,aloud,old,red,1881.1949372002855,None,1881.1949372002855,None,6,1.162652200087905,1881.1949372002855,None,1.162652200087905,1882.386602600105,None,1882.9045183006674,None,1882.9045183006674,None,r,0.4691396001726389,1882.9045183006674,None,0.4691396001726389,,,107 Aloud,001,2022_Nov_29_1127,ProdSingRedoBetween,2021.2.3,59.99372451085396,
,,,,156,0,156,0,,,,,,,,,,,,,,,,,,,,,,1889.007474500686,None,,,,,,,,,,,,,,,,,skill,86,157,aloud,old,red,1883.9032854000106,None,1883.9032854000106,None,6,3.254466800019145,1883.9032854000106,None,3.254466800019145,1887.193006400019,None,1887.7154809003696,None,1887.7154809003696,None,r,1.2741414001211524,1887.7154809003696,None,1.2741414001211524,,,107 Aloud,001,2022_Nov_29_1127,ProdSingRedoBetween,2021.2.3,59.99372451085396,
,,,,157,0,157,0,,,,,,,,,,,,,,,,,,,,,,1894.0625003008172,None,,,,,,,,,,,,,,,,,surface,108,158,aloud,new,null,1889.5171600002795,None,1889.5171600002795,None,5,3.6085109999403358,1889.5171600002795,None,3.6085109999403358,1893.154338600114,None,1893.6624473007396,None,1893.6624473007396,None,r,0.3833319004625082,1893.6624473007396,None,0.3833319004625082,,,107 Aloud,001,2022_Nov_29_1127,ProdSingRedoBetween,2021.2.3,59.99372451085396,
,,,,158,0,158,0,,,,,,,,,,,,,,,,,,,,,,1896.6984512005001,None,,,,,,,,,,,,,,,,,degree,16,159,aloud,old,yellow,1894.5724786007777,None,1894.5724786007777,None,6,1.1692077005282044,1894.5724786007777,None,1.1692077005282044,1895.768846400082,None,1896.2814824003726,None,1896.2814824003726,None,r,0.3882098002359271,1896.2814824003726,None,0.3882098002359271,,,107 Aloud,001,2022_Nov_29_1127,ProdSingRedoBetween,2021.2.3,59.99372451085396,
,,,,159,0,159,0,,,,,,,,,,,,,,,,,,,,,,1901.9703585002571,None,,,,,,,,,,,,,,,,,health,40,160,aloud,old,blue,1897.2002477003261,None,1897.2002477003261,None,5,4.197429100051522,1897.2002477003261,None,4.197429100051522,1901.426469700411,None,1901.9388856999576,None,1901.9388856999576,None,r,0.010667899623513222,1901.9388856999576,None,0.010667899623513222,,,107 Aloud,001,2022_Nov_29_1127,ProdSingRedoBetween,2021.2.3,59.99372451085396,
,,,,160,0,160,0,,,,,,,,,,,,,,,,,,,,,,1904.945900700055,None,,,,,,,,,,,,,,,,,suggestion,49,161,aloud,old,blue,1902.48087710049,None,1902.48087710049,None,6,1.5247013000771403,1902.48087710049,None,1.5247013000771403,1904.0261105000973,None,1904.540068300441,None,1904.540068300441,None,r,0.3775936998426914,1904.540068300441,None,0.3775936998426914,,,107 Aloud,001,2022_Nov_29_1127,ProdSingRedoBetween,2021.2.3,59.99372451085396,
,,,,161,0,161,0,,,,,,,,,,,,,,,,,,,,,,1907.1255093002692,None,,,,,,,,,,,,,,,,,listen,57,162,aloud,old,blue,1905.4600617000833,None,1905.4600617000833,None,6,0.809541099704802,1905.4600617000833,None,0.809541099704802,1906.292484600097,None,1906.7964811008424,None,1906.7964811008424,None,r,0.3052081000059843,1906.7964811008424,None,0.3052081000059843,,,107 Aloud,001,2022_Nov_29_1127,ProdSingRedoBetween,2021.2.3,59.99372451085396,
,,,,162,0,162,0,,,,,,,,,,,,,,,,,,,,,,1909.2106584003195,None,,,,,,,,,,,,,,,,,phrase,60,163,aloud,old,red,1907.6329001002014,None,1907.6329001002014,None,6,0.7246923996135592,1907.6329001002014,None,0.7246923996135592,1908.3785234000534,None,1908.897521900013,None,1908.897521900013,None,r,0.28411650005728006,1908.897521900013,None,0.28411650005728006,,,107 Aloud,001,2022_Nov_29_1127,ProdSingRedoBetween,2021.2.3,59.99372451085396,
,,,,163,0,163,0,,,,,,,,,,,,,,,,,,,,,,1910.8292500004172,None,,,,,,,,,,,,,,,,,profession,42,164,aloud,old,blue,1909.7156024007127,None,1909.7156024007127,None,6,0.4099898999556899,1909.7156024007127,None,0.4099898999556899,1910.1485370006412,None,1910.667970300652,None,1910.667970300652,None,r,0.12968309968709946,1910.667970300652,None,0.12968309968709946,,,107 Aloud,001,2022_Nov_29_1127,ProdSingRedoBetween,2021.2.3,59.99372451085396,
,,,,164,0,164,0,,,,,,,,,,,,,,,,,,,,,,1912.3562734005973,None,,,,,,,,,,,,,,,,,store,121,165,aloud,new,null,1911.335010200739,None,1911.335010200739,None,6,0.39057950023561716,1911.335010200739,None,0.39057950023561716,1911.7490034000948,None,1912.267397900112,None,1912.267397900112,None,r,0.05838380008935928,1912.267397900112,None,0.05838380008935928,,,107 Aloud,001,2022_Nov_29_1127,ProdSingRedoBetween,2021.2.3,59.99372451085396,
,,,,165,0,165,0,,,,,,,,,,,,,,,,,,,,,,1914.5349076008424,None,,,,,,,,,,,,,,,,,majority,115,166,aloud,new,null,1912.8733868002892,None,1912.8733868002892,None,6,0.788263600319624,1912.8733868002892,None,0.788263600319624,1913.691961900331,None,1914.1992854001,None,1914.1992854001,None,r,0.3103555999696255,1914.1992854001,None,0.3103555999696255,,,107 Aloud,001,2022_Nov_29_1127,ProdSingRedoBetween,2021.2.3,59.99372451085396,
,,,,166,0,166,0,,,,,,,,,,,,,,,,,,,,,,1917.088204599917,None,,,,,,,,,,,,,,,,,escape,65,167,aloud,old,red,1915.0545239001513,None,1915.0545239001513,None,3,1.4311843998730183,1915.0545239001513,None,1.4311843998730183,1916.505704600364,None,1917.0186713002622,None,1917.0186713002622,None,n,0.04292810056358576,1917.0186713002622,None,0.04292810056358576,,,107 Aloud,001,2022_Nov_29_1127,ProdSingRedoBetween,2021.2.3,59.99372451085396,
,,,,167,0,167,0,,,,,,,,,,,,,,,,,,,,,,1920.6252338001505,None,,,,,,,,,,,,,,,,,raise,92,168,aloud,new,null,1917.6027317000553,None,1917.6027317000553,None,4,1.698862699791789,1917.6027317000553,None,1.698862699791789,1919.3231724007055,None,1919.8436013003811,None,1919.8436013003811,None,r,0.7621064996346831,1919.8436013003811,None,0.7621064996346831,,,107 Aloud,001,2022_Nov_29_1127,ProdSingRedoBetween,2021.2.3,59.99372451085396,
,,,,168,0,168,0,,,,,,,,,,,,,,,,,,,,,,1935.787403400056,None,,,,,,,,,,,,,,,,,volume,26,169,aloud,old,yellow,1921.151793899946,None,1921.151793899946,None,5,13.74170839972794,1921.151793899946,None,13.74170839972794,1934.9210630999878,None,1935.421818899922,None,1935.421818899922,None,r,0.3436669996008277,1935.421818899922,None,0.3436669996008277,,,107 Aloud,001,2022_Nov_29_1127,ProdSingRedoBetween,2021.2.3,59.99372451085396,
,,,,169,0,169,0,,,,,,,,,,,,,,,,,,,,,,1938.4567950004712,None,,,,,,,,,,,,,,,,,rough,46,170,aloud,old,blue,1936.3013929007575,None,1936.3013929007575,None,6,1.4241615002974868,1936.3013929007575,None,1.4241615002974868,1937.7569339005277,None,1938.2607997003943,None,1938.2607997003943,None,r,0.16865790076553822,1938.2607997003943,None,0.16865790076553822,,,107 Aloud,001,2022_Nov_29_1127,ProdSingRedoBetween,2021.2.3,59.99372451085396,
,,,,170,0,170,0,,,,,,,,,,,,,,,,,,,,,,1941.0761267002672,None,,,,,,,,,,,,,,,,,discussion,140,171,aloud,new,null,1938.9716335004196,None,1938.9716335004196,None,6,1.2659026002511382,1938.9716335004196,None,1.2659026002511382,1940.2586938003078,None,1940.7658118000254,None,1940.7658118000254,None,r,0.279679499566555,1940.7658118000254,None,0.279679499566555,,,107 Aloud,001,2022_Nov_29_1127,ProdSingRedoBetween,2021.2.3,59.99372451085396,
,,,,171,0,171,0,,,,,,,,,,,,,,,,,,,,,,1943.044636500068,None,,,,,,,,,,,,,,,,,material,12,172,aloud,old,yellow,1941.5830955002457,None,1941.5830955002457,None,6,0.7584411995485425,1941.5830955002457,None,0.7584411995485425,1942.3618954000995,None,1942.8653025999665,None,1942.8653025999665,None,r,0.15624090004712343,1942.8653025999665,None,0.15624090004712343,,,107 Aloud,001,2022_Nov_29_1127,ProdSingRedoBetween,2021.2.3,59.99372451085396,
,,,,172,0,172,0,,,,,,,,,,,,,,,,,,,,,,1944.7533786008134,None,,,,,,,,,,,,,,,,,period,143,173,aloud,new,null,1943.5586109999567,None,1943.5586109999567,None,6,0.40711829997599125,1943.5586109999567,None,0.40711829997599125,1944.0066872006282,None,1944.5149352001026,None,1944.5149352001026,None,r,0.20281910058110952,1944.5149352001026,None,0.20281910058110952,,,107 Aloud,001,2022_Nov_29_1127,ProdSingRedoBetween,2021.2.3,59.99372451085396,
,,,,173,0,173,0,,,,,,,,,,,,,,,,,,,,,,1951.903570400551,None,,,,,,,,,,,,,,,,,series,83,174,aloud,old,red,1945.268213200383,None,1945.268213200383,None,6,5.177318899892271,1945.268213200383,None,5.177318899892271,1950.4700260004029,None,1950.9745443006977,None,1950.9745443006977,None,r,0.9109721006825566,1950.9745443006977,None,0.9109721006825566,,,107 Aloud,001,2022_Nov_29_1127,ProdSingRedoBetween,2021.2.3,59.99372451085396,
