StudyLoop.thisRepN,StudyLoop.thisTrialN,StudyLoop.thisN,StudyLoop.thisIndex,TestLoop.thisRepN,TestLoop.thisTrialN,TestLoop.thisN,TestLoop.thisIndex,textCondition.started,textCondition.stopped,keyCondition.keys,keyCondition.rt,keyCondition.started,keyCondition.stopped,Condition,textWelcome.started,textWelcome.stopped,keyWelcome.keys,keyWelcome.rt,keyWelcome.started,keyWelcome.stopped,textAloud.started,textAloud.stopped,textSilent.started,textSilent.stopped,textSing.started,textSing.stopped,conditional_text.started,conditional_text.stopped,textBlank500.started,textBlank500.stopped,study_word,study_num,study_order,study_type,word_color,textStudy.started,textStudy.stopped,keyStudy.keys,keyStudy.started,keyStudy.stopped,textTestInstructions.started,textTestInstructions.stopped,key_resp_3.keys,key_resp_3.rt,key_resp_3.started,key_resp_3.stopped,test_word,test_num,test_order,test_condition,old_new_test,test_word_original_color,textConf.started,textConf.stopped,textConfScale.started,textConfScale.stopped,keyConf.keys,keyConf.rt,keyConf.started,keyConf.stopped,confidence response time,textTestBlank.started,textTestBlank.stopped,textRKN.started,textRKN.stopped,textRKNScale.started,textRKNScale.stopped,keyRKN.keys,keyRKN.rt,keyRKN.started,keyRKN.stopped,rkn response time,textEnd.started,textEnd.stopped,participant,session,date,expName,psychopyVersion,frameRate,
,,,,,,,,140.3694118997082,None,c,201.02488490007818,140.3694118997082,None,,,,,,,,,,,,,,,,,,,,,,,,,,,,,,,,,,,,,,,,,,,,,,,,,,,,,,,,,,,,,,108 sing,001,2022_Nov_29_1205,ProdSingRedoBetween,2021.2.3,60.236174050483854,
,,,,,,,,,,,,,,SingTest,341.4373452998698,None,space,14.909779000096023,341.4373452998698,None,,,,,,,,,,,,,,,,,,,,,,,,,,,,,,,,,,,,,,,,,,,,,,,,,,,,,,,108 sing,001,2022_Nov_29_1205,ProdSingRedoBetween,2021.2.3,60.236174050483854,
0,0,0,0,,,,,,,,,,,,,,,,,,341.4373452998698,None,341.4373452998698,None,341.4373452998698,None,341.4373452998698,None,358.8776096999645,None,sound,13,1,sing,yellow,356.87204979918897,None,None,356.87204979918897,None,,,,,,,,,,,,,,,,,,,,,,,,,,,,,,,,,,,108 sing,001,2022_Nov_29_1205,ProdSingRedoBetween,2021.2.3,60.236174050483854,
1,0,1,0,,,,,,,,,,,,,,,,,,,,,,,,,,361.39136829972267,None,drama,16,2,sing,yellow,359.3901101993397,None,None,359.3901101993397,None,,,,,,,,,,,,,,,,,,,,,,,,,,,,,,,,,,,108 sing,001,2022_Nov_29_1205,ProdSingRedoBetween,2021.2.3,60.236174050483854,
2,0,2,0,,,,,,,,,,,,,,,,,,,,,,,,,,363.89368019998074,None,religion,33,3,sing,blue,361.89324939996004,None,None,361.89324939996004,None,,,,,,,,,,,,,,,,,,,,,,,,,,,,,,,,,,,108 sing,001,2022_Nov_29_1205,ProdSingRedoBetween,2021.2.3,60.236174050483854,
3,0,3,0,,,,,,,,,,,,,,,,,,,,,,,,,,366.39628989994526,None,patient,10,4,sing,yellow,364.395785599947,None,None,364.395785599947,None,,,,,,,,,,,,,,,,,,,,,,,,,,,,,,,,,,,108 sing,001,2022_Nov_29_1205,ProdSingRedoBetween,2021.2.3,60.236174050483854,
4,0,4,0,,,,,,,,,,,,,,,,,,,,,,,,,,368.9148154994473,None,search,17,5,sing,yellow,366.91159979999065,None,None,366.91159979999065,None,,,,,,,,,,,,,,,,,,,,,,,,,,,,,,,,,,,108 sing,001,2022_Nov_29_1205,ProdSingRedoBetween,2021.2.3,60.236174050483854,
5,0,5,0,,,,,,,,,,,,,,,,,,,,,,,,,,371.43455179966986,None,citizen,67,6,sing,red,369.42374559957534,None,None,369.42374559957534,None,,,,,,,,,,,,,,,,,,,,,,,,,,,,,,,,,,,108 sing,001,2022_Nov_29_1205,ProdSingRedoBetween,2021.2.3,60.236174050483854,
6,0,6,0,,,,,,,,,,,,,,,,,,,,,,,,,,373.9373725000769,None,trial,88,7,sing,red,371.9346108995378,None,None,371.9346108995378,None,,,,,,,,,,,,,,,,,,,,,,,,,,,,,,,,,,,108 sing,001,2022_Nov_29_1205,ProdSingRedoBetween,2021.2.3,60.236174050483854,
7,0,7,0,,,,,,,,,,,,,,,,,,,,,,,,,,376.4401610996574,None,income,66,8,sing,red,374.4390089996159,None,None,374.4390089996159,None,,,,,,,,,,,,,,,,,,,,,,,,,,,,,,,,,,,108 sing,001,2022_Nov_29_1205,ProdSingRedoBetween,2021.2.3,60.236174050483854,
8,0,8,0,,,,,,,,,,,,,,,,,,,,,,,,,,378.9416561992839,None,relation,75,9,sing,red,376.9408634994179,None,None,376.9408634994179,None,,,,,,,,,,,,,,,,,,,,,,,,,,,,,,,,,,,108 sing,001,2022_Nov_29_1205,ProdSingRedoBetween,2021.2.3,60.236174050483854,
9,0,9,0,,,,,,,,,,,,,,,,,,,,,,,,,,381.4612408997491,None,guest,30,10,sing,blue,379.44742719922215,None,None,379.44742719922215,None,,,,,,,,,,,,,,,,,,,,,,,,,,,,,,,,,,,108 sing,001,2022_Nov_29_1205,ProdSingRedoBetween,2021.2.3,60.236174050483854,
10,0,10,0,,,,,,,,,,,,,,,,,,,,,,,,,,383.96404419932514,None,style,86,11,sing,red,381.9637656994164,None,None,381.9637656994164,None,,,,,,,,,,,,,,,,,,,,,,,,,,,,,,,,,,,108 sing,001,2022_Nov_29_1205,ProdSingRedoBetween,2021.2.3,60.236174050483854,
11,0,11,0,,,,,,,,,,,,,,,,,,,,,,,,,,386.46629639994353,None,mayor,77,12,sing,red,384.4664538996294,None,None,384.4664538996294,None,,,,,,,,,,,,,,,,,,,,,,,,,,,,,,,,,,,108 sing,001,2022_Nov_29_1205,ProdSingRedoBetween,2021.2.3,60.236174050483854,
12,0,12,0,,,,,,,,,,,,,,,,,,,,,,,,,,388.96877449937165,None,crowd,22,13,sing,yellow,386.9692201996222,None,None,386.9692201996222,None,,,,,,,,,,,,,,,,,,,,,,,,,,,,,,,,,,,108 sing,001,2022_Nov_29_1205,ProdSingRedoBetween,2021.2.3,60.236174050483854,
13,0,13,0,,,,,,,,,,,,,,,,,,,,,,,,,,391.47112589981407,None,husband,64,14,sing,red,389.47012369986624,None,None,389.47012369986624,None,,,,,,,,,,,,,,,,,,,,,,,,,,,,,,,,,,,108 sing,001,2022_Nov_29_1205,ProdSingRedoBetween,2021.2.3,60.236174050483854,
14,0,14,0,,,,,,,,,,,,,,,,,,,,,,,,,,393.99097509961575,None,device,53,15,sing,blue,391.9927479997277,None,None,391.9927479997277,None,,,,,,,,,,,,,,,,,,,,,,,,,,,,,,,,,,,108 sing,001,2022_Nov_29_1205,ProdSingRedoBetween,2021.2.3,60.236174050483854,
15,0,15,0,,,,,,,,,,,,,,,,,,,,,,,,,,396.49343549925834,None,production,47,16,sing,blue,394.49337779916823,None,None,394.49337779916823,None,,,,,,,,,,,,,,,,,,,,,,,,,,,,,,,,,,,108 sing,001,2022_Nov_29_1205,ProdSingRedoBetween,2021.2.3,60.236174050483854,
16,0,16,0,,,,,,,,,,,,,,,,,,,,,,,,,,398.99529009964317,None,machinery,46,17,sing,blue,396.9956884998828,None,None,396.9956884998828,None,,,,,,,,,,,,,,,,,,,,,,,,,,,,,,,,,,,108 sing,001,2022_Nov_29_1205,ProdSingRedoBetween,2021.2.3,60.236174050483854,
17,0,17,0,,,,,,,,,,,,,,,,,,,,,,,,,,401.51508959941566,None,individual,62,18,sing,red,399.50172349996865,None,None,399.50172349996865,None,,,,,,,,,,,,,,,,,,,,,,,,,,,,,,,,,,,108 sing,001,2022_Nov_29_1205,ProdSingRedoBetween,2021.2.3,60.236174050483854,
18,0,18,0,,,,,,,,,,,,,,,,,,,,,,,,,,404.03394729923457,None,partner,0,19,sing,yellow,402.0184960998595,None,None,402.0184960998595,None,,,,,,,,,,,,,,,,,,,,,,,,,,,,,,,,,,,108 sing,001,2022_Nov_29_1205,ProdSingRedoBetween,2021.2.3,60.236174050483854,
19,0,19,0,,,,,,,,,,,,,,,,,,,,,,,,,,406.53606369998306,None,symbol,42,20,sing,blue,404.5346665000543,None,None,404.5346665000543,None,,,,,,,,,,,,,,,,,,,,,,,,,,,,,,,,,,,108 sing,001,2022_Nov_29_1205,ProdSingRedoBetween,2021.2.3,60.236174050483854,
20,0,20,0,,,,,,,,,,,,,,,,,,,,,,,,,,409.0553762000054,None,pattern,57,21,sing,blue,407.0498873991892,None,None,407.0498873991892,None,,,,,,,,,,,,,,,,,,,,,,,,,,,,,,,,,,,108 sing,001,2022_Nov_29_1205,ProdSingRedoBetween,2021.2.3,60.236174050483854,
21,0,21,0,,,,,,,,,,,,,,,,,,,,,,,,,,411.5577535992488,None,carry,8,22,sing,yellow,409.557416100055,None,None,409.557416100055,None,,,,,,,,,,,,,,,,,,,,,,,,,,,,,,,,,,,108 sing,001,2022_Nov_29_1205,ProdSingRedoBetween,2021.2.3,60.236174050483854,
22,0,22,0,,,,,,,,,,,,,,,,,,,,,,,,,,414.0770104993135,None,military,40,23,sing,blue,412.0614553997293,None,None,412.0614553997293,None,,,,,,,,,,,,,,,,,,,,,,,,,,,,,,,,,,,108 sing,001,2022_Nov_29_1205,ProdSingRedoBetween,2021.2.3,60.236174050483854,
23,0,23,0,,,,,,,,,,,,,,,,,,,,,,,,,,416.5792656997219,None,executive,28,24,sing,yellow,414.5798638993874,None,None,414.5798638993874,None,,,,,,,,,,,,,,,,,,,,,,,,,,,,,,,,,,,108 sing,001,2022_Nov_29_1205,ProdSingRedoBetween,2021.2.3,60.236174050483854,
24,0,24,0,,,,,,,,,,,,,,,,,,,,,,,,,,419.08189809974283,None,primary,61,25,sing,red,417.0820338996127,None,None,417.0820338996127,None,,,,,,,,,,,,,,,,,,,,,,,,,,,,,,,,,,,108 sing,001,2022_Nov_29_1205,ProdSingRedoBetween,2021.2.3,60.236174050483854,
25,0,25,0,,,,,,,,,,,,,,,,,,,,,,,,,,421.6009803991765,None,junior,27,26,sing,yellow,419.59017919935286,None,None,419.59017919935286,None,,,,,,,,,,,,,,,,,,,,,,,,,,,,,,,,,,,108 sing,001,2022_Nov_29_1205,ProdSingRedoBetween,2021.2.3,60.236174050483854,
26,0,26,0,,,,,,,,,,,,,,,,,,,,,,,,,,424.1037521995604,None,season,31,27,sing,blue,422.10375039931387,None,None,422.10375039931387,None,,,,,,,,,,,,,,,,,,,,,,,,,,,,,,,,,,,108 sing,001,2022_Nov_29_1205,ProdSingRedoBetween,2021.2.3,60.236174050483854,
27,0,27,0,,,,,,,,,,,,,,,,,,,,,,,,,,426.6064585996792,None,research,58,28,sing,blue,424.6068184999749,None,None,424.6068184999749,None,,,,,,,,,,,,,,,,,,,,,,,,,,,,,,,,,,,108 sing,001,2022_Nov_29_1205,ProdSingRedoBetween,2021.2.3,60.236174050483854,
28,0,28,0,,,,,,,,,,,,,,,,,,,,,,,,,,429.10835609957576,None,trash,71,29,sing,red,427.1081735994667,None,None,427.1081735994667,None,,,,,,,,,,,,,,,,,,,,,,,,,,,,,,,,,,,108 sing,001,2022_Nov_29_1205,ProdSingRedoBetween,2021.2.3,60.236174050483854,
29,0,29,0,,,,,,,,,,,,,,,,,,,,,,,,,,431.61306509934366,None,broad,18,30,sing,yellow,429.61082479916513,None,None,429.61082479916513,None,,,,,,,,,,,,,,,,,,,,,,,,,,,,,,,,,,,108 sing,001,2022_Nov_29_1205,ProdSingRedoBetween,2021.2.3,60.236174050483854,
30,0,30,0,,,,,,,,,,,,,,,,,,,,,,,,,,434.1467170994729,None,rough,72,31,sing,red,432.13445919938385,None,None,432.13445919938385,None,,,,,,,,,,,,,,,,,,,,,,,,,,,,,,,,,,,108 sing,001,2022_Nov_29_1205,ProdSingRedoBetween,2021.2.3,60.236174050483854,
31,0,31,0,,,,,,,,,,,,,,,,,,,,,,,,,,436.6491879997775,None,month,73,32,sing,red,434.64719789940864,None,None,434.64719789940864,None,,,,,,,,,,,,,,,,,,,,,,,,,,,,,,,,,,,108 sing,001,2022_Nov_29_1205,ProdSingRedoBetween,2021.2.3,60.236174050483854,
32,0,32,0,,,,,,,,,,,,,,,,,,,,,,,,,,439.15162119921297,None,republic,44,33,sing,blue,437.1523858997971,None,None,437.1523858997971,None,,,,,,,,,,,,,,,,,,,,,,,,,,,,,,,,,,,108 sing,001,2022_Nov_29_1205,ProdSingRedoBetween,2021.2.3,60.236174050483854,
33,0,33,0,,,,,,,,,,,,,,,,,,,,,,,,,,441.6720692999661,None,novel,35,34,sing,blue,439.6571170995012,None,None,439.6571170995012,None,,,,,,,,,,,,,,,,,,,,,,,,,,,,,,,,,,,108 sing,001,2022_Nov_29_1205,ProdSingRedoBetween,2021.2.3,60.236174050483854,
34,0,34,0,,,,,,,,,,,,,,,,,,,,,,,,,,444.1899554999545,None,trend,37,35,sing,blue,442.1751530999318,None,None,442.1751530999318,None,,,,,,,,,,,,,,,,,,,,,,,,,,,,,,,,,,,108 sing,001,2022_Nov_29_1205,ProdSingRedoBetween,2021.2.3,60.236174050483854,
35,0,35,0,,,,,,,,,,,,,,,,,,,,,,,,,,446.70939289964736,None,force,26,36,sing,yellow,444.69396589975804,None,None,444.69396589975804,None,,,,,,,,,,,,,,,,,,,,,,,,,,,,,,,,,,,108 sing,001,2022_Nov_29_1205,ProdSingRedoBetween,2021.2.3,60.236174050483854,
36,0,36,0,,,,,,,,,,,,,,,,,,,,,,,,,,449.21203719917685,None,tennis,5,37,sing,yellow,447.211746099405,None,None,447.211746099405,None,,,,,,,,,,,,,,,,,,,,,,,,,,,,,,,,,,,108 sing,001,2022_Nov_29_1205,ProdSingRedoBetween,2021.2.3,60.236174050483854,
37,0,37,0,,,,,,,,,,,,,,,,,,,,,,,,,,451.7154061999172,None,count,3,38,sing,yellow,449.71395340003073,None,None,449.71395340003073,None,,,,,,,,,,,,,,,,,,,,,,,,,,,,,,,,,,,108 sing,001,2022_Nov_29_1205,ProdSingRedoBetween,2021.2.3,60.236174050483854,
38,0,38,0,,,,,,,,,,,,,,,,,,,,,,,,,,454.23383999988437,None,population,41,39,sing,blue,452.23022279981524,None,None,452.23022279981524,None,,,,,,,,,,,,,,,,,,,,,,,,,,,,,,,,,,,108 sing,001,2022_Nov_29_1205,ProdSingRedoBetween,2021.2.3,60.236174050483854,
39,0,39,0,,,,,,,,,,,,,,,,,,,,,,,,,,456.7362771993503,None,space,36,40,sing,blue,454.7356516998261,None,None,454.7356516998261,None,,,,,,,,,,,,,,,,,,,,,,,,,,,,,,,,,,,108 sing,001,2022_Nov_29_1205,ProdSingRedoBetween,2021.2.3,60.236174050483854,
40,0,40,0,,,,,,,,,,,,,,,,,,,,,,,,,,459.2386310994625,None,nature,74,41,sing,red,457.23901979997754,None,None,457.23901979997754,None,,,,,,,,,,,,,,,,,,,,,,,,,,,,,,,,,,,108 sing,001,2022_Nov_29_1205,ProdSingRedoBetween,2021.2.3,60.236174050483854,
41,0,41,0,,,,,,,,,,,,,,,,,,,,,,,,,,461.7422260995954,None,color,23,42,sing,yellow,459.7403425993398,None,None,459.7403425993398,None,,,,,,,,,,,,,,,,,,,,,,,,,,,,,,,,,,,108 sing,001,2022_Nov_29_1205,ProdSingRedoBetween,2021.2.3,60.236174050483854,
42,0,42,0,,,,,,,,,,,,,,,,,,,,,,,,,,464.2435401994735,None,history,89,43,sing,red,462.24490759987384,None,None,462.24490759987384,None,,,,,,,,,,,,,,,,,,,,,,,,,,,,,,,,,,,108 sing,001,2022_Nov_29_1205,ProdSingRedoBetween,2021.2.3,60.236174050483854,
43,0,43,0,,,,,,,,,,,,,,,,,,,,,,,,,,466.74945789948106,None,corner,59,44,sing,yellow,464.7455551996827,None,None,464.7455551996827,None,,,,,,,,,,,,,,,,,,,,,,,,,,,,,,,,,,,108 sing,001,2022_Nov_29_1205,ProdSingRedoBetween,2021.2.3,60.236174050483854,
44,0,44,0,,,,,,,,,,,,,,,,,,,,,,,,,,469.28183949925005,None,suspect,43,45,sing,blue,467.2661263998598,None,None,467.2661263998598,None,,,,,,,,,,,,,,,,,,,,,,,,,,,,,,,,,,,108 sing,001,2022_Nov_29_1205,ProdSingRedoBetween,2021.2.3,60.236174050483854,
45,0,45,0,,,,,,,,,,,,,,,,,,,,,,,,,,471.80136269982904,None,error,9,46,sing,yellow,469.78595509938896,None,None,469.78595509938896,None,,,,,,,,,,,,,,,,,,,,,,,,,,,,,,,,,,,108 sing,001,2022_Nov_29_1205,ProdSingRedoBetween,2021.2.3,60.236174050483854,
46,0,46,0,,,,,,,,,,,,,,,,,,,,,,,,,,474.3037928994745,None,dispute,51,47,sing,blue,472.3016826994717,None,None,472.3016826994717,None,,,,,,,,,,,,,,,,,,,,,,,,,,,,,,,,,,,108 sing,001,2022_Nov_29_1205,ProdSingRedoBetween,2021.2.3,60.236174050483854,
47,0,47,0,,,,,,,,,,,,,,,,,,,,,,,,,,476.82353619951755,None,judge,11,48,sing,yellow,474.80827299971133,None,None,474.80827299971133,None,,,,,,,,,,,,,,,,,,,,,,,,,,,,,,,,,,,108 sing,001,2022_Nov_29_1205,ProdSingRedoBetween,2021.2.3,60.236174050483854,
48,0,48,0,,,,,,,,,,,,,,,,,,,,,,,,,,479.32576389983296,None,youth,20,49,sing,yellow,477.3234119992703,None,None,477.3234119992703,None,,,,,,,,,,,,,,,,,,,,,,,,,,,,,,,,,,,108 sing,001,2022_Nov_29_1205,ProdSingRedoBetween,2021.2.3,60.236174050483854,
49,0,49,0,,,,,,,,,,,,,,,,,,,,,,,,,,481.844561399892,None,edition,52,50,sing,blue,479.8305214997381,None,None,479.8305214997381,None,,,,,,,,,,,,,,,,,,,,,,,,,,,,,,,,,,,108 sing,001,2022_Nov_29_1205,ProdSingRedoBetween,2021.2.3,60.236174050483854,
50,0,50,0,,,,,,,,,,,,,,,,,,,,,,,,,,484.3637387994677,None,quarter,49,51,sing,blue,482.34899029973894,None,None,482.34899029973894,None,,,,,,,,,,,,,,,,,,,,,,,,,,,,,,,,,,,108 sing,001,2022_Nov_29_1205,ProdSingRedoBetween,2021.2.3,60.236174050483854,
51,0,51,0,,,,,,,,,,,,,,,,,,,,,,,,,,486.86704659927636,None,broke,7,52,sing,yellow,484.8666763994843,None,None,484.8666763994843,None,,,,,,,,,,,,,,,,,,,,,,,,,,,,,,,,,,,108 sing,001,2022_Nov_29_1205,ProdSingRedoBetween,2021.2.3,60.236174050483854,
52,0,52,0,,,,,,,,,,,,,,,,,,,,,,,,,,489.3850046992302,None,crisis,38,53,sing,blue,487.3728114999831,None,None,487.3728114999831,None,,,,,,,,,,,,,,,,,,,,,,,,,,,,,,,,,,,108 sing,001,2022_Nov_29_1205,ProdSingRedoBetween,2021.2.3,60.236174050483854,
53,0,53,0,,,,,,,,,,,,,,,,,,,,,,,,,,491.90442579984665,None,mankind,55,54,sing,blue,489.89105849992484,None,None,489.89105849992484,None,,,,,,,,,,,,,,,,,,,,,,,,,,,,,,,,,,,108 sing,001,2022_Nov_29_1205,ProdSingRedoBetween,2021.2.3,60.236174050483854,
54,0,54,0,,,,,,,,,,,,,,,,,,,,,,,,,,494.40967349987477,None,order,50,55,sing,blue,492.4069063998759,None,None,492.4069063998759,None,,,,,,,,,,,,,,,,,,,,,,,,,,,,,,,,,,,108 sing,001,2022_Nov_29_1205,ProdSingRedoBetween,2021.2.3,60.236174050483854,
55,0,55,0,,,,,,,,,,,,,,,,,,,,,,,,,,496.9264890998602,None,council,81,56,sing,red,494.9266319992021,None,None,494.9266319992021,None,,,,,,,,,,,,,,,,,,,,,,,,,,,,,,,,,,,108 sing,001,2022_Nov_29_1205,ProdSingRedoBetween,2021.2.3,60.236174050483854,
56,0,56,0,,,,,,,,,,,,,,,,,,,,,,,,,,499.42848099954426,None,bitter,82,57,sing,red,497.42751809954643,None,None,497.42751809954643,None,,,,,,,,,,,,,,,,,,,,,,,,,,,,,,,,,,,108 sing,001,2022_Nov_29_1205,ProdSingRedoBetween,2021.2.3,60.236174050483854,
57,0,57,0,,,,,,,,,,,,,,,,,,,,,,,,,,501.93137929961085,None,hunger,2,58,sing,yellow,499.93024509958923,None,None,499.93024509958923,None,,,,,,,,,,,,,,,,,,,,,,,,,,,,,,,,,,,108 sing,001,2022_Nov_29_1205,ProdSingRedoBetween,2021.2.3,60.236174050483854,
58,0,58,0,,,,,,,,,,,,,,,,,,,,,,,,,,504.43367339950055,None,message,48,59,sing,blue,502.43403809983283,None,None,502.43403809983283,None,,,,,,,,,,,,,,,,,,,,,,,,,,,,,,,,,,,108 sing,001,2022_Nov_29_1205,ProdSingRedoBetween,2021.2.3,60.236174050483854,
59,0,59,0,,,,,,,,,,,,,,,,,,,,,,,,,,506.93605199921876,None,suggestion,87,60,sing,red,504.93703019991517,None,None,504.93703019991517,None,,,,,,,,,,,,,,,,,,,,,,,,,,,,,,,,,,,108 sing,001,2022_Nov_29_1205,ProdSingRedoBetween,2021.2.3,60.236174050483854,
60,0,60,0,,,,,,,,,,,,,,,,,,,,,,,,,,509.4389705993235,None,accident,76,61,sing,red,507.43743339926004,None,None,507.43743339926004,None,,,,,,,,,,,,,,,,,,,,,,,,,,,,,,,,,,,108 sing,001,2022_Nov_29_1205,ProdSingRedoBetween,2021.2.3,60.236174050483854,
61,0,61,0,,,,,,,,,,,,,,,,,,,,,,,,,,511.9412423996255,None,career,70,62,sing,red,509.9415683997795,None,None,509.9415683997795,None,,,,,,,,,,,,,,,,,,,,,,,,,,,,,,,,,,,108 sing,001,2022_Nov_29_1205,ProdSingRedoBetween,2021.2.3,60.236174050483854,
62,0,62,0,,,,,,,,,,,,,,,,,,,,,,,,,,514.4605049993843,None,committee,60,63,sing,red,512.4492568997666,None,None,512.4492568997666,None,,,,,,,,,,,,,,,,,,,,,,,,,,,,,,,,,,,108 sing,001,2022_Nov_29_1205,ProdSingRedoBetween,2021.2.3,60.236174050483854,
63,0,63,0,,,,,,,,,,,,,,,,,,,,,,,,,,516.9627384999767,None,election,69,64,sing,red,514.9606161992997,None,None,514.9606161992997,None,,,,,,,,,,,,,,,,,,,,,,,,,,,,,,,,,,,108 sing,001,2022_Nov_29_1205,ProdSingRedoBetween,2021.2.3,60.236174050483854,
64,0,64,0,,,,,,,,,,,,,,,,,,,,,,,,,,519.4821705995128,None,escape,15,65,sing,yellow,517.4771002996713,None,None,517.4771002996713,None,,,,,,,,,,,,,,,,,,,,,,,,,,,,,,,,,,,108 sing,001,2022_Nov_29_1205,ProdSingRedoBetween,2021.2.3,60.236174050483854,
65,0,65,0,,,,,,,,,,,,,,,,,,,,,,,,,,521.9843653999269,None,debate,78,66,sing,red,519.9831097992137,None,None,519.9831097992137,None,,,,,,,,,,,,,,,,,,,,,,,,,,,,,,,,,,,108 sing,001,2022_Nov_29_1205,ProdSingRedoBetween,2021.2.3,60.236174050483854,
66,0,66,0,,,,,,,,,,,,,,,,,,,,,,,,,,524.5037375995889,None,answer,63,67,sing,red,522.4879559995607,None,None,522.4879559995607,None,,,,,,,,,,,,,,,,,,,,,,,,,,,,,,,,,,,108 sing,001,2022_Nov_29_1205,ProdSingRedoBetween,2021.2.3,60.236174050483854,
67,0,67,0,,,,,,,,,,,,,,,,,,,,,,,,,,527.0062082000077,None,court,29,68,sing,blue,525.0044866995886,None,None,525.0044866995886,None,,,,,,,,,,,,,,,,,,,,,,,,,,,,,,,,,,,108 sing,001,2022_Nov_29_1205,ProdSingRedoBetween,2021.2.3,60.236174050483854,
68,0,68,0,,,,,,,,,,,,,,,,,,,,,,,,,,529.5084179993719,None,country,68,69,sing,red,527.5080445995554,None,None,527.5080445995554,None,,,,,,,,,,,,,,,,,,,,,,,,,,,,,,,,,,,108 sing,001,2022_Nov_29_1205,ProdSingRedoBetween,2021.2.3,60.236174050483854,
69,0,69,0,,,,,,,,,,,,,,,,,,,,,,,,,,532.0109073994681,None,private,21,70,sing,yellow,530.0117861991748,None,None,530.0117861991748,None,,,,,,,,,,,,,,,,,,,,,,,,,,,,,,,,,,,108 sing,001,2022_Nov_29_1205,ProdSingRedoBetween,2021.2.3,60.236174050483854,
70,0,70,0,,,,,,,,,,,,,,,,,,,,,,,,,,534.5137656992301,None,waste,25,71,sing,yellow,532.5132856993005,None,None,532.5132856993005,None,,,,,,,,,,,,,,,,,,,,,,,,,,,,,,,,,,,108 sing,001,2022_Nov_29_1205,ProdSingRedoBetween,2021.2.3,60.236174050483854,
71,0,71,0,,,,,,,,,,,,,,,,,,,,,,,,,,537.0160619998351,None,measure,85,72,sing,red,535.0153733994812,None,None,535.0153733994812,None,,,,,,,,,,,,,,,,,,,,,,,,,,,,,,,,,,,108 sing,001,2022_Nov_29_1205,ProdSingRedoBetween,2021.2.3,60.236174050483854,
72,0,72,0,,,,,,,,,,,,,,,,,,,,,,,,,,539.518605899997,None,beginning,80,73,sing,red,537.518551199697,None,None,537.518551199697,None,,,,,,,,,,,,,,,,,,,,,,,,,,,,,,,,,,,108 sing,001,2022_Nov_29_1205,ProdSingRedoBetween,2021.2.3,60.236174050483854,
73,0,73,0,,,,,,,,,,,,,,,,,,,,,,,,,,542.0378227997571,None,background,34,74,sing,blue,540.023845099844,None,None,540.023845099844,None,,,,,,,,,,,,,,,,,,,,,,,,,,,,,,,,,,,108 sing,001,2022_Nov_29_1205,ProdSingRedoBetween,2021.2.3,60.236174050483854,
74,0,74,0,,,,,,,,,,,,,,,,,,,,,,,,,,544.5399987995625,None,poetry,56,75,sing,blue,542.5389988999814,None,None,542.5389988999814,None,,,,,,,,,,,,,,,,,,,,,,,,,,,,,,,,,,,108 sing,001,2022_Nov_29_1205,ProdSingRedoBetween,2021.2.3,60.236174050483854,
75,0,75,0,,,,,,,,,,,,,,,,,,,,,,,,,,547.0430840998888,None,scale,14,76,sing,yellow,545.0422069998458,None,None,545.0422069998458,None,,,,,,,,,,,,,,,,,,,,,,,,,,,,,,,,,,,108 sing,001,2022_Nov_29_1205,ProdSingRedoBetween,2021.2.3,60.236174050483854,
76,0,76,0,,,,,,,,,,,,,,,,,,,,,,,,,,549.5621843999252,None,right,4,77,sing,yellow,547.5480990000069,None,None,547.5480990000069,None,,,,,,,,,,,,,,,,,,,,,,,,,,,,,,,,,,,108 sing,001,2022_Nov_29_1205,ProdSingRedoBetween,2021.2.3,60.236174050483854,
77,0,77,0,,,,,,,,,,,,,,,,,,,,,,,,,,552.0646090991795,None,exchange,39,78,sing,blue,550.0633617993444,None,None,550.0633617993444,None,,,,,,,,,,,,,,,,,,,,,,,,,,,,,,,,,,,108 sing,001,2022_Nov_29_1205,ProdSingRedoBetween,2021.2.3,60.236174050483854,
78,0,78,0,,,,,,,,,,,,,,,,,,,,,,,,,,554.5671136993915,None,incident,12,79,sing,yellow,552.5677633993328,None,None,552.5677633993328,None,,,,,,,,,,,,,,,,,,,,,,,,,,,,,,,,,,,108 sing,001,2022_Nov_29_1205,ProdSingRedoBetween,2021.2.3,60.236174050483854,
79,0,79,0,,,,,,,,,,,,,,,,,,,,,,,,,,557.0692802993581,None,motion,83,80,sing,red,555.068221299909,None,None,555.068221299909,None,,,,,,,,,,,,,,,,,,,,,,,,,,,,,,,,,,,108 sing,001,2022_Nov_29_1205,ProdSingRedoBetween,2021.2.3,60.236174050483854,
80,0,80,0,,,,,,,,,,,,,,,,,,,,,,,,,,559.5890287999064,None,listen,54,81,sing,blue,557.5740192998201,None,None,557.5740192998201,None,,,,,,,,,,,,,,,,,,,,,,,,,,,,,,,,,,,108 sing,001,2022_Nov_29_1205,ProdSingRedoBetween,2021.2.3,60.236174050483854,
81,0,81,0,,,,,,,,,,,,,,,,,,,,,,,,,,562.1080677993596,None,quick,32,82,sing,blue,560.0938565991819,None,None,560.0938565991819,None,,,,,,,,,,,,,,,,,,,,,,,,,,,,,,,,,,,108 sing,001,2022_Nov_29_1205,ProdSingRedoBetween,2021.2.3,60.236174050483854,
82,0,82,0,,,,,,,,,,,,,,,,,,,,,,,,,,564.6102916998789,None,revolution,45,83,sing,blue,562.6091065993533,None,None,562.6091065993533,None,,,,,,,,,,,,,,,,,,,,,,,,,,,,,,,,,,,108 sing,001,2022_Nov_29_1205,ProdSingRedoBetween,2021.2.3,60.236174050483854,
83,0,83,0,,,,,,,,,,,,,,,,,,,,,,,,,,567.1322308992967,None,range,1,84,sing,yellow,565.1146737998351,None,None,565.1146737998351,None,,,,,,,,,,,,,,,,,,,,,,,,,,,,,,,,,,,108 sing,001,2022_Nov_29_1205,ProdSingRedoBetween,2021.2.3,60.236174050483854,
84,0,84,0,,,,,,,,,,,,,,,,,,,,,,,,,,569.6321569997817,None,member,84,85,sing,red,567.6322180991992,None,None,567.6322180991992,None,,,,,,,,,,,,,,,,,,,,,,,,,,,,,,,,,,,108 sing,001,2022_Nov_29_1205,ProdSingRedoBetween,2021.2.3,60.236174050483854,
85,0,85,0,,,,,,,,,,,,,,,,,,,,,,,,,,572.1520205000415,None,commercial,19,86,sing,yellow,570.1426812997088,None,None,570.1426812997088,None,,,,,,,,,,,,,,,,,,,,,,,,,,,,,,,,,,,108 sing,001,2022_Nov_29_1205,ProdSingRedoBetween,2021.2.3,60.236174050483854,
86,0,86,0,,,,,,,,,,,,,,,,,,,,,,,,,,574.654144199565,None,throw,79,87,sing,red,572.6521656997502,None,None,572.6521656997502,None,,,,,,,,,,,,,,,,,,,,,,,,,,,,,,,,,,,108 sing,001,2022_Nov_29_1205,ProdSingRedoBetween,2021.2.3,60.236174050483854,
87,0,87,0,,,,,,,,,,,,,,,,,,,,,,,,,,577.1729569993913,None,generation,65,88,sing,red,575.1582100000232,None,None,575.1582100000232,None,,,,,,,,,,,,,,,,,,,,,,,,,,,,,,,,,,,108 sing,001,2022_Nov_29_1205,ProdSingRedoBetween,2021.2.3,60.236174050483854,
88,0,88,0,,,,,,,,,,,,,,,,,,,,,,,,,,579.6919185994193,None,concern,24,89,sing,yellow,577.6970427995548,None,None,577.6970427995548,None,,,,,,,,,,,,,,,,,,,,,,,,,,,,,,,,,,,108 sing,001,2022_Nov_29_1205,ProdSingRedoBetween,2021.2.3,60.236174050483854,
89,0,89,0,,,,,,,,,,,,,,,,,,,,,,,,,,582.1944888997823,None,guard,6,90,sing,yellow,580.1953614000231,None,None,580.1953614000231,None,,,,,,,,,,,,,,,,,,,,,,,,,,,,,,,,,,,108 sing,001,2022_Nov_29_1205,ProdSingRedoBetween,2021.2.3,60.236174050483854,
,,,,,,,,,,,,,,,,,,,,,,,,,,,,,,,,,,,,,,,,,582.6949790995568,None,k,39.58412559982389,582.6949790995568,None,,,,,,,,,,,,,,,,,,,,,,,,,,,,,108 sing,001,2022_Nov_29_1205,ProdSingRedoBetween,2021.2.3,60.236174050483854,
,,,,0,0,0,0,,,,,,,,,,,,,,,,,,,,,,629.1054477998987,None,,,,,,,,,,,,,,,,,committee,60,1,sing,old,red,622.8082932997495,None,622.8082932997495,None,6,3.2792555000633,622.8082932997495,None,3.2792555000633,626.1077274000272,None,626.6221576994285,None,626.6221576994285,None,r,2.4421910000965,626.6221576994285,None,2.4421910000965,,,108 sing,001,2022_Nov_29_1205,ProdSingRedoBetween,2021.2.3,60.236174050483854,
,,,,1,0,1,0,,,,,,,,,,,,,,,,,,,,,,634.9491558000445,None,,,,,,,,,,,,,,,,,material,148,2,sing,new,null,629.6158283995464,None,629.6158283995464,None,4,3.8298093993216753,629.6158283995464,None,3.8298093993216753,633.4654497997835,None,633.9793349998072,None,633.9793349998072,None,f,0.944866000674665,633.9793349998072,None,0.944866000674665,,,108 sing,001,2022_Nov_29_1205,ProdSingRedoBetween,2021.2.3,60.236174050483854,
,,,,2,0,2,0,,,,,,,,,,,,,,,,,,,,,,638.1383386999369,None,,,,,,,,,,,,,,,,,tennis,5,3,sing,old,yellow,635.4665532000363,None,635.4665532000363,None,6,1.6393531998619437,635.4665532000363,None,1.6393531998619437,637.1351405996829,None,637.6525997994468,None,637.6525997994468,None,r,0.4638168001547456,637.6525997994468,None,0.4638168001547456,,,108 sing,001,2022_Nov_29_1205,ProdSingRedoBetween,2021.2.3,60.236174050483854,
,,,,3,0,3,0,,,,,,,,,,,,,,,,,,,,,,640.8869933998212,None,,,,,,,,,,,,,,,,,mayor,77,4,sing,old,red,638.6548937000334,None,638.6548937000334,None,6,1.2520179003477097,638.6548937000334,None,1.2520179003477097,639.9392099995166,None,640.4534246996045,None,640.4534246996045,None,r,0.4052157998085022,640.4534246996045,None,0.4052157998085022,,,108 sing,001,2022_Nov_29_1205,ProdSingRedoBetween,2021.2.3,60.236174050483854,
,,,,4,0,4,0,,,,,,,,,,,,,,,,,,,,,,644.6903674993664,None,,,,,,,,,,,,,,,,,right,4,5,sing,old,yellow,641.392496000044,None,641.392496000044,None,3,2.14447579998523,641.392496000044,None,2.14447579998523,643.5575353996828,None,644.0733773000538,None,644.0733773000538,None,f,0.5881486004218459,644.0733773000538,None,0.5881486004218459,,,108 sing,001,2022_Nov_29_1205,ProdSingRedoBetween,2021.2.3,60.236174050483854,
,,,,5,0,5,0,,,,,,,,,,,,,,,,,,,,,,648.4784715995193,None,,,,,,,,,,,,,,,,,shear,102,6,sing,new,null,645.2024936992675,None,645.2024936992675,None,1,1.7285724999383092,645.2024936992675,None,1.7285724999383092,646.9611064000055,None,647.4782969998196,None,647.4782969998196,None,n,0.9741672007367015,647.4782969998196,None,0.9741672007367015,,,108 sing,001,2022_Nov_29_1205,ProdSingRedoBetween,2021.2.3,60.236174050483854,
,,,,6,0,6,0,,,,,,,,,,,,,,,,,,,,,,651.6653690999374,None,,,,,,,,,,,,,,,,,quiet,157,7,sing,new,null,648.9805560000241,None,648.9805560000241,None,6,1.703608499839902,648.9805560000241,None,1.703608499839902,650.7147568995133,None,651.2297236993909,None,651.2297236993909,None,r,0.41325899958610535,651.2297236993909,None,0.41325899958610535,,,108 sing,001,2022_Nov_29_1205,ProdSingRedoBetween,2021.2.3,60.236174050483854,
,,,,7,0,7,0,,,,,,,,,,,,,,,,,,,,,,655.1863659992814,None,,,,,,,,,,,,,,,,,touch,119,8,sing,new,null,652.1737492997199,None,652.1737492997199,None,3,1.7006475003436208,652.1737492997199,None,1.7006475003436208,653.9037278993055,None,654.4175132000819,None,654.4175132000819,None,f,0.7436662996187806,654.4175132000819,None,0.7436662996187806,,,108 sing,001,2022_Nov_29_1205,ProdSingRedoBetween,2021.2.3,60.236174050483854,
,,,,8,0,8,0,,,,,,,,,,,,,,,,,,,,,,657.927559199743,None,,,,,,,,,,,,,,,,,husband,64,9,sing,old,red,655.7153145996854,None,655.7153145996854,None,6,1.211136399768293,655.7153145996854,None,1.211136399768293,656.9560417998582,None,657.4816742995754,None,657.4816742995754,None,r,0.4140893993899226,657.4816742995754,None,0.4140893993899226,,,108 sing,001,2022_Nov_29_1205,ProdSingRedoBetween,2021.2.3,60.236174050483854,
,,,,9,0,9,0,,,,,,,,,,,,,,,,,,,,,,660.5367634994909,None,,,,,,,,,,,,,,,,,device,53,10,sing,old,blue,658.4426707997918,None,658.4426707997918,None,6,1.1529913004487753,658.4426707997918,None,1.1529913004487753,659.6301026996225,None,660.1393554992974,None,660.1393554992974,None,r,0.3570491997525096,660.1393554992974,None,0.3570491997525096,,,108 sing,001,2022_Nov_29_1205,ProdSingRedoBetween,2021.2.3,60.236174050483854,
,,,,10,0,10,0,,,,,,,,,,,,,,,,,,,,,,665.3447469994426,None,,,,,,,,,,,,,,,,,suspect,43,11,sing,old,blue,661.0480064991862,None,661.0480064991862,None,4,3.3123778998851776,661.0480064991862,None,3.3123778998851776,664.3825290994719,None,664.8940349994227,None,664.8940349994227,None,f,0.4220012007281184,664.8940349994227,None,0.4220012007281184,,,108 sing,001,2022_Nov_29_1205,ProdSingRedoBetween,2021.2.3,60.236174050483854,
,,,,11,0,11,0,,,,,,,,,,,,,,,,,,,,,,668.6340065998957,None,,,,,,,,,,,,,,,,,force,26,12,sing,old,yellow,665.8476329995319,None,665.8476329995319,None,1,1.6975747998803854,665.8476329995319,None,1.6975747998803854,667.5663292994723,None,668.082648399286,None,668.082648399286,None,n,0.5327556002885103,668.082648399286,None,0.5327556002885103,,,108 sing,001,2022_Nov_29_1205,ProdSingRedoBetween,2021.2.3,60.236174050483854,
,,,,12,0,12,0,,,,,,,,,,,,,,,,,,,,,,671.9850147999823,None,,,,,,,,,,,,,,,,,count,3,13,sing,old,yellow,669.1503369994462,None,669.1503369994462,None,4,1.9213238004595041,669.1503369994462,None,1.9213238004595041,671.1026045000181,None,671.6178690996021,None,671.6178690996021,None,f,0.33815160021185875,671.6178690996021,None,0.33815160021185875,,,108 sing,001,2022_Nov_29_1205,ProdSingRedoBetween,2021.2.3,60.236174050483854,
,,,,13,0,13,0,,,,,,,,,,,,,,,,,,,,,,674.8722551995888,None,,,,,,,,,,,,,,,,,staff,115,14,sing,new,null,672.507245699875,None,672.507245699875,None,1,1.3693765001371503,672.507245699875,None,1.3693765001371503,673.9082778999582,None,674.4198015993461,None,674.4198015993461,None,n,0.4244901994243264,674.4198015993461,None,0.4244901994243264,,,108 sing,001,2022_Nov_29_1205,ProdSingRedoBetween,2021.2.3,60.236174050483854,
,,,,14,0,14,0,,,,,,,,,,,,,,,,,,,,,,677.4756058994681,None,,,,,,,,,,,,,,,,,appeal,145,15,sing,new,null,675.3812544997782,None,675.3812544997782,None,1,1.1755767995491624,675.3812544997782,None,1.1755767995491624,676.5911288000643,None,677.108808199875,None,677.108808199875,None,n,0.3340600002557039,677.108808199875,None,0.3340600002557039,,,108 sing,001,2022_Nov_29_1205,ProdSingRedoBetween,2021.2.3,60.236174050483854,
,,,,15,0,15,0,,,,,,,,,,,,,,,,,,,,,,680.5613221991807,None,,,,,,,,,,,,,,,,,novel,35,16,sing,old,blue,677.99265609961,None,677.99265609961,None,6,1.4076001001521945,677.99265609961,None,1.4076001001521945,679.427718299441,None,679.9459901992232,None,679.9459901992232,None,r,0.593784200027585,679.9459901992232,None,0.593784200027585,,,108 sing,001,2022_Nov_29_1205,ProdSingRedoBetween,2021.2.3,60.236174050483854,
,,,,16,0,16,0,,,,,,,,,,,,,,,,,,,,,,684.3971810992807,None,,,,,,,,,,,,,,,,,concern,24,17,sing,old,yellow,681.08587089926,None,681.08587089926,None,6,2.406246700324118,681.08587089926,None,2.406246700324118,683.5135490996763,None,684.0133943995461,None,684.0133943995461,None,r,0.35406860057264566,684.0133943995461,None,0.35406860057264566,,,108 sing,001,2022_Nov_29_1205,ProdSingRedoBetween,2021.2.3,60.236174050483854,
,,,,17,0,17,0,,,,,,,,,,,,,,,,,,,,,,687.0195956993848,None,,,,,,,,,,,,,,,,,dispute,51,18,sing,old,blue,684.8993473993614,None,684.8993473993614,None,6,1.2856092005968094,684.8993473993614,None,1.2856092005968094,686.2196964994073,None,686.7339866999537,None,686.7339866999537,None,r,0.25701360031962395,686.7339866999537,None,0.25701360031962395,,,108 sing,001,2022_Nov_29_1205,ProdSingRedoBetween,2021.2.3,60.236174050483854,
,,,,18,0,18,0,,,,,,,,,,,,,,,,,,,,,,692.3058859994635,None,,,,,,,,,,,,,,,,,revolution,45,19,sing,old,blue,687.5464896997437,None,687.5464896997437,None,3,3.875757100060582,687.5464896997437,None,3.875757100060582,691.4557789992541,None,691.975572399795,None,691.975572399795,None,f,0.3034205995500088,691.975572399795,None,0.3034205995500088,,,108 sing,001,2022_Nov_29_1205,ProdSingRedoBetween,2021.2.3,60.236174050483854,
,,,,19,0,19,0,,,,,,,,,,,,,,,,,,,,,,694.7904126998037,None,,,,,,,,,,,,,,,,,beauty,172,20,sing,new,null,692.8226222991943,None,692.8226222991943,None,1,1.1035217996686697,692.8226222991943,None,1.1035217996686697,693.9582616994157,None,694.473799799569,None,694.473799799569,None,n,0.291678000241518,694.473799799569,None,0.291678000241518,,,108 sing,001,2022_Nov_29_1205,ProdSingRedoBetween,2021.2.3,60.236174050483854,
,,,,20,0,20,0,,,,,,,,,,,,,,,,,,,,,,697.2108289999887,None,,,,,,,,,,,,,,,,,patient,10,21,sing,old,yellow,695.2974259993061,None,695.2974259993061,None,6,1.1033872999250889,695.2974259993061,None,1.1033872999250889,696.4290630994365,None,696.9429299999028,None,696.9429299999028,None,r,0.24219559971243143,696.9429299999028,None,0.24219559971243143,,,108 sing,001,2022_Nov_29_1205,ProdSingRedoBetween,2021.2.3,60.236174050483854,
,,,,21,0,21,0,,,,,,,,,,,,,,,,,,,,,,699.7629030998796,None,,,,,,,,,,,,,,,,,bucket,176,22,sing,new,null,697.7179610999301,None,697.7179610999301,None,1,1.161667799577117,697.7179610999301,None,1.161667799577117,698.9131859997287,None,699.4285498997197,None,699.4285498997197,None,n,0.3096928000450134,699.4285498997197,None,0.3096928000450134,,,108 sing,001,2022_Nov_29_1205,ProdSingRedoBetween,2021.2.3,60.236174050483854,
,,,,22,0,22,0,,,,,,,,,,,,,,,,,,,,,,703.9003218999133,None,,,,,,,,,,,,,,,,,scene,131,23,sing,new,null,700.26501119975,None,700.26501119975,None,3,2.440097000449896,700.26501119975,None,2.440097000449896,702.7337114997208,None,703.2484988998622,None,703.2484988998622,None,f,0.6220172997564077,703.2484988998622,None,0.6220172997564077,,,108 sing,001,2022_Nov_29_1205,ProdSingRedoBetween,2021.2.3,60.236174050483854,
,,,,23,0,23,0,,,,,,,,,,,,,,,,,,,,,,706.6521018994972,None,,,,,,,,,,,,,,,,,crowd,22,24,sing,old,yellow,704.4028457999229,None,704.4028457999229,None,6,1.4482348002493382,704.4028457999229,None,1.4482348002493382,705.8722845995799,None,706.3858475992456,None,706.3858475992456,None,r,0.24760290049016476,706.3858475992456,None,0.24760290049016476,,,108 sing,001,2022_Nov_29_1205,ProdSingRedoBetween,2021.2.3,60.236174050483854,
,,,,24,0,24,0,,,,,,,,,,,,,,,,,,,,,,709.2425623992458,None,,,,,,,,,,,,,,,,,research,58,25,sing,old,blue,707.1554657993838,None,707.1554657993838,None,6,1.3643793007358909,707.1554657993838,None,1.3643793007358909,708.5404091998935,None,709.0686981994659,None,709.0686981994659,None,r,0.14813659992069006,709.0686981994659,None,0.14813659992069006,,,108 sing,001,2022_Nov_29_1205,ProdSingRedoBetween,2021.2.3,60.236174050483854,
,,,,25,0,25,0,,,,,,,,,,,,,,,,,,,,,,712.9282582998276,None,,,,,,,,,,,,,,,,,corner,59,26,sing,old,yellow,709.757755799219,None,709.757755799219,None,4,2.0295281996950507,709.757755799219,None,2.0295281996950507,711.8134244997054,None,712.3261191993952,None,712.3261191993952,None,f,0.5783956004306674,712.3261191993952,None,0.5783956004306674,,,108 sing,001,2022_Nov_29_1205,ProdSingRedoBetween,2021.2.3,60.236174050483854,
,,,,26,0,26,0,,,,,,,,,,,,,,,,,,,,,,716.1632559997961,None,,,,,,,,,,,,,,,,,bitter,82,27,sing,old,red,713.4472680995241,None,713.4472680995241,None,4,1.9158882992342114,713.4472680995241,None,1.9158882992342114,715.4000701997429,None,715.9111766992137,None,715.9111766992137,None,f,0.23225679993629456,715.9111766992137,None,0.23225679993629456,,,108 sing,001,2022_Nov_29_1205,ProdSingRedoBetween,2021.2.3,60.236174050483854,
,,,,27,0,27,0,,,,,,,,,,,,,,,,,,,,,,718.7657339992002,None,,,,,,,,,,,,,,,,,swift,128,28,sing,new,null,716.6806596992537,None,716.6806596992537,None,1,1.2645861003547907,716.6806596992537,None,1.2645861003547907,717.9649326996878,None,718.4805982997641,None,718.4805982997641,None,n,0.26126130018383265,718.4805982997641,None,0.26126130018383265,,,108 sing,001,2022_Nov_29_1205,ProdSingRedoBetween,2021.2.3,60.236174050483854,
,,,,28,0,28,0,,,,,,,,,,,,,,,,,,,,,,721.5309523995966,None,,,,,,,,,,,,,,,,,accident,76,29,sing,old,red,719.2762905992568,None,719.2762905992568,None,6,1.3737369002774358,719.2762905992568,None,1.3737369002774358,720.6721059996635,None,721.1840748991817,None,721.1840748991817,None,r,0.3100906005129218,721.1840748991817,None,0.3100906005129218,,,108 sing,001,2022_Nov_29_1205,ProdSingRedoBetween,2021.2.3,60.236174050483854,
,,,,29,0,29,0,,,,,,,,,,,,,,,,,,,,,,724.7534906994551,None,,,,,,,,,,,,,,,,,drama,16,30,sing,old,yellow,722.0348441991955,None,722.0348441991955,None,3,1.9568231999874115,722.0348441991955,None,1.9568231999874115,724.0213683992624,None,724.5417423993349,None,724.5417423993349,None,f,0.18339180015027523,724.5417423993349,None,0.18339180015027523,,,108 sing,001,2022_Nov_29_1205,ProdSingRedoBetween,2021.2.3,60.236174050483854,
,,,,30,0,30,0,,,,,,,,,,,,,,,,,,,,,,727.3255041996017,None,,,,,,,,,,,,,,,,,executive,28,31,sing,old,yellow,725.2592508997768,None,725.2592508997768,None,6,1.1132995001971722,725.2592508997768,None,1.1132995001971722,726.3945927992463,None,726.9083229992539,None,726.9083229992539,None,r,0.39426920004189014,726.9083229992539,None,0.39426920004189014,,,108 sing,001,2022_Nov_29_1205,ProdSingRedoBetween,2021.2.3,60.236174050483854,
,,,,31,0,31,0,,,,,,,,,,,,,,,,,,,,,,730.2093809992075,None,,,,,,,,,,,,,,,,,error,9,32,sing,old,yellow,727.8416993999854,None,727.8416993999854,None,3,1.3464053003117442,727.8416993999854,None,1.3464053003117442,729.2104766992852,None,729.7255496997386,None,729.7255496997386,None,f,0.4585667001083493,729.7255496997386,None,0.4585667001083493,,,108 sing,001,2022_Nov_29_1205,ProdSingRedoBetween,2021.2.3,60.236174050483854,
,,,,32,0,32,0,,,,,,,,,,,,,,,,,,,,,,732.6614037994295,None,,,,,,,,,,,,,,,,,pretty,123,33,sing,new,null,730.7181485993788,None,730.7181485993788,None,1,1.1800687992945313,730.7181485993788,None,1.1800687992945313,731.9294500993565,None,732.4444001000375,None,732.4444001000375,None,n,0.2000746000558138,732.4444001000375,None,0.2000746000558138,,,108 sing,001,2022_Nov_29_1205,ProdSingRedoBetween,2021.2.3,60.236174050483854,
,,,,33,0,33,0,,,,,,,,,,,,,,,,,,,,,,735.2313124993816,None,,,,,,,,,,,,,,,,,surprise,97,34,sing,new,null,733.1643113000318,None,733.1643113000318,None,1,1.2337062004953623,733.1643113000318,None,1.2337062004953623,734.4332208000124,None,734.9474235000089,None,734.9474235000089,None,n,0.2567186998203397,734.9474235000089,None,0.2567186998203397,,,108 sing,001,2022_Nov_29_1205,ProdSingRedoBetween,2021.2.3,60.236174050483854,
,,,,34,0,34,0,,,,,,,,,,,,,,,,,,,,,,737.484990099445,None,,,,,,,,,,,,,,,,,republic,44,35,sing,old,blue,735.7336655994877,None,735.7336655994877,None,6,1.1059309002012014,735.7336655994877,None,1.1059309002012014,736.8680173996836,None,737.3834493998438,None,737.3834493998438,None,r,0.07582969963550568,737.3834493998438,None,0.07582969963550568,,,108 sing,001,2022_Nov_29_1205,ProdSingRedoBetween,2021.2.3,60.236174050483854,
,,,,35,0,35,0,,,,,,,,,,,,,,,,,,,,,,739.9367400994524,None,,,,,,,,,,,,,,,,,territory,137,36,sing,new,null,738.0092655997723,None,738.0092655997723,None,1,1.1832769997417927,738.0092655997723,None,1.1832769997417927,739.219836499542,None,739.7391455993056,None,739.7391455993056,None,n,0.1668497994542122,739.7391455993056,None,0.1668497994542122,,,108 sing,001,2022_Nov_29_1205,ProdSingRedoBetween,2021.2.3,60.236174050483854,
,,,,36,0,36,0,,,,,,,,,,,,,,,,,,,,,,742.8560181995854,None,,,,,,,,,,,,,,,,,trail,168,37,sing,new,null,740.4546121992171,None,740.4546121992171,None,4,1.6022999994456768,740.4546121992171,None,1.6022999994456768,742.0889790998772,None,742.6070650992915,None,742.6070650992915,None,f,0.22652920056134462,742.6070650992915,None,0.22652920056134462,,,108 sing,001,2022_Nov_29_1205,ProdSingRedoBetween,2021.2.3,60.236174050483854,
,,,,37,0,37,0,,,,,,,,,,,,,,,,,,,,,,745.4930660994723,None,,,,,,,,,,,,,,,,,quantity,101,38,sing,new,null,743.3615381000564,None,743.3615381000564,None,1,1.4028803994879127,743.3615381000564,None,1.4028803994879127,744.7937485994771,None,745.3089682999998,None,745.3089682999998,None,n,0.16197230014950037,745.3089682999998,None,0.16197230014950037,,,108 sing,001,2022_Nov_29_1205,ProdSingRedoBetween,2021.2.3,60.236174050483854,
,,,,38,0,38,0,,,,,,,,,,,,,,,,,,,,,,748.8287249999121,None,,,,,,,,,,,,,,,,,guest,30,39,sing,old,blue,746.0221660993993,None,746.0221660993993,None,1,2.1310580000281334,746.0221660993993,None,2.1310580000281334,748.2002306999639,None,748.7144074998796,None,748.7144074998796,None,n,0.09338840004056692,748.7144074998796,None,0.09338840004056692,,,108 sing,001,2022_Nov_29_1205,ProdSingRedoBetween,2021.2.3,60.236174050483854,
,,,,39,0,39,0,,,,,,,,,,,,,,,,,,,,,,751.1820371998474,None,,,,,,,,,,,,,,,,,alert,105,40,sing,new,null,749.3357120994478,None,749.3357120994478,None,1,1.2246703999117017,749.3357120994478,None,1.2246703999117017,750.5835353992879,None,751.0984231000766,None,751.0984231000766,None,n,0.06348839960992336,751.0984231000766,None,0.06348839960992336,,,108 sing,001,2022_Nov_29_1205,ProdSingRedoBetween,2021.2.3,60.236174050483854,
,,,,40,0,40,0,,,,,,,,,,,,,,,,,,,,,,753.457049000077,None,,,,,,,,,,,,,,,,,hunger,2,41,sing,old,yellow,751.6991268992424,None,751.6991268992424,None,6,1.125030199997127,751.6991268992424,None,1.125030199997127,752.8569807996973,None,753.3718829993159,None,753.3718829993159,None,r,0.05794130079448223,753.3718829993159,None,0.05794130079448223,,,108 sing,001,2022_Nov_29_1205,ProdSingRedoBetween,2021.2.3,60.236174050483854,
,,,,41,0,41,0,,,,,,,,,,,,,,,,,,,,,,755.7183697000146,None,,,,,,,,,,,,,,,,,season,31,42,sing,old,blue,753.9708968997002,None,753.9708968997002,None,6,1.0877176001667976,753.9708968997002,None,1.0877176001667976,755.086968999356,None,755.6014216998592,None,755.6014216998592,None,r,0.0915965000167489,755.6014216998592,None,0.0915965000167489,,,108 sing,001,2022_Nov_29_1205,ProdSingRedoBetween,2021.2.3,60.236174050483854,
,,,,42,0,42,0,,,,,,,,,,,,,,,,,,,,,,758.2049233000726,None,,,,,,,,,,,,,,,,,worker,96,43,sing,new,null,756.2319014994428,None,756.2319014994428,None,1,1.3189606992527843,756.2319014994428,None,1.3189606992527843,757.5726201999933,None,758.0900522992015,None,758.0900522992015,None,n,0.0968912998214364,758.0900522992015,None,0.0968912998214364,,,108 sing,001,2022_Nov_29_1205,ProdSingRedoBetween,2021.2.3,60.236174050483854,
,,,,43,0,43,0,,,,,,,,,,,,,,,,,,,,,,760.6995223993436,None,,,,,,,,,,,,,,,,,century,136,44,sing,new,null,758.7082300996408,None,758.7082300996408,None,1,1.2305113999173045,758.7082300996408,None,1.2305113999173045,759.9578511994332,None,760.4740780992433,None,760.4740780992433,None,n,0.18309850059449673,760.4740780992433,None,0.18309850059449673,,,108 sing,001,2022_Nov_29_1205,ProdSingRedoBetween,2021.2.3,60.236174050483854,
,,,,44,0,44,0,,,,,,,,,,,,,,,,,,,,,,762.7927121995017,None,,,,,,,,,,,,,,,,,power,146,45,sing,new,null,761.2112338999286,None,761.2112338999286,None,1,0.9917862005531788,761.2112338999286,None,0.9917862005531788,762.2283642999828,None,762.7420831993222,None,762.7420831993222,None,n,0.02108799945563078,762.7420831993222,None,0.02108799945563078,,,108 sing,001,2022_Nov_29_1205,ProdSingRedoBetween,2021.2.3,60.236174050483854,
,,,,45,0,45,0,,,,,,,,,,,,,,,,,,,,,,766.1453771991655,None,,,,,,,,,,,,,,,,,junior,27,46,sing,old,yellow,763.2951227994636,None,763.2951227994636,None,3,2.2746577002108097,763.2951227994636,None,2.2746577002108097,765.6033431999385,None,766.1119703995064,None,766.1119703995064,None,f,0.006707599386572838,766.1119703995064,None,0.006707599386572838,,,108 sing,001,2022_Nov_29_1205,ProdSingRedoBetween,2021.2.3,60.236174050483854,
,,,,46,0,46,0,,,,,,,,,,,,,,,,,,,,,,769.3996955994517,None,,,,,,,,,,,,,,,,,space,36,47,sing,old,blue,766.6471090996638,None,766.6471090996638,None,3,2.1754814004525542,766.6471090996638,None,2.1754814004525542,768.8489728998393,None,769.3648691000417,None,769.3648691000417,None,f,0.005340199917554855,769.3648691000417,None,0.005340199917554855,,,108 sing,001,2022_Nov_29_1205,ProdSingRedoBetween,2021.2.3,60.236174050483854,
,,,,47,0,47,0,,,,,,,,,,,,,,,,,,,,,,773.2865359000862,None,,,,,,,,,,,,,,,,,military,40,48,sing,old,blue,769.9294186998159,None,769.9294186998159,None,6,1.385683000087738,769.9294186998159,None,1.385683000087738,771.3445116998628,None,771.8515056995675,None,771.8515056995675,None,r,1.404780600219965,771.8515056995675,None,1.404780600219965,,,108 sing,001,2022_Nov_29_1205,ProdSingRedoBetween,2021.2.3,60.236174050483854,
,,,,48,0,48,0,,,,,,,,,,,,,,,,,,,,,,776.2070840997621,None,,,,,,,,,,,,,,,,,background,34,49,sing,old,blue,773.7885790998116,None,773.7885790998116,None,4,1.7630607997998595,773.7885790998116,None,1.7630607997998595,775.5730970995501,None,776.0905976993963,None,776.0905976993963,None,f,0.08729399926960468,776.0905976993963,None,0.08729399926960468,,,108 sing,001,2022_Nov_29_1205,ProdSingRedoBetween,2021.2.3,60.236174050483854,
,,,,49,0,49,0,,,,,,,,,,,,,,,,,,,,,,778.8594747995958,None,,,,,,,,,,,,,,,,,mechanical,161,50,sing,new,null,776.723612899892,None,776.723612899892,None,3,1.4226965997368097,776.723612899892,None,1.4226965997368097,778.1749296998605,None,778.675860799849,None,778.675860799849,None,f,0.162211200222373,778.675860799849,None,0.162211200222373,,,108 sing,001,2022_Nov_29_1205,ProdSingRedoBetween,2021.2.3,60.236174050483854,
,,,,50,0,50,0,,,,,,,,,,,,,,,,,,,,,,783.3309188997373,None,,,,,,,,,,,,,,,,,scale,14,51,sing,old,yellow,779.3752231998369,None,779.3752231998369,None,4,3.3150284998118877,779.3752231998369,None,3.3150284998118877,782.7165241995826,None,783.231234099716,None,783.231234099716,None,f,0.06948640011250973,783.231234099716,None,0.06948640011250973,,,108 sing,001,2022_Nov_29_1205,ProdSingRedoBetween,2021.2.3,60.236174050483854,
,,,,51,0,51,0,,,,,,,,,,,,,,,,,,,,,,786.2327052997425,None,,,,,,,,,,,,,,,,,waste,25,52,sing,old,yellow,783.8508838992566,None,783.8508838992566,None,6,1.5820081001147628,783.8508838992566,None,1.5820081001147628,785.4662775993347,None,785.9810769995674,None,785.9810769995674,None,r,0.2282277001067996,785.9810769995674,None,0.2282277001067996,,,108 sing,001,2022_Nov_29_1205,ProdSingRedoBetween,2021.2.3,60.236174050483854,
,,,,52,0,52,0,,,,,,,,,,,,,,,,,,,,,,789.6857765996829,None,,,,,,,,,,,,,,,,,judge,11,53,sing,old,yellow,786.7352641997859,None,786.7352641997859,None,5,2.0092228995636106,786.7352641997859,None,2.0092228995636106,788.7746639000252,None,789.2845863997936,None,789.2845863997936,None,f,0.3774907998740673,789.2845863997936,None,0.3774907998740673,,,108 sing,001,2022_Nov_29_1205,ProdSingRedoBetween,2021.2.3,60.236174050483854,
,,,,53,0,53,0,,,,,,,,,,,,,,,,,,,,,,793.0388388000429,None,,,,,,,,,,,,,,,,,skill,144,54,sing,new,null,790.2068952992558,None,790.2068952992558,None,2,1.3607113994657993,790.2068952992558,None,1.3607113994657993,791.5965156992897,None,792.1088096993044,None,792.1088096993044,None,f,0.9129608999937773,792.1088096993044,None,0.9129608999937773,,,108 sing,001,2022_Nov_29_1205,ProdSingRedoBetween,2021.2.3,60.236174050483854,
,,,,54,0,54,0,,,,,,,,,,,,,,,,,,,,,,796.7398973992094,None,,,,,,,,,,,,,,,,,murder,177,55,sing,new,null,793.5461740996689,None,793.5461740996689,None,1,1.5829132003709674,793.5461740996689,None,1.5829132003709674,795.160847899504,None,795.6741575999185,None,795.6741575999185,None,n,1.0274176001548767,795.6741575999185,None,1.0274176001548767,,,108 sing,001,2022_Nov_29_1205,ProdSingRedoBetween,2021.2.3,60.236174050483854,
,,,,55,0,55,0,,,,,,,,,,,,,,,,,,,,,,799.4122378993779,None,,,,,,,,,,,,,,,,,symbol,42,56,sing,old,blue,797.2489104000852,None,797.2489104000852,None,6,1.1314909998327494,797.2489104000852,None,1.1314909998327494,798.4134825998917,None,798.9280941998586,None,798.9280941998586,None,r,0.45966839976608753,798.9280941998586,None,0.45966839976608753,,,108 sing,001,2022_Nov_29_1205,ProdSingRedoBetween,2021.2.3,60.236174050483854,
,,,,56,0,56,0,,,,,,,,,,,,,,,,,,,,,,802.8159654000774,None,,,,,,,,,,,,,,,,,poetry,56,57,sing,old,blue,799.914236699231,None,799.914236699231,None,6,2.102232299745083,799.914236699231,None,2.102232299745083,802.0501740993932,None,802.5648888992146,None,802.5648888992146,None,r,0.22344439942389727,802.5648888992146,None,0.22344439942389727,,,108 sing,001,2022_Nov_29_1205,ProdSingRedoBetween,2021.2.3,60.236174050483854,
,,,,57,0,57,0,,,,,,,,,,,,,,,,,,,,,,806.9704863997176,None,,,,,,,,,,,,,,,,,member,84,58,sing,old,red,803.3337239995599,None,803.3337239995599,None,5,2.850915400311351,803.3337239995599,None,2.850915400311351,806.2057440998033,None,806.7214826000854,None,806.7214826000854,None,f,0.22464349959045649,806.7214826000854,None,0.22464349959045649,,,108 sing,001,2022_Nov_29_1205,ProdSingRedoBetween,2021.2.3,60.236174050483854,
,,,,58,0,58,0,,,,,,,,,,,,,,,,,,,,,,810.0255991993472,None,,,,,,,,,,,,,,,,,debate,78,59,sing,old,red,807.4880937999114,None,807.4880937999114,None,6,1.8109988998621702,807.4880937999114,None,1.8109988998621702,809.3316826997325,None,809.8424613000825,None,809.8424613000825,None,r,0.1559793995693326,809.8424613000825,None,0.1559793995693326,,,108 sing,001,2022_Nov_29_1205,ProdSingRedoBetween,2021.2.3,60.236174050483854,
,,,,59,0,59,0,,,,,,,,,,,,,,,,,,,,,,812.4885555999354,None,,,,,,,,,,,,,,,,,figure,116,60,sing,new,null,810.5531182996929,None,810.5531182996929,None,1,1.2489891005679965,810.5531182996929,None,1.2489891005679965,811.8277819994837,None,812.3421027995646,None,812.3421027995646,None,n,0.1046031005680561,812.3421027995646,None,0.1046031005680561,,,108 sing,001,2022_Nov_29_1205,ProdSingRedoBetween,2021.2.3,60.236174050483854,
,,,,60,0,60,0,,,,,,,,,,,,,,,,,,,,,,815.2579989992082,None,,,,,,,,,,,,,,,,,state,121,61,sing,new,null,812.9936762992293,None,812.9936762992293,None,2,1.4655788000673056,812.9936762992293,None,1.4655788000673056,814.4887047000229,None,814.9961239993572,None,814.9961239993572,None,f,0.2219532998278737,814.9961239993572,None,0.2219532998278737,,,108 sing,001,2022_Nov_29_1205,ProdSingRedoBetween,2021.2.3,60.236174050483854,
,,,,61,0,61,0,,,,,,,,,,,,,,,,,,,,,,818.1300265993923,None,,,,,,,,,,,,,,,,,thick,133,62,sing,new,null,815.7673474997282,None,815.7673474997282,None,1,1.789954399690032,815.7673474997282,None,1.789954399690032,817.591391899623,None,818.0963179999962,None,818.0963179999962,None,n,0.012935600243508816,818.0963179999962,None,0.012935600243508816,,,108 sing,001,2022_Nov_29_1205,ProdSingRedoBetween,2021.2.3,60.236174050483854,
,,,,62,0,62,0,,,,,,,,,,,,,,,,,,,,,,820.4659123998135,None,,,,,,,,,,,,,,,,,contract,107,63,sing,new,null,818.6322088995948,None,818.6322088995948,None,1,1.2664889004081488,818.6322088995948,None,1.2664889004081488,819.9165739994496,None,820.4203776000068,None,820.4203776000068,None,n,0.00955590046942234,820.4203776000068,None,0.00955590046942234,,,108 sing,001,2022_Nov_29_1205,ProdSingRedoBetween,2021.2.3,60.236174050483854,
,,,,63,0,63,0,,,,,,,,,,,,,,,,,,,,,,822.9701675996184,None,,,,,,,,,,,,,,,,,quick,32,64,sing,old,blue,820.968575200066,None,820.968575200066,None,3,1.2256572004407644,820.968575200066,None,1.2256572004407644,822.2188438000157,None,822.7275811992586,None,822.7275811992586,None,f,0.20940459985285997,822.7275811992586,None,0.20940459985285997,,,108 sing,001,2022_Nov_29_1205,ProdSingRedoBetween,2021.2.3,60.236174050483854,
,,,,64,0,64,0,,,,,,,,,,,,,,,,,,,,,,826.2391675999388,None,,,,,,,,,,,,,,,,,measure,85,65,sing,old,red,823.499448299408,None,823.499448299408,None,4,2.034002499654889,823.499448299408,None,2.034002499654889,825.5753000993282,None,826.0924942996353,None,826.0924942996353,None,f,0.12263410072773695,826.0924942996353,None,0.12263410072773695,,,108 sing,001,2022_Nov_29_1205,ProdSingRedoBetween,2021.2.3,60.236174050483854,
,,,,65,0,65,0,,,,,,,,,,,,,,,,,,,,,,829.5755483992398,None,,,,,,,,,,,,,,,,,reach,117,66,sing,new,null,826.740616299212,None,826.740616299212,None,1,1.4887956995517015,826.740616299212,None,1.4887956995517015,828.2647979995236,None,828.7736618993804,None,828.7736618993804,None,n,0.7771512996405363,828.7736618993804,None,0.7771512996405363,,,108 sing,001,2022_Nov_29_1205,ProdSingRedoBetween,2021.2.3,60.236174050483854,
,,,,66,0,66,0,,,,,,,,,,,,,,,,,,,,,,831.9116052994505,None,,,,,,,,,,,,,,,,,entrance,147,67,sing,new,null,830.0778527995571,None,830.0778527995571,None,1,0.9920830996707082,830.0778527995571,None,0.9920830996707082,831.0945971999317,None,831.610190499574,None,831.610190499574,None,n,0.28424479998648167,831.610190499574,None,0.28424479998648167,,,108 sing,001,2022_Nov_29_1205,ProdSingRedoBetween,2021.2.3,60.236174050483854,
,,,,67,0,67,0,,,,,,,,,,,,,,,,,,,,,,835.0169400991872,None,,,,,,,,,,,,,,,,,trash,71,68,sing,old,red,832.420211199671,None,832.420211199671,None,4,1.9953660992905498,832.420211199671,None,1.9953660992905498,834.4477279996499,None,834.9494042992592,None,834.9494042992592,None,f,0.03931520041078329,834.9494042992592,None,0.03931520041078329,,,108 sing,001,2022_Nov_29_1205,ProdSingRedoBetween,2021.2.3,60.236174050483854,
,,,,68,0,68,0,,,,,,,,,,,,,,,,,,,,,,837.9843096993864,None,,,,,,,,,,,,,,,,,council,81,69,sing,old,red,835.5326729994267,None,835.5326729994267,None,4,1.6549875997006893,835.5326729994267,None,1.6549875997006893,837.2173907998949,None,837.7339454991743,None,837.7339454991743,None,f,0.23220620024949312,837.7339454991743,None,0.23220620024949312,,,108 sing,001,2022_Nov_29_1205,ProdSingRedoBetween,2021.2.3,60.236174050483854,
,,,,69,0,69,0,,,,,,,,,,,,,,,,,,,,,,842.2240841994062,None,,,,,,,,,,,,,,,,,produce,150,70,sing,new,null,838.4909876994789,None,838.4909876994789,None,2,2.862914999946952,838.4909876994789,None,2.862914999946952,841.3768291994929,None,841.9009956996888,None,841.9009956996888,None,f,0.29519409965723753,841.9009956996888,None,0.29519409965723753,,,108 sing,001,2022_Nov_29_1205,ProdSingRedoBetween,2021.2.3,60.236174050483854,
,,,,70,0,70,0,,,,,,,,,,,,,,,,,,,,,,845.6595156993717,None,,,,,,,,,,,,,,,,,religion,33,71,sing,old,blue,842.7496077995747,None,842.7496077995747,None,1,1.9481095997616649,842.7496077995747,None,1.9481095997616649,844.7299357000738,None,845.2403836995363,None,845.2403836995363,None,n,0.3979863002896309,845.2403836995363,None,0.3979863002896309,,,108 sing,001,2022_Nov_29_1205,ProdSingRedoBetween,2021.2.3,60.236174050483854,
,,,,71,0,71,0,,,,,,,,,,,,,,,,,,,,,,848.1976320995018,None,,,,,,,,,,,,,,,,,dream,134,72,sing,new,null,846.1761809000745,None,846.1761809000745,None,1,1.3191056996583939,846.1761809000745,None,1.3191056996583939,847.5320964995772,None,848.0433861995116,None,848.0433861995116,None,n,0.12763249967247248,848.0433861995116,None,0.12763249967247248,,,108 sing,001,2022_Nov_29_1205,ProdSingRedoBetween,2021.2.3,60.236174050483854,
,,,,72,0,72,0,,,,,,,,,,,,,,,,,,,,,,852.5996891995892,None,,,,,,,,,,,,,,,,,express,178,73,sing,new,null,848.7145836995915,None,848.7145836995915,None,1,3.2999046994373202,848.7145836995915,None,3.2999046994373202,852.0332944998518,None,852.547984899953,None,852.547984899953,None,n,0.032335699535906315,852.547984899953,None,0.032335699535906315,,,108 sing,001,2022_Nov_29_1205,ProdSingRedoBetween,2021.2.3,60.236174050483854,
,,,,73,0,73,0,,,,,,,,,,,,,,,,,,,,,,855.3183206999674,None,,,,,,,,,,,,,,,,,center,129,74,sing,new,null,853.1168438000605,None,853.1168438000605,None,1,1.184039500541985,853.1168438000605,None,1.184039500541985,854.3225478995591,None,854.8347348999232,None,854.8347348999232,None,n,0.4543679002672434,854.8347348999232,None,0.4543679002672434,,,108 sing,001,2022_Nov_29_1205,ProdSingRedoBetween,2021.2.3,60.236174050483854,
,,,,74,0,74,0,,,,,,,,,,,,,,,,,,,,,,858.155922299251,None,,,,,,,,,,,,,,,,,broke,7,75,sing,old,yellow,855.8366860998794,None,855.8366860998794,None,4,1.6364225000143051,855.8366860998794,None,1.6364225000143051,857.5048901997507,None,858.0200193999335,None,858.0200193999335,None,f,0.1057711998000741,858.0200193999335,None,0.1057711998000741,,,108 sing,001,2022_Nov_29_1205,ProdSingRedoBetween,2021.2.3,60.236174050483854,
,,,,75,0,75,0,,,,,,,,,,,,,,,,,,,,,,861.3598480997607,None,,,,,,,,,,,,,,,,,commercial,19,76,sing,old,yellow,858.6846578996629,None,858.6846578996629,None,6,1.9371738005429506,858.6846578996629,None,1.9371738005429506,860.6405108999461,None,861.1429139999673,None,861.1429139999673,None,r,0.1908440999686718,861.1429139999673,None,0.1908440999686718,,,108 sing,001,2022_Nov_29_1205,ProdSingRedoBetween,2021.2.3,60.236174050483854,
,,,,76,0,76,0,,,,,,,,,,,,,,,,,,,,,,863.5766273997724,None,,,,,,,,,,,,,,,,,afternoon,149,77,sing,new,null,861.8754405993968,None,861.8754405993968,None,1,1.1094692992046475,861.8754405993968,None,1.1094692992046475,863.0107817994431,None,863.535066999495,None,863.535066999495,None,n,0.020533899776637554,863.535066999495,None,0.020533899776637554,,,108 sing,001,2022_Nov_29_1205,ProdSingRedoBetween,2021.2.3,60.236174050483854,
,,,,77,0,77,0,,,,,,,,,,,,,,,,,,,,,,867.0141243999824,None,,,,,,,,,,,,,,,,,court,29,78,sing,old,blue,864.0850709993392,None,864.0850709993392,None,1,2.011108899489045,864.0850709993392,None,2.011108899489045,866.130546699278,None,866.649592699483,None,866.649592699483,None,n,0.3309546001255512,866.649592699483,None,0.3309546001255512,,,108 sing,001,2022_Nov_29_1205,ProdSingRedoBetween,2021.2.3,60.236174050483854,
,,,,78,0,78,0,,,,,,,,,,,,,,,,,,,,,,870.195804500021,None,,,,,,,,,,,,,,,,,primary,61,79,sing,old,red,867.5411275997758,None,867.5411275997758,None,4,1.8690867004916072,867.5411275997758,None,1.8690867004916072,869.4393723998219,None,869.9580087000504,None,869.9580087000504,None,f,0.2027564998716116,869.9580087000504,None,0.2027564998716116,,,108 sing,001,2022_Nov_29_1205,ProdSingRedoBetween,2021.2.3,60.236174050483854,
,,,,79,0,79,0,,,,,,,,,,,,,,,,,,,,,,873.4825470997021,None,,,,,,,,,,,,,,,,,nature,74,80,sing,old,red,870.7015978991985,None,870.7015978991985,None,6,2.0179278003051877,870.7015978991985,None,2.0179278003051877,872.7360435994342,None,873.2521279994398,None,873.2521279994398,None,r,0.19157900009304285,873.2521279994398,None,0.19157900009304285,,,108 sing,001,2022_Nov_29_1205,ProdSingRedoBetween,2021.2.3,60.236174050483854,
,,,,80,0,80,0,,,,,,,,,,,,,,,,,,,,,,876.0554348994046,None,,,,,,,,,,,,,,,,,search,17,81,sing,old,yellow,873.9876336995512,None,873.9876336995512,None,3,1.3092932002618909,873.9876336995512,None,1.3092932002618909,875.3247392997146,None,875.8385334992781,None,875.8385334992781,None,f,0.1963611003011465,875.8385334992781,None,0.1963611003011465,,,108 sing,001,2022_Nov_29_1205,ProdSingRedoBetween,2021.2.3,60.236174050483854,
,,,,81,0,81,0,,,,,,,,,,,,,,,,,,,,,,878.382885299623,None,,,,,,,,,,,,,,,,,management,118,82,sing,new,null,876.5673343995586,None,876.5673343995586,None,1,1.1394128995016217,876.5673343995586,None,1.1394128995016217,877.7472317991778,None,878.2603743998334,None,878.2603743998334,None,n,0.0974762998521328,878.2603743998334,None,0.0974762998521328,,,108 sing,001,2022_Nov_29_1205,ProdSingRedoBetween,2021.2.3,60.236174050483854,
,,,,82,0,82,0,,,,,,,,,,,,,,,,,,,,,,881.4779902994633,None,,,,,,,,,,,,,,,,,pattern,57,83,sing,old,blue,878.8960826992989,None,878.8960826992989,None,4,1.8191427998244762,878.8960826992989,None,1.8191427998244762,880.7582339998335,None,881.2609138991684,None,881.2609138991684,None,f,0.19653019960969687,881.2609138991684,None,0.19653019960969687,,,108 sing,001,2022_Nov_29_1205,ProdSingRedoBetween,2021.2.3,60.236174050483854,
,,,,83,0,83,0,,,,,,,,,,,,,,,,,,,,,,885.0148131996393,None,,,,,,,,,,,,,,,,,guard,6,84,sing,old,yellow,881.9956719996408,None,881.9956719996408,None,2,2.2641053991392255,881.9956719996408,None,2.2641053991392255,884.2807868998498,None,884.7967131994665,None,884.7967131994665,None,f,0.1887042000889778,884.7967131994665,None,0.1887042000889778,,,108 sing,001,2022_Nov_29_1205,ProdSingRedoBetween,2021.2.3,60.236174050483854,
,,,,84,0,84,0,,,,,,,,,,,,,,,,,,,,,,887.868905399926,None,,,,,,,,,,,,,,,,,trend,37,85,sing,old,blue,885.5219097994268,None,885.5219097994268,None,1,1.0438015004619956,885.5219097994268,None,1.0438015004619956,886.5848544994369,None,887.1027790997177,None,887.1027790997177,None,n,0.7445676000788808,887.1027790997177,None,0.7445676000788808,,,108 sing,001,2022_Nov_29_1205,ProdSingRedoBetween,2021.2.3,60.236174050483854,
,,,,85,0,85,0,,,,,,,,,,,,,,,,,,,,,,890.302916799672,None,,,,,,,,,,,,,,,,,drove,143,86,sing,new,null,888.3854435998946,None,888.3854435998946,None,1,1.0735464002937078,888.3854435998946,None,1.0735464002937078,889.4875406995416,None,890.0016994997859,None,890.0016994997859,None,n,0.2783096004277468,890.0016994997859,None,0.2783096004277468,,,108 sing,001,2022_Nov_29_1205,ProdSingRedoBetween,2021.2.3,60.236174050483854,
,,,,86,0,86,0,,,,,,,,,,,,,,,,,,,,,,894.2076663998887,None,,,,,,,,,,,,,,,,,listen,54,87,sing,old,blue,890.8060127999634,None,890.8060127999634,None,2,1.967751500196755,890.8060127999634,None,1.967751500196755,892.8067253995687,None,893.3224201994017,None,893.3224201994017,None,f,0.8677842002362013,893.3224201994017,None,0.8677842002362013,,,108 sing,001,2022_Nov_29_1205,ProdSingRedoBetween,2021.2.3,60.236174050483854,
,,,,87,0,87,0,,,,,,,,,,,,,,,,,,,,,,897.3229911997914,None,,,,,,,,,,,,,,,,,income,66,88,sing,old,red,894.7249333998188,None,894.7249333998188,None,1,1.846518199890852,894.7249333998188,None,1.846518199890852,896.5929105998948,None,897.0925917997956,None,897.0925917997956,None,n,0.19171650055795908,897.0925917997956,None,0.19171650055795908,,,108 sing,001,2022_Nov_29_1205,ProdSingRedoBetween,2021.2.3,60.236174050483854,
,,,,88,0,88,0,,,,,,,,,,,,,,,,,,,,,,899.9294334994629,None,,,,,,,,,,,,,,,,,style,86,89,sing,old,red,897.8281039996073,None,897.8281039996073,None,6,1.367170799523592,897.8281039996073,None,1.367170799523592,899.2205570992082,None,899.7282708995044,None,899.7282708995044,None,r,0.17822200059890747,899.7282708995044,None,0.17822200059890747,,,108 sing,001,2022_Nov_29_1205,ProdSingRedoBetween,2021.2.3,60.236174050483854,
,,,,89,0,89,0,,,,,,,,,,,,,,,,,,,,,,903.5261277994141,None,,,,,,,,,,,,,,,,,captain,171,90,sing,new,null,900.4347947994247,None,900.4347947994247,None,1,2.410209900699556,900.4347947994247,None,2.410209900699556,902.8670822996646,None,903.3946503000334,None,903.3946503000334,None,n,0.0917868996039033,903.3946503000334,None,0.0917868996039033,,,108 sing,001,2022_Nov_29_1205,ProdSingRedoBetween,2021.2.3,60.236174050483854,
,,,,90,0,90,0,,,,,,,,,,,,,,,,,,,,,,907.0028384998441,None,,,,,,,,,,,,,,,,,color,23,91,sing,old,yellow,904.0342034995556,None,904.0342034995556,None,6,2.336583700031042,904.0342034995556,None,2.336583700031042,906.4029020993039,None,906.9047045996413,None,906.9047045996413,None,r,0.08004919998347759,906.9047045996413,None,0.08004919998347759,,,108 sing,001,2022_Nov_29_1205,ProdSingRedoBetween,2021.2.3,60.236174050483854,
,,,,91,0,91,0,,,,,,,,,,,,,,,,,,,,,,910.6256186999381,None,,,,,,,,,,,,,,,,,escape,15,92,sing,old,yellow,907.5079947998747,None,907.5079947998747,None,4,2.2710940996184945,907.5079947998747,None,2.2710940996184945,909.8071522992104,None,910.3236111998558,None,910.3236111998558,None,f,0.27719860058277845,910.3236111998558,None,0.27719860058277845,,,108 sing,001,2022_Nov_29_1205,ProdSingRedoBetween,2021.2.3,60.236174050483854,
,,,,92,0,92,0,,,,,,,,,,,,,,,,,,,,,,913.1457912996411,None,,,,,,,,,,,,,,,,,weather,159,93,sing,new,null,911.1408056998625,None,911.1408056998625,None,1,1.2344324002042413,911.1408056998625,None,1.2344324002042413,912.3929238999262,None,912.9175183000043,None,912.9175183000043,None,n,0.20490620005875826,912.9175183000043,None,0.20490620005875826,,,108 sing,001,2022_Nov_29_1205,ProdSingRedoBetween,2021.2.3,60.236174050483854,
,,,,93,0,93,0,,,,,,,,,,,,,,,,,,,,,,915.9947956996039,None,,,,,,,,,,,,,,,,,blind,95,94,sing,new,null,913.6703697992489,None,913.6703697992489,None,1,1.496675900183618,913.6703697992489,None,1.496675900183618,915.2056986996904,None,915.7111493991688,None,915.7111493991688,None,n,0.2606879994273186,915.7111493991688,None,0.2606879994273186,,,108 sing,001,2022_Nov_29_1205,ProdSingRedoBetween,2021.2.3,60.236174050483854,
,,,,94,0,94,0,,,,,,,,,,,,,,,,,,,,,,918.2478151991963,None,,,,,,,,,,,,,,,,,disease,135,95,sing,new,null,916.497022899799,None,916.497022899799,None,1,0.9412603005766869,916.497022899799,None,0.9412603005766869,917.465911699459,None,917.9811953995377,None,917.9811953995377,None,n,0.23891369998455048,917.9811953995377,None,0.23891369998455048,,,108 sing,001,2022_Nov_29_1205,ProdSingRedoBetween,2021.2.3,60.236174050483854,
,,,,95,0,95,0,,,,,,,,,,,,,,,,,,,,,,921.3849358996376,None,,,,,,,,,,,,,,,,,whole,125,96,sing,new,null,918.7651745993644,None,918.7651745993644,None,1,1.9264674000442028,918.7651745993644,None,1.9264674000442028,920.7229976998642,None,921.2331618992612,None,921.2331618992612,None,n,0.1339360000565648,921.2331618992612,None,0.1339360000565648,,,108 sing,001,2022_Nov_29_1205,ProdSingRedoBetween,2021.2.3,60.236174050483854,
,,,,96,0,96,0,,,,,,,,,,,,,,,,,,,,,,925.9378862995654,None,,,,,,,,,,,,,,,,,machinery,46,97,sing,old,blue,921.9142090994865,None,921.9142090994865,None,6,3.1370636001229286,921.9142090994865,None,3.1370636001229286,925.0719834994525,None,925.5875963997096,None,925.5875963997096,None,r,0.33118450082838535,925.5875963997096,None,0.33118450082838535,,,108 sing,001,2022_Nov_29_1205,ProdSingRedoBetween,2021.2.3,60.236174050483854,
,,,,97,0,97,0,,,,,,,,,,,,,,,,,,,,,,929.0249165995046,None,,,,,,,,,,,,,,,,,empty,163,98,sing,new,null,926.4511647997424,None,926.4511647997424,None,3,1.9287447994574904,926.4511647997424,None,1.9287447994574904,928.4089436000213,None,928.9258318999782,None,928.9258318999782,None,f,0.08068230003118515,928.9258318999782,None,0.08068230003118515,,,108 sing,001,2022_Nov_29_1205,ProdSingRedoBetween,2021.2.3,60.236174050483854,
,,,,98,0,98,0,,,,,,,,,,,,,,,,,,,,,,932.3611051999032,None,,,,,,,,,,,,,,,,,people,141,99,sing,new,null,929.538402499631,None,929.538402499631,None,2,2.0043037002906203,929.538402499631,None,2.0043037002906203,931.5663999998942,None,932.0768716996536,None,932.0768716996536,None,f,0.255060700699687,932.0768716996536,None,0.255060700699687,,,108 sing,001,2022_Nov_29_1205,ProdSingRedoBetween,2021.2.3,60.236174050483854,
,,,,99,0,99,0,,,,,,,,,,,,,,,,,,,,,,935.2809422994033,None,,,,,,,,,,,,,,,,,fight,98,100,sing,new,null,932.8641142994165,None,932.8641142994165,None,1,1.7192887999117374,932.8641142994165,None,1.7192887999117374,934.615435199812,None,935.1319337999448,None,935.1319337999448,None,n,0.12691309954971075,935.1319337999448,None,0.12691309954971075,,,108 sing,001,2022_Nov_29_1205,ProdSingRedoBetween,2021.2.3,60.236174050483854,
,,,,100,0,100,0,,,,,,,,,,,,,,,,,,,,,,937.5676649995148,None,,,,,,,,,,,,,,,,,citizen,67,101,sing,old,red,935.7876567998901,None,935.7876567998901,None,6,1.1443301998078823,935.7876567998901,None,1.1443301998078823,936.9555073995143,None,937.4675735998899,None,937.4675735998899,None,r,0.07604079972952604,937.4675735998899,None,0.07604079972952604,,,108 sing,001,2022_Nov_29_1205,ProdSingRedoBetween,2021.2.3,60.236174050483854,
,,,,101,0,101,0,,,,,,,,,,,,,,,,,,,,,,940.2870673993602,None,,,,,,,,,,,,,,,,,smell,169,102,sing,new,null,938.0848551997915,None,938.0848551997915,None,1,1.191214599646628,938.0848551997915,None,1.191214599646628,939.3026532996446,None,939.8196297995746,None,939.8196297995746,None,n,0.44579670019447803,939.8196297995746,None,0.44579670019447803,,,108 sing,001,2022_Nov_29_1205,ProdSingRedoBetween,2021.2.3,60.236174050483854,
,,,,102,0,102,0,,,,,,,,,,,,,,,,,,,,,,944.4239966999739,None,,,,,,,,,,,,,,,,,engineer,104,103,sing,new,null,940.8042925996706,None,940.8042925996706,None,6,2.912724600173533,940.8042925996706,None,2.912724600173533,943.7416439000517,None,944.2588877994567,None,944.2588877994567,None,r,0.1476266998797655,944.2588877994567,None,0.1476266998797655,,,108 sing,001,2022_Nov_29_1205,ProdSingRedoBetween,2021.2.3,60.236174050483854,
,,,,103,0,103,0,,,,,,,,,,,,,,,,,,,,,,948.5943299997598,None,,,,,,,,,,,,,,,,,notice,106,104,sing,new,null,944.9268501000479,None,944.9268501000479,None,4,3.046318900771439,944.9268501000479,None,3.046318900771439,947.9969420991838,None,948.5100368000567,None,948.5100368000567,None,f,0.05228810012340546,948.5100368000567,None,0.05228810012340546,,,108 sing,001,2022_Nov_29_1205,ProdSingRedoBetween,2021.2.3,60.236174050483854,
,,,,104,0,104,0,,,,,,,,,,,,,,,,,,,,,,951.2977631995454,None,,,,,,,,,,,,,,,,,threat,122,105,sing,new,null,949.0962140997872,None,949.0962140997872,None,1,1.5506775006651878,949.0962140997872,None,1.5506775006651878,950.6656042998657,None,951.1820934992284,None,951.1820934992284,None,n,0.0830855006352067,951.1820934992284,None,0.0830855006352067,,,108 sing,001,2022_Nov_29_1205,ProdSingRedoBetween,2021.2.3,60.236174050483854,
,,,,105,0,105,0,,,,,,,,,,,,,,,,,,,,,,955.2349036000669,None,,,,,,,,,,,,,,,,,audience,100,106,sing,new,null,951.823794499971,None,951.823794499971,None,4,2.6496177995577455,951.823794499971,None,2.6496177995577455,954.502508899197,None,955.0167761994526,None,955.0167761994526,None,f,0.18812979944050312,955.0167761994526,None,0.18812979944050312,,,108 sing,001,2022_Nov_29_1205,ProdSingRedoBetween,2021.2.3,60.236174050483854,
,,,,106,0,106,0,,,,,,,,,,,,,,,,,,,,,,958.1375294998288,None,,,,,,,,,,,,,,,,,election,69,107,sing,old,red,955.7515159994364,None,955.7515159994364,None,2,1.5322660002857447,955.7515159994364,None,1.5322660002857447,957.3035969994962,None,957.819781399332,None,957.819781399332,None,f,0.2929709004238248,957.819781399332,None,0.2929709004238248,,,108 sing,001,2022_Nov_29_1205,ProdSingRedoBetween,2021.2.3,60.236174050483854,
,,,,107,0,107,0,,,,,,,,,,,,,,,,,,,,,,960.6235861992463,None,,,,,,,,,,,,,,,,,straight,139,108,sing,new,null,958.642719399184,None,958.642719399184,None,1,1.325118400156498,958.642719399184,None,1.325118400156498,959.9920133994892,None,960.505208899267,None,960.505208899267,None,n,0.09221170004457235,960.505208899267,None,0.09221170004457235,,,108 sing,001,2022_Nov_29_1205,ProdSingRedoBetween,2021.2.3,60.236174050483854,
,,,,108,0,108,0,,,,,,,,,,,,,,,,,,,,,,962.9759813994169,None,,,,,,,,,,,,,,,,,foundation,173,109,sing,new,null,961.1252219993621,None,961.1252219993621,None,1,1.035312700085342,961.1252219993621,None,1.035312700085342,962.1925630997866,None,962.7078106999397,None,962.7078106999397,None,n,0.23658670019358397,962.7078106999397,None,0.23658670019358397,,,108 sing,001,2022_Nov_29_1205,ProdSingRedoBetween,2021.2.3,60.236174050483854,
,,,,109,0,109,0,,,,,,,,,,,,,,,,,,,,,,965.546057799831,None,,,,,,,,,,,,,,,,,point,113,110,sing,new,null,963.4934452995658,None,963.4934452995658,None,1,1.3855675999075174,963.4934452995658,None,1.3855675999075174,964.9127950994298,None,965.4271931992844,None,965.4271931992844,None,n,0.08625929988920689,965.4271931992844,None,0.08625929988920689,,,108 sing,001,2022_Nov_29_1205,ProdSingRedoBetween,2021.2.3,60.236174050483854,
,,,,110,0,110,0,,,,,,,,,,,,,,,,,,,,,,968.3332553999498,None,,,,,,,,,,,,,,,,,period,164,111,sing,new,null,966.0656942995265,None,966.0656942995265,None,1,1.5495985997840762,966.0656942995265,None,1.5495985997840762,967.6539708999917,None,968.1650633998215,None,968.1650633998215,None,n,0.13989159930497408,968.1650633998215,None,0.13989159930497408,,,108 sing,001,2022_Nov_29_1205,ProdSingRedoBetween,2021.2.3,60.236174050483854,
,,,,111,0,111,0,,,,,,,,,,,,,,,,,,,,,,970.9342160997912,None,,,,,,,,,,,,,,,,,country,68,112,sing,old,red,968.8519961992279,None,968.8519961992279,None,6,1.4652624996379018,968.8519961992279,None,1.4652624996379018,970.3510662000626,None,970.8659963998944,None,970.8659963998944,None,r,0.04132859967648983,970.8659963998944,None,0.04132859967648983,,,108 sing,001,2022_Nov_29_1205,ProdSingRedoBetween,2021.2.3,60.236174050483854,
,,,,112,0,112,0,,,,,,,,,,,,,,,,,,,,,,973.4697011997923,None,,,,,,,,,,,,,,,,,individual,62,113,sing,old,red,971.4521654993296,None,971.4521654993296,None,3,1.2876957999542356,971.4521654993296,None,1.2876957999542356,972.7691693995148,None,973.2889670999721,None,973.2889670999721,None,f,0.15344789996743202,973.2889670999721,None,0.15344789996743202,,,108 sing,001,2022_Nov_29_1205,ProdSingRedoBetween,2021.2.3,60.236174050483854,
,,,,113,0,113,0,,,,,,,,,,,,,,,,,,,,,,976.3398937992752,None,,,,,,,,,,,,,,,,,partner,0,114,sing,old,yellow,973.9867841992527,None,973.9867841992527,None,4,1.573246099986136,973.9867841992527,None,1.573246099986136,975.5889780996367,None,976.1181576000527,None,976.1181576000527,None,f,0.19382259994745255,976.1181576000527,None,0.19382259994745255,,,108 sing,001,2022_Nov_29_1205,ProdSingRedoBetween,2021.2.3,60.236174050483854,
,,,,114,0,114,0,,,,,,,,,,,,,,,,,,,,,,979.0077781993896,None,,,,,,,,,,,,,,,,,mankind,55,115,sing,old,blue,976.857069700025,None,976.857069700025,None,6,1.3255974994972348,976.857069700025,None,1.3255974994972348,978.2081722998992,None,978.725761000067,None,978.725761000067,None,r,0.2566713001579046,978.725761000067,None,0.2566713001579046,,,108 sing,001,2022_Nov_29_1205,ProdSingRedoBetween,2021.2.3,60.236174050483854,
,,,,115,0,115,0,,,,,,,,,,,,,,,,,,,,,,982.0774126993492,None,,,,,,,,,,,,,,,,,series,127,116,sing,new,null,979.5224636998028,None,979.5224636998028,None,3,1.3667996991425753,979.5224636998028,None,1.3667996991425753,980.911186799407,None,981.4266323996708,None,981.4266323996708,None,f,0.6252661999315023,981.4266323996708,None,0.6252661999315023,,,108 sing,001,2022_Nov_29_1205,ProdSingRedoBetween,2021.2.3,60.236174050483854,
,,,,116,0,116,0,,,,,,,,,,,,,,,,,,,,,,985.8655413994566,None,,,,,,,,,,,,,,,,,title,90,117,sing,new,null,982.5795818995684,None,982.5795818995684,None,2,2.585749799385667,982.5795818995684,None,2.585749799385667,985.1981613999233,None,985.713994499296,None,985.713994499296,None,f,0.12769219931215048,985.713994499296,None,0.12769219931215048,,,108 sing,001,2022_Nov_29_1205,ProdSingRedoBetween,2021.2.3,60.236174050483854,
,,,,117,0,117,0,,,,,,,,,,,,,,,,,,,,,,989.8048413991928,None,,,,,,,,,,,,,,,,,message,48,118,sing,old,blue,986.3828479992226,None,986.3828479992226,None,1,2.000591400079429,986.3828479992226,None,2.000591400079429,988.4030923992395,None,988.9169103000313,None,988.9169103000313,None,n,0.8592765992507339,988.9169103000313,None,0.8592765992507339,,,108 sing,001,2022_Nov_29_1205,ProdSingRedoBetween,2021.2.3,60.236174050483854,
,,,,118,0,118,0,,,,,,,,,,,,,,,,,,,,,,992.4048643996939,None,,,,,,,,,,,,,,,,,generation,65,119,sing,old,red,990.3277716999874,None,990.3277716999874,None,1,1.349893500097096,990.3277716999874,None,1.349893500097096,991.7049693996087,None,992.2218931997195,None,992.2218931997195,None,n,0.16664910037070513,992.2218931997195,None,0.16664910037070513,,,108 sing,001,2022_Nov_29_1205,ProdSingRedoBetween,2021.2.3,60.236174050483854,
,,,,119,0,119,0,,,,,,,,,,,,,,,,,,,,,,995.691810999997,None,,,,,,,,,,,,,,,,,beginning,80,120,sing,old,red,992.9063820997253,None,992.9063820997253,None,5,1.9556052004918456,992.9063820997253,None,1.9556052004918456,994.8964333999902,None,995.4069336997345,None,995.4069336997345,None,f,0.26374009996652603,995.4069336997345,None,0.26374009996652603,,,108 sing,001,2022_Nov_29_1205,ProdSingRedoBetween,2021.2.3,60.236174050483854,
,,,,120,0,120,0,,,,,,,,,,,,,,,,,,,,,,998.2780997995287,None,,,,,,,,,,,,,,,,,charter,111,121,sing,new,null,996.193774599582,None,996.193774599582,None,1,1.2894171001389623,996.193774599582,None,1.2894171001389623,997.5161422993988,None,998.0259937997907,None,998.0259937997907,None,n,0.22960149962455034,998.0259937997907,None,0.22960149962455034,,,108 sing,001,2022_Nov_29_1205,ProdSingRedoBetween,2021.2.3,60.236174050483854,
,,,,121,0,121,0,,,,,,,,,,,,,,,,,,,,,,1003.6834718994796,None,,,,,,,,,,,,,,,,,exchange,39,122,sing,old,blue,998.8075812999159,None,998.8075812999159,None,2,3.866679100319743,998.8075812999159,None,3.866679100319743,1002.701458399184,None,1003.2313417000696,None,1003.2313417000696,None,f,0.4240752998739481,1003.2313417000696,None,0.4240752998739481,,,108 sing,001,2022_Nov_29_1205,ProdSingRedoBetween,2021.2.3,60.236174050483854,
,,,,122,0,122,0,,,,,,,,,,,,,,,,,,,,,,1006.4526235992089,None,,,,,,,,,,,,,,,,,chief,124,123,sing,new,null,1004.2156027993187,None,1004.2156027993187,None,1,1.4742427002638578,1004.2156027993187,None,1.4742427002638578,1005.7253628000617,None,1006.2344959992915,None,1006.2344959992915,None,n,0.1939304005354643,1006.2344959992915,None,0.1939304005354643,,,108 sing,001,2022_Nov_29_1205,ProdSingRedoBetween,2021.2.3,60.236174050483854,
,,,,123,0,123,0,,,,,,,,,,,,,,,,,,,,,,1009.5183140998706,None,,,,,,,,,,,,,,,,,rough,72,124,sing,old,red,1006.9557909993455,None,1006.9557909993455,None,1,1.9261368997395039,1006.9557909993455,None,1.9261368997395039,1008.9094165991992,None,1009.4206598997116,None,1009.4206598997116,None,n,0.0677585992962122,1009.4206598997116,None,0.0677585992962122,,,108 sing,001,2022_Nov_29_1205,ProdSingRedoBetween,2021.2.3,60.236174050483854,
,,,,124,0,124,0,,,,,,,,,,,,,,,,,,,,,,1012.8271387992427,None,,,,,,,,,,,,,,,,,month,73,125,sing,old,red,1010.0353582995012,None,1010.0353582995012,None,6,2.1399129005149007,1010.0353582995012,None,2.1399129005149007,1012.1941045997664,None,1012.7275237999856,None,1012.7275237999856,None,r,0.06986130028963089,1012.7275237999856,None,0.06986130028963089,,,108 sing,001,2022_Nov_29_1205,ProdSingRedoBetween,2021.2.3,60.236174050483854,
,,,,125,0,125,0,,,,,,,,,,,,,,,,,,,,,,1015.2620180994272,None,,,,,,,,,,,,,,,,,command,103,126,sing,new,null,1013.3434864999726,None,1013.3434864999726,None,1,1.193054100498557,1013.3434864999726,None,1.193054100498557,1014.5613650996238,None,1015.0778055991977,None,1015.0778055991977,None,n,0.15258130058646202,1015.0778055991977,None,0.15258130058646202,,,108 sing,001,2022_Nov_29_1205,ProdSingRedoBetween,2021.2.3,60.236174050483854,
,,,,126,0,126,0,,,,,,,,,,,,,,,,,,,,,,1017.8834712998942,None,,,,,,,,,,,,,,,,,frank,99,127,sing,new,null,1015.7946638995782,None,1015.7946638995782,None,1,1.4306659996509552,1015.7946638995782,None,1.4306659996509552,1017.247666399926,None,1017.7620182000101,None,1017.7620182000101,None,n,0.09857510030269623,1017.7620182000101,None,0.09857510030269623,,,108 sing,001,2022_Nov_29_1205,ProdSingRedoBetween,2021.2.3,60.236174050483854,
,,,,127,0,127,0,,,,,,,,,,,,,,,,,,,,,,1020.550557599403,None,,,,,,,,,,,,,,,,,range,1,128,sing,old,yellow,1018.3980702999979,None,1018.3980702999979,None,4,1.5843222001567483,1018.3980702999979,None,1.5843222001567483,1020.000555999577,None,1020.5151268998161,None,1020.5151268998161,None,f,0.01471799984574318,1020.5151268998161,None,0.01471799984574318,,,108 sing,001,2022_Nov_29_1205,ProdSingRedoBetween,2021.2.3,60.236174050483854,
,,,,128,0,128,0,,,,,,,,,,,,,,,,,,,,,,1025.354877899401,None,,,,,,,,,,,,,,,,,brief,108,129,sing,new,null,1021.0730925993994,None,1021.0730925993994,None,3,2.814287600107491,1021.0730925993994,None,2.814287600107491,1023.9207567991689,None,1024.4356161998585,None,1024.4356161998585,None,f,0.8987114997580647,1024.4356161998585,None,0.8987114997580647,,,108 sing,001,2022_Nov_29_1205,ProdSingRedoBetween,2021.2.3,60.236174050483854,
,,,,129,0,129,0,,,,,,,,,,,,,,,,,,,,,,1027.7784323999658,None,,,,,,,,,,,,,,,,,salary,93,130,sing,new,null,1025.8561261994764,None,1025.8561261994764,None,1,1.051970699802041,1025.8561261994764,None,1.051970699802041,1026.9406341994181,None,1027.4596080994233,None,1027.4596080994233,None,n,0.28227930050343275,1027.4596080994233,None,0.28227930050343275,,,108 sing,001,2022_Nov_29_1205,ProdSingRedoBetween,2021.2.3,60.236174050483854,
,,,,130,0,130,0,,,,,,,,,,,,,,,,,,,,,,1031.3773147994652,None,,,,,,,,,,,,,,,,,quarter,49,131,sing,old,blue,1028.2945802994072,None,1028.2945802994072,None,3,2.3412806997075677,1028.2945802994072,None,2.3412806997075677,1030.6617510998622,None,1031.176565199159,None,1031.176565199159,None,f,0.17573809996247292,1031.176565199159,None,0.17573809996247292,,,108 sing,001,2022_Nov_29_1205,ProdSingRedoBetween,2021.2.3,60.236174050483854,
,,,,131,0,131,0,,,,,,,,,,,,,,,,,,,,,,1033.712928599678,None,,,,,,,,,,,,,,,,,recall,167,132,sing,new,null,1031.8950168993324,None,1031.8950168993324,None,1,1.0266625005751848,1031.8950168993324,None,1.0266625005751848,1032.9477608995512,None,1033.4651267994195,None,1033.4651267994195,None,n,0.21885409951210022,1033.4651267994195,None,0.21885409951210022,,,108 sing,001,2022_Nov_29_1205,ProdSingRedoBetween,2021.2.3,60.236174050483854,
,,,,132,0,132,0,,,,,,,,,,,,,,,,,,,,,,1036.7000521998852,None,,,,,,,,,,,,,,,,,music,109,133,sing,new,null,1034.2311847992241,None,1034.2311847992241,None,1,1.6910554999485612,1034.2311847992241,None,1.6910554999485612,1035.9508095998317,None,1036.4677636995912,None,1036.4677636995912,None,n,0.20541829988360405,1036.4677636995912,None,0.20541829988360405,,,108 sing,001,2022_Nov_29_1205,ProdSingRedoBetween,2021.2.3,60.236174050483854,
,,,,133,0,133,0,,,,,,,,,,,,,,,,,,,,,,1040.3531318996102,None,,,,,,,,,,,,,,,,,signal,140,134,sing,new,null,1037.2251410996541,None,1037.2251410996541,None,5,2.4255450004711747,1037.2251410996541,None,2.4255450004711747,1039.6705689998344,None,1040.1854082997888,None,1040.1854082997888,None,f,0.14436329994350672,1040.1854082997888,None,0.14436329994350672,,,108 sing,001,2022_Nov_29_1205,ProdSingRedoBetween,2021.2.3,60.236174050483854,
,,,,134,0,134,0,,,,,,,,,,,,,,,,,,,,,,1043.8065059995279,None,,,,,,,,,,,,,,,,,public,179,135,sing,new,null,1040.8706205999479,None,1040.8706205999479,None,4,1.6890652002766728,1040.8706205999479,None,1.6890652002766728,1042.5905226999894,None,1043.1047975998372,None,1043.1047975998372,None,f,0.6778135998174548,1043.1047975998372,None,0.6778135998174548,,,108 sing,001,2022_Nov_29_1205,ProdSingRedoBetween,2021.2.3,60.236174050483854,
,,,,135,0,135,0,,,,,,,,,,,,,,,,,,,,,,1046.7088820999488,None,,,,,,,,,,,,,,,,,private,21,136,sing,old,yellow,1044.316182299517,None,1044.316182299517,None,2,1.5106394002214074,1044.316182299517,None,1.5106394002214074,1045.863774499856,None,1046.37581629958,None,1046.37581629958,None,f,0.31648570019751787,1046.37581629958,None,0.31648570019751787,,,108 sing,001,2022_Nov_29_1205,ProdSingRedoBetween,2021.2.3,60.236174050483854,
,,,,136,0,136,0,,,,,,,,,,,,,,,,,,,,,,1049.1939884992316,None,,,,,,,,,,,,,,,,,business,138,137,sing,new,null,1047.2108900994062,None,1047.2108900994062,None,6,1.2462913999333978,1047.2108900994062,None,1.2462913999333978,1048.4788915999234,None,1048.9939186992124,None,1048.9939186992124,None,r,0.17820070032030344,1048.9939186992124,None,0.17820070032030344,,,108 sing,001,2022_Nov_29_1205,ProdSingRedoBetween,2021.2.3,60.236174050483854,
,,,,137,0,137,0,,,,,,,,,,,,,,,,,,,,,,1053.6497800992802,None,,,,,,,,,,,,,,,,,career,70,138,sing,old,red,1049.6962952995673,None,1049.6962952995673,None,6,3.3168286001309752,1049.6962952995673,None,3.3168286001309752,1053.034331499599,None,1053.5498111993074,None,1053.5498111993074,None,r,0.0752208000048995,1053.5498111993074,None,0.0752208000048995,,,108 sing,001,2022_Nov_29_1205,ProdSingRedoBetween,2021.2.3,60.236174050483854,
,,,,138,0,138,0,,,,,,,,,,,,,,,,,,,,,,1056.8693548999727,None,,,,,,,,,,,,,,,,,trial,88,139,sing,old,red,1054.1676453994587,None,1054.1676453994587,None,4,1.981725299730897,1054.1676453994587,None,1.981725299730897,1056.1687857992947,None,1056.668383399956,None,1056.668383399956,None,f,0.1721655996516347,1056.668383399956,None,0.1721655996516347,,,108 sing,001,2022_Nov_29_1205,ProdSingRedoBetween,2021.2.3,60.236174050483854,
,,,,139,0,139,0,,,,,,,,,,,,,,,,,,,,,,1062.891744199209,None,,,,,,,,,,,,,,,,,production,47,140,sing,old,blue,1057.3709304993972,None,1057.3709304993972,None,4,4.283370899967849,1057.3709304993972,None,4.283370899967849,1061.6753293992952,None,1062.190815099515,None,1062.190815099515,None,f,0.6787756001576781,1062.190815099515,None,0.6787756001576781,,,108 sing,001,2022_Nov_29_1205,ProdSingRedoBetween,2021.2.3,60.236174050483854,
,,,,140,0,140,0,,,,,,,,,,,,,,,,,,,,,,1065.3101387992501,None,,,,,,,,,,,,,,,,,edition,52,141,sing,old,blue,1063.3936008997262,None,1063.3936008997262,None,1,1.1511937994509935,1063.3936008997262,None,1.1511937994509935,1064.577618399635,None,1065.0931207994,None,1065.0931207994,None,n,0.18556080013513565,1065.0931207994,None,0.18556080013513565,,,108 sing,001,2022_Nov_29_1205,ProdSingRedoBetween,2021.2.3,60.236174050483854,
,,,,141,0,141,0,,,,,,,,,,,,,,,,,,,,,,1067.6635056994855,None,,,,,,,,,,,,,,,,,column,120,142,sing,new,null,1065.8134769992903,None,1065.8134769992903,None,1,1.1497277999296784,1065.8134769992903,None,1.1497277999296784,1066.9807444000617,None,1067.4969073999673,None,1067.4969073999673,None,n,0.14947469998151064,1067.4969073999673,None,0.14947469998151064,,,108 sing,001,2022_Nov_29_1205,ProdSingRedoBetween,2021.2.3,60.236174050483854,
,,,,142,0,142,0,,,,,,,,,,,,,,,,,,,,,,1070.1172886993736,None,,,,,,,,,,,,,,,,,stand,91,143,sing,new,null,1068.1648272993043,None,1068.1648272993043,None,2,1.223483699373901,1068.1648272993043,None,1.223483699373901,1069.4220089996234,None,1069.9315442992374,None,1069.9315442992374,None,f,0.1543087000027299,1069.9315442992374,None,0.1543087000027299,,,108 sing,001,2022_Nov_29_1205,ProdSingRedoBetween,2021.2.3,60.236174050483854,
,,,,143,0,143,0,,,,,,,,,,,,,,,,,,,,,,1072.5761189991608,None,,,,,,,,,,,,,,,,,history,89,144,sing,old,red,1070.6333367992193,None,1070.6333367992193,None,1,1.255964300595224,1070.6333367992193,None,1.255964300595224,1071.9181619994342,None,1072.43409269955,None,1072.43409269955,None,n,0.10369530040770769,1072.43409269955,None,0.10369530040770769,,,108 sing,001,2022_Nov_29_1205,ProdSingRedoBetween,2021.2.3,60.236174050483854,
,,,,144,0,144,0,,,,,,,,,,,,,,,,,,,,,,1074.6542830998078,None,,,,,,,,,,,,,,,,,universal,175,145,sing,new,null,1073.0917831994593,None,1073.0917831994593,None,1,0.9374279994517565,1073.0917831994593,None,0.9374279994517565,1074.0556531995535,None,1074.5727212997153,None,1074.5727212997153,None,n,0.06405219994485378,1074.5727212997153,None,0.06405219994485378,,,108 sing,001,2022_Nov_29_1205,ProdSingRedoBetween,2021.2.3,60.236174050483854,
,,,,145,0,145,0,,,,,,,,,,,,,,,,,,,,,,1077.9914767993614,None,,,,,,,,,,,,,,,,,shape,132,146,sing,new,null,1075.173930999823,None,1075.173930999823,None,3,2.2085408996790648,1075.173930999823,None,2.2085408996790648,1077.4086612993851,None,1077.9266668995842,None,1077.9266668995842,None,f,0.030621499754488468,1077.9266668995842,None,0.030621499754488468,,,108 sing,001,2022_Nov_29_1205,ProdSingRedoBetween,2021.2.3,60.236174050483854,
,,,,146,0,146,0,,,,,,,,,,,,,,,,,,,,,,1081.6610025996342,None,,,,,,,,,,,,,,,,,population,41,147,sing,old,blue,1078.5216721994802,None,1078.5216721994802,None,6,2.52879919949919,1078.5216721994802,None,2.52879919949919,1081.0789468996227,None,1081.5933085996658,None,1081.5933085996658,None,r,0.04495699983090162,1081.5933085996658,None,0.04495699983090162,,,108 sing,001,2022_Nov_29_1205,ProdSingRedoBetween,2021.2.3,60.236174050483854,
,,,,147,0,147,0,,,,,,,,,,,,,,,,,,,,,,1083.8283627992496,None,,,,,,,,,,,,,,,,,master,162,148,sing,new,null,1082.1656013000757,None,1082.1656013000757,None,1,1.0153572000563145,1082.1656013000757,None,1.0153572000563145,1083.2125977994874,None,1083.729875699617,None,1083.729875699617,None,n,0.06904290057718754,1083.729875699617,None,0.06904290057718754,,,108 sing,001,2022_Nov_29_1205,ProdSingRedoBetween,2021.2.3,60.236174050483854,
,,,,148,0,148,0,,,,,,,,,,,,,,,,,,,,,,1086.3659130996093,None,,,,,,,,,,,,,,,,,birth,166,149,sing,new,null,1084.3313744999468,None,1084.3313744999468,None,1,1.0261558005586267,1084.3313744999468,None,1.0261558005586267,1085.3875218993053,None,1085.9010322000831,None,1085.9010322000831,None,n,0.44124310091137886,1085.9010322000831,None,0.44124310091137886,,,108 sing,001,2022_Nov_29_1205,ProdSingRedoBetween,2021.2.3,60.236174050483854,
,,,,149,0,149,0,,,,,,,,,,,,,,,,,,,,,,1088.7039614999667,None,,,,,,,,,,,,,,,,,suggestion,87,150,sing,old,red,1086.878864299506,None,1086.878864299506,None,1,1.1119996001943946,1086.878864299506,None,1.1119996001943946,1088.027729999274,None,1088.5329625997692,None,1088.5329625997692,None,n,0.13703390024602413,1088.5329625997692,None,0.13703390024602413,,,108 sing,001,2022_Nov_29_1205,ProdSingRedoBetween,2021.2.3,60.236174050483854,
,,,,150,0,150,0,,,,,,,,,,,,,,,,,,,,,,1092.5553436996415,None,,,,,,,,,,,,,,,,,general,165,151,sing,new,null,1089.2251773998141,None,1089.2251773998141,None,1,2.7222411995753646,1089.2251773998141,None,2.7222411995753646,1091.9755356991664,None,1092.4957105992362,None,1092.4957105992362,None,n,0.03485049959272146,1092.4957105992362,None,0.03485049959272146,,,108 sing,001,2022_Nov_29_1205,ProdSingRedoBetween,2021.2.3,60.236174050483854,
,,,,151,0,151,0,,,,,,,,,,,,,,,,,,,,,,1095.7253046995029,None,,,,,,,,,,,,,,,,,direction,158,152,sing,new,null,1093.0731652993709,None,1093.0731652993709,None,1,2.017824299633503,1093.0731652993709,None,2.017824299633503,1095.1092507997528,None,1095.6253237994388,None,1095.6253237994388,None,n,0.07082179933786392,1095.6253237994388,None,0.07082179933786392,,,108 sing,001,2022_Nov_29_1205,ProdSingRedoBetween,2021.2.3,60.236174050483854,
,,,,152,0,152,0,,,,,,,,,,,,,,,,,,,,,,1098.348023599945,None,,,,,,,,,,,,,,,,,principal,174,153,sing,new,null,1096.242518699728,None,1096.242518699728,None,1,1.4952766997739673,1096.242518699728,None,1.4952766997739673,1097.760783799924,None,1098.283330699429,None,1098.283330699429,None,n,0.04178690072149038,1098.283330699429,None,0.04178690072149038,,,108 sing,001,2022_Nov_29_1205,ProdSingRedoBetween,2021.2.3,60.236174050483854,
,,,,153,0,153,0,,,,,,,,,,,,,,,,,,,,,,1100.4631996992975,None,,,,,,,,,,,,,,,,,medicine,152,154,sing,new,null,1098.8722844999284,None,1098.8722844999284,None,1,0.9375221002846956,1098.8722844999284,None,0.9375221002846956,1099.8347822995856,None,1100.345484599471,None,1100.345484599471,None,n,0.09025679994374514,1100.345484599471,None,0.09025679994374514,,,108 sing,001,2022_Nov_29_1205,ProdSingRedoBetween,2021.2.3,60.236174050483854,
,,,,154,0,154,0,,,,,,,,,,,,,,,,,,,,,,1103.5455771991983,None,,,,,,,,,,,,,,,,,throw,79,155,sing,old,red,1100.9821846997365,None,1100.9821846997365,None,6,1.5893160002306104,1100.9821846997365,None,1.5893160002306104,1102.6016937000677,None,1103.11478649918,None,1103.11478649918,None,r,0.389393700286746,1103.11478649918,None,0.389393700286746,,,108 sing,001,2022_Nov_29_1205,ProdSingRedoBetween,2021.2.3,60.236174050483854,
,,,,155,0,155,0,,,,,,,,,,,,,,,,,,,,,,1105.8024127995595,None,,,,,,,,,,,,,,,,,incident,12,156,sing,old,yellow,1104.062637599185,None,1104.062637599185,None,1,1.135933700017631,1104.062637599185,None,1.135933700017631,1105.2206129999831,None,1105.7344437995926,None,1105.7344437995926,None,n,0.04147560056298971,1105.7344437995926,None,0.04147560056298971,,,108 sing,001,2022_Nov_29_1205,ProdSingRedoBetween,2021.2.3,60.236174050483854,
,,,,156,0,156,0,,,,,,,,,,,,,,,,,,,,,,1108.8892232999206,None,,,,,,,,,,,,,,,,,comfort,151,157,sing,new,null,1106.3315751999617,None,1106.3315751999617,None,5,1.757592000067234,1106.3315751999617,None,1.757592000067234,1108.1217835992575,None,1108.6391602000222,None,1108.6391602000222,None,f,0.22114710044115782,1108.6391602000222,None,0.22114710044115782,,,108 sing,001,2022_Nov_29_1205,ProdSingRedoBetween,2021.2.3,60.236174050483854,
,,,,157,0,157,0,,,,,,,,,,,,,,,,,,,,,,1111.4577596997842,None,,,,,,,,,,,,,,,,,division,170,158,sing,new,null,1109.407736199908,None,1109.407736199908,None,1,1.3896997002884746,1109.407736199908,None,1.3896997002884746,1110.825500799343,None,1111.343247499317,None,1111.343247499317,None,n,0.09021149948239326,1111.343247499317,None,0.09021149948239326,,,108 sing,001,2022_Nov_29_1205,ProdSingRedoBetween,2021.2.3,60.236174050483854,
,,,,158,0,158,0,,,,,,,,,,,,,,,,,,,,,,1113.993597199209,None,,,,,,,,,,,,,,,,,answer,63,159,sing,old,red,1111.9751301994547,None,1111.9751301994547,None,1,1.3629334000870585,1111.9751301994547,None,1.3629334000870585,1113.3603376997635,None,1113.8773837992921,None,1113.8773837992921,None,n,0.09597299993038177,1113.8773837992921,None,0.09597299993038177,,,108 sing,001,2022_Nov_29_1205,ProdSingRedoBetween,2021.2.3,60.236174050483854,
,,,,159,0,159,0,,,,,,,,,,,,,,,,,,,,,,1116.2411141991615,None,,,,,,,,,,,,,,,,,interview,92,160,sing,new,null,1114.511197200045,None,1114.511197200045,None,1,1.0165462996810675,1114.511197200045,None,1.0165462996810675,1115.547195199877,None,1116.0745339998975,None,1116.0745339998975,None,n,0.12427699938416481,1116.0745339998975,None,0.12427699938416481,,,108 sing,001,2022_Nov_29_1205,ProdSingRedoBetween,2021.2.3,60.236174050483854,
,,,,160,0,160,0,,,,,,,,,,,,,,,,,,,,,,1119.5823522992432,None,,,,,,,,,,,,,,,,,growth,160,161,sing,new,null,1116.7471071993932,None,1116.7471071993932,None,2,2.1992552001029253,1116.7471071993932,None,2.1992552001029253,1118.966212099418,None,1119.4806574992836,None,1119.4806574992836,None,f,0.07482190057635307,1119.4806574992836,None,0.07482190057635307,,,108 sing,001,2022_Nov_29_1205,ProdSingRedoBetween,2021.2.3,60.236174050483854,
,,,,161,0,161,0,,,,,,,,,,,,,,,,,,,,,,1122.6513359993696,None,,,,,,,,,,,,,,,,,sound,13,162,sing,old,yellow,1120.1121071996167,None,1120.1121071996167,None,4,1.869552900083363,1120.1121071996167,None,1.869552900083363,1122.0057079000399,None,1122.5228212000802,None,1122.5228212000802,None,f,0.10978049971163273,1122.5228212000802,None,0.10978049971163273,,,108 sing,001,2022_Nov_29_1205,ProdSingRedoBetween,2021.2.3,60.236174050483854,
,,,,162,0,162,0,,,,,,,,,,,,,,,,,,,,,,1124.834873199463,None,,,,,,,,,,,,,,,,,defeat,156,163,sing,new,null,1123.154289899394,None,1123.154289899394,None,1,0.9129111999645829,1123.154289899394,None,0.9129111999645829,1124.0874143997207,None,1124.60678049922,None,1124.60678049922,None,n,0.1843871008604765,1124.60678049922,None,0.1843871008604765,,,108 sing,001,2022_Nov_29_1205,ProdSingRedoBetween,2021.2.3,60.236174050483854,
,,,,163,0,163,0,,,,,,,,,,,,,,,,,,,,,,1127.8198996996507,None,,,,,,,,,,,,,,,,,service,130,164,sing,new,null,1125.3445507995784,None,1125.3445507995784,None,1,1.417446100153029,1125.3445507995784,None,1.417446100153029,1126.7915195999667,None,1127.3062943993136,None,1127.3062943993136,None,n,0.4733084999024868,1127.3062943993136,None,0.4733084999024868,,,108 sing,001,2022_Nov_29_1205,ProdSingRedoBetween,2021.2.3,60.236174050483854,
,,,,164,0,164,0,,,,,,,,,,,,,,,,,,,,,,1131.1397271994501,None,,,,,,,,,,,,,,,,,order,50,165,sing,old,blue,1128.3230473995209,None,1128.3230473995209,None,3,2.2219043001532555,1128.3230473995209,None,2.2219043001532555,1130.5764293996617,None,1131.0755500998348,None,1131.0755500998348,None,f,0.030968399718403816,1131.0755500998348,None,0.030968399718403816,,,108 sing,001,2022_Nov_29_1205,ProdSingRedoBetween,2021.2.3,60.236174050483854,
,,,,165,0,165,0,,,,,,,,,,,,,,,,,,,,,,1134.5142703000456,None,,,,,,,,,,,,,,,,,youth,20,166,sing,old,yellow,1131.6467967992648,None,1131.6467967992648,None,5,2.0384788000956178,1131.6467967992648,None,2.0384788000956178,1133.7158816000447,None,1134.2287210999057,None,1134.2287210999057,None,f,0.2586532002314925,1134.2287210999057,None,0.2586532002314925,,,108 sing,001,2022_Nov_29_1205,ProdSingRedoBetween,2021.2.3,60.236174050483854,
,,,,166,0,166,0,,,,,,,,,,,,,,,,,,,,,,1137.9002334997058,None,,,,,,,,,,,,,,,,,motion,83,167,sing,old,red,1135.0366939995438,None,1135.0366939995438,None,1,2.1942413998767734,1135.0366939995438,None,2.1942413998767734,1137.2505137994885,None,1137.7656465992332,None,1137.7656465992332,None,n,0.1033283993601799,1137.7656465992332,None,0.1033283993601799,,,108 sing,001,2022_Nov_29_1205,ProdSingRedoBetween,2021.2.3,60.236174050483854,
,,,,167,0,167,0,,,,,,,,,,,,,,,,,,,,,,1140.3232387993485,None,,,,,,,,,,,,,,,,,death,155,168,sing,new,null,1138.4022450996563,None,1138.4022450996563,None,1,1.289571000263095,1138.4022450996563,None,1.289571000263095,1139.7251192992553,None,1140.236891599372,None,1140.236891599372,None,n,0.06388089992105961,1140.236891599372,None,0.06388089992105961,,,108 sing,001,2022_Nov_29_1205,ProdSingRedoBetween,2021.2.3,60.236174050483854,
,,,,168,0,168,0,,,,,,,,,,,,,,,,,,,,,,1142.544303599745,None,,,,,,,,,,,,,,,,,theme,153,169,sing,new,null,1140.855547199957,None,1140.855547199957,None,1,0.9754007998853922,1140.855547199957,None,0.9754007998853922,1141.8546481998637,None,1142.3570270994678,None,1142.3570270994678,None,n,0.15842080023139715,1142.3570270994678,None,0.15842080023139715,,,108 sing,001,2022_Nov_29_1205,ProdSingRedoBetween,2021.2.3,60.236174050483854,
,,,,169,0,169,0,,,,,,,,,,,,,,,,,,,,,,1147.193111599423,None,,,,,,,,,,,,,,,,,crisis,38,170,sing,old,blue,1143.0805211998522,None,1143.0805211998522,None,3,3.288921100087464,1143.0805211998522,None,3.288921100087464,1146.393780699931,None,1146.908397199586,None,1146.908397199586,None,f,0.2530180998146534,1146.908397199586,None,0.2530180998146534,,,108 sing,001,2022_Nov_29_1205,ProdSingRedoBetween,2021.2.3,60.236174050483854,
,,,,170,0,170,0,,,,,,,,,,,,,,,,,,,,,,1149.3614811999723,None,,,,,,,,,,,,,,,,,sunset,154,171,sing,new,null,1147.7145785000175,None,1147.7145785000175,None,1,0.982799899764359,1147.7145785000175,None,0.982799899764359,1148.731668099761,None,1149.2437183996662,None,1149.2437183996662,None,n,0.08638190012425184,1149.2437183996662,None,0.08638190012425184,,,108 sing,001,2022_Nov_29_1205,ProdSingRedoBetween,2021.2.3,60.236174050483854,
,,,,171,0,171,0,,,,,,,,,,,,,,,,,,,,,,1152.6831901995465,None,,,,,,,,,,,,,,,,,relation,75,172,sing,old,red,1149.863349199295,None,1149.863349199295,None,1,2.144234700128436,1149.863349199295,None,2.144234700128436,1152.0336841000244,None,1152.5553651992232,None,1152.5553651992232,None,n,0.10285990033298731,1152.5553651992232,None,0.10285990033298731,,,108 sing,001,2022_Nov_29_1205,ProdSingRedoBetween,2021.2.3,60.236174050483854,
,,,,172,0,172,0,,,,,,,,,,,,,,,,,,,,,,1156.3505667997524,None,,,,,,,,,,,,,,,,,industry,94,173,sing,new,null,1153.212163399905,None,1153.212163399905,None,1,2.5601408993825316,1153.212163399905,None,2.5601408993825316,1155.804584399797,None,1156.317341699265,None,1156.317341699265,None,n,0.01052509993314743,1156.317341699265,None,0.01052509993314743,,,108 sing,001,2022_Nov_29_1205,ProdSingRedoBetween,2021.2.3,60.236174050483854,
,,,,173,0,173,0,,,,,,,,,,,,,,,,,,,,,,1158.5533785996959,None,,,,,,,,,,,,,,,,,write,142,174,sing,new,null,1156.8657243996859,None,1156.8657243996859,None,1,0.9962330004200339,1156.8657243996859,None,0.9962330004200339,1157.8881404995918,None,1158.402160499245,None,1158.402160499245,None,n,0.1332029001787305,1158.402160499245,None,0.1332029001787305,,,108 sing,001,2022_Nov_29_1205,ProdSingRedoBetween,2021.2.3,60.236174050483854,
,,,,174,0,174,0,,,,,,,,,,,,,,,,,,,,,,1161.1727270996198,None,,,,,,,,,,,,,,,,,little,126,175,sing,new,null,1159.0571464998648,None,1159.0571464998648,None,1,1.0525460001081228,1159.0571464998648,None,1.0525460001081228,1160.13942770008,None,1160.6545338993892,None,1160.6545338993892,None,n,0.49067410081624985,1160.6545338993892,None,0.49067410081624985,,,108 sing,001,2022_Nov_29_1205,ProdSingRedoBetween,2021.2.3,60.236174050483854,
,,,,175,0,175,0,,,,,,,,,,,,,,,,,,,,,,1163.271601899527,None,,,,,,,,,,,,,,,,,meeting,114,176,sing,new,null,1161.6783689996228,None,1161.6783689996228,None,1,0.9288351004943252,1161.6783689996228,None,0.9288351004943252,1162.625051099807,None,1163.1294331997633,None,1163.1294331997633,None,n,0.10496409982442856,1163.1294331997633,None,0.10496409982442856,,,108 sing,001,2022_Nov_29_1205,ProdSingRedoBetween,2021.2.3,60.236174050483854,
,,,,176,0,176,0,,,,,,,,,,,,,,,,,,,,,,1165.5951298996806,None,,,,,,,,,,,,,,,,,carry,8,177,sing,old,yellow,1163.776631899178,None,1163.776631899178,None,3,1.2013731002807617,1163.776631899178,None,1.2013731002807617,1165.0140261994675,None,1165.5411672992632,None,1165.5411672992632,None,f,0.023138800635933876,1165.5411672992632,None,0.023138800635933876,,,108 sing,001,2022_Nov_29_1205,ProdSingRedoBetween,2021.2.3,60.236174050483854,
