StudyLoop.thisRepN,StudyLoop.thisTrialN,StudyLoop.thisN,StudyLoop.thisIndex,TestLoop.thisRepN,TestLoop.thisTrialN,TestLoop.thisN,TestLoop.thisIndex,textCondition.started,textCondition.stopped,keyCondition.keys,keyCondition.rt,keyCondition.started,keyCondition.stopped,Condition,textWelcome.started,textWelcome.stopped,keyWelcome.keys,keyWelcome.rt,keyWelcome.started,keyWelcome.stopped,textAloud.started,textAloud.stopped,textSilent.started,textSilent.stopped,textSing.started,textSing.stopped,conditional_text.started,conditional_text.stopped,textBlank500.started,textBlank500.stopped,study_word,study_num,study_order,study_type,word_color,textStudy.started,textStudy.stopped,keyStudy.keys,keyStudy.started,keyStudy.stopped,textTestInstructions.started,textTestInstructions.stopped,key_resp_3.keys,key_resp_3.rt,key_resp_3.started,key_resp_3.stopped,test_word,test_num,test_order,test_condition,old_new_test,test_word_original_color,textConf.started,textConf.stopped,textConfScale.started,textConfScale.stopped,keyConf.keys,keyConf.rt,keyConf.started,keyConf.stopped,confidence response time,textTestBlank.started,textTestBlank.stopped,textRKN.started,textRKN.stopped,textRKNScale.started,textRKNScale.stopped,keyRKN.keys,keyRKN.rt,keyRKN.started,keyRKN.stopped,rkn response time,textEnd.started,textEnd.stopped,participant,session,date,expName,psychopyVersion,frameRate,
,,,,,,,,223.4443822996691,None,a,147.90077069960535,223.4443822996691,None,,,,,,,,,,,,,,,,,,,,,,,,,,,,,,,,,,,,,,,,,,,,,,,,,,,,,,,,,,,,,,109 silent,001,2022_Nov_29_1227,ProdSingRedoBetween,2021.2.3,60.01381510378277,
,,,,,,,,,,,,,,SilentTest,371.3873761994764,None,space,5.825202199630439,371.3873761994764,None,,,,,,,,,,,,,,,,,,,,,,,,,,,,,,,,,,,,,,,,,,,,,,,,,,,,,,,109 silent,001,2022_Nov_29_1227,ProdSingRedoBetween,2021.2.3,60.01381510378277,
0,0,0,0,,,,,,,,,,,,,,,,,,371.3873761994764,None,371.3873761994764,None,371.3873761994764,None,371.3873761994764,None,379.7390707992017,None,close,3,1,silent,yellow,377.73857949953526,None,None,377.73857949953526,None,,,,,,,,,,,,,,,,,,,,,,,,,,,,,,,,,,,109 silent,001,2022_Nov_29_1227,ProdSingRedoBetween,2021.2.3,60.01381510378277,
1,0,1,0,,,,,,,,,,,,,,,,,,,,,,,,,,382.2410404998809,None,beauty,44,2,silent,blue,380.24072899948806,None,None,380.24072899948806,None,,,,,,,,,,,,,,,,,,,,,,,,,,,,,,,,,,,109 silent,001,2022_Nov_29_1227,ProdSingRedoBetween,2021.2.3,60.01381510378277,
2,0,2,0,,,,,,,,,,,,,,,,,,,,,,,,,,384.74410619959235,None,carry,36,3,silent,blue,382.74405719991773,None,None,382.74405719991773,None,,,,,,,,,,,,,,,,,,,,,,,,,,,,,,,,,,,109 silent,001,2022_Nov_29_1227,ProdSingRedoBetween,2021.2.3,60.01381510378277,
3,0,3,0,,,,,,,,,,,,,,,,,,,,,,,,,,387.2628194000572,None,crowd,47,4,silent,blue,385.24733429960907,None,None,385.24733429960907,None,,,,,,,,,,,,,,,,,,,,,,,,,,,,,,,,,,,109 silent,001,2022_Nov_29_1227,ProdSingRedoBetween,2021.2.3,60.01381510378277,
4,0,4,0,,,,,,,,,,,,,,,,,,,,,,,,,,389.78175489977,None,crisis,80,5,silent,red,387.7810260998085,None,None,387.7810260998085,None,,,,,,,,,,,,,,,,,,,,,,,,,,,,,,,,,,,109 silent,001,2022_Nov_29_1227,ProdSingRedoBetween,2021.2.3,60.01381510378277,
5,0,5,0,,,,,,,,,,,,,,,,,,,,,,,,,,392.2845659991726,None,grade,19,6,silent,yellow,390.28197199944407,None,None,390.28197199944407,None,,,,,,,,,,,,,,,,,,,,,,,,,,,,,,,,,,,109 silent,001,2022_Nov_29_1227,ProdSingRedoBetween,2021.2.3,60.01381510378277,
6,0,6,0,,,,,,,,,,,,,,,,,,,,,,,,,,394.78707579988986,None,guard,33,7,silent,blue,392.78740879986435,None,None,392.78740879986435,None,,,,,,,,,,,,,,,,,,,,,,,,,,,,,,,,,,,109 silent,001,2022_Nov_29_1227,ProdSingRedoBetween,2021.2.3,60.01381510378277,
7,0,7,0,,,,,,,,,,,,,,,,,,,,,,,,,,397.30631319992244,None,gesture,46,8,silent,blue,395.2910252995789,None,None,395.2910252995789,None,,,,,,,,,,,,,,,,,,,,,,,,,,,,,,,,,,,109 silent,001,2022_Nov_29_1227,ProdSingRedoBetween,2021.2.3,60.01381510378277,
8,0,8,0,,,,,,,,,,,,,,,,,,,,,,,,,,399.8087474992499,None,committee,40,9,silent,blue,397.80860270000994,None,None,397.80860270000994,None,,,,,,,,,,,,,,,,,,,,,,,,,,,,,,,,,,,109 silent,001,2022_Nov_29_1227,ProdSingRedoBetween,2021.2.3,60.01381510378277,
9,0,9,0,,,,,,,,,,,,,,,,,,,,,,,,,,402.32327719964087,None,short,14,10,silent,yellow,400.31264889985323,None,None,400.31264889985323,None,,,,,,,,,,,,,,,,,,,,,,,,,,,,,,,,,,,109 silent,001,2022_Nov_29_1227,ProdSingRedoBetween,2021.2.3,60.01381510378277,
10,0,10,0,,,,,,,,,,,,,,,,,,,,,,,,,,404.8306034998968,None,threat,68,11,silent,red,402.83094829972833,None,None,402.83094829972833,None,,,,,,,,,,,,,,,,,,,,,,,,,,,,,,,,,,,109 silent,001,2022_Nov_29_1227,ProdSingRedoBetween,2021.2.3,60.01381510378277,
11,0,11,0,,,,,,,,,,,,,,,,,,,,,,,,,,407.3333011996001,None,pressure,78,12,silent,red,405.33295119926333,None,None,405.33295119926333,None,,,,,,,,,,,,,,,,,,,,,,,,,,,,,,,,,,,109 silent,001,2022_Nov_29_1227,ProdSingRedoBetween,2021.2.3,60.01381510378277,
12,0,12,0,,,,,,,,,,,,,,,,,,,,,,,,,,409.8350637992844,None,childhood,74,13,silent,red,407.8358730999753,None,None,407.8358730999753,None,,,,,,,,,,,,,,,,,,,,,,,,,,,,,,,,,,,109 silent,001,2022_Nov_29_1227,ProdSingRedoBetween,2021.2.3,60.01381510378277,
13,0,13,0,,,,,,,,,,,,,,,,,,,,,,,,,,412.33795609977096,None,hearing,16,14,silent,yellow,410.3367351992056,None,None,410.3367351992056,None,,,,,,,,,,,,,,,,,,,,,,,,,,,,,,,,,,,109 silent,001,2022_Nov_29_1227,ProdSingRedoBetween,2021.2.3,60.01381510378277,
14,0,14,0,,,,,,,,,,,,,,,,,,,,,,,,,,414.84026269987226,None,health,10,15,silent,yellow,412.8409678991884,None,None,412.8409678991884,None,,,,,,,,,,,,,,,,,,,,,,,,,,,,,,,,,,,109 silent,001,2022_Nov_29_1227,ProdSingRedoBetween,2021.2.3,60.01381510378277,
15,0,15,0,,,,,,,,,,,,,,,,,,,,,,,,,,417.3591845994815,None,command,32,16,silent,blue,415.34351459983736,None,None,415.34351459983736,None,,,,,,,,,,,,,,,,,,,,,,,,,,,,,,,,,,,109 silent,001,2022_Nov_29_1227,ProdSingRedoBetween,2021.2.3,60.01381510378277,
16,0,16,0,,,,,,,,,,,,,,,,,,,,,,,,,,419.8791589997709,None,broke,37,17,silent,blue,417.86841669958085,None,None,417.86841669958085,None,,,,,,,,,,,,,,,,,,,,,,,,,,,,,,,,,,,109 silent,001,2022_Nov_29_1227,ProdSingRedoBetween,2021.2.3,60.01381510378277,
17,0,17,0,,,,,,,,,,,,,,,,,,,,,,,,,,422.38126619998366,None,match,77,18,silent,red,420.38030419964343,None,None,420.38030419964343,None,,,,,,,,,,,,,,,,,,,,,,,,,,,,,,,,,,,109 silent,001,2022_Nov_29_1227,ProdSingRedoBetween,2021.2.3,60.01381510378277,
18,0,18,0,,,,,,,,,,,,,,,,,,,,,,,,,,424.8835382992402,None,theme,54,19,silent,blue,422.88367229979485,None,None,422.88367229979485,None,,,,,,,,,,,,,,,,,,,,,,,,,,,,,,,,,,,109 silent,001,2022_Nov_29_1227,ProdSingRedoBetween,2021.2.3,60.01381510378277,
19,0,19,0,,,,,,,,,,,,,,,,,,,,,,,,,,427.3857609992847,None,colonel,7,20,silent,yellow,425.38703770004213,None,None,425.38703770004213,None,,,,,,,,,,,,,,,,,,,,,,,,,,,,,,,,,,,109 silent,001,2022_Nov_29_1227,ProdSingRedoBetween,2021.2.3,60.01381510378277,
20,0,20,0,,,,,,,,,,,,,,,,,,,,,,,,,,429.90496779978275,None,discovery,86,21,silent,red,427.8896351996809,None,None,427.8896351996809,None,,,,,,,,,,,,,,,,,,,,,,,,,,,,,,,,,,,109 silent,001,2022_Nov_29_1227,ProdSingRedoBetween,2021.2.3,60.01381510378277,
21,0,21,0,,,,,,,,,,,,,,,,,,,,,,,,,,432.4076799992472,None,present,17,22,silent,yellow,430.40569199994206,None,None,430.40569199994206,None,,,,,,,,,,,,,,,,,,,,,,,,,,,,,,,,,,,109 silent,001,2022_Nov_29_1227,ProdSingRedoBetween,2021.2.3,60.01381510378277,
22,0,22,0,,,,,,,,,,,,,,,,,,,,,,,,,,434.910318499431,None,surprise,89,23,silent,red,432.91019959934056,None,None,432.91019959934056,None,,,,,,,,,,,,,,,,,,,,,,,,,,,,,,,,,,,109 silent,001,2022_Nov_29_1227,ProdSingRedoBetween,2021.2.3,60.01381510378277,
23,0,23,0,,,,,,,,,,,,,,,,,,,,,,,,,,437.4124996997416,None,heavy,63,24,silent,red,435.4131519999355,None,None,435.4131519999355,None,,,,,,,,,,,,,,,,,,,,,,,,,,,,,,,,,,,109 silent,001,2022_Nov_29_1227,ProdSingRedoBetween,2021.2.3,60.01381510378277,
24,0,24,0,,,,,,,,,,,,,,,,,,,,,,,,,,439.9320923993364,None,husband,0,25,silent,yellow,437.91875549964607,None,None,437.91875549964607,None,,,,,,,,,,,,,,,,,,,,,,,,,,,,,,,,,,,109 silent,001,2022_Nov_29_1227,ProdSingRedoBetween,2021.2.3,60.01381510378277,
25,0,25,0,,,,,,,,,,,,,,,,,,,,,,,,,,442.4345305999741,None,region,88,26,silent,red,440.4322341000661,None,None,440.4322341000661,None,,,,,,,,,,,,,,,,,,,,,,,,,,,,,,,,,,,109 silent,001,2022_Nov_29_1227,ProdSingRedoBetween,2021.2.3,60.01381510378277,
26,0,26,0,,,,,,,,,,,,,,,,,,,,,,,,,,444.953388299793,None,school,75,27,silent,red,442.93908349983394,None,None,442.93908349983394,None,,,,,,,,,,,,,,,,,,,,,,,,,,,,,,,,,,,109 silent,001,2022_Nov_29_1227,ProdSingRedoBetween,2021.2.3,60.01381510378277,
27,0,27,0,,,,,,,,,,,,,,,,,,,,,,,,,,447.45855929981917,None,raise,13,28,silent,yellow,445.4550191992894,None,None,445.4550191992894,None,,,,,,,,,,,,,,,,,,,,,,,,,,,,,,,,,,,109 silent,001,2022_Nov_29_1227,ProdSingRedoBetween,2021.2.3,60.01381510378277,
28,0,28,0,,,,,,,,,,,,,,,,,,,,,,,,,,449.97486539930105,None,orchestra,82,29,silent,red,447.97339619975537,None,None,447.97339619975537,None,,,,,,,,,,,,,,,,,,,,,,,,,,,,,,,,,,,109 silent,001,2022_Nov_29_1227,ProdSingRedoBetween,2021.2.3,60.01381510378277,
29,0,29,0,,,,,,,,,,,,,,,,,,,,,,,,,,452.4778408994898,None,management,53,30,silent,blue,450.4775445992127,None,None,450.4775445992127,None,,,,,,,,,,,,,,,,,,,,,,,,,,,,,,,,,,,109 silent,001,2022_Nov_29_1227,ProdSingRedoBetween,2021.2.3,60.01381510378277,
30,0,30,0,,,,,,,,,,,,,,,,,,,,,,,,,,454.99683859944344,None,defeat,23,31,silent,yellow,452.9821310993284,None,None,452.9821310993284,None,,,,,,,,,,,,,,,,,,,,,,,,,,,,,,,,,,,109 silent,001,2022_Nov_29_1227,ProdSingRedoBetween,2021.2.3,60.01381510378277,
31,0,31,0,,,,,,,,,,,,,,,,,,,,,,,,,,457.4992202995345,None,trend,64,32,silent,red,455.49850509967655,None,None,455.49850509967655,None,,,,,,,,,,,,,,,,,,,,,,,,,,,,,,,,,,,109 silent,001,2022_Nov_29_1227,ProdSingRedoBetween,2021.2.3,60.01381510378277,
32,0,32,0,,,,,,,,,,,,,,,,,,,,,,,,,,460.00229759979993,None,bicycle,71,33,silent,red,458.00308699999005,None,None,458.00308699999005,None,,,,,,,,,,,,,,,,,,,,,,,,,,,,,,,,,,,109 silent,001,2022_Nov_29_1227,ProdSingRedoBetween,2021.2.3,60.01381510378277,
33,0,33,0,,,,,,,,,,,,,,,,,,,,,,,,,,462.50451119989157,None,safety,4,34,silent,yellow,460.5041640000418,None,None,460.5041640000418,None,,,,,,,,,,,,,,,,,,,,,,,,,,,,,,,,,,,109 silent,001,2022_Nov_29_1227,ProdSingRedoBetween,2021.2.3,60.01381510378277,
34,0,34,0,,,,,,,,,,,,,,,,,,,,,,,,,,465.00703299976885,None,chief,50,35,silent,blue,463.00783979985863,None,None,463.00783979985863,None,,,,,,,,,,,,,,,,,,,,,,,,,,,,,,,,,,,109 silent,001,2022_Nov_29_1227,ProdSingRedoBetween,2021.2.3,60.01381510378277,
35,0,35,0,,,,,,,,,,,,,,,,,,,,,,,,,,467.5093653993681,None,relation,56,36,silent,blue,465.50920919980854,None,None,465.50920919980854,None,,,,,,,,,,,,,,,,,,,,,,,,,,,,,,,,,,,109 silent,001,2022_Nov_29_1227,ProdSingRedoBetween,2021.2.3,60.01381510378277,
36,0,36,0,,,,,,,,,,,,,,,,,,,,,,,,,,470.0291385995224,None,religion,66,37,silent,red,468.012982099317,None,None,468.012982099317,None,,,,,,,,,,,,,,,,,,,,,,,,,,,,,,,,,,,109 silent,001,2022_Nov_29_1227,ProdSingRedoBetween,2021.2.3,60.01381510378277,
37,0,37,0,,,,,,,,,,,,,,,,,,,,,,,,,,472.5479568997398,None,split,22,38,silent,yellow,470.5336481994018,None,None,470.5336481994018,None,,,,,,,,,,,,,,,,,,,,,,,,,,,,,,,,,,,109 silent,001,2022_Nov_29_1227,ProdSingRedoBetween,2021.2.3,60.01381510378277,
38,0,38,0,,,,,,,,,,,,,,,,,,,,,,,,,,475.05031719990075,None,universal,26,39,silent,yellow,473.0497600995004,None,None,473.0497600995004,None,,,,,,,,,,,,,,,,,,,,,,,,,,,,,,,,,,,109 silent,001,2022_Nov_29_1227,ProdSingRedoBetween,2021.2.3,60.01381510378277,
39,0,39,0,,,,,,,,,,,,,,,,,,,,,,,,,,477.55495049990714,None,trail,34,40,silent,blue,475.55349059961736,None,None,475.55349059961736,None,,,,,,,,,,,,,,,,,,,,,,,,,,,,,,,,,,,109 silent,001,2022_Nov_29_1227,ProdSingRedoBetween,2021.2.3,60.01381510378277,
40,0,40,0,,,,,,,,,,,,,,,,,,,,,,,,,,480.0720926998183,None,speech,30,41,silent,blue,478.07074570003897,None,None,478.07074570003897,None,,,,,,,,,,,,,,,,,,,,,,,,,,,,,,,,,,,109 silent,001,2022_Nov_29_1227,ProdSingRedoBetween,2021.2.3,60.01381510378277,
41,0,41,0,,,,,,,,,,,,,,,,,,,,,,,,,,482.59327429998666,None,display,69,42,silent,red,480.5858832998201,None,None,480.5858832998201,None,,,,,,,,,,,,,,,,,,,,,,,,,,,,,,,,,,,109 silent,001,2022_Nov_29_1227,ProdSingRedoBetween,2021.2.3,60.01381510378277,
42,0,42,0,,,,,,,,,,,,,,,,,,,,,,,,,,485.0937161995098,None,property,45,43,silent,blue,483.09429419972,None,None,483.09429419972,None,,,,,,,,,,,,,,,,,,,,,,,,,,,,,,,,,,,109 silent,001,2022_Nov_29_1227,ProdSingRedoBetween,2021.2.3,60.01381510378277,
43,0,43,0,,,,,,,,,,,,,,,,,,,,,,,,,,487.5961414994672,None,skill,76,44,silent,red,485.59617229923606,None,None,485.59617229923606,None,,,,,,,,,,,,,,,,,,,,,,,,,,,,,,,,,,,109 silent,001,2022_Nov_29_1227,ProdSingRedoBetween,2021.2.3,60.01381510378277,
44,0,44,0,,,,,,,,,,,,,,,,,,,,,,,,,,490.09877639915794,None,trial,6,45,silent,yellow,488.0979868993163,None,None,488.0979868993163,None,,,,,,,,,,,,,,,,,,,,,,,,,,,,,,,,,,,109 silent,001,2022_Nov_29_1227,ProdSingRedoBetween,2021.2.3,60.01381510378277,
45,0,45,0,,,,,,,,,,,,,,,,,,,,,,,,,,492.6013920996338,None,measure,20,46,silent,yellow,490.60035050008446,None,None,490.60035050008446,None,,,,,,,,,,,,,,,,,,,,,,,,,,,,,,,,,,,109 silent,001,2022_Nov_29_1227,ProdSingRedoBetween,2021.2.3,60.01381510378277,
46,0,46,0,,,,,,,,,,,,,,,,,,,,,,,,,,495.10370639991015,None,corner,61,47,silent,red,493.10183599963784,None,None,493.10183599963784,None,,,,,,,,,,,,,,,,,,,,,,,,,,,,,,,,,,,109 silent,001,2022_Nov_29_1227,ProdSingRedoBetween,2021.2.3,60.01381510378277,
47,0,47,0,,,,,,,,,,,,,,,,,,,,,,,,,,497.60618449933827,None,medicine,65,48,silent,red,495.6057290993631,None,None,495.6057290993631,None,,,,,,,,,,,,,,,,,,,,,,,,,,,,,,,,,,,109 silent,001,2022_Nov_29_1227,ProdSingRedoBetween,2021.2.3,60.01381510378277,
48,0,48,0,,,,,,,,,,,,,,,,,,,,,,,,,,500.1087903995067,None,range,73,49,silent,red,498.1079543000087,None,None,498.1079543000087,None,,,,,,,,,,,,,,,,,,,,,,,,,,,,,,,,,,,109 silent,001,2022_Nov_29_1227,ProdSingRedoBetween,2021.2.3,60.01381510378277,
49,0,49,0,,,,,,,,,,,,,,,,,,,,,,,,,,502.611247099936,None,novel,2,50,silent,yellow,500.61084739957005,None,None,500.61084739957005,None,,,,,,,,,,,,,,,,,,,,,,,,,,,,,,,,,,,109 silent,001,2022_Nov_29_1227,ProdSingRedoBetween,2021.2.3,60.01381510378277,
50,0,50,0,,,,,,,,,,,,,,,,,,,,,,,,,,505.1136916000396,None,exchange,52,51,silent,blue,503.11345189996064,None,None,503.11345189996064,None,,,,,,,,,,,,,,,,,,,,,,,,,,,,,,,,,,,109 silent,001,2022_Nov_29_1227,ProdSingRedoBetween,2021.2.3,60.01381510378277,
51,0,51,0,,,,,,,,,,,,,,,,,,,,,,,,,,507.6158330999315,None,mayor,58,52,silent,blue,505.6159096993506,None,None,505.6159096993506,None,,,,,,,,,,,,,,,,,,,,,,,,,,,,,,,,,,,109 silent,001,2022_Nov_29_1227,ProdSingRedoBetween,2021.2.3,60.01381510378277,
52,0,52,0,,,,,,,,,,,,,,,,,,,,,,,,,,510.11856209952384,None,fellow,84,53,silent,red,508.11868959944695,None,None,508.11868959944695,None,,,,,,,,,,,,,,,,,,,,,,,,,,,,,,,,,,,109 silent,001,2022_Nov_29_1227,ProdSingRedoBetween,2021.2.3,60.01381510378277,
53,0,53,0,,,,,,,,,,,,,,,,,,,,,,,,,,512.6280469996855,None,budget,87,54,silent,red,510.6219620993361,None,None,510.6219620993361,None,,,,,,,,,,,,,,,,,,,,,,,,,,,,,,,,,,,109 silent,001,2022_Nov_29_1227,ProdSingRedoBetween,2021.2.3,60.01381510378277,
54,0,54,0,,,,,,,,,,,,,,,,,,,,,,,,,,515.1401776997373,None,escape,55,55,silent,blue,513.1402435991913,None,None,513.1402435991913,None,,,,,,,,,,,,,,,,,,,,,,,,,,,,,,,,,,,109 silent,001,2022_Nov_29_1227,ProdSingRedoBetween,2021.2.3,60.01381510378277,
55,0,55,0,,,,,,,,,,,,,,,,,,,,,,,,,,517.6425564996898,None,order,51,56,silent,blue,515.6434877999127,None,None,515.6434877999127,None,,,,,,,,,,,,,,,,,,,,,,,,,,,,,,,,,,,109 silent,001,2022_Nov_29_1227,ProdSingRedoBetween,2021.2.3,60.01381510378277,
56,0,56,0,,,,,,,,,,,,,,,,,,,,,,,,,,520.1454082997516,None,thing,35,57,silent,blue,518.1438394999132,None,None,518.1438394999132,None,,,,,,,,,,,,,,,,,,,,,,,,,,,,,,,,,,,109 silent,001,2022_Nov_29_1227,ProdSingRedoBetween,2021.2.3,60.01381510378277,
57,0,57,0,,,,,,,,,,,,,,,,,,,,,,,,,,522.6478132000193,None,point,38,58,silent,blue,520.6476788995788,None,None,520.6476788995788,None,,,,,,,,,,,,,,,,,,,,,,,,,,,,,,,,,,,109 silent,001,2022_Nov_29_1227,ProdSingRedoBetween,2021.2.3,60.01381510378277,
58,0,58,0,,,,,,,,,,,,,,,,,,,,,,,,,,525.150214499794,None,ground,9,59,silent,yellow,523.1492810994387,None,None,523.1492810994387,None,,,,,,,,,,,,,,,,,,,,,,,,,,,,,,,,,,,109 silent,001,2022_Nov_29_1227,ProdSingRedoBetween,2021.2.3,60.01381510378277,
59,0,59,0,,,,,,,,,,,,,,,,,,,,,,,,,,527.6527383998036,None,society,15,60,silent,yellow,525.6529777999967,None,None,525.6529777999967,None,,,,,,,,,,,,,,,,,,,,,,,,,,,,,,,,,,,109 silent,001,2022_Nov_29_1227,ProdSingRedoBetween,2021.2.3,60.01381510378277,
60,0,60,0,,,,,,,,,,,,,,,,,,,,,,,,,,530.1551997000352,None,problem,70,61,silent,red,528.1559488996863,None,None,528.1559488996863,None,,,,,,,,,,,,,,,,,,,,,,,,,,,,,,,,,,,109 silent,001,2022_Nov_29_1227,ProdSingRedoBetween,2021.2.3,60.01381510378277,
61,0,61,0,,,,,,,,,,,,,,,,,,,,,,,,,,532.6741039995104,None,under,48,62,silent,blue,530.6595858000219,None,None,530.6595858000219,None,,,,,,,,,,,,,,,,,,,,,,,,,,,,,,,,,,,109 silent,001,2022_Nov_29_1227,ProdSingRedoBetween,2021.2.3,60.01381510378277,
62,0,62,0,,,,,,,,,,,,,,,,,,,,,,,,,,535.1774728996679,None,solution,85,63,silent,red,533.175569999963,None,None,533.175569999963,None,,,,,,,,,,,,,,,,,,,,,,,,,,,,,,,,,,,109 silent,001,2022_Nov_29_1227,ProdSingRedoBetween,2021.2.3,60.01381510378277,
63,0,63,0,,,,,,,,,,,,,,,,,,,,,,,,,,537.6794135998935,None,route,18,64,silent,yellow,535.679050299339,None,None,535.679050299339,None,,,,,,,,,,,,,,,,,,,,,,,,,,,,,,,,,,,109 silent,001,2022_Nov_29_1227,ProdSingRedoBetween,2021.2.3,60.01381510378277,
64,0,64,0,,,,,,,,,,,,,,,,,,,,,,,,,,540.1822573998943,None,plane,24,65,silent,yellow,538.1822566995397,None,None,538.1822566995397,None,,,,,,,,,,,,,,,,,,,,,,,,,,,,,,,,,,,109 silent,001,2022_Nov_29_1227,ProdSingRedoBetween,2021.2.3,60.01381510378277,
65,0,65,0,,,,,,,,,,,,,,,,,,,,,,,,,,542.7007768992335,None,sound,83,66,silent,red,540.6868705991656,None,None,540.6868705991656,None,,,,,,,,,,,,,,,,,,,,,,,,,,,,,,,,,,,109 silent,001,2022_Nov_29_1227,ProdSingRedoBetween,2021.2.3,60.01381510378277,
66,0,66,0,,,,,,,,,,,,,,,,,,,,,,,,,,545.2032564999536,None,conference,12,67,silent,yellow,543.2036465993151,None,None,543.2036465993151,None,,,,,,,,,,,,,,,,,,,,,,,,,,,,,,,,,,,109 silent,001,2022_Nov_29_1227,ProdSingRedoBetween,2021.2.3,60.01381510378277,
67,0,67,0,,,,,,,,,,,,,,,,,,,,,,,,,,547.7226360999048,None,fashion,31,68,silent,blue,545.7132961992174,None,None,545.7132961992174,None,,,,,,,,,,,,,,,,,,,,,,,,,,,,,,,,,,,109 silent,001,2022_Nov_29_1227,ProdSingRedoBetween,2021.2.3,60.01381510378277,
68,0,68,0,,,,,,,,,,,,,,,,,,,,,,,,,,550.2253383994102,None,volume,60,69,silent,red,548.2236998993903,None,None,548.2236998993903,None,,,,,,,,,,,,,,,,,,,,,,,,,,,,,,,,,,,109 silent,001,2022_Nov_29_1227,ProdSingRedoBetween,2021.2.3,60.01381510378277,
69,0,69,0,,,,,,,,,,,,,,,,,,,,,,,,,,552.7277478994802,None,rural,43,70,silent,blue,550.7272764993832,None,None,550.7272764993832,None,,,,,,,,,,,,,,,,,,,,,,,,,,,,,,,,,,,109 silent,001,2022_Nov_29_1227,ProdSingRedoBetween,2021.2.3,60.01381510378277,
70,0,70,0,,,,,,,,,,,,,,,,,,,,,,,,,,555.2467308994383,None,background,42,71,silent,blue,553.2322541996837,None,None,553.2322541996837,None,,,,,,,,,,,,,,,,,,,,,,,,,,,,,,,,,,,109 silent,001,2022_Nov_29_1227,ProdSingRedoBetween,2021.2.3,60.01381510378277,
71,0,71,0,,,,,,,,,,,,,,,,,,,,,,,,,,557.7661449993029,None,benefit,81,72,silent,red,555.7511236993596,None,None,555.7511236993596,None,,,,,,,,,,,,,,,,,,,,,,,,,,,,,,,,,,,109 silent,001,2022_Nov_29_1227,ProdSingRedoBetween,2021.2.3,60.01381510378277,
72,0,72,0,,,,,,,,,,,,,,,,,,,,,,,,,,560.2689797999337,None,crime,59,73,silent,yellow,558.2690134998411,None,None,558.2690134998411,None,,,,,,,,,,,,,,,,,,,,,,,,,,,,,,,,,,,109 silent,001,2022_Nov_29_1227,ProdSingRedoBetween,2021.2.3,60.01381510378277,
73,0,73,0,,,,,,,,,,,,,,,,,,,,,,,,,,562.7709589991719,None,primary,67,74,silent,red,560.7712586000562,None,None,560.7712586000562,None,,,,,,,,,,,,,,,,,,,,,,,,,,,,,,,,,,,109 silent,001,2022_Nov_29_1227,ProdSingRedoBetween,2021.2.3,60.01381510378277,
74,0,74,0,,,,,,,,,,,,,,,,,,,,,,,,,,565.2736866995692,None,right,72,75,silent,red,563.2743766000494,None,None,563.2743766000494,None,,,,,,,,,,,,,,,,,,,,,,,,,,,,,,,,,,,109 silent,001,2022_Nov_29_1227,ProdSingRedoBetween,2021.2.3,60.01381510378277,
75,0,75,0,,,,,,,,,,,,,,,,,,,,,,,,,,567.7760827997699,None,testimony,27,76,silent,yellow,565.7764407992363,None,None,565.7764407992363,None,,,,,,,,,,,,,,,,,,,,,,,,,,,,,,,,,,,109 silent,001,2022_Nov_29_1227,ProdSingRedoBetween,2021.2.3,60.01381510378277,
76,0,76,0,,,,,,,,,,,,,,,,,,,,,,,,,,570.2954234993085,None,music,39,77,silent,blue,568.2808106997982,None,None,568.2808106997982,None,,,,,,,,,,,,,,,,,,,,,,,,,,,,,,,,,,,109 silent,001,2022_Nov_29_1227,ProdSingRedoBetween,2021.2.3,60.01381510378277,
77,0,77,0,,,,,,,,,,,,,,,,,,,,,,,,,,572.8144509000704,None,captain,8,78,silent,yellow,570.8006328996271,None,None,570.8006328996271,None,,,,,,,,,,,,,,,,,,,,,,,,,,,,,,,,,,,109 silent,001,2022_Nov_29_1227,ProdSingRedoBetween,2021.2.3,60.01381510378277,
78,0,78,0,,,,,,,,,,,,,,,,,,,,,,,,,,575.3166867997497,None,meeting,1,79,silent,yellow,573.3165963999927,None,None,573.3165963999927,None,,,,,,,,,,,,,,,,,,,,,,,,,,,,,,,,,,,109 silent,001,2022_Nov_29_1227,ProdSingRedoBetween,2021.2.3,60.01381510378277,
79,0,79,0,,,,,,,,,,,,,,,,,,,,,,,,,,577.8195156995207,None,character,21,80,silent,yellow,575.8193964995444,None,None,575.8193964995444,None,,,,,,,,,,,,,,,,,,,,,,,,,,,,,,,,,,,109 silent,001,2022_Nov_29_1227,ProdSingRedoBetween,2021.2.3,60.01381510378277,
80,0,80,0,,,,,,,,,,,,,,,,,,,,,,,,,,580.321608199738,None,quiet,11,81,silent,yellow,578.3223600992933,None,None,578.3223600992933,None,,,,,,,,,,,,,,,,,,,,,,,,,,,,,,,,,,,109 silent,001,2022_Nov_29_1227,ProdSingRedoBetween,2021.2.3,60.01381510378277,
81,0,81,0,,,,,,,,,,,,,,,,,,,,,,,,,,582.8243232993409,None,trash,29,82,silent,blue,580.822768099606,None,None,580.822768099606,None,,,,,,,,,,,,,,,,,,,,,,,,,,,,,,,,,,,109 silent,001,2022_Nov_29_1227,ProdSingRedoBetween,2021.2.3,60.01381510378277,
82,0,82,0,,,,,,,,,,,,,,,,,,,,,,,,,,585.326999399811,None,waste,41,83,silent,blue,583.3276974996552,None,None,583.3276974996552,None,,,,,,,,,,,,,,,,,,,,,,,,,,,,,,,,,,,109 silent,001,2022_Nov_29_1227,ProdSingRedoBetween,2021.2.3,60.01381510378277,
83,0,83,0,,,,,,,,,,,,,,,,,,,,,,,,,,587.8459806991741,None,stand,49,84,silent,blue,585.8307685991749,None,None,585.8307685991749,None,,,,,,,,,,,,,,,,,,,,,,,,,,,,,,,,,,,109 silent,001,2022_Nov_29_1227,ProdSingRedoBetween,2021.2.3,60.01381510378277,
84,0,84,0,,,,,,,,,,,,,,,,,,,,,,,,,,590.3653189996257,None,worker,5,85,silent,yellow,588.350713999942,None,None,588.350713999942,None,,,,,,,,,,,,,,,,,,,,,,,,,,,,,,,,,,,109 silent,001,2022_Nov_29_1227,ProdSingRedoBetween,2021.2.3,60.01381510378277,
85,0,85,0,,,,,,,,,,,,,,,,,,,,,,,,,,592.8675883999094,None,drink,62,86,silent,red,590.8661547992378,None,None,590.8661547992378,None,,,,,,,,,,,,,,,,,,,,,,,,,,,,,,,,,,,109 silent,001,2022_Nov_29_1227,ProdSingRedoBetween,2021.2.3,60.01381510378277,
86,0,86,0,,,,,,,,,,,,,,,,,,,,,,,,,,595.3868404999375,None,treatment,57,87,silent,blue,593.3726906999946,None,None,593.3726906999946,None,,,,,,,,,,,,,,,,,,,,,,,,,,,,,,,,,,,109 silent,001,2022_Nov_29_1227,ProdSingRedoBetween,2021.2.3,60.01381510378277,
87,0,87,0,,,,,,,,,,,,,,,,,,,,,,,,,,597.8897397993132,None,minute,28,88,silent,yellow,595.8896943992004,None,None,595.8896943992004,None,,,,,,,,,,,,,,,,,,,,,,,,,,,,,,,,,,,109 silent,001,2022_Nov_29_1227,ProdSingRedoBetween,2021.2.3,60.01381510378277,
88,0,88,0,,,,,,,,,,,,,,,,,,,,,,,,,,600.3916511991993,None,youth,25,89,silent,yellow,598.3917292999104,None,None,598.3917292999104,None,,,,,,,,,,,,,,,,,,,,,,,,,,,,,,,,,,,109 silent,001,2022_Nov_29_1227,ProdSingRedoBetween,2021.2.3,60.01381510378277,
89,0,89,0,,,,,,,,,,,,,,,,,,,,,,,,,,602.8939218996093,None,instrument,79,90,silent,red,600.8940594000742,None,None,600.8940594000742,None,,,,,,,,,,,,,,,,,,,,,,,,,,,,,,,,,,,109 silent,001,2022_Nov_29_1227,ProdSingRedoBetween,2021.2.3,60.01381510378277,
,,,,,,,,,,,,,,,,,,,,,,,,,,,,,,,,,,,,,,,,,603.3952144999057,None,k,60.843350399285555,603.3952144999057,None,,,,,,,,,,,,,,,,,,,,,,,,,,,,,109 silent,001,2022_Nov_29_1227,ProdSingRedoBetween,2021.2.3,60.01381510378277,
,,,,0,0,0,0,,,,,,,,,,,,,,,,,,,,,,681.8912626998499,None,,,,,,,,,,,,,,,,,angle,98,1,silent,new,null,664.7618200993165,None,664.7618200993165,None,1,10.61354300007224,664.7618200993165,None,10.61354300007224,675.4022730998695,None,675.91759369988,None,675.91759369988,None,r,5.944658099673688,675.91759369988,None,5.944658099673688,,,109 silent,001,2022_Nov_29_1227,ProdSingRedoBetween,2021.2.3,60.01381510378277,
,,,,1,0,1,0,,,,,,,,,,,,,,,,,,,,,,688.5300493994728,None,,,,,,,,,,,,,,,,,property,45,2,silent,old,blue,682.401021800004,None,682.401021800004,None,5,4.244991599582136,682.401021800004,None,4.244991599582136,686.6690916996449,None,687.1789454994723,None,687.1789454994723,None,f,1.3270533997565508,687.1789454994723,None,1.3270533997565508,,,109 silent,001,2022_Nov_29_1227,ProdSingRedoBetween,2021.2.3,60.01381510378277,
,,,,2,0,2,0,,,,,,,,,,,,,,,,,,,,,,694.9033915000036,None,,,,,,,,,,,,,,,,,couch,159,3,silent,new,null,689.0323310000822,None,689.0323310000822,None,1,4.1209579994902015,689.0323310000822,None,4.1209579994902015,693.1945452997461,None,693.7058170996606,None,693.7058170996606,None,r,1.166520900093019,693.7058170996606,None,1.166520900093019,,,109 silent,001,2022_Nov_29_1227,ProdSingRedoBetween,2021.2.3,60.01381510378277,
,,,,3,0,3,0,,,,,,,,,,,,,,,,,,,,,,700.042350099422,None,,,,,,,,,,,,,,,,,enemy,90,4,silent,new,null,695.4069342995062,None,695.4069342995062,None,2,3.588757799938321,695.4069342995062,None,3.588757799938321,699.025800799951,None,699.5407282998785,None,699.5407282998785,None,f,0.47901809960603714,699.5407282998785,None,0.47901809960603714,,,109 silent,001,2022_Nov_29_1227,ProdSingRedoBetween,2021.2.3,60.01381510378277,
,,,,4,0,4,0,,,,,,,,,,,,,,,,,,,,,,704.1143618999049,None,,,,,,,,,,,,,,,,,addition,114,5,silent,new,null,700.5439582997933,None,700.5439582997933,None,1,2.21811980009079,700.5439582997933,None,2.21811980009079,702.7815178995952,None,703.2950956998393,None,703.2950956998393,None,f,0.7986821001395583,703.2950956998393,None,0.7986821001395583,,,109 silent,001,2022_Nov_29_1227,ProdSingRedoBetween,2021.2.3,60.01381510378277,
,,,,5,0,5,0,,,,,,,,,,,,,,,,,,,,,,713.6724010994658,None,,,,,,,,,,,,,,,,,disease,165,6,silent,new,null,704.6315071992576,None,704.6315071992576,None,3,8.383355299942195,704.6315071992576,None,8.383355299942195,713.0405027000234,None,713.5545174991712,None,713.5545174991712,None,f,0.09728490002453327,713.5545174991712,None,0.09728490002453327,,,109 silent,001,2022_Nov_29_1227,ProdSingRedoBetween,2021.2.3,60.01381510378277,
,,,,6,0,6,0,,,,,,,,,,,,,,,,,,,,,,718.4268662994727,None,,,,,,,,,,,,,,,,,pattern,149,7,silent,new,null,714.1776658995077,None,714.1776658995077,None,4,2.120841800235212,714.1776658995077,None,2.120841800235212,716.3282471997663,None,716.8419460998848,None,716.8419460998848,None,f,1.5569748003035784,716.8419460998848,None,1.5569748003035784,,,109 silent,001,2022_Nov_29_1227,ProdSingRedoBetween,2021.2.3,60.01381510378277,
,,,,7,0,7,0,,,,,,,,,,,,,,,,,,,,,,724.9182659992948,None,,,,,,,,,,,,,,,,,orchestra,82,8,silent,old,red,718.9359619999304,None,718.9359619999304,None,6,2.2866147998720407,718.9359619999304,None,2.2866147998720407,721.2488070996478,None,721.7633400000632,None,721.7633400000632,None,r,3.1374221006408334,721.7633400000632,None,3.1374221006408334,,,109 silent,001,2022_Nov_29_1227,ProdSingRedoBetween,2021.2.3,60.01381510378277,
,,,,8,0,8,0,,,,,,,,,,,,,,,,,,,,,,733.7752217995003,None,,,,,,,,,,,,,,,,,division,162,9,silent,new,null,725.4437484992668,None,725.4437484992668,None,5,7.401772299781442,725.4437484992668,None,7.401772299781442,732.8782268995419,None,733.3919553998858,None,733.3919553998858,None,f,0.36167269945144653,733.3919553998858,None,0.36167269945144653,,,109 silent,001,2022_Nov_29_1227,ProdSingRedoBetween,2021.2.3,60.01381510378277,
,,,,9,0,9,0,,,,,,,,,,,,,,,,,,,,,,741.5997915994376,None,,,,,,,,,,,,,,,,,meeting,1,10,silent,old,yellow,734.2781618991867,None,734.2781618991867,None,2,5.499684700742364,734.2781618991867,None,5.499684700742364,739.8005892997608,None,740.3147412994877,None,740.3147412994877,None,f,1.2691003000363708,740.3147412994877,None,1.2691003000363708,,,109 silent,001,2022_Nov_29_1227,ProdSingRedoBetween,2021.2.3,60.01381510378277,
,,,,10,0,10,0,,,,,,,,,,,,,,,,,,,,,,744.9531274996698,None,,,,,,,,,,,,,,,,,display,69,11,silent,old,red,742.1095023993403,None,742.1095023993403,None,1,2.055863399989903,742.1095023993403,None,2.055863399989903,744.1885461993515,None,744.7028842000291,None,744.7028842000291,None,n,0.22705999948084354,744.7028842000291,None,0.22705999948084354,,,109 silent,001,2022_Nov_29_1227,ProdSingRedoBetween,2021.2.3,60.01381510378277,
,,,,11,0,11,0,,,,,,,,,,,,,,,,,,,,,,749.5596933998168,None,,,,,,,,,,,,,,,,,primary,67,12,silent,old,red,745.460709599778,None,745.460709599778,None,6,2.9010390006005764,745.460709599778,None,2.9010390006005764,748.3940950995311,None,748.9090494997799,None,748.9090494997799,None,r,0.6300142994150519,748.9090494997799,None,0.6300142994150519,,,109 silent,001,2022_Nov_29_1227,ProdSingRedoBetween,2021.2.3,60.01381510378277,
,,,,12,0,12,0,,,,,,,,,,,,,,,,,,,,,,753.01489929948,None,,,,,,,,,,,,,,,,,relation,56,13,silent,old,blue,750.0811318000779,None,750.0811318000779,None,1,2.0988995004445314,750.0811318000779,None,2.0988995004445314,752.2126098992303,None,752.7285333992913,None,752.7285333992913,None,n,0.2661223001778126,752.7285333992913,None,0.2661223001778126,,,109 silent,001,2022_Nov_29_1227,ProdSingRedoBetween,2021.2.3,60.01381510378277,
,,,,13,0,13,0,,,,,,,,,,,,,,,,,,,,,,758.1846752995625,None,,,,,,,,,,,,,,,,,benefit,81,14,silent,old,red,753.5301903998479,None,753.5301903998479,None,4,3.3782008001580834,753.5301903998479,None,3.3782008001580834,756.9345424994826,None,757.4573816992342,None,757.4573816992342,None,f,0.6971324998885393,757.4573816992342,None,0.6971324998885393,,,109 silent,001,2022_Nov_29_1227,ProdSingRedoBetween,2021.2.3,60.01381510378277,
,,,,14,0,14,0,,,,,,,,,,,,,,,,,,,,,,761.8567252997309,None,,,,,,,,,,,,,,,,,volume,60,15,silent,old,red,758.7138893995434,None,758.7138893995434,None,1,2.5700978999957442,758.7138893995434,None,2.5700978999957442,761.3044171994552,None,761.8217829000205,None,761.8217829000205,None,n,0.010318700224161148,761.8217829000205,None,0.010318700224161148,,,109 silent,001,2022_Nov_29_1227,ProdSingRedoBetween,2021.2.3,60.01381510378277,
,,,,15,0,15,0,,,,,,,,,,,,,,,,,,,,,,768.0098835993558,None,,,,,,,,,,,,,,,,,company,126,16,silent,new,null,762.3841648995876,None,762.3841648995876,None,2,4.564066399820149,762.3841648995876,None,4.564066399820149,766.9778133993968,None,767.4928350998089,None,767.4928350998089,None,f,0.49017110001295805,767.4928350998089,None,0.49017110001295805,,,109 silent,001,2022_Nov_29_1227,ProdSingRedoBetween,2021.2.3,60.01381510378277,
,,,,16,0,16,0,,,,,,,,,,,,,,,,,,,,,,771.5625164993107,None,,,,,,,,,,,,,,,,,bicycle,71,17,silent,old,red,768.5129326991737,None,768.5129326991737,None,6,1.7679751003161073,768.5129326991737,None,1.7679751003161073,770.3132377993315,None,770.8284871997312,None,770.8284871997312,None,r,0.7108443006873131,770.8284871997312,None,0.7108443006873131,,,109 silent,001,2022_Nov_29_1227,ProdSingRedoBetween,2021.2.3,60.01381510378277,
,,,,17,0,17,0,,,,,,,,,,,,,,,,,,,,,,774.0152797000483,None,,,,,,,,,,,,,,,,,place,95,18,silent,new,null,772.0667442996055,None,772.0667442996055,None,1,1.3656096002086997,772.0667442996055,None,1.3656096002086997,773.4500652998686,None,773.9655597992241,None,773.9655597992241,None,n,0.019962199963629246,773.9655597992241,None,0.019962199963629246,,,109 silent,001,2022_Nov_29_1227,ProdSingRedoBetween,2021.2.3,60.01381510378277,
,,,,18,0,18,0,,,,,,,,,,,,,,,,,,,,,,781.0900677992031,None,,,,,,,,,,,,,,,,,literature,172,19,silent,new,null,774.5179764991626,None,774.5179764991626,None,5,5.843442600220442,774.5179764991626,None,5.843442600220442,780.3903604000807,None,780.9069456998259,None,780.9069456998259,None,f,0.15268769953399897,780.9069456998259,None,0.15268769953399897,,,109 silent,001,2022_Nov_29_1227,ProdSingRedoBetween,2021.2.3,60.01381510378277,
,,,,19,0,19,0,,,,,,,,,,,,,,,,,,,,,,784.0097064999864,None,,,,,,,,,,,,,,,,,corner,61,20,silent,old,red,781.6075543994084,None,781.6075543994084,None,5,1.658228499814868,781.6075543994084,None,1.658228499814868,783.2987513998523,None,783.8076308993623,None,783.8076308993623,None,f,0.1848090998828411,783.8076308993623,None,0.1848090998828411,,,109 silent,001,2022_Nov_29_1227,ProdSingRedoBetween,2021.2.3,60.01381510378277,
,,,,20,0,20,0,,,,,,,,,,,,,,,,,,,,,,788.4265609998256,None,,,,,,,,,,,,,,,,,whole,148,21,silent,new,null,784.5168610997498,None,784.5168610997498,None,1,3.2290229005739093,784.5168610997498,None,3.2290229005739093,787.7640844993293,None,788.2835681000724,None,788.2835681000724,None,n,0.10846159979701042,788.2835681000724,None,0.10846159979701042,,,109 silent,001,2022_Nov_29_1227,ProdSingRedoBetween,2021.2.3,60.01381510378277,
,,,,21,0,21,0,,,,,,,,,,,,,,,,,,,,,,792.467997699976,None,,,,,,,,,,,,,,,,,budget,87,22,silent,old,red,788.936500299722,None,788.936500299722,None,4,1.9351748004555702,788.936500299722,None,1.9351748004555702,790.9046951998025,None,791.415563499555,None,791.415563499555,None,f,1.0333700999617577,791.415563499555,None,1.0333700999617577,,,109 silent,001,2022_Nov_29_1227,ProdSingRedoBetween,2021.2.3,60.01381510378277,
,,,,22,0,22,0,,,,,,,,,,,,,,,,,,,,,,797.659350999631,None,,,,,,,,,,,,,,,,,thing,35,23,silent,old,blue,792.9717627996579,None,792.9717627996579,None,1,4.067061600275338,792.9717627996579,None,4.067061600275338,797.0596697991714,None,797.5724299997091,None,797.5724299997091,None,n,0.06718759983778,797.5724299997091,None,0.06718759983778,,,109 silent,001,2022_Nov_29_1227,ProdSingRedoBetween,2021.2.3,60.01381510378277,
,,,,23,0,23,0,,,,,,,,,,,,,,,,,,,,,,800.1759627992287,None,,,,,,,,,,,,,,,,,research,155,24,silent,new,null,798.1750623993576,None,798.1750623993576,None,1,1.223294099792838,798.1750623993576,None,1.223294099792838,799.4265075996518,None,799.9411304993555,None,799.9411304993555,None,n,0.21178779937326908,799.9411304993555,None,0.21178779937326908,,,109 silent,001,2022_Nov_29_1227,ProdSingRedoBetween,2021.2.3,60.01381510378277,
,,,,24,0,24,0,,,,,,,,,,,,,,,,,,,,,,803.6789976991713,None,,,,,,,,,,,,,,,,,taste,128,25,silent,new,null,800.678488499485,None,800.678488499485,None,2,2.202913800254464,800.678488499485,None,2.202913800254464,802.9156036991626,None,803.4280527997762,None,803.4280527997762,None,f,0.22137249913066626,803.4280527997762,None,0.22137249913066626,,,109 silent,001,2022_Nov_29_1227,ProdSingRedoBetween,2021.2.3,60.01381510378277,
,,,,25,0,25,0,,,,,,,,,,,,,,,,,,,,,,807.0656515993178,None,,,,,,,,,,,,,,,,,notice,105,26,silent,new,null,804.1806744998321,None,804.1806744998321,None,1,2.0981339002028108,804.1806744998321,None,2.0981339002028108,806.2994756996632,None,806.8155843000859,None,806.8155843000859,None,n,0.2247954998165369,806.8155843000859,None,0.2247954998165369,,,109 silent,001,2022_Nov_29_1227,ProdSingRedoBetween,2021.2.3,60.01381510378277,
,,,,26,0,26,0,,,,,,,,,,,,,,,,,,,,,,814.1251077996567,None,,,,,,,,,,,,,,,,,present,17,27,silent,old,yellow,807.5679872995242,None,807.5679872995242,None,2,5.720925299450755,807.5679872995242,None,5.720925299450755,813.3110883999616,None,813.8218529997393,None,813.8218529997393,None,f,0.27781729958951473,813.8218529997393,None,0.27781729958951473,,,109 silent,001,2022_Nov_29_1227,ProdSingRedoBetween,2021.2.3,60.01381510378277,
,,,,27,0,27,0,,,,,,,,,,,,,,,,,,,,,,822.1318605998531,None,,,,,,,,,,,,,,,,,short,14,28,silent,old,yellow,814.6410863995552,None,814.6410863995552,None,3,5.773335299454629,814.6410863995552,None,5.773335299454629,820.4513388993219,None,820.9624130995944,None,820.9624130995944,None,f,1.1493463004007936,820.9624130995944,None,1.1493463004007936,,,109 silent,001,2022_Nov_29_1227,ProdSingRedoBetween,2021.2.3,60.01381510378277,
,,,,28,0,28,0,,,,,,,,,,,,,,,,,,,,,,825.2178609995171,None,,,,,,,,,,,,,,,,,poetry,152,29,silent,new,null,822.6493441993371,None,822.6493441993371,None,6,1.581224299967289,822.6493441993371,None,1.581224299967289,824.2520911991596,None,824.7653580000624,None,824.7653580000624,None,r,0.4259449001401663,824.7653580000624,None,0.4259449001401663,,,109 silent,001,2022_Nov_29_1227,ProdSingRedoBetween,2021.2.3,60.01381510378277,
,,,,29,0,29,0,,,,,,,,,,,,,,,,,,,,,,829.9390553999692,None,,,,,,,,,,,,,,,,,still,117,30,silent,new,null,825.7390861995518,None,825.7390861995518,None,4,3.6269173994660378,825.7390861995518,None,3.6269173994660378,829.3904219996184,None,829.9044945994392,None,829.9044945994392,None,f,0.00891450047492981,829.9044945994392,None,0.00891450047492981,,,109 silent,001,2022_Nov_29_1227,ProdSingRedoBetween,2021.2.3,60.01381510378277,
,,,,30,0,30,0,,,,,,,,,,,,,,,,,,,,,,833.0931095993146,None,,,,,,,,,,,,,,,,,block,103,31,silent,new,null,830.4564564991742,None,830.4564564991742,None,4,1.2611775994300842,830.4564564991742,None,1.2611775994300842,831.7427156995982,None,832.2640284998342,None,832.2640284998342,None,f,0.7981596998870373,832.2640284998342,None,0.7981596998870373,,,109 silent,001,2022_Nov_29_1227,ProdSingRedoBetween,2021.2.3,60.01381510378277,
,,,,31,0,31,0,,,,,,,,,,,,,,,,,,,,,,835.6451718993485,None,,,,,,,,,,,,,,,,,instrument,79,32,silent,old,red,833.6130158994347,None,833.6130158994347,None,6,1.1867415998131037,833.6130158994347,None,1.1867415998131037,834.8277312992141,None,835.3515653992072,None,835.3515653992072,None,r,0.2735372995957732,835.3515653992072,None,0.2735372995957732,,,109 silent,001,2022_Nov_29_1227,ProdSingRedoBetween,2021.2.3,60.01381510378277,
,,,,32,0,32,0,,,,,,,,,,,,,,,,,,,,,,838.9137768000364,None,,,,,,,,,,,,,,,,,period,107,33,silent,new,null,836.167165399529,None,836.167165399529,None,6,1.282197399996221,836.167165399529,None,1.282197399996221,837.4808051995933,None,837.9968403000385,None,837.9968403000385,None,r,0.8925767000764608,837.9968403000385,None,0.8925767000764608,,,109 silent,001,2022_Nov_29_1227,ProdSingRedoBetween,2021.2.3,60.01381510378277,
,,,,33,0,33,0,,,,,,,,,,,,,,,,,,,,,,841.8181722993031,None,,,,,,,,,,,,,,,,,report,124,34,silent,new,null,839.4164537992328,None,839.4164537992328,None,5,1.7598608992993832,839.4164537992328,None,1.7598608992993832,841.2018430996686,None,841.7165135992691,None,841.7165135992691,None,f,0.08014420047402382,841.7165135992691,None,0.08014420047402382,,,109 silent,001,2022_Nov_29_1227,ProdSingRedoBetween,2021.2.3,60.01381510378277,
,,,,34,0,34,0,,,,,,,,,,,,,,,,,,,,,,848.0195291992277,None,,,,,,,,,,,,,,,,,position,101,35,silent,new,null,842.3335141995922,None,842.3335141995922,None,2,4.885629899799824,842.3335141995922,None,4.885629899799824,847.2406713999808,None,847.7555482992902,None,847.7555482992902,None,f,0.2242689998820424,847.7555482992902,None,0.2242689998820424,,,109 silent,001,2022_Nov_29_1227,ProdSingRedoBetween,2021.2.3,60.01381510378277,
,,,,35,0,35,0,,,,,,,,,,,,,,,,,,,,,,850.6276754997671,None,,,,,,,,,,,,,,,,,sight,92,36,silent,new,null,848.5367370992899,None,848.5367370992899,None,1,1.4245705995708704,848.5367370992899,None,1.4245705995708704,850.0130659993738,None,850.5245930999517,None,850.5245930999517,None,n,0.07314859982579947,850.5245930999517,None,0.07314859982579947,,,109 silent,001,2022_Nov_29_1227,ProdSingRedoBetween,2021.2.3,60.01381510378277,
,,,,36,0,36,0,,,,,,,,,,,,,,,,,,,,,,853.9966361997649,None,,,,,,,,,,,,,,,,,theme,54,37,silent,old,blue,851.1491358000785,None,851.1491358000785,None,6,1.8676042994484305,851.1491358000785,None,1.8676042994484305,853.0473604993895,None,853.567551699467,None,853.567551699467,None,r,0.4059079000726342,853.567551699467,None,0.4059079000726342,,,109 silent,001,2022_Nov_29_1227,ProdSingRedoBetween,2021.2.3,60.01381510378277,
,,,,37,0,37,0,,,,,,,,,,,,,,,,,,,,,,856.532058599405,None,,,,,,,,,,,,,,,,,machinery,140,38,silent,new,null,854.5184792997316,None,854.5184792997316,None,1,1.4014969998970628,854.5184792997316,None,1.4014969998970628,855.9490392999724,None,856.4664213992655,None,856.4664213992655,None,n,0.04291529953479767,856.4664213992655,None,0.04291529953479767,,,109 silent,001,2022_Nov_29_1227,ProdSingRedoBetween,2021.2.3,60.01381510378277,
,,,,38,0,38,0,,,,,,,,,,,,,,,,,,,,,,860.9040717994794,None,,,,,,,,,,,,,,,,,society,15,39,silent,old,yellow,857.0538475997746,None,857.0538475997746,None,4,1.793606599792838,857.0538475997746,None,1.793606599792838,858.87296509929,None,859.3833272000775,None,859.3833272000775,None,f,1.4942602002993226,859.3833272000775,None,1.4942602002993226,,,109 silent,001,2022_Nov_29_1227,ProdSingRedoBetween,2021.2.3,60.01381510378277,
,,,,39,0,39,0,,,,,,,,,,,,,,,,,,,,,,864.7072255993262,None,,,,,,,,,,,,,,,,,defeat,23,40,silent,old,yellow,861.4331981996074,None,861.4331981996074,None,3,2.582440299913287,861.4331981996074,None,2.582440299913287,864.0397725999355,None,864.5406561996788,None,864.5406561996788,None,f,0.13841680064797401,864.5406561996788,None,0.13841680064797401,,,109 silent,001,2022_Nov_29_1227,ProdSingRedoBetween,2021.2.3,60.01381510378277,
,,,,40,0,40,0,,,,,,,,,,,,,,,,,,,,,,867.4412823999301,None,,,,,,,,,,,,,,,,,raise,13,41,silent,old,yellow,865.2157832998782,None,865.2157832998782,None,3,1.5411881003528833,865.2157832998782,None,1.5411881003528833,866.7765798000619,None,867.29314089939,None,867.29314089939,None,f,0.11908870004117489,867.29314089939,None,0.11908870004117489,,,109 silent,001,2022_Nov_29_1227,ProdSingRedoBetween,2021.2.3,60.01381510378277,
,,,,41,0,41,0,,,,,,,,,,,,,,,,,,,,,,871.3638067999855,None,,,,,,,,,,,,,,,,,comedy,157,42,silent,new,null,867.9441794995219,None,867.9441794995219,None,1,1.5201212000101805,867.9441794995219,None,1.5201212000101805,869.4979039998725,None,870.0114568993449,None,870.0114568993449,None,n,1.3196513997390866,870.0114568993449,None,1.3196513997390866,,,109 silent,001,2022_Nov_29_1227,ProdSingRedoBetween,2021.2.3,60.01381510378277,
,,,,42,0,42,0,,,,,,,,,,,,,,,,,,,,,,873.9283826993778,None,,,,,,,,,,,,,,,,,beauty,44,43,silent,old,blue,871.8816189998761,None,871.8816189998761,None,6,1.4248502003028989,871.8816189998761,None,1.4248502003028989,873.3401929996908,None,873.8502036994323,None,873.8502036994323,None,r,0.046072700060904026,873.8502036994323,None,0.046072700060904026,,,109 silent,001,2022_Nov_29_1227,ProdSingRedoBetween,2021.2.3,60.01381510378277,
,,,,43,0,43,0,,,,,,,,,,,,,,,,,,,,,,877.1860377993435,None,,,,,,,,,,,,,,,,,mayor,58,44,silent,old,blue,874.4361534994096,None,874.4361534994096,None,1,1.329495799727738,874.4361534994096,None,1.329495799727738,875.7853127997369,None,876.3070893995464,None,876.3070893995464,None,n,0.8527164999395609,876.3070893995464,None,0.8527164999395609,,,109 silent,001,2022_Nov_29_1227,ProdSingRedoBetween,2021.2.3,60.01381510378277,
,,,,44,0,44,0,,,,,,,,,,,,,,,,,,,,,,879.905096099712,None,,,,,,,,,,,,,,,,,crowd,47,45,silent,old,blue,877.703954000026,None,877.703954000026,None,6,1.4634691998362541,877.703954000026,None,1.4634691998362541,879.1896106991917,None,879.7040887996554,None,879.7040887996554,None,r,0.17178890015929937,879.7040887996554,None,0.17178890015929937,,,109 silent,001,2022_Nov_29_1227,ProdSingRedoBetween,2021.2.3,60.01381510378277,
,,,,45,0,45,0,,,,,,,,,,,,,,,,,,,,,,882.958455699496,None,,,,,,,,,,,,,,,,,citizen,116,46,silent,new,null,880.4289707997814,None,880.4289707997814,None,3,1.9055215995758772,880.4289707997814,None,1.9055215995758772,882.3586106998846,None,882.8734626993537,None,882.8734626993537,None,f,0.054548999294638634,882.8734626993537,None,0.054548999294638634,,,109 silent,001,2022_Nov_29_1227,ProdSingRedoBetween,2021.2.3,60.01381510378277,
,,,,46,0,46,0,,,,,,,,,,,,,,,,,,,,,,887.129168599844,None,,,,,,,,,,,,,,,,,exchange,52,47,silent,old,blue,883.4602520996705,None,883.4602520996705,None,4,2.945491099730134,883.4602520996705,None,2.945491099730134,886.4355822997168,None,886.9492055000737,None,886.9492055000737,None,f,0.1598869999870658,886.9492055000737,None,0.1598869999870658,,,109 silent,001,2022_Nov_29_1227,ProdSingRedoBetween,2021.2.3,60.01381510378277,
,,,,47,0,47,0,,,,,,,,,,,,,,,,,,,,,,890.083249299787,None,,,,,,,,,,,,,,,,,court,93,48,silent,new,null,887.6333880992606,None,887.6333880992606,None,2,1.7445402005687356,887.6333880992606,None,1.7445402005687356,889.4018558999524,None,889.9139327993616,None,889.9139327993616,None,f,0.1516626998782158,889.9139327993616,None,0.1516626998782158,,,109 silent,001,2022_Nov_29_1227,ProdSingRedoBetween,2021.2.3,60.01381510378277,
,,,,48,0,48,0,,,,,,,,,,,,,,,,,,,,,,893.0000788997859,None,,,,,,,,,,,,,,,,,surprise,89,49,silent,old,red,890.6029662992805,None,890.6029662992805,None,6,1.8154469998553395,890.6029662992805,None,1.8154469998553395,892.4526582993567,None,892.9669942995533,None,892.9669942995533,None,r,0.009115000255405903,892.9669942995533,None,0.009115000255405903,,,109 silent,001,2022_Nov_29_1227,ProdSingRedoBetween,2021.2.3,60.01381510378277,
,,,,49,0,49,0,,,,,,,,,,,,,,,,,,,,,,897.307046899572,None,,,,,,,,,,,,,,,,,running,154,50,silent,new,null,893.5011871000752,None,893.5011871000752,None,5,3.147414700128138,893.5011871000752,None,3.147414700128138,896.6756579000503,None,897.1881291000172,None,897.1881291000172,None,f,0.09503150079399347,897.1881291000172,None,0.09503150079399347,,,109 silent,001,2022_Nov_29_1227,ProdSingRedoBetween,2021.2.3,60.01381510378277,
,,,,50,0,50,0,,,,,,,,,,,,,,,,,,,,,,904.9264485994354,None,,,,,,,,,,,,,,,,,department,115,51,silent,new,null,897.8251771992072,None,897.8251771992072,None,4,6.146414599381387,897.8251771992072,None,6.146414599381387,903.9973649000749,None,904.5123198991641,None,904.5123198991641,None,f,0.3735582996159792,904.5123198991641,None,0.3735582996159792,,,109 silent,001,2022_Nov_29_1227,ProdSingRedoBetween,2021.2.3,60.01381510378277,
,,,,51,0,51,0,,,,,,,,,,,,,,,,,,,,,,907.5331740994006,None,,,,,,,,,,,,,,,,,direction,100,52,silent,new,null,905.4322207998484,None,905.4322207998484,None,4,1.360945399850607,905.4322207998484,None,1.360945399850607,906.8172402000055,None,907.3310538996011,None,907.3310538996011,None,f,0.17315699998289347,907.3310538996011,None,0.17315699998289347,,,109 silent,001,2022_Nov_29_1227,ProdSingRedoBetween,2021.2.3,60.01381510378277,
,,,,52,0,52,0,,,,,,,,,,,,,,,,,,,,,,910.4932172996923,None,,,,,,,,,,,,,,,,,suspect,97,53,silent,new,null,908.0375529993325,None,908.0375529993325,None,1,1.807842499576509,908.0375529993325,None,1.807842499576509,909.8705396000296,None,910.3926208997145,None,910.3926208997145,None,n,0.07001850008964539,910.3926208997145,None,0.07001850008964539,,,109 silent,001,2022_Nov_29_1227,ProdSingRedoBetween,2021.2.3,60.01381510378277,
,,,,53,0,53,0,,,,,,,,,,,,,,,,,,,,,,913.1254274994135,None,,,,,,,,,,,,,,,,,safety,4,54,silent,old,yellow,911.0203048000112,None,911.0203048000112,None,6,1.448858399875462,911.0203048000112,None,1.448858399875462,912.4891822999343,None,913.0043771993369,None,913.0043771993369,None,r,0.09736650064587593,913.0043771993369,None,0.09736650064587593,,,109 silent,001,2022_Nov_29_1227,ProdSingRedoBetween,2021.2.3,60.01381510378277,
,,,,54,0,54,0,,,,,,,,,,,,,,,,,,,,,,916.3088857000694,None,,,,,,,,,,,,,,,,,little,145,55,silent,new,null,913.642661399208,None,913.642661399208,None,6,1.8460870999842882,913.642661399208,None,1.8460870999842882,915.5077984994277,None,916.0241775000468,None,916.0241775000468,None,r,0.26646379940211773,916.0241775000468,None,0.26646379940211773,,,109 silent,001,2022_Nov_29_1227,ProdSingRedoBetween,2021.2.3,60.01381510378277,
,,,,55,0,55,0,,,,,,,,,,,,,,,,,,,,,,918.8786675995216,None,,,,,,,,,,,,,,,,,skill,76,56,silent,old,red,916.8305407995358,None,916.8305407995358,None,1,1.4389219004660845,916.8305407995358,None,1.4389219004660845,918.2996408995241,None,918.8133845999837,None,918.8133845999837,None,n,0.03971210028976202,918.8133845999837,None,0.03971210028976202,,,109 silent,001,2022_Nov_29_1227,ProdSingRedoBetween,2021.2.3,60.01381510378277,
,,,,56,0,56,0,,,,,,,,,,,,,,,,,,,,,,922.4472570996732,None,,,,,,,,,,,,,,,,,charter,106,57,silent,new,null,919.4003130998462,None,919.4003130998462,None,4,2.291362199932337,919.4003130998462,None,2.291362199932337,921.7203380996361,None,922.2295035999268,None,922.2295035999268,None,f,0.19580739922821522,922.2295035999268,None,0.19580739922821522,,,109 silent,001,2022_Nov_29_1227,ProdSingRedoBetween,2021.2.3,60.01381510378277,
,,,,57,0,57,0,,,,,,,,,,,,,,,,,,,,,,927.7689758995548,None,,,,,,,,,,,,,,,,,trash,29,58,silent,old,blue,922.9513721996918,None,922.9513721996918,None,3,4.142620399594307,922.9513721996918,None,4.142620399594307,927.1205807998776,None,927.6354561997578,None,927.6354561997578,None,f,0.11014639958739281,927.6354561997578,None,0.11014639958739281,,,109 silent,001,2022_Nov_29_1227,ProdSingRedoBetween,2021.2.3,60.01381510378277,
,,,,58,0,58,0,,,,,,,,,,,,,,,,,,,,,,931.357519899495,None,,,,,,,,,,,,,,,,,shape,137,59,silent,new,null,928.2717627994716,None,928.2717627994716,None,3,1.5034217005595565,928.2717627994716,None,1.5034217005595565,929.8061067992821,None,930.3215528000146,None,930.3215528000146,None,f,1.0116805005818605,930.3215528000146,None,1.0116805005818605,,,109 silent,001,2022_Nov_29_1227,ProdSingRedoBetween,2021.2.3,60.01381510378277,
,,,,59,0,59,0,,,,,,,,,,,,,,,,,,,,,,935.4273104993626,None,,,,,,,,,,,,,,,,,ground,9,60,silent,old,yellow,931.8738935999572,None,931.8738935999572,None,3,2.8286856999620795,931.8738935999572,None,2.8286856999620795,934.7500151991844,None,935.2624128991738,None,935.2624128991738,None,f,0.14548770058900118,935.2624128991738,None,0.14548770058900118,,,109 silent,001,2022_Nov_29_1227,ProdSingRedoBetween,2021.2.3,60.01381510378277,
,,,,60,0,60,0,,,,,,,,,,,,,,,,,,,,,,939.61488049943,None,,,,,,,,,,,,,,,,,heavy,63,61,silent,old,red,935.9489902993664,None,935.9489902993664,None,1,1.9160973001271486,935.9489902993664,None,1.9160973001271486,937.9010038999841,None,938.4145663995296,None,938.4145663995296,None,n,1.16734809987247,938.4145663995296,None,1.16734809987247,,,109 silent,001,2022_Nov_29_1227,ProdSingRedoBetween,2021.2.3,60.01381510378277,
,,,,61,0,61,0,,,,,,,,,,,,,,,,,,,,,,943.2137912996113,None,,,,,,,,,,,,,,,,,atmosphere,112,62,silent,new,null,940.1326511995867,None,940.1326511995867,None,1,2.350735899992287,940.1326511995867,None,2.350735899992287,942.5033863000572,None,943.0234465999529,None,943.0234465999529,None,n,0.15390259958803654,943.0234465999529,None,0.15390259958803654,,,109 silent,001,2022_Nov_29_1227,ProdSingRedoBetween,2021.2.3,60.01381510378277,
,,,,62,0,62,0,,,,,,,,,,,,,,,,,,,,,,945.5208026999608,None,,,,,,,,,,,,,,,,,republic,163,63,silent,new,null,943.7260306999087,None,943.7260306999087,None,1,1.1777330003678799,943.7260306999087,None,1.1777330003678799,944.9244797993451,None,945.4366099992767,None,945.4366099992767,None,n,0.05258179921656847,945.4366099992767,None,0.05258179921656847,,,109 silent,001,2022_Nov_29_1227,ProdSingRedoBetween,2021.2.3,60.01381510378277,
,,,,63,0,63,0,,,,,,,,,,,,,,,,,,,,,,948.6574042998254,None,,,,,,,,,,,,,,,,,trial,6,64,silent,old,yellow,946.0298921996728,None,946.0298921996728,None,6,1.2100459998473525,946.0298921996728,None,1.2100459998473525,947.2730077998713,None,947.7900737999007,None,947.7900737999007,None,r,0.8375241998583078,947.7900737999007,None,0.8375241998583078,,,109 silent,001,2022_Nov_29_1227,ProdSingRedoBetween,2021.2.3,60.01381510378277,
,,,,64,0,64,0,,,,,,,,,,,,,,,,,,,,,,953.6788094993681,None,,,,,,,,,,,,,,,,,under,48,65,silent,old,blue,949.1580404993147,None,949.1580404993147,None,2,3.0572196999564767,949.1580404993147,None,3.0572196999564767,952.2456756997854,None,952.7604322992265,None,952.7604322992265,None,f,0.8948727007955313,952.7604322992265,None,0.8948727007955313,,,109 silent,001,2022_Nov_29_1227,ProdSingRedoBetween,2021.2.3,60.01381510378277,
,,,,65,0,65,0,,,,,,,,,,,,,,,,,,,,,,957.0816226992756,None,,,,,,,,,,,,,,,,,executive,127,66,silent,new,null,954.1823928998783,None,954.1823928998783,None,1,1.3853360991925001,954.1823928998783,None,1.3853360991925001,955.5992613993585,None,956.1138039994985,None,956.1138039994985,None,n,0.9489837996661663,956.1138039994985,None,0.9489837996661663,,,109 silent,001,2022_Nov_29_1227,ProdSingRedoBetween,2021.2.3,60.01381510378277,
,,,,66,0,66,0,,,,,,,,,,,,,,,,,,,,,,960.2526026992127,None,,,,,,,,,,,,,,,,,quiet,11,67,silent,old,yellow,957.5834102993831,None,957.5834102993831,None,6,1.2975532002747059,957.5834102993831,None,1.2975532002747059,958.9016068000346,None,959.417070299387,None,959.417070299387,None,r,0.8093122001737356,959.417070299387,None,0.8093122001737356,,,109 silent,001,2022_Nov_29_1227,ProdSingRedoBetween,2021.2.3,60.01381510378277,
,,,,67,0,67,0,,,,,,,,,,,,,,,,,,,,,,965.3240962000564,None,,,,,,,,,,,,,,,,,broke,37,68,silent,old,blue,960.7734570996836,None,960.7734570996836,None,4,3.0956434002146125,960.7734570996836,None,3.0956434002146125,963.89198249951,None,964.4055882999673,None,964.4055882999673,None,f,0.8944314997643232,964.4055882999673,None,0.8944314997643232,,,109 silent,001,2022_Nov_29_1227,ProdSingRedoBetween,2021.2.3,60.01381510378277,
,,,,68,0,68,0,,,,,,,,,,,,,,,,,,,,,,968.6955653000623,None,,,,,,,,,,,,,,,,,dance,160,69,silent,new,null,965.8292613998055,None,965.8292613998055,None,1,1.6013740999624133,965.8292613998055,None,1.6013740999624133,967.4611047999933,None,967.979609400034,None,967.979609400034,None,n,0.6859020004048944,967.979609400034,None,0.6859020004048944,,,109 silent,001,2022_Nov_29_1227,ProdSingRedoBetween,2021.2.3,60.01381510378277,
,,,,69,0,69,0,,,,,,,,,,,,,,,,,,,,,,971.5921272998676,None,,,,,,,,,,,,,,,,,weight,121,70,silent,new,null,969.2291371999308,None,969.2291371999308,None,2,1.6306312000378966,969.2291371999308,None,1.6306312000378966,970.8803260000423,None,971.3974573994055,None,971.3974573994055,None,f,0.16651420015841722,971.3974573994055,None,0.16651420015841722,,,109 silent,001,2022_Nov_29_1227,ProdSingRedoBetween,2021.2.3,60.01381510378277,
,,,,70,0,70,0,,,,,,,,,,,,,,,,,,,,,,973.8823007997125,None,,,,,,,,,,,,,,,,,article,169,71,silent,new,null,972.1006136992946,None,972.1006136992946,None,2,1.1736941002309322,972.1006136992946,None,1.1736941002309322,973.2992589995265,None,973.8143238993362,None,973.8143238993362,None,f,0.04491399973630905,973.8143238993362,None,0.04491399973630905,,,109 silent,001,2022_Nov_29_1227,ProdSingRedoBetween,2021.2.3,60.01381510378277,
,,,,71,0,71,0,,,,,,,,,,,,,,,,,,,,,,977.1178954998031,None,,,,,,,,,,,,,,,,,search,109,72,silent,new,null,974.3905215999112,None,974.3905215999112,None,1,1.6270947996526957,974.3905215999112,None,1.6270947996526957,976.0361993992701,None,976.5550791993737,None,976.5550791993737,None,n,0.5368298003450036,976.5550791993737,None,0.5368298003450036,,,109 silent,001,2022_Nov_29_1227,ProdSingRedoBetween,2021.2.3,60.01381510378277,
,,,,72,0,72,0,,,,,,,,,,,,,,,,,,,,,,979.5068633994088,None,,,,,,,,,,,,,,,,,captain,8,73,silent,old,yellow,977.6274700993672,None,977.6274700993672,None,1,1.262032000347972,977.6274700993672,None,1.262032000347972,978.9256384000182,None,979.4377375999466,None,979.4377375999466,None,n,0.044323500245809555,979.4377375999466,None,0.044323500245809555,,,109 silent,001,2022_Nov_29_1227,ProdSingRedoBetween,2021.2.3,60.01381510378277,
,,,,73,0,73,0,,,,,,,,,,,,,,,,,,,,,,981.8912404999137,None,,,,,,,,,,,,,,,,,curve,104,74,silent,new,null,980.0234324997291,None,980.0234324997291,None,1,1.2002822998911142,980.0234324997291,None,1.2002822998911142,981.2619899995625,None,981.7750576995313,None,981.7750576995313,None,n,0.08299150038510561,981.7750576995313,None,0.08299150038510561,,,109 silent,001,2022_Nov_29_1227,ProdSingRedoBetween,2021.2.3,60.01381510378277,
,,,,74,0,74,0,,,,,,,,,,,,,,,,,,,,,,984.9610107997432,None,,,,,,,,,,,,,,,,,break,151,75,silent,new,null,982.4132304992527,None,982.4132304992527,None,4,1.7373289996758103,982.4132304992527,None,1.7373289996758103,984.1917949998751,None,984.6933978991583,None,984.6933978991583,None,f,0.24463550001382828,984.6933978991583,None,0.24463550001382828,,,109 silent,001,2022_Nov_29_1227,ProdSingRedoBetween,2021.2.3,60.01381510378277,
,,,,75,0,75,0,,,,,,,,,,,,,,,,,,,,,,987.8298309994861,None,,,,,,,,,,,,,,,,,power,147,76,silent,new,null,985.4779753992334,None,985.4779753992334,None,1,1.2960921004414558,985.4779753992334,None,1.2960921004414558,986.7964017996565,None,987.3113809991628,None,987.3113809991628,None,n,0.49447720032185316,987.3113809991628,None,0.49447720032185316,,,109 silent,001,2022_Nov_29_1227,ProdSingRedoBetween,2021.2.3,60.01381510378277,
,,,,76,0,76,0,,,,,,,,,,,,,,,,,,,,,,994.0393195999786,None,,,,,,,,,,,,,,,,,management,53,77,silent,old,blue,988.3347557000816,None,988.3347557000816,None,6,4.839819299988449,988.3347557000816,None,4.839819299988449,993.2097793994471,None,993.7170362994075,None,993.7170362994075,None,r,0.29234599974006414,993.7170362994075,None,0.29234599974006414,,,109 silent,001,2022_Nov_29_1227,ProdSingRedoBetween,2021.2.3,60.01381510378277,
,,,,77,0,77,0,,,,,,,,,,,,,,,,,,,,,,996.78941919934,None,,,,,,,,,,,,,,,,,general,175,78,silent,new,null,994.5531764999032,None,994.5531764999032,None,6,1.5066458992660046,994.5531764999032,None,1.5066458992660046,996.0919365994632,None,996.6045178994536,None,996.6045178994536,None,r,0.15445519983768463,996.6045178994536,None,0.15445519983768463,,,109 silent,001,2022_Nov_29_1227,ProdSingRedoBetween,2021.2.3,60.01381510378277,
,,,,78,0,78,0,,,,,,,,,,,,,,,,,,,,,,1000.425948199816,None,,,,,,,,,,,,,,,,,production,153,79,silent,new,null,997.318416999653,None,997.318416999653,None,3,2.5141441002488136,997.318416999653,None,2.5141441002488136,999.8603872992098,None,1000.3764014998451,None,1000.3764014998451,None,f,0.02176749985665083,1000.3764014998451,None,0.02176749985665083,,,109 silent,001,2022_Nov_29_1227,ProdSingRedoBetween,2021.2.3,60.01381510378277,
,,,,79,0,79,0,,,,,,,,,,,,,,,,,,,,,,1003.644834799692,None,,,,,,,,,,,,,,,,,scale,94,80,silent,new,null,1000.9461587993428,None,1000.9461587993428,None,6,1.5444141998887062,1000.9461587993428,None,1.5444141998887062,1002.5108946999535,None,1003.0156240994111,None,1003.0156240994111,None,r,0.6012270003557205,1003.0156240994111,None,0.6012270003557205,,,109 silent,001,2022_Nov_29_1227,ProdSingRedoBetween,2021.2.3,60.01381510378277,
,,,,80,0,80,0,,,,,,,,,,,,,,,,,,,,,,1006.0979186994955,None,,,,,,,,,,,,,,,,,bureau,150,81,silent,new,null,1004.1496984995902,None,1004.1496984995902,None,1,1.3202935000881553,1004.1496984995902,None,1.3202935000881553,1005.4993588998914,None,1006.0131001994014,None,1006.0131001994014,None,n,0.053267999552190304,1006.0131001994014,None,0.053267999552190304,,,109 silent,001,2022_Nov_29_1227,ProdSingRedoBetween,2021.2.3,60.01381510378277,
,,,,81,0,81,0,,,,,,,,,,,,,,,,,,,,,,1008.4170127995312,None,,,,,,,,,,,,,,,,,turkey,131,82,silent,new,null,1006.6172110000625,None,1006.6172110000625,None,1,1.0907972995191813,1006.6172110000625,None,1.0907972995191813,1007.7351278997958,None,1008.2528804000467,None,1008.2528804000467,None,n,0.1440014000982046,1008.2528804000467,None,0.1440014000982046,,,109 silent,001,2022_Nov_29_1227,ProdSingRedoBetween,2021.2.3,60.01381510378277,
,,,,82,0,82,0,,,,,,,,,,,,,,,,,,,,,,1011.6700788000599,None,,,,,,,,,,,,,,,,,strain,176,83,silent,new,null,1008.934855199419,None,1008.934855199419,None,4,1.9732707999646664,1008.934855199419,None,1.9732707999646664,1010.9366051992401,None,1011.4524136995897,None,1011.4524136995897,None,f,0.19254769943654537,1011.4524136995897,None,0.19254769943654537,,,109 silent,001,2022_Nov_29_1227,ProdSingRedoBetween,2021.2.3,60.01381510378277,
,,,,83,0,83,0,,,,,,,,,,,,,,,,,,,,,,1014.9402369996533,None,,,,,,,,,,,,,,,,,conference,12,84,silent,old,yellow,1012.1750367991626,None,1012.1750367991626,None,5,1.2796299001201987,1012.1750367991626,None,1.2796299001201987,1013.4737251000479,None,1013.9882160993293,None,1013.9882160993293,None,f,0.9255844997242093,1013.9882160993293,None,0.9255844997242093,,,109 silent,001,2022_Nov_29_1227,ProdSingRedoBetween,2021.2.3,60.01381510378277,
,,,,84,0,84,0,,,,,,,,,,,,,,,,,,,,,,1017.5938636995852,None,,,,,,,,,,,,,,,,,school,75,85,silent,old,red,1015.4581463998184,None,1015.4581463998184,None,6,1.0136442994698882,1015.4581463998184,None,1.0136442994698882,1016.4949374999851,None,1017.0077499998733,None,1017.0077499998733,None,r,0.5666498998180032,1017.0077499998733,None,0.5666498998180032,,,109 silent,001,2022_Nov_29_1227,ProdSingRedoBetween,2021.2.3,60.01381510378277,
,,,,85,0,85,0,,,,,,,,,,,,,,,,,,,,,,1020.212162300013,None,,,,,,,,,,,,,,,,,childhood,74,86,silent,old,red,1018.1123430998996,None,1018.1123430998996,None,6,1.3177321003749967,1018.1123430998996,None,1.3177321003749967,1019.4814865998924,None,1019.9959210995585,None,1019.9959210995585,None,r,0.19885069970041513,1019.9959210995585,None,0.19885069970041513,,,109 silent,001,2022_Nov_29_1227,ProdSingRedoBetween,2021.2.3,60.01381510378277,
,,,,86,0,86,0,,,,,,,,,,,,,,,,,,,,,,1024.1153140999377,None,,,,,,,,,,,,,,,,,trend,64,87,silent,old,red,1020.7290854994208,None,1020.7290854994208,None,3,2.4174965005367994,1020.7290854994208,None,2.4174965005367994,1023.1682770997286,None,1023.6818863991648,None,1023.6818863991648,None,f,0.4039086000993848,1023.6818863991648,None,0.4039086000993848,,,109 silent,001,2022_Nov_29_1227,ProdSingRedoBetween,2021.2.3,60.01381510378277,
,,,,87,0,87,0,,,,,,,,,,,,,,,,,,,,,,1028.0364549998194,None,,,,,,,,,,,,,,,,,fashion,31,88,silent,old,blue,1024.6168126994744,None,1024.6168126994744,None,2,2.7024816991761327,1024.6168126994744,None,2.7024816991761327,1027.3367995992303,None,1027.8519624993205,None,1027.8519624993205,None,f,0.15611920040100813,1027.8519624993205,None,0.15611920040100813,,,109 silent,001,2022_Nov_29_1227,ProdSingRedoBetween,2021.2.3,60.01381510378277,
,,,,88,0,88,0,,,,,,,,,,,,,,,,,,,,,,1031.0228617992252,None,,,,,,,,,,,,,,,,,rural,43,89,silent,old,blue,1028.546219099313,None,1028.546219099313,None,6,1.2609201995655894,1028.546219099313,None,1.2609201995655894,1029.8389663994312,None,1030.3618843993172,None,1030.3618843993172,None,r,0.6356659000739455,1030.3618843993172,None,0.6356659000739455,,,109 silent,001,2022_Nov_29_1227,ProdSingRedoBetween,2021.2.3,60.01381510378277,
,,,,89,0,89,0,,,,,,,,,,,,,,,,,,,,,,1033.8260368993506,None,,,,,,,,,,,,,,,,,threat,68,90,silent,old,red,1031.5300425998867,None,1031.5300425998867,None,6,1.4954458000138402,1031.5300425998867,None,1.4954458000138402,1033.0592485992238,None,1033.5764497993514,None,1033.5764497993514,None,r,0.23269009962677956,1033.5764497993514,None,0.23269009962677956,,,109 silent,001,2022_Nov_29_1227,ProdSingRedoBetween,2021.2.3,60.01381510378277,
,,,,90,0,90,0,,,,,,,,,,,,,,,,,,,,,,1037.6474287994206,None,,,,,,,,,,,,,,,,,stand,49,91,silent,old,blue,1034.34283379931,None,1034.34283379931,None,5,1.6303404998034239,1034.34283379931,None,1.6303404998034239,1035.9963794993237,None,1036.5110176000744,None,1036.5110176000744,None,f,1.1092859003692865,1036.5110176000744,None,1.1092859003692865,,,109 silent,001,2022_Nov_29_1227,ProdSingRedoBetween,2021.2.3,60.01381510378277,
,,,,91,0,91,0,,,,,,,,,,,,,,,,,,,,,,1040.9338355995715,None,,,,,,,,,,,,,,,,,universal,26,92,silent,old,yellow,1038.1650058999658,None,1038.1650058999658,None,6,2.0387760996818542,1038.1650058999658,None,2.0387760996818542,1040.2355330996215,None,1040.7518724994734,None,1040.7518724994734,None,r,0.1579974004998803,1040.7518724994734,None,0.1579974004998803,,,109 silent,001,2022_Nov_29_1227,ProdSingRedoBetween,2021.2.3,60.01381510378277,
,,,,92,0,92,0,,,,,,,,,,,,,,,,,,,,,,1043.5857239998877,None,,,,,,,,,,,,,,,,,chief,50,93,silent,old,blue,1041.4522969992831,None,1041.4522969992831,None,6,1.3282177997753024,1041.4522969992831,None,1.3282177997753024,1042.8033802993596,None,1043.3174379998818,None,1043.3174379998818,None,r,0.24806270003318787,1043.3174379998818,None,0.24806270003318787,,,109 silent,001,2022_Nov_29_1227,ProdSingRedoBetween,2021.2.3,60.01381510378277,
,,,,93,0,93,0,,,,,,,,,,,,,,,,,,,,,,1046.757121999748,None,,,,,,,,,,,,,,,,,number,122,94,silent,new,null,1044.1035874998197,None,1044.1035874998197,None,4,1.9984313007444143,1044.1035874998197,None,1.9984313007444143,1046.1235531996936,None,1046.640619199723,None,1046.640619199723,None,f,0.09371659997850657,1046.640619199723,None,0.09371659997850657,,,109 silent,001,2022_Nov_29_1227,ProdSingRedoBetween,2021.2.3,60.01381510378277,
,,,,94,0,94,0,,,,,,,,,,,,,,,,,,,,,,1049.1203626999632,None,,,,,,,,,,,,,,,,,harmony,119,95,silent,new,null,1047.2726813992485,None,1047.2726813992485,None,1,1.218005900271237,1047.2726813992485,None,1.218005900271237,1048.5251809991896,None,1049.0500205997378,None,1049.0500205997378,None,n,0.03917299956083298,1049.0500205997378,None,0.03917299956083298,,,109 silent,001,2022_Nov_29_1227,ProdSingRedoBetween,2021.2.3,60.01381510378277,
,,,,95,0,95,0,,,,,,,,,,,,,,,,,,,,,,1051.7269971994683,None,,,,,,,,,,,,,,,,,provision,173,96,silent,new,null,1049.6302159000188,None,1049.6302159000188,None,2,1.3773223999887705,1049.6302159000188,None,1.3773223999887705,1051.0291928993538,None,1051.5439091995358,None,1051.5439091995358,None,f,0.155268800444901,1051.5439091995358,None,0.155268800444901,,,109 silent,001,2022_Nov_29_1227,ProdSingRedoBetween,2021.2.3,60.01381510378277,
,,,,96,0,96,0,,,,,,,,,,,,,,,,,,,,,,1054.3933913996443,None,,,,,,,,,,,,,,,,,colonel,7,97,silent,old,yellow,1052.2456397991627,None,1052.2456397991627,None,6,1.2090066000819206,1052.2456397991627,None,1.2090066000819206,1053.480879499577,None,1053.994105199352,None,1053.994105199352,None,r,0.35371700022369623,1053.994105199352,None,0.35371700022369623,,,109 silent,001,2022_Nov_29_1227,ProdSingRedoBetween,2021.2.3,60.01381510378277,
,,,,97,0,97,0,,,,,,,,,,,,,,,,,,,,,,1057.5777129000053,None,,,,,,,,,,,,,,,,,cousin,139,98,silent,new,null,1054.9058489995077,None,1054.9058489995077,None,3,2.0571564994752407,1054.9058489995077,None,2.0571564994752407,1056.98287229985,None,1057.5118186995387,None,1057.5118186995387,None,f,0.026397299952805042,1057.5118186995387,None,0.026397299952805042,,,109 silent,001,2022_Nov_29_1227,ProdSingRedoBetween,2021.2.3,60.01381510378277,
,,,,98,0,98,0,,,,,,,,,,,,,,,,,,,,,,1062.705282099545,None,,,,,,,,,,,,,,,,,escape,55,99,silent,old,blue,1058.0881735999137,None,1058.0881735999137,None,6,3.3593819001689553,1058.0881735999137,None,3.3593819001689553,1061.4710723999888,None,1061.9872230999172,None,1061.9872230999172,None,r,0.6908779004588723,1061.9872230999172,None,0.6908779004588723,,,109 silent,001,2022_Nov_29_1227,ProdSingRedoBetween,2021.2.3,60.01381510378277,
,,,,99,0,99,0,,,,,,,,,,,,,,,,,,,,,,1066.1570442998782,None,,,,,,,,,,,,,,,,,object,91,100,silent,new,null,1063.2327557997778,None,1063.2327557997778,None,1,1.3945580003783107,1063.2327557997778,None,1.3945580003783107,1064.660470799543,None,1065.172926299274,None,1065.172926299274,None,n,0.9524264000356197,1065.172926299274,None,0.9524264000356197,,,109 silent,001,2022_Nov_29_1227,ProdSingRedoBetween,2021.2.3,60.01381510378277,
,,,,100,0,100,0,,,,,,,,,,,,,,,,,,,,,,1068.622657599859,None,,,,,,,,,,,,,,,,,surface,134,101,silent,new,null,1066.6595183992758,None,1066.6595183992758,None,2,1.2370739998295903,1066.6595183992758,None,1.2370739998295903,1067.9336738996208,None,1068.4423046996817,None,1068.4423046996817,None,f,0.14401219971477985,1068.4423046996817,None,0.14401219971477985,,,109 silent,001,2022_Nov_29_1227,ProdSingRedoBetween,2021.2.3,60.01381510378277,
,,,,101,0,101,0,,,,,,,,,,,,,,,,,,,,,,1071.7638880992308,None,,,,,,,,,,,,,,,,,piece,111,102,silent,new,null,1069.1282652998343,None,1069.1282652998343,None,1,1.6026018001139164,1069.1282652998343,None,1.6026018001139164,1070.767945099622,None,1071.2790142996237,None,1071.2790142996237,None,n,0.4641193998977542,1071.2790142996237,None,0.4641193998977542,,,109 silent,001,2022_Nov_29_1227,ProdSingRedoBetween,2021.2.3,60.01381510378277,
,,,,102,0,102,0,,,,,,,,,,,,,,,,,,,,,,1074.3835183000192,None,,,,,,,,,,,,,,,,,route,18,103,silent,old,yellow,1072.2709198994562,None,1072.2709198994562,None,6,1.5022791000083089,1072.2709198994562,None,1.5022791000083089,1073.8001137999818,None,1074.3144911993295,None,1074.3144911993295,None,r,0.043925000354647636,1074.3144911993295,None,0.043925000354647636,,,109 silent,001,2022_Nov_29_1227,ProdSingRedoBetween,2021.2.3,60.01381510378277,
,,,,103,0,103,0,,,,,,,,,,,,,,,,,,,,,,1078.0369925992563,None,,,,,,,,,,,,,,,,,background,42,104,silent,old,blue,1074.9014409994707,None,1074.9014409994707,None,3,2.2138438001275063,1074.9014409994707,None,2.2138438001275063,1077.1388125000522,None,1077.653007899411,None,1077.653007899411,None,f,0.35779890045523643,1077.653007899411,None,0.35779890045523643,,,109 silent,001,2022_Nov_29_1227,ProdSingRedoBetween,2021.2.3,60.01381510378277,
,,,,104,0,104,0,,,,,,,,,,,,,,,,,,,,,,1081.132505999878,None,,,,,,,,,,,,,,,,,country,158,105,silent,new,null,1078.5661035999656,None,1078.5661035999656,None,5,1.8607879001647234,1078.5661035999656,None,1.8607879001647234,1080.4562617996708,None,1080.9767702994868,None,1080.9767702994868,None,f,0.11695520021021366,1080.9767702994868,None,0.11695520021021366,,,109 silent,001,2022_Nov_29_1227,ProdSingRedoBetween,2021.2.3,60.01381510378277,
,,,,105,0,105,0,,,,,,,,,,,,,,,,,,,,,,1083.5768408998847,None,,,,,,,,,,,,,,,,,waste,41,106,silent,old,blue,1081.6480994997546,None,1081.6480994997546,None,5,1.2918606996536255,1081.6480994997546,None,1.2918606996536255,1082.9652197994292,None,1083.4736361000687,None,1083.4736361000687,None,f,0.07772869989275932,1083.4736361000687,None,0.07772869989275932,,,109 silent,001,2022_Nov_29_1227,ProdSingRedoBetween,2021.2.3,60.01381510378277,
,,,,106,0,106,0,,,,,,,,,,,,,,,,,,,,,,1086.1069926992059,None,,,,,,,,,,,,,,,,,collection,130,107,silent,new,null,1084.1022528000176,None,1084.1022528000176,None,5,1.2315547000616789,1084.1022528000176,None,1.2315547000616789,1085.3673264998943,None,1085.8782629994676,None,1085.8782629994676,None,f,0.19569179974496365,1085.8782629994676,None,0.19569179974496365,,,109 silent,001,2022_Nov_29_1227,ProdSingRedoBetween,2021.2.3,60.01381510378277,
,,,,107,0,107,0,,,,,,,,,,,,,,,,,,,,,,1088.664517399855,None,,,,,,,,,,,,,,,,,height,133,108,silent,new,null,1086.6271810000762,None,1086.6271810000762,None,6,1.3836604999378324,1086.6271810000762,None,1.3836604999378324,1088.030055899173,None,1088.5428043995053,None,1088.5428043995053,None,r,0.09909319970756769,1088.5428043995053,None,0.09909319970756769,,,109 silent,001,2022_Nov_29_1227,ProdSingRedoBetween,2021.2.3,60.01381510378277,
,,,,108,0,108,0,,,,,,,,,,,,,,,,,,,,,,1095.3208080995828,None,,,,,,,,,,,,,,,,,crime,59,109,silent,old,yellow,1089.1876369994134,None,1089.1876369994134,None,3,5.467071800492704,1089.1876369994134,None,5.467071800492704,1094.6894266000018,None,1095.203833299689,None,1095.203833299689,None,f,0.09189069923013449,1095.203833299689,None,0.09189069923013449,,,109 silent,001,2022_Nov_29_1227,ProdSingRedoBetween,2021.2.3,60.01381510378277,
,,,,109,0,109,0,,,,,,,,,,,,,,,,,,,,,,1097.63839059975,None,,,,,,,,,,,,,,,,,motion,120,110,silent,new,null,1095.837520999834,None,1095.837520999834,None,4,1.1130892001092434,1095.837520999834,None,1.1130892001092434,1096.97194249928,None,1097.4724383000284,None,1097.4724383000284,None,f,0.14224150031805038,1097.4724383000284,None,0.14224150031805038,,,109 silent,001,2022_Nov_29_1227,ProdSingRedoBetween,2021.2.3,60.01381510378277,
,,,,110,0,110,0,,,,,,,,,,,,,,,,,,,,,,1100.3758293995634,None,,,,,,,,,,,,,,,,,plane,24,111,silent,old,yellow,1098.1566584995016,None,1098.1566584995016,None,4,1.5914613995701075,1098.1566584995016,None,1.5914613995701075,1099.7775123994797,None,1100.290905999951,None,1100.290905999951,None,f,0.05676159914582968,1100.290905999951,None,0.05676159914582968,,,109 silent,001,2022_Nov_29_1227,ProdSingRedoBetween,2021.2.3,60.01381510378277,
,,,,111,0,111,0,,,,,,,,,,,,,,,,,,,,,,1103.044862699695,None,,,,,,,,,,,,,,,,,carry,36,112,silent,old,blue,1100.8930763993412,None,1100.8930763993412,None,5,1.534527499228716,1100.8930763993412,None,1.534527499228716,1102.4615608993918,None,1102.9769027000293,None,1102.9769027000293,None,f,0.0380836995318532,1102.9769027000293,None,0.0380836995318532,,,109 silent,001,2022_Nov_29_1227,ProdSingRedoBetween,2021.2.3,60.01381510378277,
,,,,112,0,112,0,,,,,,,,,,,,,,,,,,,,,,1106.4494195999578,None,,,,,,,,,,,,,,,,,trail,34,113,silent,old,blue,1103.5624679997563,None,1103.5624679997563,None,3,2.0224173003807664,1103.5624679997563,None,2.0224173003807664,1105.620293699205,None,1106.1298247994855,None,1106.1298247994855,None,f,0.29860319942235947,1106.1298247994855,None,0.29860319942235947,,,109 silent,001,2022_Nov_29_1227,ProdSingRedoBetween,2021.2.3,60.01381510378277,
,,,,113,0,113,0,,,,,,,,,,,,,,,,,,,,,,1109.1180277997628,None,,,,,,,,,,,,,,,,,working,161,114,silent,new,null,1106.9668339993805,None,1106.9668339993805,None,1,1.2403052998706698,1106.9668339993805,None,1.2403052998706698,1108.2477357992902,None,1108.760037199594,None,1108.760037199594,None,n,0.3274018997326493,1108.760037199594,None,0.3274018997326493,,,109 silent,001,2022_Nov_29_1227,ProdSingRedoBetween,2021.2.3,60.01381510378277,
,,,,114,0,114,0,,,,,,,,,,,,,,,,,,,,,,1112.986372099258,None,,,,,,,,,,,,,,,,,pressure,78,115,silent,old,red,1109.6356194000691,None,1109.6356194000691,None,6,1.8883838998153806,1109.6356194000691,None,1.8883838998153806,1111.5683165993541,None,1112.0700829997659,None,1112.0700829997659,None,r,0.891669999808073,1112.0700829997659,None,0.891669999808073,,,109 silent,001,2022_Nov_29_1227,ProdSingRedoBetween,2021.2.3,60.01381510378277,
,,,,115,0,115,0,,,,,,,,,,,,,,,,,,,,,,1115.9576312992722,None,,,,,,,,,,,,,,,,,discussion,138,116,silent,new,null,1113.4889726992697,None,1113.4889726992697,None,1,1.7693376997485757,1113.4889726992697,None,1.7693376997485757,1115.290116599761,None,1115.7924309000373,None,1115.7924309000373,None,n,0.13289160002022982,1115.7924309000373,None,0.13289160002022982,,,109 silent,001,2022_Nov_29_1227,ProdSingRedoBetween,2021.2.3,60.01381510378277,
,,,,116,0,116,0,,,,,,,,,,,,,,,,,,,,,,1119.0233937995508,None,,,,,,,,,,,,,,,,,right,72,117,silent,old,red,1116.4751742994413,None,1116.4751742994413,None,1,1.8570961002260447,1116.4751742994413,None,1.8570961002260447,1118.3833353994414,None,1118.8931518997997,None,1118.8931518997997,None,n,0.09432159923017025,1118.8931518997997,None,0.09432159923017025,,,109 silent,001,2022_Nov_29_1227,ProdSingRedoBetween,2021.2.3,60.01381510378277,
,,,,117,0,117,0,,,,,,,,,,,,,,,,,,,,,,1121.7630610000342,None,,,,,,,,,,,,,,,,,treatment,57,118,silent,old,blue,1119.5269489996135,None,1119.5269489996135,None,5,1.472838300280273,1119.5269489996135,None,1.472838300280273,1121.0296763991937,None,1121.5296369995922,None,1121.5296369995922,None,f,0.20249800011515617,1121.5296369995922,None,0.20249800011515617,,,109 silent,001,2022_Nov_29_1227,ProdSingRedoBetween,2021.2.3,60.01381510378277,
,,,,118,0,118,0,,,,,,,,,,,,,,,,,,,,,,1124.5835040993989,None,,,,,,,,,,,,,,,,,sound,83,119,silent,old,red,1122.2674976000562,None,1122.2674976000562,None,5,1.6501345997676253,1122.2674976000562,None,1.6501345997676253,1123.9494809992611,None,1124.469695199281,None,1124.469695199281,None,f,0.0675919996574521,1124.469695199281,None,0.0675919996574521,,,109 silent,001,2022_Nov_29_1227,ProdSingRedoBetween,2021.2.3,60.01381510378277,
,,,,119,0,119,0,,,,,,,,,,,,,,,,,,,,,,1127.1872592996806,None,,,,,,,,,,,,,,,,,express,102,120,silent,new,null,1125.1161626996472,None,1125.1161626996472,None,2,1.4483404997736216,1125.1161626996472,None,1.4483404997736216,1126.5858333995566,None,1127.1046346994117,None,1127.1046346994117,None,f,0.055448499508202076,1127.1046346994117,None,0.055448499508202076,,,109 silent,001,2022_Nov_29_1227,ProdSingRedoBetween,2021.2.3,60.01381510378277,
,,,,120,0,120,0,,,,,,,,,,,,,,,,,,,,,,1130.5069046998397,None,,,,,,,,,,,,,,,,,drink,62,121,silent,old,red,1127.7217840999365,None,1127.7217840999365,None,1,2.1509622000157833,1127.7217840999365,None,2.1509622000157833,1129.9057584991679,None,1130.4266079999506,None,1130.4266079999506,None,n,0.05626329965889454,1130.4266079999506,None,0.05626329965889454,,,109 silent,001,2022_Nov_29_1227,ProdSingRedoBetween,2021.2.3,60.01381510378277,
,,,,121,0,121,0,,,,,,,,,,,,,,,,,,,,,,1140.8650508997962,None,,,,,,,,,,,,,,,,,command,32,122,silent,old,blue,1131.0242812000215,None,1131.0242812000215,None,3,8.168395899236202,1131.0242812000215,None,8.168395899236202,1139.214046199806,None,1139.7165250992402,None,1139.7165250992402,None,f,1.1214679004624486,1139.7165250992402,None,1.1214679004624486,,,109 silent,001,2022_Nov_29_1227,ProdSingRedoBetween,2021.2.3,60.01381510378277,
,,,,122,0,122,0,,,,,,,,,,,,,,,,,,,,,,1143.5541628999636,None,,,,,,,,,,,,,,,,,engineer,171,123,silent,new,null,1141.3668983997777,None,1141.3668983997777,None,6,1.5010801004245877,1141.3668983997777,None,1.5010801004245877,1142.90751349926,None,1143.4190634991974,None,1143.4190634991974,None,r,0.10492790024727583,1143.4190634991974,None,0.10492790024727583,,,109 silent,001,2022_Nov_29_1227,ProdSingRedoBetween,2021.2.3,60.01381510378277,
,,,,123,0,123,0,,,,,,,,,,,,,,,,,,,,,,1145.9532198999077,None,,,,,,,,,,,,,,,,,character,21,124,silent,old,yellow,1144.0711087994277,None,1144.0711087994277,None,6,1.0625910004600883,1144.0711087994277,None,1.0625910004600883,1145.157427500002,None,1145.6693323999643,None,1145.6693323999643,None,r,0.2541224993765354,1145.6693323999643,None,0.2541224993765354,,,109 silent,001,2022_Nov_29_1227,ProdSingRedoBetween,2021.2.3,60.01381510378277,
,,,,124,0,124,0,,,,,,,,,,,,,,,,,,,,,,1149.3765845000744,None,,,,,,,,,,,,,,,,,close,3,125,silent,old,yellow,1146.455863699317,None,1146.455863699317,None,3,1.4718943005427718,1146.455863699317,None,1.4718943005427718,1147.956790799275,None,1148.4698181999847,None,1148.4698181999847,None,f,0.8845763998106122,1148.4698181999847,None,0.8845763998106122,,,109 silent,001,2022_Nov_29_1227,ProdSingRedoBetween,2021.2.3,60.01381510378277,
,,,,125,0,125,0,,,,,,,,,,,,,,,,,,,,,,1152.976637199521,None,,,,,,,,,,,,,,,,,region,88,126,silent,old,red,1149.8916235994548,None,1149.8916235994548,None,6,2.0873502995818853,1149.8916235994548,None,2.0873502995818853,1152.0106315994635,None,1152.5260457992554,None,1152.5260457992554,None,r,0.42446629982441664,1152.5260457992554,None,0.42446629982441664,,,109 silent,001,2022_Nov_29_1227,ProdSingRedoBetween,2021.2.3,60.01381510378277,
,,,,126,0,126,0,,,,,,,,,,,,,,,,,,,,,,1155.501348699443,None,,,,,,,,,,,,,,,,,south,166,127,silent,new,null,1153.4844168992713,None,1153.4844168992713,None,1,1.2638894999399781,1153.4844168992713,None,1.2638894999399781,1154.7837988995016,None,1155.2962444992736,None,1155.2962444992736,None,n,0.1613174993544817,1155.2962444992736,None,0.1613174993544817,,,109 silent,001,2022_Nov_29_1227,ProdSingRedoBetween,2021.2.3,60.01381510378277,
,,,,127,0,127,0,,,,,,,,,,,,,,,,,,,,,,1158.1317339995876,None,,,,,,,,,,,,,,,,,election,179,128,silent,new,null,1156.0165105992928,None,1156.0165105992928,None,1,1.548746899701655,1156.0165105992928,None,1.548746899701655,1157.5834961999208,None,1158.0888445992023,None,1158.0888445992023,None,n,0.02022789977490902,1158.0888445992023,None,0.02022789977490902,,,109 silent,001,2022_Nov_29_1227,ProdSingRedoBetween,2021.2.3,60.01381510378277,
,,,,128,0,128,0,,,,,,,,,,,,,,,,,,,,,,1161.3861449994147,None,,,,,,,,,,,,,,,,,leader,143,129,silent,new,null,1158.6380054000765,None,1158.6380054000765,None,3,2.049391900189221,1158.6380054000765,None,2.049391900189221,1160.7220674995333,None,1161.2347019994631,None,1161.2347019994631,None,f,0.12023589946329594,1161.2347019994631,None,0.12023589946329594,,,109 silent,001,2022_Nov_29_1227,ProdSingRedoBetween,2021.2.3,60.01381510378277,
,,,,129,0,129,0,,,,,,,,,,,,,,,,,,,,,,1163.6872091991827,None,,,,,,,,,,,,,,,,,population,177,130,silent,new,null,1161.8936518998817,None,1161.8936518998817,None,3,1.1689790999516845,1161.8936518998817,None,1.1689790999516845,1163.0886070998386,None,1163.6039430992678,None,1163.6039430992678,None,f,0.05195669922977686,1163.6039430992678,None,0.05195669922977686,,,109 silent,001,2022_Nov_29_1227,ProdSingRedoBetween,2021.2.3,60.01381510378277,
,,,,130,0,130,0,,,,,,,,,,,,,,,,,,,,,,1166.1750726997852,None,,,,,,,,,,,,,,,,,quarter,164,131,silent,new,null,1164.190602099523,None,1164.190602099523,None,3,1.3404242005199194,1164.190602099523,None,1.3404242005199194,1165.5571722993627,None,1166.0730535993353,None,1166.0730535993353,None,f,0.07994640059769154,1166.0730535993353,None,0.07994640059769154,,,109 silent,001,2022_Nov_29_1227,ProdSingRedoBetween,2021.2.3,60.01381510378277,
,,,,131,0,131,0,,,,,,,,,,,,,,,,,,,,,,1169.3759377999231,None,,,,,,,,,,,,,,,,,reading,167,132,silent,new,null,1166.692622299306,None,1166.692622299306,None,4,1.9302671002224088,1166.692622299306,None,1.9302671002224088,1168.6466604992747,None,1169.1593585992232,None,1169.1593585992232,None,f,0.18702349998056889,1169.1593585992232,None,0.18702349998056889,,,109 silent,001,2022_Nov_29_1227,ProdSingRedoBetween,2021.2.3,60.01381510378277,
,,,,132,0,132,0,,,,,,,,,,,,,,,,,,,,,,1172.5643465993926,None,,,,,,,,,,,,,,,,,travel,144,133,silent,new,null,1169.879369199276,None,1169.879369199276,None,5,1.9748191004619002,1169.879369199276,None,1.9748191004619002,1171.8938641995192,None,1172.3958903998137,None,1172.3958903998137,None,f,0.13668880052864552,1172.3958903998137,None,0.13668880052864552,,,109 silent,001,2022_Nov_29_1227,ProdSingRedoBetween,2021.2.3,60.01381510378277,
,,,,133,0,133,0,,,,,,,,,,,,,,,,,,,,,,1176.3505469998345,None,,,,,,,,,,,,,,,,,figure,99,134,silent,new,null,1173.0813863994554,None,1173.0813863994554,None,2,2.1690618991851807,1173.0813863994554,None,2.1690618991851807,1175.2870239997283,None,1175.7997770998627,None,1175.7997770998627,None,f,0.5296987006440759,1175.7997770998627,None,0.5296987006440759,,,109 silent,001,2022_Nov_29_1227,ProdSingRedoBetween,2021.2.3,60.01381510378277,
,,,,134,0,134,0,,,,,,,,,,,,,,,,,,,,,,1179.68771739956,None,,,,,,,,,,,,,,,,,brief,146,135,silent,new,null,1176.8552144998685,None,1176.8552144998685,None,2,2.097689099609852,1176.8552144998685,None,2.097689099609852,1178.9705395000055,None,1179.4866042993963,None,1179.4866042993963,None,f,0.17496899981051683,1179.4866042993963,None,0.17496899981051683,,,109 silent,001,2022_Nov_29_1227,ProdSingRedoBetween,2021.2.3,60.01381510378277,
,,,,135,0,135,0,,,,,,,,,,,,,,,,,,,,,,1184.0258799996227,None,,,,,,,,,,,,,,,,,graduate,118,136,silent,new,null,1180.189853899181,None,1180.189853899181,None,1,2.1446877997368574,1180.189853899181,None,2.1446877997368574,1182.3575663994998,None,1182.8768771998584,None,1182.8768771998584,None,n,1.1283510001376271,1182.8768771998584,None,1.1283510001376271,,,109 silent,001,2022_Nov_29_1227,ProdSingRedoBetween,2021.2.3,60.01381510378277,
,,,,136,0,136,0,,,,,,,,,,,,,,,,,,,,,,1187.7109656995162,None,,,,,,,,,,,,,,,,,range,73,137,silent,old,red,1184.5424075992778,None,1184.5424075992778,None,5,2.4521970003843307,1184.5424075992778,None,2.4521970003843307,1187.0120215993375,None,1187.5121535994112,None,1187.5121535994112,None,f,0.1681405995041132,1187.5121535994112,None,0.1681405995041132,,,109 silent,001,2022_Nov_29_1227,ProdSingRedoBetween,2021.2.3,60.01381510378277,
,,,,137,0,137,0,,,,,,,,,,,,,,,,,,,,,,1191.3835077993572,None,,,,,,,,,,,,,,,,,pretty,136,138,silent,new,null,1188.2293570991606,None,1188.2293570991606,None,3,1.8099930007010698,1188.2293570991606,None,1.8099930007010698,1190.066620499827,None,1190.5821631997824,None,1190.5821631997824,None,f,0.7825394999235868,1190.5821631997824,None,0.7825394999235868,,,109 silent,001,2022_Nov_29_1227,ProdSingRedoBetween,2021.2.3,60.01381510378277,
,,,,138,0,138,0,,,,,,,,,,,,,,,,,,,,,,1194.6522127995268,None,,,,,,,,,,,,,,,,,principal,125,139,silent,new,null,1191.9007436996326,None,1191.9007436996326,None,2,2.036674300208688,1191.9007436996326,None,2.036674300208688,1193.9691837998107,None,1194.484772999771,None,1194.484772999771,None,f,0.13757009990513325,1194.484772999771,None,0.13757009990513325,,,109 silent,001,2022_Nov_29_1227,ProdSingRedoBetween,2021.2.3,60.01381510378277,
,,,,139,0,139,0,,,,,,,,,,,,,,,,,,,,,,1198.5562160992995,None,,,,,,,,,,,,,,,,,testimony,27,140,silent,old,yellow,1195.154568599537,None,1195.154568599537,None,1,2.8147989995777607,1195.154568599537,None,2.8147989995777607,1197.9922982994467,None,1198.5050825998187,None,1198.5050825998187,None,n,0.028685600496828556,1198.5050825998187,None,0.028685600496828556,,,109 silent,001,2022_Nov_29_1227,ProdSingRedoBetween,2021.2.3,60.01381510378277,
,,,,140,0,140,0,,,,,,,,,,,,,,,,,,,,,,1201.1106988992542,None,,,,,,,,,,,,,,,,,measure,20,141,silent,old,yellow,1199.0655881995335,None,1199.0655881995335,None,6,1.3877536999061704,1199.0655881995335,None,1.3877536999061704,1200.4960095994174,None,1201.011008899659,None,1201.011008899659,None,r,0.06644369941204786,1201.011008899659,None,0.06644369941204786,,,109 silent,001,2022_Nov_29_1227,ProdSingRedoBetween,2021.2.3,60.01381510378277,
,,,,141,0,141,0,,,,,,,,,,,,,,,,,,,,,,1203.77855599951,None,,,,,,,,,,,,,,,,,point,38,142,silent,old,blue,1201.631257799454,None,1201.631257799454,None,2,1.4611571002751589,1201.631257799454,None,1.4611571002751589,1203.1220472995192,None,1203.6281663998961,None,1203.6281663998961,None,f,0.12177490070462227,1203.6281663998961,None,0.12177490070462227,,,109 silent,001,2022_Nov_29_1227,ProdSingRedoBetween,2021.2.3,60.01381510378277,
,,,,142,0,142,0,,,,,,,,,,,,,,,,,,,,,,1206.1636896999553,None,,,,,,,,,,,,,,,,,guard,33,143,silent,old,blue,1204.2945435000584,None,1204.2945435000584,None,5,1.299214500002563,1204.2945435000584,None,1.299214500002563,1205.615043499507,None,1206.1296033998951,None,1206.1296033998951,None,f,0.016572299413383007,1206.1296033998951,None,0.016572299413383007,,,109 silent,001,2022_Nov_29_1227,ProdSingRedoBetween,2021.2.3,60.01381510378277,
,,,,143,0,143,0,,,,,,,,,,,,,,,,,,,,,,1209.6173352999613,None,,,,,,,,,,,,,,,,,committee,40,144,silent,old,blue,1206.6796246999875,None,1206.6796246999875,None,6,2.2840146999806166,1206.6796246999875,None,2.2840146999806166,1208.9856003997847,None,1209.4990431992337,None,1209.4990431992337,None,r,0.1004175003618002,1209.4990431992337,None,0.1004175003618002,,,109 silent,001,2022_Nov_29_1227,ProdSingRedoBetween,2021.2.3,60.01381510378277,
,,,,144,0,144,0,,,,,,,,,,,,,,,,,,,,,,1212.8203960992396,None,,,,,,,,,,,,,,,,,husband,0,145,silent,old,yellow,1210.119435899891,None,1210.119435899891,None,1,1.241665099747479,1210.119435899891,None,1.241665099747479,1211.3876949995756,None,1211.9046153994277,None,1211.9046153994277,None,n,0.8870902005583048,1211.9046153994277,None,0.8870902005583048,,,109 silent,001,2022_Nov_29_1227,ProdSingRedoBetween,2021.2.3,60.01381510378277,
,,,,145,0,145,0,,,,,,,,,,,,,,,,,,,,,,1216.2248225994408,None,,,,,,,,,,,,,,,,,speech,30,146,silent,old,blue,1213.321731599979,None,1213.321731599979,None,4,2.0725520001724362,1213.321731599979,None,2.0725520001724362,1215.425023299642,None,1215.9397448999807,None,1215.9397448999807,None,f,0.254292200319469,1215.9397448999807,None,0.254292200319469,,,109 silent,001,2022_Nov_29_1227,ProdSingRedoBetween,2021.2.3,60.01381510378277,
,,,,146,0,146,0,,,,,,,,,,,,,,,,,,,,,,1219.677828299813,None,,,,,,,,,,,,,,,,,youth,25,147,silent,old,yellow,1216.7413226999342,None,1216.7413226999342,None,3,1.7117805993184447,1216.7413226999342,None,1.7117805993184447,1218.4774646991864,None,1218.9927515992895,None,1218.9927515992895,None,f,0.6578840995207429,1218.9927515992895,None,0.6578840995207429,,,109 silent,001,2022_Nov_29_1227,ProdSingRedoBetween,2021.2.3,60.01381510378277,
,,,,147,0,147,0,,,,,,,,,,,,,,,,,,,,,,1228.4190747998655,None,,,,,,,,,,,,,,,,,profession,141,148,silent,new,null,1220.1817817995325,None,1220.1817817995325,None,6,7.499547800049186,1220.1817817995325,None,7.499547800049186,1227.7043170994148,None,1228.2186727998778,None,1228.2186727998778,None,r,0.18328910041600466,1228.2186727998778,None,0.18328910041600466,,,109 silent,001,2022_Nov_29_1227,ProdSingRedoBetween,2021.2.3,60.01381510378277,
,,,,148,0,148,0,,,,,,,,,,,,,,,,,,,,,,1230.9886857997626,None,,,,,,,,,,,,,,,,,question,168,149,silent,new,null,1228.928416799754,None,1228.928416799754,None,2,1.3242071000859141,1228.928416799754,None,1.3242071000859141,1230.2737827999517,None,1230.7903645997867,None,1230.7903645997867,None,f,0.18013149965554476,1230.7903645997867,None,0.18013149965554476,,,109 silent,001,2022_Nov_29_1227,ProdSingRedoBetween,2021.2.3,60.01381510378277,
,,,,149,0,149,0,,,,,,,,,,,,,,,,,,,,,,1233.8927579000592,None,,,,,,,,,,,,,,,,,crisis,80,150,silent,old,red,1231.5043025994673,None,1231.5043025994673,None,6,1.3666313998401165,1231.5043025994673,None,1.3666313998401165,1232.8944266997278,None,1233.4087858991697,None,1233.4087858991697,None,r,0.4550827005878091,1233.4087858991697,None,0.4550827005878091,,,109 silent,001,2022_Nov_29_1227,ProdSingRedoBetween,2021.2.3,60.01381510378277,
,,,,150,0,150,0,,,,,,,,,,,,,,,,,,,,,,1246.9174328995869,None,,,,,,,,,,,,,,,,,order,51,151,silent,old,blue,1234.4093977995217,None,1234.4093977995217,None,6,11.926911999471486,1234.4093977995217,None,11.926911999471486,1246.3550132000819,None,1246.8699846994132,None,1246.8699846994132,None,r,0.013691100291907787,1246.8699846994132,None,0.013691100291907787,,,109 silent,001,2022_Nov_29_1227,ProdSingRedoBetween,2021.2.3,60.01381510378277,
,,,,151,0,151,0,,,,,,,,,,,,,,,,,,,,,,1249.1404019994661,None,,,,,,,,,,,,,,,,,build,178,152,silent,new,null,1247.421277899295,None,1247.421277899295,None,5,1.1480577001348138,1247.421277899295,None,1.1480577001348138,1248.5906867999583,None,1249.1059526996687,None,1249.1059526996687,None,f,0.012823499739170074,1249.1059526996687,None,0.012823499739170074,,,109 silent,001,2022_Nov_29_1227,ProdSingRedoBetween,2021.2.3,60.01381510378277,
,,,,152,0,152,0,,,,,,,,,,,,,,,,,,,,,,1251.0933146998286,None,,,,,,,,,,,,,,,,,error,170,153,silent,new,null,1249.6489409999922,None,1249.6489409999922,None,5,0.8673393996432424,1249.6489409999922,None,0.8673393996432424,1250.5633135000244,None,1251.074647899717,None,1251.074647899717,None,f,0.0018330002203583717,1251.074647899717,None,0.0018330002203583717,,,109 silent,001,2022_Nov_29_1227,ProdSingRedoBetween,2021.2.3,60.01381510378277,
,,,,153,0,153,0,,,,,,,,,,,,,,,,,,,,,,1253.1444679992273,None,,,,,,,,,,,,,,,,,burden,132,154,silent,new,null,1251.6100826999173,None,1251.6100826999173,None,5,0.9576783999800682,1251.6100826999173,None,0.9576783999800682,1252.5955215999857,None,1253.1098213000223,None,1253.1098213000223,None,f,0.011265699751675129,1253.1098213000223,None,0.011265699751675129,,,109 silent,001,2022_Nov_29_1227,ProdSingRedoBetween,2021.2.3,60.01381510378277,
,,,,154,0,154,0,,,,,,,,,,,,,,,,,,,,,,1255.4305948996916,None,,,,,,,,,,,,,,,,,problem,70,155,silent,old,red,1253.6484693000093,None,1253.6484693000093,None,4,1.1294578006491065,1253.6484693000093,None,1.1294578006491065,1254.7964639998972,None,1255.3137227995321,None,1255.3137227995321,None,f,0.08362419996410608,1255.3137227995321,None,0.08362419996410608,,,109 silent,001,2022_Nov_29_1227,ProdSingRedoBetween,2021.2.3,60.01381510378277,
,,,,155,0,155,0,,,,,,,,,,,,,,,,,,,,,,1258.5505296997726,None,,,,,,,,,,,,,,,,,shear,135,156,silent,new,null,1255.9507515998557,None,1255.9507515998557,None,5,2.0074637001380324,1255.9507515998557,None,2.0074637001380324,1257.9851575996727,None,1258.4986168993637,None,1258.4986168993637,None,f,0.031171100214123726,1258.4986168993637,None,0.031171100214123726,,,109 silent,001,2022_Nov_29_1227,ProdSingRedoBetween,2021.2.3,60.01381510378277,
,,,,156,0,156,0,,,,,,,,,,,,,,,,,,,,,,1264.222348999232,None,,,,,,,,,,,,,,,,,worker,5,157,silent,old,yellow,1259.0695740999654,None,1259.0695740999654,None,2,4.424140499904752,1259.0695740999654,None,4.424140499904752,1263.5222065998241,None,1264.0376792000607,None,1264.0376792000607,None,f,0.16609060019254684,1264.0376792000607,None,0.16609060019254684,,,109 silent,001,2022_Nov_29_1227,ProdSingRedoBetween,2021.2.3,60.01381510378277,
,,,,157,0,157,0,,,,,,,,,,,,,,,,,,,,,,1267.54263599962,None,,,,,,,,,,,,,,,,,mechanical,174,158,silent,new,null,1264.7395854992792,None,1264.7395854992792,None,1,1.322406199760735,1264.7395854992792,None,1.322406199760735,1266.0910938000306,None,1266.6071981992573,None,1266.6071981992573,None,n,0.9041786007583141,1266.6071981992573,None,0.9041786007583141,,,109 silent,001,2022_Nov_29_1227,ProdSingRedoBetween,2021.2.3,60.01381510378277,
,,,,158,0,158,0,,,,,,,,,,,,,,,,,,,,,,1271.2302550999448,None,,,,,,,,,,,,,,,,,alert,96,159,silent,new,null,1268.059470999986,None,1268.059470999986,None,5,2.498807800002396,1268.059470999986,None,2.498807800002396,1270.5793303996325,None,1271.0943721998483,None,1271.0943721998483,None,f,0.11221499927341938,1271.0943721998483,None,0.11221499927341938,,,109 silent,001,2022_Nov_29_1227,ProdSingRedoBetween,2021.2.3,60.01381510378277,
,,,,159,0,159,0,,,,,,,,,,,,,,,,,,,,,,1273.4271016996354,None,,,,,,,,,,,,,,,,,discovery,86,160,silent,old,red,1271.75085559953,None,1271.75085559953,None,5,1.0780928004533052,1271.75085559953,None,1.0780928004533052,1272.849679899402,None,1273.363880599849,None,1273.363880599849,None,f,0.034111700020730495,1273.363880599849,None,0.034111700020730495,,,109 silent,001,2022_Nov_29_1227,ProdSingRedoBetween,2021.2.3,60.01381510378277,
,,,,160,0,160,0,,,,,,,,,,,,,,,,,,,,,,1276.3667294997722,None,,,,,,,,,,,,,,,,,gesture,46,161,silent,old,blue,1273.9325835993513,None,1273.9325835993513,None,1,1.834770799614489,1273.9325835993513,None,1.834770799614489,1275.7857245998457,None,1276.3002761993557,None,1276.3002761993557,None,n,0.04234050028026104,1276.3002761993557,None,0.04234050028026104,,,109 silent,001,2022_Nov_29_1227,ProdSingRedoBetween,2021.2.3,60.01381510378277,
,,,,161,0,161,0,,,,,,,,,,,,,,,,,,,,,,1279.203302799724,None,,,,,,,,,,,,,,,,,finance,108,162,silent,new,null,1276.8691371995956,None,1276.8691371995956,None,4,1.6936761997640133,1276.8691371995956,None,1.6936761997640133,1278.5876305000857,None,1279.1023396998644,None,1279.1023396998644,None,f,0.07086460012942553,1279.1023396998644,None,0.07086460012942553,,,109 silent,001,2022_Nov_29_1227,ProdSingRedoBetween,2021.2.3,60.01381510378277,
,,,,162,0,162,0,,,,,,,,,,,,,,,,,,,,,,1281.9230756992474,None,,,,,,,,,,,,,,,,,junior,110,163,silent,new,null,1279.7124545993283,None,1279.7124545993283,None,1,1.5129616996273398,1279.7124545993283,None,1.5129616996273398,1281.2580184992403,None,1281.773230199702,None,1281.773230199702,None,n,0.13221219927072525,1281.773230199702,None,0.13221219927072525,,,109 silent,001,2022_Nov_29_1227,ProdSingRedoBetween,2021.2.3,60.01381510378277,
,,,,163,0,163,0,,,,,,,,,,,,,,,,,,,,,,1285.0531749995425,None,,,,,,,,,,,,,,,,,novel,2,164,silent,old,yellow,1282.440523499623,None,1282.440523499623,None,4,2.0266591999679804,1282.440523499623,None,2.0266591999679804,1284.4933287994936,None,1285.011163899675,None,1285.011163899675,None,f,0.013005800545215607,1285.011163899675,None,0.013005800545215607,,,109 silent,001,2022_Nov_29_1227,ProdSingRedoBetween,2021.2.3,60.01381510378277,
,,,,164,0,164,0,,,,,,,,,,,,,,,,,,,,,,1287.7793012997136,None,,,,,,,,,,,,,,,,,match,77,165,silent,old,red,1285.567324699834,None,1285.567324699834,None,4,1.4805000005289912,1285.567324699834,None,1.4805000005289912,1287.0787611994892,None,1287.593750199303,None,1287.593750199303,None,f,0.15489119943231344,1287.593750199303,None,0.15489119943231344,,,109 silent,001,2022_Nov_29_1227,ProdSingRedoBetween,2021.2.3,60.01381510378277,
,,,,165,0,165,0,,,,,,,,,,,,,,,,,,,,,,1290.5310675995424,None,,,,,,,,,,,,,,,,,fellow,84,166,silent,old,red,1288.308855199255,None,1288.308855199255,None,2,1.2150104995816946,1288.308855199255,None,1.2150104995816946,1289.5491336993873,None,1290.063212399371,None,1290.063212399371,None,f,0.4508263999596238,1290.063212399371,None,0.4508263999596238,,,109 silent,001,2022_Nov_29_1227,ProdSingRedoBetween,2021.2.3,60.01381510378277,
,,,,166,0,166,0,,,,,,,,,,,,,,,,,,,,,,1295.3706231992692,None,,,,,,,,,,,,,,,,,watch,129,167,silent,new,null,1291.0394736994058,None,1291.0394736994058,None,2,3.2144368002191186,1291.0394736994058,None,3.2144368002191186,1294.2863207999617,None,1294.801746099256,None,1294.801746099256,None,f,0.5463092001155019,1294.801746099256,None,0.5463092001155019,,,109 silent,001,2022_Nov_29_1227,ProdSingRedoBetween,2021.2.3,60.01381510378277,
,,,,167,0,167,0,,,,,,,,,,,,,,,,,,,,,,1298.95722479932,None,,,,,,,,,,,,,,,,,split,22,168,silent,old,yellow,1295.8885246999562,None,1295.8885246999562,None,4,1.9084593001753092,1295.8885246999562,None,1.9084593001753092,1297.8233921993524,None,1298.34284320008,None,1298.34284320008,None,f,0.5884488997980952,1298.34284320008,None,0.5884488997980952,,,109 silent,001,2022_Nov_29_1227,ProdSingRedoBetween,2021.2.3,60.01381510378277,
,,,,168,0,168,0,,,,,,,,,,,,,,,,,,,,,,1302.0916882995516,None,,,,,,,,,,,,,,,,,solution,85,169,silent,old,red,1299.474368199706,None,1299.474368199706,None,6,2.0195687003433704,1299.474368199706,None,2.0195687003433704,1301.5366152999923,None,1302.0464877998456,None,1302.0464877998456,None,r,0.008797899819910526,1302.0464877998456,None,0.008797899819910526,,,109 silent,001,2022_Nov_29_1227,ProdSingRedoBetween,2021.2.3,60.01381510378277,
,,,,169,0,169,0,,,,,,,,,,,,,,,,,,,,,,1306.4137755995616,None,,,,,,,,,,,,,,,,,danger,142,170,silent,new,null,1302.5957710994408,None,1302.5957710994408,None,4,1.7813655994832516,1302.5957710994408,None,1.7813655994832516,1304.4035231992602,None,1304.913711999543,None,1304.913711999543,None,f,1.4732672004029155,1304.913711999543,None,1.4732672004029155,,,109 silent,001,2022_Nov_29_1227,ProdSingRedoBetween,2021.2.3,60.01381510378277,
,,,,170,0,170,0,,,,,,,,,,,,,,,,,,,,,,1308.7331491997465,None,,,,,,,,,,,,,,,,,author,156,171,silent,new,null,1306.9197978992015,None,1306.9197978992015,None,5,1.1335142999887466,1306.9197978992015,None,1.1335142999887466,1308.084716799669,None,1308.6001979000866,None,1308.6001979000866,None,f,0.10110760014504194,1308.6001979000866,None,0.10110760014504194,,,109 silent,001,2022_Nov_29_1227,ProdSingRedoBetween,2021.2.3,60.01381510378277,
,,,,171,0,171,0,,,,,,,,,,,,,,,,,,,,,,1311.365114399232,None,,,,,,,,,,,,,,,,,medicine,65,172,silent,old,red,1309.2498123999685,None,1309.2498123999685,None,6,1.535605899989605,1309.2498123999685,None,1.535605899989605,1310.806683799252,None,1311.3192663993686,None,1311.3192663993686,None,r,0.00667249970138073,1311.3192663993686,None,0.00667249970138073,,,109 silent,001,2022_Nov_29_1227,ProdSingRedoBetween,2021.2.3,60.01381510378277,
,,,,172,0,172,0,,,,,,,,,,,,,,,,,,,,,,1314.0599168995395,None,,,,,,,,,,,,,,,,,military,113,173,silent,new,null,1311.8701697997749,None,1311.8701697997749,None,6,1.6137957004830241,1311.8701697997749,None,1.6137957004830241,1313.5057219993323,None,1314.0231550000608,None,1314.0231550000608,None,r,0.010141500271856785,1314.0231550000608,None,0.010141500271856785,,,109 silent,001,2022_Nov_29_1227,ProdSingRedoBetween,2021.2.3,60.01381510378277,
,,,,173,0,173,0,,,,,,,,,,,,,,,,,,,,,,1317.3241890994832,None,,,,,,,,,,,,,,,,,music,39,174,silent,old,blue,1314.5762428995222,None,1314.5762428995222,None,5,1.5380535004660487,1314.5762428995222,None,1.5380535004660487,1316.1418944997713,None,1316.6685646995902,None,1316.6685646995902,None,f,0.6305971005931497,1316.6685646995902,None,0.6305971005931497,,,109 silent,001,2022_Nov_29_1227,ProdSingRedoBetween,2021.2.3,60.01381510378277,
