StudyLoop.thisRepN,StudyLoop.thisTrialN,StudyLoop.thisN,StudyLoop.thisIndex,TestLoop.thisRepN,TestLoop.thisTrialN,TestLoop.thisN,TestLoop.thisIndex,textCondition.started,textCondition.stopped,keyCondition.keys,keyCondition.rt,keyCondition.started,keyCondition.stopped,Condition,textWelcome.started,textWelcome.stopped,keyWelcome.keys,keyWelcome.rt,keyWelcome.started,keyWelcome.stopped,textAloud.started,textAloud.stopped,textSilent.started,textSilent.stopped,textSing.started,textSing.stopped,conditional_text.started,conditional_text.stopped,textBlank500.started,textBlank500.stopped,study_word,study_num,study_order,study_type,word_color,textStudy.started,textStudy.stopped,keyStudy.keys,keyStudy.started,keyStudy.stopped,textTestInstructions.started,textTestInstructions.stopped,key_resp_3.keys,key_resp_3.rt,key_resp_3.started,key_resp_3.stopped,test_word,test_num,test_order,test_condition,old_new_test,test_word_original_color,textConf.started,textConf.stopped,textConfScale.started,textConfScale.stopped,keyConf.keys,keyConf.rt,keyConf.started,keyConf.stopped,confidence response time,textTestBlank.started,textTestBlank.stopped,textRKN.started,textRKN.stopped,textRKNScale.started,textRKNScale.stopped,keyRKN.keys,keyRKN.rt,keyRKN.started,keyRKN.stopped,rkn response time,textEnd.started,textEnd.stopped,participant,session,date,expName,psychopyVersion,frameRate,
,,,,,,,,13.688475599992671,None,a,2.4592867999890586,13.688475599992671,None,,,,,,,,,,,,,,,,,,,,,,,,,,,,,,,,,,,,,,,,,,,,,,,,,,,,,,,,,,,,,,10Silent,001,2022_Aug_03_1007,ProdSingRedoBetween,2021.2.3,59.936407470641754,
,,,,,,,,,,,,,,SilentTest,16.184038999999757,None,space,112.1156733000098,16.184038999999757,None,,,,,,,,,,,,,,,,,,,,,,,,,,,,,,,,,,,,,,,,,,,,,,,,,,,,,,,10Silent,001,2022_Aug_03_1007,ProdSingRedoBetween,2021.2.3,59.936407470641754,
0,0,0,0,,,,,,,,,,,,,,,,,,16.184038999999757,None,16.184038999999757,None,16.184038999999757,None,16.184038999999757,None,130.82112900000357,None,relation,8,1,silent,yellow,128.81921479999437,None,None,128.81921479999437,None,,,,,,,,,,,,,,,,,,,,,,,,,,,,,,,,,,,10Silent,001,2022_Aug_03_1007,ProdSingRedoBetween,2021.2.3,59.936407470641754,
1,0,1,0,,,,,,,,,,,,,,,,,,,,,,,,,,133.32401889999164,None,enemy,70,2,silent,red,131.32166210000287,None,None,131.32166210000287,None,,,,,,,,,,,,,,,,,,,,,,,,,,,,,,,,,,,10Silent,001,2022_Aug_03_1007,ProdSingRedoBetween,2021.2.3,59.936407470641754,
2,0,2,0,,,,,,,,,,,,,,,,,,,,,,,,,,135.82613049999054,None,native,54,3,silent,blue,133.82424089999404,None,None,133.82424089999404,None,,,,,,,,,,,,,,,,,,,,,,,,,,,,,,,,,,,10Silent,001,2022_Aug_03_1007,ProdSingRedoBetween,2021.2.3,59.936407470641754,
3,0,3,0,,,,,,,,,,,,,,,,,,,,,,,,,,138.3287197000027,None,addition,48,4,silent,blue,136.3267186000012,None,None,136.3267186000012,None,,,,,,,,,,,,,,,,,,,,,,,,,,,,,,,,,,,10Silent,001,2022_Aug_03_1007,ProdSingRedoBetween,2021.2.3,59.936407470641754,
4,0,4,0,,,,,,,,,,,,,,,,,,,,,,,,,,140.83137610000267,None,power,25,5,silent,yellow,138.8291712999926,None,None,138.8291712999926,None,,,,,,,,,,,,,,,,,,,,,,,,,,,,,,,,,,,10Silent,001,2022_Aug_03_1007,ProdSingRedoBetween,2021.2.3,59.936407470641754,
5,0,5,0,,,,,,,,,,,,,,,,,,,,,,,,,,143.33362910000142,None,poetry,3,6,silent,yellow,141.33159819999128,None,None,141.33159819999128,None,,,,,,,,,,,,,,,,,,,,,,,,,,,,,,,,,,,10Silent,001,2022_Aug_03_1007,ProdSingRedoBetween,2021.2.3,59.936407470641754,
6,0,6,0,,,,,,,,,,,,,,,,,,,,,,,,,,145.83607959999063,None,display,35,7,silent,blue,143.83431910000218,None,None,143.83431910000218,None,,,,,,,,,,,,,,,,,,,,,,,,,,,,,,,,,,,10Silent,001,2022_Aug_03_1007,ProdSingRedoBetween,2021.2.3,59.936407470641754,
7,0,7,0,,,,,,,,,,,,,,,,,,,,,,,,,,148.33857839999837,None,route,29,8,silent,blue,146.33678060000238,None,None,146.33678060000238,None,,,,,,,,,,,,,,,,,,,,,,,,,,,,,,,,,,,10Silent,001,2022_Aug_03_1007,ProdSingRedoBetween,2021.2.3,59.936407470641754,
8,0,8,0,,,,,,,,,,,,,,,,,,,,,,,,,,150.8411202999996,None,balance,14,9,silent,yellow,148.83912340000097,None,None,148.83912340000097,None,,,,,,,,,,,,,,,,,,,,,,,,,,,,,,,,,,,10Silent,001,2022_Aug_03_1007,ProdSingRedoBetween,2021.2.3,59.936407470641754,
9,0,9,0,,,,,,,,,,,,,,,,,,,,,,,,,,153.34355550000328,None,blind,2,10,silent,yellow,151.34165790000407,None,None,151.34165790000407,None,,,,,,,,,,,,,,,,,,,,,,,,,,,,,,,,,,,10Silent,001,2022_Aug_03_1007,ProdSingRedoBetween,2021.2.3,59.936407470641754,
10,0,10,0,,,,,,,,,,,,,,,,,,,,,,,,,,155.84623969999666,None,colonel,44,11,silent,blue,153.84411039999395,None,None,153.84411039999395,None,,,,,,,,,,,,,,,,,,,,,,,,,,,,,,,,,,,10Silent,001,2022_Aug_03_1007,ProdSingRedoBetween,2021.2.3,59.936407470641754,
11,0,11,0,,,,,,,,,,,,,,,,,,,,,,,,,,158.34892350000155,None,court,71,12,silent,red,156.34675149999384,None,None,156.34675149999384,None,,,,,,,,,,,,,,,,,,,,,,,,,,,,,,,,,,,10Silent,001,2022_Aug_03_1007,ProdSingRedoBetween,2021.2.3,59.936407470641754,
12,0,12,0,,,,,,,,,,,,,,,,,,,,,,,,,,160.8514167999965,None,alert,39,13,silent,blue,158.84933840000303,None,None,158.84933840000303,None,,,,,,,,,,,,,,,,,,,,,,,,,,,,,,,,,,,10Silent,001,2022_Aug_03_1007,ProdSingRedoBetween,2021.2.3,59.936407470641754,
13,0,13,0,,,,,,,,,,,,,,,,,,,,,,,,,,163.37043059999996,None,conference,1,14,silent,yellow,161.3554398999986,None,None,161.3554398999986,None,,,,,,,,,,,,,,,,,,,,,,,,,,,,,,,,,,,10Silent,001,2022_Aug_03_1007,ProdSingRedoBetween,2021.2.3,59.936407470641754,
14,0,14,0,,,,,,,,,,,,,,,,,,,,,,,,,,165.87302230000205,None,committee,22,15,silent,yellow,163.87105869999505,None,None,163.87105869999505,None,,,,,,,,,,,,,,,,,,,,,,,,,,,,,,,,,,,10Silent,001,2022_Aug_03_1007,ProdSingRedoBetween,2021.2.3,59.936407470641754,
15,0,15,0,,,,,,,,,,,,,,,,,,,,,,,,,,168.39225219999207,None,territory,23,16,silent,yellow,166.3796852999949,None,None,166.3796852999949,None,,,,,,,,,,,,,,,,,,,,,,,,,,,,,,,,,,,10Silent,001,2022_Aug_03_1007,ProdSingRedoBetween,2021.2.3,59.936407470641754,
16,0,16,0,,,,,,,,,,,,,,,,,,,,,,,,,,170.9114286999975,None,broke,4,17,silent,yellow,168.90309659999912,None,None,168.90309659999912,None,,,,,,,,,,,,,,,,,,,,,,,,,,,,,,,,,,,10Silent,001,2022_Aug_03_1007,ProdSingRedoBetween,2021.2.3,59.936407470641754,
17,0,17,0,,,,,,,,,,,,,,,,,,,,,,,,,,173.41394889999356,None,edition,28,18,silent,yellow,171.41483510000398,None,None,171.41483510000398,None,,,,,,,,,,,,,,,,,,,,,,,,,,,,,,,,,,,10Silent,001,2022_Aug_03_1007,ProdSingRedoBetween,2021.2.3,59.936407470641754,
18,0,18,0,,,,,,,,,,,,,,,,,,,,,,,,,,175.9163864000002,None,signal,53,19,silent,blue,173.9171134999924,None,None,173.9171134999924,None,,,,,,,,,,,,,,,,,,,,,,,,,,,,,,,,,,,10Silent,001,2022_Aug_03_1007,ProdSingRedoBetween,2021.2.3,59.936407470641754,
19,0,19,0,,,,,,,,,,,,,,,,,,,,,,,,,,178.41895130000194,None,mayor,9,20,silent,yellow,176.41725589999987,None,None,176.41725589999987,None,,,,,,,,,,,,,,,,,,,,,,,,,,,,,,,,,,,10Silent,001,2022_Aug_03_1007,ProdSingRedoBetween,2021.2.3,59.936407470641754,
20,0,20,0,,,,,,,,,,,,,,,,,,,,,,,,,,180.9379084999964,None,payment,56,21,silent,blue,178.92256859999907,None,None,178.92256859999907,None,,,,,,,,,,,,,,,,,,,,,,,,,,,,,,,,,,,10Silent,001,2022_Aug_03_1007,ProdSingRedoBetween,2021.2.3,59.936407470641754,
21,0,21,0,,,,,,,,,,,,,,,,,,,,,,,,,,183.44067290000385,None,waste,86,22,silent,red,181.43838579999283,None,None,181.43838579999283,None,,,,,,,,,,,,,,,,,,,,,,,,,,,,,,,,,,,10Silent,001,2022_Aug_03_1007,ProdSingRedoBetween,2021.2.3,59.936407470641754,
22,0,22,0,,,,,,,,,,,,,,,,,,,,,,,,,,185.94290169999294,None,detective,41,23,silent,blue,183.94108140000026,None,None,183.94108140000026,None,,,,,,,,,,,,,,,,,,,,,,,,,,,,,,,,,,,10Silent,001,2022_Aug_03_1007,ProdSingRedoBetween,2021.2.3,59.936407470641754,
23,0,23,0,,,,,,,,,,,,,,,,,,,,,,,,,,188.46227350000117,None,patient,33,24,silent,blue,186.45397469999443,None,None,186.45397469999443,None,,,,,,,,,,,,,,,,,,,,,,,,,,,,,,,,,,,10Silent,001,2022_Aug_03_1007,ProdSingRedoBetween,2021.2.3,59.936407470641754,
24,0,24,0,,,,,,,,,,,,,,,,,,,,,,,,,,190.98145920000388,None,scene,36,25,silent,blue,188.96716939999897,None,None,188.96716939999897,None,,,,,,,,,,,,,,,,,,,,,,,,,,,,,,,,,,,10Silent,001,2022_Aug_03_1007,ProdSingRedoBetween,2021.2.3,59.936407470641754,
25,0,25,0,,,,,,,,,,,,,,,,,,,,,,,,,,193.50053439999465,None,session,13,26,silent,yellow,191.48628280000412,None,None,191.48628280000412,None,,,,,,,,,,,,,,,,,,,,,,,,,,,,,,,,,,,10Silent,001,2022_Aug_03_1007,ProdSingRedoBetween,2021.2.3,59.936407470641754,
26,0,26,0,,,,,,,,,,,,,,,,,,,,,,,,,,196.00327849999303,None,express,84,27,silent,red,194.00103669999226,None,None,194.00103669999226,None,,,,,,,,,,,,,,,,,,,,,,,,,,,,,,,,,,,10Silent,001,2022_Aug_03_1007,ProdSingRedoBetween,2021.2.3,59.936407470641754,
27,0,27,0,,,,,,,,,,,,,,,,,,,,,,,,,,198.5055418999982,None,meeting,0,28,silent,yellow,196.50364809999883,None,None,196.50364809999883,None,,,,,,,,,,,,,,,,,,,,,,,,,,,,,,,,,,,10Silent,001,2022_Aug_03_1007,ProdSingRedoBetween,2021.2.3,59.936407470641754,
28,0,28,0,,,,,,,,,,,,,,,,,,,,,,,,,,201.00794609999866,None,plane,10,29,silent,yellow,199.00626719999127,None,None,199.00626719999127,None,,,,,,,,,,,,,,,,,,,,,,,,,,,,,,,,,,,10Silent,001,2022_Aug_03_1007,ProdSingRedoBetween,2021.2.3,59.936407470641754,
29,0,29,0,,,,,,,,,,,,,,,,,,,,,,,,,,203.5106947000022,None,listen,55,30,silent,blue,201.5105354999978,None,None,201.5105354999978,None,,,,,,,,,,,,,,,,,,,,,,,,,,,,,,,,,,,10Silent,001,2022_Aug_03_1007,ProdSingRedoBetween,2021.2.3,59.936407470641754,
30,0,30,0,,,,,,,,,,,,,,,,,,,,,,,,,,206.01306679999107,None,master,83,31,silent,red,204.010944499998,None,None,204.010944499998,None,,,,,,,,,,,,,,,,,,,,,,,,,,,,,,,,,,,10Silent,001,2022_Aug_03_1007,ProdSingRedoBetween,2021.2.3,59.936407470641754,
31,0,31,0,,,,,,,,,,,,,,,,,,,,,,,,,,208.51564589999907,None,match,60,32,silent,red,206.51461980000022,None,None,206.51461980000022,None,,,,,,,,,,,,,,,,,,,,,,,,,,,,,,,,,,,10Silent,001,2022_Aug_03_1007,ProdSingRedoBetween,2021.2.3,59.936407470641754,
32,0,32,0,,,,,,,,,,,,,,,,,,,,,,,,,,211.03474679999636,None,republic,82,33,silent,red,209.01971819999744,None,None,209.01971819999744,None,,,,,,,,,,,,,,,,,,,,,,,,,,,,,,,,,,,10Silent,001,2022_Aug_03_1007,ProdSingRedoBetween,2021.2.3,59.936407470641754,
33,0,33,0,,,,,,,,,,,,,,,,,,,,,,,,,,213.55378629999177,None,suggestion,34,34,silent,blue,211.53981600000407,None,None,211.53981600000407,None,,,,,,,,,,,,,,,,,,,,,,,,,,,,,,,,,,,10Silent,001,2022_Aug_03_1007,ProdSingRedoBetween,2021.2.3,59.936407470641754,
34,0,34,0,,,,,,,,,,,,,,,,,,,,,,,,,,216.05661839999084,None,testimony,59,35,silent,yellow,214.0547452000028,None,None,214.0547452000028,None,,,,,,,,,,,,,,,,,,,,,,,,,,,,,,,,,,,10Silent,001,2022_Aug_03_1007,ProdSingRedoBetween,2021.2.3,59.936407470641754,
35,0,35,0,,,,,,,,,,,,,,,,,,,,,,,,,,218.5589953000017,None,weight,74,36,silent,red,216.55972239999392,None,None,216.55972239999392,None,,,,,,,,,,,,,,,,,,,,,,,,,,,,,,,,,,,10Silent,001,2022_Aug_03_1007,ProdSingRedoBetween,2021.2.3,59.936407470641754,
36,0,36,0,,,,,,,,,,,,,,,,,,,,,,,,,,221.0781358999957,None,subject,67,37,silent,red,219.0700649999926,None,None,219.0700649999926,None,,,,,,,,,,,,,,,,,,,,,,,,,,,,,,,,,,,10Silent,001,2022_Aug_03_1007,ProdSingRedoBetween,2021.2.3,59.936407470641754,
37,0,37,0,,,,,,,,,,,,,,,,,,,,,,,,,,223.5807943999971,None,graduate,52,38,silent,blue,221.5788337999984,None,None,221.5788337999984,None,,,,,,,,,,,,,,,,,,,,,,,,,,,,,,,,,,,10Silent,001,2022_Aug_03_1007,ProdSingRedoBetween,2021.2.3,59.936407470641754,
38,0,38,0,,,,,,,,,,,,,,,,,,,,,,,,,,226.08314629999222,None,straight,69,39,silent,red,224.08301999999094,None,None,224.08301999999094,None,,,,,,,,,,,,,,,,,,,,,,,,,,,,,,,,,,,10Silent,001,2022_Aug_03_1007,ProdSingRedoBetween,2021.2.3,59.936407470641754,
39,0,39,0,,,,,,,,,,,,,,,,,,,,,,,,,,228.5858494999993,None,marriage,45,40,silent,blue,226.58357879999676,None,None,226.58357879999676,None,,,,,,,,,,,,,,,,,,,,,,,,,,,,,,,,,,,10Silent,001,2022_Aug_03_1007,ProdSingRedoBetween,2021.2.3,59.936407470641754,
40,0,40,0,,,,,,,,,,,,,,,,,,,,,,,,,,231.0881808999984,None,commercial,68,41,silent,red,229.0890972999914,None,None,229.0890972999914,None,,,,,,,,,,,,,,,,,,,,,,,,,,,,,,,,,,,10Silent,001,2022_Aug_03_1007,ProdSingRedoBetween,2021.2.3,59.936407470641754,
41,0,41,0,,,,,,,,,,,,,,,,,,,,,,,,,,233.59087849999196,None,light,76,42,silent,red,231.58912429999327,None,None,231.58912429999327,None,,,,,,,,,,,,,,,,,,,,,,,,,,,,,,,,,,,10Silent,001,2022_Aug_03_1007,ProdSingRedoBetween,2021.2.3,59.936407470641754,
42,0,42,0,,,,,,,,,,,,,,,,,,,,,,,,,,236.10995679999178,None,household,61,43,silent,red,234.09704039999633,None,None,234.09704039999633,None,,,,,,,,,,,,,,,,,,,,,,,,,,,,,,,,,,,10Silent,001,2022_Aug_03_1007,ProdSingRedoBetween,2021.2.3,59.936407470641754,
43,0,43,0,,,,,,,,,,,,,,,,,,,,,,,,,,238.61233839999477,None,broad,64,44,silent,red,236.61042250000173,None,None,236.61042250000173,None,,,,,,,,,,,,,,,,,,,,,,,,,,,,,,,,,,,10Silent,001,2022_Aug_03_1007,ProdSingRedoBetween,2021.2.3,59.936407470641754,
44,0,44,0,,,,,,,,,,,,,,,,,,,,,,,,,,241.13161290000426,None,degree,40,45,silent,blue,239.11815399999614,None,None,239.11815399999614,None,,,,,,,,,,,,,,,,,,,,,,,,,,,,,,,,,,,10Silent,001,2022_Aug_03_1007,ProdSingRedoBetween,2021.2.3,59.936407470641754,
45,0,45,0,,,,,,,,,,,,,,,,,,,,,,,,,,243.65055249999568,None,victory,21,46,silent,yellow,241.63802299999224,None,None,241.63802299999224,None,,,,,,,,,,,,,,,,,,,,,,,,,,,,,,,,,,,10Silent,001,2022_Aug_03_1007,ProdSingRedoBetween,2021.2.3,59.936407470641754,
46,0,46,0,,,,,,,,,,,,,,,,,,,,,,,,,,246.1531806999992,None,damage,72,47,silent,red,244.15111289999913,None,None,244.15111289999913,None,,,,,,,,,,,,,,,,,,,,,,,,,,,,,,,,,,,10Silent,001,2022_Aug_03_1007,ProdSingRedoBetween,2021.2.3,59.936407470641754,
47,0,47,0,,,,,,,,,,,,,,,,,,,,,,,,,,248.67222059999767,None,problem,18,48,silent,yellow,246.66194299999916,None,None,246.66194299999916,None,,,,,,,,,,,,,,,,,,,,,,,,,,,,,,,,,,,10Silent,001,2022_Aug_03_1007,ProdSingRedoBetween,2021.2.3,59.936407470641754,
48,0,48,0,,,,,,,,,,,,,,,,,,,,,,,,,,251.1747510999994,None,point,11,49,silent,yellow,249.1728013999964,None,None,249.1728013999964,None,,,,,,,,,,,,,,,,,,,,,,,,,,,,,,,,,,,10Silent,001,2022_Aug_03_1007,ProdSingRedoBetween,2021.2.3,59.936407470641754,
49,0,49,0,,,,,,,,,,,,,,,,,,,,,,,,,,253.67733779999253,None,error,27,50,silent,yellow,251.67526940000243,None,None,251.67526940000243,None,,,,,,,,,,,,,,,,,,,,,,,,,,,,,,,,,,,10Silent,001,2022_Aug_03_1007,ProdSingRedoBetween,2021.2.3,59.936407470641754,
50,0,50,0,,,,,,,,,,,,,,,,,,,,,,,,,,256.17988749999495,None,general,58,51,silent,blue,254.1780476999993,None,None,254.1780476999993,None,,,,,,,,,,,,,,,,,,,,,,,,,,,,,,,,,,,10Silent,001,2022_Aug_03_1007,ProdSingRedoBetween,2021.2.3,59.936407470641754,
51,0,51,0,,,,,,,,,,,,,,,,,,,,,,,,,,258.6991226999962,None,produce,88,52,silent,red,256.6861368999962,None,None,256.6861368999962,None,,,,,,,,,,,,,,,,,,,,,,,,,,,,,,,,,,,10Silent,001,2022_Aug_03_1007,ProdSingRedoBetween,2021.2.3,59.936407470641754,
52,0,52,0,,,,,,,,,,,,,,,,,,,,,,,,,,261.20152020000387,None,hearing,6,53,silent,yellow,259.1997510999936,None,None,259.1997510999936,None,,,,,,,,,,,,,,,,,,,,,,,,,,,,,,,,,,,10Silent,001,2022_Aug_03_1007,ProdSingRedoBetween,2021.2.3,59.936407470641754,
53,0,53,0,,,,,,,,,,,,,,,,,,,,,,,,,,263.72079099999974,None,community,75,54,silent,red,261.70807619999687,None,None,261.70807619999687,None,,,,,,,,,,,,,,,,,,,,,,,,,,,,,,,,,,,10Silent,001,2022_Aug_03_1007,ProdSingRedoBetween,2021.2.3,59.936407470641754,
54,0,54,0,,,,,,,,,,,,,,,,,,,,,,,,,,266.23983239999507,None,report,24,55,silent,yellow,264.2257057999959,None,None,264.2257057999959,None,,,,,,,,,,,,,,,,,,,,,,,,,,,,,,,,,,,10Silent,001,2022_Aug_03_1007,ProdSingRedoBetween,2021.2.3,59.936407470641754,
55,0,55,0,,,,,,,,,,,,,,,,,,,,,,,,,,268.74251809999987,None,count,87,56,silent,red,266.74053979999735,None,None,266.74053979999735,None,,,,,,,,,,,,,,,,,,,,,,,,,,,,,,,,,,,10Silent,001,2022_Aug_03_1007,ProdSingRedoBetween,2021.2.3,59.936407470641754,
56,0,56,0,,,,,,,,,,,,,,,,,,,,,,,,,,271.2450542000006,None,bicycle,78,57,silent,red,269.2430083999934,None,None,269.2430083999934,None,,,,,,,,,,,,,,,,,,,,,,,,,,,,,,,,,,,10Silent,001,2022_Aug_03_1007,ProdSingRedoBetween,2021.2.3,59.936407470641754,
57,0,57,0,,,,,,,,,,,,,,,,,,,,,,,,,,273.7640434999921,None,interview,42,58,silent,blue,271.7500563999929,None,None,271.7500563999929,None,,,,,,,,,,,,,,,,,,,,,,,,,,,,,,,,,,,10Silent,001,2022_Aug_03_1007,ProdSingRedoBetween,2021.2.3,59.936407470641754,
58,0,58,0,,,,,,,,,,,,,,,,,,,,,,,,,,276.2666165999981,None,foundation,38,59,silent,blue,274.2646958999976,None,None,274.2646958999976,None,,,,,,,,,,,,,,,,,,,,,,,,,,,,,,,,,,,10Silent,001,2022_Aug_03_1007,ProdSingRedoBetween,2021.2.3,59.936407470641754,
59,0,59,0,,,,,,,,,,,,,,,,,,,,,,,,,,278.769069499991,None,taste,30,60,silent,blue,276.76721059999545,None,None,276.76721059999545,None,,,,,,,,,,,,,,,,,,,,,,,,,,,,,,,,,,,10Silent,001,2022_Aug_03_1007,ProdSingRedoBetween,2021.2.3,59.936407470641754,
60,0,60,0,,,,,,,,,,,,,,,,,,,,,,,,,,281.2717263999948,None,school,12,61,silent,yellow,279.2699467999919,None,None,279.2699467999919,None,,,,,,,,,,,,,,,,,,,,,,,,,,,,,,,,,,,10Silent,001,2022_Aug_03_1007,ProdSingRedoBetween,2021.2.3,59.936407470641754,
61,0,61,0,,,,,,,,,,,,,,,,,,,,,,,,,,283.79094589999295,None,column,66,62,silent,red,281.7762408999988,None,None,281.7762408999988,None,,,,,,,,,,,,,,,,,,,,,,,,,,,,,,,,,,,10Silent,001,2022_Aug_03_1007,ProdSingRedoBetween,2021.2.3,59.936407470641754,
62,0,62,0,,,,,,,,,,,,,,,,,,,,,,,,,,286.29326890000084,None,primary,26,63,silent,yellow,284.2940380999935,None,None,284.2940380999935,None,,,,,,,,,,,,,,,,,,,,,,,,,,,,,,,,,,,10Silent,001,2022_Aug_03_1007,ProdSingRedoBetween,2021.2.3,59.936407470641754,
63,0,63,0,,,,,,,,,,,,,,,,,,,,,,,,,,288.7959422999993,None,weather,43,64,silent,blue,286.79597219999414,None,None,286.79597219999414,None,,,,,,,,,,,,,,,,,,,,,,,,,,,,,,,,,,,10Silent,001,2022_Aug_03_1007,ProdSingRedoBetween,2021.2.3,59.936407470641754,
64,0,64,0,,,,,,,,,,,,,,,,,,,,,,,,,,291.29846779999207,None,distance,50,65,silent,blue,289.29796239999996,None,None,289.29796239999996,None,,,,,,,,,,,,,,,,,,,,,,,,,,,,,,,,,,,10Silent,001,2022_Aug_03_1007,ProdSingRedoBetween,2021.2.3,59.936407470641754,
65,0,65,0,,,,,,,,,,,,,,,,,,,,,,,,,,293.80088379999506,None,novel,31,66,silent,blue,291.79945379999117,None,None,291.79945379999117,None,,,,,,,,,,,,,,,,,,,,,,,,,,,,,,,,,,,10Silent,001,2022_Aug_03_1007,ProdSingRedoBetween,2021.2.3,59.936407470641754,
66,0,66,0,,,,,,,,,,,,,,,,,,,,,,,,,,296.30342660000315,None,skill,63,67,silent,red,294.30266210000264,None,None,294.30266210000264,None,,,,,,,,,,,,,,,,,,,,,,,,,,,,,,,,,,,10Silent,001,2022_Aug_03_1007,ProdSingRedoBetween,2021.2.3,59.936407470641754,
67,0,67,0,,,,,,,,,,,,,,,,,,,,,,,,,,298.80596089999017,None,clean,77,68,silent,red,296.803734599991,None,None,296.803734599991,None,,,,,,,,,,,,,,,,,,,,,,,,,,,,,,,,,,,10Silent,001,2022_Aug_03_1007,ProdSingRedoBetween,2021.2.3,59.936407470641754,
68,0,68,0,,,,,,,,,,,,,,,,,,,,,,,,,,301.3250351000024,None,majority,89,69,silent,red,299.31239249999635,None,None,299.31239249999635,None,,,,,,,,,,,,,,,,,,,,,,,,,,,,,,,,,,,10Silent,001,2022_Aug_03_1007,ProdSingRedoBetween,2021.2.3,59.936407470641754,
69,0,69,0,,,,,,,,,,,,,,,,,,,,,,,,,,303.8441133000015,None,mankind,51,70,silent,blue,301.8287280999939,None,None,301.8287280999939,None,,,,,,,,,,,,,,,,,,,,,,,,,,,,,,,,,,,10Silent,001,2022_Aug_03_1007,ProdSingRedoBetween,2021.2.3,59.936407470641754,
70,0,70,0,,,,,,,,,,,,,,,,,,,,,,,,,,306.3468283999973,None,discussion,32,71,silent,blue,304.34485510000377,None,None,304.34485510000377,None,,,,,,,,,,,,,,,,,,,,,,,,,,,,,,,,,,,10Silent,001,2022_Aug_03_1007,ProdSingRedoBetween,2021.2.3,59.936407470641754,
71,0,71,0,,,,,,,,,,,,,,,,,,,,,,,,,,308.849232499997,None,opening,46,72,silent,blue,306.84735699999146,None,None,306.84735699999146,None,,,,,,,,,,,,,,,,,,,,,,,,,,,,,,,,,,,10Silent,001,2022_Aug_03_1007,ProdSingRedoBetween,2021.2.3,59.936407470641754,
72,0,72,0,,,,,,,,,,,,,,,,,,,,,,,,,,311.35188010000275,None,build,20,73,silent,yellow,309.34979769999336,None,None,309.34979769999336,None,,,,,,,,,,,,,,,,,,,,,,,,,,,,,,,,,,,10Silent,001,2022_Aug_03_1007,ProdSingRedoBetween,2021.2.3,59.936407470641754,
73,0,73,0,,,,,,,,,,,,,,,,,,,,,,,,,,313.8541220000043,None,leader,17,74,silent,yellow,311.85357900000236,None,None,311.85357900000236,None,,,,,,,,,,,,,,,,,,,,,,,,,,,,,,,,,,,10Silent,001,2022_Aug_03_1007,ProdSingRedoBetween,2021.2.3,59.936407470641754,
74,0,74,0,,,,,,,,,,,,,,,,,,,,,,,,,,316.3733966,None,mechanical,65,75,silent,red,314.3611901999975,None,None,314.3611901999975,None,,,,,,,,,,,,,,,,,,,,,,,,,,,,,,,,,,,10Silent,001,2022_Aug_03_1007,ProdSingRedoBetween,2021.2.3,59.936407470641754,
75,0,75,0,,,,,,,,,,,,,,,,,,,,,,,,,,318.8760765000043,None,disease,49,76,silent,blue,316.8739965999994,None,None,316.8739965999994,None,,,,,,,,,,,,,,,,,,,,,,,,,,,,,,,,,,,10Silent,001,2022_Aug_03_1007,ProdSingRedoBetween,2021.2.3,59.936407470641754,
76,0,76,0,,,,,,,,,,,,,,,,,,,,,,,,,,321.39512809998996,None,profession,19,77,silent,yellow,319.38233089999994,None,None,319.38233089999994,None,,,,,,,,,,,,,,,,,,,,,,,,,,,,,,,,,,,10Silent,001,2022_Aug_03_1007,ProdSingRedoBetween,2021.2.3,59.936407470641754,
77,0,77,0,,,,,,,,,,,,,,,,,,,,,,,,,,323.89772169999196,None,council,5,78,silent,yellow,321.8957087000017,None,None,321.8957087000017,None,,,,,,,,,,,,,,,,,,,,,,,,,,,,,,,,,,,10Silent,001,2022_Aug_03_1007,ProdSingRedoBetween,2021.2.3,59.936407470641754,
78,0,78,0,,,,,,,,,,,,,,,,,,,,,,,,,,326.400037600004,None,measure,16,79,silent,yellow,324.39811019999615,None,None,324.39811019999615,None,,,,,,,,,,,,,,,,,,,,,,,,,,,,,,,,,,,10Silent,001,2022_Aug_03_1007,ProdSingRedoBetween,2021.2.3,59.936407470641754,
79,0,79,0,,,,,,,,,,,,,,,,,,,,,,,,,,328.9027534999914,None,sunset,47,80,silent,blue,326.90069460000086,None,None,326.90069460000086,None,,,,,,,,,,,,,,,,,,,,,,,,,,,,,,,,,,,10Silent,001,2022_Aug_03_1007,ProdSingRedoBetween,2021.2.3,59.936407470641754,
80,0,80,0,,,,,,,,,,,,,,,,,,,,,,,,,,331.40530279999075,None,career,73,81,silent,red,329.40526169999794,None,None,329.40526169999794,None,,,,,,,,,,,,,,,,,,,,,,,,,,,,,,,,,,,10Silent,001,2022_Aug_03_1007,ProdSingRedoBetween,2021.2.3,59.936407470641754,
81,0,81,0,,,,,,,,,,,,,,,,,,,,,,,,,,333.90760659999796,None,sound,37,82,silent,blue,331.9078912999976,None,None,331.9078912999976,None,,,,,,,,,,,,,,,,,,,,,,,,,,,,,,,,,,,10Silent,001,2022_Aug_03_1007,ProdSingRedoBetween,2021.2.3,59.936407470641754,
82,0,82,0,,,,,,,,,,,,,,,,,,,,,,,,,,336.41019690000394,None,number,15,83,silent,yellow,334.40825379999296,None,None,334.40825379999296,None,,,,,,,,,,,,,,,,,,,,,,,,,,,,,,,,,,,10Silent,001,2022_Aug_03_1007,ProdSingRedoBetween,2021.2.3,59.936407470641754,
83,0,83,0,,,,,,,,,,,,,,,,,,,,,,,,,,338.9127085999935,None,shear,79,84,silent,red,336.91272949999257,None,None,336.91272949999257,None,,,,,,,,,,,,,,,,,,,,,,,,,,,,,,,,,,,10Silent,001,2022_Aug_03_1007,ProdSingRedoBetween,2021.2.3,59.936407470641754,
84,0,84,0,,,,,,,,,,,,,,,,,,,,,,,,,,341.43181559999357,None,guard,62,85,silent,red,339.41866739999386,None,None,339.41866739999386,None,,,,,,,,,,,,,,,,,,,,,,,,,,,,,,,,,,,10Silent,001,2022_Aug_03_1007,ProdSingRedoBetween,2021.2.3,59.936407470641754,
85,0,85,0,,,,,,,,,,,,,,,,,,,,,,,,,,343.9344359999959,None,piece,85,86,silent,red,341.93231879999803,None,None,341.93231879999803,None,,,,,,,,,,,,,,,,,,,,,,,,,,,,,,,,,,,10Silent,001,2022_Aug_03_1007,ProdSingRedoBetween,2021.2.3,59.936407470641754,
86,0,86,0,,,,,,,,,,,,,,,,,,,,,,,,,,346.4535753999953,None,growth,80,87,silent,red,344.438221000004,None,None,344.438221000004,None,,,,,,,,,,,,,,,,,,,,,,,,,,,,,,,,,,,10Silent,001,2022_Aug_03_1007,ProdSingRedoBetween,2021.2.3,59.936407470641754,
87,0,87,0,,,,,,,,,,,,,,,,,,,,,,,,,,348.9727644999948,None,religion,7,88,silent,yellow,346.958369400003,None,None,346.958369400003,None,,,,,,,,,,,,,,,,,,,,,,,,,,,,,,,,,,,10Silent,001,2022_Aug_03_1007,ProdSingRedoBetween,2021.2.3,59.936407470641754,
88,0,88,0,,,,,,,,,,,,,,,,,,,,,,,,,,351.4918863999919,None,place,81,89,silent,red,349.4840513999952,None,None,349.4840513999952,None,,,,,,,,,,,,,,,,,,,,,,,,,,,,,,,,,,,10Silent,001,2022_Aug_03_1007,ProdSingRedoBetween,2021.2.3,59.936407470641754,
89,0,89,0,,,,,,,,,,,,,,,,,,,,,,,,,,354.01109539999743,None,company,57,90,silent,blue,351.9970442999911,None,None,351.9970442999911,None,,,,,,,,,,,,,,,,,,,,,,,,,,,,,,,,,,,10Silent,001,2022_Aug_03_1007,ProdSingRedoBetween,2021.2.3,59.936407470641754,
,,,,,,,,,,,,,,,,,,,,,,,,,,,,,,,,,,,,,,,,,354.5119485000032,None,k,122.25224610000441,354.5119485000032,None,,,,,,,,,,,,,,,,,,,,,,,,,,,,,10Silent,001,2022_Aug_03_1007,ProdSingRedoBetween,2021.2.3,59.936407470641754,
,,,,0,0,0,0,,,,,,,,,,,,,,,,,,,,,,483.0067490999936,None,,,,,,,,,,,,,,,,,course,123,1,silent,new,null,477.3007349999971,None,477.3007349999971,None,5,3.375539000000572,477.3007349999971,None,3.375539000000572,480.7134994999942,None,481.2217776000034,None,481.2217776000034,None,f,1.7664407999982359,481.2217776000034,None,1.7664407999982359,,,10Silent,001,2022_Aug_03_1007,ProdSingRedoBetween,2021.2.3,59.936407470641754,
,,,,1,0,1,0,,,,,,,,,,,,,,,,,,,,,,488.01179129999946,None,,,,,,,,,,,,,,,,,hearing,6,2,silent,old,yellow,483.52215910000086,None,483.52215910000086,None,2,3.0419907000032254,483.52215910000086,None,3.0419907000032254,486.5936902999965,None,487.096673299995,None,487.096673299995,None,n,0.8995967999944696,487.096673299995,None,0.8995967999944696,,,10Silent,001,2022_Aug_03_1007,ProdSingRedoBetween,2021.2.3,59.936407470641754,
,,,,2,0,2,0,,,,,,,,,,,,,,,,,,,,,,495.41915499999595,None,,,,,,,,,,,,,,,,,listen,55,3,silent,old,blue,488.5231808999961,None,488.5231808999961,None,5,5.1212533000070835,488.5231808999961,None,5.1212533000070835,493.6686264000018,None,494.17197199999646,None,494.17197199999646,None,f,1.232227899992722,494.17197199999646,None,1.232227899992722,,,10Silent,001,2022_Aug_03_1007,ProdSingRedoBetween,2021.2.3,59.936407470641754,
,,,,3,0,3,0,,,,,,,,,,,,,,,,,,,,,,501.3083353999973,None,,,,,,,,,,,,,,,,,heavy,161,4,silent,new,null,495.92784380000376,None,495.92784380000376,None,3,3.2842551000067033,495.92784380000376,None,3.2842551000067033,499.2409275999962,None,499.7459707999951,None,499.7459707999951,None,n,1.5461996000085492,499.7459707999951,None,1.5461996000085492,,,10Silent,001,2022_Aug_03_1007,ProdSingRedoBetween,2021.2.3,59.936407470641754,
,,,,4,0,4,0,,,,,,,,,,,,,,,,,,,,,,509.917048599993,None,,,,,,,,,,,,,,,,,working,145,5,silent,new,null,501.82320379999874,None,501.82320379999874,None,3,6.029115700002876,501.82320379999874,None,6.029115700002876,507.8898870999983,None,508.3989639999927,None,508.3989639999927,None,n,1.4931893999892054,508.3989639999927,None,1.4931893999892054,,,10Silent,001,2022_Aug_03_1007,ProdSingRedoBetween,2021.2.3,59.936407470641754,
,,,,5,0,5,0,,,,,,,,,,,,,,,,,,,,,,521.2616590999969,None,,,,,,,,,,,,,,,,,detective,41,6,silent,old,blue,510.42140110000037,None,510.42140110000037,None,4,8.36682729999302,510.42140110000037,None,8.36682729999302,518.8104287000024,None,519.3148109000031,None,519.3148109000031,None,f,1.9292970999958925,519.3148109000031,None,1.9292970999958925,,,10Silent,001,2022_Aug_03_1007,ProdSingRedoBetween,2021.2.3,59.936407470641754,
,,,,6,0,6,0,,,,,,,,,,,,,,,,,,,,,,525.6995164999971,None,,,,,,,,,,,,,,,,,fashion,168,7,silent,new,null,521.7797394999943,None,521.7797394999943,None,1,2.616402999992715,521.7797394999943,None,2.616402999992715,524.4184365999972,None,524.9321141999972,None,524.9321141999972,None,n,0.752109000008204,524.9321141999972,None,0.752109000008204,,,10Silent,001,2022_Aug_03_1007,ProdSingRedoBetween,2021.2.3,59.936407470641754,
,,,,7,0,7,0,,,,,,,,,,,,,,,,,,,,,,531.8056490000017,None,,,,,,,,,,,,,,,,,foundation,38,8,silent,old,blue,526.2102978999901,None,526.2102978999901,None,2,4.2898584000067785,526.2102978999901,None,4.2898584000067785,530.5220573999977,None,531.021559300003,None,531.021559300003,None,n,0.7586546999955317,531.021559300003,None,0.7586546999955317,,,10Silent,001,2022_Aug_03_1007,ProdSingRedoBetween,2021.2.3,59.936407470641754,
,,,,8,0,8,0,,,,,,,,,,,,,,,,,,,,,,536.8939084000012,None,,,,,,,,,,,,,,,,,instrument,137,9,silent,new,null,532.3124014999921,None,532.3124014999921,None,1,2.9957173000002513,532.3124014999921,None,2.9957173000002513,535.3269186999969,None,535.8325737999985,None,535.8325737999985,None,n,1.0358226999960607,535.8325737999985,None,1.0358226999960607,,,10Silent,001,2022_Aug_03_1007,ProdSingRedoBetween,2021.2.3,59.936407470641754,
,,,,9,0,9,0,,,,,,,,,,,,,,,,,,,,,,552.2591992999951,None,,,,,,,,,,,,,,,,,grade,153,10,silent,new,null,537.4075520999904,None,537.4075520999904,None,5,5.332528099999763,537.4075520999904,None,5.332528099999763,542.76655819999,None,543.267119199998,None,543.267119199998,None,r,8.961146400004509,543.267119199998,None,8.961146400004509,,,10Silent,001,2022_Aug_03_1007,ProdSingRedoBetween,2021.2.3,59.936407470641754,
,,,,10,0,10,0,,,,,,,,,,,,,,,,,,,,,,562.5362855999992,None,,,,,,,,,,,,,,,,,measure,16,11,silent,old,yellow,552.7683205999929,None,552.7683205999929,None,3,4.563904399998137,552.7683205999929,None,4.563904399998137,557.3488872000016,None,557.8483439999982,None,557.8483439999982,None,n,4.659848900002544,557.8483439999982,None,4.659848900002544,,,10Silent,001,2022_Aug_03_1007,ProdSingRedoBetween,2021.2.3,59.936407470641754,
,,,,11,0,11,0,,,,,,,,,,,,,,,,,,,,,,567.7288578000007,None,,,,,,,,,,,,,,,,,collection,147,12,silent,new,null,563.0424017000041,None,563.0424017000041,None,2,3.3378189999930328,563.0424017000041,None,3.3378189999930328,566.4077106999903,None,566.9073413000006,None,566.9073413000006,None,n,0.7927878000045894,566.9073413000006,None,0.7927878000045894,,,10Silent,001,2022_Aug_03_1007,ProdSingRedoBetween,2021.2.3,59.936407470641754,
,,,,12,0,12,0,,,,,,,,,,,,,,,,,,,,,,577.7013620999933,None,,,,,,,,,,,,,,,,,addition,48,13,silent,old,blue,568.2461571000022,None,568.2461571000022,None,6,3.5340377000102308,568.2461571000022,None,3.5340377000102308,571.7956749000004,None,572.2984541999904,None,572.2984541999904,None,f,5.37772189998941,572.2984541999904,None,5.37772189998941,,,10Silent,001,2022_Aug_03_1007,ProdSingRedoBetween,2021.2.3,59.936407470641754,
,,,,13,0,13,0,,,,,,,,,,,,,,,,,,,,,,591.4317579999915,None,,,,,,,,,,,,,,,,,master,83,14,silent,old,red,578.212995599999,None,578.212995599999,None,6,2.919173700007377,578.212995599999,None,2.919173700007377,581.1563061999914,None,581.6620005000004,None,581.6620005000004,None,f,9.750208900004509,581.6620005000004,None,9.750208900004509,,,10Silent,001,2022_Aug_03_1007,ProdSingRedoBetween,2021.2.3,59.936407470641754,
,,,,14,0,14,0,,,,,,,,,,,,,,,,,,,,,,595.1855966000003,None,,,,,,,,,,,,,,,,,frank,105,15,silent,new,null,591.932380600003,None,591.932380600003,None,1,1.9198826999927405,591.932380600003,None,1.9198826999927405,593.8700236000004,None,594.3848740999965,None,594.3848740999965,None,n,0.7713460999948438,594.3848740999965,None,0.7713460999948438,,,10Silent,001,2022_Aug_03_1007,ProdSingRedoBetween,2021.2.3,59.936407470641754,
,,,,15,0,15,0,,,,,,,,,,,,,,,,,,,,,,612.6862648999959,None,,,,,,,,,,,,,,,,,poetry,3,16,silent,old,yellow,595.6862372000032,None,595.6862372000032,None,6,2.109995099992375,595.6862372000032,None,2.109995099992375,597.8228283999924,None,598.3221835000004,None,598.3221835000004,None,r,14.346196500002407,598.3221835000004,None,14.346196500002407,,,10Silent,001,2022_Aug_03_1007,ProdSingRedoBetween,2021.2.3,59.936407470641754,
,,,,16,0,16,0,,,,,,,,,,,,,,,,,,,,,,616.5569574999972,None,,,,,,,,,,,,,,,,,still,150,17,silent,new,null,613.1900405999913,None,613.1900405999913,None,2,2.1422019000019645,613.1900405999913,None,2.1422019000019645,615.3570478000038,None,615.8596718999906,None,615.8596718999906,None,n,0.6726434999873163,615.8596718999906,None,0.6726434999873163,,,10Silent,001,2022_Aug_03_1007,ProdSingRedoBetween,2021.2.3,59.936407470641754,
,,,,17,0,17,0,,,,,,,,,,,,,,,,,,,,,,624.0977211999998,None,,,,,,,,,,,,,,,,,drink,96,18,silent,new,null,617.0652662999928,None,617.0652662999928,None,1,5.755099000001792,617.0652662999928,None,5.755099000001792,622.8533568999992,None,623.3638090000022,None,623.3638090000022,None,n,0.7044666000001598,623.3638090000022,None,0.7044666000001598,,,10Silent,001,2022_Aug_03_1007,ProdSingRedoBetween,2021.2.3,59.936407470641754,
,,,,18,0,18,0,,,,,,,,,,,,,,,,,,,,,,628.4688503999932,None,,,,,,,,,,,,,,,,,republic,82,19,silent,old,red,624.6055336999998,None,624.6055336999998,None,6,1.8147114999883343,624.6055336999998,None,1.8147114999883343,626.4510580999922,None,626.9508368999959,None,626.9508368999959,None,r,1.5014214999973774,626.9508368999959,None,1.5014214999973774,,,10Silent,001,2022_Aug_03_1007,ProdSingRedoBetween,2021.2.3,59.936407470641754,
,,,,19,0,19,0,,,,,,,,,,,,,,,,,,,,,,633.2915156999952,None,,,,,,,,,,,,,,,,,second,93,20,silent,new,null,628.9806687999953,None,628.9806687999953,None,1,3.1675509000051534,628.9806687999953,None,3.1675509000051534,632.1852802999929,None,632.6897098999907,None,632.6897098999907,None,n,0.578470099993865,632.6897098999907,None,0.578470099993865,,,10Silent,001,2022_Aug_03_1007,ProdSingRedoBetween,2021.2.3,59.936407470641754,
,,,,20,0,20,0,,,,,,,,,,,,,,,,,,,,,,640.8811757999938,None,,,,,,,,,,,,,,,,,number,15,21,silent,old,yellow,633.7935697999928,None,633.7935697999928,None,4,4.8506247000041185,633.7935697999928,None,4.8506247000041185,638.6623113999958,None,639.1629849000019,None,639.1629849000019,None,f,1.6972701999911806,639.1629849000019,None,1.6972701999911806,,,10Silent,001,2022_Aug_03_1007,ProdSingRedoBetween,2021.2.3,59.936407470641754,
,,,,21,0,21,0,,,,,,,,,,,,,,,,,,,,,,645.4523920999927,None,,,,,,,,,,,,,,,,,mankind,51,22,silent,old,blue,641.3852156999928,None,641.3852156999928,None,1,2.8032514000078663,641.3852156999928,None,2.8032514000078663,644.2219386999932,None,644.7353015999979,None,644.7353015999979,None,n,0.6929363999952329,644.7353015999979,None,0.6929363999952329,,,10Silent,001,2022_Aug_03_1007,ProdSingRedoBetween,2021.2.3,59.936407470641754,
,,,,22,0,22,0,,,,,,,,,,,,,,,,,,,,,,654.5116045000032,None,,,,,,,,,,,,,,,,,disease,49,23,silent,old,blue,645.9609182999993,None,645.9609182999993,None,5,2.875350399990566,645.9609182999993,None,2.875350399990566,648.8570474000007,None,649.3564730999933,None,649.3564730999933,None,r,5.135773900008644,649.3564730999933,None,5.135773900008644,,,10Silent,001,2022_Aug_03_1007,ProdSingRedoBetween,2021.2.3,59.936407470641754,
,,,,23,0,23,0,,,,,,,,,,,,,,,,,,,,,,662.9199673999974,None,,,,,,,,,,,,,,,,,estate,139,24,silent,new,null,655.0281726999965,None,655.0281726999965,None,2,6.712102599994978,655.0281726999965,None,6.712102599994978,661.7696111999976,None,662.2762440999941,None,662.2762440999941,None,n,0.6160016999929212,662.2762440999941,None,0.6160016999929212,,,10Silent,001,2022_Aug_03_1007,ProdSingRedoBetween,2021.2.3,59.936407470641754,
,,,,24,0,24,0,,,,,,,,,,,,,,,,,,,,,,666.5568904999964,None,,,,,,,,,,,,,,,,,trend,103,25,silent,new,null,663.4265037000005,None,663.4265037000005,None,1,1.889847300000838,663.4265037000005,None,1.889847300000838,665.3389904999931,None,665.8425311000028,None,665.8425311000028,None,n,0.6977626000007149,665.8425311000028,None,0.6977626000007149,,,10Silent,001,2022_Aug_03_1007,ProdSingRedoBetween,2021.2.3,59.936407470641754,
,,,,25,0,25,0,,,,,,,,,,,,,,,,,,,,,,674.1811222999968,None,,,,,,,,,,,,,,,,,region,160,26,silent,new,null,667.0706617999967,None,667.0706617999967,None,3,5.309536600005231,667.0706617999967,None,5.309536600005231,672.3959965999966,None,672.8994430000021,None,672.8994430000021,None,n,1.256746099999873,672.8994430000021,None,1.256746099999873,,,10Silent,001,2022_Aug_03_1007,ProdSingRedoBetween,2021.2.3,59.936407470641754,
,,,,26,0,26,0,,,,,,,,,,,,,,,,,,,,,,682.2226133999939,None,,,,,,,,,,,,,,,,,household,61,27,silent,old,red,674.6892334000004,None,674.6892334000004,None,6,4.522932799998671,674.6892334000004,None,4.522932799998671,679.2371218000044,None,679.7414508999937,None,679.7414508999937,None,f,2.4548922999965725,679.7414508999937,None,2.4548922999965725,,,10Silent,001,2022_Aug_03_1007,ProdSingRedoBetween,2021.2.3,59.936407470641754,
,,,,27,0,27,0,,,,,,,,,,,,,,,,,,,,,,690.9312205000024,None,,,,,,,,,,,,,,,,,waste,86,28,silent,old,red,682.7297014999931,None,682.7297014999931,None,5,2.682767000005697,682.7297014999931,None,2.682767000005697,685.4504273999919,None,685.9597519999952,None,685.9597519999952,None,f,4.940522499993676,685.9597519999952,None,4.940522499993676,,,10Silent,001,2022_Aug_03_1007,ProdSingRedoBetween,2021.2.3,59.936407470641754,
,,,,28,0,28,0,,,,,,,,,,,,,,,,,,,,,,697.0706207000039,None,,,,,,,,,,,,,,,,,military,157,29,silent,new,null,691.4398550999904,None,691.4398550999904,None,3,4.076427200008766,691.4398550999904,None,4.076427200008766,695.537204799999,None,696.0363879999932,None,696.0363879999932,None,n,1.007857900011004,696.0363879999932,None,1.007857900011004,,,10Silent,001,2022_Aug_03_1007,ProdSingRedoBetween,2021.2.3,59.936407470641754,
,,,,29,0,29,0,,,,,,,,,,,,,,,,,,,,,,700.7912471000018,None,,,,,,,,,,,,,,,,,provision,100,30,silent,new,null,697.5718450999993,None,697.5718450999993,None,1,2.2005556999938563,697.5718450999993,None,2.2005556999938563,699.7976873000007,None,700.313207500003,None,700.313207500003,None,n,0.45109439999214374,700.313207500003,None,0.45109439999214374,,,10Silent,001,2022_Aug_03_1007,ProdSingRedoBetween,2021.2.3,59.936407470641754,
,,,,30,0,30,0,,,,,,,,,,,,,,,,,,,,,,707.3476073999918,None,,,,,,,,,,,,,,,,,rapid,124,31,silent,new,null,701.2974501999997,None,701.2974501999997,None,1,5.154820499999914,701.2974501999997,None,5.154820499999914,706.4810937000002,None,706.9808695999964,None,706.9808695999964,None,n,0.35136169999896083,706.9808695999964,None,0.35136169999896083,,,10Silent,001,2022_Aug_03_1007,ProdSingRedoBetween,2021.2.3,59.936407470641754,
,,,,31,0,31,0,,,,,,,,,,,,,,,,,,,,,,711.9534084000043,None,,,,,,,,,,,,,,,,,alert,39,32,silent,old,blue,707.849000599992,None,707.849000599992,None,2,3.1313246000063373,707.849000599992,None,3.1313246000063373,711.0014233999973,None,711.5054366999975,None,711.5054366999975,None,n,0.41894389998924453,711.5054366999975,None,0.41894389998924453,,,10Silent,001,2022_Aug_03_1007,ProdSingRedoBetween,2021.2.3,59.936407470641754,
,,,,32,0,32,0,,,,,,,,,,,,,,,,,,,,,,718.4921753999952,None,,,,,,,,,,,,,,,,,tennis,149,33,silent,new,null,712.4574877999985,None,712.4574877999985,None,3,5.146841499998118,712.4574877999985,None,5.146841499998118,717.6257296999975,None,718.1335601000028,None,718.1335601000028,None,n,0.3348231999989366,718.1335601000028,None,0.3348231999989366,,,10Silent,001,2022_Aug_03_1007,ProdSingRedoBetween,2021.2.3,59.936407470641754,
,,,,33,0,33,0,,,,,,,,,,,,,,,,,,,,,,725.6326607999945,None,,,,,,,,,,,,,,,,,colonel,44,34,silent,old,blue,718.9993453999923,None,718.9993453999923,None,6,2.573051299987128,718.9993453999923,None,2.573051299987128,721.5952225999936,None,722.098296199998,None,722.098296199998,None,r,3.5060418999928515,722.098296199998,None,3.5060418999928515,,,10Silent,001,2022_Aug_03_1007,ProdSingRedoBetween,2021.2.3,59.936407470641754,
,,,,34,0,34,0,,,,,,,,,,,,,,,,,,,,,,735.6091996000032,None,,,,,,,,,,,,,,,,,meeting,0,35,silent,old,yellow,726.1391799999983,None,726.1391799999983,None,4,6.849148299996159,726.1391799999983,None,6.849148299996159,733.0099642999994,None,733.5255419000023,None,733.5255419000023,None,f,2.062973799998872,733.5255419000023,None,2.062973799998872,,,10Silent,001,2022_Aug_03_1007,ProdSingRedoBetween,2021.2.3,59.936407470641754,
,,,,35,0,35,0,,,,,,,,,,,,,,,,,,,,,,742.9999828,None,,,,,,,,,,,,,,,,,strength,163,36,silent,new,null,736.1128794999968,None,736.1128794999968,None,2,5.531444199994439,736.1128794999968,None,5.531444199994439,741.6665317000006,None,742.1685460000008,None,742.1685460000008,None,n,0.8037685000017518,742.1685460000008,None,0.8037685000017518,,,10Silent,001,2022_Aug_03_1007,ProdSingRedoBetween,2021.2.3,59.936407470641754,
,,,,36,0,36,0,,,,,,,,,,,,,,,,,,,,,,749.5261693999928,None,,,,,,,,,,,,,,,,,population,101,37,silent,new,null,743.5111401000031,None,743.5111401000031,None,4,3.461263000004692,743.5111401000031,None,3.461263000004692,746.9875871999975,None,747.4879493999906,None,747.4879493999906,None,f,2.0205323999980465,747.4879493999906,None,2.0205323999980465,,,10Silent,001,2022_Aug_03_1007,ProdSingRedoBetween,2021.2.3,59.936407470641754,
,,,,37,0,37,0,,,,,,,,,,,,,,,,,,,,,,754.4615960999945,None,,,,,,,,,,,,,,,,,weather,43,38,silent,old,blue,750.0435660999938,None,750.0435660999938,None,1,3.5286667000036687,750.0435660999938,None,3.5286667000036687,753.6011661999946,None,754.1113840000035,None,754.1113840000035,None,n,0.32510760000150185,754.1113840000035,None,0.32510760000150185,,,10Silent,001,2022_Aug_03_1007,ProdSingRedoBetween,2021.2.3,59.936407470641754,
,,,,38,0,38,0,,,,,,,,,,,,,,,,,,,,,,762.8531959999964,None,,,,,,,,,,,,,,,,,profession,19,39,silent,old,yellow,754.9731801000016,None,754.9731801000016,None,6,1.895180999999866,754.9731801000016,None,1.895180999999866,756.8980837999989,None,757.4033165000001,None,757.4033165000001,None,r,5.425329400008195,757.4033165000001,None,5.425329400008195,,,10Silent,001,2022_Aug_03_1007,ProdSingRedoBetween,2021.2.3,59.936407470641754,
,,,,39,0,39,0,,,,,,,,,,,,,,,,,,,,,,772.4460991999949,None,,,,,,,,,,,,,,,,,scale,121,40,silent,new,null,763.3549698999996,None,763.3549698999996,None,3,7.825559099990642,763.3549698999996,None,7.825559099990642,771.2125008000003,None,771.7122611999948,None,771.7122611999948,None,n,0.7161705000034999,771.7122611999948,None,0.7161705000034999,,,10Silent,001,2022_Aug_03_1007,ProdSingRedoBetween,2021.2.3,59.936407470641754,
,,,,40,0,40,0,,,,,,,,,,,,,,,,,,,,,,777.1340449999989,None,,,,,,,,,,,,,,,,,broke,4,41,silent,old,yellow,772.9481686999934,None,772.9481686999934,None,6,1.9122171999915736,772.9481686999934,None,1.9122171999915736,774.8818776999979,None,775.38700409999,None,775.38700409999,None,r,1.7213103999965824,775.38700409999,None,1.7213103999965824,,,10Silent,001,2022_Aug_03_1007,ProdSingRedoBetween,2021.2.3,59.936407470641754,
,,,,41,0,41,0,,,,,,,,,,,,,,,,,,,,,,784.7417163999926,None,,,,,,,,,,,,,,,,,charter,146,42,silent,new,null,777.6426617999969,None,777.6426617999969,None,6,5.793725199997425,777.6426617999969,None,5.793725199997425,783.4571202999941,None,783.9578398000012,None,783.9578398000012,None,f,0.7665580000029877,783.9578398000012,None,0.7665580000029877,,,10Silent,001,2022_Aug_03_1007,ProdSingRedoBetween,2021.2.3,59.936407470641754,
,,,,42,0,42,0,,,,,,,,,,,,,,,,,,,,,,789.3806671999919,None,,,,,,,,,,,,,,,,,nature,102,43,silent,new,null,785.244924700004,None,785.244924700004,None,1,3.2554786000109743,785.244924700004,None,3.2554786000109743,788.5289611999906,None,789.0348693999986,None,789.0348693999986,None,n,0.32957999999052845,789.0348693999986,None,0.32957999999052845,,,10Silent,001,2022_Aug_03_1007,ProdSingRedoBetween,2021.2.3,59.936407470641754,
,,,,43,0,43,0,,,,,,,,,,,,,,,,,,,,,,794.8532257000043,None,,,,,,,,,,,,,,,,,burden,109,44,silent,new,null,789.8869780999958,None,789.8869780999958,None,1,3.821437100006733,789.8869780999958,None,3.821437100006733,793.7340843999991,None,794.2347851999948,None,794.2347851999948,None,n,0.6017147999955341,794.2347851999948,None,0.6017147999955341,,,10Silent,001,2022_Aug_03_1007,ProdSingRedoBetween,2021.2.3,59.936407470641754,
,,,,44,0,44,0,,,,,,,,,,,,,,,,,,,,,,798.9260321000038,None,,,,,,,,,,,,,,,,,thing,107,45,silent,new,null,795.3700222000043,None,795.3700222000043,None,1,2.4265872000105446,795.3700222000043,None,2.4265872000105446,797.828468599997,None,798.3411704000027,None,798.3411704000027,None,n,0.551413399996818,798.3411704000027,None,0.551413399996818,,,10Silent,001,2022_Aug_03_1007,ProdSingRedoBetween,2021.2.3,59.936407470641754,
,,,,45,0,45,0,,,,,,,,,,,,,,,,,,,,,,804.4781463999971,None,,,,,,,,,,,,,,,,,express,84,46,silent,old,red,799.4398731999972,None,799.4398731999972,None,3,3.900509900006,799.4398731999972,None,3.900509900006,803.3616379000014,None,803.8662053000007,None,803.8662053000007,None,n,0.586191599999438,803.8662053000007,None,0.586191599999438,,,10Silent,001,2022_Aug_03_1007,ProdSingRedoBetween,2021.2.3,59.936407470641754,
,,,,46,0,46,0,,,,,,,,,,,,,,,,,,,,,,809.2996600999904,None,,,,,,,,,,,,,,,,,universal,142,47,silent,new,null,804.9859498000005,None,804.9859498000005,None,3,3.218421200013836,804.9859498000005,None,3.218421200013836,808.2339858999912,None,808.7523236999987,None,808.7523236999987,None,n,0.5161368000117363,808.7523236999987,None,0.5161368000117363,,,10Silent,001,2022_Aug_03_1007,ProdSingRedoBetween,2021.2.3,59.936407470641754,
,,,,47,0,47,0,,,,,,,,,,,,,,,,,,,,,,816.5902298000001,None,,,,,,,,,,,,,,,,,distance,50,48,silent,old,blue,809.8104367999913,None,809.8104367999913,None,2,5.978012799998396,809.8104367999913,None,5.978012799998396,815.8096893000038,None,816.3234067000012,None,816.3234067000012,None,n,0.2490591000096174,816.3234067000012,None,0.2490591000096174,,,10Silent,001,2022_Aug_03_1007,ProdSingRedoBetween,2021.2.3,59.936407470641754,
,,,,48,0,48,0,,,,,,,,,,,,,,,,,,,,,,822.9800037999958,None,,,,,,,,,,,,,,,,,native,54,49,silent,old,blue,817.0910507999943,None,817.0910507999943,None,6,1.7774505999987014,817.0910507999943,None,1.7774505999987014,818.895924299999,None,819.4128290999943,None,819.4128290999943,None,r,3.5436143000115408,819.4128290999943,None,3.5436143000115408,,,10Silent,001,2022_Aug_03_1007,ProdSingRedoBetween,2021.2.3,59.936407470641754,
,,,,49,0,49,0,,,,,,,,,,,,,,,,,,,,,,829.6700042000011,None,,,,,,,,,,,,,,,,,turkey,176,50,silent,new,null,823.4819165999943,None,823.4819165999943,None,1,5.162597299990011,823.4819165999943,None,5.162597299990011,828.6689459000045,None,829.1696146000031,None,829.1696146000031,None,n,0.4828403999999864,829.1696146000031,None,0.4828403999999864,,,10Silent,001,2022_Aug_03_1007,ProdSingRedoBetween,2021.2.3,59.936407470641754,
,,,,50,0,50,0,,,,,,,,,,,,,,,,,,,,,,834.1745414000034,None,,,,,,,,,,,,,,,,,bicycle,78,51,silent,old,red,830.1881541000039,None,830.1881541000039,None,1,2.816222099994775,830.1881541000039,None,2.816222099994775,833.0246606000001,None,833.5288355999946,None,833.5288355999946,None,n,0.627603499990073,833.5288355999946,None,0.627603499990073,,,10Silent,001,2022_Aug_03_1007,ProdSingRedoBetween,2021.2.3,59.936407470641754,
,,,,51,0,51,0,,,,,,,,,,,,,,,,,,,,,,840.8312023000035,None,,,,,,,,,,,,,,,,,institute,117,52,silent,new,null,834.675585799996,None,834.675585799996,None,4,2.8649225999979535,834.675585799996,None,2.8649225999979535,837.562569200003,None,838.067012200001,None,838.067012200001,None,f,2.7375058999896282,838.067012200001,None,2.7375058999896282,,,10Silent,001,2022_Aug_03_1007,ProdSingRedoBetween,2021.2.3,59.936407470641754,
,,,,52,0,52,0,,,,,,,,,,,,,,,,,,,,,,847.8556701999914,None,,,,,,,,,,,,,,,,,company,57,53,silent,old,blue,841.3435986999975,None,841.3435986999975,None,4,3.4128437000035774,841.3435986999975,None,3.4128437000035774,844.7859040999901,None,845.2858062000014,None,845.2858062000014,None,f,2.542659700004151,845.2858062000014,None,2.542659700004151,,,10Silent,001,2022_Aug_03_1007,ProdSingRedoBetween,2021.2.3,59.936407470641754,
,,,,53,0,53,0,,,,,,,,,,,,,,,,,,,,,,857.7313776999945,None,,,,,,,,,,,,,,,,,sunset,47,54,silent,old,blue,848.355389999997,None,848.355389999997,None,6,2.0410217000026023,848.355389999997,None,2.0410217000026023,850.4250174999906,None,850.9287624999997,None,850.9287624999997,None,r,6.771817699991516,850.9287624999997,None,6.771817699991516,,,10Silent,001,2022_Aug_03_1007,ProdSingRedoBetween,2021.2.3,59.936407470641754,
,,,,54,0,54,0,,,,,,,,,,,,,,,,,,,,,,866.7238010000001,None,,,,,,,,,,,,,,,,,skill,63,55,silent,old,red,858.2352387999999,None,858.2352387999999,None,4,7.129217699999572,858.2352387999999,None,7.129217699999572,865.3903771000041,None,865.8896696000011,None,865.8896696000011,None,f,0.8188293999992311,865.8896696000011,None,0.8188293999992311,,,10Silent,001,2022_Aug_03_1007,ProdSingRedoBetween,2021.2.3,59.936407470641754,
,,,,55,0,55,0,,,,,,,,,,,,,,,,,,,,,,873.0299843999965,None,,,,,,,,,,,,,,,,,space,134,56,silent,new,null,867.2252140999917,None,867.2252140999917,None,1,4.771231700011413,867.2252140999917,None,4.771231700011413,872.0145420999906,None,872.5296827999991,None,872.5296827999991,None,n,0.4748842999979388,872.5296827999991,None,0.4748842999979388,,,10Silent,001,2022_Aug_03_1007,ProdSingRedoBetween,2021.2.3,59.936407470641754,
,,,,56,0,56,0,,,,,,,,,,,,,,,,,,,,,,884.9085963999969,None,,,,,,,,,,,,,,,,,commercial,68,57,silent,old,red,873.5377939000027,None,873.5377939000027,None,6,1.5466082000057213,873.5377939000027,None,1.5466082000057213,875.1153954000038,None,875.6185512999946,None,875.6185512999946,None,r,9.265913999988697,875.6185512999946,None,9.265913999988697,,,10Silent,001,2022_Aug_03_1007,ProdSingRedoBetween,2021.2.3,59.936407470641754,
,,,,57,0,57,0,,,,,,,,,,,,,,,,,,,,,,889.4963748000009,None,,,,,,,,,,,,,,,,,safety,95,58,silent,new,null,885.4174171999912,None,885.4174171999912,None,2,2.554993199999444,885.4174171999912,None,2.554993199999444,887.9961870999978,None,888.4969335999922,None,888.4969335999922,None,n,0.9715782999992371,888.4969335999922,None,0.9715782999992371,,,10Silent,001,2022_Aug_03_1007,ProdSingRedoBetween,2021.2.3,59.936407470641754,
,,,,58,0,58,0,,,,,,,,,,,,,,,,,,,,,,899.1060954999994,None,,,,,,,,,,,,,,,,,private,90,59,silent,new,null,890.0054547000036,None,890.0054547000036,None,3,8.05497959999775,890.0054547000036,None,8.05497959999775,898.0895060000039,None,898.5968790000043,None,898.5968790000043,None,n,0.48760579999361653,898.5968790000043,None,0.48760579999361653,,,10Silent,001,2022_Aug_03_1007,ProdSingRedoBetween,2021.2.3,59.936407470641754,
,,,,59,0,59,0,,,,,,,,,,,,,,,,,,,,,,905.1788846999989,None,,,,,,,,,,,,,,,,,crime,133,60,silent,new,null,899.615994199994,None,899.615994199994,None,2,4.644409500004258,899.615994199994,None,4.644409500004258,904.2779110999982,None,904.7786306999915,None,904.7786306999915,None,n,0.37793539999984205,904.7786306999915,None,0.37793539999984205,,,10Silent,001,2022_Aug_03_1007,ProdSingRedoBetween,2021.2.3,59.936407470641754,
,,,,60,0,60,0,,,,,,,,,,,,,,,,,,,,,,912.9866550000006,None,,,,,,,,,,,,,,,,,count,87,61,silent,old,red,905.6879543999967,None,905.6879543999967,None,6,1.5005323000077624,905.6879543999967,None,1.5005323000077624,907.2142628000001,None,907.7191866999929,None,907.7191866999929,None,r,5.237342499996885,907.7191866999929,None,5.237342499996885,,,10Silent,001,2022_Aug_03_1007,ProdSingRedoBetween,2021.2.3,59.936407470641754,
,,,,61,0,61,0,,,,,,,,,,,,,,,,,,,,,,922.4461386999901,None,,,,,,,,,,,,,,,,,split,164,62,silent,new,null,913.4872603999975,None,913.4872603999975,None,3,7.973219199993764,913.4872603999975,None,7.973219199993764,921.4800093999947,None,921.9791882999998,None,921.9791882999998,None,n,0.4414418999949703,921.9791882999998,None,0.4414418999949703,,,10Silent,001,2022_Aug_03_1007,ProdSingRedoBetween,2021.2.3,59.936407470641754,
,,,,62,0,62,0,,,,,,,,,,,,,,,,,,,,,,926.6503354000015,None,,,,,,,,,,,,,,,,,fight,99,63,silent,new,null,922.9568354999938,None,922.9568354999938,None,2,2.8557741999975406,922.9568354999938,None,2.8557741999975406,925.837744199991,None,926.3516346999968,None,926.3516346999968,None,n,0.26891210000030696,926.3516346999968,None,0.26891210000030696,,,10Silent,001,2022_Aug_03_1007,ProdSingRedoBetween,2021.2.3,59.936407470641754,
,,,,63,0,63,0,,,,,,,,,,,,,,,,,,,,,,935.1088156000042,None,,,,,,,,,,,,,,,,,column,66,64,silent,old,red,927.1584743999992,None,927.1584743999992,None,4,6.909932099995785,927.1584743999992,None,6.909932099995785,934.0946991999954,None,934.608476399997,None,934.608476399997,None,f,0.4760473000060301,934.608476399997,None,0.4760473000060301,,,10Silent,001,2022_Aug_03_1007,ProdSingRedoBetween,2021.2.3,59.936407470641754,
,,,,64,0,64,0,,,,,,,,,,,,,,,,,,,,,,941.0813778000011,None,,,,,,,,,,,,,,,,,raise,154,65,silent,new,null,935.615958800001,None,935.615958800001,None,2,4.596514100005152,935.615958800001,None,4.596514100005152,940.2318432000029,None,940.735078999991,None,940.735078999991,None,n,0.31748170001083054,940.735078999991,None,0.31748170001083054,,,10Silent,001,2022_Aug_03_1007,ProdSingRedoBetween,2021.2.3,59.936407470641754,
,,,,65,0,65,0,,,,,,,,,,,,,,,,,,,,,,945.5191571000032,None,,,,,,,,,,,,,,,,,debate,141,66,silent,new,null,941.5913695999916,None,941.5913695999916,None,2,3.0611218999983976,941.5913695999916,None,3.0611218999983976,944.6683073000022,None,945.1689933000016,None,945.1689933000016,None,n,0.331644599995343,945.1689933000016,None,0.331644599995343,,,10Silent,001,2022_Aug_03_1007,ProdSingRedoBetween,2021.2.3,59.936407470641754,
,,,,66,0,66,0,,,,,,,,,,,,,,,,,,,,,,950.8744884999905,None,,,,,,,,,,,,,,,,,husband,129,67,silent,new,null,946.0226906000025,None,946.0226906000025,None,1,3.7978197999909753,946.0226906000025,None,3.7978197999909753,949.8484515000018,None,950.3574044999987,None,950.3574044999987,None,n,0.4870276999863563,950.3574044999987,None,0.4870276999863563,,,10Silent,001,2022_Aug_03_1007,ProdSingRedoBetween,2021.2.3,59.936407470641754,
,,,,67,0,67,0,,,,,,,,,,,,,,,,,,,,,,958.7157081000041,None,,,,,,,,,,,,,,,,,relation,8,68,silent,old,yellow,951.3808582999918,None,951.3808582999918,None,2,6.3598172000056366,951.3808582999918,None,6.3598172000056366,957.7694306999911,None,958.2852582999913,None,958.2852582999913,None,n,0.3994254999997793,958.2852582999913,None,0.3994254999997793,,,10Silent,001,2022_Aug_03_1007,ProdSingRedoBetween,2021.2.3,59.936407470641754,
,,,,68,0,68,0,,,,,,,,,,,,,,,,,,,,,,969.6978829,None,,,,,,,,,,,,,,,,,balance,14,69,silent,old,yellow,959.2217298000032,None,959.2217298000032,None,6,1.9508909999858588,959.2217298000032,None,1.9508909999858588,961.202177500003,None,961.7021808999998,None,961.7021808999998,None,r,7.966555000006338,961.7021808999998,None,7.966555000006338,,,10Silent,001,2022_Aug_03_1007,ProdSingRedoBetween,2021.2.3,59.936407470641754,
,,,,69,0,69,0,,,,,,,,,,,,,,,,,,,,,,973.296960599997,None,,,,,,,,,,,,,,,,,trash,113,70,silent,new,null,970.2233590999967,None,970.2233590999967,None,1,2.037381900008768,970.2233590999967,None,2.037381900008768,972.2928107000043,None,972.7965480999992,None,972.7965480999992,None,n,0.48004490000312217,972.7965480999992,None,0.48004490000312217,,,10Silent,001,2022_Aug_03_1007,ProdSingRedoBetween,2021.2.3,59.936407470641754,
,,,,70,0,70,0,,,,,,,,,,,,,,,,,,,,,,978.4855131999939,None,,,,,,,,,,,,,,,,,symbol,171,71,silent,new,null,973.8001890000014,None,973.8001890000014,None,1,3.7803678999916883,973.8001890000014,None,3.7803678999916883,977.6048819999996,None,978.1186124999949,None,978.1186124999949,None,n,0.34204489999683574,978.1186124999949,None,0.34204489999683574,,,10Silent,001,2022_Aug_03_1007,ProdSingRedoBetween,2021.2.3,59.936407470641754,
,,,,71,0,71,0,,,,,,,,,,,,,,,,,,,,,,984.975282600004,None,,,,,,,,,,,,,,,,,route,29,72,silent,old,blue,978.9893382000009,None,978.9893382000009,None,4,4.383256999994046,978.9893382000009,None,4.383256999994046,983.3913464999932,None,983.8952175000013,None,983.8952175000013,None,f,1.0614460000069812,983.8952175000013,None,1.0614460000069812,,,10Silent,001,2022_Aug_03_1007,ProdSingRedoBetween,2021.2.3,59.936407470641754,
,,,,72,0,72,0,,,,,,,,,,,,,,,,,,,,,,987.9115363000019,None,,,,,,,,,,,,,,,,,match,60,73,silent,old,red,985.4779110999953,None,985.4779110999953,None,6,1.4786578000057489,985.4779110999953,None,1.4786578000057489,986.9772227999929,None,987.4804054999986,None,987.4804054999986,None,r,0.41214889999537263,987.4804054999986,None,0.41214889999537263,,,10Silent,001,2022_Aug_03_1007,ProdSingRedoBetween,2021.2.3,59.936407470641754,
,,,,73,0,73,0,,,,,,,,,,,,,,,,,,,,,,992.4161235999927,None,,,,,,,,,,,,,,,,,store,132,74,silent,new,null,988.4209460999991,None,988.4209460999991,None,2,3.24763320000784,988.4209460999991,None,3.24763320000784,991.7032283000008,None,992.2192087000003,None,992.2192087000003,None,n,0.17739190001157112,992.2192087000003,None,0.17739190001157112,,,10Silent,001,2022_Aug_03_1007,ProdSingRedoBetween,2021.2.3,59.936407470641754,
,,,,74,0,74,0,,,,,,,,,,,,,,,,,,,,,,999.6899675000022,None,,,,,,,,,,,,,,,,,series,125,75,silent,new,null,992.9167291999911,None,992.9167291999911,None,3,5.783824999991339,992.9167291999911,None,5.783824999991339,998.7239994999982,None,999.2275519999966,None,999.2275519999966,None,n,0.441085500002373,999.2275519999966,None,0.441085500002373,,,10Silent,001,2022_Aug_03_1007,ProdSingRedoBetween,2021.2.3,59.936407470641754,
,,,,75,0,75,0,,,,,,,,,,,,,,,,,,,,,,1013.5538390000002,None,,,,,,,,,,,,,,,,,blind,2,76,silent,old,yellow,1000.1981728999963,None,1000.1981728999963,None,3,7.88639780000085,1000.1981728999963,None,7.88639780000085,1008.1150832999992,None,1008.6179661999922,None,1008.6179661999922,None,n,4.914835100003984,1008.6179661999922,None,4.914835100003984,,,10Silent,001,2022_Aug_03_1007,ProdSingRedoBetween,2021.2.3,59.936407470641754,
,,,,76,0,76,0,,,,,,,,,,,,,,,,,,,,,,1020.5942598999973,None,,,,,,,,,,,,,,,,,straight,69,77,silent,old,red,1014.0580992000032,None,1014.0580992000032,None,6,1.6504776000074344,1014.0580992000032,None,1.6504776000074344,1015.7401492999925,None,1016.2399933999986,None,1016.2399933999986,None,r,4.3245687000016915,1016.2399933999986,None,4.3245687000016915,,,10Silent,001,2022_Aug_03_1007,ProdSingRedoBetween,2021.2.3,59.936407470641754,
,,,,77,0,77,0,,,,,,,,,,,,,,,,,,,,,,1031.2049019999977,None,,,,,,,,,,,,,,,,,property,173,78,silent,new,null,1021.1024503999943,None,1021.1024503999943,None,4,8.790101399994455,1021.1024503999943,None,8.790101399994455,1029.921104299996,None,1030.4209241999924,None,1030.4209241999924,None,f,0.7596568000008119,1030.4209241999924,None,0.7596568000008119,,,10Silent,001,2022_Aug_03_1007,ProdSingRedoBetween,2021.2.3,59.936407470641754,
,,,,78,0,78,0,,,,,,,,,,,,,,,,,,,,,,1034.8919125999964,None,,,,,,,,,,,,,,,,,bitter,155,79,silent,new,null,1031.7129794999928,None,1031.7129794999928,None,1,2.2996386000013445,1031.7129794999928,None,2.2996386000013445,1034.041572999995,None,1034.5440619,None,1034.5440619,None,n,0.3166449999989709,1034.5440619,None,0.3166449999989709,,,10Silent,001,2022_Aug_03_1007,ProdSingRedoBetween,2021.2.3,59.936407470641754,
,,,,79,0,79,0,,,,,,,,,,,,,,,,,,,,,,1041.181580999997,None,,,,,,,,,,,,,,,,,title,114,80,silent,new,null,1035.3950593999907,None,1035.3950593999907,None,3,4.753511400005664,1035.3950593999907,None,4.753511400005664,1040.163816500004,None,1040.6687294000003,None,1040.6687294000003,None,n,0.48822100000688806,1040.6687294000003,None,0.48822100000688806,,,10Silent,001,2022_Aug_03_1007,ProdSingRedoBetween,2021.2.3,59.936407470641754,
,,,,80,0,80,0,,,,,,,,,,,,,,,,,,,,,,1045.6359139999986,None,,,,,,,,,,,,,,,,,rough,126,81,silent,new,null,1041.6878006000043,None,1041.6878006000043,None,2,2.8048194000002695,1041.6878006000043,None,2.8048194000002695,1044.5215048999962,None,1045.0354876999918,None,1045.0354876999918,None,n,0.5771148999920115,1045.0354876999918,None,0.5771148999920115,,,10Silent,001,2022_Aug_03_1007,ProdSingRedoBetween,2021.2.3,59.936407470641754,
,,,,81,0,81,0,,,,,,,,,,,,,,,,,,,,,,1050.8744788999902,None,,,,,,,,,,,,,,,,,territory,23,82,silent,old,yellow,1046.1451375000033,None,1046.1451375000033,None,5,3.579529700000421,1046.1451375000033,None,3.579529700000421,1049.7412394999992,None,1050.2449667000037,None,1050.2449667000037,None,f,0.6077789999981178,1050.2449667000037,None,0.6077789999981178,,,10Silent,001,2022_Aug_03_1007,ProdSingRedoBetween,2021.2.3,59.936407470641754,
,,,,82,0,82,0,,,,,,,,,,,,,,,,,,,,,,1060.2338463999913,None,,,,,,,,,,,,,,,,,chief,115,83,silent,new,null,1051.385631199999,None,1051.385631199999,None,4,8.002956800002721,1051.385631199999,None,8.002956800002721,1059.4163049999916,None,1059.9202702000039,None,1059.9202702000039,None,f,0.28444580000359565,1059.9202702000039,None,0.28444580000359565,,,10Silent,001,2022_Aug_03_1007,ProdSingRedoBetween,2021.2.3,59.936407470641754,
,,,,83,0,83,0,,,,,,,,,,,,,,,,,,,,,,1064.7716934999917,None,,,,,,,,,,,,,,,,,payment,56,84,silent,old,blue,1060.7344653000036,None,1060.7344653000036,None,2,3.190109000002849,1060.7344653000036,None,3.190109000002849,1063.9552567999926,None,1064.4588911000028,None,1064.4588911000028,None,n,0.28177359999972396,1064.4588911000028,None,0.28177359999972396,,,10Silent,001,2022_Aug_03_1007,ProdSingRedoBetween,2021.2.3,59.936407470641754,
,,,,84,0,84,0,,,,,,,,,,,,,,,,,,,,,,1072.429361699993,None,,,,,,,,,,,,,,,,,hunger,143,85,silent,new,null,1065.2749124999973,None,1065.2749124999973,None,2,5.657774499995867,1065.2749124999973,None,5.657774499995867,1070.9612590000033,None,1071.4666021000012,None,1071.4666021000012,None,n,0.9380236999859335,1071.4666021000012,None,0.9380236999859335,,,10Silent,001,2022_Aug_03_1007,ProdSingRedoBetween,2021.2.3,59.936407470641754,
,,,,85,0,85,0,,,,,,,,,,,,,,,,,,,,,,1082.4894420999917,None,,,,,,,,,,,,,,,,,mechanical,65,86,silent,old,red,1072.9369219999935,None,1072.9369219999935,None,5,2.587711500003934,1072.9369219999935,None,2.587711500003934,1075.549158599999,None,1076.0537770999945,None,1076.0537770999945,None,f,6.414896099988255,1076.0537770999945,None,6.414896099988255,,,10Silent,001,2022_Aug_03_1007,ProdSingRedoBetween,2021.2.3,59.936407470641754,
,,,,86,0,86,0,,,,,,,,,,,,,,,,,,,,,,1092.0156979000021,None,,,,,,,,,,,,,,,,,majority,89,87,silent,old,red,1082.998785399992,None,1082.998785399992,None,4,7.853884299998754,1082.998785399992,None,7.853884299998754,1090.8832191999973,None,1091.401136200002,None,1091.401136200002,None,f,0.5955037999956403,1091.401136200002,None,0.5955037999956403,,,10Silent,001,2022_Aug_03_1007,ProdSingRedoBetween,2021.2.3,59.936407470641754,
,,,,87,0,87,0,,,,,,,,,,,,,,,,,,,,,,1098.105112499994,None,,,,,,,,,,,,,,,,,primary,26,88,silent,old,yellow,1092.522764399997,None,1092.522764399997,None,3,4.601923700000043,1092.522764399997,None,4.601923700000043,1097.1550597000023,None,1097.6570502999966,None,1097.6570502999966,None,n,0.42760579999594484,1097.6570502999966,None,0.42760579999594484,,,10Silent,001,2022_Aug_03_1007,ProdSingRedoBetween,2021.2.3,59.936407470641754,
,,,,88,0,88,0,,,,,,,,,,,,,,,,,,,,,,1107.3476249999949,None,,,,,,,,,,,,,,,,,growth,80,89,silent,old,red,1098.608587499999,None,1098.608587499999,None,5,5.356189700003597,1098.608587499999,None,5.356189700003597,1103.9952380000032,None,1104.4990315000032,None,1104.4990315000032,None,r,2.8336764000123367,1104.4990315000032,None,2.8336764000123367,,,10Silent,001,2022_Aug_03_1007,ProdSingRedoBetween,2021.2.3,59.936407470641754,
,,,,89,0,89,0,,,,,,,,,,,,,,,,,,,,,,1119.1094237999932,None,,,,,,,,,,,,,,,,,council,5,90,silent,old,yellow,1107.8567323000025,None,1107.8567323000025,None,6,1.9719251000060467,1107.8567323000025,None,1.9719251000060467,1109.8501651999977,None,1110.3541063000011,None,1110.3541063000011,None,r,8.73063479999837,1110.3541063000011,None,8.73063479999837,,,10Silent,001,2022_Aug_03_1007,ProdSingRedoBetween,2021.2.3,59.936407470641754,
,,,,90,0,90,0,,,,,,,,,,,,,,,,,,,,,,1124.3813452000031,None,,,,,,,,,,,,,,,,,victory,21,91,silent,old,yellow,1119.613010000001,None,1119.613010000001,None,6,1.6956527000002097,1119.613010000001,None,1.6956527000002097,1121.3298034000036,None,1121.8364369999908,None,1121.8364369999908,None,r,2.5202418999979272,1121.8364369999908,None,2.5202418999979272,,,10Silent,001,2022_Aug_03_1007,ProdSingRedoBetween,2021.2.3,59.936407470641754,
,,,,91,0,91,0,,,,,,,,,,,,,,,,,,,,,,1138.0784298999934,None,,,,,,,,,,,,,,,,,birth,111,92,silent,new,null,1124.8862981999991,None,1124.8862981999991,None,3,12.334463799998048,1124.8862981999991,None,12.334463799998048,1137.2441940999997,None,1137.7486072000029,None,1137.7486072000029,None,n,0.3121627999935299,1137.7486072000029,None,0.3121627999935299,,,10Silent,001,2022_Aug_03_1007,ProdSingRedoBetween,2021.2.3,59.936407470641754,
,,,,92,0,92,0,,,,,,,,,,,,,,,,,,,,,,1147.2542250999977,None,,,,,,,,,,,,,,,,,place,81,93,silent,old,red,1138.582220700002,None,1138.582220700002,None,2,7.670573299998068,1138.582220700002,None,7.670573299998068,1146.2706545999972,None,1146.7704606000043,None,1146.7704606000043,None,n,0.4582373000012012,1146.7704606000043,None,0.4582373000012012,,,10Silent,001,2022_Aug_03_1007,ProdSingRedoBetween,2021.2.3,59.936407470641754,
,,,,93,0,93,0,,,,,,,,,,,,,,,,,,,,,,1155.9295251000003,None,,,,,,,,,,,,,,,,,suggestion,34,94,silent,old,blue,1147.7652836999914,None,1147.7652836999914,None,3,7.327424900009646,1147.7652836999914,None,7.327424900009646,1155.113387099991,None,1155.6127759999945,None,1155.6127759999945,None,n,0.29594290000386536,1155.6127759999945,None,0.29594290000386536,,,10Silent,001,2022_Aug_03_1007,ProdSingRedoBetween,2021.2.3,59.936407470641754,
,,,,94,0,94,0,,,,,,,,,,,,,,,,,,,,,,1168.5087473000021,None,,,,,,,,,,,,,,,,,religion,7,95,silent,old,yellow,1156.436011800004,None,1156.436011800004,None,6,1.7126911999948788,1156.436011800004,None,1.7126911999948788,1158.1650506000005,None,1158.6692151000025,None,1158.6692151000025,None,r,9.815502500001458,1158.6692151000025,None,9.815502500001458,,,10Silent,001,2022_Aug_03_1007,ProdSingRedoBetween,2021.2.3,59.936407470641754,
,,,,95,0,95,0,,,,,,,,,,,,,,,,,,,,,,1181.5734335000016,None,,,,,,,,,,,,,,,,,discussion,32,96,silent,old,blue,1169.0171051999932,None,1169.0171051999932,None,3,11.307614400007878,1169.0171051999932,None,11.307614400007878,1180.3577407999983,None,1180.8741560999915,None,1180.8741560999915,None,n,0.6665852000005543,1180.8741560999915,None,0.6665852000005543,,,10Silent,001,2022_Aug_03_1007,ProdSingRedoBetween,2021.2.3,59.936407470641754,
,,,,96,0,96,0,,,,,,,,,,,,,,,,,,,,,,1184.825048899991,None,,,,,,,,,,,,,,,,,weight,74,97,silent,old,red,1182.0789719000022,None,1182.0789719000022,None,6,1.8057635000004666,1182.0789719000022,None,1.8057635000004666,1183.9088906999968,None,1184.410772000003,None,1184.410772000003,None,r,0.3940491999965161,1184.410772000003,None,0.3940491999965161,,,10Silent,001,2022_Aug_03_1007,ProdSingRedoBetween,2021.2.3,59.936407470641754,
,,,,97,0,97,0,,,,,,,,,,,,,,,,,,,,,,1193.2835620999977,None,,,,,,,,,,,,,,,,,signal,53,98,silent,old,blue,1185.3270923999953,None,1185.3270923999953,None,2,6.725692300009541,1185.3270923999953,None,6.725692300009541,1192.082433100004,None,1192.5831066999963,None,1192.5831066999963,None,n,0.6696391000004951,1192.5831066999963,None,0.6696391000004951,,,10Silent,001,2022_Aug_03_1007,ProdSingRedoBetween,2021.2.3,59.936407470641754,
,,,,98,0,98,0,,,,,,,,,,,,,,,,,,,,,,1197.8381093999924,None,,,,,,,,,,,,,,,,,court,71,99,silent,old,red,1193.7900660000014,None,1193.7900660000014,None,6,2.1747398000006797,1193.7900660000014,None,2.1747398000006797,1195.9909170000028,None,1196.5036562000023,None,1196.5036562000023,None,r,1.3170223999914015,1196.5036562000023,None,1.3170223999914015,,,10Silent,001,2022_Aug_03_1007,ProdSingRedoBetween,2021.2.3,59.936407470641754,
,,,,99,0,99,0,,,,,,,,,,,,,,,,,,,,,,1207.3005911999935,None,,,,,,,,,,,,,,,,,block,128,100,silent,new,null,1198.3453544999938,None,1198.3453544999938,None,2,7.803423700010171,1198.3453544999938,None,7.803423700010171,1206.1903650000022,None,1206.6969615999988,None,1206.6969615999988,None,n,0.5717059000016889,1206.6969615999988,None,0.5717059000016889,,,10Silent,001,2022_Aug_03_1007,ProdSingRedoBetween,2021.2.3,59.936407470641754,
,,,,100,0,100,0,,,,,,,,,,,,,,,,,,,,,,1219.9936291999911,None,,,,,,,,,,,,,,,,,damage,72,101,silent,old,red,1207.8149527999922,None,1207.8149527999922,None,6,4.997938999993494,1207.8149527999922,None,4.997938999993494,1212.840978399996,None,1213.3538498999987,None,1213.3538498999987,None,r,6.610937000004924,1213.3538498999987,None,6.610937000004924,,,10Silent,001,2022_Aug_03_1007,ProdSingRedoBetween,2021.2.3,59.936407470641754,
,,,,101,0,101,0,,,,,,,,,,,,,,,,,,,,,,1228.7858313000033,None,,,,,,,,,,,,,,,,,session,13,102,silent,old,yellow,1220.5053150000022,None,1220.5053150000022,None,2,7.46737359999679,1220.5053150000022,None,7.46737359999679,1228.0070519,None,1228.5190032999963,None,1228.5190032999963,None,n,0.24581899998884182,1228.5190032999963,None,0.24581899998884182,,,10Silent,001,2022_Aug_03_1007,ProdSingRedoBetween,2021.2.3,59.936407470641754,
,,,,102,0,102,0,,,,,,,,,,,,,,,,,,,,,,1236.8938553000044,None,,,,,,,,,,,,,,,,,accident,175,103,silent,new,null,1229.287714399994,None,1229.287714399994,None,4,6.597078599996166,1229.287714399994,None,6.597078599996166,1235.9104721999902,None,1236.4102324999985,None,1236.4102324999985,None,n,0.4585437999921851,1236.4102324999985,None,0.4585437999921851,,,10Silent,001,2022_Aug_03_1007,ProdSingRedoBetween,2021.2.3,59.936407470641754,
,,,,103,0,103,0,,,,,,,,,,,,,,,,,,,,,,1245.2209143999935,None,,,,,,,,,,,,,,,,,school,12,104,silent,old,yellow,1237.3960652999958,None,1237.3960652999958,None,5,5.240802500004065,1237.3960652999958,None,5.240802500004065,1242.6664661999966,None,1243.1668874000025,None,1243.1668874000025,None,f,2.0300786000007065,1243.1668874000025,None,2.0300786000007065,,,10Silent,001,2022_Aug_03_1007,ProdSingRedoBetween,2021.2.3,59.936407470641754,
,,,,104,0,104,0,,,,,,,,,,,,,,,,,,,,,,1254.6950082999974,None,,,,,,,,,,,,,,,,,reach,118,105,silent,new,null,1245.7461935000028,None,1245.7461935000028,None,4,7.698514699994121,1245.7461935000028,None,7.698514699994121,1253.4607622999902,None,1253.964842699992,None,1253.964842699992,None,f,0.7038939999911236,1253.964842699992,None,0.7038939999911236,,,10Silent,001,2022_Aug_03_1007,ProdSingRedoBetween,2021.2.3,59.936407470641754,
,,,,105,0,105,0,,,,,,,,,,,,,,,,,,,,,,1262.235805000004,None,,,,,,,,,,,,,,,,,power,25,106,silent,old,yellow,1255.1984490000032,None,1255.1984490000032,None,3,5.734331499988912,1255.1984490000032,None,5.734331499988912,1260.952559199999,None,1261.4518581000011,None,1261.4518581000011,None,n,0.7530015999946045,1261.4518581000011,None,0.7530015999946045,,,10Silent,001,2022_Aug_03_1007,ProdSingRedoBetween,2021.2.3,59.936407470641754,
,,,,106,0,106,0,,,,,,,,,,,,,,,,,,,,,,1267.1267804999952,None,,,,,,,,,,,,,,,,,guard,62,107,silent,old,red,1262.736477700004,None,1262.736477700004,None,4,3.3563686999987112,1262.736477700004,None,3.3563686999987112,1266.124008400002,None,1266.6238114000007,None,1266.6238114000007,None,n,0.477106400008779,1266.6238114000007,None,0.477106400008779,,,10Silent,001,2022_Aug_03_1007,ProdSingRedoBetween,2021.2.3,59.936407470641754,
,,,,107,0,107,0,,,,,,,,,,,,,,,,,,,,,,1272.646208399994,None,,,,,,,,,,,,,,,,,plane,10,108,silent,old,yellow,1267.6455774999922,None,1267.6455774999922,None,3,4.1431375999964075,1267.6455774999922,None,4.1431375999964075,1271.8167887000018,None,1272.3293873999937,None,1272.3293873999937,None,n,0.2914477000012994,1272.3293873999937,None,0.2914477000012994,,,10Silent,001,2022_Aug_03_1007,ProdSingRedoBetween,2021.2.3,59.936407470641754,
,,,,108,0,108,0,,,,,,,,,,,,,,,,,,,,,,1280.4567277000024,None,,,,,,,,,,,,,,,,,trial,169,109,silent,new,null,1273.160501899998,None,1273.160501899998,None,2,6.47635490000539,1273.160501899998,None,6.47635490000539,1279.6540062999993,None,1280.1561746999942,None,1280.1561746999942,None,n,0.2808445000118809,1280.1561746999942,None,0.2808445000118809,,,10Silent,001,2022_Aug_03_1007,ProdSingRedoBetween,2021.2.3,59.936407470641754,
,,,,109,0,109,0,,,,,,,,,,,,,,,,,,,,,,1292.6162023999932,None,,,,,,,,,,,,,,,,,portion,130,110,silent,new,null,1280.979014299999,None,1280.979014299999,None,2,9.729837000006228,1280.979014299999,None,9.729837000006228,1290.732088299992,None,1291.2409091000009,None,1291.2409091000009,None,n,1.3559087999892654,1291.2409091000009,None,1.3559087999892654,,,10Silent,001,2022_Aug_03_1007,ProdSingRedoBetween,2021.2.3,59.936407470641754,
,,,,110,0,110,0,,,,,,,,,,,,,,,,,,,,,,1302.8932034000027,None,,,,,,,,,,,,,,,,,report,24,111,silent,old,yellow,1293.1243855999928,None,1293.1243855999928,None,3,8.904650899989065,1293.1243855999928,None,8.904650899989065,1302.0660795000003,None,1302.5762800999946,None,1302.5762800999946,None,n,0.2925775000039721,1302.5762800999946,None,0.2925775000039721,,,10Silent,001,2022_Aug_03_1007,ProdSingRedoBetween,2021.2.3,59.936407470641754,
,,,,111,0,111,0,,,,,,,,,,,,,,,,,,,,,,1313.4241991000017,None,,,,,,,,,,,,,,,,,period,174,112,silent,new,null,1303.3998807000025,None,1303.3998807000025,None,2,9.19703570001002,1303.3998807000025,None,9.19703570001002,1312.6194808,None,1313.124312999993,None,1313.124312999993,None,n,0.28076330000476446,1313.124312999993,None,0.28076330000476446,,,10Silent,001,2022_Aug_03_1007,ProdSingRedoBetween,2021.2.3,59.936407470641754,
,,,,112,0,112,0,,,,,,,,,,,,,,,,,,,,,,1319.0427055000036,None,,,,,,,,,,,,,,,,,harmony,152,113,silent,new,null,1313.9395969000034,None,1313.9395969000034,None,1,4.329238700011047,1313.9395969000034,None,4.329238700011047,1318.2935847000044,None,1318.7926005999907,None,1318.7926005999907,None,n,0.22037779999664053,1318.7926005999907,None,0.22037779999664053,,,10Silent,001,2022_Aug_03_1007,ProdSingRedoBetween,2021.2.3,59.936407470641754,
,,,,113,0,113,0,,,,,,,,,,,,,,,,,,,,,,1324.4148041000008,None,,,,,,,,,,,,,,,,,drove,104,114,silent,new,null,1319.5511475999956,None,1319.5511475999956,None,1,3.9976923000067472,1319.5511475999956,None,3.9976923000067472,1323.5650473999995,None,1324.0646313000034,None,1324.0646313000034,None,n,0.33213110000360757,1324.0646313000034,None,0.33213110000360757,,,10Silent,001,2022_Aug_03_1007,ProdSingRedoBetween,2021.2.3,59.936407470641754,
,,,,114,0,114,0,,,,,,,,,,,,,,,,,,,,,,1338.4120886000019,None,,,,,,,,,,,,,,,,,motion,156,115,silent,new,null,1324.920663500001,None,1324.920663500001,None,2,12.692281900002854,1324.920663500001,None,12.692281900002854,1337.627935800003,None,1338.134124899996,None,1338.134124899996,None,n,0.25485139999364037,1338.134124899996,None,0.25485139999364037,,,10Silent,001,2022_Aug_03_1007,ProdSingRedoBetween,2021.2.3,59.936407470641754,
,,,,115,0,115,0,,,,,,,,,,,,,,,,,,,,,,1344.3180137000018,None,,,,,,,,,,,,,,,,,piece,85,116,silent,old,red,1338.9287443999929,None,1338.9287443999929,None,3,4.644066599998041,1338.9287443999929,None,4.644066599998041,1343.600508100004,None,1344.105210900001,None,1344.105210900001,None,n,0.19565850000071805,1344.105210900001,None,0.19565850000071805,,,10Silent,001,2022_Aug_03_1007,ProdSingRedoBetween,2021.2.3,59.936407470641754,
,,,,116,0,116,0,,,,,,,,,,,,,,,,,,,,,,1355.278883299994,None,,,,,,,,,,,,,,,,,opening,46,117,silent,old,blue,1344.8281545999926,None,1344.8281545999926,None,2,9.7047520000051,1344.8281545999926,None,9.7047520000051,1354.5630930999905,None,1355.0788636999932,None,1355.0788636999932,None,n,0.1740575000003446,1355.0788636999932,None,0.1740575000003446,,,10Silent,001,2022_Aug_03_1007,ProdSingRedoBetween,2021.2.3,59.936407470641754,
,,,,117,0,117,0,,,,,,,,,,,,,,,,,,,,,,1361.0679840999946,None,,,,,,,,,,,,,,,,,conference,1,118,silent,old,yellow,1355.7863490000018,None,1355.7863490000018,None,5,3.2906220000004396,1355.7863490000018,None,3.2906220000004396,1359.101534100002,None,1359.6265209999983,None,1359.6265209999983,None,f,1.4183699999994133,1359.6265209999983,None,1.4183699999994133,,,10Silent,001,2022_Aug_03_1007,ProdSingRedoBetween,2021.2.3,59.936407470641754,
,,,,118,0,118,0,,,,,,,,,,,,,,,,,,,,,,1367.3242275999946,None,,,,,,,,,,,,,,,,,answer,138,119,silent,new,null,1361.5765221000038,None,1361.5765221000038,None,3,5.012344000002486,1361.5765221000038,None,5.012344000002486,1366.6081566999928,None,1367.1116454000003,None,1367.1116454000003,None,n,0.181242899998324,1367.1116454000003,None,0.181242899998324,,,10Silent,001,2022_Aug_03_1007,ProdSingRedoBetween,2021.2.3,59.936407470641754,
,,,,119,0,119,0,,,,,,,,,,,,,,,,,,,,,,1376.2498792999977,None,,,,,,,,,,,,,,,,,build,20,120,silent,old,yellow,1367.832120399995,None,1367.832120399995,None,2,7.652715400006855,1367.832120399995,None,7.652715400006855,1375.5159028999915,None,1376.0189583000029,None,1376.0189583000029,None,n,0.2020075999898836,1376.0189583000029,None,0.2020075999898836,,,10Silent,001,2022_Aug_03_1007,ProdSingRedoBetween,2021.2.3,59.936407470641754,
,,,,120,0,120,0,,,,,,,,,,,,,,,,,,,,,,1382.7397000999918,None,,,,,,,,,,,,,,,,,patient,33,121,silent,old,blue,1376.759283499996,None,1376.759283499996,None,3,5.061646200003452,1376.759283499996,None,5.061646200003452,1381.8388992999971,None,1382.3413100000034,None,1382.3413100000034,None,n,0.3756906000053277,1382.3413100000034,None,0.3756906000053277,,,10Silent,001,2022_Aug_03_1007,ProdSingRedoBetween,2021.2.3,59.936407470641754,
,,,,121,0,121,0,,,,,,,,,,,,,,,,,,,,,,1387.9282460999966,None,,,,,,,,,,,,,,,,,edition,28,122,silent,old,yellow,1383.2402225999977,None,1383.2402225999977,None,1,3.821004299999913,1383.2402225999977,None,3.821004299999913,1387.0836295999907,None,1387.5947474999994,None,1387.5947474999994,None,n,0.30617440000060014,1387.5947474999994,None,0.30617440000060014,,,10Silent,001,2022_Aug_03_1007,ProdSingRedoBetween,2021.2.3,59.936407470641754,
,,,,122,0,122,0,,,,,,,,,,,,,,,,,,,,,,1391.9990105000034,None,,,,,,,,,,,,,,,,,right,178,123,silent,new,null,1388.4409712999914,None,1388.4409712999914,None,1,2.6598766000097385,1388.4409712999914,None,2.6598766000097385,1391.131445299994,None,1391.6356503999996,None,1391.6356503999996,None,n,0.3452488000039011,1391.6356503999996,None,0.3452488000039011,,,10Silent,001,2022_Aug_03_1007,ProdSingRedoBetween,2021.2.3,59.936407470641754,
,,,,123,0,123,0,,,,,,,,,,,,,,,,,,,,,,1403.7463625999953,None,,,,,,,,,,,,,,,,,career,73,124,silent,old,red,1392.5105859000032,None,1392.5105859000032,None,6,2.622395200000028,1392.5105859000032,None,2.622395200000028,1395.1522503000015,None,1395.6570790999976,None,1395.6570790999976,None,r,8.059968900008244,1395.6570790999976,None,8.059968900008244,,,10Silent,001,2022_Aug_03_1007,ProdSingRedoBetween,2021.2.3,59.936407470641754,
,,,,124,0,124,0,,,,,,,,,,,,,,,,,,,,,,1420.9950174999976,None,,,,,,,,,,,,,,,,,audience,119,125,silent,new,null,1404.2633613999933,None,1404.2633613999933,None,4,15.71759739999834,1404.2633613999933,None,15.71759739999834,1420.0102658999967,None,1420.5133304999908,None,1420.5133304999908,None,f,0.4517329999944195,1420.5133304999908,None,0.4517329999944195,,,10Silent,001,2022_Aug_03_1007,ProdSingRedoBetween,2021.2.3,59.936407470641754,
,,,,125,0,125,0,,,,,,,,,,,,,,,,,,,,,,1426.4501091999991,None,,,,,,,,,,,,,,,,,scene,36,126,silent,old,blue,1421.4969554999989,None,1421.4969554999989,None,2,4.027994600008242,1421.4969554999989,None,4.027994600008242,1425.5491003999923,None,1426.0498069000023,None,1426.0498069000023,None,n,0.37113009998574853,1426.0498069000023,None,0.37113009998574853,,,10Silent,001,2022_Aug_03_1007,ProdSingRedoBetween,2021.2.3,59.936407470641754,
,,,,126,0,126,0,,,,,,,,,,,,,,,,,,,,,,1431.3049276999955,None,,,,,,,,,,,,,,,,,taste,30,127,silent,old,blue,1426.950794999997,None,1426.950794999997,None,4,3.414294799993513,1426.950794999997,None,3.414294799993513,1430.3885673999903,None,1430.9008506999962,None,1430.9008506999962,None,f,0.3842045000055805,1430.9008506999962,None,0.3842045000055805,,,10Silent,001,2022_Aug_03_1007,ProdSingRedoBetween,2021.2.3,59.936407470641754,
,,,,127,0,127,0,,,,,,,,,,,,,,,,,,,,,,1434.307924599998,None,,,,,,,,,,,,,,,,,bucket,158,128,silent,new,null,1431.8132374999986,None,1431.8132374999986,None,1,1.687916100010625,1431.8132374999986,None,1.687916100010625,1433.5323521999962,None,1434.0430147000006,None,1434.0430147000006,None,n,0.23389429999224376,1434.0430147000006,None,0.23389429999224376,,,10Silent,001,2022_Aug_03_1007,ProdSingRedoBetween,2021.2.3,59.936407470641754,
,,,,128,0,128,0,,,,,,,,,,,,,,,,,,,,,,1437.5277456999902,None,,,,,,,,,,,,,,,,,clean,77,129,silent,old,red,1434.8131259999936,None,1434.8131259999936,None,1,1.8957382999942638,1434.8131259999936,None,1.8957382999942638,1436.7270086999924,None,1437.2323785000044,None,1437.2323785000044,None,n,0.26851650000025984,1437.2323785000044,None,0.26851650000025984,,,10Silent,001,2022_Aug_03_1007,ProdSingRedoBetween,2021.2.3,59.936407470641754,
,,,,129,0,129,0,,,,,,,,,,,,,,,,,,,,,,1449.3229142999917,None,,,,,,,,,,,,,,,,,command,91,130,silent,new,null,1438.0370015999943,None,1438.0370015999943,None,4,7.095955699987826,1438.0370015999943,None,7.095955699987826,1445.1530539999949,None,1445.6565792000038,None,1445.6565792000038,None,f,3.644453999993857,1445.6565792000038,None,3.644453999993857,,,10Silent,001,2022_Aug_03_1007,ProdSingRedoBetween,2021.2.3,59.936407470641754,
,,,,130,0,130,0,,,,,,,,,,,,,,,,,,,,,,1454.3446415999933,None,,,,,,,,,,,,,,,,,dance,120,131,silent,new,null,1449.8318371999922,None,1449.8318371999922,None,1,3.589190200000303,1449.8318371999922,None,3.589190200000303,1453.4484004999977,None,1453.9656550999935,None,1453.9656550999935,None,n,0.3512687999900663,1453.9656550999935,None,0.3512687999900663,,,10Silent,001,2022_Aug_03_1007,ProdSingRedoBetween,2021.2.3,59.936407470641754,
,,,,131,0,131,0,,,,,,,,,,,,,,,,,,,,,,1458.9659432999906,None,,,,,,,,,,,,,,,,,incident,179,132,silent,new,null,1454.8515607000008,None,1454.8515607000008,None,2,3.3775249000027543,1454.8515607000008,None,3.3775249000027543,1458.253156199993,None,1458.7657699999982,None,1458.7657699999982,None,n,0.1752247999975225,1458.7657699999982,None,0.1752247999975225,,,10Silent,001,2022_Aug_03_1007,ProdSingRedoBetween,2021.2.3,59.936407470641754,
,,,,132,0,132,0,,,,,,,,,,,,,,,,,,,,,,1466.1565169999958,None,,,,,,,,,,,,,,,,,quantity,177,133,silent,new,null,1459.480827099993,None,1459.480827099993,None,2,5.9721289000008255,1459.480827099993,None,5.9721289000008255,1465.4740646999999,None,1465.980916799992,None,1465.980916799992,None,n,0.16009130000020377,1465.980916799992,None,0.16009130000020377,,,10Silent,001,2022_Aug_03_1007,ProdSingRedoBetween,2021.2.3,59.936407470641754,
,,,,133,0,133,0,,,,,,,,,,,,,,,,,,,,,,1473.8139549000043,None,,,,,,,,,,,,,,,,,interview,42,134,silent,old,blue,1466.6665092999901,None,1466.6665092999901,None,3,5.618449400004465,1466.6665092999901,None,5.618449400004465,1472.3138294999953,None,1472.8132590000023,None,1472.8132590000023,None,n,0.9756114000047091,1472.8132590000023,None,0.9756114000047091,,,10Silent,001,2022_Aug_03_1007,ProdSingRedoBetween,2021.2.3,59.936407470641754,
,,,,134,0,134,0,,,,,,,,,,,,,,,,,,,,,,1480.9546753000031,None,,,,,,,,,,,,,,,,,leader,17,135,silent,old,yellow,1474.3146516999986,None,1474.3146516999986,None,3,5.554464500004542,1474.3146516999986,None,5.554464500004542,1479.8891876999987,None,1480.4051345000044,None,1480.4051345000044,None,n,0.5280217999970773,1480.4051345000044,None,0.5280217999970773,,,10Silent,001,2022_Aug_03_1007,ProdSingRedoBetween,2021.2.3,59.936407470641754,
,,,,135,0,135,0,,,,,,,,,,,,,,,,,,,,,,1488.8958865000022,None,,,,,,,,,,,,,,,,,people,106,136,silent,new,null,1481.4611905999918,None,1481.4611905999918,None,4,6.479930000001332,1481.4611905999918,None,6.479930000001332,1487.963906399993,None,1488.4792491999979,None,1488.4792491999979,None,f,0.38971350000065286,1488.4792491999979,None,0.38971350000065286,,,10Silent,001,2022_Aug_03_1007,ProdSingRedoBetween,2021.2.3,59.936407470641754,
,,,,136,0,136,0,,,,,,,,,,,,,,,,,,,,,,1496.1363347000006,None,,,,,,,,,,,,,,,,,discovery,98,137,silent,new,null,1489.4079458999913,None,1489.4079458999913,None,3,5.909218199987663,1489.4079458999913,None,5.909218199987663,1495.342016399998,None,1495.8558287999913,None,1495.8558287999913,None,n,0.25313709999318235,1495.8558287999913,None,0.25313709999318235,,,10Silent,001,2022_Aug_03_1007,ProdSingRedoBetween,2021.2.3,59.936407470641754,
,,,,137,0,137,0,,,,,,,,,,,,,,,,,,,,,,1501.3749449000024,None,,,,,,,,,,,,,,,,,light,76,138,silent,old,red,1496.637803599995,None,1496.637803599995,None,2,3.919289099998423,1496.637803599995,None,3.919289099998423,1500.5794730999914,None,1501.0920371999964,None,1501.0920371999964,None,n,0.2649405999982264,1501.0920371999964,None,0.2649405999982264,,,10Silent,001,2022_Aug_03_1007,ProdSingRedoBetween,2021.2.3,59.936407470641754,
,,,,138,0,138,0,,,,,,,,,,,,,,,,,,,,,,1508.7489773999987,None,,,,,,,,,,,,,,,,,general,58,139,silent,old,blue,1501.883884099996,None,1501.883884099996,None,4,6.001257500000065,1501.883884099996,None,6.001257500000065,1507.9181505000015,None,1508.4356407000014,None,1508.4356407000014,None,f,0.2894030000024941,1508.4356407000014,None,0.2894030000024941,,,10Silent,001,2022_Aug_03_1007,ProdSingRedoBetween,2021.2.3,59.936407470641754,
,,,,139,0,139,0,,,,,,,,,,,,,,,,,,,,,,1516.523464400001,None,,,,,,,,,,,,,,,,,novel,31,140,silent,old,blue,1509.2534320999985,None,1509.2534320999985,None,4,5.68759040000441,1509.2534320999985,None,5.68759040000441,1514.9729376000032,None,1515.4765901999926,None,1515.4765901999926,None,f,1.016453599993838,1515.4765901999926,None,1.016453599993838,,,10Silent,001,2022_Aug_03_1007,ProdSingRedoBetween,2021.2.3,59.936407470641754,
,,,,140,0,140,0,,,,,,,,,,,,,,,,,,,,,,1520.5942025999975,None,,,,,,,,,,,,,,,,,south,151,141,silent,new,null,1517.031745100001,None,1517.031745100001,None,1,2.7252811000071233,1517.031745100001,None,2.7252811000071233,1519.7766910999926,None,1520.2814318000019,None,1520.2814318000019,None,n,0.29171259999566246,1520.2814318000019,None,0.29171259999566246,,,10Silent,001,2022_Aug_03_1007,ProdSingRedoBetween,2021.2.3,59.936407470641754,
,,,,141,0,141,0,,,,,,,,,,,,,,,,,,,,,,1537.6612802000018,None,,,,,,,,,,,,,,,,,degree,40,142,silent,old,blue,1521.094842599996,None,1521.094842599996,None,6,1.7903057999938028,1521.094842599996,None,1.7903057999938028,1522.91773619999,None,1523.4305230000027,None,1523.4305230000027,None,r,14.206519300001673,1523.4305230000027,None,14.206519300001673,,,10Silent,001,2022_Aug_03_1007,ProdSingRedoBetween,2021.2.3,59.936407470641754,
,,,,142,0,142,0,,,,,,,,,,,,,,,,,,,,,,1550.5908024999953,None,,,,,,,,,,,,,,,,,produce,88,143,silent,old,red,1538.1721413999912,None,1538.1721413999912,None,3,11.585027799999807,1538.1721413999912,None,11.585027799999807,1549.7733649000002,None,1550.280195600004,None,1550.280195600004,None,n,0.2849290000012843,1550.280195600004,None,0.2849290000012843,,,10Silent,001,2022_Aug_03_1007,ProdSingRedoBetween,2021.2.3,59.936407470641754,
,,,,143,0,143,0,,,,,,,,,,,,,,,,,,,,,,1554.7284519999957,None,,,,,,,,,,,,,,,,,watch,165,144,silent,new,null,1551.094815199991,None,1551.094815199991,None,1,2.8462462999887066,1551.094815199991,None,2.8462462999887066,1553.9622585000034,None,1554.4661065999971,None,1554.4661065999971,None,n,0.24307519999274518,1554.4661065999971,None,0.24307519999274518,,,10Silent,001,2022_Aug_03_1007,ProdSingRedoBetween,2021.2.3,59.936407470641754,
,,,,144,0,144,0,,,,,,,,,,,,,,,,,,,,,,1559.0659004000045,None,,,,,,,,,,,,,,,,,death,112,145,silent,new,null,1555.2349527999904,None,1555.2349527999904,None,1,3.1942531000095187,1555.2349527999904,None,3.1942531000095187,1558.4550642999966,None,1558.9659971999936,None,1558.9659971999936,None,n,0.07115800000610761,1558.9659971999936,None,0.07115800000610761,,,10Silent,001,2022_Aug_03_1007,ProdSingRedoBetween,2021.2.3,59.936407470641754,
,,,,145,0,145,0,,,,,,,,,,,,,,,,,,,,,,1573.4303508000012,None,,,,,,,,,,,,,,,,,committee,22,146,silent,old,yellow,1559.5666832999996,None,1559.5666832999996,None,6,3.294471400004113,1559.5666832999996,None,3.294471400004113,1562.8895956999913,None,1563.4061763999925,None,1563.4061763999925,None,f,9.998876799989375,1563.4061763999925,None,9.998876799989375,,,10Silent,001,2022_Aug_03_1007,ProdSingRedoBetween,2021.2.3,59.936407470641754,
,,,,146,0,146,0,,,,,,,,,,,,,,,,,,,,,,1582.1056710999983,None,,,,,,,,,,,,,,,,,sight,127,147,silent,new,null,1573.9310364999983,None,1573.9310364999983,None,3,7.346012900001369,1573.9310364999983,None,7.346012900001369,1581.305801800001,None,1581.812195099992,None,1581.812195099992,None,n,0.2649707000091439,1581.812195099992,None,0.2649707000091439,,,10Silent,001,2022_Aug_03_1007,ProdSingRedoBetween,2021.2.3,59.936407470641754,
,,,,147,0,147,0,,,,,,,,,,,,,,,,,,,,,,1587.394312599994,None,,,,,,,,,,,,,,,,,travel,172,148,silent,new,null,1582.610588800002,None,1582.610588800002,None,4,2.570463500000187,1582.610588800002,None,2.570463500000187,1585.209712099997,None,1585.7145926999947,None,1585.7145926999947,None,f,1.6504266999982065,1585.7145926999947,None,1.6504266999982065,,,10Silent,001,2022_Aug_03_1007,ProdSingRedoBetween,2021.2.3,59.936407470641754,
,,,,148,0,148,0,,,,,,,,,,,,,,,,,,,,,,1594.6956451000005,None,,,,,,,,,,,,,,,,,error,27,149,silent,old,yellow,1587.8969156999956,None,1587.8969156999956,None,6,2.020092000006116,1587.8969156999956,None,2.020092000006116,1589.9469576999982,None,1590.4473060000018,None,1590.4473060000018,None,r,4.221781599990209,1590.4473060000018,None,4.221781599990209,,,10Silent,001,2022_Aug_03_1007,ProdSingRedoBetween,2021.2.3,59.936407470641754,
,,,,149,0,149,0,,,,,,,,,,,,,,,,,,,,,,1600.6075030999928,None,,,,,,,,,,,,,,,,,carry,166,150,silent,new,null,1595.206548999995,None,1595.206548999995,None,2,4.7425843000091845,1595.206548999995,None,4.7425843000091845,1599.9737423999904,None,1600.4743457000004,None,1600.4743457000004,None,n,0.1147315999987768,1600.4743457000004,None,0.1147315999987768,,,10Silent,001,2022_Aug_03_1007,ProdSingRedoBetween,2021.2.3,59.936407470641754,
,,,,150,0,150,0,,,,,,,,,,,,,,,,,,,,,,1606.6802285000012,None,,,,,,,,,,,,,,,,,century,122,151,silent,new,null,1601.1166697000008,None,1601.1166697000008,None,3,4.6324350999930175,1601.1166697000008,None,4.6324350999930175,1605.7801810999954,None,1606.285012399996,None,1606.285012399996,None,n,0.36806379999325145,1606.285012399996,None,0.36806379999325145,,,10Silent,001,2022_Aug_03_1007,ProdSingRedoBetween,2021.2.3,59.936407470641754,
,,,,151,0,151,0,,,,,,,,,,,,,,,,,,,,,,1615.438908600001,None,,,,,,,,,,,,,,,,,break,136,152,silent,new,null,1607.190477199998,None,1607.190477199998,None,5,5.286624200001825,1607.190477199998,None,5.286624200001825,1612.5029161999992,None,1613.005752500001,None,1613.005752500001,None,r,2.415348999988055,1613.005752500001,None,2.415348999988055,,,10Silent,001,2022_Aug_03_1007,ProdSingRedoBetween,2021.2.3,59.936407470641754,
,,,,152,0,152,0,,,,,,,,,,,,,,,,,,,,,,1629.26950699999,None,,,,,,,,,,,,,,,,,attack,170,153,silent,new,null,1615.9463493999938,None,1615.9463493999938,None,4,8.218635199998971,1615.9463493999938,None,8.218635199998971,1624.1823212000018,None,1624.689252199998,None,1624.689252199998,None,r,4.563942299995688,1624.689252199998,None,4.563942299995688,,,10Silent,001,2022_Aug_03_1007,ProdSingRedoBetween,2021.2.3,59.936407470641754,
,,,,153,0,153,0,,,,,,,,,,,,,,,,,,,,,,1637.2108058000013,None,,,,,,,,,,,,,,,,,broad,64,154,silent,old,red,1629.7738171999954,None,1629.7738171999954,None,6,2.207448299988755,1629.7738171999954,None,2.207448299988755,1632.005616800001,None,1632.5085267999966,None,1632.5085267999966,None,r,4.680587199996808,1632.5085267999966,None,4.680587199996808,,,10Silent,001,2022_Aug_03_1007,ProdSingRedoBetween,2021.2.3,59.936407470641754,
,,,,154,0,154,0,,,,,,,,,,,,,,,,,,,,,,1643.8340825999912,None,,,,,,,,,,,,,,,,,testimony,59,155,silent,old,yellow,1637.7215213000018,None,1637.7215213000018,None,4,5.227580000006128,1637.7215213000018,None,5.227580000006128,1642.9677995999955,None,1643.4794122000021,None,1643.4794122000021,None,f,0.32576929999049753,1643.4794122000021,None,0.32576929999049753,,,10Silent,001,2022_Aug_03_1007,ProdSingRedoBetween,2021.2.3,59.936407470641754,
,,,,155,0,155,0,,,,,,,,,,,,,,,,,,,,,,1649.6064521999942,None,,,,,,,,,,,,,,,,,sound,37,156,silent,old,blue,1644.3447161999939,None,1644.3447161999939,None,3,4.532430800012662,1644.3447161999939,None,4.532430800012662,1648.906744699998,None,1649.4107447999995,None,1649.4107447999995,None,n,0.17040440000710078,1649.4107447999995,None,0.17040440000710078,,,10Silent,001,2022_Aug_03_1007,ProdSingRedoBetween,2021.2.3,59.936407470641754,
,,,,156,0,156,0,,,,,,,,,,,,,,,,,,,,,,1656.5301367999928,None,,,,,,,,,,,,,,,,,material,135,157,silent,new,null,1650.1124743999972,None,1650.1124743999972,None,3,5.708659900003113,1650.1124743999972,None,5.708659900003113,1655.8461436999933,None,1656.3498302999942,None,1656.3498302999942,None,n,0.15934240000206046,1656.3498302999942,None,0.15934240000206046,,,10Silent,001,2022_Aug_03_1007,ProdSingRedoBetween,2021.2.3,59.936407470641754,
,,,,157,0,157,0,,,,,,,,,,,,,,,,,,,,,,1665.105365800002,None,,,,,,,,,,,,,,,,,principal,148,158,silent,new,null,1657.0370866000012,None,1657.0370866000012,None,2,7.12807900000189,1657.0370866000012,None,7.12807900000189,1664.189891300004,None,1664.709277499991,None,1664.709277499991,None,n,0.37578890001168475,1664.709277499991,None,0.37578890001168475,,,10Silent,001,2022_Aug_03_1007,ProdSingRedoBetween,2021.2.3,59.936407470641754,
,,,,158,0,158,0,,,,,,,,,,,,,,,,,,,,,,1677.5010770999943,None,,,,,,,,,,,,,,,,,marriage,45,159,silent,old,blue,1665.6067150000017,None,1665.6067150000017,None,6,1.7345722999889404,1665.6067150000017,None,1.7345722999889404,1667.3592413000006,None,1667.875014899997,None,1667.875014899997,None,r,9.602233799989335,1667.875014899997,None,9.602233799989335,,,10Silent,001,2022_Aug_03_1007,ProdSingRedoBetween,2021.2.3,59.936407470641754,
,,,,159,0,159,0,,,,,,,,,,,,,,,,,,,,,,1689.7799790999998,None,,,,,,,,,,,,,,,,,shear,79,160,silent,old,red,1678.001682599992,None,1678.001682599992,None,3,10.995573000007425,1678.001682599992,None,10.995573000007425,1689.0138609999995,None,1689.517206199991,None,1689.517206199991,None,n,0.23185759999614675,1689.517206199991,None,0.23185759999614675,,,10Silent,001,2022_Aug_03_1007,ProdSingRedoBetween,2021.2.3,59.936407470641754,
,,,,160,0,160,0,,,,,,,,,,,,,,,,,,,,,,1696.9872375999985,None,,,,,,,,,,,,,,,,,division,97,161,silent,new,null,1690.2825994000013,None,1690.2825994000013,None,2,5.9305948999972316,1690.2825994000013,None,5.9305948999972316,1696.23884369999,None,1696.7563627999916,None,1696.7563627999916,None,n,0.2008912000019336,1696.7563627999916,None,0.2008912000019336,,,10Silent,001,2022_Aug_03_1007,ProdSingRedoBetween,2021.2.3,59.936407470641754,
,,,,161,0,161,0,,,,,,,,,,,,,,,,,,,,,,1708.7706154999905,None,,,,,,,,,,,,,,,,,narrow,92,162,silent,new,null,1697.490961100004,None,1697.490961100004,None,1,10.658186799992109,1697.490961100004,None,10.658186799992109,1708.1663854999933,None,1708.6743681999942,None,1708.6743681999942,None,n,0.06701910000992939,1708.6743681999942,None,0.06701910000992939,,,10Silent,001,2022_Aug_03_1007,ProdSingRedoBetween,2021.2.3,59.936407470641754,
,,,,162,0,162,0,,,,,,,,,,,,,,,,,,,,,,1716.8904593999905,None,,,,,,,,,,,,,,,,,mayor,9,163,silent,old,yellow,1709.2852032999945,None,1709.2852032999945,None,3,6.7919265999953495,1709.2852032999945,None,6.7919265999953495,1716.1066964999918,None,1716.6070444999932,None,1716.6070444999932,None,n,0.26225450000492856,1716.6070444999932,None,0.26225450000492856,,,10Silent,001,2022_Aug_03_1007,ProdSingRedoBetween,2021.2.3,59.936407470641754,
,,,,163,0,163,0,,,,,,,,,,,,,,,,,,,,,,1726.3832878999965,None,,,,,,,,,,,,,,,,,evidence,162,164,silent,new,null,1717.3911083999992,None,1717.3911083999992,None,3,8.134183899994241,1717.3911083999992,None,8.134183899994241,1725.5501969000034,None,1726.0541806999972,None,1726.0541806999972,None,n,0.31093770000734366,1726.0541806999972,None,0.31093770000734366,,,10Silent,001,2022_Aug_03_1007,ProdSingRedoBetween,2021.2.3,59.936407470641754,
,,,,164,0,164,0,,,,,,,,,,,,,,,,,,,,,,1733.6572330999916,None,,,,,,,,,,,,,,,,,notice,140,165,silent,new,null,1726.894329200004,None,1726.894329200004,None,4,5.255066800003988,1726.894329200004,None,5.255066800003988,1732.1782929000037,None,1732.6898483999976,None,1732.6898483999976,None,f,0.947369899993646,1732.6898483999976,None,0.947369899993646,,,10Silent,001,2022_Aug_03_1007,ProdSingRedoBetween,2021.2.3,59.936407470641754,
,,,,165,0,165,0,,,,,,,,,,,,,,,,,,,,,,1745.1199598999956,None,,,,,,,,,,,,,,,,,community,75,166,silent,old,red,1734.1656041999959,None,1734.1656041999959,None,4,4.935607000006712,1734.1656041999959,None,4.935607000006712,1739.1301719999901,None,1739.6389401999913,None,1739.6389401999913,None,r,5.462310800008709,1739.6389401999913,None,5.462310800008709,,,10Silent,001,2022_Aug_03_1007,ProdSingRedoBetween,2021.2.3,59.936407470641754,
,,,,166,0,166,0,,,,,,,,,,,,,,,,,,,,,,1754.4114348000003,None,,,,,,,,,,,,,,,,,search,108,167,silent,new,null,1745.6237916999962,None,1745.6237916999962,None,2,8.069410800002515,1745.6237916999962,None,8.069410800002515,1753.7117930999957,None,1754.2189988000027,None,1754.2189988000027,None,n,0.16234999999869615,1754.2189988000027,None,0.16234999999869615,,,10Silent,001,2022_Aug_03_1007,ProdSingRedoBetween,2021.2.3,59.936407470641754,
,,,,167,0,167,0,,,,,,,,,,,,,,,,,,,,,,1760.6008113999997,None,,,,,,,,,,,,,,,,,point,11,168,silent,old,yellow,1754.925485300002,None,1754.925485300002,None,4,4.831687900004908,1754.925485300002,None,4.831687900004908,1759.783345399992,None,1760.2840437999985,None,1760.2840437999985,None,f,0.2891117999970447,1760.2840437999985,None,0.2891117999970447,,,10Silent,001,2022_Aug_03_1007,ProdSingRedoBetween,2021.2.3,59.936407470641754,
,,,,168,0,168,0,,,,,,,,,,,,,,,,,,,,,,1764.8551191000006,None,,,,,,,,,,,,,,,,,expansion,131,169,silent,new,null,1761.116682699998,None,1761.116682699998,None,2,2.9686693999974523,1761.116682699998,None,2.9686693999974523,1764.107951500002,None,1764.621662999998,None,1764.621662999998,None,n,0.2155442000075709,1764.621662999998,None,0.2155442000075709,,,10Silent,001,2022_Aug_03_1007,ProdSingRedoBetween,2021.2.3,59.936407470641754,
,,,,169,0,169,0,,,,,,,,,,,,,,,,,,,,,,1777.4176179999922,None,,,,,,,,,,,,,,,,,month,94,170,silent,new,null,1765.3570754999964,None,1765.3570754999964,None,2,11.480207999993581,1765.3570754999964,None,11.480207999993581,1776.8671425999928,None,1777.3678032000025,None,1777.3678032000025,None,n,0.02949559999979101,1777.3678032000025,None,0.02949559999979101,,,10Silent,001,2022_Aug_03_1007,ProdSingRedoBetween,2021.2.3,59.936407470641754,
,,,,170,0,170,0,,,,,,,,,,,,,,,,,,,,,,1781.4884115000023,None,,,,,,,,,,,,,,,,,graduate,52,171,silent,old,blue,1777.929216199991,None,1777.929216199991,None,6,2.476054099999601,1777.929216199991,None,2.476054099999601,1780.4206083000026,None,1780.921142799998,None,1780.921142799998,None,r,0.5400650999945356,1780.921142799998,None,0.5400650999945356,,,10Silent,001,2022_Aug_03_1007,ProdSingRedoBetween,2021.2.3,59.936407470641754,
,,,,171,0,171,0,,,,,,,,,,,,,,,,,,,,,,1791.9321861999924,None,,,,,,,,,,,,,,,,,subject,67,172,silent,old,red,1781.9920697999914,None,1781.9920697999914,None,3,8.277143300001626,1781.9920697999914,None,8.277143300001626,1790.2972549999977,None,1790.7999369000026,None,1790.7999369000026,None,n,1.1174807000061264,1790.7999369000026,None,1.1174807000061264,,,10Silent,001,2022_Aug_03_1007,ProdSingRedoBetween,2021.2.3,59.936407470641754,
,,,,172,0,172,0,,,,,,,,,,,,,,,,,,,,,,1798.9057211000036,None,,,,,,,,,,,,,,,,,enemy,70,173,silent,old,red,1792.4361343999917,None,1792.4361343999917,None,6,2.2172700999944936,1792.4361343999917,None,2.2172700999944936,1794.6743876999972,None,1795.185529399998,None,1795.185529399998,None,r,3.699743099990883,1795.185529399998,None,3.699743099990883,,,10Silent,001,2022_Aug_03_1007,ProdSingRedoBetween,2021.2.3,59.936407470641754,
,,,,173,0,173,0,,,,,,,,,,,,,,,,,,,,,,1807.9481736000016,None,,,,,,,,,,,,,,,,,research,144,174,silent,new,null,1799.416390600003,None,1799.416390600003,None,4,4.372768700006418,1799.416390600003,None,4.372768700006418,1803.817075400002,None,1804.3279913000006,None,1804.3279913000006,None,f,3.605380299995886,1804.3279913000006,None,3.605380299995886,,,10Silent,001,2022_Aug_03_1007,ProdSingRedoBetween,2021.2.3,59.936407470641754,
,,,,174,0,174,0,,,,,,,,,,,,,,,,,,,,,,1827.3675887999998,None,,,,,,,,,,,,,,,,,object,167,175,silent,new,null,1808.4550940000045,None,1808.4550940000045,None,3,18.006364000000758,1808.4550940000045,None,18.006364000000758,1826.4885173999937,None,1827.0007288999914,None,1827.0007288999914,None,n,0.3405101999960607,1827.0007288999914,None,0.3405101999960607,,,10Silent,001,2022_Aug_03_1007,ProdSingRedoBetween,2021.2.3,59.936407470641754,
