StudyLoop.thisRepN,StudyLoop.thisTrialN,StudyLoop.thisN,StudyLoop.thisIndex,TestLoop.thisRepN,TestLoop.thisTrialN,TestLoop.thisN,TestLoop.thisIndex,textCondition.started,textCondition.stopped,keyCondition.keys,keyCondition.rt,keyCondition.started,keyCondition.stopped,Condition,textWelcome.started,textWelcome.stopped,keyWelcome.keys,keyWelcome.rt,keyWelcome.started,keyWelcome.stopped,textAloud.started,textAloud.stopped,textSilent.started,textSilent.stopped,textSing.started,textSing.stopped,conditional_text.started,conditional_text.stopped,textBlank500.started,textBlank500.stopped,study_word,study_num,study_order,study_type,word_color,textStudy.started,textStudy.stopped,keyStudy.keys,keyStudy.started,keyStudy.stopped,textTestInstructions.started,textTestInstructions.stopped,key_resp_3.keys,key_resp_3.rt,key_resp_3.started,key_resp_3.stopped,test_word,test_num,test_order,test_condition,old_new_test,test_word_original_color,textConf.started,textConf.stopped,textConfScale.started,textConfScale.stopped,keyConf.keys,keyConf.rt,keyConf.started,keyConf.stopped,confidence response time,textTestBlank.started,textTestBlank.stopped,textRKN.started,textRKN.stopped,textRKNScale.started,textRKNScale.stopped,keyRKN.keys,keyRKN.rt,keyRKN.started,keyRKN.stopped,rkn response time,textEnd.started,textEnd.stopped,participant,session,date,expName,psychopyVersion,frameRate,
,,,,,,,,25.925144999999986,None,b,2.2658989000000247,25.925144999999986,None,,,,,,,,,,,,,,,,,,,,,,,,,,,,,,,,,,,,,,,,,,,,,,,,,,,,,,,,,,,,,,110 Aloud,001,2022_Dec_01_0959,ProdSingRedoBetween,2021.2.3,59.907754040325955,
,,,,,,,,,,,,,,AloudTest,28.255883600000004,None,space,231.8953546,28.255883600000004,None,,,,,,,,,,,,,,,,,,,,,,,,,,,,,,,,,,,,,,,,,,,,,,,,,,,,,,,110 Aloud,001,2022_Dec_01_0959,ProdSingRedoBetween,2021.2.3,59.907754040325955,
0,0,0,0,,,,,,,,,,,,,,,,,,28.255883600000004,None,28.255883600000004,None,28.255883600000004,None,28.255883600000004,None,262.688757,None,broad,50,1,aloud,blue,260.6850376,None,None,260.6850376,None,,,,,,,,,,,,,,,,,,,,,,,,,,,,,,,,,,,110 Aloud,001,2022_Dec_01_0959,ProdSingRedoBetween,2021.2.3,59.907754040325955,
1,0,1,0,,,,,,,,,,,,,,,,,,,,,,,,,,265.19080859999997,None,route,10,2,aloud,yellow,263.1914826,None,None,263.1914826,None,,,,,,,,,,,,,,,,,,,,,,,,,,,,,,,,,,,110 Aloud,001,2022_Dec_01_0959,ProdSingRedoBetween,2021.2.3,59.907754040325955,
2,0,2,0,,,,,,,,,,,,,,,,,,,,,,,,,,267.710501,None,match,21,3,aloud,yellow,265.6991818,None,None,265.6991818,None,,,,,,,,,,,,,,,,,,,,,,,,,,,,,,,,,,,110 Aloud,001,2022_Dec_01_0959,ProdSingRedoBetween,2021.2.3,59.907754040325955,
3,0,3,0,,,,,,,,,,,,,,,,,,,,,,,,,,270.22945230000005,None,primary,87,4,aloud,red,268.2172316,None,None,268.2172316,None,,,,,,,,,,,,,,,,,,,,,,,,,,,,,,,,,,,110 Aloud,001,2022_Dec_01_0959,ProdSingRedoBetween,2021.2.3,59.907754040325955,
4,0,4,0,,,,,,,,,,,,,,,,,,,,,,,,,,272.7488016,None,machinery,81,5,aloud,red,270.7415099,None,None,270.7415099,None,,,,,,,,,,,,,,,,,,,,,,,,,,,,,,,,,,,110 Aloud,001,2022_Dec_01_0959,ProdSingRedoBetween,2021.2.3,59.907754040325955,
5,0,5,0,,,,,,,,,,,,,,,,,,,,,,,,,,275.2512289,None,damage,23,6,aloud,yellow,273.24924639999995,None,None,273.24924639999995,None,,,,,,,,,,,,,,,,,,,,,,,,,,,,,,,,,,,110 Aloud,001,2022_Dec_01_0959,ProdSingRedoBetween,2021.2.3,59.907754040325955,
6,0,6,0,,,,,,,,,,,,,,,,,,,,,,,,,,277.7536493,None,empty,35,7,aloud,blue,275.7536235,None,None,275.7536235,None,,,,,,,,,,,,,,,,,,,,,,,,,,,,,,,,,,,110 Aloud,001,2022_Dec_01_0959,ProdSingRedoBetween,2021.2.3,59.907754040325955,
7,0,7,0,,,,,,,,,,,,,,,,,,,,,,,,,,280.2730854,None,provision,16,8,aloud,yellow,278.27400079999995,None,None,278.27400079999995,None,,,,,,,,,,,,,,,,,,,,,,,,,,,,,,,,,,,110 Aloud,001,2022_Dec_01_0959,ProdSingRedoBetween,2021.2.3,59.907754040325955,
8,0,8,0,,,,,,,,,,,,,,,,,,,,,,,,,,282.7753837,None,period,5,9,aloud,yellow,280.7732665,None,None,280.7732665,None,,,,,,,,,,,,,,,,,,,,,,,,,,,,,,,,,,,110 Aloud,001,2022_Dec_01_0959,ProdSingRedoBetween,2021.2.3,59.907754040325955,
9,0,9,0,,,,,,,,,,,,,,,,,,,,,,,,,,285.2947759,None,piece,84,10,aloud,red,283.28395639999997,None,None,283.28395639999997,None,,,,,,,,,,,,,,,,,,,,,,,,,,,,,,,,,,,110 Aloud,001,2022_Dec_01_0959,ProdSingRedoBetween,2021.2.3,59.907754040325955,
10,0,10,0,,,,,,,,,,,,,,,,,,,,,,,,,,287.81393019999996,None,measure,88,11,aloud,red,285.80125410000005,None,None,285.80125410000005,None,,,,,,,,,,,,,,,,,,,,,,,,,,,,,,,,,,,110 Aloud,001,2022_Dec_01_0959,ProdSingRedoBetween,2021.2.3,59.907754040325955,
11,0,11,0,,,,,,,,,,,,,,,,,,,,,,,,,,290.3330648,None,close,18,12,aloud,yellow,288.3186078,None,None,288.3186078,None,,,,,,,,,,,,,,,,,,,,,,,,,,,,,,,,,,,110 Aloud,001,2022_Dec_01_0959,ProdSingRedoBetween,2021.2.3,59.907754040325955,
12,0,12,0,,,,,,,,,,,,,,,,,,,,,,,,,,292.8520068,None,dozen,83,13,aloud,red,290.83666059999996,None,None,290.83666059999996,None,,,,,,,,,,,,,,,,,,,,,,,,,,,,,,,,,,,110 Aloud,001,2022_Dec_01_0959,ProdSingRedoBetween,2021.2.3,59.907754040325955,
13,0,13,0,,,,,,,,,,,,,,,,,,,,,,,,,,295.37379769999995,None,corner,60,14,aloud,red,293.3570783,None,None,293.3570783,None,,,,,,,,,,,,,,,,,,,,,,,,,,,,,,,,,,,110 Aloud,001,2022_Dec_01_0959,ProdSingRedoBetween,2021.2.3,59.907754040325955,
14,0,14,0,,,,,,,,,,,,,,,,,,,,,,,,,,297.87396620000004,None,crime,33,15,aloud,blue,295.87168310000004,None,None,295.87168310000004,None,,,,,,,,,,,,,,,,,,,,,,,,,,,,,,,,,,,110 Aloud,001,2022_Dec_01_0959,ProdSingRedoBetween,2021.2.3,59.907754040325955,
15,0,15,0,,,,,,,,,,,,,,,,,,,,,,,,,,300.3932245,None,country,36,16,aloud,blue,298.38296119999995,None,None,298.38296119999995,None,,,,,,,,,,,,,,,,,,,,,,,,,,,,,,,,,,,110 Aloud,001,2022_Dec_01_0959,ProdSingRedoBetween,2021.2.3,59.907754040325955,
16,0,16,0,,,,,,,,,,,,,,,,,,,,,,,,,,302.89562950000004,None,present,80,17,aloud,red,300.89625020000005,None,None,300.89625020000005,None,,,,,,,,,,,,,,,,,,,,,,,,,,,,,,,,,,,110 Aloud,001,2022_Dec_01_0959,ProdSingRedoBetween,2021.2.3,59.907754040325955,
17,0,17,0,,,,,,,,,,,,,,,,,,,,,,,,,,305.4148417,None,society,26,18,aloud,yellow,303.4020822,None,None,303.4020822,None,,,,,,,,,,,,,,,,,,,,,,,,,,,,,,,,,,,110 Aloud,001,2022_Dec_01_0959,ProdSingRedoBetween,2021.2.3,59.907754040325955,
18,0,18,0,,,,,,,,,,,,,,,,,,,,,,,,,,307.9339692,None,error,17,19,aloud,yellow,305.9232452,None,None,305.9232452,None,,,,,,,,,,,,,,,,,,,,,,,,,,,,,,,,,,,110 Aloud,001,2022_Dec_01_0959,ProdSingRedoBetween,2021.2.3,59.907754040325955,
19,0,19,0,,,,,,,,,,,,,,,,,,,,,,,,,,310.4364475,None,light,85,20,aloud,red,308.43639640000004,None,None,308.43639640000004,None,,,,,,,,,,,,,,,,,,,,,,,,,,,,,,,,,,,110 Aloud,001,2022_Dec_01_0959,ProdSingRedoBetween,2021.2.3,59.907754040325955,
20,0,20,0,,,,,,,,,,,,,,,,,,,,,,,,,,312.93889809999996,None,bureau,66,21,aloud,red,310.93795409999996,None,None,310.93795409999996,None,,,,,,,,,,,,,,,,,,,,,,,,,,,,,,,,,,,110 Aloud,001,2022_Dec_01_0959,ProdSingRedoBetween,2021.2.3,59.907754040325955,
21,0,21,0,,,,,,,,,,,,,,,,,,,,,,,,,,315.44150909999996,None,blind,47,22,aloud,blue,313.44036960000005,None,None,313.44036960000005,None,,,,,,,,,,,,,,,,,,,,,,,,,,,,,,,,,,,110 Aloud,001,2022_Dec_01_0959,ProdSingRedoBetween,2021.2.3,59.907754040325955,
22,0,22,0,,,,,,,,,,,,,,,,,,,,,,,,,,317.9439265,None,interior,13,23,aloud,yellow,315.94444239999996,None,None,315.94444239999996,None,,,,,,,,,,,,,,,,,,,,,,,,,,,,,,,,,,,110 Aloud,001,2022_Dec_01_0959,ProdSingRedoBetween,2021.2.3,59.907754040325955,
23,0,23,0,,,,,,,,,,,,,,,,,,,,,,,,,,320.4464176,None,narrow,79,24,aloud,red,318.44453009999995,None,None,318.44453009999995,None,,,,,,,,,,,,,,,,,,,,,,,,,,,,,,,,,,,110 Aloud,001,2022_Dec_01_0959,ProdSingRedoBetween,2021.2.3,59.907754040325955,
24,0,24,0,,,,,,,,,,,,,,,,,,,,,,,,,,322.96568279999997,None,election,27,25,aloud,yellow,320.95659179999996,None,None,320.95659179999996,None,,,,,,,,,,,,,,,,,,,,,,,,,,,,,,,,,,,110 Aloud,001,2022_Dec_01_0959,ProdSingRedoBetween,2021.2.3,59.907754040325955,
25,0,25,0,,,,,,,,,,,,,,,,,,,,,,,,,,325.4682507,None,series,52,26,aloud,blue,323.46608159999994,None,None,323.46608159999994,None,,,,,,,,,,,,,,,,,,,,,,,,,,,,,,,,,,,110 Aloud,001,2022_Dec_01_0959,ProdSingRedoBetween,2021.2.3,59.907754040325955,
26,0,26,0,,,,,,,,,,,,,,,,,,,,,,,,,,327.970552,None,under,61,27,aloud,red,325.96858899999995,None,None,325.96858899999995,None,,,,,,,,,,,,,,,,,,,,,,,,,,,,,,,,,,,110 Aloud,001,2022_Dec_01_0959,ProdSingRedoBetween,2021.2.3,59.907754040325955,
27,0,27,0,,,,,,,,,,,,,,,,,,,,,,,,,,330.48970469999995,None,instrument,14,28,aloud,yellow,328.4788664,None,None,328.4788664,None,,,,,,,,,,,,,,,,,,,,,,,,,,,,,,,,,,,110 Aloud,001,2022_Dec_01_0959,ProdSingRedoBetween,2021.2.3,59.907754040325955,
28,0,28,0,,,,,,,,,,,,,,,,,,,,,,,,,,332.9924469,None,opening,44,29,aloud,blue,330.9918132,None,None,330.9918132,None,,,,,,,,,,,,,,,,,,,,,,,,,,,,,,,,,,,110 Aloud,001,2022_Dec_01_0959,ProdSingRedoBetween,2021.2.3,59.907754040325955,
29,0,29,0,,,,,,,,,,,,,,,,,,,,,,,,,,335.5115723,None,listen,29,30,aloud,blue,333.49790759999996,None,None,333.49790759999996,None,,,,,,,,,,,,,,,,,,,,,,,,,,,,,,,,,,,110 Aloud,001,2022_Dec_01_0959,ProdSingRedoBetween,2021.2.3,59.907754040325955,
30,0,30,0,,,,,,,,,,,,,,,,,,,,,,,,,,338.0308061999999,None,course,68,31,aloud,red,336.0153432999999,None,None,336.0153432999999,None,,,,,,,,,,,,,,,,,,,,,,,,,,,,,,,,,,,110 Aloud,001,2022_Dec_01_0959,ProdSingRedoBetween,2021.2.3,59.907754040325955,
31,0,31,0,,,,,,,,,,,,,,,,,,,,,,,,,,340.53323279999995,None,commercial,59,32,aloud,yellow,338.5311815,None,None,338.5311815,None,,,,,,,,,,,,,,,,,,,,,,,,,,,,,,,,,,,110 Aloud,001,2022_Dec_01_0959,ProdSingRedoBetween,2021.2.3,59.907754040325955,
32,0,32,0,,,,,,,,,,,,,,,,,,,,,,,,,,343.0524216,None,institute,8,33,aloud,yellow,341.04015119999997,None,None,341.04015119999997,None,,,,,,,,,,,,,,,,,,,,,,,,,,,,,,,,,,,110 Aloud,001,2022_Dec_01_0959,ProdSingRedoBetween,2021.2.3,59.907754040325955,
33,0,33,0,,,,,,,,,,,,,,,,,,,,,,,,,,345.55495229999997,None,death,0,34,aloud,yellow,343.55573359999994,None,None,343.55573359999994,None,,,,,,,,,,,,,,,,,,,,,,,,,,,,,,,,,,,110 Aloud,001,2022_Dec_01_0959,ProdSingRedoBetween,2021.2.3,59.907754040325955,
34,0,34,0,,,,,,,,,,,,,,,,,,,,,,,,,,348.0575057,None,oxygen,42,35,aloud,blue,346.05834919999995,None,None,346.05834919999995,None,,,,,,,,,,,,,,,,,,,,,,,,,,,,,,,,,,,110 Aloud,001,2022_Dec_01_0959,ProdSingRedoBetween,2021.2.3,59.907754040325955,
35,0,35,0,,,,,,,,,,,,,,,,,,,,,,,,,,350.55992019999997,None,marriage,34,36,aloud,blue,348.5603394,None,None,348.5603394,None,,,,,,,,,,,,,,,,,,,,,,,,,,,,,,,,,,,110 Aloud,001,2022_Dec_01_0959,ProdSingRedoBetween,2021.2.3,59.907754040325955,
36,0,36,0,,,,,,,,,,,,,,,,,,,,,,,,,,353.0816634,None,write,45,37,aloud,blue,351.06469459999994,None,None,351.06469459999994,None,,,,,,,,,,,,,,,,,,,,,,,,,,,,,,,,,,,110 Aloud,001,2022_Dec_01_0959,ProdSingRedoBetween,2021.2.3,59.907754040325955,
37,0,37,0,,,,,,,,,,,,,,,,,,,,,,,,,,355.59820249999996,None,worker,54,38,aloud,blue,353.58661129999996,None,None,353.58661129999996,None,,,,,,,,,,,,,,,,,,,,,,,,,,,,,,,,,,,110 Aloud,001,2022_Dec_01_0959,ProdSingRedoBetween,2021.2.3,59.907754040325955,
38,0,38,0,,,,,,,,,,,,,,,,,,,,,,,,,,358.10079769999993,None,engineer,57,39,aloud,blue,356.098696,None,None,356.098696,None,,,,,,,,,,,,,,,,,,,,,,,,,,,,,,,,,,,110 Aloud,001,2022_Dec_01_0959,ProdSingRedoBetween,2021.2.3,59.907754040325955,
39,0,39,0,,,,,,,,,,,,,,,,,,,,,,,,,,360.607311,None,block,30,40,aloud,blue,358.6039402,None,None,358.6039402,None,,,,,,,,,,,,,,,,,,,,,,,,,,,,,,,,,,,110 Aloud,001,2022_Dec_01_0959,ProdSingRedoBetween,2021.2.3,59.907754040325955,
40,0,40,0,,,,,,,,,,,,,,,,,,,,,,,,,,363.1394629,None,group,24,41,aloud,yellow,361.12536679999994,None,None,361.12536679999994,None,,,,,,,,,,,,,,,,,,,,,,,,,,,,,,,,,,,110 Aloud,001,2022_Dec_01_0959,ProdSingRedoBetween,2021.2.3,59.907754040325955,
41,0,41,0,,,,,,,,,,,,,,,,,,,,,,,,,,365.65828369999997,None,afternoon,19,42,aloud,yellow,363.6446902,None,None,363.6446902,None,,,,,,,,,,,,,,,,,,,,,,,,,,,,,,,,,,,110 Aloud,001,2022_Dec_01_0959,ProdSingRedoBetween,2021.2.3,59.907754040325955,
42,0,42,0,,,,,,,,,,,,,,,,,,,,,,,,,,368.1608232,None,shear,28,43,aloud,yellow,366.15946699999995,None,None,366.15946699999995,None,,,,,,,,,,,,,,,,,,,,,,,,,,,,,,,,,,,110 Aloud,001,2022_Dec_01_0959,ProdSingRedoBetween,2021.2.3,59.907754040325955,
43,0,43,0,,,,,,,,,,,,,,,,,,,,,,,,,,370.6633454,None,season,32,44,aloud,blue,368.6638757999999,None,None,368.6638757999999,None,,,,,,,,,,,,,,,,,,,,,,,,,,,,,,,,,,,110 Aloud,001,2022_Dec_01_0959,ProdSingRedoBetween,2021.2.3,59.907754040325955,
44,0,44,0,,,,,,,,,,,,,,,,,,,,,,,,,,373.18260179999993,None,addition,31,45,aloud,blue,371.16863209999997,None,None,371.16863209999997,None,,,,,,,,,,,,,,,,,,,,,,,,,,,,,,,,,,,110 Aloud,001,2022_Dec_01_0959,ProdSingRedoBetween,2021.2.3,59.907754040325955,
45,0,45,0,,,,,,,,,,,,,,,,,,,,,,,,,,375.7016603999999,None,permit,1,46,aloud,yellow,373.6896221999999,None,None,373.6896221999999,None,,,,,,,,,,,,,,,,,,,,,,,,,,,,,,,,,,,110 Aloud,001,2022_Dec_01_0959,ProdSingRedoBetween,2021.2.3,59.907754040325955,
46,0,46,0,,,,,,,,,,,,,,,,,,,,,,,,,,378.2042103,None,agreement,53,47,aloud,blue,376.20218409999995,None,None,376.20218409999995,None,,,,,,,,,,,,,,,,,,,,,,,,,,,,,,,,,,,110 Aloud,001,2022_Dec_01_0959,ProdSingRedoBetween,2021.2.3,59.907754040325955,
47,0,47,0,,,,,,,,,,,,,,,,,,,,,,,,,,380.7234293,None,capital,86,48,aloud,red,378.7081463999999,None,None,378.7081463999999,None,,,,,,,,,,,,,,,,,,,,,,,,,,,,,,,,,,,110 Aloud,001,2022_Dec_01_0959,ProdSingRedoBetween,2021.2.3,59.907754040325955,
48,0,48,0,,,,,,,,,,,,,,,,,,,,,,,,,,383.2426812,None,title,69,49,aloud,red,381.2276204,None,None,381.2276204,None,,,,,,,,,,,,,,,,,,,,,,,,,,,,,,,,,,,110 Aloud,001,2022_Dec_01_0959,ProdSingRedoBetween,2021.2.3,59.907754040325955,
49,0,49,0,,,,,,,,,,,,,,,,,,,,,,,,,,385.76192719999995,None,hearing,63,50,aloud,red,383.7477828,None,None,383.7477828,None,,,,,,,,,,,,,,,,,,,,,,,,,,,,,,,,,,,110 Aloud,001,2022_Dec_01_0959,ProdSingRedoBetween,2021.2.3,59.907754040325955,
50,0,50,0,,,,,,,,,,,,,,,,,,,,,,,,,,388.26422389999993,None,dream,89,51,aloud,red,386.26220049999995,None,None,386.26220049999995,None,,,,,,,,,,,,,,,,,,,,,,,,,,,,,,,,,,,110 Aloud,001,2022_Dec_01_0959,ProdSingRedoBetween,2021.2.3,59.907754040325955,
51,0,51,0,,,,,,,,,,,,,,,,,,,,,,,,,,390.7668745,None,substance,11,52,aloud,yellow,388.7670719,None,None,388.7670719,None,,,,,,,,,,,,,,,,,,,,,,,,,,,,,,,,,,,110 Aloud,001,2022_Dec_01_0959,ProdSingRedoBetween,2021.2.3,59.907754040325955,
52,0,52,0,,,,,,,,,,,,,,,,,,,,,,,,,,393.28613529999996,None,subject,39,53,aloud,blue,391.2756471,None,None,391.2756471,None,,,,,,,,,,,,,,,,,,,,,,,,,,,,,,,,,,,110 Aloud,001,2022_Dec_01_0959,ProdSingRedoBetween,2021.2.3,59.907754040325955,
53,0,53,0,,,,,,,,,,,,,,,,,,,,,,,,,,395.7884206,None,dispute,46,54,aloud,blue,393.7893438,None,None,393.7893438,None,,,,,,,,,,,,,,,,,,,,,,,,,,,,,,,,,,,110 Aloud,001,2022_Dec_01_0959,ProdSingRedoBetween,2021.2.3,59.907754040325955,
54,0,54,0,,,,,,,,,,,,,,,,,,,,,,,,,,398.3076105,None,quick,82,55,aloud,red,396.2968308999999,None,None,396.2968308999999,None,,,,,,,,,,,,,,,,,,,,,,,,,,,,,,,,,,,110 Aloud,001,2022_Dec_01_0959,ProdSingRedoBetween,2021.2.3,59.907754040325955,
55,0,55,0,,,,,,,,,,,,,,,,,,,,,,,,,,400.82681949999994,None,swift,25,56,aloud,yellow,398.8118483999999,None,None,398.8118483999999,None,,,,,,,,,,,,,,,,,,,,,,,,,,,,,,,,,,,110 Aloud,001,2022_Dec_01_0959,ProdSingRedoBetween,2021.2.3,59.907754040325955,
56,0,56,0,,,,,,,,,,,,,,,,,,,,,,,,,,403.346006,None,detective,3,57,aloud,yellow,401.33056009999996,None,None,401.33056009999996,None,,,,,,,,,,,,,,,,,,,,,,,,,,,,,,,,,,,110 Aloud,001,2022_Dec_01_0959,ProdSingRedoBetween,2021.2.3,59.907754040325955,
57,0,57,0,,,,,,,,,,,,,,,,,,,,,,,,,,405.8652124,None,running,56,58,aloud,blue,403.8527415,None,None,403.8527415,None,,,,,,,,,,,,,,,,,,,,,,,,,,,,,,,,,,,110 Aloud,001,2022_Dec_01_0959,ProdSingRedoBetween,2021.2.3,59.907754040325955,
58,0,58,0,,,,,,,,,,,,,,,,,,,,,,,,,,408.3676363999999,None,captain,73,59,aloud,red,406.36707249999995,None,None,406.36707249999995,None,,,,,,,,,,,,,,,,,,,,,,,,,,,,,,,,,,,110 Aloud,001,2022_Dec_01_0959,ProdSingRedoBetween,2021.2.3,59.907754040325955,
59,0,59,0,,,,,,,,,,,,,,,,,,,,,,,,,,410.8701705,None,nature,51,60,aloud,blue,408.86979869999993,None,None,408.86979869999993,None,,,,,,,,,,,,,,,,,,,,,,,,,,,,,,,,,,,110 Aloud,001,2022_Dec_01_0959,ProdSingRedoBetween,2021.2.3,59.907754040325955,
60,0,60,0,,,,,,,,,,,,,,,,,,,,,,,,,,413.3890296999999,None,tough,38,61,aloud,blue,411.37392679999994,None,None,411.37392679999994,None,,,,,,,,,,,,,,,,,,,,,,,,,,,,,,,,,,,110 Aloud,001,2022_Dec_01_0959,ProdSingRedoBetween,2021.2.3,59.907754040325955,
61,0,61,0,,,,,,,,,,,,,,,,,,,,,,,,,,415.9085642,None,mayor,4,62,aloud,yellow,413.89327579999997,None,None,413.89327579999997,None,,,,,,,,,,,,,,,,,,,,,,,,,,,,,,,,,,,110 Aloud,001,2022_Dec_01_0959,ProdSingRedoBetween,2021.2.3,59.907754040325955,
62,0,62,0,,,,,,,,,,,,,,,,,,,,,,,,,,418.4110003999999,None,column,9,63,aloud,yellow,416.4087043999999,None,None,416.4087043999999,None,,,,,,,,,,,,,,,,,,,,,,,,,,,,,,,,,,,110 Aloud,001,2022_Dec_01_0959,ProdSingRedoBetween,2021.2.3,59.907754040325955,
63,0,63,0,,,,,,,,,,,,,,,,,,,,,,,,,,420.9135159,None,science,77,64,aloud,red,418.9135477,None,None,418.9135477,None,,,,,,,,,,,,,,,,,,,,,,,,,,,,,,,,,,,110 Aloud,001,2022_Dec_01_0959,ProdSingRedoBetween,2021.2.3,59.907754040325955,
64,0,64,0,,,,,,,,,,,,,,,,,,,,,,,,,,423.4160924,None,estate,22,65,aloud,yellow,421.4167589,None,None,421.4167589,None,,,,,,,,,,,,,,,,,,,,,,,,,,,,,,,,,,,110 Aloud,001,2022_Dec_01_0959,ProdSingRedoBetween,2021.2.3,59.907754040325955,
65,0,65,0,,,,,,,,,,,,,,,,,,,,,,,,,,425.9185966,None,still,76,66,aloud,red,423.9195005,None,None,423.9195005,None,,,,,,,,,,,,,,,,,,,,,,,,,,,,,,,,,,,110 Aloud,001,2022_Dec_01_0959,ProdSingRedoBetween,2021.2.3,59.907754040325955,
66,0,66,0,,,,,,,,,,,,,,,,,,,,,,,,,,428.43740159999993,None,public,64,67,aloud,red,426.4258681,None,None,426.4258681,None,,,,,,,,,,,,,,,,,,,,,,,,,,,,,,,,,,,110 Aloud,001,2022_Dec_01_0959,ProdSingRedoBetween,2021.2.3,59.907754040325955,
67,0,67,0,,,,,,,,,,,,,,,,,,,,,,,,,,430.9402266999999,None,owner,48,68,aloud,blue,428.938049,None,None,428.938049,None,,,,,,,,,,,,,,,,,,,,,,,,,,,,,,,,,,,110 Aloud,001,2022_Dec_01_0959,ProdSingRedoBetween,2021.2.3,59.907754040325955,
68,0,68,0,,,,,,,,,,,,,,,,,,,,,,,,,,433.4426659999999,None,trail,72,69,aloud,red,431.44084669999995,None,None,431.44084669999995,None,,,,,,,,,,,,,,,,,,,,,,,,,,,,,,,,,,,110 Aloud,001,2022_Dec_01_0959,ProdSingRedoBetween,2021.2.3,59.907754040325955,
69,0,69,0,,,,,,,,,,,,,,,,,,,,,,,,,,435.9449723,None,scale,62,70,aloud,red,433.9438066,None,None,433.9438066,None,,,,,,,,,,,,,,,,,,,,,,,,,,,,,,,,,,,110 Aloud,001,2022_Dec_01_0959,ProdSingRedoBetween,2021.2.3,59.907754040325955,
70,0,70,0,,,,,,,,,,,,,,,,,,,,,,,,,,438.4644448,None,drove,6,71,aloud,yellow,436.4528462999999,None,None,436.4528462999999,None,,,,,,,,,,,,,,,,,,,,,,,,,,,,,,,,,,,110 Aloud,001,2022_Dec_01_0959,ProdSingRedoBetween,2021.2.3,59.907754040325955,
71,0,71,0,,,,,,,,,,,,,,,,,,,,,,,,,,440.9836579,None,junior,43,72,aloud,blue,438.9719692,None,None,438.9719692,None,,,,,,,,,,,,,,,,,,,,,,,,,,,,,,,,,,,110 Aloud,001,2022_Dec_01_0959,ProdSingRedoBetween,2021.2.3,59.907754040325955,
72,0,72,0,,,,,,,,,,,,,,,,,,,,,,,,,,443.48607189999996,None,alert,78,73,aloud,red,441.4846,None,None,441.4846,None,,,,,,,,,,,,,,,,,,,,,,,,,,,,,,,,,,,110 Aloud,001,2022_Dec_01_0959,ProdSingRedoBetween,2021.2.3,59.907754040325955,
73,0,73,0,,,,,,,,,,,,,,,,,,,,,,,,,,446.0052548,None,atmosphere,7,74,aloud,yellow,443.9988515,None,None,443.9988515,None,,,,,,,,,,,,,,,,,,,,,,,,,,,,,,,,,,,110 Aloud,001,2022_Dec_01_0959,ProdSingRedoBetween,2021.2.3,59.907754040325955,
74,0,74,0,,,,,,,,,,,,,,,,,,,,,,,,,,448.5078239999999,None,voice,49,75,aloud,blue,446.50544049999996,None,None,446.50544049999996,None,,,,,,,,,,,,,,,,,,,,,,,,,,,,,,,,,,,110 Aloud,001,2022_Dec_01_0959,ProdSingRedoBetween,2021.2.3,59.907754040325955,
75,0,75,0,,,,,,,,,,,,,,,,,,,,,,,,,,451.0270034,None,brief,74,76,aloud,red,449.0122113,None,None,449.0122113,None,,,,,,,,,,,,,,,,,,,,,,,,,,,,,,,,,,,110 Aloud,001,2022_Dec_01_0959,ProdSingRedoBetween,2021.2.3,59.907754040325955,
76,0,76,0,,,,,,,,,,,,,,,,,,,,,,,,,,453.5294851,None,count,12,77,aloud,yellow,451.5297744999999,None,None,451.5297744999999,None,,,,,,,,,,,,,,,,,,,,,,,,,,,,,,,,,,,110 Aloud,001,2022_Dec_01_0959,ProdSingRedoBetween,2021.2.3,59.907754040325955,
77,0,77,0,,,,,,,,,,,,,,,,,,,,,,,,,,456.0487774999999,None,tragedy,58,78,aloud,blue,454.03412849999995,None,None,454.03412849999995,None,,,,,,,,,,,,,,,,,,,,,,,,,,,,,,,,,,,110 Aloud,001,2022_Dec_01_0959,ProdSingRedoBetween,2021.2.3,59.907754040325955,
78,0,78,0,,,,,,,,,,,,,,,,,,,,,,,,,,458.5678065999999,None,medicine,70,79,aloud,red,456.55316959999993,None,None,456.55316959999993,None,,,,,,,,,,,,,,,,,,,,,,,,,,,,,,,,,,,110 Aloud,001,2022_Dec_01_0959,ProdSingRedoBetween,2021.2.3,59.907754040325955,
79,0,79,0,,,,,,,,,,,,,,,,,,,,,,,,,,461.07034009999995,None,rapid,20,80,aloud,yellow,459.0684851,None,None,459.0684851,None,,,,,,,,,,,,,,,,,,,,,,,,,,,,,,,,,,,110 Aloud,001,2022_Dec_01_0959,ProdSingRedoBetween,2021.2.3,59.907754040325955,
80,0,80,0,,,,,,,,,,,,,,,,,,,,,,,,,,463.589568,None,symbol,71,81,aloud,red,461.58330579999995,None,None,461.58330579999995,None,,,,,,,,,,,,,,,,,,,,,,,,,,,,,,,,,,,110 Aloud,001,2022_Dec_01_0959,ProdSingRedoBetween,2021.2.3,59.907754040325955,
81,0,81,0,,,,,,,,,,,,,,,,,,,,,,,,,,466.0920439,None,height,55,82,aloud,blue,464.0908776,None,None,464.0908776,None,,,,,,,,,,,,,,,,,,,,,,,,,,,,,,,,,,,110 Aloud,001,2022_Dec_01_0959,ProdSingRedoBetween,2021.2.3,59.907754040325955,
82,0,82,0,,,,,,,,,,,,,,,,,,,,,,,,,,468.610956,None,skill,2,83,aloud,yellow,466.5970267,None,None,466.5970267,None,,,,,,,,,,,,,,,,,,,,,,,,,,,,,,,,,,,110 Aloud,001,2022_Dec_01_0959,ProdSingRedoBetween,2021.2.3,59.907754040325955,
83,0,83,0,,,,,,,,,,,,,,,,,,,,,,,,,,471.11375699999996,None,collection,40,84,aloud,blue,469.1113779,None,None,469.1113779,None,,,,,,,,,,,,,,,,,,,,,,,,,,,,,,,,,,,110 Aloud,001,2022_Dec_01_0959,ProdSingRedoBetween,2021.2.3,59.907754040325955,
84,0,84,0,,,,,,,,,,,,,,,,,,,,,,,,,,473.6353161999999,None,clean,37,85,aloud,blue,471.61835139999994,None,None,471.61835139999994,None,,,,,,,,,,,,,,,,,,,,,,,,,,,,,,,,,,,110 Aloud,001,2022_Dec_01_0959,ProdSingRedoBetween,2021.2.3,59.907754040325955,
85,0,85,0,,,,,,,,,,,,,,,,,,,,,,,,,,476.15210349999995,None,mechanical,65,86,aloud,red,474.1421783999999,None,None,474.1421783999999,None,,,,,,,,,,,,,,,,,,,,,,,,,,,,,,,,,,,110 Aloud,001,2022_Dec_01_0959,ProdSingRedoBetween,2021.2.3,59.907754040325955,
86,0,86,0,,,,,,,,,,,,,,,,,,,,,,,,,,478.67123549999997,None,sound,41,87,aloud,blue,476.666021,None,None,476.666021,None,,,,,,,,,,,,,,,,,,,,,,,,,,,,,,,,,,,110 Aloud,001,2022_Dec_01_0959,ProdSingRedoBetween,2021.2.3,59.907754040325955,
87,0,87,0,,,,,,,,,,,,,,,,,,,,,,,,,,481.1735543,None,strength,75,88,aloud,red,479.17176499999994,None,None,479.17176499999994,None,,,,,,,,,,,,,,,,,,,,,,,,,,,,,,,,,,,110 Aloud,001,2022_Dec_01_0959,ProdSingRedoBetween,2021.2.3,59.907754040325955,
88,0,88,0,,,,,,,,,,,,,,,,,,,,,,,,,,483.6929523,None,disease,67,89,aloud,red,481.6792267999999,None,None,481.6792267999999,None,,,,,,,,,,,,,,,,,,,,,,,,,,,,,,,,,,,110 Aloud,001,2022_Dec_01_0959,ProdSingRedoBetween,2021.2.3,59.907754040325955,
89,0,89,0,,,,,,,,,,,,,,,,,,,,,,,,,,486.1954395,None,bicycle,15,90,aloud,yellow,484.1953096,None,None,484.1953096,None,,,,,,,,,,,,,,,,,,,,,,,,,,,,,,,,,,,110 Aloud,001,2022_Dec_01_0959,ProdSingRedoBetween,2021.2.3,59.907754040325955,
,,,,,,,,,,,,,,,,,,,,,,,,,,,,,,,,,,,,,,,,,486.69614249999995,None,k,204.94361070000002,486.69614249999995,None,,,,,,,,,,,,,,,,,,,,,,,,,,,,,110 Aloud,001,2022_Dec_01_0959,ProdSingRedoBetween,2021.2.3,59.907754040325955,
,,,,0,0,0,0,,,,,,,,,,,,,,,,,,,,,,700.2137481,None,,,,,,,,,,,,,,,,,dance,127,1,aloud,new,null,692.1951685,None,692.1951685,None,6,4.924242900000081,692.1951685,None,4.924242900000081,697.1422258,None,697.6625449,None,697.6625449,None,r,2.528892600000063,697.6625449,None,2.528892600000063,,,110 Aloud,001,2022_Dec_01_0959,ProdSingRedoBetween,2021.2.3,59.907754040325955,
,,,,1,0,1,0,,,,,,,,,,,,,,,,,,,,,,707.6333013,None,,,,,,,,,,,,,,,,,escape,164,2,aloud,new,null,700.7316217,None,700.7316217,None,6,4.299796100000094,700.7316217,None,4.299796100000094,705.0525782999999,None,705.5700316,None,705.5700316,None,f,2.0453307000000223,705.5700316,None,2.0453307000000223,,,110 Aloud,001,2022_Dec_01_0959,ProdSingRedoBetween,2021.2.3,59.907754040325955,
,,,,2,0,2,0,,,,,,,,,,,,,,,,,,,,,,712.1045932,None,,,,,,,,,,,,,,,,,suspect,168,3,aloud,new,null,708.1484577,None,708.1484577,None,6,3.018891599999961,708.1484577,None,3.018891599999961,711.1903536,None,711.7083685,None,711.7083685,None,f,0.37897880000002715,711.7083685,None,0.37897880000002715,,,110 Aloud,001,2022_Dec_01_0959,ProdSingRedoBetween,2021.2.3,59.907754040325955,
,,,,3,0,3,0,,,,,,,,,,,,,,,,,,,,,,717.6100422,None,,,,,,,,,,,,,,,,,election,27,4,aloud,old,yellow,712.6121152,None,712.6121152,None,6,3.2992868000000044,712.6121152,None,3.2992868000000044,715.9425686999999,None,716.4489983,None,716.4489983,None,r,1.134374399999956,716.4489983,None,1.134374399999956,,,110 Aloud,001,2022_Dec_01_0959,ProdSingRedoBetween,2021.2.3,59.907754040325955,
,,,,4,0,4,0,,,,,,,,,,,,,,,,,,,,,,722.0144877,None,,,,,,,,,,,,,,,,,public,64,5,aloud,old,red,718.1161943,None,718.1161943,None,6,3.107513899999958,718.1161943,None,3.107513899999958,721.255417,None,721.7663557,None,721.7663557,None,r,0.2330530000000408,721.7663557,None,0.2330530000000408,,,110 Aloud,001,2022_Dec_01_0959,ProdSingRedoBetween,2021.2.3,59.907754040325955,
,,,,5,0,5,0,,,,,,,,,,,,,,,,,,,,,,726.8192098,None,,,,,,,,,,,,,,,,,smooth,178,6,aloud,new,null,722.5258067999999,None,722.5258067999999,None,6,2.7056261999999833,722.5258067999999,None,2.7056261999999833,725.2544773999999,None,725.7771242,None,725.7771242,None,f,1.0143176999999923,725.7771242,None,1.0143176999999923,,,110 Aloud,001,2022_Dec_01_0959,ProdSingRedoBetween,2021.2.3,59.907754040325955,
,,,,6,0,6,0,,,,,,,,,,,,,,,,,,,,,,730.7729767,None,,,,,,,,,,,,,,,,,finance,103,7,aloud,new,null,727.3283236999999,None,727.3283236999999,None,6,2.487143099999912,727.3283236999999,None,2.487143099999912,729.8425890999999,None,730.3620605,None,730.3620605,None,f,0.38143250000007356,730.3620605,None,0.38143250000007356,,,110 Aloud,001,2022_Dec_01_0959,ProdSingRedoBetween,2021.2.3,59.907754040325955,
,,,,7,0,7,0,,,,,,,,,,,,,,,,,,,,,,735.6948384,None,,,,,,,,,,,,,,,,,vision,128,8,aloud,new,null,731.2746791,None,731.2746791,None,6,3.404830899999979,731.2746791,None,3.404830899999979,734.7121576,None,735.2346825999999,None,735.2346825999999,None,r,0.4367237000000159,735.2346825999999,None,0.4367237000000159,,,110 Aloud,001,2022_Dec_01_0959,ProdSingRedoBetween,2021.2.3,59.907754040325955,
,,,,8,0,8,0,,,,,,,,,,,,,,,,,,,,,,739.1982971,None,,,,,,,,,,,,,,,,,bicycle,15,9,aloud,old,yellow,736.2084537999999,None,736.2084537999999,None,6,2.11897620000002,736.2084537999999,None,2.11897620000002,738.3487682,None,738.855327,None,738.855327,None,r,0.32813129999999546,738.855327,None,0.32813129999999546,,,110 Aloud,001,2022_Dec_01_0959,ProdSingRedoBetween,2021.2.3,59.907754040325955,
,,,,9,0,9,0,,,,,,,,,,,,,,,,,,,,,,743.6382178,None,,,,,,,,,,,,,,,,,short,136,10,aloud,new,null,739.7151563,None,739.7151563,None,6,2.204330200000072,739.7151563,None,2.204330200000072,741.9402580999999,None,742.4557960999999,None,742.4557960999999,None,f,1.1517916000000241,742.4557960999999,None,1.1517916000000241,,,110 Aloud,001,2022_Dec_01_0959,ProdSingRedoBetween,2021.2.3,59.907754040325955,
,,,,10,0,10,0,,,,,,,,,,,,,,,,,,,,,,748.0071563,None,,,,,,,,,,,,,,,,,engineer,57,11,aloud,old,blue,744.1597206,None,744.1597206,None,6,2.031982200000016,744.1597206,None,2.031982200000016,746.2314973,None,746.7423715,None,746.7423715,None,r,1.249076799999898,746.7423715,None,1.249076799999898,,,110 Aloud,001,2022_Dec_01_0959,ProdSingRedoBetween,2021.2.3,59.907754040325955,
,,,,11,0,11,0,,,,,,,,,,,,,,,,,,,,,,751.8957545,None,,,,,,,,,,,,,,,,,resistance,121,12,aloud,new,null,748.5075157,None,748.5075157,None,6,2.3959674000000177,748.5075157,None,2.3959674000000177,750.9307033,None,751.4452325,None,751.4452325,None,r,0.4183901999999762,751.4452325,None,0.4183901999999762,,,110 Aloud,001,2022_Dec_01_0959,ProdSingRedoBetween,2021.2.3,59.907754040325955,
,,,,12,0,12,0,,,,,,,,,,,,,,,,,,,,,,756.1987001,None,,,,,,,,,,,,,,,,,drink,119,13,aloud,new,null,752.4067577,None,752.4067577,None,6,2.344771299999934,752.4067577,None,2.344771299999934,754.7817774,None,755.2855867999999,None,755.2855867999999,None,f,0.8819184000000178,755.2855867999999,None,0.8819184000000178,,,110 Aloud,001,2022_Dec_01_0959,ProdSingRedoBetween,2021.2.3,59.907754040325955,
,,,,13,0,13,0,,,,,,,,,,,,,,,,,,,,,,760.0191348999999,None,,,,,,,,,,,,,,,,,rapid,20,14,aloud,old,yellow,756.7144099999999,None,756.7144099999999,None,6,2.405067400000007,756.7144099999999,None,2.405067400000007,759.1364879,None,759.6577555,None,759.6577555,None,r,0.33360799999991286,759.6577555,None,0.33360799999991286,,,110 Aloud,001,2022_Dec_01_0959,ProdSingRedoBetween,2021.2.3,59.907754040325955,
,,,,14,0,14,0,,,,,,,,,,,,,,,,,,,,,,763.6393944,None,,,,,,,,,,,,,,,,,company,111,15,aloud,new,null,760.5228473,None,760.5228473,None,6,1.9887039000000186,760.5228473,None,1.9887039000000186,762.5504106,None,763.0635404,None,763.0635404,None,f,0.5518769999999904,763.0635404,None,0.5518769999999904,,,110 Aloud,001,2022_Dec_01_0959,ProdSingRedoBetween,2021.2.3,59.907754040325955,
,,,,15,0,15,0,,,,,,,,,,,,,,,,,,,,,,766.9607816,None,,,,,,,,,,,,,,,,,scale,62,16,aloud,old,red,764.1509486,None,764.1509486,None,6,1.8246467999999822,764.1509486,None,1.8246467999999822,766.0000097,None,766.5090013,None,766.5090013,None,r,0.43449229999998806,766.5090013,None,0.43449229999998806,,,110 Aloud,001,2022_Dec_01_0959,ProdSingRedoBetween,2021.2.3,59.907754040325955,
,,,,16,0,16,0,,,,,,,,,,,,,,,,,,,,,,770.9969338999999,None,,,,,,,,,,,,,,,,,partner,139,17,aloud,new,null,767.4668054,None,767.4668054,None,6,1.8046291999999085,767.4668054,None,1.8046291999999085,769.2965508999999,None,769.7999321,None,769.7999321,None,r,1.1674178999999185,769.7999321,None,1.1674178999999185,,,110 Aloud,001,2022_Dec_01_0959,ProdSingRedoBetween,2021.2.3,59.907754040325955,
,,,,17,0,17,0,,,,,,,,,,,,,,,,,,,,,,774.0663895,None,,,,,,,,,,,,,,,,,drove,6,18,aloud,old,yellow,771.5036874,None,771.5036874,None,6,1.671749400000067,771.5036874,None,1.671749400000067,773.2004495,None,773.7073518999999,None,773.7073518999999,None,r,0.3401083999999628,773.7073518999999,None,0.3401083999999628,,,110 Aloud,001,2022_Dec_01_0959,ProdSingRedoBetween,2021.2.3,59.907754040325955,
,,,,18,0,18,0,,,,,,,,,,,,,,,,,,,,,,777.0695412,None,,,,,,,,,,,,,,,,,strength,75,19,aloud,old,red,774.58087,None,774.58087,None,6,1.538762199999951,774.58087,None,1.538762199999951,776.1454736,None,776.652563,None,776.652563,None,r,0.38692039999989447,776.652563,None,0.38692039999989447,,,110 Aloud,001,2022_Dec_01_0959,ProdSingRedoBetween,2021.2.3,59.907754040325955,
,,,,19,0,19,0,,,,,,,,,,,,,,,,,,,,,,780.6065193,None,,,,,,,,,,,,,,,,,portion,100,20,aloud,new,null,777.5763231999999,None,777.5763231999999,None,6,2.159139399999958,777.5763231999999,None,2.159139399999958,779.758275,None,780.2770889,None,780.2770889,None,f,0.3143474000000879,780.2770889,None,0.3143474000000879,,,110 Aloud,001,2022_Dec_01_0959,ProdSingRedoBetween,2021.2.3,59.907754040325955,
,,,,20,0,20,0,,,,,,,,,,,,,,,,,,,,,,784.0764898,None,,,,,,,,,,,,,,,,,little,145,21,aloud,new,null,781.1207876,None,781.1207876,None,6,1.9268064000000322,781.1207876,None,1.9268064000000322,783.083355,None,783.5980549999999,None,783.5980549999999,None,f,0.44941670000002887,783.5980549999999,None,0.44941670000002887,,,110 Aloud,001,2022_Dec_01_0959,ProdSingRedoBetween,2021.2.3,59.907754040325955,
,,,,21,0,21,0,,,,,,,,,,,,,,,,,,,,,,787.2794544999999,None,,,,,,,,,,,,,,,,,mechanical,65,22,aloud,old,red,784.596056,None,784.596056,None,6,1.651407699999936,784.596056,None,1.651407699999936,786.2816161,None,786.7959371,None,786.7959371,None,f,0.45958810000001904,786.7959371,None,0.45958810000001904,,,110 Aloud,001,2022_Dec_01_0959,ProdSingRedoBetween,2021.2.3,59.907754040325955,
,,,,22,0,22,0,,,,,,,,,,,,,,,,,,,,,,790.516316,None,,,,,,,,,,,,,,,,,light,85,23,aloud,old,red,787.7842519999999,None,787.7842519999999,None,6,1.703362200000015,787.7842519999999,None,1.703362200000015,789.5317921999999,None,790.0326253999999,None,790.0326253999999,None,r,0.45474139999998897,790.0326253999999,None,0.45474139999998897,,,110 Aloud,001,2022_Dec_01_0959,ProdSingRedoBetween,2021.2.3,59.907754040325955,
,,,,23,0,23,0,,,,,,,,,,,,,,,,,,,,,,794.3868259999999,None,,,,,,,,,,,,,,,,,phrase,151,24,aloud,new,null,791.0229145999999,None,791.0229145999999,None,6,1.6088483999999426,791.0229145999999,None,1.6088483999999426,792.6637293,None,793.1729760999999,None,793.1729760999999,None,r,1.1864221999999245,793.1729760999999,None,1.1864221999999245,,,110 Aloud,001,2022_Dec_01_0959,ProdSingRedoBetween,2021.2.3,59.907754040325955,
,,,,24,0,24,0,,,,,,,,,,,,,,,,,,,,,,797.8083689,None,,,,,,,,,,,,,,,,,theme,150,25,aloud,new,null,794.8992227,None,794.8992227,None,6,1.7802264000000605,794.8992227,None,1.7802264000000605,796.7098383,None,797.2264715,None,797.2264715,None,f,0.549102199999993,797.2264715,None,0.549102199999993,,,110 Aloud,001,2022_Dec_01_0959,ProdSingRedoBetween,2021.2.3,59.907754040325955,
,,,,25,0,25,0,,,,,,,,,,,,,,,,,,,,,,800.726265,None,,,,,,,,,,,,,,,,,damage,23,26,aloud,old,yellow,798.3229177,None,798.3229177,None,6,1.444761500000027,798.3229177,None,1.444761500000027,799.8005585,None,800.3165094999999,None,800.3165094999999,None,r,0.3791463999999678,800.3165094999999,None,0.3791463999999678,,,110 Aloud,001,2022_Dec_01_0959,ProdSingRedoBetween,2021.2.3,59.907754040325955,
,,,,26,0,26,0,,,,,,,,,,,,,,,,,,,,,,803.7628023999999,None,,,,,,,,,,,,,,,,,tennis,153,27,aloud,new,null,801.2529063,None,801.2529063,None,6,1.5145888000000696,801.2529063,None,1.5145888000000696,802.8013754,None,803.3147338,None,803.3147338,None,f,0.42871790000003784,803.3147338,None,0.42871790000003784,,,110 Aloud,001,2022_Dec_01_0959,ProdSingRedoBetween,2021.2.3,59.907754040325955,
,,,,27,0,27,0,,,,,,,,,,,,,,,,,,,,,,806.8680689,None,,,,,,,,,,,,,,,,,conference,179,28,aloud,new,null,804.2734906,None,804.2734906,None,6,1.7181749000000082,804.2734906,None,1.7181749000000082,806.022696,None,806.5409814,None,806.5409814,None,r,0.3064185999999154,806.5409814,None,0.3064185999999154,,,110 Aloud,001,2022_Dec_01_0959,ProdSingRedoBetween,2021.2.3,59.907754040325955,
,,,,28,0,28,0,,,,,,,,,,,,,,,,,,,,,,809.9023187,None,,,,,,,,,,,,,,,,,collection,40,29,aloud,old,blue,807.3856402,None,807.3856402,None,6,1.5897149999999556,807.3856402,None,1.5897149999999556,809.0041077,None,809.5241244,None,809.5241244,None,r,0.3552518000000191,809.5241244,None,0.3552518000000191,,,110 Aloud,001,2022_Dec_01_0959,ProdSingRedoBetween,2021.2.3,59.907754040325955,
,,,,29,0,29,0,,,,,,,,,,,,,,,,,,,,,,812.5894224,None,,,,,,,,,,,,,,,,,opening,44,30,aloud,old,blue,810.4154135,None,810.4154135,None,6,1.3280996000000869,810.4154135,None,1.3280996000000869,811.777599,None,812.2885016,None,812.2885016,None,r,0.2710464999998976,812.2885016,None,0.2710464999998976,,,110 Aloud,001,2022_Dec_01_0959,ProdSingRedoBetween,2021.2.3,59.907754040325955,
,,,,30,0,30,0,,,,,,,,,,,,,,,,,,,,,,815.1742687,None,,,,,,,,,,,,,,,,,alert,78,31,aloud,old,red,813.095003,None,813.095003,None,6,1.2164417000000185,813.095003,None,1.2164417000000185,814.3425248,None,814.8573745,None,814.8573745,None,r,0.2861044999999649,814.8573745,None,0.2861044999999649,,,110 Aloud,001,2022_Dec_01_0959,ProdSingRedoBetween,2021.2.3,59.907754040325955,
,,,,31,0,31,0,,,,,,,,,,,,,,,,,,,,,,817.7099624,None,,,,,,,,,,,,,,,,,dozen,83,32,aloud,old,red,815.6887231,None,815.6887231,None,6,1.102707500000065,815.6887231,None,1.102707500000065,816.8160862999999,None,817.3329693,None,817.3329693,None,r,0.3464779000000817,817.3329693,None,0.3464779000000817,,,110 Aloud,001,2022_Dec_01_0959,ProdSingRedoBetween,2021.2.3,59.907754040325955,
,,,,32,0,32,0,,,,,,,,,,,,,,,,,,,,,,820.5293664999999,None,,,,,,,,,,,,,,,,,cover,109,33,aloud,new,null,818.2256884,None,818.2256884,None,6,1.4377974999999878,818.2256884,None,1.4377974999999878,819.6832375,None,820.2009638999999,None,820.2009638999999,None,r,0.31048569999995834,820.2009638999999,None,0.31048569999995834,,,110 Aloud,001,2022_Dec_01_0959,ProdSingRedoBetween,2021.2.3,59.907754040325955,
,,,,33,0,33,0,,,,,,,,,,,,,,,,,,,,,,823.5826238999999,None,,,,,,,,,,,,,,,,,atmosphere,7,34,aloud,old,yellow,821.0471112,None,821.0471112,None,6,1.6564127999999982,821.0471112,None,1.6564127999999982,822.7364504,None,823.2571822,None,823.2571822,None,r,0.30225430000007236,823.2571822,None,0.30225430000007236,,,110 Aloud,001,2022_Dec_01_0959,ProdSingRedoBetween,2021.2.3,59.907754040325955,
,,,,34,0,34,0,,,,,,,,,,,,,,,,,,,,,,827.1195098,None,,,,,,,,,,,,,,,,,angle,163,35,aloud,new,null,824.0880715,None,824.0880715,None,6,1.7916692000000012,824.0880715,None,1.7916692000000012,825.909179,None,826.4188899999999,None,826.4188899999999,None,f,0.6845332000000326,826.4188899999999,None,0.6845332000000326,,,110 Aloud,001,2022_Dec_01_0959,ProdSingRedoBetween,2021.2.3,59.907754040325955,
,,,,35,0,35,0,,,,,,,,,,,,,,,,,,,,,,830.3114443999999,None,,,,,,,,,,,,,,,,,breath,133,36,aloud,new,null,827.6276586,None,827.6276586,None,6,1.635938900000042,827.6276586,None,1.635938900000042,829.299837,None,829.8073933,None,829.8073933,None,f,0.48012789999995675,829.8073933,None,0.48012789999995675,,,110 Aloud,001,2022_Dec_01_0959,ProdSingRedoBetween,2021.2.3,59.907754040325955,
,,,,36,0,36,0,,,,,,,,,,,,,,,,,,,,,,833.0421382999999,None,,,,,,,,,,,,,,,,,stand,147,37,aloud,new,null,830.830366,None,830.830366,None,6,1.3291378000000122,830.830366,None,1.3291378000000122,832.1791668999999,None,832.6942561999999,None,832.6942561999999,None,f,0.3211527000000842,832.6942561999999,None,0.3211527000000842,,,110 Aloud,001,2022_Dec_01_0959,ProdSingRedoBetween,2021.2.3,59.907754040325955,
,,,,37,0,37,0,,,,,,,,,,,,,,,,,,,,,,836.3145910999999,None,,,,,,,,,,,,,,,,,commercial,59,38,aloud,old,yellow,833.5541258,None,833.5541258,None,6,1.6692720999999437,833.5541258,None,1.6692720999999437,835.2511443000001,None,835.7650666,None,835.7650666,None,r,0.5305020000000695,835.7650666,None,0.5305020000000695,,,110 Aloud,001,2022_Dec_01_0959,ProdSingRedoBetween,2021.2.3,59.907754040325955,
,,,,38,0,38,0,,,,,,,,,,,,,,,,,,,,,,839.7155023,None,,,,,,,,,,,,,,,,,center,142,39,aloud,new,null,836.8347524000001,None,836.8347524000001,None,6,1.8446042000000489,836.8347524000001,None,1.8446042000000489,838.6990172000001,None,839.1981447000001,None,839.1981447000001,None,f,0.4892739000001711,839.1981447000001,None,0.4892739000001711,,,110 Aloud,001,2022_Dec_01_0959,ProdSingRedoBetween,2021.2.3,59.907754040325955,
,,,,39,0,39,0,,,,,,,,,,,,,,,,,,,,,,842.3085341999999,None,,,,,,,,,,,,,,,,,primary,87,40,aloud,old,red,840.2258922999999,None,840.2258922999999,None,6,1.1895994999999857,840.2258922999999,None,1.1895994999999857,841.4430838999999,None,841.9511937,None,841.9511937,None,r,0.32853959999988547,841.9511937,None,0.32853959999988547,,,110 Aloud,001,2022_Dec_01_0959,ProdSingRedoBetween,2021.2.3,59.907754040325955,
,,,,40,0,40,0,,,,,,,,,,,,,,,,,,,,,,844.8372406999999,None,,,,,,,,,,,,,,,,,guest,173,41,aloud,new,null,842.8236233999999,None,842.8236233999999,None,6,1.1277494999999362,842.8236233999999,None,1.1277494999999362,843.9707495999999,None,844.4763255,None,844.4763255,None,f,0.3391786999998203,844.4763255,None,0.3391786999998203,,,110 Aloud,001,2022_Dec_01_0959,ProdSingRedoBetween,2021.2.3,59.907754040325955,
,,,,41,0,41,0,,,,,,,,,,,,,,,,,,,,,,847.3564488,None,,,,,,,,,,,,,,,,,front,172,42,aloud,new,null,845.3514782,None,845.3514782,None,6,1.112223700000186,845.3514782,None,1.112223700000186,846.4942802999999,None,847.0072250000001,None,847.0072250000001,None,f,0.32025980000003074,847.0072250000001,None,0.32025980000003074,,,110 Aloud,001,2022_Dec_01_0959,ProdSingRedoBetween,2021.2.3,59.907754040325955,
,,,,42,0,42,0,,,,,,,,,,,,,,,,,,,,,,849.7441044,None,,,,,,,,,,,,,,,,,message,126,43,aloud,new,null,847.8701354,None,847.8701354,None,6,0.969355700000051,847.8701354,None,0.969355700000051,848.8651032999999,None,849.3877027999999,None,849.3877027999999,None,r,0.33178799999996045,849.3877027999999,None,0.33178799999996045,,,110 Aloud,001,2022_Dec_01_0959,ProdSingRedoBetween,2021.2.3,59.907754040325955,
,,,,43,0,43,0,,,,,,,,,,,,,,,,,,,,,,852.4152521999999,None,,,,,,,,,,,,,,,,,minor,95,44,aloud,new,null,850.2740105,None,850.2740105,None,6,1.213490899999897,850.2740105,None,1.213490899999897,851.5180908,None,852.0333742,None,852.0333742,None,f,0.3501725000000988,852.0333742,None,0.3501725000000988,,,110 Aloud,001,2022_Dec_01_0959,ProdSingRedoBetween,2021.2.3,59.907754040325955,
,,,,44,0,44,0,,,,,,,,,,,,,,,,,,,,,,855.0022733999999,None,,,,,,,,,,,,,,,,,reading,141,45,aloud,new,null,852.9358990999999,None,852.9358990999999,None,6,1.1436784999998508,852.9358990999999,None,1.1436784999998508,854.1029962,None,854.6145035,None,854.6145035,None,f,0.3532169000000067,854.6145035,None,0.3532169000000067,,,110 Aloud,001,2022_Dec_01_0959,ProdSingRedoBetween,2021.2.3,59.907754040325955,
,,,,45,0,45,0,,,,,,,,,,,,,,,,,,,,,,858.0003890999999,None,,,,,,,,,,,,,,,,,route,10,46,aloud,old,yellow,855.5184606999999,None,855.5184606999999,None,6,1.4332099999999173,855.5184606999999,None,1.4332099999999173,856.9902385999999,None,857.5000315,None,857.5000315,None,r,0.4834680000001299,857.5000315,None,0.4834680000001299,,,110 Aloud,001,2022_Dec_01_0959,ProdSingRedoBetween,2021.2.3,59.907754040325955,
,,,,46,0,46,0,,,,,,,,,,,,,,,,,,,,,,860.4194782,None,,,,,,,,,,,,,,,,,place,97,47,aloud,new,null,858.5049245999999,None,858.5049245999999,None,6,1.0386288999998214,858.5049245999999,None,1.0386288999998214,859.5779221999999,None,860.0908262,None,860.0908262,None,r,0.3006256000001031,860.0908262,None,0.3006256000001031,,,110 Aloud,001,2022_Dec_01_0959,ProdSingRedoBetween,2021.2.3,59.907754040325955,
,,,,47,0,47,0,,,,,,,,,,,,,,,,,,,,,,862.9244593000001,None,,,,,,,,,,,,,,,,,literature,106,48,aloud,new,null,860.9240348000001,None,860.9240348000001,None,6,1.1075310999999601,860.9240348000001,None,1.1075310999999601,862.0634857,None,862.5717462999999,None,862.5717462999999,None,f,0.32375809999984995,862.5717462999999,None,0.32375809999984995,,,110 Aloud,001,2022_Dec_01_0959,ProdSingRedoBetween,2021.2.3,59.907754040325955,
,,,,48,0,48,0,,,,,,,,,,,,,,,,,,,,,,865.3428546,None,,,,,,,,,,,,,,,,,industry,94,49,aloud,new,null,863.4486380999999,None,863.4486380999999,None,6,1.0148667000000842,863.4486380999999,None,1.0148667000000842,864.4960054000001,None,865.0075887999999,None,865.0075887999999,None,r,0.31195469999988745,865.0075887999999,None,0.31195469999988745,,,110 Aloud,001,2022_Dec_01_0959,ProdSingRedoBetween,2021.2.3,59.907754040325955,
,,,,49,0,49,0,,,,,,,,,,,,,,,,,,,,,,870.3156383,None,,,,,,,,,,,,,,,,,crisis,132,50,aloud,new,null,865.8675988,None,865.8675988,None,6,3.3717779999999493,865.8675988,None,3.3717779999999493,869.2631074000001,None,869.7677795,None,869.7677795,None,f,0.5197508999999627,869.7677795,None,0.5197508999999627,,,110 Aloud,001,2022_Dec_01_0959,ProdSingRedoBetween,2021.2.3,59.907754040325955,
,,,,50,0,50,0,,,,,,,,,,,,,,,,,,,,,,873.2657623,None,,,,,,,,,,,,,,,,,audience,143,51,aloud,new,null,870.8319466,None,870.8319466,None,6,1.5196611999999732,870.8319466,None,1.5196611999999732,872.3912054,None,872.8990311,None,872.8990311,None,r,0.34841929999993226,872.8990311,None,0.34841929999993226,,,110 Aloud,001,2022_Dec_01_0959,ProdSingRedoBetween,2021.2.3,59.907754040325955,
,,,,51,0,51,0,,,,,,,,,,,,,,,,,,,,,,875.6219469999999,None,,,,,,,,,,,,,,,,,position,148,52,aloud,new,null,873.7850111999999,None,873.7850111999999,None,6,0.9825234999998429,873.7850111999999,None,0.9825234999998429,874.7925154,None,875.3133203,None,875.3133203,None,r,0.2782807999999477,875.3133203,None,0.2782807999999477,,,110 Aloud,001,2022_Dec_01_0959,ProdSingRedoBetween,2021.2.3,59.907754040325955,
,,,,52,0,52,0,,,,,,,,,,,,,,,,,,,,,,878.3888383999999,None,,,,,,,,,,,,,,,,,shock,171,53,aloud,new,null,876.1405038999999,None,876.1405038999999,None,6,1.3309873000000607,876.1405038999999,None,1.3309873000000607,877.4903302999999,None,878.0093099000001,None,878.0093099000001,None,f,0.3501901000001908,878.0093099000001,None,0.3501901000001908,,,110 Aloud,001,2022_Dec_01_0959,ProdSingRedoBetween,2021.2.3,59.907754040325955,
,,,,53,0,53,0,,,,,,,,,,,,,,,,,,,,,,880.8732560000001,None,,,,,,,,,,,,,,,,,mayor,4,54,aloud,old,yellow,878.9046286999999,None,878.9046286999999,None,6,1.1029161999999815,878.9046286999999,None,1.1029161999999815,880.0292681000001,None,880.5407832999999,None,880.5407832999999,None,r,0.31470770000009907,880.5407832999999,None,0.31470770000009907,,,110 Aloud,001,2022_Dec_01_0959,ProdSingRedoBetween,2021.2.3,59.907754040325955,
,,,,54,0,54,0,,,,,,,,,,,,,,,,,,,,,,883.1756614999999,None,,,,,,,,,,,,,,,,,running,56,55,aloud,old,blue,881.3844039,None,881.3844039,None,6,0.9350746000000072,881.3844039,None,0.9350746000000072,882.3431294,None,882.8669763,None,882.8669763,None,r,0.2845376000000215,882.8669763,None,0.2845376000000215,,,110 Aloud,001,2022_Dec_01_0959,ProdSingRedoBetween,2021.2.3,59.907754040325955,
,,,,55,0,55,0,,,,,,,,,,,,,,,,,,,,,,885.5621501999999,None,,,,,,,,,,,,,,,,,exchange,129,56,aloud,new,null,883.6804892,None,883.6804892,None,6,1.0149847000000136,883.6804892,None,1.0149847000000136,884.711859,None,885.2215782999999,None,885.2215782999999,None,r,0.3139966999999615,885.2215782999999,None,0.3139966999999615,,,110 Aloud,001,2022_Dec_01_0959,ProdSingRedoBetween,2021.2.3,59.907754040325955,
,,,,56,0,56,0,,,,,,,,,,,,,,,,,,,,,,887.9154515999999,None,,,,,,,,,,,,,,,,,empty,35,57,aloud,old,blue,886.0717004999999,None,886.0717004999999,None,6,0.9599954000000253,886.0717004999999,None,0.9599954000000253,887.0724453,None,887.5814250999999,None,887.5814250999999,None,r,0.3140975999999682,887.5814250999999,None,0.3140975999999682,,,110 Aloud,001,2022_Dec_01_0959,ProdSingRedoBetween,2021.2.3,59.907754040325955,
,,,,57,0,57,0,,,,,,,,,,,,,,,,,,,,,,890.2512558000001,None,,,,,,,,,,,,,,,,,region,167,58,aloud,new,null,888.435322,None,888.435322,None,6,0.9402196000000913,888.435322,None,0.9402196000000913,889.4020681,None,889.9227933,None,889.9227933,None,f,0.3086921000001439,889.9227933,None,0.3086921000001439,,,110 Aloud,001,2022_Dec_01_0959,ProdSingRedoBetween,2021.2.3,59.907754040325955,
,,,,58,0,58,0,,,,,,,,,,,,,,,,,,,,,,892.5590857,None,,,,,,,,,,,,,,,,,season,32,59,aloud,old,blue,890.7688226,None,890.7688226,None,6,0.9586646000000201,890.7688226,None,0.9586646000000201,891.7541097000001,None,892.2720586999999,None,892.2720586999999,None,r,0.2556055000000015,892.2720586999999,None,0.2556055000000015,,,110 Aloud,001,2022_Dec_01_0959,ProdSingRedoBetween,2021.2.3,59.907754040325955,
,,,,59,0,59,0,,,,,,,,,,,,,,,,,,,,,,894.8713673,None,,,,,,,,,,,,,,,,,medicine,70,60,aloud,old,red,893.0798070000001,None,893.0798070000001,None,6,0.9117928000000575,893.0798070000001,None,0.9117928000000575,894.0306662,None,894.5418812,None,894.5418812,None,r,0.3056748999999854,894.5418812,None,0.3056748999999854,,,110 Aloud,001,2022_Dec_01_0959,ProdSingRedoBetween,2021.2.3,59.907754040325955,
,,,,60,0,60,0,,,,,,,,,,,,,,,,,,,,,,897.0909853,None,,,,,,,,,,,,,,,,,captain,73,61,aloud,old,red,895.3770030000001,None,895.3770030000001,None,6,0.8625409000001127,895.3770030000001,None,0.8625409000001127,896.2634954,None,896.7725585999999,None,896.7725585999999,None,r,0.29092130000003635,896.7725585999999,None,0.29092130000003635,,,110 Aloud,001,2022_Dec_01_0959,ProdSingRedoBetween,2021.2.3,59.907754040325955,
,,,,61,0,61,0,,,,,,,,,,,,,,,,,,,,,,899.6921743999999,None,,,,,,,,,,,,,,,,,volume,113,62,aloud,new,null,897.6128842,None,897.6128842,None,6,1.0987502000000404,897.6128842,None,1.0987502000000404,898.7489966,None,899.2583858999999,None,899.2583858999999,None,r,0.4129915999999412,899.2583858999999,None,0.4129915999999412,,,110 Aloud,001,2022_Dec_01_0959,ProdSingRedoBetween,2021.2.3,59.907754040325955,
,,,,62,0,62,0,,,,,,,,,,,,,,,,,,,,,,902.1026691,None,,,,,,,,,,,,,,,,,beauty,169,63,aloud,new,null,900.2048488,None,900.2048488,None,6,0.9385917000001882,900.2048488,None,0.9385917000001882,901.1603611,None,901.6662408,None,901.6662408,None,f,0.40532100000018545,901.6662408,None,0.40532100000018545,,,110 Aloud,001,2022_Dec_01_0959,ProdSingRedoBetween,2021.2.3,59.907754040325955,
,,,,63,0,63,0,,,,,,,,,,,,,,,,,,,,,,904.3967473,None,,,,,,,,,,,,,,,,,addition,31,64,aloud,old,blue,902.6151124,None,902.6151124,None,6,0.9363127999999961,902.6151124,None,0.9363127999999961,903.5802822999999,None,904.0799646,None,904.0799646,None,r,0.2956185999998979,904.0799646,None,0.2956185999998979,,,110 Aloud,001,2022_Dec_01_0959,ProdSingRedoBetween,2021.2.3,59.907754040325955,
,,,,64,0,64,0,,,,,,,,,,,,,,,,,,,,,,906.6990172000001,None,,,,,,,,,,,,,,,,,ground,134,65,aloud,new,null,904.9126294,None,904.9126294,None,6,0.9590089999999236,904.9126294,None,0.9590089999999236,905.9077296999999,None,906.4209897999999,None,906.4209897999999,None,f,0.2585849000001872,906.4209897999999,None,0.2585849000001872,,,110 Aloud,001,2022_Dec_01_0959,ProdSingRedoBetween,2021.2.3,59.907754040325955,
,,,,65,0,65,0,,,,,,,,,,,,,,,,,,,,,,908.9346183999999,None,,,,,,,,,,,,,,,,,dispute,46,66,aloud,old,blue,907.2066011,None,907.2066011,None,6,0.8729035000001204,907.2066011,None,0.8729035000001204,908.1018672999999,None,908.6049482999999,None,908.6049482999999,None,r,0.29855910000014774,908.6049482999999,None,0.29855910000014774,,,110 Aloud,001,2022_Dec_01_0959,ProdSingRedoBetween,2021.2.3,59.907754040325955,
,,,,66,0,66,0,,,,,,,,,,,,,,,,,,,,,,911.1879253,None,,,,,,,,,,,,,,,,,error,17,67,aloud,old,yellow,909.4440972,None,909.4440972,None,6,0.8673816999998962,909.4440972,None,0.8673816999998962,910.3371078999999,None,910.8425439,None,910.8425439,None,r,0.3249888000000283,910.8425439,None,0.3249888000000283,,,110 Aloud,001,2022_Dec_01_0959,ProdSingRedoBetween,2021.2.3,59.907754040325955,
,,,,67,0,67,0,,,,,,,,,,,,,,,,,,,,,,913.3570732999999,None,,,,,,,,,,,,,,,,,shear,28,68,aloud,old,yellow,911.7083216999999,None,911.7083216999999,None,6,0.8353517999998985,911.7083216999999,None,0.8353517999998985,912.5794613999999,None,913.0889127,None,913.0889127,None,r,0.24669590000007702,913.0889127,None,0.24669590000007702,,,110 Aloud,001,2022_Dec_01_0959,ProdSingRedoBetween,2021.2.3,59.907754040325955,
,,,,68,0,68,0,,,,,,,,,,,,,,,,,,,,,,915.5575830999999,None,,,,,,,,,,,,,,,,,under,61,69,aloud,old,red,913.8659789000001,None,913.8659789000001,None,6,0.8454326000000947,913.8659789000001,None,0.8454326000000947,914.7419127000001,None,915.2573431999999,None,915.2573431999999,None,f,0.27808140000001913,915.2573431999999,None,0.27808140000001913,,,110 Aloud,001,2022_Dec_01_0959,ProdSingRedoBetween,2021.2.3,59.907754040325955,
,,,,69,0,69,0,,,,,,,,,,,,,,,,,,,,,,917.9098887,None,,,,,,,,,,,,,,,,,orchestra,115,70,aloud,new,null,916.0584527999999,None,916.0584527999999,None,6,0.9329912000000604,916.0584527999999,None,0.9329912000000604,917.0132384999999,None,917.5264431,None,917.5264431,None,f,0.3529187000001457,917.5264431,None,0.3529187000001457,,,110 Aloud,001,2022_Dec_01_0959,ProdSingRedoBetween,2021.2.3,59.907754040325955,
,,,,70,0,70,0,,,,,,,,,,,,,,,,,,,,,,920.2289530999999,None,,,,,,,,,,,,,,,,,institute,8,71,aloud,old,yellow,918.4109765999999,None,918.4109765999999,None,6,0.9964912000000368,918.4109765999999,None,0.9964912000000368,919.4281126999999,None,919.9288313,None,919.9288313,None,r,0.27863860000002205,919.9288313,None,0.27863860000002205,,,110 Aloud,001,2022_Dec_01_0959,ProdSingRedoBetween,2021.2.3,59.907754040325955,
,,,,71,0,71,0,,,,,,,,,,,,,,,,,,,,,,922.3980627999999,None,,,,,,,,,,,,,,,,,master,120,72,aloud,new,null,920.7296024,None,920.7296024,None,6,0.8537410000001273,920.7296024,None,0.8537410000001273,921.6200208999999,None,922.1311625999999,None,922.1311625999999,None,r,0.2522234999999,922.1311625999999,None,0.2522234999999,,,110 Aloud,001,2022_Dec_01_0959,ProdSingRedoBetween,2021.2.3,59.907754040325955,
,,,,72,0,72,0,,,,,,,,,,,,,,,,,,,,,,924.6184071,None,,,,,,,,,,,,,,,,,rough,122,73,aloud,new,null,922.9052950999999,None,922.9052950999999,None,6,0.8460886000000301,922.9052950999999,None,0.8460886000000301,923.7715042,None,924.2832633999999,None,924.2832633999999,None,f,0.3081300999999712,924.2832633999999,None,0.3081300999999712,,,110 Aloud,001,2022_Dec_01_0959,ProdSingRedoBetween,2021.2.3,59.907754040325955,
,,,,73,0,73,0,,,,,,,,,,,,,,,,,,,,,,926.8523685,None,,,,,,,,,,,,,,,,,color,117,74,aloud,new,null,925.1342107999999,None,925.1342107999999,None,6,0.8653207999998358,925.1342107999999,None,0.8653207999998358,926.024834,None,926.5352843999999,None,926.5352843999999,None,r,0.2881230999998934,926.5352843999999,None,0.2881230999998934,,,110 Aloud,001,2022_Dec_01_0959,ProdSingRedoBetween,2021.2.3,59.907754040325955,
,,,,74,0,74,0,,,,,,,,,,,,,,,,,,,,,,929.128385,None,,,,,,,,,,,,,,,,,death,0,75,aloud,old,yellow,927.354398,None,927.354398,None,6,0.9730286999999862,927.354398,None,0.9730286999999862,928.3565283999999,None,928.8712393999999,None,928.8712393999999,None,r,0.23247840000021824,928.8712393999999,None,0.23247840000021824,,,110 Aloud,001,2022_Dec_01_0959,ProdSingRedoBetween,2021.2.3,59.907754040325955,
,,,,75,0,75,0,,,,,,,,,,,,,,,,,,,,,,931.3909676999999,None,,,,,,,,,,,,,,,,,broke,166,76,aloud,new,null,929.6497182,None,929.6497182,None,6,0.9097651000001861,929.6497182,None,0.9097651000001861,930.5922814,None,931.1112410999999,None,931.1112410999999,None,f,0.24849140000014813,931.1112410999999,None,0.24849140000014813,,,110 Aloud,001,2022_Dec_01_0959,ProdSingRedoBetween,2021.2.3,59.907754040325955,
,,,,76,0,76,0,,,,,,,,,,,,,,,,,,,,,,933.6258911,None,,,,,,,,,,,,,,,,,instrument,14,77,aloud,old,yellow,931.9024665,None,931.9024665,None,6,0.9050134999999955,931.9024665,None,0.9050134999999955,932.8276493999999,None,933.3456389,None,933.3456389,None,r,0.26189290000002075,933.3456389,None,0.26189290000002075,,,110 Aloud,001,2022_Dec_01_0959,ProdSingRedoBetween,2021.2.3,59.907754040325955,
,,,,77,0,77,0,,,,,,,,,,,,,,,,,,,,,,935.8947946999999,None,,,,,,,,,,,,,,,,,salary,125,78,aloud,new,null,934.1406984,None,934.1406984,None,6,0.8748193000001265,934.1406984,None,0.8748193000001265,935.0471170000001,None,935.5668992999999,None,935.5668992999999,None,r,0.30465349999985847,935.5668992999999,None,0.30465349999985847,,,110 Aloud,001,2022_Dec_01_0959,ProdSingRedoBetween,2021.2.3,59.907754040325955,
,,,,78,0,78,0,,,,,,,,,,,,,,,,,,,,,,938.1304031,None,,,,,,,,,,,,,,,,,youth,156,79,aloud,new,null,936.4090039999999,None,936.4090039999999,None,6,0.8865748000000622,936.4090039999999,None,0.8865748000000622,937.3141843999999,None,937.8205472,None,937.8205472,None,f,0.28294660000005933,937.8205472,None,0.28294660000005933,,,110 Aloud,001,2022_Dec_01_0959,ProdSingRedoBetween,2021.2.3,59.907754040325955,
,,,,79,0,79,0,,,,,,,,,,,,,,,,,,,,,,940.5158549999999,None,,,,,,,,,,,,,,,,,express,149,80,aloud,new,null,938.634229,None,938.634229,None,6,0.9654312999998638,938.634229,None,0.9654312999998638,939.6273564999999,None,940.1400521,None,940.1400521,None,f,0.355437400000028,940.1400521,None,0.355437400000028,,,110 Aloud,001,2022_Dec_01_0959,ProdSingRedoBetween,2021.2.3,59.907754040325955,
,,,,80,0,80,0,,,,,,,,,,,,,,,,,,,,,,942.7031499,None,,,,,,,,,,,,,,,,,narrow,79,81,aloud,old,red,941.0300296,None,941.0300296,None,6,0.8815322000000378,941.0300296,None,0.8815322000000378,941.9383779,None,942.4561380999999,None,942.4561380999999,None,r,0.2234425999999985,942.4561380999999,None,0.2234425999999985,,,110 Aloud,001,2022_Dec_01_0959,ProdSingRedoBetween,2021.2.3,59.907754040325955,
,,,,81,0,81,0,,,,,,,,,,,,,,,,,,,,,,945.6210666,None,,,,,,,,,,,,,,,,,relation,93,82,aloud,new,null,943.2152494,None,943.2152494,None,6,1.160294199999953,943.2152494,None,1.160294199999953,944.4040365999999,None,944.9037301000001,None,944.9037301000001,None,r,0.6957093000000896,944.9037301000001,None,0.6957093000000896,,,110 Aloud,001,2022_Dec_01_0959,ProdSingRedoBetween,2021.2.3,59.907754040325955,
,,,,82,0,82,0,,,,,,,,,,,,,,,,,,,,,,947.8232078999999,None,,,,,,,,,,,,,,,,,still,76,83,aloud,old,red,946.1216382999999,None,946.1216382999999,None,6,0.9497893999998723,946.1216382999999,None,0.9497893999998723,947.0893177,None,947.5900909,None,947.5900909,None,r,0.217330899999979,947.5900909,None,0.217330899999979,,,110 Aloud,001,2022_Dec_01_0959,ProdSingRedoBetween,2021.2.3,59.907754040325955,
,,,,83,0,83,0,,,,,,,,,,,,,,,,,,,,,,949.9452124,None,,,,,,,,,,,,,,,,,blind,47,84,aloud,old,blue,948.3238670999999,None,948.3238670999999,None,6,0.8116512999999941,948.3238670999999,None,0.8116512999999941,949.1579231000001,None,949.6609378,None,949.6609378,None,f,0.25861170000007405,949.6609378,None,0.25861170000007405,,,110 Aloud,001,2022_Dec_01_0959,ProdSingRedoBetween,2021.2.3,59.907754040325955,
,,,,84,0,84,0,,,,,,,,,,,,,,,,,,,,,,952.2979943999999,None,,,,,,,,,,,,,,,,,produce,155,85,aloud,new,null,950.4619381,None,950.4619381,None,6,0.9536547000000155,950.4619381,None,0.9536547000000155,951.4518327000001,None,951.9615269000001,None,951.9615269000001,None,f,0.31823020000001634,951.9615269000001,None,0.31823020000001634,,,110 Aloud,001,2022_Dec_01_0959,ProdSingRedoBetween,2021.2.3,59.907754040325955,
,,,,85,0,85,0,,,,,,,,,,,,,,,,,,,,,,954.3799985,None,,,,,,,,,,,,,,,,,group,24,86,aloud,old,yellow,952.831087,None,952.831087,None,6,0.8005243000000064,952.831087,None,0.8005243000000064,953.6714073,None,954.1815591,None,954.1815591,None,r,0.1779988000000685,954.1815591,None,0.1779988000000685,,,110 Aloud,001,2022_Dec_01_0959,ProdSingRedoBetween,2021.2.3,59.907754040325955,
,,,,86,0,86,0,,,,,,,,,,,,,,,,,,,,,,956.7323824,None,,,,,,,,,,,,,,,,,judge,162,87,aloud,new,null,954.8910738,None,954.8910738,None,6,0.860336899999993,954.8910738,None,0.860336899999993,955.7832943999999,None,956.2990484,None,956.2990484,None,r,0.4125042000000576,956.2990484,None,0.4125042000000576,,,110 Aloud,001,2022_Dec_01_0959,ProdSingRedoBetween,2021.2.3,59.907754040325955,
,,,,87,0,87,0,,,,,,,,,,,,,,,,,,,,,,958.884397,None,,,,,,,,,,,,,,,,,waste,92,88,aloud,new,null,957.2413658999999,None,957.2413658999999,None,6,0.8461509000001115,957.2413658999999,None,0.8461509000001115,958.1200558,None,958.6368067999999,None,958.6368067999999,None,f,0.2266973999999209,958.6368067999999,None,0.2266973999999209,,,110 Aloud,001,2022_Dec_01_0959,ProdSingRedoBetween,2021.2.3,59.907754040325955,
,,,,88,0,88,0,,,,,,,,,,,,,,,,,,,,,,961.1701983,None,,,,,,,,,,,,,,,,,citizen,107,89,aloud,new,null,959.3977863999999,None,959.3977863999999,None,6,0.913718900000049,959.3977863999999,None,0.913718900000049,960.3382713999999,None,960.8532436999999,None,960.8532436999999,None,f,0.2903042999998888,960.8532436999999,None,0.2903042999998888,,,110 Aloud,001,2022_Dec_01_0959,ProdSingRedoBetween,2021.2.3,59.907754040325955,
,,,,89,0,89,0,,,,,,,,,,,,,,,,,,,,,,963.2389023999999,None,,,,,,,,,,,,,,,,,trail,72,90,aloud,old,red,961.6846951,None,961.6846951,None,6,0.7948774000001322,961.6846951,None,0.7948774000001322,962.5111448,None,963.0239005000001,None,963.0239005000001,None,r,0.19970710000006875,963.0239005000001,None,0.19970710000006875,,,110 Aloud,001,2022_Dec_01_0959,ProdSingRedoBetween,2021.2.3,59.907754040325955,
,,,,90,0,90,0,,,,,,,,,,,,,,,,,,,,,,965.2243025,None,,,,,,,,,,,,,,,,,period,5,91,aloud,old,yellow,963.7516082,None,963.7516082,None,6,0.7360049999999774,963.7516082,None,0.7360049999999774,964.5143581,None,965.025034,None,965.025034,None,r,0.18254449999994904,965.025034,None,0.18254449999994904,,,110 Aloud,001,2022_Dec_01_0959,ProdSingRedoBetween,2021.2.3,59.907754040325955,
,,,,91,0,91,0,,,,,,,,,,,,,,,,,,,,,,967.5317293999999,None,,,,,,,,,,,,,,,,,substance,11,92,aloud,old,yellow,965.7349125000001,None,965.7349125000001,None,6,0.9126254000000245,965.7349125000001,None,0.9126254000000245,966.6770243999999,None,967.1833414,None,967.1833414,None,r,0.3283611000001656,967.1833414,None,0.3283611000001656,,,110 Aloud,001,2022_Dec_01_0959,ProdSingRedoBetween,2021.2.3,59.907754040325955,
,,,,92,0,92,0,,,,,,,,,,,,,,,,,,,,,,969.7286503,None,,,,,,,,,,,,,,,,,birth,98,93,aloud,new,null,968.0515229,None,968.0515229,None,6,0.924070299999812,968.0515229,None,0.924070299999812,968.9991634999999,None,969.5139050999999,None,969.5139050999999,None,f,0.19759529999987535,969.5139050999999,None,0.19759529999987535,,,110 Aloud,001,2022_Dec_01_0959,ProdSingRedoBetween,2021.2.3,59.907754040325955,
,,,,93,0,93,0,,,,,,,,,,,,,,,,,,,,,,971.8474561,None,,,,,,,,,,,,,,,,,sound,41,94,aloud,old,blue,970.2442635,None,970.2442635,None,6,0.9233017000001382,970.2442635,None,0.9233017000001382,971.1980960999999,None,971.7036974999999,None,971.7036974999999,None,r,0.12784119999992072,971.7036974999999,None,0.12784119999992072,,,110 Aloud,001,2022_Dec_01_0959,ProdSingRedoBetween,2021.2.3,59.907754040325955,
,,,,94,0,94,0,,,,,,,,,,,,,,,,,,,,,,974.0664995,None,,,,,,,,,,,,,,,,,revolution,110,95,aloud,new,null,972.3648779999999,None,972.3648779999999,None,6,0.9066648000000441,972.3648779999999,None,0.9066648000000441,973.3034336999999,None,973.8294725000001,None,973.8294725000001,None,f,0.21813769999994292,973.8294725000001,None,0.21813769999994292,,,110 Aloud,001,2022_Dec_01_0959,ProdSingRedoBetween,2021.2.3,59.907754040325955,
,,,,95,0,95,0,,,,,,,,,,,,,,,,,,,,,,976.4214175,None,,,,,,,,,,,,,,,,,provision,16,96,aloud,old,yellow,974.57312,None,974.57312,None,6,1.0184802999999647,974.57312,None,1.0184802999999647,975.6232353999999,None,976.1398018,None,976.1398018,None,f,0.26003000000014254,976.1398018,None,0.26003000000014254,,,110 Aloud,001,2022_Dec_01_0959,ProdSingRedoBetween,2021.2.3,59.907754040325955,
,,,,96,0,96,0,,,,,,,,,,,,,,,,,,,,,,978.7726046999999,None,,,,,,,,,,,,,,,,,trash,152,97,aloud,new,null,976.9392808,None,976.9392808,None,6,0.9242715000000317,976.9392808,None,0.9242715000000317,977.8896388999999,None,978.411764,None,978.411764,None,r,0.3398791000001893,978.411764,None,0.3398791000001893,,,110 Aloud,001,2022_Dec_01_0959,ProdSingRedoBetween,2021.2.3,59.907754040325955,
,,,,97,0,97,0,,,,,,,,,,,,,,,,,,,,,,981.7262671999999,None,,,,,,,,,,,,,,,,,capital,86,98,aloud,old,red,979.2897949000001,None,979.2897949000001,None,6,1.509769199999937,979.2897949000001,None,1.509769199999937,980.8305949,None,981.3448389,None,981.3448389,None,r,0.3588395000001583,981.3448389,None,0.3588395000001583,,,110 Aloud,001,2022_Dec_01_0959,ProdSingRedoBetween,2021.2.3,59.907754040325955,
,,,,98,0,98,0,,,,,,,,,,,,,,,,,,,,,,984.0949123,None,,,,,,,,,,,,,,,,,subject,39,99,aloud,old,blue,982.2584821,None,982.2584821,None,6,0.9490591999999651,982.2584821,None,0.9490591999999651,983.2368033,None,983.747998,None,983.747998,None,r,0.3235322000000451,983.747998,None,0.3235322000000451,,,110 Aloud,001,2022_Dec_01_0959,ProdSingRedoBetween,2021.2.3,59.907754040325955,
,,,,99,0,99,0,,,,,,,,,,,,,,,,,,,,,,986.2784809,None,,,,,,,,,,,,,,,,,afternoon,19,100,aloud,old,yellow,984.6239595,None,984.6239595,None,6,0.8795652000001155,984.6239595,None,0.8795652000001155,985.5293197999999,None,986.0343662999999,None,986.0343662999999,None,r,0.2291711000000305,986.0343662999999,None,0.2291711000000305,,,110 Aloud,001,2022_Dec_01_0959,ProdSingRedoBetween,2021.2.3,59.907754040325955,
,,,,100,0,100,0,,,,,,,,,,,,,,,,,,,,,,988.547538,None,,,,,,,,,,,,,,,,,voice,49,101,aloud,old,blue,986.7956743,None,986.7956743,None,6,0.9240279999999075,986.7956743,None,0.9240279999999075,987.7501777,None,988.2710368999999,None,988.2710368999999,None,r,0.2484661999999389,988.2710368999999,None,0.2484661999999389,,,110 Aloud,001,2022_Dec_01_0959,ProdSingRedoBetween,2021.2.3,59.907754040325955,
,,,,101,0,101,0,,,,,,,,,,,,,,,,,,,,,,990.8878774,None,,,,,,,,,,,,,,,,,write,45,102,aloud,old,blue,989.0488338999999,None,989.0488338999999,None,6,0.9585865999999896,989.0488338999999,None,0.9585865999999896,990.0405126,None,990.5551184000001,None,990.5551184000001,None,r,0.3006090999999742,990.5551184000001,None,0.3006090999999742,,,110 Aloud,001,2022_Dec_01_0959,ProdSingRedoBetween,2021.2.3,59.907754040325955,
,,,,102,0,102,0,,,,,,,,,,,,,,,,,,,,,,993.8695981000001,None,,,,,,,,,,,,,,,,,production,91,103,aloud,new,null,991.4056722,None,991.4056722,None,6,1.5619787000000542,991.4056722,None,1.5619787000000542,992.9967718999999,None,993.5056632999999,None,993.5056632999999,None,r,0.34187199999996665,993.5056632999999,None,0.34187199999996665,,,110 Aloud,001,2022_Dec_01_0959,ProdSingRedoBetween,2021.2.3,59.907754040325955,
,,,,103,0,103,0,,,,,,,,,,,,,,,,,,,,,,995.988225,None,,,,,,,,,,,,,,,,,block,30,104,aloud,old,blue,994.3784407999999,None,994.3784407999999,None,6,0.8771646999998666,994.3784407999999,None,0.8771646999998666,995.287307,None,995.7930076999999,None,995.7930076999999,None,f,0.17453850000015336,995.7930076999999,None,0.17453850000015336,,,110 Aloud,001,2022_Dec_01_0959,ProdSingRedoBetween,2021.2.3,59.907754040325955,
,,,,104,0,104,0,,,,,,,,,,,,,,,,,,,,,,998.3087604,None,,,,,,,,,,,,,,,,,hearing,63,105,aloud,old,red,996.4964579,None,996.4964579,None,6,0.9671280000000024,996.4964579,None,0.9671280000000024,997.4896056,None,997.9927508000001,None,997.9927508000001,None,f,0.29489300000000185,997.9927508000001,None,0.29489300000000185,,,110 Aloud,001,2022_Dec_01_0959,ProdSingRedoBetween,2021.2.3,59.907754040325955,
,,,,105,0,105,0,,,,,,,,,,,,,,,,,,,,,,1001.1434592,None,,,,,,,,,,,,,,,,,listen,29,106,aloud,old,blue,998.8290981999999,None,998.8290981999999,None,6,1.4745242999999846,998.8290981999999,None,1.4745242999999846,1000.3364733999999,None,1000.8499139,None,1000.8499139,None,r,0.26973769999995056,1000.8499139,None,0.26973769999995056,,,110 Aloud,001,2022_Dec_01_0959,ProdSingRedoBetween,2021.2.3,59.907754040325955,
,,,,106,0,106,0,,,,,,,,,,,,,,,,,,,,,,1003.4456766999999,None,,,,,,,,,,,,,,,,,union,140,107,aloud,new,null,1001.6456476999999,None,1001.6456476999999,None,6,0.9059104000000389,1001.6456476999999,None,0.9059104000000389,1002.5832654000001,None,1003.1065851000001,None,1003.1065851000001,None,f,0.31693399999994654,1003.1065851000001,None,0.31693399999994654,,,110 Aloud,001,2022_Dec_01_0959,ProdSingRedoBetween,2021.2.3,59.907754040325955,
,,,,107,0,107,0,,,,,,,,,,,,,,,,,,,,,,1005.9148250999999,None,,,,,,,,,,,,,,,,,piece,84,108,aloud,old,red,1003.9537161999999,None,1003.9537161999999,None,6,1.0459330999999565,1003.9537161999999,None,1.0459330999999565,1005.0319285999999,None,1005.5313271,None,1005.5313271,None,r,0.36421679999989465,1005.5313271,None,0.36421679999989465,,,110 Aloud,001,2022_Dec_01_0959,ProdSingRedoBetween,2021.2.3,59.907754040325955,
,,,,108,0,108,0,,,,,,,,,,,,,,,,,,,,,,1008.2020347999999,None,,,,,,,,,,,,,,,,,material,123,109,aloud,new,null,1006.4243432999999,None,1006.4243432999999,None,6,0.8312203000000409,1006.4243432999999,None,0.8312203000000409,1007.28721,None,1007.8001709,None,1007.8001709,None,r,0.37536819999991167,1007.8001709,None,0.37536819999991167,,,110 Aloud,001,2022_Dec_01_0959,ProdSingRedoBetween,2021.2.3,59.907754040325955,
,,,,109,0,109,0,,,,,,,,,,,,,,,,,,,,,,1010.5536116999999,None,,,,,,,,,,,,,,,,,match,21,110,aloud,old,yellow,1008.7193462999999,None,1008.7193462999999,None,6,1.0321728999999777,1008.7193462999999,None,1.0321728999999777,1009.7709711,None,1010.2860191,None,1010.2860191,None,r,0.2415523999998186,1010.2860191,None,0.2415523999998186,,,110 Aloud,001,2022_Dec_01_0959,ProdSingRedoBetween,2021.2.3,59.907754040325955,
,,,,110,0,110,0,,,,,,,,,,,,,,,,,,,,,,1012.7217413000001,None,,,,,,,,,,,,,,,,,payment,160,111,aloud,new,null,1011.0576108999999,None,1011.0576108999999,None,6,0.9099449000000277,1011.0576108999999,None,0.9099449000000277,1011.9887707,None,1012.4962539,None,1012.4962539,None,f,0.19921659999999974,1012.4962539,None,0.19921659999999974,,,110 Aloud,001,2022_Dec_01_0959,ProdSingRedoBetween,2021.2.3,59.907754040325955,
,,,,111,0,111,0,,,,,,,,,,,,,,,,,,,,,,1014.9450038,None,,,,,,,,,,,,,,,,,owner,48,112,aloud,old,blue,1013.2342094,None,1013.2342094,None,6,0.8933354000000691,1013.2342094,None,0.8933354000000691,1014.1595307,None,1014.6772374,None,1014.6772374,None,f,0.23451679999993758,1014.6772374,None,0.23451679999993758,,,110 Aloud,001,2022_Dec_01_0959,ProdSingRedoBetween,2021.2.3,59.907754040325955,
,,,,112,0,112,0,,,,,,,,,,,,,,,,,,,,,,1017.3096137,None,,,,,,,,,,,,,,,,,spoke,105,113,aloud,new,null,1015.4649734,None,1015.4649734,None,6,1.054674999999861,1015.4649734,None,1.054674999999861,1016.5533736,None,1017.0645015,None,1017.0645015,None,r,0.22303469999997105,1017.0645015,None,0.22303469999997105,,,110 Aloud,001,2022_Dec_01_0959,ProdSingRedoBetween,2021.2.3,59.907754040325955,
,,,,113,0,113,0,,,,,,,,,,,,,,,,,,,,,,1019.511827,None,,,,,,,,,,,,,,,,,background,146,114,aloud,new,null,1017.8215118,None,1017.8215118,None,6,0.8340329000000111,1017.8215118,None,0.8340329000000111,1018.6789977999999,None,1019.1781153,None,1019.1781153,None,f,0.30943219999994653,1019.1781153,None,0.30943219999994653,,,110 Aloud,001,2022_Dec_01_0959,ProdSingRedoBetween,2021.2.3,59.907754040325955,
,,,,114,0,114,0,,,,,,,,,,,,,,,,,,,,,,1021.6306212,None,,,,,,,,,,,,,,,,,tragedy,58,115,aloud,old,blue,1020.0255348000001,None,1020.0255348000001,None,6,0.8460055000000466,1020.0255348000001,None,0.8460055000000466,1020.8978282999999,None,1021.4013637,None,1021.4013637,None,r,0.1981518000000051,1021.4013637,None,0.1981518000000051,,,110 Aloud,001,2022_Dec_01_0959,ProdSingRedoBetween,2021.2.3,59.907754040325955,
,,,,115,0,115,0,,,,,,,,,,,,,,,,,,,,,,1023.7828052,None,,,,,,,,,,,,,,,,,pressure,118,116,aloud,new,null,1022.1421267000001,None,1022.1421267000001,None,6,0.8574528999999984,1022.1421267000001,None,0.8574528999999984,1023.0221133,None,1023.5368679999999,None,1023.5368679999999,None,f,0.23064009999984592,1023.5368679999999,None,0.23064009999984592,,,110 Aloud,001,2022_Dec_01_0959,ProdSingRedoBetween,2021.2.3,59.907754040325955,
,,,,116,0,116,0,,,,,,,,,,,,,,,,,,,,,,1026.0068051,None,,,,,,,,,,,,,,,,,junior,43,117,aloud,old,blue,1024.2832953,None,1024.2832953,None,6,0.8762576999999965,1024.2832953,None,0.8762576999999965,1025.1872632,None,1025.7073378,None,1025.7073378,None,r,0.2683054000001448,1025.7073378,None,0.2683054000001448,,,110 Aloud,001,2022_Dec_01_0959,ProdSingRedoBetween,2021.2.3,59.907754040325955,
,,,,117,0,117,0,,,,,,,,,,,,,,,,,,,,,,1028.1741041999999,None,,,,,,,,,,,,,,,,,sunset,177,118,aloud,new,null,1026.5240162,None,1026.5240162,None,6,0.8196367000000464,1026.5240162,None,0.8196367000000464,1027.3810905,None,1027.8918985999999,None,1027.8918985999999,None,f,0.2518142000001262,1027.8918985999999,None,0.2518142000001262,,,110 Aloud,001,2022_Dec_01_0959,ProdSingRedoBetween,2021.2.3,59.907754040325955,
,,,,118,0,118,0,,,,,,,,,,,,,,,,,,,,,,1030.2917875,None,,,,,,,,,,,,,,,,,series,52,119,aloud,old,blue,1028.7028754,None,1028.7028754,None,6,0.8407534000000396,1028.7028754,None,0.8407534000000396,1029.5789394,None,1030.0891401,None,1030.0891401,None,r,0.18246719999979177,1030.0891401,None,0.18246719999979177,,,110 Aloud,001,2022_Dec_01_0959,ProdSingRedoBetween,2021.2.3,59.907754040325955,
,,,,119,0,119,0,,,,,,,,,,,,,,,,,,,,,,1032.3746621,None,,,,,,,,,,,,,,,,,court,101,120,aloud,new,null,1030.8112396,None,1030.8112396,None,6,0.8282457999998769,1030.8112396,None,0.8282457999998769,1031.6590526,None,1032.1791635,None,1032.1791635,None,f,0.1724770000000717,1032.1791635,None,0.1724770000000717,,,110 Aloud,001,2022_Dec_01_0959,ProdSingRedoBetween,2021.2.3,59.907754040325955,
,,,,120,0,120,0,,,,,,,,,,,,,,,,,,,,,,1034.3963456,None,,,,,,,,,,,,,,,,,tough,38,121,aloud,old,blue,1032.8784842,None,1032.8784842,None,6,0.7851433999999244,1032.8784842,None,0.7851433999999244,1033.695618,None,1034.2201548,None,1034.2201548,None,r,0.15538709999987077,1034.2201548,None,0.15538709999987077,,,110 Aloud,001,2022_Dec_01_0959,ProdSingRedoBetween,2021.2.3,59.907754040325955,
,,,,121,0,121,0,,,,,,,,,,,,,,,,,,,,,,1036.3953129,None,,,,,,,,,,,,,,,,,force,174,122,aloud,new,null,1034.922525,None,1034.922525,None,6,0.7250285000000076,1034.922525,None,0.7250285000000076,1035.6799271,None,1036.1987883,None,1036.1987883,None,f,0.16873439999994844,1036.1987883,None,0.16873439999994844,,,110 Aloud,001,2022_Dec_01_0959,ProdSingRedoBetween,2021.2.3,59.907754040325955,
,,,,122,0,122,0,,,,,,,,,,,,,,,,,,,,,,1038.1837639999999,None,,,,,,,,,,,,,,,,,skill,2,123,aloud,old,yellow,1036.9077316,None,1036.9077316,None,6,0.6118179000000055,1036.9077316,None,0.6118179000000055,1037.5529354999999,None,1038.0679084,None,1038.0679084,None,r,0.08386110000014924,1038.0679084,None,0.08386110000014924,,,110 Aloud,001,2022_Dec_01_0959,ProdSingRedoBetween,2021.2.3,59.907754040325955,
,,,,123,0,123,0,,,,,,,,,,,,,,,,,,,,,,1040.0990832,None,,,,,,,,,,,,,,,,,cross,154,124,aloud,new,null,1038.7061062999999,None,1038.7061062999999,None,6,0.6536171000000195,1038.7061062999999,None,0.6536171000000195,1039.3891051,None,1039.9013711999999,None,1039.9013711999999,None,f,0.17011809999985417,1039.9013711999999,None,0.17011809999985417,,,110 Aloud,001,2022_Dec_01_0959,ProdSingRedoBetween,2021.2.3,59.907754040325955,
,,,,124,0,124,0,,,,,,,,,,,,,,,,,,,,,,1041.9675227999999,None,,,,,,,,,,,,,,,,,clean,37,125,aloud,old,blue,1040.6101621,None,1040.6101621,None,6,0.6534046999997827,1040.6101621,None,0.6534046999997827,1041.2832644999999,None,1041.7867848,None,1041.7867848,None,r,0.16475480000008247,1041.7867848,None,0.16475480000008247,,,110 Aloud,001,2022_Dec_01_0959,ProdSingRedoBetween,2021.2.3,59.907754040325955,
,,,,125,0,125,0,,,,,,,,,,,,,,,,,,,,,,1043.8694972,None,,,,,,,,,,,,,,,,,frank,108,126,aloud,new,null,1042.4821689,None,1042.4821689,None,6,0.6775950000001103,1042.4821689,None,0.6775950000001103,1043.1970432,None,1043.7066866999999,None,1043.7066866999999,None,f,0.13286970000012843,1043.7066866999999,None,0.13286970000012843,,,110 Aloud,001,2022_Dec_01_0959,ProdSingRedoBetween,2021.2.3,59.907754040325955,
,,,,126,0,126,0,,,,,,,,,,,,,,,,,,,,,,1045.9382408,None,,,,,,,,,,,,,,,,,count,12,127,aloud,old,yellow,1044.3786065,None,1044.3786065,None,6,0.8612009999999373,1044.3786065,None,0.8612009999999373,1045.2794489999999,None,1045.7902323,None,1045.7902323,None,r,0.12144870000020092,1045.7902323,None,0.12144870000020092,,,110 Aloud,001,2022_Dec_01_0959,ProdSingRedoBetween,2021.2.3,59.907754040325955,
,,,,127,0,127,0,,,,,,,,,,,,,,,,,,,,,,1047.8104263999999,None,,,,,,,,,,,,,,,,,article,158,128,aloud,new,null,1046.4405219,None,1046.4405219,None,6,0.6550684999999703,1046.4405219,None,0.6550684999999703,1047.1283326999999,None,1047.6400585,None,1047.6400585,None,f,0.13561249999997926,1047.6400585,None,0.13561249999997926,,,110 Aloud,001,2022_Dec_01_0959,ProdSingRedoBetween,2021.2.3,59.907754040325955,
,,,,128,0,128,0,,,,,,,,,,,,,,,,,,,,,,1049.7086526,None,,,,,,,,,,,,,,,,,interior,13,129,aloud,old,yellow,1048.3246299,None,1048.3246299,None,6,0.7070877000001019,1048.3246299,None,0.7070877000001019,1049.0672243,None,1049.5779302,None,1049.5779302,None,r,0.1016744999999446,1049.5779302,None,0.1016744999999446,,,110 Aloud,001,2022_Dec_01_0959,ProdSingRedoBetween,2021.2.3,59.907754040325955,
,,,,129,0,129,0,,,,,,,,,,,,,,,,,,,,,,1051.4977922,None,,,,,,,,,,,,,,,,,country,36,130,aloud,old,blue,1050.2184687,None,1050.2184687,None,6,0.613082600000098,1050.2184687,None,0.613082600000098,1050.8628763,None,1051.3864918,None,1051.3864918,None,r,0.07714129999999386,1051.3864918,None,0.07714129999999386,,,110 Aloud,001,2022_Dec_01_0959,ProdSingRedoBetween,2021.2.3,59.907754040325955,
,,,,130,0,130,0,,,,,,,,,,,,,,,,,,,,,,1053.279445,None,,,,,,,,,,,,,,,,,minute,104,131,aloud,new,null,1052.0166247,None,1052.0166247,None,6,0.6310022000000117,1052.0166247,None,0.6310022000000117,1052.6802499,None,1053.200413,None,1053.200413,None,f,0.04721260000019356,1053.200413,None,0.04721260000019356,,,110 Aloud,001,2022_Dec_01_0959,ProdSingRedoBetween,2021.2.3,59.907754040325955,
,,,,131,0,131,0,,,,,,,,,,,,,,,,,,,,,,1054.9305243,None,,,,,,,,,,,,,,,,,quantity,157,132,aloud,new,null,1053.7937801,None,1053.7937801,None,6,0.5337773999999627,1053.7937801,None,0.5337773999999627,1054.3489096,None,1054.8655418,None,1054.8655418,None,f,0.046059799999966344,1054.8655418,None,0.046059799999966344,,,110 Aloud,001,2022_Dec_01_0959,ProdSingRedoBetween,2021.2.3,59.907754040325955,
,,,,132,0,132,0,,,,,,,,,,,,,,,,,,,,,,1056.7824354,None,,,,,,,,,,,,,,,,,brief,74,133,aloud,old,red,1055.4423396,None,1055.4423396,None,6,0.7092676999998275,1055.4423396,None,0.7092676999998275,1056.1847204,None,1056.6991353,None,1056.6991353,None,r,0.06848049999985051,1056.6991353,None,0.06848049999985051,,,110 Aloud,001,2022_Dec_01_0959,ProdSingRedoBetween,2021.2.3,59.907754040325955,
,,,,133,0,133,0,,,,,,,,,,,,,,,,,,,,,,1058.5839951,None,,,,,,,,,,,,,,,,,edition,175,134,aloud,new,null,1057.2968323999999,None,1057.2968323999999,None,6,0.6388879999999517,1057.2968323999999,None,0.6388879999999517,1057.9712319999999,None,1058.4897627999999,None,1058.4897627999999,None,f,0.07785650000005262,1058.4897627999999,None,0.07785650000005262,,,110 Aloud,001,2022_Dec_01_0959,ProdSingRedoBetween,2021.2.3,59.907754040325955,
,,,,134,0,134,0,,,,,,,,,,,,,,,,,,,,,,1060.7363626,None,,,,,,,,,,,,,,,,,symbol,71,135,aloud,old,red,1059.0963892,None,1059.0963892,None,6,0.8793416999999408,1059.0963892,None,0.8793416999999408,1060.014259,None,1060.5214574,None,1060.5214574,None,r,0.19019279999997707,1060.5214574,None,0.19019279999997707,,,110 Aloud,001,2022_Dec_01_0959,ProdSingRedoBetween,2021.2.3,59.907754040325955,
,,,,135,0,135,0,,,,,,,,,,,,,,,,,,,,,,1062.8253108,None,,,,,,,,,,,,,,,,,column,9,136,aloud,old,yellow,1061.2451249,None,1061.2451249,None,6,0.882587600000079,1061.2451249,None,0.882587600000079,1062.1602992,None,1062.6726188999999,None,1062.6726188999999,None,r,0.1270707000001039,1062.6726188999999,None,0.1270707000001039,,,110 Aloud,001,2022_Dec_01_0959,ProdSingRedoBetween,2021.2.3,59.907754040325955,
,,,,136,0,136,0,,,,,,,,,,,,,,,,,,,,,,1064.9571925,None,,,,,,,,,,,,,,,,,present,80,137,aloud,old,red,1063.3538585,None,1063.3538585,None,6,0.7177008000001024,1063.3538585,None,0.7177008000001024,1064.0972212,None,1064.6070492,None,1064.6070492,None,r,0.3206101000000672,1064.6070492,None,0.3206101000000672,,,110 Aloud,001,2022_Dec_01_0959,ProdSingRedoBetween,2021.2.3,59.907754040325955,
,,,,137,0,137,0,,,,,,,,,,,,,,,,,,,,,,1067.1146165999999,None,,,,,,,,,,,,,,,,,bureau,66,138,aloud,old,red,1065.4679371,None,1065.4679371,None,6,0.9475225000001046,1065.4679371,None,0.9475225000001046,1066.4444024,None,1066.9631338,None,1066.9631338,None,r,0.12461140000004889,1066.9631338,None,0.12461140000004889,,,110 Aloud,001,2022_Dec_01_0959,ProdSingRedoBetween,2021.2.3,59.907754040325955,
,,,,138,0,138,0,,,,,,,,,,,,,,,,,,,,,,1069.1447483,None,,,,,,,,,,,,,,,,,machinery,81,139,aloud,old,red,1067.6371563999999,None,1067.6371563999999,None,6,0.8504046999998991,1067.6371563999999,None,0.8504046999998991,1068.5126595,None,1069.0315927,None,1069.0315927,None,r,0.09590440000010858,1069.0315927,None,0.09590440000010858,,,110 Aloud,001,2022_Dec_01_0959,ProdSingRedoBetween,2021.2.3,59.907754040325955,
,,,,139,0,139,0,,,,,,,,,,,,,,,,,,,,,,1070.9132101,None,,,,,,,,,,,,,,,,,member,159,140,aloud,new,null,1069.6456139,None,1069.6456139,None,6,0.6019774999999754,1069.6456139,None,0.6019774999999754,1070.26471,None,1070.7810781,None,1070.7810781,None,f,0.1144429000000855,1070.7810781,None,0.1144429000000855,,,110 Aloud,001,2022_Dec_01_0959,ProdSingRedoBetween,2021.2.3,59.907754040325955,
,,,,140,0,140,0,,,,,,,,,,,,,,,,,,,,,,1073.0202407,None,,,,,,,,,,,,,,,,,title,69,141,aloud,old,red,1071.4201233,None,1071.4201233,None,6,0.7154453999999077,1071.4201233,None,0.7154453999999077,1072.1643815,None,1072.6686718,None,1072.6686718,None,r,0.33105890000001637,1072.6686718,None,0.33105890000001637,,,110 Aloud,001,2022_Dec_01_0959,ProdSingRedoBetween,2021.2.3,59.907754040325955,
,,,,141,0,141,0,,,,,,,,,,,,,,,,,,,,,,1074.7003210999999,None,,,,,,,,,,,,,,,,,worker,54,142,aloud,old,blue,1073.5387966,None,1073.5387966,None,6,0.5567671999999675,1073.5387966,None,0.5567671999999675,1074.1192064,None,1074.6368641,None,1074.6368641,None,f,0.03475140000000465,1074.6368641,None,0.03475140000000465,,,110 Aloud,001,2022_Dec_01_0959,ProdSingRedoBetween,2021.2.3,59.907754040325955,
,,,,142,0,142,0,,,,,,,,,,,,,,,,,,,,,,1076.401754,None,,,,,,,,,,,,,,,,,height,55,143,aloud,old,blue,1075.2005656,None,1075.2005656,None,6,0.550997499999994,1075.2005656,None,0.550997499999994,1075.7690061,None,1076.2684069,None,1076.2684069,None,r,0.11511859999995977,1076.2684069,None,0.11511859999995977,,,110 Aloud,001,2022_Dec_01_0959,ProdSingRedoBetween,2021.2.3,59.907754040325955,
,,,,143,0,143,0,,,,,,,,,,,,,,,,,,,,,,1078.1537172,None,,,,,,,,,,,,,,,,,discovery,131,144,aloud,new,null,1076.9040346,None,1076.9040346,None,6,0.6075381000000561,1076.9040346,None,0.6075381000000561,1077.5387603,None,1078.0571809,None,1078.0571809,None,f,0.0783317000000352,1078.0571809,None,0.0783317000000352,,,110 Aloud,001,2022_Dec_01_0959,ProdSingRedoBetween,2021.2.3,59.907754040325955,
,,,,144,0,144,0,,,,,,,,,,,,,,,,,,,,,,1079.9554658,None,,,,,,,,,,,,,,,,,disease,67,145,aloud,old,red,1078.6697893,None,1078.6697893,None,6,0.6576967000000877,1078.6697893,None,0.6576967000000877,1079.3565514,None,1079.8785272,None,1079.8785272,None,r,0.05714890000012929,1079.8785272,None,0.05714890000012929,,,110 Aloud,001,2022_Dec_01_0959,ProdSingRedoBetween,2021.2.3,59.907754040325955,
,,,,145,0,145,0,,,,,,,,,,,,,,,,,,,,,,1081.6572125,None,,,,,,,,,,,,,,,,,agreement,53,146,aloud,old,blue,1080.4626824,None,1080.4626824,None,6,0.5609039999999368,1080.4626824,None,0.5609039999999368,1081.0426022,None,1081.5629417,None,1081.5629417,None,r,0.06860280000000785,1081.5629417,None,0.06860280000000785,,,110 Aloud,001,2022_Dec_01_0959,ProdSingRedoBetween,2021.2.3,59.907754040325955,
,,,,146,0,146,0,,,,,,,,,,,,,,,,,,,,,,1083.3589,None,,,,,,,,,,,,,,,,,dream,89,147,aloud,old,red,1082.164144,None,1082.164144,None,6,0.587527499999851,1082.164144,None,0.587527499999851,1082.7763676,None,1083.2787582,None,1083.2787582,None,f,0.0568071999998665,1083.2787582,None,0.0568071999998665,,,110 Aloud,001,2022_Dec_01_0959,ProdSingRedoBetween,2021.2.3,59.907754040325955,
,,,,147,0,147,0,,,,,,,,,,,,,,,,,,,,,,1085.3001574,None,,,,,,,,,,,,,,,,,music,137,148,aloud,new,null,1083.8711676,None,1083.8711676,None,6,0.5524576000000252,1083.8711676,None,0.5524576000000252,1084.4515165,None,1084.9605132,None,1084.9605132,None,f,0.31119330000001355,1084.9605132,None,0.31119330000001355,,,110 Aloud,001,2022_Dec_01_0959,ProdSingRedoBetween,2021.2.3,59.907754040325955,
,,,,148,0,148,0,,,,,,,,,,,,,,,,,,,,,,1088.832435,None,,,,,,,,,,,,,,,,,foundation,124,149,aloud,new,null,1085.8224874,None,1085.8224874,None,6,0.7770898999999645,1085.8224874,None,0.7770898999999645,1086.6387094,None,1087.1505373,None,1087.1505373,None,f,1.6571263000000727,1087.1505373,None,1.6571263000000727,,,110 Aloud,001,2022_Dec_01_0959,ProdSingRedoBetween,2021.2.3,59.907754040325955,
,,,,149,0,149,0,,,,,,,,,,,,,,,,,,,,,,1090.7828564,None,,,,,,,,,,,,,,,,,poetry,112,150,aloud,new,null,1089.3354322999999,None,1089.3354322999999,None,6,0.7921620000001894,1089.3354322999999,None,0.7921620000001894,1090.1505612,None,1090.6547906,None,1090.6547906,None,r,0.10488329999998314,1090.6547906,None,0.10488329999998314,,,110 Aloud,001,2022_Dec_01_0959,ProdSingRedoBetween,2021.2.3,59.907754040325955,
,,,,150,0,150,0,,,,,,,,,,,,,,,,,,,,,,1096.5079261,None,,,,,,,,,,,,,,,,,generation,130,151,aloud,new,null,1091.2921294999999,None,1091.2921294999999,None,6,0.7314284999999927,1091.2921294999999,None,0.7314284999999927,1092.0570925,None,1092.5730932,None,1092.5730932,None,r,3.914588500000036,1092.5730932,None,3.914588500000036,,,110 Aloud,001,2022_Dec_01_0959,ProdSingRedoBetween,2021.2.3,59.907754040325955,
,,,,151,0,151,0,,,,,,,,,,,,,,,,,,,,,,1098.7910692,None,,,,,,,,,,,,,,,,,permit,1,152,aloud,old,yellow,1097.0348353,None,1097.0348353,None,6,0.9008077999999387,1097.0348353,None,0.9008077999999387,1097.9641953999999,None,1098.4785932,None,1098.4785932,None,r,0.29701330000011694,1098.4785932,None,0.29701330000011694,,,110 Aloud,001,2022_Dec_01_0959,ProdSingRedoBetween,2021.2.3,59.907754040325955,
,,,,152,0,152,0,,,,,,,,,,,,,,,,,,,,,,1100.8285045999999,None,,,,,,,,,,,,,,,,,mankind,99,153,aloud,new,null,1099.3035662,None,1099.3035662,None,6,0.7761011000000053,1099.3035662,None,0.7761011000000053,1100.1193966,None,1100.6302331,None,1100.6302331,None,f,0.17756610000014916,1100.6302331,None,0.17756610000014916,,,110 Aloud,001,2022_Dec_01_0959,ProdSingRedoBetween,2021.2.3,59.907754040325955,
,,,,153,0,153,0,,,,,,,,,,,,,,,,,,,,,,1103.2122372,None,,,,,,,,,,,,,,,,,marriage,34,154,aloud,old,blue,1101.3603629,None,1101.3603629,None,6,0.8872616999999536,1101.3603629,None,0.8872616999999536,1102.2853356,None,1102.7985041,None,1102.7985041,None,r,0.39316600000006474,1102.7985041,None,0.39316600000006474,,,110 Aloud,001,2022_Dec_01_0959,ProdSingRedoBetween,2021.2.3,59.907754040325955,
,,,,154,0,154,0,,,,,,,,,,,,,,,,,,,,,,1105.3694842,None,,,,,,,,,,,,,,,,,quick,82,155,aloud,old,red,1103.7217108,None,1103.7217108,None,6,0.7658817999999883,1103.7217108,None,0.7658817999999883,1104.5190256,None,1105.0361134,None,1105.0361134,None,f,0.299582300000111,1105.0361134,None,0.299582300000111,,,110 Aloud,001,2022_Dec_01_0959,ProdSingRedoBetween,2021.2.3,59.907754040325955,
,,,,155,0,155,0,,,,,,,,,,,,,,,,,,,,,,1107.3162151,None,,,,,,,,,,,,,,,,,science,77,156,aloud,old,red,1105.893758,None,1105.893758,None,6,0.6821853999999803,1105.893758,None,0.6821853999999803,1106.6112719999999,None,1107.1217245999999,None,1107.1217245999999,None,r,0.1739367999998649,1107.1217245999999,None,0.1739367999998649,,,110 Aloud,001,2022_Dec_01_0959,ProdSingRedoBetween,2021.2.3,59.907754040325955,
,,,,156,0,156,0,,,,,,,,,,,,,,,,,,,,,,1109.4719264,None,,,,,,,,,,,,,,,,,corner,60,157,aloud,old,red,1107.8282534,None,1107.8282534,None,6,0.7714868000000479,1107.8282534,None,0.7714868000000479,1108.6262549,None,1109.1386721,None,1109.1386721,None,r,0.3010993000000326,1109.1386721,None,0.3010993000000326,,,110 Aloud,001,2022_Dec_01_0959,ProdSingRedoBetween,2021.2.3,59.907754040325955,
,,,,157,0,157,0,,,,,,,,,,,,,,,,,,,,,,1111.6038732,None,,,,,,,,,,,,,,,,,measure,88,158,aloud,old,red,1109.9940119,None,1109.9940119,None,6,0.8054650000001402,1109.9940119,None,0.8054650000001402,1110.8236688,None,1111.3414453999999,None,1111.3414453999999,None,r,0.23414090000005672,1111.3414453999999,None,0.23414090000005672,,,110 Aloud,001,2022_Dec_01_0959,ProdSingRedoBetween,2021.2.3,59.907754040325955,
,,,,158,0,158,0,,,,,,,,,,,,,,,,,,,,,,1113.6557007,None,,,,,,,,,,,,,,,,,council,161,159,aloud,new,null,1112.1135595,None,1112.1135595,None,6,0.7500252999998338,1112.1135595,None,0.7500252999998338,1112.8982944,None,1113.4084212999999,None,1113.4084212999999,None,f,0.23122490000014295,1113.4084212999999,None,0.23122490000014295,,,110 Aloud,001,2022_Dec_01_0959,ProdSingRedoBetween,2021.2.3,59.907754040325955,
,,,,159,0,159,0,,,,,,,,,,,,,,,,,,,,,,1115.7746998,None,,,,,,,,,,,,,,,,,universal,102,160,aloud,new,null,1114.1653878,None,1114.1653878,None,6,0.7623826999999892,1114.1653878,None,0.7623826999999892,1114.9637515,None,1115.4831737,None,1115.4831737,None,r,0.26839529999983824,1115.4831737,None,0.26839529999983824,,,110 Aloud,001,2022_Dec_01_0959,ProdSingRedoBetween,2021.2.3,59.907754040325955,
,,,,160,0,160,0,,,,,,,,,,,,,,,,,,,,,,1117.5264637999999,None,,,,,,,,,,,,,,,,,growth,116,161,aloud,new,null,1116.283659,None,1116.283659,None,6,0.48399449999988065,1116.283659,None,0.48399449999988065,1116.7974537999999,None,1117.3132699,None,1117.3132699,None,r,0.1822765999997955,1117.3132699,None,0.1822765999997955,,,110 Aloud,001,2022_Dec_01_0959,ProdSingRedoBetween,2021.2.3,59.907754040325955,
,,,,161,0,161,0,,,,,,,,,,,,,,,,,,,,,,1119.6581777,None,,,,,,,,,,,,,,,,,republic,165,162,aloud,new,null,1118.0350263999999,None,1118.0350263999999,None,6,0.7566329000001133,1118.0350263999999,None,0.7566329000001133,1118.8153564,None,1119.3306891,None,1119.3306891,None,f,0.2849069999999756,1119.3306891,None,0.2849069999999756,,,110 Aloud,001,2022_Dec_01_0959,ProdSingRedoBetween,2021.2.3,59.907754040325955,
,,,,162,0,162,0,,,,,,,,,,,,,,,,,,,,,,1121.947545,None,,,,,,,,,,,,,,,,,question,96,163,aloud,new,null,1120.1672395,None,1120.1672395,None,6,0.9123294999999416,1120.1672395,None,0.9123294999999416,1121.1005124,None,1121.620514,None,1121.620514,None,r,0.29903699999999844,1121.620514,None,0.29903699999999844,,,110 Aloud,001,2022_Dec_01_0959,ProdSingRedoBetween,2021.2.3,59.907754040325955,
,,,,163,0,163,0,,,,,,,,,,,,,,,,,,,,,,1124.1187904,None,,,,,,,,,,,,,,,,,course,68,164,aloud,old,red,1122.4572919,None,1122.4572919,None,6,0.8062095000000227,1122.4572919,None,0.8062095000000227,1123.284285,None,1123.7994988,None,1123.7994988,None,r,0.29619720000005145,1123.7994988,None,0.29619720000005145,,,110 Aloud,001,2022_Dec_01_0959,ProdSingRedoBetween,2021.2.3,59.907754040325955,
,,,,164,0,164,0,,,,,,,,,,,,,,,,,,,,,,1126.3352339,None,,,,,,,,,,,,,,,,,whole,135,165,aloud,new,null,1124.647778,None,1124.647778,None,6,0.8238060999999561,1124.647778,None,0.8238060999999561,1125.5029729999999,None,1126.0234945,None,1126.0234945,None,f,0.2961853000001611,1126.0234945,None,0.2961853000001611,,,110 Aloud,001,2022_Dec_01_0959,ProdSingRedoBetween,2021.2.3,59.907754040325955,
,,,,165,0,165,0,,,,,,,,,,,,,,,,,,,,,,1128.5207802,None,,,,,,,,,,,,,,,,,crime,33,166,aloud,old,blue,1126.847292,None,1126.847292,None,6,0.8562598000000889,1126.847292,None,0.8562598000000889,1127.7212235,None,1128.2232354999999,None,1128.2232354999999,None,r,0.27236279999988255,1128.2232354999999,None,0.27236279999988255,,,110 Aloud,001,2022_Dec_01_0959,ProdSingRedoBetween,2021.2.3,59.907754040325955,
,,,,166,0,166,0,,,,,,,,,,,,,,,,,,,,,,1130.5420219999999,None,,,,,,,,,,,,,,,,,evidence,170,167,aloud,new,null,1129.0454202,None,1129.0454202,None,6,0.7062273000001369,1129.0454202,None,0.7062273000001369,1129.7841128,None,1130.2893076999999,None,1130.2893076999999,None,f,0.22232759999997143,1130.2893076999999,None,0.22232759999997143,,,110 Aloud,001,2022_Dec_01_0959,ProdSingRedoBetween,2021.2.3,59.907754040325955,
,,,,167,0,167,0,,,,,,,,,,,,,,,,,,,,,,1132.8779895999999,None,,,,,,,,,,,,,,,,,nature,51,168,aloud,old,blue,1131.0601070999999,None,1131.0601070999999,None,6,0.7875377000000299,1131.0601070999999,None,0.7875377000000299,1131.8795736,None,1132.3931565999999,None,1132.3931565999999,None,r,0.4624931999999262,1132.3931565999999,None,0.4624931999999262,,,110 Aloud,001,2022_Dec_01_0959,ProdSingRedoBetween,2021.2.3,59.907754040325955,
,,,,168,0,168,0,,,,,,,,,,,,,,,,,,,,,,1134.8270803,None,,,,,,,,,,,,,,,,,broad,50,169,aloud,old,blue,1133.392935,None,1133.392935,None,6,0.7106515999998919,1133.392935,None,0.7106515999998919,1134.126304,None,1134.6336095,None,1134.6336095,None,f,0.17406879999998637,1134.6336095,None,0.17406879999998637,,,110 Aloud,001,2022_Dec_01_0959,ProdSingRedoBetween,2021.2.3,59.907754040325955,
,,,,169,0,169,0,,,,,,,,,,,,,,,,,,,,,,1136.8290267,None,,,,,,,,,,,,,,,,,swift,25,170,aloud,old,yellow,1135.3303544,None,1135.3303544,None,6,0.6852664000000459,1135.3303544,None,0.6852664000000459,1136.0464327,None,1136.5649609,None,1136.5649609,None,r,0.23466710000002422,1136.5649609,None,0.23466710000002422,,,110 Aloud,001,2022_Dec_01_0959,ProdSingRedoBetween,2021.2.3,59.907754040325955,
,,,,170,0,170,0,,,,,,,,,,,,,,,,,,,,,,1138.6809292,None,,,,,,,,,,,,,,,,,private,114,171,aloud,new,null,1137.3423591,None,1137.3423591,None,6,0.521222299999863,1137.3423591,None,0.521222299999863,1137.8823545999999,None,1138.4046446,None,1138.4046446,None,f,0.2588869999999588,1138.4046446,None,0.2588869999999588,,,110 Aloud,001,2022_Dec_01_0959,ProdSingRedoBetween,2021.2.3,59.907754040325955,
,,,,171,0,171,0,,,,,,,,,,,,,,,,,,,,,,1140.5846515,None,,,,,,,,,,,,,,,,,income,144,172,aloud,new,null,1139.1918693999999,None,1139.1918693999999,None,6,0.7038766000000578,1139.1918693999999,None,0.7038766000000578,1139.9239273,None,1140.4328535,None,1140.4328535,None,r,0.13473930000009204,1140.4328535,None,0.13473930000009204,,,110 Aloud,001,2022_Dec_01_0959,ProdSingRedoBetween,2021.2.3,59.907754040325955,
,,,,172,0,172,0,,,,,,,,,,,,,,,,,,,,,,1142.5579697,None,,,,,,,,,,,,,,,,,detective,3,173,aloud,old,yellow,1141.1006572,None,1141.1006572,None,6,0.7070220000000518,1141.1006572,None,0.7070220000000518,1141.8371063,None,1142.3549214,None,1142.3549214,None,r,0.18081260000008115,1142.3549214,None,0.18081260000008115,,,110 Aloud,001,2022_Dec_01_0959,ProdSingRedoBetween,2021.2.3,59.907754040325955,
,,,,173,0,173,0,,,,,,,,,,,,,,,,,,,,,,1144.2731308,None,,,,,,,,,,,,,,,,,oxygen,42,174,aloud,old,blue,1143.079283,None,1143.079283,None,6,0.5363009999998667,1143.079283,None,0.5363009999998667,1143.636698,None,1144.1409392,None,1144.1409392,None,f,0.09886090000009062,1144.1409392,None,0.09886090000009062,,,110 Aloud,001,2022_Dec_01_0959,ProdSingRedoBetween,2021.2.3,59.907754040325955,
,,,,174,0,174,0,,,,,,,,,,,,,,,,,,,,,,1145.9748097,None,,,,,,,,,,,,,,,,,goose,138,175,aloud,new,null,1144.7959527,None,1144.7959527,None,6,0.595703100000037,1144.7959527,None,0.595703100000037,1145.4241078,None,1145.9466333,None,1145.9466333,None,f,0.005165399999896181,1145.9466333,None,0.005165399999896181,,,110 Aloud,001,2022_Dec_01_0959,ProdSingRedoBetween,2021.2.3,59.907754040325955,
,,,,175,0,175,0,,,,,,,,,,,,,,,,,,,,,,1147.7418973,None,,,,,,,,,,,,,,,,,accident,90,176,aloud,new,null,1146.5025406,None,1146.5025406,None,6,0.5851238999998714,1146.5025406,None,0.5851238999998714,1147.1135772,None,1147.626278,None,1147.626278,None,f,0.09336069999994834,1147.626278,None,0.09336069999994834,,,110 Aloud,001,2022_Dec_01_0959,ProdSingRedoBetween,2021.2.3,59.907754040325955,
,,,,176,0,176,0,,,,,,,,,,,,,,,,,,,,,,1149.4269783,None,,,,,,,,,,,,,,,,,close,18,177,aloud,old,yellow,1148.2690415,None,1148.2690415,None,6,0.5706441999998333,1148.2690415,None,0.5706441999998333,1148.8735939,None,1149.3750514,None,1149.3750514,None,f,0.032603999999992084,1149.3750514,None,0.032603999999992084,,,110 Aloud,001,2022_Dec_01_0959,ProdSingRedoBetween,2021.2.3,59.907754040325955,
,,,,177,0,177,0,,,,,,,,,,,,,,,,,,,,,,1151.1934165999999,None,,,,,,,,,,,,,,,,,clear,176,178,aloud,new,null,1149.9541559,None,1149.9541559,None,6,0.6533285000000433,1149.9541559,None,0.6533285000000433,1150.6273239,None,1151.1314330999999,None,1151.1314330999999,None,f,0.036266600000089966,1151.1314330999999,None,0.036266600000089966,,,110 Aloud,001,2022_Dec_01_0959,ProdSingRedoBetween,2021.2.3,59.907754040325955,
,,,,178,0,178,0,,,,,,,,,,,,,,,,,,,,,,1152.8783679,None,,,,,,,,,,,,,,,,,society,26,179,aloud,old,yellow,1151.7090438999999,None,1151.7090438999999,None,6,0.5625479000000269,1151.7090438999999,None,0.5625479000000269,1152.2975975,None,1152.8167458,None,1152.8167458,None,r,0.04693609999981163,1152.8167458,None,0.04693609999981163,,,110 Aloud,001,2022_Dec_01_0959,ProdSingRedoBetween,2021.2.3,59.907754040325955,
,,,,179,0,179,0,,,,,,,,,,,,,,,,,,,,,,1154.6468114,None,,,,,,,,,,,,,,,,,estate,22,180,aloud,old,yellow,1153.4088884999999,None,1153.4088884999999,None,6,0.5587809000001016,1153.4088884999999,None,0.5587809000001016,1154.0023707,None,1154.5135516999999,None,1154.5135516999999,None,r,0.11014760000011847,1154.5135516999999,None,0.11014760000011847,,,110 Aloud,001,2022_Dec_01_0959,ProdSingRedoBetween,2021.2.3,59.907754040325955,
,,,,,,,,,,,,,,,,,,,,,,,,,,,,,,,,,,,,,,,,,,,,,,,,,,,,,,,,,,,,,,,,,,,,,,,,,1155.1479986,None,,,,,,,
