StudyLoop.thisRepN,StudyLoop.thisTrialN,StudyLoop.thisN,StudyLoop.thisIndex,TestLoop.thisRepN,TestLoop.thisTrialN,TestLoop.thisN,TestLoop.thisIndex,textCondition.started,textCondition.stopped,keyCondition.keys,keyCondition.rt,keyCondition.started,keyCondition.stopped,Condition,textWelcome.started,textWelcome.stopped,keyWelcome.keys,keyWelcome.rt,keyWelcome.started,keyWelcome.stopped,textAloud.started,textAloud.stopped,textSilent.started,textSilent.stopped,textSing.started,textSing.stopped,conditional_text.started,conditional_text.stopped,textBlank500.started,textBlank500.stopped,study_word,study_num,study_order,study_type,word_color,textStudy.started,textStudy.stopped,keyStudy.keys,keyStudy.started,keyStudy.stopped,textTestInstructions.started,textTestInstructions.stopped,key_resp_3.keys,key_resp_3.rt,key_resp_3.started,key_resp_3.stopped,test_word,test_num,test_order,test_condition,old_new_test,test_word_original_color,textConf.started,textConf.stopped,textConfScale.started,textConfScale.stopped,keyConf.keys,keyConf.rt,keyConf.started,keyConf.stopped,confidence response time,textTestBlank.started,textTestBlank.stopped,textRKN.started,textRKN.stopped,textRKNScale.started,textRKNScale.stopped,keyRKN.keys,keyRKN.rt,keyRKN.started,keyRKN.stopped,rkn response time,textEnd.started,textEnd.stopped,participant,session,date,expName,psychopyVersion,frameRate,
,,,,,,,,17.601064899999983,None,c,2.535587899999882,17.601064899999983,None,,,,,,,,,,,,,,,,,,,,,,,,,,,,,,,,,,,,,,,,,,,,,,,,,,,,,,,,,,,,,,111 Sing,001,2022_Dec_01_1024,ProdSingRedoBetween,2021.2.3,59.9397844925132,
,,,,,,,,,,,,,,SingTest,20.17913159999989,None,space,374.22153749999984,20.17913159999989,None,,,,,,,,,,,,,,,,,,,,,,,,,,,,,,,,,,,,,,,,,,,,,,,,,,,,,,,111 Sing,001,2022_Dec_01_1024,ProdSingRedoBetween,2021.2.3,59.9397844925132,
0,0,0,0,,,,,,,,,,,,,,,,,,20.17913159999989,None,20.17913159999989,None,20.17913159999989,None,20.17913159999989,None,396.9374022000002,None,impact,64,1,sing,red,394.9269933999999,None,None,394.9269933999999,None,,,,,,,,,,,,,,,,,,,,,,,,,,,,,,,,,,,111 Sing,001,2022_Dec_01_1024,ProdSingRedoBetween,2021.2.3,59.9397844925132,
1,0,1,0,,,,,,,,,,,,,,,,,,,,,,,,,,399.4566254000001,None,express,62,2,sing,red,397.4427292999999,None,None,397.4427292999999,None,,,,,,,,,,,,,,,,,,,,,,,,,,,,,,,,,,,111 Sing,001,2022_Dec_01_1024,ProdSingRedoBetween,2021.2.3,59.9397844925132,
2,0,2,0,,,,,,,,,,,,,,,,,,,,,,,,,,401.9758075999998,None,company,68,3,sing,red,399.96300569999994,None,None,399.96300569999994,None,,,,,,,,,,,,,,,,,,,,,,,,,,,,,,,,,,,111 Sing,001,2022_Dec_01_1024,ProdSingRedoBetween,2021.2.3,59.9397844925132,
3,0,3,0,,,,,,,,,,,,,,,,,,,,,,,,,,404.4782482999999,None,right,19,4,sing,yellow,402.47617779999973,None,None,402.47617779999973,None,,,,,,,,,,,,,,,,,,,,,,,,,,,,,,,,,,,111 Sing,001,2022_Dec_01_1024,ProdSingRedoBetween,2021.2.3,59.9397844925132,
4,0,4,0,,,,,,,,,,,,,,,,,,,,,,,,,,406.9805372999999,None,capital,46,5,sing,blue,404.98118829999976,None,None,404.98118829999976,None,,,,,,,,,,,,,,,,,,,,,,,,,,,,,,,,,,,111 Sing,001,2022_Dec_01_1024,ProdSingRedoBetween,2021.2.3,59.9397844925132,
5,0,5,0,,,,,,,,,,,,,,,,,,,,,,,,,,409.48309830000017,None,suggestion,84,6,sing,red,407.4827286999998,None,None,407.4827286999998,None,,,,,,,,,,,,,,,,,,,,,,,,,,,,,,,,,,,111 Sing,001,2022_Dec_01_1024,ProdSingRedoBetween,2021.2.3,59.9397844925132,
6,0,6,0,,,,,,,,,,,,,,,,,,,,,,,,,,411.9854203,None,solution,48,7,sing,blue,409.9855981999999,None,None,409.9855981999999,None,,,,,,,,,,,,,,,,,,,,,,,,,,,,,,,,,,,111 Sing,001,2022_Dec_01_1024,ProdSingRedoBetween,2021.2.3,59.9397844925132,
7,0,7,0,,,,,,,,,,,,,,,,,,,,,,,,,,414.50490039999977,None,beginning,27,8,sing,yellow,412.4949780000002,None,None,412.4949780000002,None,,,,,,,,,,,,,,,,,,,,,,,,,,,,,,,,,,,111 Sing,001,2022_Dec_01_1024,ProdSingRedoBetween,2021.2.3,59.9397844925132,
8,0,8,0,,,,,,,,,,,,,,,,,,,,,,,,,,417.0073754,None,court,45,9,sing,blue,415.0057777000002,None,None,415.0057777000002,None,,,,,,,,,,,,,,,,,,,,,,,,,,,,,,,,,,,111 Sing,001,2022_Dec_01_1024,ProdSingRedoBetween,2021.2.3,59.9397844925132,
9,0,9,0,,,,,,,,,,,,,,,,,,,,,,,,,,419.52663170000005,None,device,32,10,sing,blue,417.5148822000001,None,None,417.5148822000001,None,,,,,,,,,,,,,,,,,,,,,,,,,,,,,,,,,,,111 Sing,001,2022_Dec_01_1024,ProdSingRedoBetween,2021.2.3,59.9397844925132,
10,0,10,0,,,,,,,,,,,,,,,,,,,,,,,,,,422.04554039999994,None,break,29,11,sing,blue,420.03283169999986,None,None,420.03283169999986,None,,,,,,,,,,,,,,,,,,,,,,,,,,,,,,,,,,,111 Sing,001,2022_Dec_01_1024,ProdSingRedoBetween,2021.2.3,59.9397844925132,
11,0,11,0,,,,,,,,,,,,,,,,,,,,,,,,,,424.5483088000001,None,fight,34,12,sing,blue,422.54808950000006,None,None,422.54808950000006,None,,,,,,,,,,,,,,,,,,,,,,,,,,,,,,,,,,,111 Sing,001,2022_Dec_01_1024,ProdSingRedoBetween,2021.2.3,59.9397844925132,
12,0,12,0,,,,,,,,,,,,,,,,,,,,,,,,,,427.05075669999997,None,oxygen,11,13,sing,yellow,425.04879919999985,None,None,425.04879919999985,None,,,,,,,,,,,,,,,,,,,,,,,,,,,,,,,,,,,111 Sing,001,2022_Dec_01_1024,ProdSingRedoBetween,2021.2.3,59.9397844925132,
13,0,13,0,,,,,,,,,,,,,,,,,,,,,,,,,,429.5701583,None,surprise,58,14,sing,blue,427.5657513000001,None,None,427.5657513000001,None,,,,,,,,,,,,,,,,,,,,,,,,,,,,,,,,,,,111 Sing,001,2022_Dec_01_1024,ProdSingRedoBetween,2021.2.3,59.9397844925132,
14,0,14,0,,,,,,,,,,,,,,,,,,,,,,,,,,432.08923719999984,None,substance,79,15,sing,red,430.0808953999999,None,None,430.0808953999999,None,,,,,,,,,,,,,,,,,,,,,,,,,,,,,,,,,,,111 Sing,001,2022_Dec_01_1024,ProdSingRedoBetween,2021.2.3,59.9397844925132,
15,0,15,0,,,,,,,,,,,,,,,,,,,,,,,,,,434.6083254,None,business,17,16,sing,yellow,432.60084449999977,None,None,432.60084449999977,None,,,,,,,,,,,,,,,,,,,,,,,,,,,,,,,,,,,111 Sing,001,2022_Dec_01_1024,ProdSingRedoBetween,2021.2.3,59.9397844925132,
16,0,16,0,,,,,,,,,,,,,,,,,,,,,,,,,,437.1274816,None,style,7,17,sing,yellow,435.1123812000001,None,None,435.1123812000001,None,,,,,,,,,,,,,,,,,,,,,,,,,,,,,,,,,,,111 Sing,001,2022_Dec_01_1024,ProdSingRedoBetween,2021.2.3,59.9397844925132,
17,0,17,0,,,,,,,,,,,,,,,,,,,,,,,,,,439.6467472999998,None,mankind,81,18,sing,red,437.63255290000006,None,None,437.63255290000006,None,,,,,,,,,,,,,,,,,,,,,,,,,,,,,,,,,,,111 Sing,001,2022_Dec_01_1024,ProdSingRedoBetween,2021.2.3,59.9397844925132,
18,0,18,0,,,,,,,,,,,,,,,,,,,,,,,,,,442.1490715,None,incident,6,19,sing,yellow,440.14716229999976,None,None,440.14716229999976,None,,,,,,,,,,,,,,,,,,,,,,,,,,,,,,,,,,,111 Sing,001,2022_Dec_01_1024,ProdSingRedoBetween,2021.2.3,59.9397844925132,
19,0,19,0,,,,,,,,,,,,,,,,,,,,,,,,,,444.66841799999975,None,swift,23,20,sing,yellow,442.6593149,None,None,442.6593149,None,,,,,,,,,,,,,,,,,,,,,,,,,,,,,,,,,,,111 Sing,001,2022_Dec_01_1024,ProdSingRedoBetween,2021.2.3,59.9397844925132,
20,0,20,0,,,,,,,,,,,,,,,,,,,,,,,,,,447.18761459999996,None,frank,52,21,sing,blue,445.18139370000017,None,None,445.18139370000017,None,,,,,,,,,,,,,,,,,,,,,,,,,,,,,,,,,,,111 Sing,001,2022_Dec_01_1024,ProdSingRedoBetween,2021.2.3,59.9397844925132,
21,0,21,0,,,,,,,,,,,,,,,,,,,,,,,,,,449.70677179999984,None,committee,88,22,sing,red,447.69695969999975,None,None,447.69695969999975,None,,,,,,,,,,,,,,,,,,,,,,,,,,,,,,,,,,,111 Sing,001,2022_Dec_01_1024,ProdSingRedoBetween,2021.2.3,59.9397844925132,
22,0,22,0,,,,,,,,,,,,,,,,,,,,,,,,,,452.2092069999999,None,brilliant,74,23,sing,red,450.2070254,None,None,450.2070254,None,,,,,,,,,,,,,,,,,,,,,,,,,,,,,,,,,,,111 Sing,001,2022_Dec_01_1024,ProdSingRedoBetween,2021.2.3,59.9397844925132,
23,0,23,0,,,,,,,,,,,,,,,,,,,,,,,,,,454.71170970000003,None,color,82,24,sing,red,452.71010560000013,None,None,452.71010560000013,None,,,,,,,,,,,,,,,,,,,,,,,,,,,,,,,,,,,111 Sing,001,2022_Dec_01_1024,ProdSingRedoBetween,2021.2.3,59.9397844925132,
24,0,24,0,,,,,,,,,,,,,,,,,,,,,,,,,,457.2308997,None,region,69,25,sing,red,455.2224762999999,None,None,455.2224762999999,None,,,,,,,,,,,,,,,,,,,,,,,,,,,,,,,,,,,111 Sing,001,2022_Dec_01_1024,ProdSingRedoBetween,2021.2.3,59.9397844925132,
25,0,25,0,,,,,,,,,,,,,,,,,,,,,,,,,,459.7332363999999,None,cross,50,26,sing,blue,457.73313559999997,None,None,457.73313559999997,None,,,,,,,,,,,,,,,,,,,,,,,,,,,,,,,,,,,111 Sing,001,2022_Dec_01_1024,ProdSingRedoBetween,2021.2.3,59.9397844925132,
26,0,26,0,,,,,,,,,,,,,,,,,,,,,,,,,,462.2360773999999,None,dance,14,27,sing,yellow,460.23445660000016,None,None,460.23445660000016,None,,,,,,,,,,,,,,,,,,,,,,,,,,,,,,,,,,,111 Sing,001,2022_Dec_01_1024,ProdSingRedoBetween,2021.2.3,59.9397844925132,
27,0,27,0,,,,,,,,,,,,,,,,,,,,,,,,,,464.7550624999999,None,carry,8,28,sing,yellow,462.7479153999998,None,None,462.7479153999998,None,,,,,,,,,,,,,,,,,,,,,,,,,,,,,,,,,,,111 Sing,001,2022_Dec_01_1024,ProdSingRedoBetween,2021.2.3,59.9397844925132,
28,0,28,0,,,,,,,,,,,,,,,,,,,,,,,,,,467.2743396000001,None,death,15,29,sing,yellow,465.2591176000001,None,None,465.2591176000001,None,,,,,,,,,,,,,,,,,,,,,,,,,,,,,,,,,,,111 Sing,001,2022_Dec_01_1024,ProdSingRedoBetween,2021.2.3,59.9397844925132,
29,0,29,0,,,,,,,,,,,,,,,,,,,,,,,,,,469.79354669999975,None,listen,60,30,sing,red,467.78030720000015,None,None,467.78030720000015,None,,,,,,,,,,,,,,,,,,,,,,,,,,,,,,,,,,,111 Sing,001,2022_Dec_01_1024,ProdSingRedoBetween,2021.2.3,59.9397844925132,
30,0,30,0,,,,,,,,,,,,,,,,,,,,,,,,,,472.29586900000004,None,sound,39,31,sing,blue,470.2968231,None,None,470.2968231,None,,,,,,,,,,,,,,,,,,,,,,,,,,,,,,,,,,,111 Sing,001,2022_Dec_01_1024,ProdSingRedoBetween,2021.2.3,59.9397844925132,
31,0,31,0,,,,,,,,,,,,,,,,,,,,,,,,,,474.79857519999996,None,track,25,32,sing,yellow,472.79957460000014,None,None,472.79957460000014,None,,,,,,,,,,,,,,,,,,,,,,,,,,,,,,,,,,,111 Sing,001,2022_Dec_01_1024,ProdSingRedoBetween,2021.2.3,59.9397844925132,
32,0,32,0,,,,,,,,,,,,,,,,,,,,,,,,,,477.31764599999997,None,people,28,33,sing,yellow,475.3053178,None,None,475.3053178,None,,,,,,,,,,,,,,,,,,,,,,,,,,,,,,,,,,,111 Sing,001,2022_Dec_01_1024,ProdSingRedoBetween,2021.2.3,59.9397844925132,
33,0,33,0,,,,,,,,,,,,,,,,,,,,,,,,,,479.8202855999998,None,level,38,34,sing,blue,477.8182160000001,None,None,477.8182160000001,None,,,,,,,,,,,,,,,,,,,,,,,,,,,,,,,,,,,111 Sing,001,2022_Dec_01_1024,ProdSingRedoBetween,2021.2.3,59.9397844925132,
34,0,34,0,,,,,,,,,,,,,,,,,,,,,,,,,,482.3395295,None,fashion,42,35,sing,blue,480.32991349999975,None,None,480.32991349999975,None,,,,,,,,,,,,,,,,,,,,,,,,,,,,,,,,,,,111 Sing,001,2022_Dec_01_1024,ProdSingRedoBetween,2021.2.3,59.9397844925132,
35,0,35,0,,,,,,,,,,,,,,,,,,,,,,,,,,484.84191199999987,None,empty,30,36,sing,blue,482.8399390999998,None,None,482.8399390999998,None,,,,,,,,,,,,,,,,,,,,,,,,,,,,,,,,,,,111 Sing,001,2022_Dec_01_1024,ProdSingRedoBetween,2021.2.3,59.9397844925132,
36,0,36,0,,,,,,,,,,,,,,,,,,,,,,,,,,487.3610798999998,None,society,67,37,sing,red,485.34871310000017,None,None,485.34871310000017,None,,,,,,,,,,,,,,,,,,,,,,,,,,,,,,,,,,,111 Sing,001,2022_Dec_01_1024,ProdSingRedoBetween,2021.2.3,59.9397844925132,
37,0,37,0,,,,,,,,,,,,,,,,,,,,,,,,,,489.86366899999985,None,motion,49,38,sing,blue,487.86236830000007,None,None,487.86236830000007,None,,,,,,,,,,,,,,,,,,,,,,,,,,,,,,,,,,,111 Sing,001,2022_Dec_01_1024,ProdSingRedoBetween,2021.2.3,59.9397844925132,
38,0,38,0,,,,,,,,,,,,,,,,,,,,,,,,,,492.3827799999999,None,question,78,39,sing,red,490.3760597999999,None,None,490.3760597999999,None,,,,,,,,,,,,,,,,,,,,,,,,,,,,,,,,,,,111 Sing,001,2022_Dec_01_1024,ProdSingRedoBetween,2021.2.3,59.9397844925132,
39,0,39,0,,,,,,,,,,,,,,,,,,,,,,,,,,494.9017251999999,None,budget,24,40,sing,yellow,492.8862313999998,None,None,492.8862313999998,None,,,,,,,,,,,,,,,,,,,,,,,,,,,,,,,,,,,111 Sing,001,2022_Dec_01_1024,ProdSingRedoBetween,2021.2.3,59.9397844925132,
40,0,40,0,,,,,,,,,,,,,,,,,,,,,,,,,,497.40461430000005,None,interior,41,41,sing,blue,495.40247169999975,None,None,495.40247169999975,None,,,,,,,,,,,,,,,,,,,,,,,,,,,,,,,,,,,111 Sing,001,2022_Dec_01_1024,ProdSingRedoBetween,2021.2.3,59.9397844925132,
41,0,41,0,,,,,,,,,,,,,,,,,,,,,,,,,,499.9069734999998,None,industry,31,42,sing,blue,497.9079066999998,None,None,497.9079066999998,None,,,,,,,,,,,,,,,,,,,,,,,,,,,,,,,,,,,111 Sing,001,2022_Dec_01_1024,ProdSingRedoBetween,2021.2.3,59.9397844925132,
42,0,42,0,,,,,,,,,,,,,,,,,,,,,,,,,,502.4257437000001,None,design,0,43,sing,yellow,500.4130593,None,None,500.4130593,None,,,,,,,,,,,,,,,,,,,,,,,,,,,,,,,,,,,111 Sing,001,2022_Dec_01_1024,ProdSingRedoBetween,2021.2.3,59.9397844925132,
43,0,43,0,,,,,,,,,,,,,,,,,,,,,,,,,,504.94531129999996,None,century,22,44,sing,yellow,502.93349679999983,None,None,502.93349679999983,None,,,,,,,,,,,,,,,,,,,,,,,,,,,,,,,,,,,111 Sing,001,2022_Dec_01_1024,ProdSingRedoBetween,2021.2.3,59.9397844925132,
44,0,44,0,,,,,,,,,,,,,,,,,,,,,,,,,,507.44780579999997,None,message,36,45,sing,blue,505.44578360000014,None,None,505.44578360000014,None,,,,,,,,,,,,,,,,,,,,,,,,,,,,,,,,,,,111 Sing,001,2022_Dec_01_1024,ProdSingRedoBetween,2021.2.3,59.9397844925132,
45,0,45,0,,,,,,,,,,,,,,,,,,,,,,,,,,509.9669794000001,None,owner,70,46,sing,red,507.95955879999974,None,None,507.95955879999974,None,,,,,,,,,,,,,,,,,,,,,,,,,,,,,,,,,,,111 Sing,001,2022_Dec_01_1024,ProdSingRedoBetween,2021.2.3,59.9397844925132,
46,0,46,0,,,,,,,,,,,,,,,,,,,,,,,,,,512.4694368,None,nation,4,47,sing,yellow,510.4675075,None,None,510.4675075,None,,,,,,,,,,,,,,,,,,,,,,,,,,,,,,,,,,,111 Sing,001,2022_Dec_01_1024,ProdSingRedoBetween,2021.2.3,59.9397844925132,
47,0,47,0,,,,,,,,,,,,,,,,,,,,,,,,,,514.9887174999999,None,profession,63,48,sing,red,512.9737289999998,None,None,512.9737289999998,None,,,,,,,,,,,,,,,,,,,,,,,,,,,,,,,,,,,111 Sing,001,2022_Dec_01_1024,ProdSingRedoBetween,2021.2.3,59.9397844925132,
48,0,48,0,,,,,,,,,,,,,,,,,,,,,,,,,,517.5078106000001,None,surface,66,49,sing,red,515.4993297000001,None,None,515.4993297000001,None,,,,,,,,,,,,,,,,,,,,,,,,,,,,,,,,,,,111 Sing,001,2022_Dec_01_1024,ProdSingRedoBetween,2021.2.3,59.9397844925132,
49,0,49,0,,,,,,,,,,,,,,,,,,,,,,,,,,520.0103521999999,None,finance,61,50,sing,red,518.0111126000002,None,None,518.0111126000002,None,,,,,,,,,,,,,,,,,,,,,,,,,,,,,,,,,,,111 Sing,001,2022_Dec_01_1024,ProdSingRedoBetween,2021.2.3,59.9397844925132,
50,0,50,0,,,,,,,,,,,,,,,,,,,,,,,,,,522.5128700999999,None,broad,21,51,sing,yellow,520.5111726999999,None,None,520.5111726999999,None,,,,,,,,,,,,,,,,,,,,,,,,,,,,,,,,,,,111 Sing,001,2022_Dec_01_1024,ProdSingRedoBetween,2021.2.3,59.9397844925132,
51,0,51,0,,,,,,,,,,,,,,,,,,,,,,,,,,525.0321190999998,None,waste,1,52,sing,yellow,523.0174456,None,None,523.0174456,None,,,,,,,,,,,,,,,,,,,,,,,,,,,,,,,,,,,111 Sing,001,2022_Dec_01_1024,ProdSingRedoBetween,2021.2.3,59.9397844925132,
52,0,52,0,,,,,,,,,,,,,,,,,,,,,,,,,,527.5345997,None,disease,83,53,sing,red,525.5351962999998,None,None,525.5351962999998,None,,,,,,,,,,,,,,,,,,,,,,,,,,,,,,,,,,,111 Sing,001,2022_Dec_01_1024,ProdSingRedoBetween,2021.2.3,59.9397844925132,
53,0,53,0,,,,,,,,,,,,,,,,,,,,,,,,,,530.0536805000002,None,report,12,54,sing,yellow,528.0474923000002,None,None,528.0474923000002,None,,,,,,,,,,,,,,,,,,,,,,,,,,,,,,,,,,,111 Sing,001,2022_Dec_01_1024,ProdSingRedoBetween,2021.2.3,59.9397844925132,
54,0,54,0,,,,,,,,,,,,,,,,,,,,,,,,,,532.5560073000001,None,tough,85,55,sing,red,530.5542231,None,None,530.5542231,None,,,,,,,,,,,,,,,,,,,,,,,,,,,,,,,,,,,111 Sing,001,2022_Dec_01_1024,ProdSingRedoBetween,2021.2.3,59.9397844925132,
55,0,55,0,,,,,,,,,,,,,,,,,,,,,,,,,,535.0754413999998,None,south,89,56,sing,red,533.0640933,None,None,533.0640933,None,,,,,,,,,,,,,,,,,,,,,,,,,,,,,,,,,,,111 Sing,001,2022_Dec_01_1024,ProdSingRedoBetween,2021.2.3,59.9397844925132,
56,0,56,0,,,,,,,,,,,,,,,,,,,,,,,,,,537.5781274999999,None,danger,9,57,sing,yellow,535.5786144999997,None,None,535.5786144999997,None,,,,,,,,,,,,,,,,,,,,,,,,,,,,,,,,,,,111 Sing,001,2022_Dec_01_1024,ProdSingRedoBetween,2021.2.3,59.9397844925132,
57,0,57,0,,,,,,,,,,,,,,,,,,,,,,,,,,540.0972075,None,payment,2,58,sing,yellow,538.0824549999998,None,None,538.0824549999998,None,,,,,,,,,,,,,,,,,,,,,,,,,,,,,,,,,,,111 Sing,001,2022_Dec_01_1024,ProdSingRedoBetween,2021.2.3,59.9397844925132,
58,0,58,0,,,,,,,,,,,,,,,,,,,,,,,,,,542.5995462999999,None,universal,5,59,sing,yellow,540.5985526,None,None,540.5985526,None,,,,,,,,,,,,,,,,,,,,,,,,,,,,,,,,,,,111 Sing,001,2022_Dec_01_1024,ProdSingRedoBetween,2021.2.3,59.9397844925132,
59,0,59,0,,,,,,,,,,,,,,,,,,,,,,,,,,545.1187682,None,education,20,60,sing,yellow,543.1064661999999,None,None,543.1064661999999,None,,,,,,,,,,,,,,,,,,,,,,,,,,,,,,,,,,,111 Sing,001,2022_Dec_01_1024,ProdSingRedoBetween,2021.2.3,59.9397844925132,
60,0,60,0,,,,,,,,,,,,,,,,,,,,,,,,,,547.6212511999997,None,treatment,55,61,sing,blue,545.6192507999999,None,None,545.6192507999999,None,,,,,,,,,,,,,,,,,,,,,,,,,,,,,,,,,,,111 Sing,001,2022_Dec_01_1024,ProdSingRedoBetween,2021.2.3,59.9397844925132,
61,0,61,0,,,,,,,,,,,,,,,,,,,,,,,,,,550.1404836000002,None,whole,87,62,sing,red,548.1258413,None,None,548.1258413,None,,,,,,,,,,,,,,,,,,,,,,,,,,,,,,,,,,,111 Sing,001,2022_Dec_01_1024,ProdSingRedoBetween,2021.2.3,59.9397844925132,
62,0,62,0,,,,,,,,,,,,,,,,,,,,,,,,,,552.6430044999997,None,agency,80,63,sing,red,550.6423580999999,None,None,550.6423580999999,None,,,,,,,,,,,,,,,,,,,,,,,,,,,,,,,,,,,111 Sing,001,2022_Dec_01_1024,ProdSingRedoBetween,2021.2.3,59.9397844925132,
63,0,63,0,,,,,,,,,,,,,,,,,,,,,,,,,,555.1622416999999,None,scale,40,64,sing,blue,553.1529578,None,None,553.1529578,None,,,,,,,,,,,,,,,,,,,,,,,,,,,,,,,,,,,111 Sing,001,2022_Dec_01_1024,ProdSingRedoBetween,2021.2.3,59.9397844925132,
64,0,64,0,,,,,,,,,,,,,,,,,,,,,,,,,,557.6647137,None,country,86,65,sing,red,555.6648457000001,None,None,555.6648457000001,None,,,,,,,,,,,,,,,,,,,,,,,,,,,,,,,,,,,111 Sing,001,2022_Dec_01_1024,ProdSingRedoBetween,2021.2.3,59.9397844925132,
65,0,65,0,,,,,,,,,,,,,,,,,,,,,,,,,,560.183845,None,vision,16,66,sing,yellow,558.1774621,None,None,558.1774621,None,,,,,,,,,,,,,,,,,,,,,,,,,,,,,,,,,,,111 Sing,001,2022_Dec_01_1024,ProdSingRedoBetween,2021.2.3,59.9397844925132,
66,0,66,0,,,,,,,,,,,,,,,,,,,,,,,,,,562.7026716999999,None,answer,75,67,sing,red,560.6882811,None,None,560.6882811,None,,,,,,,,,,,,,,,,,,,,,,,,,,,,,,,,,,,111 Sing,001,2022_Dec_01_1024,ProdSingRedoBetween,2021.2.3,59.9397844925132,
67,0,67,0,,,,,,,,,,,,,,,,,,,,,,,,,,565.2054812000001,None,drama,13,68,sing,yellow,563.2057438000002,None,None,563.2057438000002,None,,,,,,,,,,,,,,,,,,,,,,,,,,,,,,,,,,,111 Sing,001,2022_Dec_01_1024,ProdSingRedoBetween,2021.2.3,59.9397844925132,
68,0,68,0,,,,,,,,,,,,,,,,,,,,,,,,,,567.7078391,None,religion,76,69,sing,red,565.7064224999999,None,None,565.7064224999999,None,,,,,,,,,,,,,,,,,,,,,,,,,,,,,,,,,,,111 Sing,001,2022_Dec_01_1024,ProdSingRedoBetween,2021.2.3,59.9397844925132,
69,0,69,0,,,,,,,,,,,,,,,,,,,,,,,,,,570.2116446,None,session,43,70,sing,blue,568.2110444,None,None,568.2110444,None,,,,,,,,,,,,,,,,,,,,,,,,,,,,,,,,,,,111 Sing,001,2022_Dec_01_1024,ProdSingRedoBetween,2021.2.3,59.9397844925132,
70,0,70,0,,,,,,,,,,,,,,,,,,,,,,,,,,572.7296963999997,None,executive,54,71,sing,blue,570.7271135000001,None,None,570.7271135000001,None,,,,,,,,,,,,,,,,,,,,,,,,,,,,,,,,,,,111 Sing,001,2022_Dec_01_1024,ProdSingRedoBetween,2021.2.3,59.9397844925132,
71,0,71,0,,,,,,,,,,,,,,,,,,,,,,,,,,575.2489872000001,None,shape,53,72,sing,blue,573.2417534000001,None,None,573.2417534000001,None,,,,,,,,,,,,,,,,,,,,,,,,,,,,,,,,,,,111 Sing,001,2022_Dec_01_1024,ProdSingRedoBetween,2021.2.3,59.9397844925132,
72,0,72,0,,,,,,,,,,,,,,,,,,,,,,,,,,577.7681766000001,None,commercial,73,73,sing,red,575.7532281999997,None,None,575.7532281999997,None,,,,,,,,,,,,,,,,,,,,,,,,,,,,,,,,,,,111 Sing,001,2022_Dec_01_1024,ProdSingRedoBetween,2021.2.3,59.9397844925132,
73,0,73,0,,,,,,,,,,,,,,,,,,,,,,,,,,580.2872502,None,principal,47,74,sing,blue,578.2783331999999,None,None,578.2783331999999,None,,,,,,,,,,,,,,,,,,,,,,,,,,,,,,,,,,,111 Sing,001,2022_Dec_01_1024,ProdSingRedoBetween,2021.2.3,59.9397844925132,
74,0,74,0,,,,,,,,,,,,,,,,,,,,,,,,,,582.7897899999998,None,conference,37,75,sing,blue,580.7891242000001,None,None,580.7891242000001,None,,,,,,,,,,,,,,,,,,,,,,,,,,,,,,,,,,,111 Sing,001,2022_Dec_01_1024,ProdSingRedoBetween,2021.2.3,59.9397844925132,
75,0,75,0,,,,,,,,,,,,,,,,,,,,,,,,,,585.2923713999999,None,damage,18,76,sing,yellow,583.2919579999998,None,None,583.2919579999998,None,,,,,,,,,,,,,,,,,,,,,,,,,,,,,,,,,,,111 Sing,001,2022_Dec_01_1024,ProdSingRedoBetween,2021.2.3,59.9397844925132,
76,0,76,0,,,,,,,,,,,,,,,,,,,,,,,,,,587.8115836000002,None,nature,77,77,sing,red,585.7997341,None,None,585.7997341,None,,,,,,,,,,,,,,,,,,,,,,,,,,,,,,,,,,,111 Sing,001,2022_Dec_01_1024,ProdSingRedoBetween,2021.2.3,59.9397844925132,
77,0,77,0,,,,,,,,,,,,,,,,,,,,,,,,,,590.3306284,None,pretty,26,78,sing,yellow,588.3155667000001,None,None,588.3155667000001,None,,,,,,,,,,,,,,,,,,,,,,,,,,,,,,,,,,,111 Sing,001,2022_Dec_01_1024,ProdSingRedoBetween,2021.2.3,59.9397844925132,
78,0,78,0,,,,,,,,,,,,,,,,,,,,,,,,,,592.8497684999998,None,taste,33,79,sing,blue,590.8356663999998,None,None,590.8356663999998,None,,,,,,,,,,,,,,,,,,,,,,,,,,,,,,,,,,,111 Sing,001,2022_Dec_01_1024,ProdSingRedoBetween,2021.2.3,59.9397844925132,
79,0,79,0,,,,,,,,,,,,,,,,,,,,,,,,,,595.3523777999999,None,patient,65,80,sing,red,593.3503501999999,None,None,593.3503501999999,None,,,,,,,,,,,,,,,,,,,,,,,,,,,,,,,,,,,111 Sing,001,2022_Dec_01_1024,ProdSingRedoBetween,2021.2.3,59.9397844925132,
80,0,80,0,,,,,,,,,,,,,,,,,,,,,,,,,,597.8714568999999,None,contract,3,81,sing,yellow,595.8572875999998,None,None,595.8572875999998,None,,,,,,,,,,,,,,,,,,,,,,,,,,,,,,,,,,,111 Sing,001,2022_Dec_01_1024,ProdSingRedoBetween,2021.2.3,59.9397844925132,
81,0,81,0,,,,,,,,,,,,,,,,,,,,,,,,,,600.3907095999998,None,music,57,82,sing,blue,598.3820425999997,None,None,598.3820425999997,None,,,,,,,,,,,,,,,,,,,,,,,,,,,,,,,,,,,111 Sing,001,2022_Dec_01_1024,ProdSingRedoBetween,2021.2.3,59.9397844925132,
82,0,82,0,,,,,,,,,,,,,,,,,,,,,,,,,,602.8932108999998,None,discovery,71,83,sing,red,600.8930375,None,None,600.8930375,None,,,,,,,,,,,,,,,,,,,,,,,,,,,,,,,,,,,111 Sing,001,2022_Dec_01_1024,ProdSingRedoBetween,2021.2.3,59.9397844925132,
83,0,83,0,,,,,,,,,,,,,,,,,,,,,,,,,,605.4123678999999,None,judge,72,84,sing,red,603.4006469000001,None,None,603.4006469000001,None,,,,,,,,,,,,,,,,,,,,,,,,,,,,,,,,,,,111 Sing,001,2022_Dec_01_1024,ProdSingRedoBetween,2021.2.3,59.9397844925132,
84,0,84,0,,,,,,,,,,,,,,,,,,,,,,,,,,607.9148602,None,signal,51,85,sing,blue,605.9128726999998,None,None,605.9128726999998,None,,,,,,,,,,,,,,,,,,,,,,,,,,,,,,,,,,,111 Sing,001,2022_Dec_01_1024,ProdSingRedoBetween,2021.2.3,59.9397844925132,
85,0,85,0,,,,,,,,,,,,,,,,,,,,,,,,,,610.4173403,None,minor,56,86,sing,blue,608.4159501999998,None,None,608.4159501999998,None,,,,,,,,,,,,,,,,,,,,,,,,,,,,,,,,,,,111 Sing,001,2022_Dec_01_1024,ProdSingRedoBetween,2021.2.3,59.9397844925132,
86,0,86,0,,,,,,,,,,,,,,,,,,,,,,,,,,612.9365416999999,None,afternoon,44,87,sing,blue,610.9301151999998,None,None,610.9301151999998,None,,,,,,,,,,,,,,,,,,,,,,,,,,,,,,,,,,,111 Sing,001,2022_Dec_01_1024,ProdSingRedoBetween,2021.2.3,59.9397844925132,
87,0,87,0,,,,,,,,,,,,,,,,,,,,,,,,,,615.4390948,None,height,35,88,sing,blue,613.4369870999999,None,None,613.4369870999999,None,,,,,,,,,,,,,,,,,,,,,,,,,,,,,,,,,,,111 Sing,001,2022_Dec_01_1024,ProdSingRedoBetween,2021.2.3,59.9397844925132,
88,0,88,0,,,,,,,,,,,,,,,,,,,,,,,,,,617.9416142999999,None,concern,59,89,sing,yellow,615.9395209999998,None,None,615.9395209999998,None,,,,,,,,,,,,,,,,,,,,,,,,,,,,,,,,,,,111 Sing,001,2022_Dec_01_1024,ProdSingRedoBetween,2021.2.3,59.9397844925132,
89,0,89,0,,,,,,,,,,,,,,,,,,,,,,,,,,620.4607974999999,None,throw,10,90,sing,yellow,618.4461410999997,None,None,618.4461410999997,None,,,,,,,,,,,,,,,,,,,,,,,,,,,,,,,,,,,111 Sing,001,2022_Dec_01_1024,ProdSingRedoBetween,2021.2.3,59.9397844925132,
,,,,,,,,,,,,,,,,,,,,,,,,,,,,,,,,,,,,,,,,,620.9616575,None,k,198.6314355999998,620.9616575,None,,,,,,,,,,,,,,,,,,,,,,,,,,,,,111 Sing,001,2022_Dec_01_1024,ProdSingRedoBetween,2021.2.3,59.9397844925132,
,,,,0,0,0,0,,,,,,,,,,,,,,,,,,,,,,838.6123859999998,None,,,,,,,,,,,,,,,,,treatment,55,1,sing,old,blue,820.1187504,None,820.1187504,None,4,14.202183000000332,820.1187504,None,14.202183000000332,834.3468434000001,None,834.8586679999999,None,834.8586679999999,None,r,3.7261271999996097,834.8586679999999,None,3.7261271999996097,,,111 Sing,001,2022_Dec_01_1024,ProdSingRedoBetween,2021.2.3,59.9397844925132,
,,,,1,0,1,0,,,,,,,,,,,,,,,,,,,,,,848.8574285999998,None,,,,,,,,,,,,,,,,,angle,126,2,sing,new,null,839.1251745999998,None,839.1251745999998,None,4,6.587715300000127,839.1251745999998,None,6.587715300000127,845.7393318999998,None,846.2575885000001,None,846.2575885000001,None,f,2.575299900000118,846.2575885000001,None,2.575299900000118,,,111 Sing,001,2022_Dec_01_1024,ProdSingRedoBetween,2021.2.3,59.9397844925132,
,,,,2,0,2,0,,,,,,,,,,,,,,,,,,,,,,855.6959647999997,None,,,,,,,,,,,,,,,,,solution,48,3,sing,old,blue,849.3825685000002,None,849.3825685000002,None,6,4.162381000000096,849.3825685000002,None,4.162381000000096,853.5722703000001,None,854.0835867000001,None,854.0835867000001,None,r,1.589262499999677,854.0835867000001,None,1.589262499999677,,,111 Sing,001,2022_Dec_01_1024,ProdSingRedoBetween,2021.2.3,59.9397844925132,
,,,,3,0,3,0,,,,,,,,,,,,,,,,,,,,,,867.6076868,None,,,,,,,,,,,,,,,,,damage,18,4,sing,old,yellow,856.2094232,None,856.2094232,None,6,9.54342110000016,856.2094232,None,9.54342110000016,865.7735526000001,None,866.2731272000001,None,866.2731272000001,None,r,1.3197291000001314,866.2731272000001,None,1.3197291000001314,,,111 Sing,001,2022_Dec_01_1024,ProdSingRedoBetween,2021.2.3,59.9397844925132,
,,,,4,0,4,0,,,,,,,,,,,,,,,,,,,,,,873.0965422999998,None,,,,,,,,,,,,,,,,,public,120,5,sing,new,null,868.1188426999997,None,868.1188426999997,None,6,3.4260960000001432,868.1188426999997,None,3.4260960000001432,871.5649463999998,None,872.0861737,None,872.0861737,None,r,0.9787151999998969,872.0861737,None,0.9787151999998969,,,111 Sing,001,2022_Dec_01_1024,ProdSingRedoBetween,2021.2.3,59.9397844925132,
,,,,5,0,5,0,,,,,,,,,,,,,,,,,,,,,,878.6687569999999,None,,,,,,,,,,,,,,,,,course,116,6,sing,new,null,873.6066348999998,None,873.6066348999998,None,3,2.722371899999871,873.6066348999998,None,2.722371899999871,876.3504324999999,None,876.8559098999999,None,876.8559098999999,None,f,1.7850048000000243,876.8559098999999,None,1.7850048000000243,,,111 Sing,001,2022_Dec_01_1024,ProdSingRedoBetween,2021.2.3,59.9397844925132,
,,,,6,0,6,0,,,,,,,,,,,,,,,,,,,,,,884.5578411000001,None,,,,,,,,,,,,,,,,,style,7,7,sing,old,yellow,879.1741636000002,None,879.1741636000002,None,4,3.290747900000042,879.1741636000002,None,3.290747900000042,882.4963629999997,None,883.0090503000001,None,883.0090503000001,None,f,1.5278685999996924,883.0090503000001,None,1.5278685999996924,,,111 Sing,001,2022_Dec_01_1024,ProdSingRedoBetween,2021.2.3,59.9397844925132,
,,,,7,0,7,0,,,,,,,,,,,,,,,,,,,,,,889.8300021999999,None,,,,,,,,,,,,,,,,,majority,179,8,sing,new,null,885.0589587,None,885.0589587,None,3,2.9739321000001837,885.0589587,None,2.9739321000001837,888.0664312999997,None,888.5789073000001,None,888.5789073000001,None,f,1.2299566000001505,888.5789073000001,None,1.2299566000001505,,,111 Sing,001,2022_Dec_01_1024,ProdSingRedoBetween,2021.2.3,59.9397844925132,
,,,,8,0,8,0,,,,,,,,,,,,,,,,,,,,,,894.3511915999998,None,,,,,,,,,,,,,,,,,crime,100,9,sing,new,null,890.3391898999998,None,890.3391898999998,None,3,2.893905399999767,890.3391898999998,None,2.893905399999767,893.2587333000001,None,893.7713948,None,893.7713948,None,f,0.5574555999996846,893.7713948,None,0.5574555999996846,,,111 Sing,001,2022_Dec_01_1024,ProdSingRedoBetween,2021.2.3,59.9397844925132,
,,,,9,0,9,0,,,,,,,,,,,,,,,,,,,,,,898.4156319999997,None,,,,,,,,,,,,,,,,,carry,8,10,sing,old,yellow,894.8610350999998,None,894.8610350999998,None,3,2.211761900000056,894.8610350999998,None,2.211761900000056,897.1073047999998,None,897.6238355,None,897.6238355,None,f,0.7613240000000587,897.6238355,None,0.7613240000000587,,,111 Sing,001,2022_Dec_01_1024,ProdSingRedoBetween,2021.2.3,59.9397844925132,
,,,,10,0,10,0,,,,,,,,,,,,,,,,,,,,,,904.545948,None,,,,,,,,,,,,,,,,,period,158,11,sing,new,null,898.9350438000001,None,898.9350438000001,None,3,4.0498640000000705,898.9350438000001,None,4.0498640000000705,903.0160501999999,None,903.5334386999998,None,903.5334386999998,None,f,0.9955973999999514,903.5334386999998,None,0.9955973999999514,,,111 Sing,001,2022_Dec_01_1024,ProdSingRedoBetween,2021.2.3,59.9397844925132,
,,,,11,0,11,0,,,,,,,,,,,,,,,,,,,,,,908.9157212,None,,,,,,,,,,,,,,,,,owner,70,12,sing,old,red,905.0489124999999,None,905.0489124999999,None,6,1.8241601999998238,905.0489124999999,None,1.8241601999998238,906.9039539999999,None,907.4197116999999,None,907.4197116999999,None,r,1.4772131999998237,907.4197116999999,None,1.4772131999998237,,,111 Sing,001,2022_Dec_01_1024,ProdSingRedoBetween,2021.2.3,59.9397844925132,
,,,,12,0,12,0,,,,,,,,,,,,,,,,,,,,,,915.2553250000001,None,,,,,,,,,,,,,,,,,society,67,13,sing,old,red,909.4243145999999,None,909.4243145999999,None,5,3.1445161000001463,909.4243145999999,None,3.1445161000001463,912.5890700999998,None,913.1084673,None,913.1084673,None,r,2.124413100000311,913.1084673,None,2.124413100000311,,,111 Sing,001,2022_Dec_01_1024,ProdSingRedoBetween,2021.2.3,59.9397844925132,
,,,,13,0,13,0,,,,,,,,,,,,,,,,,,,,,,922.0787335,None,,,,,,,,,,,,,,,,,generation,167,14,sing,new,null,915.7643527,None,915.7643527,None,2,4.332677800000056,915.7643527,None,4.332677800000056,920.1333398000002,None,920.6483540999998,None,920.6483540999998,None,f,1.4005128000003424,920.6483540999998,None,1.4005128000003424,,,111 Sing,001,2022_Dec_01_1024,ProdSingRedoBetween,2021.2.3,59.9397844925132,
,,,,14,0,14,0,,,,,,,,,,,,,,,,,,,,,,927.4173707999998,None,,,,,,,,,,,,,,,,,volume,171,15,sing,new,null,922.5907025000001,None,922.5907025000001,None,2,2.554125699999986,922.5907025000001,None,2.554125699999986,925.1728748,None,925.6906980999997,None,925.6906980999997,None,f,1.7102156999999352,925.6906980999997,None,1.7102156999999352,,,111 Sing,001,2022_Dec_01_1024,ProdSingRedoBetween,2021.2.3,59.9397844925132,
,,,,15,0,15,0,,,,,,,,,,,,,,,,,,,,,,930.5073965000001,None,,,,,,,,,,,,,,,,,universal,5,16,sing,old,yellow,927.9227276000001,None,927.9227276000001,None,3,1.526206000000002,927.9227276000001,None,1.526206000000002,929.4748667999997,None,929.9873342999999,None,929.9873342999999,None,f,0.4936441999998351,929.9873342999999,None,0.4936441999998351,,,111 Sing,001,2022_Dec_01_1024,ProdSingRedoBetween,2021.2.3,59.9397844925132,
,,,,16,0,16,0,,,,,,,,,,,,,,,,,,,,,,935.6923805000001,None,,,,,,,,,,,,,,,,,month,128,17,sing,new,null,931.0229389000001,None,931.0229389000001,None,3,3.7301603999999315,931.0229389000001,None,3.7301603999999315,934.7818772999999,None,935.2942152999999,None,935.2942152999999,None,f,0.3706961000002593,935.2942152999999,None,0.3706961000002593,,,111 Sing,001,2022_Dec_01_1024,ProdSingRedoBetween,2021.2.3,59.9397844925132,
,,,,17,0,17,0,,,,,,,,,,,,,,,,,,,,,,941.9563299000001,None,,,,,,,,,,,,,,,,,century,22,18,sing,old,yellow,936.2106826999998,None,936.2106826999998,None,6,2.910198600000058,936.2106826999998,None,2.910198600000058,939.1499551000002,None,939.6669238,None,939.6669238,None,r,2.2623161999999866,939.6669238,None,2.2623161999999866,,,111 Sing,001,2022_Dec_01_1024,ProdSingRedoBetween,2021.2.3,59.9397844925132,
,,,,18,0,18,0,,,,,,,,,,,,,,,,,,,,,,944.7514031000001,None,,,,,,,,,,,,,,,,,height,35,19,sing,old,blue,942.4781914,None,942.4781914,None,6,1.6106957000001785,942.4781914,None,1.6106957000001785,944.1175450000001,None,944.6205472000001,None,944.6205472000001,None,r,0.10033070000008593,944.6205472000001,None,0.10033070000008593,,,111 Sing,001,2022_Dec_01_1024,ProdSingRedoBetween,2021.2.3,59.9397844925132,
,,,,19,0,19,0,,,,,,,,,,,,,,,,,,,,,,950.8408721999999,None,,,,,,,,,,,,,,,,,state,163,20,sing,new,null,945.2600112999999,None,945.2600112999999,None,4,3.6527844000002005,945.2600112999999,None,3.6527844000002005,948.9405275999998,None,949.4461531000002,None,949.4461531000002,None,f,1.3786927000001015,949.4461531000002,None,1.3786927000001015,,,111 Sing,001,2022_Dec_01_1024,ProdSingRedoBetween,2021.2.3,59.9397844925132,
,,,,20,0,20,0,,,,,,,,,,,,,,,,,,,,,,953.8606217000001,None,,,,,,,,,,,,,,,,,congress,149,21,sing,new,null,951.3438173999998,None,951.3438173999998,None,3,1.753195400000095,951.3438173999998,None,1.753195400000095,953.1359124999999,None,953.6523726,None,953.6523726,None,f,0.18853679999983797,953.6523726,None,0.18853679999983797,,,111 Sing,001,2022_Dec_01_1024,ProdSingRedoBetween,2021.2.3,59.9397844925132,
,,,,21,0,21,0,,,,,,,,,,,,,,,,,,,,,,959.0341973,None,,,,,,,,,,,,,,,,,running,92,22,sing,new,null,954.3701658999998,None,954.3701658999998,None,2,2.7029035999998996,954.3701658999998,None,2.7029035999998996,957.1031680000001,None,957.6179139000001,None,957.6179139000001,None,f,1.391008900000088,957.6179139000001,None,1.391008900000088,,,111 Sing,001,2022_Dec_01_1024,ProdSingRedoBetween,2021.2.3,59.9397844925132,
,,,,22,0,22,0,,,,,,,,,,,,,,,,,,,,,,963.7427022000002,None,,,,,,,,,,,,,,,,,trash,165,23,sing,new,null,959.5648695999998,None,959.5648695999998,None,3,2.932236799999828,959.5648695999998,None,2.932236799999828,962.5270759999999,None,963.0412087999998,None,963.0412087999998,None,f,0.6796779000001152,963.0412087999998,None,0.6796779000001152,,,111 Sing,001,2022_Dec_01_1024,ProdSingRedoBetween,2021.2.3,59.9397844925132,
,,,,23,0,23,0,,,,,,,,,,,,,,,,,,,,,,968.8088923,None,,,,,,,,,,,,,,,,,right,19,24,sing,old,yellow,964.2695189000001,None,964.2695189000001,None,5,3.4916134999998576,964.2695189000001,None,3.4916134999998576,967.7978302000001,None,968.313107,None,968.313107,None,r,0.47179159999996045,968.313107,None,0.47179159999996045,,,111 Sing,001,2022_Dec_01_1024,ProdSingRedoBetween,2021.2.3,59.9397844925132,
,,,,24,0,24,0,,,,,,,,,,,,,,,,,,,,,,973.4149115,None,,,,,,,,,,,,,,,,,principal,47,25,sing,old,blue,969.3187148000002,None,969.3187148000002,None,6,1.754239399999733,969.3187148000002,None,1.754239399999733,971.1016811,None,971.6156714999997,None,971.6156714999997,None,r,1.769336100000146,971.6156714999997,None,1.769336100000146,,,111 Sing,001,2022_Dec_01_1024,ProdSingRedoBetween,2021.2.3,59.9397844925132,
,,,,25,0,25,0,,,,,,,,,,,,,,,,,,,,,,977.1671740000002,None,,,,,,,,,,,,,,,,,throw,10,26,sing,old,yellow,973.9200476000001,None,973.9200476000001,None,4,1.792862299999797,973.9200476000001,None,1.792862299999797,975.7348705999998,None,976.2546861000001,None,976.2546861000001,None,f,0.8902662000000419,976.2546861000001,None,0.8902662000000419,,,111 Sing,001,2022_Dec_01_1024,ProdSingRedoBetween,2021.2.3,59.9397844925132,
,,,,26,0,26,0,,,,,,,,,,,,,,,,,,,,,,980.7876075999998,None,,,,,,,,,,,,,,,,,defeat,144,27,sing,new,null,977.6832288999999,None,977.6832288999999,None,3,2.253692400000091,977.6832288999999,None,2.253692400000091,979.9572884999998,None,980.4750303000001,None,980.4750303000001,None,f,0.2938702999999805,980.4750303000001,None,0.2938702999999805,,,111 Sing,001,2022_Dec_01_1024,ProdSingRedoBetween,2021.2.3,59.9397844925132,
,,,,27,0,27,0,,,,,,,,,,,,,,,,,,,,,,984.3264064,None,,,,,,,,,,,,,,,,,fight,34,28,sing,old,blue,981.2931509999999,None,981.2931509999999,None,3,1.6357764999997926,981.2931509999999,None,1.6357764999997926,982.9632526,None,983.4770170000002,None,983.4770170000002,None,f,0.8279782999998133,983.4770170000002,None,0.8279782999998133,,,111 Sing,001,2022_Dec_01_1024,ProdSingRedoBetween,2021.2.3,59.9397844925132,
,,,,28,0,28,0,,,,,,,,,,,,,,,,,,,,,,988.2949417,None,,,,,,,,,,,,,,,,,grade,160,29,sing,new,null,984.8538905999999,None,984.8538905999999,None,2,1.8593093999998018,984.8538905999999,None,1.8593093999998018,986.7591496999999,None,987.2607432999998,None,987.2607432999998,None,f,1.0122150000001966,987.2607432999998,None,1.0122150000001966,,,111 Sing,001,2022_Dec_01_1024,ProdSingRedoBetween,2021.2.3,59.9397844925132,
,,,,29,0,29,0,,,,,,,,,,,,,,,,,,,,,,992.1654517000002,None,,,,,,,,,,,,,,,,,substance,79,30,sing,old,red,988.8099750000001,None,988.8099750000001,None,6,1.8789237999999386,988.8099750000001,None,1.8789237999999386,990.7183647000002,None,991.2356985000001,None,991.2356985000001,None,r,0.9093976999997722,991.2356985000001,None,0.9093976999997722,,,111 Sing,001,2022_Dec_01_1024,ProdSingRedoBetween,2021.2.3,59.9397844925132,
,,,,30,0,30,0,,,,,,,,,,,,,,,,,,,,,,996.4717126,None,,,,,,,,,,,,,,,,,waste,1,31,sing,old,yellow,992.6815157000001,None,992.6815157000001,None,3,2.50365150000016,992.6815157000001,None,2.50365150000016,995.2091436000001,None,995.7230986999998,None,995.7230986999998,None,f,0.7258609000000433,995.7230986999998,None,0.7258609000000433,,,111 Sing,001,2022_Dec_01_1024,ProdSingRedoBetween,2021.2.3,59.9397844925132,
,,,,31,0,31,0,,,,,,,,,,,,,,,,,,,,,,1000.2400404999998,None,,,,,,,,,,,,,,,,,fashion,42,32,sing,old,blue,997.0090971,None,997.0090971,None,4,2.263766100000339,997.0090971,None,2.263766100000339,999.2906367,None,999.7951945,None,999.7951945,None,r,0.42177059999994526,999.7951945,None,0.42177059999994526,,,111 Sing,001,2022_Dec_01_1024,ProdSingRedoBetween,2021.2.3,59.9397844925132,
,,,,32,0,32,0,,,,,,,,,,,,,,,,,,,,,,1004.3441530999999,None,,,,,,,,,,,,,,,,,pretty,26,33,sing,old,yellow,1000.7534056999998,None,1000.7534056999998,None,5,2.599561300000005,1000.7534056999998,None,2.599561300000005,1003.3804697999999,None,1003.8940004000001,None,1003.8940004000001,None,r,0.4349626999996872,1003.8940004000001,None,0.4349626999996872,,,111 Sing,001,2022_Dec_01_1024,ProdSingRedoBetween,2021.2.3,59.9397844925132,
,,,,33,0,33,0,,,,,,,,,,,,,,,,,,,,,,1008.4651287000002,None,,,,,,,,,,,,,,,,,country,86,34,sing,old,red,1004.8546775,None,1004.8546775,None,5,2.770226399999956,1004.8546775,None,2.770226399999956,1007.6489720999998,None,1008.1584251999998,None,1008.1584251999998,None,r,0.2824789999999666,1008.1584251999998,None,0.2824789999999666,,,111 Sing,001,2022_Dec_01_1024,ProdSingRedoBetween,2021.2.3,59.9397844925132,
,,,,34,0,34,0,,,,,,,,,,,,,,,,,,,,,,1013.1202675999998,None,,,,,,,,,,,,,,,,,express,62,35,sing,old,red,1008.9747148000001,None,1008.9747148000001,None,4,2.4343128000000434,1008.9747148000001,None,2.4343128000000434,1011.4475932,None,1011.9597648999998,None,1011.9597648999998,None,f,1.1452205999999023,1011.9597648999998,None,1.1452205999999023,,,111 Sing,001,2022_Dec_01_1024,ProdSingRedoBetween,2021.2.3,59.9397844925132,
,,,,35,0,35,0,,,,,,,,,,,,,,,,,,,,,,1017.2632290000001,None,,,,,,,,,,,,,,,,,rapid,173,36,sing,new,null,1013.6241280999998,None,1013.6241280999998,None,3,2.016711199999918,1013.6241280999998,None,2.016711199999918,1015.6897119999999,None,1016.1971238000001,None,1016.1971238000001,None,f,1.0198550999998588,1016.1971238000001,None,1.0198550999998588,,,111 Sing,001,2022_Dec_01_1024,ProdSingRedoBetween,2021.2.3,59.9397844925132,
,,,,36,0,36,0,,,,,,,,,,,,,,,,,,,,,,1021.6312902999998,None,,,,,,,,,,,,,,,,,equipment,107,37,sing,new,null,1017.7815059,None,1017.7815059,None,4,2.2195919999999205,1017.7815059,None,2.2195919999999205,1020.0441553999999,None,1020.5548368,None,1020.5548368,None,r,1.0541511999999784,1020.5548368,None,1.0541511999999784,,,111 Sing,001,2022_Dec_01_1024,ProdSingRedoBetween,2021.2.3,59.9397844925132,
,,,,37,0,37,0,,,,,,,,,,,,,,,,,,,,,,1027.3673973,None,,,,,,,,,,,,,,,,,escape,137,38,sing,new,null,1022.157702,None,1022.157702,None,3,2.7152648999999656,1022.157702,None,2.7152648999999656,1024.9014395,None,1025.4205957999998,None,1025.4205957999998,None,f,1.9162833000000319,1025.4205957999998,None,1.9162833000000319,,,111 Sing,001,2022_Dec_01_1024,ProdSingRedoBetween,2021.2.3,59.9397844925132,
,,,,38,0,38,0,,,,,,,,,,,,,,,,,,,,,,1031.7726440000001,None,,,,,,,,,,,,,,,,,evidence,90,39,sing,new,null,1027.8759095999999,None,1027.8759095999999,None,6,2.50912980000021,1027.8759095999999,None,2.50912980000021,1030.4074335,None,1030.9319672000001,None,1030.9319672000001,None,r,0.8130128000002514,1030.9319672000001,None,0.8130128000002514,,,111 Sing,001,2022_Dec_01_1024,ProdSingRedoBetween,2021.2.3,59.9397844925132,
,,,,39,0,39,0,,,,,,,,,,,,,,,,,,,,,,1037.5609838999999,None,,,,,,,,,,,,,,,,,safety,178,40,sing,new,null,1032.2878187000001,None,1032.2878187000001,None,2,2.82511839999961,1032.2878187000001,None,2.82511839999961,1035.1448375,None,1035.6667635,None,1035.6667635,None,f,1.878099199999724,1035.6667635,None,1.878099199999724,,,111 Sing,001,2022_Dec_01_1024,ProdSingRedoBetween,2021.2.3,59.9397844925132,
,,,,40,0,40,0,,,,,,,,,,,,,,,,,,,,,,1042.3999488,None,,,,,,,,,,,,,,,,,session,43,41,sing,old,blue,1038.0728459000002,None,1038.0728459000002,None,2,1.9921055999998316,1038.0728459000002,None,1.9921055999998316,1040.0854040999998,None,1040.6054669,None,1040.6054669,None,f,1.763686300000245,1040.6054669,None,1.763686300000245,,,111 Sing,001,2022_Dec_01_1024,ProdSingRedoBetween,2021.2.3,59.9397844925132,
,,,,41,0,41,0,,,,,,,,,,,,,,,,,,,,,,1052.2422553000001,None,,,,,,,,,,,,,,,,,victory,96,42,sing,new,null,1042.9081797999997,None,1042.9081797999997,None,3,6.94079499999998,1042.9081797999997,None,6.94079499999998,1049.8858501,None,1050.3947832,None,1050.3947832,None,f,1.8301016000000345,1050.3947832,None,1.8301016000000345,,,111 Sing,001,2022_Dec_01_1024,ProdSingRedoBetween,2021.2.3,59.9397844925132,
,,,,42,0,42,0,,,,,,,,,,,,,,,,,,,,,,1056.2976945999999,None,,,,,,,,,,,,,,,,,level,38,43,sing,old,blue,1052.7519284,None,1052.7519284,None,6,1.6010106999997333,1052.7519284,None,1.6010106999997333,1054.3809889999998,None,1054.9037392999999,None,1054.9037392999999,None,r,1.3694174000002022,1054.9037392999999,None,1.3694174000002022,,,111 Sing,001,2022_Dec_01_1024,ProdSingRedoBetween,2021.2.3,59.9397844925132,
,,,,43,0,43,0,,,,,,,,,,,,,,,,,,,,,,1059.2993522000002,None,,,,,,,,,,,,,,,,,colonel,119,44,sing,new,null,1056.8020412,None,1056.8020412,None,2,1.574906700000156,1056.8020412,None,1.574906700000156,1058.3982271,None,1058.90357,None,1058.90357,None,f,0.3693293999999696,1058.90357,None,0.3693293999999696,,,111 Sing,001,2022_Dec_01_1024,ProdSingRedoBetween,2021.2.3,59.9397844925132,
,,,,44,0,44,0,,,,,,,,,,,,,,,,,,,,,,1066.6943621,None,,,,,,,,,,,,,,,,,incident,6,45,sing,old,yellow,1059.8021395,None,1059.8021395,None,4,4.646862000000056,1059.8021395,None,4.646862000000056,1064.4739789999999,None,1064.9892022999998,None,1064.9892022999998,None,r,1.6759367999998176,1064.9892022999998,None,1.6759367999998176,,,111 Sing,001,2022_Dec_01_1024,ProdSingRedoBetween,2021.2.3,59.9397844925132,
,,,,45,0,45,0,,,,,,,,,,,,,,,,,,,,,,1071.4448014,None,,,,,,,,,,,,,,,,,swift,23,46,sing,old,yellow,1067.2149985,None,1067.2149985,None,4,3.1140551000003143,1067.2149985,None,3.1140551000003143,1070.3634533,None,1070.8835276999998,None,1070.8835276999998,None,r,0.5333897999998953,1070.8835276999998,None,0.5333897999998953,,,111 Sing,001,2022_Dec_01_1024,ProdSingRedoBetween,2021.2.3,59.9397844925132,
,,,,46,0,46,0,,,,,,,,,,,,,,,,,,,,,,1075.5718685000002,None,,,,,,,,,,,,,,,,,committee,88,47,sing,old,red,1071.9552113999998,None,1071.9552113999998,None,3,1.693815000000086,1071.9552113999998,None,1.693815000000086,1073.6853910999998,None,1074.1986025,None,1074.1986025,None,f,1.3464054000000942,1074.1986025,None,1.3464054000000942,,,111 Sing,001,2022_Dec_01_1024,ProdSingRedoBetween,2021.2.3,59.9397844925132,
,,,,47,0,47,0,,,,,,,,,,,,,,,,,,,,,,1081.7723805,None,,,,,,,,,,,,,,,,,break,29,48,sing,old,blue,1076.0850331000001,None,1076.0850331000001,None,2,3.8040123000000676,1076.0850331000001,None,3.8040123000000676,1079.9249676,None,1080.4371949000001,None,1080.4371949000001,None,f,1.3077941999999894,1080.4371949000001,None,1.3077941999999894,,,111 Sing,001,2022_Dec_01_1024,ProdSingRedoBetween,2021.2.3,59.9397844925132,
,,,,48,0,48,0,,,,,,,,,,,,,,,,,,,,,,1087.5107497999998,None,,,,,,,,,,,,,,,,,business,17,49,sing,old,yellow,1082.290038,None,1082.290038,None,4,3.9429174000001694,1082.290038,None,3.9429174000001694,1086.2632512,None,1086.7766662,None,1086.7766662,None,r,0.7042529000000286,1086.7766662,None,0.7042529000000286,,,111 Sing,001,2022_Dec_01_1024,ProdSingRedoBetween,2021.2.3,59.9397844925132,
,,,,49,0,49,0,,,,,,,,,,,,,,,,,,,,,,1091.5648843,None,,,,,,,,,,,,,,,,,motion,49,50,sing,old,blue,1088.0171025,None,1088.0171025,None,2,1.751980999999887,1088.0171025,None,1.751980999999887,1089.8134645999999,None,1090.3159329999999,None,1090.3159329999999,None,f,1.2290296999999555,1090.3159329999999,None,1.2290296999999555,,,111 Sing,001,2022_Dec_01_1024,ProdSingRedoBetween,2021.2.3,59.9397844925132,
,,,,50,0,50,0,,,,,,,,,,,,,,,,,,,,,,1098.0213998,None,,,,,,,,,,,,,,,,,afternoon,44,51,sing,old,blue,1092.0778129999999,None,1092.0778129999999,None,6,3.4991384000004473,1092.0778129999999,None,3.4991384000004473,1095.6093691,None,1096.1229190999998,None,1096.1229190999998,None,r,1.8780461999999716,1096.1229190999998,None,1.8780461999999716,,,111 Sing,001,2022_Dec_01_1024,ProdSingRedoBetween,2021.2.3,59.9397844925132,
,,,,51,0,51,0,,,,,,,,,,,,,,,,,,,,,,1105.7457703,None,,,,,,,,,,,,,,,,,stand,134,52,sing,new,null,1098.5288479,None,1098.5288479,None,2,4.984110299999884,1098.5288479,None,4.984110299999884,1103.5450738999998,None,1104.0515292999999,None,1104.0515292999999,None,f,1.677463500000158,1104.0515292999999,None,1.677463500000158,,,111 Sing,001,2022_Dec_01_1024,ProdSingRedoBetween,2021.2.3,59.9397844925132,
,,,,52,0,52,0,,,,,,,,,,,,,,,,,,,,,,1110.3406319,None,,,,,,,,,,,,,,,,,member,142,53,sing,new,null,1106.2580417999998,None,1106.2580417999998,None,3,3.1191420000000107,1106.2580417999998,None,3.1191420000000107,1109.4077066999998,None,1109.916816,None,1109.916816,None,f,0.39638700000023164,1109.916816,None,0.39638700000023164,,,111 Sing,001,2022_Dec_01_1024,ProdSingRedoBetween,2021.2.3,59.9397844925132,
,,,,53,0,53,0,,,,,,,,,,,,,,,,,,,,,,1115.2233038999998,None,,,,,,,,,,,,,,,,,profession,63,54,sing,old,red,1110.8591566999999,None,1110.8591566999999,None,6,2.438056200000119,1110.8591566999999,None,2.438056200000119,1113.3330651,None,1113.8399276,None,1113.8399276,None,r,1.3612508000001071,1113.8399276,None,1.3612508000001071,,,111 Sing,001,2022_Dec_01_1024,ProdSingRedoBetween,2021.2.3,59.9397844925132,
,,,,54,0,54,0,,,,,,,,,,,,,,,,,,,,,,1119.9681882,None,,,,,,,,,,,,,,,,,agency,80,55,sing,old,red,1115.7280050999998,None,1115.7280050999998,None,5,2.1930684000003566,1115.7280050999998,None,2.1930684000003566,1117.9496706999998,None,1118.4629558000001,None,1118.4629558000001,None,r,1.4822948999999426,1118.4629558000001,None,1.4822948999999426,,,111 Sing,001,2022_Dec_01_1024,ProdSingRedoBetween,2021.2.3,59.9397844925132,
,,,,55,0,55,0,,,,,,,,,,,,,,,,,,,,,,1124.4309708,None,,,,,,,,,,,,,,,,,patient,65,56,sing,old,red,1120.4844477000001,None,1120.4844477000001,None,5,2.932538900000054,1120.4844477000001,None,2.932538900000054,1123.4535600999998,None,1123.9677613999997,None,1123.9677613999997,None,r,0.43337449999989985,1123.9677613999997,None,0.43337449999989985,,,111 Sing,001,2022_Dec_01_1024,ProdSingRedoBetween,2021.2.3,59.9397844925132,
,,,,56,0,56,0,,,,,,,,,,,,,,,,,,,,,,1128.5685103,None,,,,,,,,,,,,,,,,,still,115,57,sing,new,null,1124.9350638,None,1124.9350638,None,2,1.5298963000000185,1124.9350638,None,1.5298963000000185,1126.4926043,None,1127.0004734999998,None,1127.0004734999998,None,f,1.5365200999999615,1127.0004734999998,None,1.5365200999999615,,,111 Sing,001,2022_Dec_01_1024,ProdSingRedoBetween,2021.2.3,59.9397844925132,
,,,,57,0,57,0,,,,,,,,,,,,,,,,,,,,,,1132.6058391000001,None,,,,,,,,,,,,,,,,,religion,76,58,sing,old,red,1129.0780289,None,1129.0780289,None,6,2.69897439999977,1129.0780289,None,2.69897439999977,1131.8074004999999,None,1132.3255456000002,None,1132.3255456000002,None,r,0.25145249999968655,1132.3255456000002,None,0.25145249999968655,,,111 Sing,001,2022_Dec_01_1024,ProdSingRedoBetween,2021.2.3,59.9397844925132,
,,,,58,0,58,0,,,,,,,,,,,,,,,,,,,,,,1135.5922679999999,None,,,,,,,,,,,,,,,,,material,123,59,sing,new,null,1133.1065653,None,1133.1065653,None,3,1.7025076999998419,1133.1065653,None,1.7025076999998419,1134.8260378,None,1135.3314107,None,1135.3314107,None,f,0.22959130000026562,1135.3314107,None,0.22959130000026562,,,111 Sing,001,2022_Dec_01_1024,ProdSingRedoBetween,2021.2.3,59.9397844925132,
,,,,59,0,59,0,,,,,,,,,,,,,,,,,,,,,,1138.9789384,None,,,,,,,,,,,,,,,,,disease,83,60,sing,old,red,1136.1047660999998,None,1136.1047660999998,None,6,1.4402186000002075,1136.1047660999998,None,1.4402186000002075,1137.5621990999998,None,1138.0647123999997,None,1138.0647123999997,None,r,0.8962510000001203,1138.0647123999997,None,0.8962510000001203,,,111 Sing,001,2022_Dec_01_1024,ProdSingRedoBetween,2021.2.3,59.9397844925132,
,,,,60,0,60,0,,,,,,,,,,,,,,,,,,,,,,1142.9861763,None,,,,,,,,,,,,,,,,,hearing,161,61,sing,new,null,1139.4834772999998,None,1139.4834772999998,None,2,2.3095574999997552,1139.4834772999998,None,2.3095574999997552,1141.8228562999998,None,1142.3324744000001,None,1142.3324744000001,None,f,0.6285874000000149,1142.3324744000001,None,0.6285874000000149,,,111 Sing,001,2022_Dec_01_1024,ProdSingRedoBetween,2021.2.3,59.9397844925132,
,,,,61,0,61,0,,,,,,,,,,,,,,,,,,,,,,1147.9376730999998,None,,,,,,,,,,,,,,,,,sound,39,62,sing,old,blue,1143.5035466999998,None,1143.5035466999998,None,3,2.929439099999854,1143.5035466999998,None,2.929439099999854,1146.4545122,None,1146.9604579000002,None,1146.9604579000002,None,f,0.9525474999995822,1146.9604579000002,None,0.9525474999995822,,,111 Sing,001,2022_Dec_01_1024,ProdSingRedoBetween,2021.2.3,59.9397844925132,
,,,,62,0,62,0,,,,,,,,,,,,,,,,,,,,,,1154.1273474,None,,,,,,,,,,,,,,,,,crisis,103,63,sing,new,null,1148.4503506,None,1148.4503506,None,2,3.8627324999997654,1148.4503506,None,3.8627324999997654,1152.3456388999998,None,1152.8651326,None,1152.8651326,None,f,1.2398525999997219,1152.8651326,None,1.2398525999997219,,,111 Sing,001,2022_Dec_01_1024,ProdSingRedoBetween,2021.2.3,59.9397844925132,
,,,,63,0,63,0,,,,,,,,,,,,,,,,,,,,,,1158.2655575999997,None,,,,,,,,,,,,,,,,,scale,40,64,sing,old,blue,1154.6373700999998,None,1154.6373700999998,None,5,2.6996313999998165,1154.6373700999998,None,2.6996313999998165,1157.3670281999998,None,1157.8921537,None,1157.8921537,None,r,0.34886039999992136,1157.8921537,None,0.34886039999992136,,,111 Sing,001,2022_Dec_01_1024,ProdSingRedoBetween,2021.2.3,59.9397844925132,
,,,,64,0,64,0,,,,,,,,,,,,,,,,,,,,,,1162.5888289999998,None,,,,,,,,,,,,,,,,,strain,155,65,sing,new,null,1158.7737699,None,1158.7737699,None,3,1.5232173000003968,1158.7737699,None,1.5232173000003968,1160.3202833999999,None,1160.8399227,None,1160.8399227,None,f,1.7210928999998032,1160.8399227,None,1.7210928999998032,,,111 Sing,001,2022_Dec_01_1024,ProdSingRedoBetween,2021.2.3,59.9397844925132,
,,,,65,0,65,0,,,,,,,,,,,,,,,,,,,,,,1170.2954326,None,,,,,,,,,,,,,,,,,brief,91,66,sing,new,null,1163.1140639,None,1163.1140639,None,2,5.671101800000088,1163.1140639,None,5.671101800000088,1168.8177553,None,1169.3279991999998,None,1169.3279991999998,None,f,0.9450808999999936,1169.3279991999998,None,0.9450808999999936,,,111 Sing,001,2022_Dec_01_1024,ProdSingRedoBetween,2021.2.3,59.9397844925132,
,,,,66,0,66,0,,,,,,,,,,,,,,,,,,,,,,1175.3522991999998,None,,,,,,,,,,,,,,,,,mechanical,94,67,sing,new,null,1170.8146814000002,None,1170.8146814000002,None,2,3.042366000000129,1170.8146814000002,None,3.042366000000129,1173.8852072,None,1174.3978699,None,1174.3978699,None,f,0.9313598999997339,1174.3978699,None,0.9313598999997339,,,111 Sing,001,2022_Dec_01_1024,ProdSingRedoBetween,2021.2.3,59.9397844925132,
,,,,67,0,67,0,,,,,,,,,,,,,,,,,,,,,,1183.2898851999998,None,,,,,,,,,,,,,,,,,minor,56,68,sing,old,blue,1175.8712468999997,None,1175.8712468999997,None,4,5.521907800000008,1175.8712468999997,None,5.521907800000008,1181.4379303,None,1181.9408929,None,1181.9408929,None,r,1.3241421000002447,1181.9408929,None,1.3241421000002447,,,111 Sing,001,2022_Dec_01_1024,ProdSingRedoBetween,2021.2.3,59.9397844925132,
,,,,68,0,68,0,,,,,,,,,,,,,,,,,,,,,,1186.1929233,None,,,,,,,,,,,,,,,,,property,175,69,sing,new,null,1183.8073006,None,1183.8073006,None,3,1.553856700000324,1183.8073006,None,1.553856700000324,1185.4025213,None,1185.9136924999998,None,1185.9136924999998,None,f,0.2633490000002894,1185.9136924999998,None,0.2633490000002894,,,111 Sing,001,2022_Dec_01_1024,ProdSingRedoBetween,2021.2.3,59.9397844925132,
,,,,69,0,69,0,,,,,,,,,,,,,,,,,,,,,,1191.1144203999997,None,,,,,,,,,,,,,,,,,contract,3,70,sing,old,yellow,1186.7054481,None,1186.7054481,None,3,2.0235210000000734,1186.7054481,None,2.0235210000000734,1188.7479757,None,1189.2658083000001,None,1189.2658083000001,None,f,1.8231949999999415,1189.2658083000001,None,1.8231949999999415,,,111 Sing,001,2022_Dec_01_1024,ProdSingRedoBetween,2021.2.3,59.9397844925132,
,,,,70,0,70,0,,,,,,,,,,,,,,,,,,,,,,1195.8359028999998,None,,,,,,,,,,,,,,,,,discovery,71,71,sing,old,red,1191.6271695,None,1191.6271695,None,6,3.4298452000002726,1191.6271695,None,3.4298452000002726,1195.0904374000002,None,1195.6055197,None,1195.6055197,None,r,0.21156859999973676,1195.6055197,None,0.21156859999973676,,,111 Sing,001,2022_Dec_01_1024,ProdSingRedoBetween,2021.2.3,59.9397844925132,
,,,,71,0,71,0,,,,,,,,,,,,,,,,,,,,,,1198.9555936000002,None,,,,,,,,,,,,,,,,,working,172,72,sing,new,null,1196.3579089999998,None,1196.3579089999998,None,3,1.4270621999999094,1196.3579089999998,None,1.4270621999999094,1197.8267317,None,1198.3413812999997,None,1198.3413812999997,None,f,0.5875878000001649,1198.3413812999997,None,0.5875878000001649,,,111 Sing,001,2022_Dec_01_1024,ProdSingRedoBetween,2021.2.3,59.9397844925132,
,,,,72,0,72,0,,,,,,,,,,,,,,,,,,,,,,1202.3282430999998,None,,,,,,,,,,,,,,,,,answer,75,73,sing,old,red,1199.4686803999998,None,1199.4686803999998,None,2,1.3883138000001054,1199.4686803999998,None,1.3883138000001054,1200.8778724999997,None,1201.39147,None,1201.39147,None,f,0.905632500000138,1201.39147,None,0.905632500000138,,,111 Sing,001,2022_Dec_01_1024,ProdSingRedoBetween,2021.2.3,59.9397844925132,
,,,,73,0,73,0,,,,,,,,,,,,,,,,,,,,,,1206.9467865000001,None,,,,,,,,,,,,,,,,,whole,87,74,sing,old,red,1202.8604572999998,None,1202.8604572999998,None,2,1.9004913000003398,1202.8604572999998,None,1.9004913000003398,1204.7796429,None,1205.2983442999998,None,1205.2983442999998,None,f,1.6226927000002433,1205.2983442999998,None,1.6226927000002433,,,111 Sing,001,2022_Dec_01_1024,ProdSingRedoBetween,2021.2.3,59.9397844925132,
,,,,74,0,74,0,,,,,,,,,,,,,,,,,,,,,,1214.222124,None,,,,,,,,,,,,,,,,,bureau,168,75,sing,new,null,1207.4560803,None,1207.4560803,None,1,4.768966199999795,1207.4560803,None,4.768966199999795,1212.2576015999998,None,1212.7694662999997,None,1212.7694662999997,None,f,1.4317530999996961,1212.7694662999997,None,1.4317530999996961,,,111 Sing,001,2022_Dec_01_1024,ProdSingRedoBetween,2021.2.3,59.9397844925132,
,,,,75,0,75,0,,,,,,,,,,,,,,,,,,,,,,1218.5251268000002,None,,,,,,,,,,,,,,,,,goose,140,76,sing,new,null,1214.7279030999998,None,1214.7279030999998,None,2,2.5130299000002196,1214.7279030999998,None,2.5130299000002196,1217.2584762000001,None,1217.7621125,None,1217.7621125,None,f,0.7349076999998942,1217.7621125,None,0.7349076999998942,,,111 Sing,001,2022_Dec_01_1024,ProdSingRedoBetween,2021.2.3,59.9397844925132,
,,,,76,0,76,0,,,,,,,,,,,,,,,,,,,,,,1225.1674245999998,None,,,,,,,,,,,,,,,,,budget,24,77,sing,old,yellow,1219.028326,None,1219.028326,None,3,4.620758999999907,1219.028326,None,4.620758999999907,1223.6825598,None,1224.2009923,None,1224.2009923,None,f,0.9362069999997402,1224.2009923,None,0.9362069999997402,,,111 Sing,001,2022_Dec_01_1024,ProdSingRedoBetween,2021.2.3,59.9397844925132,
,,,,77,0,77,0,,,,,,,,,,,,,,,,,,,,,,1229.3537195,None,,,,,,,,,,,,,,,,,raise,102,78,sing,new,null,1225.6952295,None,1225.6952295,None,2,2.2258121999998366,1225.6952295,None,2.2258121999998366,1227.9541807,None,1228.4758146,None,1228.4758146,None,f,0.8533984000000601,1228.4758146,None,0.8533984000000601,,,111 Sing,001,2022_Dec_01_1024,ProdSingRedoBetween,2021.2.3,59.9397844925132,
,,,,78,0,78,0,,,,,,,,,,,,,,,,,,,,,,1234.6912511,None,,,,,,,,,,,,,,,,,judge,72,79,sing,old,red,1229.8531511,None,1229.8531511,None,6,3.3159679000000324,1229.8531511,None,3.3159679000000324,1233.1971818000002,None,1233.7088221999998,None,1233.7088221999998,None,r,0.956212499999765,1233.7088221999998,None,0.956212499999765,,,111 Sing,001,2022_Dec_01_1024,ProdSingRedoBetween,2021.2.3,59.9397844925132,
,,,,79,0,79,0,,,,,,,,,,,,,,,,,,,,,,1240.6137407,None,,,,,,,,,,,,,,,,,individual,95,80,sing,new,null,1235.1982389999998,None,1235.1982389999998,None,4,3.410867799999778,1235.1982389999998,None,3.410867799999778,1238.6359463,None,1239.1524936,None,1239.1524936,None,f,1.4326031000000512,1239.1524936,None,1.4326031000000512,,,111 Sing,001,2022_Dec_01_1024,ProdSingRedoBetween,2021.2.3,59.9397844925132,
,,,,80,0,80,0,,,,,,,,,,,,,,,,,,,,,,1247.1243565999998,None,,,,,,,,,,,,,,,,,expansion,101,81,sing,new,null,1241.1209502000002,None,1241.1209502000002,None,1,4.10406600000033,1241.1209502000002,None,4.10406600000033,1245.2548461000001,None,1245.7733745,None,1245.7733745,None,f,1.3318754000001718,1245.7733745,None,1.3318754000001718,,,111 Sing,001,2022_Dec_01_1024,ProdSingRedoBetween,2021.2.3,59.9397844925132,
,,,,81,0,81,0,,,,,,,,,,,,,,,,,,,,,,1256.3793710999998,None,,,,,,,,,,,,,,,,,youth,111,82,sing,new,null,1247.6526899,None,1247.6526899,None,2,6.88434849999976,1247.6526899,None,6.88434849999976,1254.5628290999998,None,1255.0807936,None,1255.0807936,None,f,1.272268300000178,1255.0807936,None,1.272268300000178,,,111 Sing,001,2022_Dec_01_1024,ProdSingRedoBetween,2021.2.3,59.9397844925132,
,,,,82,0,82,0,,,,,,,,,,,,,,,,,,,,,,1260.2501361,None,,,,,,,,,,,,,,,,,surface,66,83,sing,old,red,1256.8835177,None,1256.8835177,None,2,2.317508099999941,1256.8835177,None,2.317508099999941,1259.2335735000001,None,1259.7400039,None,1259.7400039,None,f,0.4850171000002774,1259.7400039,None,0.4850171000002774,,,111 Sing,001,2022_Dec_01_1024,ProdSingRedoBetween,2021.2.3,59.9397844925132,
,,,,83,0,83,0,,,,,,,,,,,,,,,,,,,,,,1263.8713434000001,None,,,,,,,,,,,,,,,,,write,118,84,sing,new,null,1260.7606516,None,1260.7606516,None,2,1.9765348000000813,1260.7606516,None,1.9765348000000813,1262.7609444,None,1263.2769229,None,1263.2769229,None,f,0.56419330000017,1263.2769229,None,0.56419330000017,,,111 Sing,001,2022_Dec_01_1024,ProdSingRedoBetween,2021.2.3,59.9397844925132,
,,,,84,0,84,0,,,,,,,,,,,,,,,,,,,,,,1270.3267633,None,,,,,,,,,,,,,,,,,signal,51,85,sing,old,blue,1264.3769633000002,None,1264.3769633000002,None,3,3.98406470000009,1264.3769633000002,None,3.98406470000009,1268.3928449999999,None,1268.895673,None,1268.895673,None,f,1.4013895000002776,1268.895673,None,1.4013895000002776,,,111 Sing,001,2022_Dec_01_1024,ProdSingRedoBetween,2021.2.3,59.9397844925132,
,,,,85,0,85,0,,,,,,,,,,,,,,,,,,,,,,1273.5008545,None,,,,,,,,,,,,,,,,,space,170,86,sing,new,null,1270.8318284000002,None,1270.8318284000002,None,1,1.649454699999751,1270.8318284000002,None,1.649454699999751,1272.5227522999999,None,1273.0316280000002,None,1273.0316280000002,None,f,0.44967110000015964,1273.0316280000002,None,0.44967110000015964,,,111 Sing,001,2022_Dec_01_1024,ProdSingRedoBetween,2021.2.3,59.9397844925132,
,,,,86,0,86,0,,,,,,,,,,,,,,,,,,,,,,1277.5683801999999,None,,,,,,,,,,,,,,,,,character,132,87,sing,new,null,1274.0240611999998,None,1274.0240611999998,None,2,2.1292530000000625,1274.0240611999998,None,2.1292530000000625,1276.1894004,None,1276.7025626,None,1276.7025626,None,f,0.8346548999998049,1276.7025626,None,0.8346548999998049,,,111 Sing,001,2022_Dec_01_1024,ProdSingRedoBetween,2021.2.3,59.9397844925132,
,,,,87,0,87,0,,,,,,,,,,,,,,,,,,,,,,1280.8373262,None,,,,,,,,,,,,,,,,,birth,151,88,sing,new,null,1278.0714391000001,None,1278.0714391000001,None,2,1.90570869999965,1278.0714391000001,None,1.90570869999965,1280.0105269,None,1280.5211955,None,1280.5211955,None,f,0.29584539999996196,1280.5211955,None,0.29584539999996196,,,111 Sing,001,2022_Dec_01_1024,ProdSingRedoBetween,2021.2.3,59.9397844925132,
,,,,88,0,88,0,,,,,,,,,,,,,,,,,,,,,,1285.4252677,None,,,,,,,,,,,,,,,,,finish,147,89,sing,new,null,1281.3443951,None,1281.3443951,None,3,2.128653900000245,1281.3443951,None,2.128653900000245,1283.4980210999997,None,1284.0142280999999,None,1284.0142280999999,None,r,1.3868203000001813,1284.0142280999999,None,1.3868203000001813,,,111 Sing,001,2022_Dec_01_1024,ProdSingRedoBetween,2021.2.3,59.9397844925132,
,,,,89,0,89,0,,,,,,,,,,,,,,,,,,,,,,1292.3487801,None,,,,,,,,,,,,,,,,,beginning,27,90,sing,old,yellow,1285.9366523999997,None,1285.9366523999997,None,2,4.712441399999989,1285.9366523999997,None,4.712441399999989,1290.6834296000002,None,1291.2075331,None,1291.2075331,None,f,1.1215408999996725,1291.2075331,None,1.1215408999996725,,,111 Sing,001,2022_Dec_01_1024,ProdSingRedoBetween,2021.2.3,59.9397844925132,
,,,,90,0,90,0,,,,,,,,,,,,,,,,,,,,,,1297.6728300999998,None,,,,,,,,,,,,,,,,,degree,162,91,sing,new,null,1292.8632131999998,None,1292.8632131999998,None,1,3.858074100000067,1292.8632131999998,None,3.858074100000067,1296.7420653999998,None,1297.2540493000001,None,1297.2540493000001,None,f,0.39503489999970043,1297.2540493000001,None,0.39503489999970043,,,111 Sing,001,2022_Dec_01_1024,ProdSingRedoBetween,2021.2.3,59.9397844925132,
,,,,91,0,91,0,,,,,,,,,,,,,,,,,,,,,,1302.4932315,None,,,,,,,,,,,,,,,,,mankind,81,92,sing,old,red,1298.2028925,None,1298.2028925,None,4,2.7264303000001746,1298.2028925,None,2.7264303000001746,1300.9677080000001,None,1301.4828446000001,None,1301.4828446000001,None,r,0.9822559999997793,1301.4828446000001,None,0.9822559999997793,,,111 Sing,001,2022_Dec_01_1024,ProdSingRedoBetween,2021.2.3,59.9397844925132,
,,,,92,0,92,0,,,,,,,,,,,,,,,,,,,,,,1308.9654758000001,None,,,,,,,,,,,,,,,,,design,0,93,sing,old,yellow,1303.0083518000001,None,1303.0083518000001,None,2,2.4328403999998045,1303.0083518000001,None,2.4328403999998045,1305.4623616,None,1305.9649961999999,None,1305.9649961999999,None,f,2.97991090000005,1305.9649961999999,None,2.97991090000005,,,111 Sing,001,2022_Dec_01_1024,ProdSingRedoBetween,2021.2.3,59.9397844925132,
,,,,93,0,93,0,,,,,,,,,,,,,,,,,,,,,,1312.9248938,None,,,,,,,,,,,,,,,,,cross,50,94,sing,old,blue,1309.4837733,None,1309.4837733,None,6,2.5174379000000044,1309.4837733,None,2.5174379000000044,1312.0317283999998,None,1312.5411361000001,None,1312.5411361000001,None,r,0.3562045999997281,1312.5411361000001,None,0.3562045999997281,,,111 Sing,001,2022_Dec_01_1024,ProdSingRedoBetween,2021.2.3,59.9397844925132,
,,,,94,0,94,0,,,,,,,,,,,,,,,,,,,,,,1324.6143859,None,,,,,,,,,,,,,,,,,capital,46,95,sing,old,blue,1313.4449282,None,1313.4449282,None,5,9.180167800000163,1313.4449282,None,9.180167800000163,1322.6508917,None,1323.1710789999997,None,1323.1710789999997,None,r,1.422145200000159,1323.1710789999997,None,1.422145200000159,,,111 Sing,001,2022_Dec_01_1024,ProdSingRedoBetween,2021.2.3,59.9397844925132,
,,,,95,0,95,0,,,,,,,,,,,,,,,,,,,,,,1328.6223357,None,,,,,,,,,,,,,,,,,candidate,152,96,sing,new,null,1325.1237170999998,None,1325.1237170999998,None,1,1.7893388000002233,1325.1237170999998,None,1.7893388000002233,1326.9361085,None,1327.4533413,None,1327.4533413,None,f,1.1479584000003342,1327.4533413,None,1.1479584000003342,,,111 Sing,001,2022_Dec_01_1024,ProdSingRedoBetween,2021.2.3,59.9397844925132,
,,,,96,0,96,0,,,,,,,,,,,,,,,,,,,,,,1332.2782785999998,None,,,,,,,,,,,,,,,,,partner,166,97,sing,new,null,1329.1434126999998,None,1329.1434126999998,None,2,1.8736392000000706,1329.1434126999998,None,1.8736392000000706,1331.0389587,None,1331.5441500000002,None,1331.5441500000002,None,f,0.6970856000002641,1331.5441500000002,None,0.6970856000002641,,,111 Sing,001,2022_Dec_01_1024,ProdSingRedoBetween,2021.2.3,59.9397844925132,
,,,,97,0,97,0,,,,,,,,,,,,,,,,,,,,,,1335.5586438,None,,,,,,,,,,,,,,,,,leader,124,98,sing,new,null,1332.7968646999998,None,1332.7968646999998,None,2,1.7244219999997767,1332.7968646999998,None,1.7244219999997767,1334.546953,None,1335.0583769,None,1335.0583769,None,f,0.47070979999989504,1335.0583769,None,0.47070979999989504,,,111 Sing,001,2022_Dec_01_1024,ProdSingRedoBetween,2021.2.3,59.9397844925132,
,,,,98,0,98,0,,,,,,,,,,,,,,,,,,,,,,1339.5040236,None,,,,,,,,,,,,,,,,,revolution,145,99,sing,new,null,1336.0726144999999,None,1336.0726144999999,None,1,2.5765697000001637,1336.0726144999999,None,2.5765697000001637,1338.6876148000001,None,1339.1989945999999,None,1339.1989945999999,None,f,0.27423510000016904,1339.1989945999999,None,0.27423510000016904,,,111 Sing,001,2022_Dec_01_1024,ProdSingRedoBetween,2021.2.3,59.9397844925132,
,,,,99,0,99,0,,,,,,,,,,,,,,,,,,,,,,1346.5864013999999,None,,,,,,,,,,,,,,,,,suggestion,84,100,sing,old,red,1340.0291257,None,1340.0291257,None,2,5.347965700000259,1340.0291257,None,5.347965700000259,1345.4111641,None,1345.9295862,None,1345.9295862,None,f,0.6314810999997462,1345.9295862,None,0.6314810999997462,,,111 Sing,001,2022_Dec_01_1024,ProdSingRedoBetween,2021.2.3,59.9397844925132,
,,,,100,0,100,0,,,,,,,,,,,,,,,,,,,,,,1350.0243635000002,None,,,,,,,,,,,,,,,,,orchestra,146,101,sing,new,null,1347.0985554999997,None,1347.0985554999997,None,1,1.9425936000002366,1347.0985554999997,None,1.9425936000002366,1349.0734736999998,None,1349.5783086000001,None,1349.5783086000001,None,f,0.4148664000003919,1349.5783086000001,None,0.4148664000003919,,,111 Sing,001,2022_Dec_01_1024,ProdSingRedoBetween,2021.2.3,59.9397844925132,
,,,,101,0,101,0,,,,,,,,,,,,,,,,,,,,,,1355.7455667,None,,,,,,,,,,,,,,,,,payment,2,102,sing,old,yellow,1350.5288812999997,None,1350.5288812999997,None,3,3.896488099999715,1350.5288812999997,None,3.896488099999715,1354.4525254999999,None,1354.9637579,None,1354.9637579,None,f,0.7653503999999884,1354.9637579,None,0.7653503999999884,,,111 Sing,001,2022_Dec_01_1024,ProdSingRedoBetween,2021.2.3,59.9397844925132,
,,,,102,0,102,0,,,,,,,,,,,,,,,,,,,,,,1358.866598,None,,,,,,,,,,,,,,,,,narrow,133,103,sing,new,null,1356.2581752,None,1356.2581752,None,1,1.8388976000001094,1356.2581752,None,1.8388976000001094,1358.119474,None,1358.6403698,None,1358.6403698,None,f,0.20076289999997243,1358.6403698,None,0.20076289999997243,,,111 Sing,001,2022_Dec_01_1024,ProdSingRedoBetween,2021.2.3,59.9397844925132,
,,,,103,0,103,0,,,,,,,,,,,,,,,,,,,,,,1364.6211620999998,None,,,,,,,,,,,,,,,,,prime,112,104,sing,new,null,1359.3704008999998,None,1359.3704008999998,None,3,3.81469879999986,1359.3704008999998,None,3.81469879999986,1363.2097410000001,None,1363.723884,None,1363.723884,None,f,0.8692299999997886,1363.723884,None,0.8692299999997886,,,111 Sing,001,2022_Dec_01_1024,ProdSingRedoBetween,2021.2.3,59.9397844925132,
,,,,104,0,104,0,,,,,,,,,,,,,,,,,,,,,,1369.2420953,None,,,,,,,,,,,,,,,,,frank,52,105,sing,old,blue,1365.1314137,None,1365.1314137,None,6,2.6296667999999954,1365.1314137,None,2.6296667999999954,1367.7948676,None,1368.3144908,None,1368.3144908,None,r,0.9105334999999286,1368.3144908,None,0.9105334999999286,,,111 Sing,001,2022_Dec_01_1024,ProdSingRedoBetween,2021.2.3,59.9397844925132,
,,,,105,0,105,0,,,,,,,,,,,,,,,,,,,,,,1377.1669416,None,,,,,,,,,,,,,,,,,nature,77,106,sing,old,red,1369.7558494999998,None,1369.7558494999998,None,3,5.829240900000059,1369.7558494999998,None,5.829240900000059,1375.6154292,None,1376.1212302,None,1376.1212302,None,f,1.0158501000000797,1376.1212302,None,1.0158501000000797,,,111 Sing,001,2022_Dec_01_1024,ProdSingRedoBetween,2021.2.3,59.9397844925132,
,,,,106,0,106,0,,,,,,,,,,,,,,,,,,,,,,1380.4067630999998,None,,,,,,,,,,,,,,,,,spoke,104,107,sing,new,null,1377.6830684000001,None,1377.6830684000001,None,2,1.7982650999997531,1377.6830684000001,None,1.7982650999997531,1379.5115503000002,None,1380.0199499999999,None,1380.0199499999999,None,f,0.35727040000028865,1380.0199499999999,None,0.35727040000028865,,,111 Sing,001,2022_Dec_01_1024,ProdSingRedoBetween,2021.2.3,59.9397844925132,
,,,,107,0,107,0,,,,,,,,,,,,,,,,,,,,,,1384.4242786,None,,,,,,,,,,,,,,,,,conference,37,108,sing,old,blue,1380.9288944,None,1380.9288944,None,5,2.5763084000000163,1380.9288944,None,2.5763084000000163,1383.5286193000002,None,1384.046554,None,1384.046554,None,r,0.3625234000001001,1384.046554,None,0.3625234000001001,,,111 Sing,001,2022_Dec_01_1024,ProdSingRedoBetween,2021.2.3,59.9397844925132,
,,,,108,0,108,0,,,,,,,,,,,,,,,,,,,,,,1389.1289679000001,None,,,,,,,,,,,,,,,,,music,57,109,sing,old,blue,1384.9352608999998,None,1384.9352608999998,None,6,3.226166999999805,1384.9352608999998,None,3.226166999999805,1388.1899826,None,1388.7000858000001,None,1388.7000858000001,None,r,0.4129432999998244,1388.7000858000001,None,0.4129432999998244,,,111 Sing,001,2022_Dec_01_1024,ProdSingRedoBetween,2021.2.3,59.9397844925132,
,,,,109,0,109,0,,,,,,,,,,,,,,,,,,,,,,1392.6343785,None,,,,,,,,,,,,,,,,,oxygen,11,110,sing,old,yellow,1389.6400620999998,None,1389.6400620999998,None,6,2.0490900999998303,1389.6400620999998,None,2.0490900999998303,1391.7268936,None,1392.2369227999998,None,1392.2369227999998,None,r,0.38023070000008374,1392.2369227999998,None,0.38023070000008374,,,111 Sing,001,2022_Dec_01_1024,ProdSingRedoBetween,2021.2.3,59.9397844925132,
,,,,110,0,110,0,,,,,,,,,,,,,,,,,,,,,,1396.6698114,None,,,,,,,,,,,,,,,,,nation,4,111,sing,old,yellow,1393.1528223999999,None,1393.1528223999999,None,6,2.7523136999998314,1393.1528223999999,None,2.7523136999998314,1395.9431163999998,None,1396.4584658999997,None,1396.4584658999997,None,r,0.18255730000009862,1396.4584658999997,None,0.18255730000009862,,,111 Sing,001,2022_Dec_01_1024,ProdSingRedoBetween,2021.2.3,59.9397844925132,
,,,,111,0,111,0,,,,,,,,,,,,,,,,,,,,,,1400.9740923,None,,,,,,,,,,,,,,,,,finance,61,112,sing,old,red,1397.1797680999998,None,1397.1797680999998,None,4,2.2613203999999314,1397.1797680999998,None,2.2613203999999314,1399.4581576,None,1399.9783005999998,None,1399.9783005999998,None,f,0.9668867999998838,1399.9783005999998,None,0.9668867999998838,,,111 Sing,001,2022_Dec_01_1024,ProdSingRedoBetween,2021.2.3,59.9397844925132,
,,,,112,0,112,0,,,,,,,,,,,,,,,,,,,,,,1404.3942496999998,None,,,,,,,,,,,,,,,,,education,20,113,sing,old,yellow,1401.4835788,None,1401.4835788,None,2,1.8934086999997817,1401.4835788,None,1.8934086999997817,1403.3963887999998,None,1403.9153403,None,1403.9153403,None,f,0.45375490000014906,1403.9153403,None,0.45375490000014906,,,111 Sing,001,2022_Dec_01_1024,ProdSingRedoBetween,2021.2.3,59.9397844925132,
,,,,113,0,113,0,,,,,,,,,,,,,,,,,,,,,,1407.8658044,None,,,,,,,,,,,,,,,,,charter,105,114,sing,new,null,1404.9052781,None,1404.9052781,None,1,2.024052700000084,1404.9052781,None,2.024052700000084,1406.9576861,None,1407.4644471000001,None,1407.4644471000001,None,f,0.37688440000010814,1407.4644471000001,None,0.37688440000010814,,,111 Sing,001,2022_Dec_01_1024,ProdSingRedoBetween,2021.2.3,59.9397844925132,
,,,,114,0,114,0,,,,,,,,,,,,,,,,,,,,,,1413.3363037999998,None,,,,,,,,,,,,,,,,,fellow,153,115,sing,new,null,1408.3814861,None,1408.3814861,None,2,3.9476981000002525,1408.3814861,None,3.9476981000002525,1412.3632377999998,None,1412.8803274000002,None,1412.8803274000002,None,f,0.4248575999999957,1412.8803274000002,None,0.4248575999999957,,,111 Sing,001,2022_Dec_01_1024,ProdSingRedoBetween,2021.2.3,59.9397844925132,
,,,,115,0,115,0,,,,,,,,,,,,,,,,,,,,,,1420.9440623,None,,,,,,,,,,,,,,,,,entrance,131,116,sing,new,null,1413.8491715,None,1413.8491715,None,2,2.5439079000002494,1413.8491715,None,2.5439079000002494,1416.4239416,None,1416.9271525,None,1416.9271525,None,r,4.0019420000003265,1416.9271525,None,4.0019420000003265,,,111 Sing,001,2022_Dec_01_1024,ProdSingRedoBetween,2021.2.3,59.9397844925132,
,,,,116,0,116,0,,,,,,,,,,,,,,,,,,,,,,1424.9822722999997,None,,,,,,,,,,,,,,,,,scene,121,117,sing,new,null,1421.4488840999998,None,1421.4488840999998,None,3,2.6242553000001863,1421.4488840999998,None,2.6242553000001863,1424.1009608999998,None,1424.6220164000001,None,1424.6220164000001,None,f,0.3312477999998009,1424.6220164000001,None,0.3312477999998009,,,111 Sing,001,2022_Dec_01_1024,ProdSingRedoBetween,2021.2.3,59.9397844925132,
,,,,117,0,117,0,,,,,,,,,,,,,,,,,,,,,,1428.1935423,None,,,,,,,,,,,,,,,,,empty,30,118,sing,old,blue,1425.4922777000002,None,1425.4922777000002,None,2,1.8048318000001018,1425.4922777000002,None,1.8048318000001018,1427.3192537999998,None,1427.8400726,None,1427.8400726,None,f,0.3293441000000712,1427.8400726,None,0.3293441000000712,,,111 Sing,001,2022_Dec_01_1024,ProdSingRedoBetween,2021.2.3,59.9397844925132,
,,,,118,0,118,0,,,,,,,,,,,,,,,,,,,,,,1433.7068352000001,None,,,,,,,,,,,,,,,,,burden,129,119,sing,new,null,1428.7126524999999,None,1428.7126524999999,None,2,3.952452700000322,1428.7126524999999,None,3.952452700000322,1432.688901,None,1433.1962631000001,None,1433.1962631000001,None,f,0.4848538000001099,1433.1962631000001,None,0.4848538000001099,,,111 Sing,001,2022_Dec_01_1024,ProdSingRedoBetween,2021.2.3,59.9397844925132,
,,,,119,0,119,0,,,,,,,,,,,,,,,,,,,,,,1437.1269834,None,,,,,,,,,,,,,,,,,quarter,150,120,sing,new,null,1434.2206403,None,1434.2206403,None,1,1.524600400000054,1434.2206403,None,1.524600400000054,1435.7804565000001,None,1436.301286,None,1436.301286,None,f,0.7958486000002267,1436.301286,None,0.7958486000002267,,,111 Sing,001,2022_Dec_01_1024,ProdSingRedoBetween,2021.2.3,59.9397844925132,
,,,,120,0,120,0,,,,,,,,,,,,,,,,,,,,,,1442.0158332,None,,,,,,,,,,,,,,,,,reach,169,121,sing,new,null,1437.6414567000002,None,1437.6414567000002,None,1,3.26359390000016,1437.6414567000002,None,3.26359390000016,1440.9317443999998,None,1441.4357697,None,1441.4357697,None,f,0.5493097000003218,1441.4357697,None,0.5493097000003218,,,111 Sing,001,2022_Dec_01_1024,ProdSingRedoBetween,2021.2.3,59.9397844925132,
,,,,121,0,121,0,,,,,,,,,,,,,,,,,,,,,,1448.4883191999998,None,,,,,,,,,,,,,,,,,question,78,122,sing,old,red,1442.5325735000001,None,1442.5325735000001,None,5,4.668593399999736,1442.5325735000001,None,4.668593399999736,1447.2271415,None,1447.7396393999998,None,1447.7396393999998,None,r,0.7334642000000713,1447.7396393999998,None,0.7334642000000713,,,111 Sing,001,2022_Dec_01_1024,ProdSingRedoBetween,2021.2.3,59.9397844925132,
,,,,122,0,122,0,,,,,,,,,,,,,,,,,,,,,,1452.1272562999998,None,,,,,,,,,,,,,,,,,court,45,123,sing,old,blue,1448.9974013,None,1448.9974013,None,4,1.9717248999995718,1448.9974013,None,1.9717248999995718,1450.9919796999998,None,1451.5005677999998,None,1451.5005677999998,None,r,0.6045413000001645,1451.5005677999998,None,0.6045413000001645,,,111 Sing,001,2022_Dec_01_1024,ProdSingRedoBetween,2021.2.3,59.9397844925132,
,,,,123,0,123,0,,,,,,,,,,,,,,,,,,,,,,1455.8789471,None,,,,,,,,,,,,,,,,,broad,21,124,sing,old,yellow,1452.6518013999998,None,1452.6518013999998,None,4,2.133412500000304,1452.6518013999998,None,2.133412500000304,1454.8130065999999,None,1455.3301582,None,1455.3301582,None,r,0.5269601999998486,1455.3301582,None,0.5269601999998486,,,111 Sing,001,2022_Dec_01_1024,ProdSingRedoBetween,2021.2.3,59.9397844925132,
,,,,124,0,124,0,,,,,,,,,,,,,,,,,,,,,,1460.9674163,None,,,,,,,,,,,,,,,,,commercial,73,125,sing,old,red,1456.3886112,None,1456.3886112,None,4,3.2446359000000484,1456.3886112,None,3.2446359000000484,1459.6503586999997,None,1460.1531271999997,None,1460.1531271999997,None,r,0.7919891000001371,1460.1531271999997,None,0.7919891000001371,,,111 Sing,001,2022_Dec_01_1024,ProdSingRedoBetween,2021.2.3,59.9397844925132,
,,,,125,0,125,0,,,,,,,,,,,,,,,,,,,,,,1465.7888514,None,,,,,,,,,,,,,,,,,report,12,126,sing,old,yellow,1461.4832501,None,1461.4832501,None,2,2.2540169000003516,1461.4832501,None,2.2540169000003516,1463.7651169,None,1464.2723904999998,None,1464.2723904999998,None,f,1.496719899999789,1464.2723904999998,None,1.496719899999789,,,111 Sing,001,2022_Dec_01_1024,ProdSingRedoBetween,2021.2.3,59.9397844925132,
,,,,126,0,126,0,,,,,,,,,,,,,,,,,,,,,,1469.9981121,None,,,,,,,,,,,,,,,,,personnel,98,127,sing,new,null,1466.2988007999998,None,1466.2988007999998,None,2,1.4944075000003068,1466.2988007999998,None,1.4944075000003068,1467.8291080999998,None,1468.3415503,None,1468.3415503,None,f,1.6278462999998737,1468.3415503,None,1.6278462999998737,,,111 Sing,001,2022_Dec_01_1024,ProdSingRedoBetween,2021.2.3,59.9397844925132,
,,,,127,0,127,0,,,,,,,,,,,,,,,,,,,,,,1475.9377856,None,,,,,,,,,,,,,,,,,death,15,128,sing,old,yellow,1470.5221658,None,1470.5221658,None,6,3.662981299999956,1470.5221658,None,3.662981299999956,1474.2143381,None,1474.7236684,None,1474.7236684,None,r,1.189828000000034,1474.7236684,None,1.189828000000034,,,111 Sing,001,2022_Dec_01_1024,ProdSingRedoBetween,2021.2.3,59.9397844925132,
,,,,128,0,128,0,,,,,,,,,,,,,,,,,,,,,,1479.2689986999999,None,,,,,,,,,,,,,,,,,engineer,156,129,sing,new,null,1476.4560692,None,1476.4560692,None,1,1.8891131000000314,1476.4560692,None,1.8891131000000314,1478.3735430000002,None,1478.8885378999998,None,1478.8885378999998,None,f,0.3605976000003466,1478.8885378999998,None,0.3605976000003466,,,111 Sing,001,2022_Dec_01_1024,ProdSingRedoBetween,2021.2.3,59.9397844925132,
,,,,129,0,129,0,,,,,,,,,,,,,,,,,,,,,,1484.9246004000001,None,,,,,,,,,,,,,,,,,heavy,135,130,sing,new,null,1479.7830792,None,1479.7830792,None,1,1.2260780999999952,1479.7830792,None,1.2260780999999952,1481.0425998,None,1481.5583993,None,1481.5583993,None,f,3.3386733000002096,1481.5583993,None,3.3386733000002096,,,111 Sing,001,2022_Dec_01_1024,ProdSingRedoBetween,2021.2.3,59.9397844925132,
,,,,130,0,130,0,,,,,,,,,,,,,,,,,,,,,,1488.7285352,None,,,,,,,,,,,,,,,,,opening,138,131,sing,new,null,1485.4392884999997,None,1485.4392884999997,None,2,2.041975800000273,1485.4392884999997,None,2.041975800000273,1487.5258935000002,None,1488.0292003,None,1488.0292003,None,f,0.6759253000000172,1488.0292003,None,0.6759253000000172,,,111 Sing,001,2022_Dec_01_1024,ProdSingRedoBetween,2021.2.3,59.9397844925132,
,,,,131,0,131,0,,,,,,,,,,,,,,,,,,,,,,1493.2886997,None,,,,,,,,,,,,,,,,,people,28,132,sing,old,yellow,1489.2412921,None,1489.2412921,None,4,2.599831499999709,1489.2412921,None,2.599831499999709,1491.8680614,None,1492.3897349999997,None,1492.3897349999997,None,f,0.8675705000000562,1492.3897349999997,None,0.8675705000000562,,,111 Sing,001,2022_Dec_01_1024,ProdSingRedoBetween,2021.2.3,59.9397844925132,
,,,,132,0,132,0,,,,,,,,,,,,,,,,,,,,,,1498.6059804000001,None,,,,,,,,,,,,,,,,,executive,54,133,sing,old,blue,1493.8087824,None,1493.8087824,None,2,2.8883872000001247,1493.8087824,None,2.8883872000001247,1496.7282282,None,1497.2457401000001,None,1497.2457401000001,None,f,1.3394367999999304,1497.2457401000001,None,1.3394367999999304,,,111 Sing,001,2022_Dec_01_1024,ProdSingRedoBetween,2021.2.3,59.9397844925132,
,,,,133,0,133,0,,,,,,,,,,,,,,,,,,,,,,1501.9918171,None,,,,,,,,,,,,,,,,,machinery,148,134,sing,new,null,1499.1055146999997,None,1499.1055146999997,None,1,1.855669300000045,1499.1055146999997,None,1.855669300000045,1500.9976155,None,1501.5130522,None,1501.5130522,None,f,0.4480823999997483,1501.5130522,None,0.4480823999997483,,,111 Sing,001,2022_Dec_01_1024,ProdSingRedoBetween,2021.2.3,59.9397844925132,
,,,,134,0,134,0,,,,,,,,,,,,,,,,,,,,,,1507.5974066999997,None,,,,,,,,,,,,,,,,,brilliant,74,135,sing,old,red,1502.5035850999998,None,1502.5035850999998,None,1,4.249702699999943,1502.5035850999998,None,4.249702699999943,1506.7928355999998,None,1507.3025874,None,1507.3025874,None,f,0.2745535999997628,1507.3025874,None,0.2745535999997628,,,111 Sing,001,2022_Dec_01_1024,ProdSingRedoBetween,2021.2.3,59.9397844925132,
,,,,135,0,135,0,,,,,,,,,,,,,,,,,,,,,,1512.5035407,None,,,,,,,,,,,,,,,,,drama,13,136,sing,old,yellow,1508.1083932000001,None,1508.1083932000001,None,2,3.6446876999998494,1508.1083932000001,None,3.6446876999998494,1511.7687262,None,1512.2732434999998,None,1512.2732434999998,None,f,0.20792149999988396,1512.2732434999998,None,0.20792149999988396,,,111 Sing,001,2022_Dec_01_1024,ProdSingRedoBetween,2021.2.3,59.9397844925132,
,,,,136,0,136,0,,,,,,,,,,,,,,,,,,,,,,1515.121557,None,,,,,,,,,,,,,,,,,tough,85,137,sing,old,red,1513.0115111999999,None,1513.0115111999999,None,2,1.1656729999999698,1513.0115111999999,None,1.1656729999999698,1514.2113325999999,None,1514.7212786,None,1514.7212786,None,f,0.3838170000003629,1514.7212786,None,0.3838170000003629,,,111 Sing,001,2022_Dec_01_1024,ProdSingRedoBetween,2021.2.3,59.9397844925132,
,,,,137,0,137,0,,,,,,,,,,,,,,,,,,,,,,1520.2947900999998,None,,,,,,,,,,,,,,,,,region,69,138,sing,old,red,1515.6342642999998,None,1515.6342642999998,None,5,2.7588783999999578,1515.6342642999998,None,2.7588783999999578,1518.4092722,None,1518.9179156,None,1518.9179156,None,r,1.355341899999985,1518.9179156,None,1.355341899999985,,,111 Sing,001,2022_Dec_01_1024,ProdSingRedoBetween,2021.2.3,59.9397844925132,
,,,,138,0,138,0,,,,,,,,,,,,,,,,,,,,,,1524.2139143999998,None,,,,,,,,,,,,,,,,,appeal,154,139,sing,new,null,1520.7997221,None,1520.7997221,None,3,1.4414209999999912,1520.7997221,None,1.4414209999999912,1522.2634143999999,None,1522.7689159000001,None,1522.7689159000001,None,f,1.4162853000002542,1522.7689159000001,None,1.4162853000002542,,,111 Sing,001,2022_Dec_01_1024,ProdSingRedoBetween,2021.2.3,59.9397844925132,
,,,,139,0,139,0,,,,,,,,,,,,,,,,,,,,,,1527.7006003000001,None,,,,,,,,,,,,,,,,,husband,164,140,sing,new,null,1524.722726,None,1524.722726,None,1,1.8224033999999847,1524.722726,None,1.8224033999999847,1526.5696036,None,1527.0835802000001,None,1527.0835802000001,None,f,0.5896164000000681,1527.0835802000001,None,0.5896164000000681,,,111 Sing,001,2022_Dec_01_1024,ProdSingRedoBetween,2021.2.3,59.9397844925132,
,,,,140,0,140,0,,,,,,,,,,,,,,,,,,,,,,1532.5721407,None,,,,,,,,,,,,,,,,,message,36,141,sing,old,blue,1528.2189561,None,1528.2189561,None,5,3.33412109999972,1528.2189561,None,3.33412109999972,1531.5728946999998,None,1532.0784267,None,1532.0784267,None,r,0.4666729000000487,1532.0784267,None,0.4666729000000487,,,111 Sing,001,2022_Dec_01_1024,ProdSingRedoBetween,2021.2.3,59.9397844925132,
,,,,141,0,141,0,,,,,,,,,,,,,,,,,,,,,,1535.7087547,None,,,,,,,,,,,,,,,,,south,89,142,sing,old,red,1533.0828304000001,None,1533.0828304000001,None,2,1.6303323999995882,1533.0828304000001,None,1.6303323999995882,1534.7433145999998,None,1535.2581949,None,1535.2581949,None,f,0.43095320000020365,1535.2581949,None,0.43095320000020365,,,111 Sing,001,2022_Dec_01_1024,ProdSingRedoBetween,2021.2.3,59.9397844925132,
,,,,142,0,142,0,,,,,,,,,,,,,,,,,,,,,,1542.5841955,None,,,,,,,,,,,,,,,,,power,125,143,sing,new,null,1536.2172028,None,1536.2172028,None,4,4.655937099999846,1536.2172028,None,4.655937099999846,1540.9002842999998,None,1541.4146488000001,None,1541.4146488000001,None,f,1.1465373999999429,1541.4146488000001,None,1.1465373999999429,,,111 Sing,001,2022_Dec_01_1024,ProdSingRedoBetween,2021.2.3,59.9397844925132,
,,,,143,0,143,0,,,,,,,,,,,,,,,,,,,,,,1548.87172,None,,,,,,,,,,,,,,,,,travel,136,144,sing,new,null,1543.1137680000002,None,1543.1137680000002,None,2,2.935298800000055,1543.1137680000002,None,2.935298800000055,1546.0741011999999,None,1546.5863908000001,None,1546.5863908000001,None,f,2.254794600000423,1546.5863908000001,None,2.254794600000423,,,111 Sing,001,2022_Dec_01_1024,ProdSingRedoBetween,2021.2.3,59.9397844925132,
,,,,144,0,144,0,,,,,,,,,,,,,,,,,,,,,,1554.1620168,None,,,,,,,,,,,,,,,,,concern,59,145,sing,old,yellow,1549.3799138,None,1549.3799138,None,1,3.7174243999998,1549.3799138,None,3.7174243999998,1553.1317183,None,1553.6519678999998,None,1553.6519678999998,None,f,0.4932227999997849,1553.6519678999998,None,0.4932227999997849,,,111 Sing,001,2022_Dec_01_1024,ProdSingRedoBetween,2021.2.3,59.9397844925132,
,,,,145,0,145,0,,,,,,,,,,,,,,,,,,,,,,1557.2803774,None,,,,,,,,,,,,,,,,,voice,174,146,sing,new,null,1554.6710741000002,None,1554.6710741000002,None,1,1.3220774000001256,1554.6710741000002,None,1.3220774000001256,1556.0138542999998,None,1556.5204607,None,1556.5204607,None,f,0.7367289999997411,1556.5204607,None,0.7367289999997411,,,111 Sing,001,2022_Dec_01_1024,ProdSingRedoBetween,2021.2.3,59.9397844925132,
,,,,146,0,146,0,,,,,,,,,,,,,,,,,,,,,,1566.4395034999998,None,,,,,,,,,,,,,,,,,captain,177,147,sing,new,null,1557.7938095999998,None,1557.7938095999998,None,2,7.759417400000075,1557.7938095999998,None,7.759417400000075,1565.5793132999997,None,1566.0943735,None,1566.0943735,None,f,0.3147666999998364,1566.0943735,None,0.3147666999998364,,,111 Sing,001,2022_Dec_01_1024,ProdSingRedoBetween,2021.2.3,59.9397844925132,
,,,,147,0,147,0,,,,,,,,,,,,,,,,,,,,,,1570.3433363999998,None,,,,,,,,,,,,,,,,,point,109,148,sing,new,null,1566.9439265,None,1566.9439265,None,2,2.3131962999996176,1566.9439265,None,2.3131962999996176,1569.2756863999998,None,1569.7895634000001,None,1569.7895634000001,None,f,0.531739000000016,1569.7895634000001,None,0.531739000000016,,,111 Sing,001,2022_Dec_01_1024,ProdSingRedoBetween,2021.2.3,59.9397844925132,
,,,,148,0,148,0,,,,,,,,,,,,,,,,,,,,,,1575.2650368,None,,,,,,,,,,,,,,,,,story,157,149,sing,new,null,1570.8538614,None,1570.8538614,None,1,3.691291799999817,1570.8538614,None,3.691291799999817,1574.5683530000001,None,1575.0890494,None,1575.0890494,None,f,0.16019990000040707,1575.0890494,None,0.16019990000040707,,,111 Sing,001,2022_Dec_01_1024,ProdSingRedoBetween,2021.2.3,59.9397844925132,
,,,,149,0,149,0,,,,,,,,,,,,,,,,,,,,,,1580.1948164,None,,,,,,,,,,,,,,,,,track,25,150,sing,old,yellow,1575.7829563999999,None,1575.7829563999999,None,5,2.1702572000003784,1575.7829563999999,None,2.1702572000003784,1577.9873263999998,None,1578.5062739,None,1578.5062739,None,r,1.66298740000002,1578.5062739,None,1.66298740000002,,,111 Sing,001,2022_Dec_01_1024,ProdSingRedoBetween,2021.2.3,59.9397844925132,
,,,,150,0,150,0,,,,,,,,,,,,,,,,,,,,,,1583.2563614,None,,,,,,,,,,,,,,,,,device,32,151,sing,old,blue,1580.7099488,None,1580.7099488,None,3,1.6512422000000697,1580.7099488,None,1.6512422000000697,1582.3920689000001,None,1582.9095736999998,None,1582.9095736999998,None,f,0.3316101999998864,1582.9095736999998,None,0.3316101999998864,,,111 Sing,001,2022_Dec_01_1024,ProdSingRedoBetween,2021.2.3,59.9397844925132,
,,,,151,0,151,0,,,,,,,,,,,,,,,,,,,,,,1587.7451663000002,None,,,,,,,,,,,,,,,,,provision,108,152,sing,new,null,1583.7692542,None,1583.7692542,None,1,2.6958323999997447,1583.7692542,None,2.6958323999997447,1586.4951700000001,None,1587.0165705,None,1587.0165705,None,f,0.6967614999998659,1587.0165705,None,0.6967614999998659,,,111 Sing,001,2022_Dec_01_1024,ProdSingRedoBetween,2021.2.3,59.9397844925132,
,,,,152,0,152,0,,,,,,,,,,,,,,,,,,,,,,1591.3657981000001,None,,,,,,,,,,,,,,,,,enemy,139,153,sing,new,null,1588.2507425,None,1588.2507425,None,1,1.6945940999999038,1588.2507425,None,1.6945940999999038,1589.9766415999998,None,1590.4824178,None,1590.4824178,None,f,0.8632153999997172,1590.4824178,None,0.8632153999997172,,,111 Sing,001,2022_Dec_01_1024,ProdSingRedoBetween,2021.2.3,59.9397844925132,
,,,,153,0,153,0,,,,,,,,,,,,,,,,,,,,,,1594.4175007,None,,,,,,,,,,,,,,,,,community,176,154,sing,new,null,1591.8731121,None,1591.8731121,None,2,1.6161191999999573,1591.8731121,None,1.6161191999999573,1593.5240906999998,None,1594.0375808999997,None,1594.0375808999997,None,f,0.36360229999991134,1594.0375808999997,None,0.36360229999991134,,,111 Sing,001,2022_Dec_01_1024,ProdSingRedoBetween,2021.2.3,59.9397844925132,
,,,,154,0,154,0,,,,,,,,,,,,,,,,,,,,,,1601.7747969000002,None,,,,,,,,,,,,,,,,,industry,31,155,sing,old,blue,1594.9286934000002,None,1594.9286934000002,None,6,5.984501600000385,1594.9286934000002,None,5.984501600000385,1600.9453893,None,1601.4639339999999,None,1601.4639339999999,None,r,0.28923530000020037,1601.4639339999999,None,0.28923530000020037,,,111 Sing,001,2022_Dec_01_1024,ProdSingRedoBetween,2021.2.3,59.9397844925132,
,,,,155,0,155,0,,,,,,,,,,,,,,,,,,,,,,1607.7160945,None,,,,,,,,,,,,,,,,,shape,53,156,sing,old,blue,1602.2833661999998,None,1602.2833661999998,None,3,3.2058145000000877,1602.2833661999998,None,3.2058145000000877,1605.5133603999998,None,1606.012941,None,1606.012941,None,r,1.676195099999859,1606.012941,None,1.676195099999859,,,111 Sing,001,2022_Dec_01_1024,ProdSingRedoBetween,2021.2.3,59.9397844925132,
,,,,156,0,156,0,,,,,,,,,,,,,,,,,,,,,,1611.4344161999998,None,,,,,,,,,,,,,,,,,platform,117,157,sing,new,null,1608.2441438,None,1608.2441438,None,1,2.413138599999911,1608.2441438,None,2.413138599999911,1610.6836938000001,None,1611.1921711,None,1611.1921711,None,f,0.21706529999983104,1611.1921711,None,0.21706529999983104,,,111 Sing,001,2022_Dec_01_1024,ProdSingRedoBetween,2021.2.3,59.9397844925132,
,,,,157,0,157,0,,,,,,,,,,,,,,,,,,,,,,1614.8053037,None,,,,,,,,,,,,,,,,,surprise,58,158,sing,old,blue,1611.9505579000001,None,1611.9505579000001,None,2,1.7146856999997908,1611.9505579000001,None,1.7146856999997908,1613.6990987,None,1614.2041461,None,1614.2041461,None,f,0.5810781000000134,1614.2041461,None,0.5810781000000134,,,111 Sing,001,2022_Dec_01_1024,ProdSingRedoBetween,2021.2.3,59.9397844925132,
,,,,158,0,158,0,,,,,,,,,,,,,,,,,,,,,,1618.0577506,None,,,,,,,,,,,,,,,,,murder,122,159,sing,new,null,1615.3219593999997,None,1615.3219593999997,None,1,1.7432074000003013,1615.3219593999997,None,1.7432074000003013,1617.0899257,None,1617.5974087999998,None,1617.5974087999998,None,f,0.4438398000002053,1617.5974087999998,None,0.4438398000002053,,,111 Sing,001,2022_Dec_01_1024,ProdSingRedoBetween,2021.2.3,59.9397844925132,
,,,,159,0,159,0,,,,,,,,,,,,,,,,,,,,,,1623.7634887999998,None,,,,,,,,,,,,,,,,,resistance,97,160,sing,new,null,1618.5613238,None,1618.5613238,None,2,2.3520770000000084,1618.5613238,None,2.3520770000000084,1620.9536309,None,1621.4633648,None,1621.4633648,None,f,2.2738381999997728,1621.4633648,None,2.2738381999997728,,,111 Sing,001,2022_Dec_01_1024,ProdSingRedoBetween,2021.2.3,59.9397844925132,
,,,,160,0,160,0,,,,,,,,,,,,,,,,,,,,,,1629.8767795999997,None,,,,,,,,,,,,,,,,,measure,130,161,sing,new,null,1624.278311,None,1624.278311,None,3,3.498917999999776,1624.278311,None,3.498917999999776,1627.8078750999998,None,1628.3181512,None,1628.3181512,None,f,1.5312942000000476,1628.3181512,None,1.5312942000000476,,,111 Sing,001,2022_Dec_01_1024,ProdSingRedoBetween,2021.2.3,59.9397844925132,
,,,,161,0,161,0,,,,,,,,,,,,,,,,,,,,,,1634.2906865999998,None,,,,,,,,,,,,,,,,,dance,14,162,sing,old,yellow,1630.3991882,None,1630.3991882,None,2,2.8019991999999547,1630.3991882,None,2.8019991999999547,1633.2228609,None,1633.7263567,None,1633.7263567,None,f,0.5388389999998253,1633.7263567,None,0.5388389999998253,,,111 Sing,001,2022_Dec_01_1024,ProdSingRedoBetween,2021.2.3,59.9397844925132,
,,,,162,0,162,0,,,,,,,,,,,,,,,,,,,,,,1637.6940369999998,None,,,,,,,,,,,,,,,,,poetry,127,163,sing,new,null,1634.8036118,None,1634.8036118,None,2,1.773612200000116,1634.8036118,None,1.773612200000116,1636.6033676000002,None,1637.1129468999998,None,1637.1129468999998,None,f,0.5602897999997367,1637.1129468999998,None,0.5602897999997367,,,111 Sing,001,2022_Dec_01_1024,ProdSingRedoBetween,2021.2.3,59.9397844925132,
,,,,163,0,163,0,,,,,,,,,,,,,,,,,,,,,,1643.7385693,None,,,,,,,,,,,,,,,,,color,82,164,sing,old,red,1638.2036844,None,1638.2036844,None,4,3.285530600000129,1638.2036844,None,3.285530600000129,1641.5212023999998,None,1642.0318507000002,None,1642.0318507000002,None,r,1.6734710999999152,1642.0318507000002,None,1.6734710999999152,,,111 Sing,001,2022_Dec_01_1024,ProdSingRedoBetween,2021.2.3,59.9397844925132,
,,,,164,0,164,0,,,,,,,,,,,,,,,,,,,,,,1648.1558566999997,None,,,,,,,,,,,,,,,,,listen,60,165,sing,old,red,1644.2521791,None,1644.2521791,None,1,1.7650935000001482,1644.2521791,None,1.7650935000001482,1646.0462711,None,1646.5547416,None,1646.5547416,None,f,1.574625499999911,1646.5547416,None,1.574625499999911,,,111 Sing,001,2022_Dec_01_1024,ProdSingRedoBetween,2021.2.3,59.9397844925132,
,,,,165,0,165,0,,,,,,,,,,,,,,,,,,,,,,1651.8280123,None,,,,,,,,,,,,,,,,,emergency,110,166,sing,new,null,1648.6597293,None,1648.6597293,None,1,1.7494301000001542,1648.6597293,None,1.7494301000001542,1650.4416648000001,None,1650.9461147000002,None,1650.9461147000002,None,f,0.855163199999879,1650.9461147000002,None,0.855163199999879,,,111 Sing,001,2022_Dec_01_1024,ProdSingRedoBetween,2021.2.3,59.9397844925132,
,,,,166,0,166,0,,,,,,,,,,,,,,,,,,,,,,1654.8610758999998,None,,,,,,,,,,,,,,,,,exchange,106,167,sing,new,null,1652.3469424999998,None,1652.3469424999998,None,2,1.4945308999999725,1652.3469424999998,None,1.4945308999999725,1653.8741684000001,None,1654.3820225,None,1654.3820225,None,f,0.45115390000000843,1654.3820225,None,0.45115390000000843,,,111 Sing,001,2022_Dec_01_1024,ProdSingRedoBetween,2021.2.3,59.9397844925132,
,,,,167,0,167,0,,,,,,,,,,,,,,,,,,,,,,1662.1852512,None,,,,,,,,,,,,,,,,,present,159,168,sing,new,null,1655.3721007,None,1655.3721007,None,1,5.189137800000026,1655.3721007,None,5.189137800000026,1660.590635,None,1661.1091396000002,None,1661.1091396000002,None,f,1.0600134999999682,1661.1091396000002,None,1.0600134999999682,,,111 Sing,001,2022_Dec_01_1024,ProdSingRedoBetween,2021.2.3,59.9397844925132,
,,,,168,0,168,0,,,,,,,,,,,,,,,,,,,,,,1670.1264698,None,,,,,,,,,,,,,,,,,danger,9,169,sing,old,yellow,1662.6958058999999,None,1662.6958058999999,None,1,6.385343299999931,1662.6958058999999,None,6.385343299999931,1669.1101454,None,1669.6135728,None,1669.6135728,None,f,0.4916329000002406,1669.6135728,None,0.4916329000002406,,,111 Sing,001,2022_Dec_01_1024,ProdSingRedoBetween,2021.2.3,59.9397844925132,
,,,,169,0,169,0,,,,,,,,,,,,,,,,,,,,,,1676.2005722999997,None,,,,,,,,,,,,,,,,,review,141,170,sing,new,null,1670.6434195000002,None,1670.6434195000002,None,2,4.157987199999752,1670.6434195000002,None,4.157987199999752,1674.8435894,None,1675.3530901,None,1675.3530901,None,f,0.8161295999998401,1675.3530901,None,0.8161295999998401,,,111 Sing,001,2022_Dec_01_1024,ProdSingRedoBetween,2021.2.3,59.9397844925132,
,,,,170,0,170,0,,,,,,,,,,,,,,,,,,,,,,1682.7057239,None,,,,,,,,,,,,,,,,,impact,64,171,sing,old,red,1676.7160788,None,1676.7160788,None,3,3.76512589999993,1676.7160788,None,3.76512589999993,1680.5068278999997,None,1681.0252839,None,1681.0252839,None,r,1.663951200000156,1681.0252839,None,1.663951200000156,,,111 Sing,001,2022_Dec_01_1024,ProdSingRedoBetween,2021.2.3,59.9397844925132,
,,,,171,0,171,0,,,,,,,,,,,,,,,,,,,,,,1686.4343709999998,None,,,,,,,,,,,,,,,,,interior,41,172,sing,old,blue,1683.2210421999998,None,1683.2210421999998,None,4,2.1881352000000334,1683.2210421999998,None,2.1881352000000334,1685.4293377,None,1685.9423925,None,1685.9423925,None,r,0.46698060000016994,1685.9423925,None,0.46698060000016994,,,111 Sing,001,2022_Dec_01_1024,ProdSingRedoBetween,2021.2.3,59.9397844925132,
,,,,172,0,172,0,,,,,,,,,,,,,,,,,,,,,,1690.1964011999999,None,,,,,,,,,,,,,,,,,vision,16,173,sing,old,yellow,1686.9631295,None,1686.9631295,None,4,2.5023235000003297,1686.9631295,None,2.5023235000003297,1689.507678,None,1690.0167729999998,None,1690.0167729999998,None,r,0.16044359999978042,1690.0167729999998,None,0.16044359999978042,,,111 Sing,001,2022_Dec_01_1024,ProdSingRedoBetween,2021.2.3,59.9397844925132,
,,,,173,0,173,0,,,,,,,,,,,,,,,,,,,,,,1694.8678144,None,,,,,,,,,,,,,,,,,taste,33,174,sing,old,blue,1690.7070479,None,1690.7070479,None,1,2.086421599999994,1690.7070479,None,2.086421599999994,1692.8271144,None,1693.3371450999998,None,1693.3371450999998,None,f,1.512170900000001,1693.3371450999998,None,1.512170900000001,,,111 Sing,001,2022_Dec_01_1024,ProdSingRedoBetween,2021.2.3,59.9397844925132,
,,,,174,0,174,0,,,,,,,,,,,,,,,,,,,,,,1697.7551044000002,None,,,,,,,,,,,,,,,,,front,99,175,sing,new,null,1695.3805708,None,1695.3805708,None,2,1.4688670999998976,1695.3805708,None,1.4688670999998976,1696.8755612,None,1697.3924336,None,1697.3924336,None,f,0.3367817000003015,1697.3924336,None,0.3367817000003015,,,111 Sing,001,2022_Dec_01_1024,ProdSingRedoBetween,2021.2.3,59.9397844925132,
,,,,175,0,175,0,,,,,,,,,,,,,,,,,,,,,,1707.4635706999998,None,,,,,,,,,,,,,,,,,position,114,176,sing,new,null,1698.2808507999998,None,1698.2808507999998,None,2,7.120292000000063,1698.2808507999998,None,7.120292000000063,1705.4294000999998,None,1705.9357925,None,1705.9357925,None,f,1.49747619999971,1705.9357925,None,1.49747619999971,,,111 Sing,001,2022_Dec_01_1024,ProdSingRedoBetween,2021.2.3,59.9397844925132,
,,,,176,0,176,0,,,,,,,,,,,,,,,,,,,,,,1710.7003088000001,None,,,,,,,,,,,,,,,,,harmony,93,177,sing,new,null,1707.9687797000001,None,1707.9687797000001,None,1,1.6807408999998188,1707.9687797000001,None,1.6807408999998188,1709.6788292,None,1710.1831736,None,1710.1831736,None,f,0.4980499999996937,1710.1831736,None,0.4980499999996937,,,111 Sing,001,2022_Dec_01_1024,ProdSingRedoBetween,2021.2.3,59.9397844925132,
,,,,177,0,177,0,,,,,,,,,,,,,,,,,,,,,,1714.2103505999999,None,,,,,,,,,,,,,,,,,company,68,178,sing,old,red,1711.2091971999998,None,1711.2091971999998,None,5,2.072225200000048,1711.2091971999998,None,2.072225200000048,1713.3088616999999,None,1713.8220889999998,None,1713.8220889999998,None,r,0.355269700000008,1713.8220889999998,None,0.355269700000008,,,111 Sing,001,2022_Dec_01_1024,ProdSingRedoBetween,2021.2.3,59.9397844925132,
,,,,178,0,178,0,,,,,,,,,,,,,,,,,,,,,,1718.5916102,None,,,,,,,,,,,,,,,,,republic,143,179,sing,new,null,1714.7319874,None,1714.7319874,None,1,1.605392700000266,1714.7319874,None,1.605392700000266,1716.3667758000001,None,1716.8766377000002,None,1716.8766377000002,None,f,1.692623200000071,1716.8766377000002,None,1.692623200000071,,,111 Sing,001,2022_Dec_01_1024,ProdSingRedoBetween,2021.2.3,59.9397844925132,
,,,,179,0,179,0,,,,,,,,,,,,,,,,,,,,,,1724.7846791000002,None,,,,,,,,,,,,,,,,,column,113,180,sing,new,null,1719.1025326,None,1719.1025326,None,2,3.5869087999999465,1719.1025326,None,3.5869087999999465,1722.7193413,None,1723.2306463,None,1723.2306463,None,f,1.5308304999998654,1723.2306463,None,1.5308304999998654,,,111 Sing,001,2022_Dec_01_1024,ProdSingRedoBetween,2021.2.3,59.9397844925132,
,,,,,,,,,,,,,,,,,,,,,,,,,,,,,,,,,,,,,,,,,,,,,,,,,,,,,,,,,,,,,,,,,,,,,,,,,1725.2990258,None,,,,,,,
