StudyLoop.thisRepN,StudyLoop.thisTrialN,StudyLoop.thisN,StudyLoop.thisIndex,TestLoop.thisRepN,TestLoop.thisTrialN,TestLoop.thisN,TestLoop.thisIndex,textCondition.started,textCondition.stopped,keyCondition.keys,keyCondition.rt,keyCondition.started,keyCondition.stopped,Condition,textWelcome.started,textWelcome.stopped,keyWelcome.keys,keyWelcome.rt,keyWelcome.started,keyWelcome.stopped,textAloud.started,textAloud.stopped,textSilent.started,textSilent.stopped,textSing.started,textSing.stopped,conditional_text.started,conditional_text.stopped,textBlank500.started,textBlank500.stopped,study_word,study_num,study_order,study_type,word_color,textStudy.started,textStudy.stopped,keyStudy.keys,keyStudy.started,keyStudy.stopped,textTestInstructions.started,textTestInstructions.stopped,key_resp_3.keys,key_resp_3.rt,key_resp_3.started,key_resp_3.stopped,test_word,test_num,test_order,test_condition,old_new_test,test_word_original_color,textConf.started,textConf.stopped,textConfScale.started,textConfScale.stopped,keyConf.keys,keyConf.rt,keyConf.started,keyConf.stopped,confidence response time,textTestBlank.started,textTestBlank.stopped,textRKN.started,textRKN.stopped,textRKNScale.started,textRKNScale.stopped,keyRKN.keys,keyRKN.rt,keyRKN.started,keyRKN.stopped,rkn response time,textEnd.started,textEnd.stopped,participant,session,date,expName,psychopyVersion,frameRate,
,,,,,,,,24.594004199999745,None,a,1.667946000000029,24.594004199999745,None,,,,,,,,,,,,,,,,,,,,,,,,,,,,,,,,,,,,,,,,,,,,,,,,,,,,,,,,,,,,,,112 Silent,001,2022_Dec_01_1055,ProdSingRedoBetween,2021.2.3,59.959371529795845,
,,,,,,,,,,,,,,SilentTest,26.295738599999822,None,space,158.61401989999968,26.295738599999822,None,,,,,,,,,,,,,,,,,,,,,,,,,,,,,,,,,,,,,,,,,,,,,,,,,,,,,,,112 Silent,001,2022_Dec_01_1055,ProdSingRedoBetween,2021.2.3,59.959371529795845,
0,0,0,0,,,,,,,,,,,,,,,,,,26.295738599999822,None,26.295738599999822,None,26.295738599999822,None,26.295738599999822,None,187.45713039999964,None,birth,86,1,silent,red,185.44349909999983,None,None,185.44349909999983,None,,,,,,,,,,,,,,,,,,,,,,,,,,,,,,,,,,,112 Silent,001,2022_Dec_01_1055,ProdSingRedoBetween,2021.2.3,59.959371529795845,
1,0,1,0,,,,,,,,,,,,,,,,,,,,,,,,,,189.9600760999997,None,charter,58,2,silent,blue,187.95774709999978,None,None,187.95774709999978,None,,,,,,,,,,,,,,,,,,,,,,,,,,,,,,,,,,,112 Silent,001,2022_Dec_01_1055,ProdSingRedoBetween,2021.2.3,59.959371529795845,
2,0,2,0,,,,,,,,,,,,,,,,,,,,,,,,,,192.46345859999974,None,committee,65,3,silent,red,190.4599272999999,None,None,190.4599272999999,None,,,,,,,,,,,,,,,,,,,,,,,,,,,,,,,,,,,112 Silent,001,2022_Dec_01_1055,ProdSingRedoBetween,2021.2.3,59.959371529795845,
3,0,3,0,,,,,,,,,,,,,,,,,,,,,,,,,,194.9813491,None,thick,48,4,silent,blue,192.9794978,None,None,192.9794978,None,,,,,,,,,,,,,,,,,,,,,,,,,,,,,,,,,,,112 Silent,001,2022_Dec_01_1055,ProdSingRedoBetween,2021.2.3,59.959371529795845,
4,0,4,0,,,,,,,,,,,,,,,,,,,,,,,,,,197.50053049999997,None,rapid,71,5,silent,red,195.49180290000004,None,None,195.49180290000004,None,,,,,,,,,,,,,,,,,,,,,,,,,,,,,,,,,,,112 Silent,001,2022_Dec_01_1055,ProdSingRedoBetween,2021.2.3,59.959371529795845,
5,0,5,0,,,,,,,,,,,,,,,,,,,,,,,,,,200.00312259999964,None,position,18,6,silent,yellow,198.00220379999973,None,None,198.00220379999973,None,,,,,,,,,,,,,,,,,,,,,,,,,,,,,,,,,,,112 Silent,001,2022_Dec_01_1055,ProdSingRedoBetween,2021.2.3,59.959371529795845,
6,0,6,0,,,,,,,,,,,,,,,,,,,,,,,,,,202.50543719999996,None,close,2,7,silent,yellow,200.50588919999973,None,None,200.50588919999973,None,,,,,,,,,,,,,,,,,,,,,,,,,,,,,,,,,,,112 Silent,001,2022_Dec_01_1055,ProdSingRedoBetween,2021.2.3,59.959371529795845,
7,0,7,0,,,,,,,,,,,,,,,,,,,,,,,,,,205.0082285999997,None,running,34,8,silent,blue,203.00656489999983,None,None,203.00656489999983,None,,,,,,,,,,,,,,,,,,,,,,,,,,,,,,,,,,,112 Silent,001,2022_Dec_01_1055,ProdSingRedoBetween,2021.2.3,59.959371529795845,
8,0,8,0,,,,,,,,,,,,,,,,,,,,,,,,,,207.52721209999982,None,second,6,9,silent,yellow,205.5167091999997,None,None,205.5167091999997,None,,,,,,,,,,,,,,,,,,,,,,,,,,,,,,,,,,,112 Silent,001,2022_Dec_01_1055,ProdSingRedoBetween,2021.2.3,59.959371529795845,
9,0,9,0,,,,,,,,,,,,,,,,,,,,,,,,,,210.04606299999978,None,territory,88,10,silent,red,208.0359758999998,None,None,208.0359758999998,None,,,,,,,,,,,,,,,,,,,,,,,,,,,,,,,,,,,112 Silent,001,2022_Dec_01_1055,ProdSingRedoBetween,2021.2.3,59.959371529795845,
10,0,10,0,,,,,,,,,,,,,,,,,,,,,,,,,,212.56565219999993,None,whole,28,11,silent,yellow,210.5542889999997,None,None,210.5542889999997,None,,,,,,,,,,,,,,,,,,,,,,,,,,,,,,,,,,,112 Silent,001,2022_Dec_01_1055,ProdSingRedoBetween,2021.2.3,59.959371529795845,
11,0,11,0,,,,,,,,,,,,,,,,,,,,,,,,,,215.06812880000007,None,production,52,12,silent,blue,213.06906869999966,None,None,213.06906869999966,None,,,,,,,,,,,,,,,,,,,,,,,,,,,,,,,,,,,112 Silent,001,2022_Dec_01_1055,ProdSingRedoBetween,2021.2.3,59.959371529795845,
12,0,12,0,,,,,,,,,,,,,,,,,,,,,,,,,,217.58726609999985,None,break,16,13,silent,yellow,215.57220979999965,None,None,215.57220979999965,None,,,,,,,,,,,,,,,,,,,,,,,,,,,,,,,,,,,112 Silent,001,2022_Dec_01_1055,ProdSingRedoBetween,2021.2.3,59.959371529795845,
13,0,13,0,,,,,,,,,,,,,,,,,,,,,,,,,,220.0898076999997,None,contract,13,14,silent,yellow,218.08825819999993,None,None,218.08825819999993,None,,,,,,,,,,,,,,,,,,,,,,,,,,,,,,,,,,,112 Silent,001,2022_Dec_01_1055,ProdSingRedoBetween,2021.2.3,59.959371529795845,
14,0,14,0,,,,,,,,,,,,,,,,,,,,,,,,,,222.59236939999982,None,junior,77,15,silent,red,220.59200029999965,None,None,220.59200029999965,None,,,,,,,,,,,,,,,,,,,,,,,,,,,,,,,,,,,112 Silent,001,2022_Dec_01_1055,ProdSingRedoBetween,2021.2.3,59.959371529795845,
15,0,15,0,,,,,,,,,,,,,,,,,,,,,,,,,,225.11145940000006,None,travel,20,16,silent,yellow,223.10308299999997,None,None,223.10308299999997,None,,,,,,,,,,,,,,,,,,,,,,,,,,,,,,,,,,,112 Silent,001,2022_Dec_01_1055,ProdSingRedoBetween,2021.2.3,59.959371529795845,
16,0,16,0,,,,,,,,,,,,,,,,,,,,,,,,,,227.61398849999978,None,still,24,17,silent,yellow,225.6122218999999,None,None,225.6122218999999,None,,,,,,,,,,,,,,,,,,,,,,,,,,,,,,,,,,,112 Silent,001,2022_Dec_01_1055,ProdSingRedoBetween,2021.2.3,59.959371529795845,
17,0,17,0,,,,,,,,,,,,,,,,,,,,,,,,,,230.13332199999968,None,error,64,18,silent,red,228.12235469999996,None,None,228.12235469999996,None,,,,,,,,,,,,,,,,,,,,,,,,,,,,,,,,,,,112 Silent,001,2022_Dec_01_1055,ProdSingRedoBetween,2021.2.3,59.959371529795845,
18,0,18,0,,,,,,,,,,,,,,,,,,,,,,,,,,232.63569949999965,None,bright,19,19,silent,yellow,230.6336498999999,None,None,230.6336498999999,None,,,,,,,,,,,,,,,,,,,,,,,,,,,,,,,,,,,112 Silent,001,2022_Dec_01_1055,ProdSingRedoBetween,2021.2.3,59.959371529795845,
19,0,19,0,,,,,,,,,,,,,,,,,,,,,,,,,,235.15485510000008,None,beauty,82,20,silent,red,233.14148369999975,None,None,233.14148369999975,None,,,,,,,,,,,,,,,,,,,,,,,,,,,,,,,,,,,112 Silent,001,2022_Dec_01_1055,ProdSingRedoBetween,2021.2.3,59.959371529795845,
20,0,20,0,,,,,,,,,,,,,,,,,,,,,,,,,,237.65739029999986,None,damage,41,21,silent,blue,235.6551801999999,None,None,235.6551801999999,None,,,,,,,,,,,,,,,,,,,,,,,,,,,,,,,,,,,112 Silent,001,2022_Dec_01_1055,ProdSingRedoBetween,2021.2.3,59.959371529795845,
21,0,21,0,,,,,,,,,,,,,,,,,,,,,,,,,,240.17661580000004,None,dispute,1,22,silent,yellow,238.16259420000006,None,None,238.16259420000006,None,,,,,,,,,,,,,,,,,,,,,,,,,,,,,,,,,,,112 Silent,001,2022_Dec_01_1055,ProdSingRedoBetween,2021.2.3,59.959371529795845,
22,0,22,0,,,,,,,,,,,,,,,,,,,,,,,,,,242.69585949999964,None,captain,42,23,silent,blue,240.68066199999976,None,None,240.68066199999976,None,,,,,,,,,,,,,,,,,,,,,,,,,,,,,,,,,,,112 Silent,001,2022_Dec_01_1055,ProdSingRedoBetween,2021.2.3,59.959371529795845,
23,0,23,0,,,,,,,,,,,,,,,,,,,,,,,,,,245.21503719999964,None,agency,40,24,silent,blue,243.20738859999983,None,None,243.20738859999983,None,,,,,,,,,,,,,,,,,,,,,,,,,,,,,,,,,,,112 Silent,001,2022_Dec_01_1055,ProdSingRedoBetween,2021.2.3,59.959371529795845,
24,0,24,0,,,,,,,,,,,,,,,,,,,,,,,,,,247.7175342999999,None,religion,60,25,silent,red,245.7181501,None,None,245.7181501,None,,,,,,,,,,,,,,,,,,,,,,,,,,,,,,,,,,,112 Silent,001,2022_Dec_01_1055,ProdSingRedoBetween,2021.2.3,59.959371529795845,
25,0,25,0,,,,,,,,,,,,,,,,,,,,,,,,,,250.2365980999998,None,nature,27,26,silent,yellow,248.22399659999974,None,None,248.22399659999974,None,,,,,,,,,,,,,,,,,,,,,,,,,,,,,,,,,,,112 Silent,001,2022_Dec_01_1055,ProdSingRedoBetween,2021.2.3,59.959371529795845,
26,0,26,0,,,,,,,,,,,,,,,,,,,,,,,,,,252.73912429999973,None,course,26,27,silent,yellow,250.7368916999999,None,None,250.7368916999999,None,,,,,,,,,,,,,,,,,,,,,,,,,,,,,,,,,,,112 Silent,001,2022_Dec_01_1055,ProdSingRedoBetween,2021.2.3,59.959371529795845,
27,0,27,0,,,,,,,,,,,,,,,,,,,,,,,,,,255.25841599999967,None,degree,4,28,silent,yellow,253.24390939999967,None,None,253.24390939999967,None,,,,,,,,,,,,,,,,,,,,,,,,,,,,,,,,,,,112 Silent,001,2022_Dec_01_1055,ProdSingRedoBetween,2021.2.3,59.959371529795845,
28,0,28,0,,,,,,,,,,,,,,,,,,,,,,,,,,257.7774139999997,None,beginning,35,29,silent,blue,255.7635621999998,None,None,255.7635621999998,None,,,,,,,,,,,,,,,,,,,,,,,,,,,,,,,,,,,112 Silent,001,2022_Dec_01_1055,ProdSingRedoBetween,2021.2.3,59.959371529795845,
29,0,29,0,,,,,,,,,,,,,,,,,,,,,,,,,,260.2966443999999,None,fashion,25,30,silent,yellow,258.2868590999997,None,None,258.2868590999997,None,,,,,,,,,,,,,,,,,,,,,,,,,,,,,,,,,,,112 Silent,001,2022_Dec_01_1055,ProdSingRedoBetween,2021.2.3,59.959371529795845,
30,0,30,0,,,,,,,,,,,,,,,,,,,,,,,,,,262.79896759999974,None,enemy,89,31,silent,red,260.79715020000003,None,None,260.79715020000003,None,,,,,,,,,,,,,,,,,,,,,,,,,,,,,,,,,,,112 Silent,001,2022_Dec_01_1055,ProdSingRedoBetween,2021.2.3,59.959371529795845,
31,0,31,0,,,,,,,,,,,,,,,,,,,,,,,,,,265.3017353,None,government,85,32,silent,red,263.29949179999994,None,None,263.29949179999994,None,,,,,,,,,,,,,,,,,,,,,,,,,,,,,,,,,,,112 Silent,001,2022_Dec_01_1055,ProdSingRedoBetween,2021.2.3,59.959371529795845,
32,0,32,0,,,,,,,,,,,,,,,,,,,,,,,,,,267.80412810000007,None,education,32,33,silent,blue,265.80413839999983,None,None,265.80413839999983,None,,,,,,,,,,,,,,,,,,,,,,,,,,,,,,,,,,,112 Silent,001,2022_Dec_01_1055,ProdSingRedoBetween,2021.2.3,59.959371529795845,
33,0,33,0,,,,,,,,,,,,,,,,,,,,,,,,,,270.3230064999998,None,shock,46,34,silent,blue,268.3090721999997,None,None,268.3090721999997,None,,,,,,,,,,,,,,,,,,,,,,,,,,,,,,,,,,,112 Silent,001,2022_Dec_01_1055,ProdSingRedoBetween,2021.2.3,59.959371529795845,
34,0,34,0,,,,,,,,,,,,,,,,,,,,,,,,,,272.84263239999973,None,orchestra,62,35,silent,red,270.82953339999995,None,None,270.82953339999995,None,,,,,,,,,,,,,,,,,,,,,,,,,,,,,,,,,,,112 Silent,001,2022_Dec_01_1055,ProdSingRedoBetween,2021.2.3,59.959371529795845,
35,0,35,0,,,,,,,,,,,,,,,,,,,,,,,,,,275.3617088000001,None,benefit,3,36,silent,yellow,273.35263729999997,None,None,273.35263729999997,None,,,,,,,,,,,,,,,,,,,,,,,,,,,,,,,,,,,112 Silent,001,2022_Dec_01_1055,ProdSingRedoBetween,2021.2.3,59.959371529795845,
36,0,36,0,,,,,,,,,,,,,,,,,,,,,,,,,,277.88088500000003,None,appeal,9,37,silent,yellow,275.8656871999997,None,None,275.8656871999997,None,,,,,,,,,,,,,,,,,,,,,,,,,,,,,,,,,,,112 Silent,001,2022_Dec_01_1055,ProdSingRedoBetween,2021.2.3,59.959371529795845,
37,0,37,0,,,,,,,,,,,,,,,,,,,,,,,,,,280.38347569999996,None,report,59,38,silent,yellow,278.3827087999998,None,None,278.3827087999998,None,,,,,,,,,,,,,,,,,,,,,,,,,,,,,,,,,,,112 Silent,001,2022_Dec_01_1055,ProdSingRedoBetween,2021.2.3,59.959371529795845,
38,0,38,0,,,,,,,,,,,,,,,,,,,,,,,,,,282.886027,None,period,21,39,silent,yellow,280.8859213999999,None,None,280.8859213999999,None,,,,,,,,,,,,,,,,,,,,,,,,,,,,,,,,,,,112 Silent,001,2022_Dec_01_1055,ProdSingRedoBetween,2021.2.3,59.959371529795845,
39,0,39,0,,,,,,,,,,,,,,,,,,,,,,,,,,285.4050508,None,concern,56,40,silent,blue,283.3906546999997,None,None,283.3906546999997,None,,,,,,,,,,,,,,,,,,,,,,,,,,,,,,,,,,,112 Silent,001,2022_Dec_01_1055,ProdSingRedoBetween,2021.2.3,59.959371529795845,
40,0,40,0,,,,,,,,,,,,,,,,,,,,,,,,,,287.9076209,None,month,57,41,silent,blue,285.90559429999985,None,None,285.90559429999985,None,,,,,,,,,,,,,,,,,,,,,,,,,,,,,,,,,,,112 Silent,001,2022_Dec_01_1055,ProdSingRedoBetween,2021.2.3,59.959371529795845,
41,0,41,0,,,,,,,,,,,,,,,,,,,,,,,,,,290.42678669999987,None,judge,83,42,silent,red,288.4146189999997,None,None,288.4146189999997,None,,,,,,,,,,,,,,,,,,,,,,,,,,,,,,,,,,,112 Silent,001,2022_Dec_01_1055,ProdSingRedoBetween,2021.2.3,59.959371529795845,
42,0,42,0,,,,,,,,,,,,,,,,,,,,,,,,,,292.9292243,None,comedy,44,43,silent,blue,290.9274059999998,None,None,290.9274059999998,None,,,,,,,,,,,,,,,,,,,,,,,,,,,,,,,,,,,112 Silent,001,2022_Dec_01_1055,ProdSingRedoBetween,2021.2.3,59.959371529795845,
43,0,43,0,,,,,,,,,,,,,,,,,,,,,,,,,,295.43177130000004,None,novel,67,44,silent,red,293.43209769999976,None,None,293.43209769999976,None,,,,,,,,,,,,,,,,,,,,,,,,,,,,,,,,,,,112 Silent,001,2022_Dec_01_1055,ProdSingRedoBetween,2021.2.3,59.959371529795845,
44,0,44,0,,,,,,,,,,,,,,,,,,,,,,,,,,297.93436870000005,None,medicine,84,45,silent,red,295.9352151999997,None,None,295.9352151999997,None,,,,,,,,,,,,,,,,,,,,,,,,,,,,,,,,,,,112 Silent,001,2022_Dec_01_1055,ProdSingRedoBetween,2021.2.3,59.959371529795845,
45,0,45,0,,,,,,,,,,,,,,,,,,,,,,,,,,300.4368470999998,None,salary,0,46,silent,yellow,298.43764029999966,None,None,298.43764029999966,None,,,,,,,,,,,,,,,,,,,,,,,,,,,,,,,,,,,112 Silent,001,2022_Dec_01_1055,ProdSingRedoBetween,2021.2.3,59.959371529795845,
46,0,46,0,,,,,,,,,,,,,,,,,,,,,,,,,,302.9625397,None,private,81,47,silent,red,300.9417429,None,None,300.9417429,None,,,,,,,,,,,,,,,,,,,,,,,,,,,,,,,,,,,112 Silent,001,2022_Dec_01_1055,ProdSingRedoBetween,2021.2.3,59.959371529795845,
47,0,47,0,,,,,,,,,,,,,,,,,,,,,,,,,,305.4586126999998,None,personnel,10,48,silent,yellow,303.45673020000004,None,None,303.45673020000004,None,,,,,,,,,,,,,,,,,,,,,,,,,,,,,,,,,,,112 Silent,001,2022_Dec_01_1055,ProdSingRedoBetween,2021.2.3,59.959371529795845,
48,0,48,0,,,,,,,,,,,,,,,,,,,,,,,,,,307.96115519999967,None,broke,39,49,silent,blue,305.9592453999999,None,None,305.9592453999999,None,,,,,,,,,,,,,,,,,,,,,,,,,,,,,,,,,,,112 Silent,001,2022_Dec_01_1055,ProdSingRedoBetween,2021.2.3,59.959371529795845,
49,0,49,0,,,,,,,,,,,,,,,,,,,,,,,,,,310.46349489999966,None,foundation,53,50,silent,blue,308.4644599999997,None,None,308.4644599999997,None,,,,,,,,,,,,,,,,,,,,,,,,,,,,,,,,,,,112 Silent,001,2022_Dec_01_1055,ProdSingRedoBetween,2021.2.3,59.959371529795845,
50,0,50,0,,,,,,,,,,,,,,,,,,,,,,,,,,312.96602170000006,None,suspect,87,51,silent,red,310.9665606999997,None,None,310.9665606999997,None,,,,,,,,,,,,,,,,,,,,,,,,,,,,,,,,,,,112 Silent,001,2022_Dec_01_1055,ProdSingRedoBetween,2021.2.3,59.959371529795845,
51,0,51,0,,,,,,,,,,,,,,,,,,,,,,,,,,315.48513409999987,None,crowd,33,52,silent,blue,313.46966199999997,None,None,313.46966199999997,None,,,,,,,,,,,,,,,,,,,,,,,,,,,,,,,,,,,112 Silent,001,2022_Dec_01_1055,ProdSingRedoBetween,2021.2.3,59.959371529795845,
52,0,52,0,,,,,,,,,,,,,,,,,,,,,,,,,,317.98766179999984,None,drama,45,53,silent,blue,315.9858882999997,None,None,315.9858882999997,None,,,,,,,,,,,,,,,,,,,,,,,,,,,,,,,,,,,112 Silent,001,2022_Dec_01_1055,ProdSingRedoBetween,2021.2.3,59.959371529795845,
53,0,53,0,,,,,,,,,,,,,,,,,,,,,,,,,,320.5068225,None,profession,55,54,silent,blue,318.49185579999994,None,None,318.49185579999994,None,,,,,,,,,,,,,,,,,,,,,,,,,,,,,,,,,,,112 Silent,001,2022_Dec_01_1055,ProdSingRedoBetween,2021.2.3,59.959371529795845,
54,0,54,0,,,,,,,,,,,,,,,,,,,,,,,,,,323.00918539999975,None,distance,68,55,silent,red,321.00755819999995,None,None,321.00755819999995,None,,,,,,,,,,,,,,,,,,,,,,,,,,,,,,,,,,,112 Silent,001,2022_Dec_01_1055,ProdSingRedoBetween,2021.2.3,59.959371529795845,
55,0,55,0,,,,,,,,,,,,,,,,,,,,,,,,,,325.5118929999999,None,balance,79,56,silent,red,323.5107490999999,None,None,323.5107490999999,None,,,,,,,,,,,,,,,,,,,,,,,,,,,,,,,,,,,112 Silent,001,2022_Dec_01_1055,ProdSingRedoBetween,2021.2.3,59.959371529795845,
56,0,56,0,,,,,,,,,,,,,,,,,,,,,,,,,,328.0143653,None,sunset,76,57,silent,red,326.01502459999983,None,None,326.01502459999983,None,,,,,,,,,,,,,,,,,,,,,,,,,,,,,,,,,,,112 Silent,001,2022_Dec_01_1055,ProdSingRedoBetween,2021.2.3,59.959371529795845,
57,0,57,0,,,,,,,,,,,,,,,,,,,,,,,,,,330.51666019999993,None,comfort,12,58,silent,yellow,328.51479199999994,None,None,328.51479199999994,None,,,,,,,,,,,,,,,,,,,,,,,,,,,,,,,,,,,112 Silent,001,2022_Dec_01_1055,ProdSingRedoBetween,2021.2.3,59.959371529795845,
58,0,58,0,,,,,,,,,,,,,,,,,,,,,,,,,,333.0361287999999,None,stranger,51,59,silent,blue,331.0282348999999,None,None,331.0282348999999,None,,,,,,,,,,,,,,,,,,,,,,,,,,,,,,,,,,,112 Silent,001,2022_Dec_01_1055,ProdSingRedoBetween,2021.2.3,59.959371529795845,
59,0,59,0,,,,,,,,,,,,,,,,,,,,,,,,,,335.53866549999975,None,curve,38,60,silent,blue,333.5383886999998,None,None,333.5383886999998,None,,,,,,,,,,,,,,,,,,,,,,,,,,,,,,,,,,,112 Silent,001,2022_Dec_01_1055,ProdSingRedoBetween,2021.2.3,59.959371529795845,
60,0,60,0,,,,,,,,,,,,,,,,,,,,,,,,,,338.05771890000005,None,attack,72,61,silent,red,336.0442733,None,None,336.0442733,None,,,,,,,,,,,,,,,,,,,,,,,,,,,,,,,,,,,112 Silent,001,2022_Dec_01_1055,ProdSingRedoBetween,2021.2.3,59.959371529795845,
61,0,61,0,,,,,,,,,,,,,,,,,,,,,,,,,,340.56018619999986,None,instrument,50,62,silent,blue,338.5610692,None,None,338.5610692,None,,,,,,,,,,,,,,,,,,,,,,,,,,,,,,,,,,,112 Silent,001,2022_Dec_01_1055,ProdSingRedoBetween,2021.2.3,59.959371529795845,
62,0,62,0,,,,,,,,,,,,,,,,,,,,,,,,,,343.0793343,None,citizen,63,63,silent,red,341.0660416999999,None,None,341.0660416999999,None,,,,,,,,,,,,,,,,,,,,,,,,,,,,,,,,,,,112 Silent,001,2022_Dec_01_1055,ProdSingRedoBetween,2021.2.3,59.959371529795845,
63,0,63,0,,,,,,,,,,,,,,,,,,,,,,,,,,345.59865360000003,None,staff,11,64,silent,yellow,343.58909189999986,None,None,343.58909189999986,None,,,,,,,,,,,,,,,,,,,,,,,,,,,,,,,,,,,112 Silent,001,2022_Dec_01_1055,ProdSingRedoBetween,2021.2.3,59.959371529795845,
64,0,64,0,,,,,,,,,,,,,,,,,,,,,,,,,,348.11796000000004,None,republic,61,65,silent,red,346.10263429999986,None,None,346.10263429999986,None,,,,,,,,,,,,,,,,,,,,,,,,,,,,,,,,,,,112 Silent,001,2022_Dec_01_1055,ProdSingRedoBetween,2021.2.3,59.959371529795845,
65,0,65,0,,,,,,,,,,,,,,,,,,,,,,,,,,350.62031350000007,None,bucket,23,66,silent,yellow,348.6197124999999,None,None,348.6197124999999,None,,,,,,,,,,,,,,,,,,,,,,,,,,,,,,,,,,,112 Silent,001,2022_Dec_01_1055,ProdSingRedoBetween,2021.2.3,59.959371529795845,
66,0,66,0,,,,,,,,,,,,,,,,,,,,,,,,,,353.1394743999999,None,community,17,67,silent,yellow,351.12562469999966,None,None,351.12562469999966,None,,,,,,,,,,,,,,,,,,,,,,,,,,,,,,,,,,,112 Silent,001,2022_Dec_01_1055,ProdSingRedoBetween,2021.2.3,59.959371529795845,
67,0,67,0,,,,,,,,,,,,,,,,,,,,,,,,,,355.64200260000007,None,height,29,68,silent,blue,353.64021019999973,None,None,353.64021019999973,None,,,,,,,,,,,,,,,,,,,,,,,,,,,,,,,,,,,112 Silent,001,2022_Dec_01_1055,ProdSingRedoBetween,2021.2.3,59.959371529795845,
68,0,68,0,,,,,,,,,,,,,,,,,,,,,,,,,,358.1444621999999,None,split,47,69,silent,blue,356.14531039999974,None,None,356.14531039999974,None,,,,,,,,,,,,,,,,,,,,,,,,,,,,,,,,,,,112 Silent,001,2022_Dec_01_1055,ProdSingRedoBetween,2021.2.3,59.959371529795845,
69,0,69,0,,,,,,,,,,,,,,,,,,,,,,,,,,360.6636586999998,None,frank,49,70,silent,blue,358.6482415999999,None,None,358.6482415999999,None,,,,,,,,,,,,,,,,,,,,,,,,,,,,,,,,,,,112 Silent,001,2022_Dec_01_1055,ProdSingRedoBetween,2021.2.3,59.959371529795845,
70,0,70,0,,,,,,,,,,,,,,,,,,,,,,,,,,363.18287839999994,None,character,15,71,silent,yellow,361.1695144999999,None,None,361.1695144999999,None,,,,,,,,,,,,,,,,,,,,,,,,,,,,,,,,,,,112 Silent,001,2022_Dec_01_1055,ProdSingRedoBetween,2021.2.3,59.959371529795845,
71,0,71,0,,,,,,,,,,,,,,,,,,,,,,,,,,365.6853483,None,budget,7,72,silent,yellow,363.6839047999997,None,None,363.6839047999997,None,,,,,,,,,,,,,,,,,,,,,,,,,,,,,,,,,,,112 Silent,001,2022_Dec_01_1055,ProdSingRedoBetween,2021.2.3,59.959371529795845,
72,0,72,0,,,,,,,,,,,,,,,,,,,,,,,,,,368.18778919999977,None,place,43,73,silent,blue,366.18790869999975,None,None,366.18790869999975,None,,,,,,,,,,,,,,,,,,,,,,,,,,,,,,,,,,,112 Silent,001,2022_Dec_01_1055,ProdSingRedoBetween,2021.2.3,59.959371529795845,
73,0,73,0,,,,,,,,,,,,,,,,,,,,,,,,,,370.70702249999977,None,patient,74,74,silent,red,368.69954400000006,None,None,368.69954400000006,None,,,,,,,,,,,,,,,,,,,,,,,,,,,,,,,,,,,112 Silent,001,2022_Dec_01_1055,ProdSingRedoBetween,2021.2.3,59.959371529795845,
74,0,74,0,,,,,,,,,,,,,,,,,,,,,,,,,,373.22617149999996,None,signal,80,75,silent,red,371.2227662999999,None,None,371.2227662999999,None,,,,,,,,,,,,,,,,,,,,,,,,,,,,,,,,,,,112 Silent,001,2022_Dec_01_1055,ProdSingRedoBetween,2021.2.3,59.959371529795845,
75,0,75,0,,,,,,,,,,,,,,,,,,,,,,,,,,375.7287117999999,None,science,54,76,silent,blue,373.7268546999999,None,None,373.7268546999999,None,,,,,,,,,,,,,,,,,,,,,,,,,,,,,,,,,,,112 Silent,001,2022_Dec_01_1055,ProdSingRedoBetween,2021.2.3,59.959371529795845,
76,0,76,0,,,,,,,,,,,,,,,,,,,,,,,,,,378.23115929999994,None,material,30,77,silent,blue,376.23194409999996,None,None,376.23194409999996,None,,,,,,,,,,,,,,,,,,,,,,,,,,,,,,,,,,,112 Silent,001,2022_Dec_01_1055,ProdSingRedoBetween,2021.2.3,59.959371529795845,
77,0,77,0,,,,,,,,,,,,,,,,,,,,,,,,,,380.73647260000007,None,match,75,78,silent,red,378.7331876999997,None,None,378.7331876999997,None,,,,,,,,,,,,,,,,,,,,,,,,,,,,,,,,,,,112 Silent,001,2022_Dec_01_1055,ProdSingRedoBetween,2021.2.3,59.959371529795845,
78,0,78,0,,,,,,,,,,,,,,,,,,,,,,,,,,383.2529810000001,None,produce,22,79,silent,yellow,381.2506992999997,None,None,381.2506992999997,None,,,,,,,,,,,,,,,,,,,,,,,,,,,,,,,,,,,112 Silent,001,2022_Dec_01_1055,ProdSingRedoBetween,2021.2.3,59.959371529795845,
79,0,79,0,,,,,,,,,,,,,,,,,,,,,,,,,,385.77202629999965,None,school,14,80,silent,yellow,383.7593078,None,None,383.7593078,None,,,,,,,,,,,,,,,,,,,,,,,,,,,,,,,,,,,112 Silent,001,2022_Dec_01_1055,ProdSingRedoBetween,2021.2.3,59.959371529795845,
80,0,80,0,,,,,,,,,,,,,,,,,,,,,,,,,,388.2745221,None,election,69,81,silent,red,386.27257529999997,None,None,386.27257529999997,None,,,,,,,,,,,,,,,,,,,,,,,,,,,,,,,,,,,112 Silent,001,2022_Dec_01_1055,ProdSingRedoBetween,2021.2.3,59.959371529795845,
81,0,81,0,,,,,,,,,,,,,,,,,,,,,,,,,,390.7767758,None,pressure,73,82,silent,red,388.77703029999975,None,None,388.77703029999975,None,,,,,,,,,,,,,,,,,,,,,,,,,,,,,,,,,,,112 Silent,001,2022_Dec_01_1055,ProdSingRedoBetween,2021.2.3,59.959371529795845,
82,0,82,0,,,,,,,,,,,,,,,,,,,,,,,,,,393.2962886,None,sweet,36,83,silent,blue,391.2889105999998,None,None,391.2889105999998,None,,,,,,,,,,,,,,,,,,,,,,,,,,,,,,,,,,,112 Silent,001,2022_Dec_01_1055,ProdSingRedoBetween,2021.2.3,59.959371529795845,
83,0,83,0,,,,,,,,,,,,,,,,,,,,,,,,,,395.7988762,None,direction,78,84,silent,red,393.7981801000001,None,None,393.7981801000001,None,,,,,,,,,,,,,,,,,,,,,,,,,,,,,,,,,,,112 Silent,001,2022_Dec_01_1055,ProdSingRedoBetween,2021.2.3,59.959371529795845,
84,0,84,0,,,,,,,,,,,,,,,,,,,,,,,,,,398.31808009999986,None,meeting,70,85,silent,red,396.30369819999987,None,None,396.30369819999987,None,,,,,,,,,,,,,,,,,,,,,,,,,,,,,,,,,,,112 Silent,001,2022_Dec_01_1055,ProdSingRedoBetween,2021.2.3,59.959371529795845,
85,0,85,0,,,,,,,,,,,,,,,,,,,,,,,,,,400.8204980999999,None,engineer,66,86,silent,red,398.8184661999999,None,None,398.8184661999999,None,,,,,,,,,,,,,,,,,,,,,,,,,,,,,,,,,,,112 Silent,001,2022_Dec_01_1055,ProdSingRedoBetween,2021.2.3,59.959371529795845,
86,0,86,0,,,,,,,,,,,,,,,,,,,,,,,,,,403.33964979999973,None,review,5,87,silent,yellow,401.32542179999973,None,None,401.32542179999973,None,,,,,,,,,,,,,,,,,,,,,,,,,,,,,,,,,,,112 Silent,001,2022_Dec_01_1055,ProdSingRedoBetween,2021.2.3,59.959371529795845,
87,0,87,0,,,,,,,,,,,,,,,,,,,,,,,,,,405.8587881999997,None,throw,31,88,silent,blue,403.8526118,None,None,403.8526118,None,,,,,,,,,,,,,,,,,,,,,,,,,,,,,,,,,,,112 Silent,001,2022_Dec_01_1055,ProdSingRedoBetween,2021.2.3,59.959371529795845,
88,0,88,0,,,,,,,,,,,,,,,,,,,,,,,,,,408.3612009999997,None,broad,37,89,silent,blue,406.35931779999964,None,None,406.35931779999964,None,,,,,,,,,,,,,,,,,,,,,,,,,,,,,,,,,,,112 Silent,001,2022_Dec_01_1055,ProdSingRedoBetween,2021.2.3,59.959371529795845,
89,0,89,0,,,,,,,,,,,,,,,,,,,,,,,,,,410.8807450999998,None,carry,8,90,silent,yellow,408.8651950999997,None,None,408.8651950999997,None,,,,,,,,,,,,,,,,,,,,,,,,,,,,,,,,,,,112 Silent,001,2022_Dec_01_1055,ProdSingRedoBetween,2021.2.3,59.959371529795845,
,,,,,,,,,,,,,,,,,,,,,,,,,,,,,,,,,,,,,,,,,411.3812122999998,None,k,172.02492209999946,411.3812122999998,None,,,,,,,,,,,,,,,,,,,,,,,,,,,,,112 Silent,001,2022_Dec_01_1055,ProdSingRedoBetween,2021.2.3,59.959371529795845,
,,,,0,0,0,0,,,,,,,,,,,,,,,,,,,,,,616.8029861,None,,,,,,,,,,,,,,,,,stand,172,1,silent,new,null,583.9402849000003,None,583.9402849000003,None,6,26.329740799999854,583.9402849000003,None,26.329740799999854,610.3002406999999,None,610.8176411,None,610.8176411,None,r,5.964455899999848,610.8176411,None,5.964455899999848,,,112 Silent,001,2022_Dec_01_1055,ProdSingRedoBetween,2021.2.3,59.959371529795845,
,,,,1,0,1,0,,,,,,,,,,,,,,,,,,,,,,627.0131151999999,None,,,,,,,,,,,,,,,,,nature,27,2,silent,old,yellow,617.3104816999999,None,617.3104816999999,None,6,6.2154217999996035,617.3104816999999,None,6.2154217999996035,623.5447081999996,None,624.0601161999998,None,624.0601161999998,None,r,2.9219661000006454,624.0601161999998,None,2.9219661000006454,,,112 Silent,001,2022_Dec_01_1055,ProdSingRedoBetween,2021.2.3,59.959371529795845,
,,,,2,0,2,0,,,,,,,,,,,,,,,,,,,,,,637.5069612000002,None,,,,,,,,,,,,,,,,,production,52,3,silent,old,blue,627.5243286,None,627.5243286,None,6,7.473654500000521,627.5243286,None,7.473654500000521,635.0249614999998,None,635.5417537999997,None,635.5417537999997,None,r,1.936177399999906,635.5417537999997,None,1.936177399999906,,,112 Silent,001,2022_Dec_01_1055,ProdSingRedoBetween,2021.2.3,59.959371529795845,
,,,,3,0,3,0,,,,,,,,,,,,,,,,,,,,,,644.0634870999997,None,,,,,,,,,,,,,,,,,split,47,4,silent,old,blue,638.0172052000003,None,638.0172052000003,None,6,3.781031299999995,638.0172052000003,None,3.781031299999995,641.8362335999996,None,642.3471353,None,642.3471353,None,r,1.6908308000001853,642.3471353,None,1.6908308000001853,,,112 Silent,001,2022_Dec_01_1055,ProdSingRedoBetween,2021.2.3,59.959371529795845,
,,,,4,0,4,0,,,,,,,,,,,,,,,,,,,,,,647.6670633999997,None,,,,,,,,,,,,,,,,,right,92,5,silent,new,null,644.5730388999996,None,644.5730388999996,None,6,2.0889564999997674,644.5730388999996,None,2.0889564999997674,646.6872843999995,None,647.2049388,None,647.2049388,None,r,0.43315290000009554,647.2049388,None,0.43315290000009554,,,112 Silent,001,2022_Dec_01_1055,ProdSingRedoBetween,2021.2.3,59.959371529795845,
,,,,5,0,5,0,,,,,,,,,,,,,,,,,,,,,,656.3423980000002,None,,,,,,,,,,,,,,,,,shear,95,6,silent,new,null,648.1742229999995,None,648.1742229999995,None,6,6.263732499999605,648.1742229999995,None,6.263732499999605,654.4586621000003,None,654.9626364999999,None,654.9626364999999,None,f,1.355305099999896,654.9626364999999,None,1.355305099999896,,,112 Silent,001,2022_Dec_01_1055,ProdSingRedoBetween,2021.2.3,59.959371529795845,
,,,,6,0,6,0,,,,,,,,,,,,,,,,,,,,,,662.9702655999995,None,,,,,,,,,,,,,,,,,range,91,7,silent,new,null,656.8496388999997,None,656.8496388999997,None,6,2.6363860000001296,656.8496388999997,None,2.6363860000001296,659.5161198999999,None,660.0296046999997,None,660.0296046999997,None,r,2.9204207999991922,660.0296046999997,None,2.9204207999991922,,,112 Silent,001,2022_Dec_01_1055,ProdSingRedoBetween,2021.2.3,59.959371529795845,
,,,,7,0,7,0,,,,,,,,,,,,,,,,,,,,,,667.2533029000001,None,,,,,,,,,,,,,,,,,patient,74,8,silent,old,red,663.4931042000003,None,663.4931042000003,None,6,2.7928702999997768,663.4931042000003,None,2.7928702999997768,666.3063160999995,None,666.8197009,None,666.8197009,None,r,0.41823919999933423,666.8197009,None,0.41823919999933423,,,112 Silent,001,2022_Dec_01_1055,ProdSingRedoBetween,2021.2.3,59.959371529795845,
,,,,8,0,8,0,,,,,,,,,,,,,,,,,,,,,,672.2917304999996,None,,,,,,,,,,,,,,,,,tragedy,149,9,silent,new,null,667.7663269999998,None,667.7663269999998,None,6,3.3196639000007053,667.7663269999998,None,3.3196639000007053,671.1110727999999,None,671.6311639,None,671.6311639,None,r,0.638828499999363,671.6311639,None,0.638828499999363,,,112 Silent,001,2022_Dec_01_1055,ProdSingRedoBetween,2021.2.3,59.959371529795845,
,,,,9,0,9,0,,,,,,,,,,,,,,,,,,,,,,676.0786229999999,None,,,,,,,,,,,,,,,,,close,2,10,silent,old,yellow,672.8020624999995,None,672.8020624999995,None,6,1.2839034999997239,672.8020624999995,None,1.2839034999997239,674.1116341000002,None,674.6178583999995,None,674.6178583999995,None,r,1.4440473000004204,674.6178583999995,None,1.4440473000004204,,,112 Silent,001,2022_Dec_01_1055,ProdSingRedoBetween,2021.2.3,59.959371529795845,
,,,,10,0,10,0,,,,,,,,,,,,,,,,,,,,,,678.3978037000002,None,,,,,,,,,,,,,,,,,capital,152,11,silent,new,null,676.5958403999998,None,676.5958403999998,None,6,0.6421368999999686,676.5958403999998,None,0.6421368999999686,677.2636273000003,None,677.7679727,None,677.7679727,None,r,0.606141999999636,677.7679727,None,0.606141999999636,,,112 Silent,001,2022_Dec_01_1055,ProdSingRedoBetween,2021.2.3,59.959371529795845,
,,,,11,0,11,0,,,,,,,,,,,,,,,,,,,,,,680.5666282999996,None,,,,,,,,,,,,,,,,,government,85,12,silent,old,red,678.9109732000002,None,678.9109732000002,None,6,0.6789498999996795,678.9109732000002,None,0.6789498999996795,679.6171251000001,None,680.1163156999996,None,680.1163156999996,None,r,0.4256924999999683,680.1163156999996,None,0.4256924999999683,,,112 Silent,001,2022_Dec_01_1055,ProdSingRedoBetween,2021.2.3,59.959371529795845,
,,,,12,0,12,0,,,,,,,,,,,,,,,,,,,,,,682.5852267999994,None,,,,,,,,,,,,,,,,,benefit,3,13,silent,old,yellow,681.0817076999997,None,681.0817076999997,None,6,0.7244598999996015,681.0817076999997,None,0.7244598999996015,681.8536124999996,None,682.3685736000002,None,682.3685736000002,None,r,0.1974051999995936,682.3685736000002,None,0.1974051999995936,,,112 Silent,001,2022_Dec_01_1055,ProdSingRedoBetween,2021.2.3,59.959371529795845,
,,,,13,0,13,0,,,,,,,,,,,,,,,,,,,,,,685.4573298999999,None,,,,,,,,,,,,,,,,,error,64,14,silent,old,red,683.0951116000001,None,683.0951116000001,None,6,0.8309091999999509,683.0951116000001,None,0.8309091999999509,683.9590410999995,None,684.4707220999994,None,684.4707220999994,None,r,0.9673106000000189,684.4707220999994,None,0.9673106000000189,,,112 Silent,001,2022_Dec_01_1055,ProdSingRedoBetween,2021.2.3,59.959371529795845,
,,,,14,0,14,0,,,,,,,,,,,,,,,,,,,,,,688.7757655999999,None,,,,,,,,,,,,,,,,,strength,145,15,silent,new,null,685.9791631000003,None,685.9791631000003,None,6,1.6427876999996442,685.9791631000003,None,1.6427876999996442,687.6419389999996,None,688.1546336999995,None,688.1546336999995,None,r,0.5954153000002407,688.1546336999995,None,0.5954153000002407,,,112 Silent,001,2022_Dec_01_1055,ProdSingRedoBetween,2021.2.3,59.959371529795845,
,,,,15,0,15,0,,,,,,,,,,,,,,,,,,,,,,691.8779698000003,None,,,,,,,,,,,,,,,,,still,24,16,silent,old,yellow,689.2812620999998,None,689.2812620999998,None,6,1.580712400000266,689.2812620999998,None,1.580712400000266,690.8784473000001,None,691.3852079000003,None,691.3852079000003,None,r,0.47665349999988393,691.3852079000003,None,0.47665349999988393,,,112 Silent,001,2022_Dec_01_1055,ProdSingRedoBetween,2021.2.3,59.959371529795845,
,,,,16,0,16,0,,,,,,,,,,,,,,,,,,,,,,694.3137357999999,None,,,,,,,,,,,,,,,,,express,122,17,silent,new,null,692.3786892000003,None,692.3786892000003,None,6,0.9632850999996663,692.3786892000003,None,0.9632850999996663,693.3699096999994,None,693.8869530999996,None,693.8869530999996,None,r,0.3989494999996168,693.8869530999996,None,0.3989494999996168,,,112 Silent,001,2022_Dec_01_1055,ProdSingRedoBetween,2021.2.3,59.959371529795845,
,,,,17,0,17,0,,,,,,,,,,,,,,,,,,,,,,696.5494198000001,None,,,,,,,,,,,,,,,,,raise,97,18,silent,new,null,694.8245418000001,None,694.8245418000001,None,6,0.7974555000000692,694.8245418000001,None,0.7974555000000692,695.6515315000001,None,696.1727766999998,None,696.1727766999998,None,r,0.3452614999996513,696.1727766999998,None,0.3452614999996513,,,112 Silent,001,2022_Dec_01_1055,ProdSingRedoBetween,2021.2.3,59.959371529795845,
,,,,18,0,18,0,,,,,,,,,,,,,,,,,,,,,,698.5861643000003,None,,,,,,,,,,,,,,,,,color,131,19,silent,new,null,697.0591614,None,697.0591614,None,6,0.8907708000006096,697.0591614,None,0.8907708000006096,697.9749068999995,None,698.4847955,None,698.4847955,None,r,0.08125070000005508,698.4847955,None,0.08125070000005508,,,112 Silent,001,2022_Dec_01_1055,ProdSingRedoBetween,2021.2.3,59.959371529795845,
,,,,19,0,19,0,,,,,,,,,,,,,,,,,,,,,,700.7533366000002,None,,,,,,,,,,,,,,,,,dispute,1,20,silent,old,yellow,699.1027448,None,699.1027448,None,6,1.047290100000282,699.1027448,None,1.047290100000282,700.1737785,None,700.6937485000003,None,700.6937485000003,None,r,0.03215209999962099,700.6937485000003,None,0.03215209999962099,,,112 Silent,001,2022_Dec_01_1055,ProdSingRedoBetween,2021.2.3,59.959371529795845,
,,,,20,0,20,0,,,,,,,,,,,,,,,,,,,,,,702.706396,None,,,,,,,,,,,,,,,,,afternoon,103,21,silent,new,null,701.2625062000002,None,701.2625062000002,None,6,0.8477022999995825,701.2625062000002,None,0.8477022999995825,702.1447647,None,702.6554728999995,None,702.6554728999995,None,r,0.022587499999644933,702.6554728999995,None,0.022587499999644933,,,112 Silent,001,2022_Dec_01_1055,ProdSingRedoBetween,2021.2.3,59.959371529795845,
,,,,21,0,21,0,,,,,,,,,,,,,,,,,,,,,,704.9741873999997,None,,,,,,,,,,,,,,,,,rapid,71,22,silent,old,red,703.2111694999999,None,703.2111694999999,None,6,0.9147892999999385,703.2111694999999,None,0.9147892999999385,704.1581394,None,704.6575072,None,704.6575072,None,r,0.30044269999962125,704.6575072,None,0.30044269999962125,,,112 Silent,001,2022_Dec_01_1055,ProdSingRedoBetween,2021.2.3,59.959371529795845,
,,,,22,0,22,0,,,,,,,,,,,,,,,,,,,,,,707.1598825999995,None,,,,,,,,,,,,,,,,,trial,156,23,silent,new,null,705.4792364999998,None,705.4792364999998,None,6,0.7428325999999288,705.4792364999998,None,0.7428325999999288,706.2420566999995,None,706.7454832999997,None,706.7454832999997,None,r,0.39642730000014126,706.7454832999997,None,0.39642730000014126,,,112 Silent,001,2022_Dec_01_1055,ProdSingRedoBetween,2021.2.3,59.959371529795845,
,,,,23,0,23,0,,,,,,,,,,,,,,,,,,,,,,709.3308982000003,None,,,,,,,,,,,,,,,,,birth,86,24,silent,old,red,707.6709175999999,None,707.6709175999999,None,6,0.999289499999577,707.6709175999999,None,0.999289499999577,708.7030634999996,None,709.2119651999997,None,709.2119651999997,None,r,0.09010130000024219,709.2119651999997,None,0.09010130000024219,,,112 Silent,001,2022_Dec_01_1055,ProdSingRedoBetween,2021.2.3,59.959371529795845,
,,,,24,0,24,0,,,,,,,,,,,,,,,,,,,,,,711.4873494999997,None,,,,,,,,,,,,,,,,,society,157,25,silent,new,null,709.8571951999998,None,709.8571951999998,None,6,0.7488492000002225,709.8571951999998,None,0.7488492000002225,710.6388296999999,None,711.1473964000002,None,711.1473964000002,None,r,0.30659819999982574,711.1473964000002,None,0.30659819999982574,,,112 Silent,001,2022_Dec_01_1055,ProdSingRedoBetween,2021.2.3,59.959371529795845,
,,,,25,0,25,0,,,,,,,,,,,,,,,,,,,,,,714.4839641000003,None,,,,,,,,,,,,,,,,,division,177,26,silent,new,null,712.0061468999997,None,712.0061468999997,None,6,1.8638337000002139,712.0061468999997,None,1.8638337000002139,713.9022167999997,None,714.4287684999995,None,714.4287684999995,None,r,0.03329639999992651,714.4287684999995,None,0.03329639999992651,,,112 Silent,001,2022_Dec_01_1055,ProdSingRedoBetween,2021.2.3,59.959371529795845,
,,,,26,0,26,0,,,,,,,,,,,,,,,,,,,,,,718.0796640000003,None,,,,,,,,,,,,,,,,,mankind,114,27,silent,new,null,714.9969483,None,714.9969483,None,6,1.6811363999995592,714.9969483,None,1.6811363999995592,716.7142152000001,None,717.2259948999995,None,717.2259948999995,None,r,0.8201896999999008,717.2259948999995,None,0.8201896999999008,,,112 Silent,001,2022_Dec_01_1055,ProdSingRedoBetween,2021.2.3,59.959371529795845,
,,,,27,0,27,0,,,,,,,,,,,,,,,,,,,,,,720.9580228999998,None,,,,,,,,,,,,,,,,,crowd,33,28,silent,old,blue,718.5982812999996,None,718.5982812999996,None,6,1.3678102999992916,718.5982812999996,None,1.3678102999992916,720.0044806999999,None,720.5071204000001,None,720.5071204000001,None,r,0.4193211000001611,720.5071204000001,None,0.4193211000001611,,,112 Silent,001,2022_Dec_01_1055,ProdSingRedoBetween,2021.2.3,59.959371529795845,
,,,,28,0,28,0,,,,,,,,,,,,,,,,,,,,,,723.0453290999999,None,,,,,,,,,,,,,,,,,accident,117,29,silent,new,null,721.4720368000003,None,721.4720368000003,None,6,0.8460248000001229,721.4720368000003,None,0.8460248000001229,722.3493265000002,None,722.8608069999996,None,722.8608069999996,None,r,0.16143490000013117,722.8608069999996,None,0.16143490000013117,,,112 Silent,001,2022_Dec_01_1055,ProdSingRedoBetween,2021.2.3,59.959371529795845,
,,,,29,0,29,0,,,,,,,,,,,,,,,,,,,,,,724.8442594000003,None,,,,,,,,,,,,,,,,,medicine,84,30,silent,old,red,723.5687510000002,None,723.5687510000002,None,6,0.6292768999992404,723.5687510000002,None,0.6292768999992404,724.2292801999997,None,724.7538694,None,724.7538694,None,r,0.06031540000003588,724.7538694,None,0.06031540000003588,,,112 Silent,001,2022_Dec_01_1055,ProdSingRedoBetween,2021.2.3,59.959371529795845,
,,,,30,0,30,0,,,,,,,,,,,,,,,,,,,,,,728.8658375999998,None,,,,,,,,,,,,,,,,,trend,173,31,silent,new,null,725.3519327999998,None,725.3519327999998,None,6,1.158140800000183,725.3519327999998,None,1.158140800000183,726.5290467,None,727.0372016999995,None,727.0372016999995,None,r,1.8008529999997336,727.0372016999995,None,1.8008529999997336,,,112 Silent,001,2022_Dec_01_1055,ProdSingRedoBetween,2021.2.3,59.959371529795845,
,,,,31,0,31,0,,,,,,,,,,,,,,,,,,,,,,732.0178934,None,,,,,,,,,,,,,,,,,military,163,32,silent,new,null,729.3699559000001,None,729.3699559000001,None,6,1.3720302000001539,729.3699559000001,None,1.3720302000001539,730.7683993999995,None,731.2717805999996,None,731.2717805999996,None,r,0.7262141999999585,731.2717805999996,None,0.7262141999999585,,,112 Silent,001,2022_Dec_01_1055,ProdSingRedoBetween,2021.2.3,59.959371529795845,
,,,,32,0,32,0,,,,,,,,,,,,,,,,,,,,,,734.4902133,None,,,,,,,,,,,,,,,,,attack,72,33,silent,old,red,732.5268323999994,None,732.5268323999994,None,6,1.127126300000782,732.5268323999994,None,1.127126300000782,733.6791160999996,None,734.1946769000001,None,734.1946769000001,None,r,0.26739050000014686,734.1946769000001,None,0.26739050000014686,,,112 Silent,001,2022_Dec_01_1055,ProdSingRedoBetween,2021.2.3,59.959371529795845,
,,,,33,0,33,0,,,,,,,,,,,,,,,,,,,,,,737.3900987000002,None,,,,,,,,,,,,,,,,,power,98,34,silent,new,null,735.0076286999997,None,735.0076286999997,None,6,0.9106308999998873,735.0076286999997,None,0.9106308999998873,735.9469237999997,None,736.4596267000002,None,736.4596267000002,None,r,0.9063697000001412,736.4596267000002,None,0.9063697000001412,,,112 Silent,001,2022_Dec_01_1055,ProdSingRedoBetween,2021.2.3,59.959371529795845,
,,,,34,0,34,0,,,,,,,,,,,,,,,,,,,,,,741.1271616999998,None,,,,,,,,,,,,,,,,,beauty,82,35,silent,old,red,737.8969824000001,None,737.8969824000001,None,6,2.365009399999508,737.8969824000001,None,2.365009399999508,740.2996914999999,None,740.8153333999994,None,740.8153333999994,None,r,0.29460980000021664,740.8153333999994,None,0.29460980000021664,,,112 Silent,001,2022_Dec_01_1055,ProdSingRedoBetween,2021.2.3,59.959371529795845,
,,,,35,0,35,0,,,,,,,,,,,,,,,,,,,,,,744.3310772999998,None,,,,,,,,,,,,,,,,,under,112,36,silent,new,null,741.6353911000001,None,741.6353911000001,None,6,1.4265122999995583,741.6353911000001,None,1.4265122999995583,743.0800597000002,None,743.5848898999998,None,743.5848898999998,None,r,0.7251344999995126,743.5848898999998,None,0.7251344999995126,,,112 Silent,001,2022_Dec_01_1055,ProdSingRedoBetween,2021.2.3,59.959371529795845,
,,,,36,0,36,0,,,,,,,,,,,,,,,,,,,,,,753.5071714999999,None,,,,,,,,,,,,,,,,,column,115,37,silent,new,null,744.8367579000001,None,744.8367579000001,None,6,7.817234999999528,744.8367579000001,None,7.817234999999528,752.6718460999996,None,753.1781678000002,None,753.1781678000002,None,r,0.3078553000004831,753.1781678000002,None,0.3078553000004831,,,112 Silent,001,2022_Dec_01_1055,ProdSingRedoBetween,2021.2.3,59.959371529795845,
,,,,37,0,37,0,,,,,,,,,,,,,,,,,,,,,,757.0431001000002,None,,,,,,,,,,,,,,,,,public,90,38,silent,new,null,754.0212461999995,None,754.0212461999995,None,6,2.2328210999994553,754.0212461999995,None,2.2328210999994553,756.2847447999998,None,756.7949920999995,None,756.7949920999995,None,r,0.21910030000071856,756.7949920999995,None,0.21910030000071856,,,112 Silent,001,2022_Dec_01_1055,ProdSingRedoBetween,2021.2.3,59.959371529795845,
,,,,38,0,38,0,,,,,,,,,,,,,,,,,,,,,,760.1294879000002,None,,,,,,,,,,,,,,,,,break,16,39,silent,old,yellow,757.5541171999998,None,757.5541171999998,None,6,1.875909500000489,757.5541171999998,None,1.875909500000489,759.4490518999996,None,759.9628637000001,None,759.9628637000001,None,r,0.1471391000004587,759.9628637000001,None,0.1471391000004587,,,112 Silent,001,2022_Dec_01_1055,ProdSingRedoBetween,2021.2.3,59.959371529795845,
,,,,39,0,39,0,,,,,,,,,,,,,,,,,,,,,,762.0813837000001,None,,,,,,,,,,,,,,,,,rough,150,40,silent,new,null,760.6400363999996,None,760.6400363999996,None,6,0.6379638999997042,760.6400363999996,None,0.6379638999997042,761.2982980000002,None,761.8048802999997,None,761.8048802999997,None,r,0.25718789999973524,761.8048802999997,None,0.25718789999973524,,,112 Silent,001,2022_Dec_01_1055,ProdSingRedoBetween,2021.2.3,59.959371529795845,
,,,,40,0,40,0,,,,,,,,,,,,,,,,,,,,,,764.2334717999997,None,,,,,,,,,,,,,,,,,smooth,138,41,silent,new,null,762.5929166000001,None,762.5929166000001,None,6,0.7971597999994628,762.5929166000001,None,0.7971597999994628,763.4195601999995,None,763.9331150000003,None,763.9331150000003,None,r,0.2807809999994788,763.9331150000003,None,0.2807809999994788,,,112 Silent,001,2022_Dec_01_1055,ProdSingRedoBetween,2021.2.3,59.959371529795845,
,,,,41,0,41,0,,,,,,,,,,,,,,,,,,,,,,767.5037267000002,None,,,,,,,,,,,,,,,,,whole,28,42,silent,old,yellow,764.7373622,None,764.7373622,None,6,2.0207286000004387,764.7373622,None,2.0207286000004387,766.7918334999999,None,767.3034639000002,None,767.3034639000002,None,r,0.18258270000023913,767.3034639000002,None,0.18258270000023913,,,112 Silent,001,2022_Dec_01_1055,ProdSingRedoBetween,2021.2.3,59.959371529795845,
,,,,42,0,42,0,,,,,,,,,,,,,,,,,,,,,,769.6222855000001,None,,,,,,,,,,,,,,,,,concern,56,43,silent,old,blue,768.0041260000003,None,768.0041260000003,None,6,0.8820061999995232,768.0041260000003,None,0.8820061999995232,768.9170456999996,None,769.4241577999996,None,769.4241577999996,None,r,0.17388990000017657,769.4241577999996,None,0.17388990000017657,,,112 Silent,001,2022_Dec_01_1055,ProdSingRedoBetween,2021.2.3,59.959371529795845,
,,,,43,0,43,0,,,,,,,,,,,,,,,,,,,,,,774.4438576999996,None,,,,,,,,,,,,,,,,,personnel,10,44,silent,old,yellow,770.1321590000002,None,770.1321590000002,None,6,2.1540876999997636,770.1321590000002,None,2.1540876999997636,772.3199016000003,None,772.8339924999996,None,772.8339924999996,None,f,1.5879979999999705,772.8339924999996,None,1.5879979999999705,,,112 Silent,001,2022_Dec_01_1055,ProdSingRedoBetween,2021.2.3,59.959371529795845,
,,,,44,0,44,0,,,,,,,,,,,,,,,,,,,,,,778.9512918999994,None,,,,,,,,,,,,,,,,,junior,77,45,silent,old,red,774.9685319999994,None,774.9685319999994,None,6,2.9974962999995114,774.9685319999994,None,2.9974962999995114,778.0114718,None,778.5215659,None,778.5215659,None,r,0.4045035999997708,778.5215659,None,0.4045035999997708,,,112 Silent,001,2022_Dec_01_1055,ProdSingRedoBetween,2021.2.3,59.959371529795845,
,,,,45,0,45,0,,,,,,,,,,,,,,,,,,,,,,782.6368984999995,None,,,,,,,,,,,,,,,,,budget,7,46,silent,old,yellow,779.4662167000001,None,779.4662167000001,None,6,2.0117935999996917,779.4662167000001,None,2.0117935999996917,781.5035047999995,None,782.0235031999996,None,782.0235031999996,None,r,0.5825550999998086,782.0235031999996,None,0.5825550999998086,,,112 Silent,001,2022_Dec_01_1055,ProdSingRedoBetween,2021.2.3,59.959371529795845,
,,,,46,0,46,0,,,,,,,,,,,,,,,,,,,,,,784.7040912999996,None,,,,,,,,,,,,,,,,,employment,116,47,silent,new,null,783.1562106999995,None,783.1562106999995,None,6,0.9539423999995051,783.1562106999995,None,0.9539423999995051,784.1425040999998,None,784.6606423999997,None,784.6606423999997,None,r,0.025482000000010885,784.6606423999997,None,0.025482000000010885,,,112 Silent,001,2022_Dec_01_1055,ProdSingRedoBetween,2021.2.3,59.959371529795845,
,,,,47,0,47,0,,,,,,,,,,,,,,,,,,,,,,786.6893409999998,None,,,,,,,,,,,,,,,,,sweet,36,48,silent,old,blue,785.2114938,None,785.2114938,None,6,0.8105470000000423,785.2114938,None,0.8105470000000423,786.0461650000002,None,786.5580359999999,None,786.5580359999999,None,r,0.11197450000054232,786.5580359999999,None,0.11197450000054232,,,112 Silent,001,2022_Dec_01_1055,ProdSingRedoBetween,2021.2.3,59.959371529795845,
,,,,48,0,48,0,,,,,,,,,,,,,,,,,,,,,,789.1585799999998,None,,,,,,,,,,,,,,,,,captain,42,49,silent,old,blue,787.2034018999998,None,787.2034018999998,None,6,0.8185756000002584,787.2034018999998,None,0.8185756000002584,788.0422851999997,None,788.5500222999995,None,788.5500222999995,None,r,0.5839871000007406,788.5500222999995,None,0.5839871000007406,,,112 Silent,001,2022_Dec_01_1055,ProdSingRedoBetween,2021.2.3,59.959371529795845,
,,,,49,0,49,0,,,,,,,,,,,,,,,,,,,,,,791.4617877999995,None,,,,,,,,,,,,,,,,,foundation,53,50,silent,old,blue,789.6634024999998,None,789.6634024999998,None,6,0.8145920000006299,789.6634024999998,None,0.8145920000006299,790.4954293999995,None,791.0164221999999,None,791.0164221999999,None,r,0.4216492000005019,791.0164221999999,None,0.4216492000005019,,,112 Silent,001,2022_Dec_01_1055,ProdSingRedoBetween,2021.2.3,59.959371529795845,
,,,,50,0,50,0,,,,,,,,,,,,,,,,,,,,,,794.1633323000001,None,,,,,,,,,,,,,,,,,throw,31,51,silent,old,blue,791.9787209000001,None,791.9787209000001,None,6,1.4112660999999207,791.9787209000001,None,1.4112660999999207,793.4142801000003,None,793.9270322999996,None,793.9270322999996,None,r,0.20687230000021373,793.9270322999996,None,0.20687230000021373,,,112 Silent,001,2022_Dec_01_1055,ProdSingRedoBetween,2021.2.3,59.959371529795845,
,,,,51,0,51,0,,,,,,,,,,,,,,,,,,,,,,798.1342789999994,None,,,,,,,,,,,,,,,,,direction,78,52,silent,old,red,794.6727231999998,None,794.6727231999998,None,6,2.013344099999813,794.6727231999998,None,2.013344099999813,796.7260499999998,None,797.2334324999997,None,797.2334324999997,None,r,0.8765920000005281,797.2334324999997,None,0.8765920000005281,,,112 Silent,001,2022_Dec_01_1055,ProdSingRedoBetween,2021.2.3,59.959371529795845,
,,,,52,0,52,0,,,,,,,,,,,,,,,,,,,,,,800.6867420000003,None,,,,,,,,,,,,,,,,,quiet,102,53,silent,new,null,798.6468186999996,None,798.6468186999996,None,6,1.359201899999789,798.6468186999996,None,1.359201899999789,800.0372382,None,800.5366075999996,None,800.5366075999996,None,r,0.12546800000018266,800.5366075999996,None,0.12546800000018266,,,112 Silent,001,2022_Dec_01_1055,ProdSingRedoBetween,2021.2.3,59.959371529795845,
,,,,53,0,53,0,,,,,,,,,,,,,,,,,,,,,,802.6070843000002,None,,,,,,,,,,,,,,,,,instrument,50,54,silent,old,blue,801.1911207999997,None,801.1911207999997,None,6,0.7349267999998119,801.1911207999997,None,0.7349267999998119,801.9602955999994,None,802.4741057999995,None,802.4741057999995,None,r,0.11621310000009544,802.4741057999995,None,0.11621310000009544,,,112 Silent,001,2022_Dec_01_1055,ProdSingRedoBetween,2021.2.3,59.959371529795845,
,,,,54,0,54,0,,,,,,,,,,,,,,,,,,,,,,805.1929813000002,None,,,,,,,,,,,,,,,,,trail,126,55,silent,new,null,803.1266854,None,803.1266854,None,6,1.0073565999991843,803.1266854,None,1.0073565999991843,804.1585924999995,None,804.6766606999995,None,804.6766606999995,None,r,0.4973496000002342,804.6766606999995,None,0.4973496000002342,,,112 Silent,001,2022_Dec_01_1055,ProdSingRedoBetween,2021.2.3,59.959371529795845,
,,,,55,0,55,0,,,,,,,,,,,,,,,,,,,,,,807.6937833999996,None,,,,,,,,,,,,,,,,,research,146,56,silent,new,null,805.7219775999997,None,805.7219775999997,None,6,1.2921212999999625,805.7219775999997,None,1.2921212999999625,807.0450348999998,None,807.5649288,None,807.5649288,None,r,0.10508010000012291,807.5649288,None,0.10508010000012291,,,112 Silent,001,2022_Dec_01_1055,ProdSingRedoBetween,2021.2.3,59.959371529795845,
,,,,56,0,56,0,,,,,,,,,,,,,,,,,,,,,,809.4648256999994,None,,,,,,,,,,,,,,,,,plane,124,57,silent,new,null,808.2123572999994,None,808.2123572999994,None,6,0.6097172999998293,808.2123572999994,None,0.6097172999998293,808.8541411000001,None,809.3630584999996,None,809.3630584999996,None,r,0.07508929999949032,809.3630584999996,None,0.07508929999949032,,,112 Silent,001,2022_Dec_01_1055,ProdSingRedoBetween,2021.2.3,59.959371529795845,
,,,,57,0,57,0,,,,,,,,,,,,,,,,,,,,,,812.7072929000001,None,,,,,,,,,,,,,,,,,science,54,58,silent,old,blue,809.9849105999997,None,809.9849105999997,None,6,0.6290546999998696,809.9849105999997,None,0.6290546999998696,810.6334089999996,None,811.1542956999997,None,811.1542956999997,None,r,1.5238993000002665,811.1542956999997,None,1.5238993000002665,,,112 Silent,001,2022_Dec_01_1055,ProdSingRedoBetween,2021.2.3,59.959371529795845,
,,,,58,0,58,0,,,,,,,,,,,,,,,,,,,,,,815.2206452999994,None,,,,,,,,,,,,,,,,,place,43,59,silent,old,blue,813.2208561000002,None,813.2208561000002,None,6,1.2172486999998,813.2208561000002,None,1.2172486999998,814.4682562000003,None,814.973947,None,814.973947,None,r,0.22413419999975304,814.973947,None,0.22413419999975304,,,112 Silent,001,2022_Dec_01_1055,ProdSingRedoBetween,2021.2.3,59.959371529795845,
,,,,59,0,59,0,,,,,,,,,,,,,,,,,,,,,,817.2697256999995,None,,,,,,,,,,,,,,,,,tennis,111,60,silent,new,null,815.7487850000002,None,815.7487850000002,None,6,0.577288800000133,815.7487850000002,None,0.577288800000133,816.3572110999999,None,816.8743339999996,None,816.8743339999996,None,r,0.37167929999941407,816.8743339999996,None,0.37167929999941407,,,112 Silent,001,2022_Dec_01_1055,ProdSingRedoBetween,2021.2.3,59.959371529795845,
,,,,60,0,60,0,,,,,,,,,,,,,,,,,,,,,,819.4054476999995,None,,,,,,,,,,,,,,,,,novel,67,61,silent,old,red,817.7806991000002,None,817.7806991000002,None,6,0.97742449999987,817.7806991000002,None,0.97742449999987,818.7957633999999,None,819.3111260000001,None,819.3111260000001,None,r,0.06300650000048336,819.3111260000001,None,0.06300650000048336,,,112 Silent,001,2022_Dec_01_1055,ProdSingRedoBetween,2021.2.3,59.959371529795845,
,,,,61,0,61,0,,,,,,,,,,,,,,,,,,,,,,823.9932346999999,None,,,,,,,,,,,,,,,,,waste,164,62,silent,new,null,819.9122175999996,None,819.9122175999996,None,6,2.5819393000001583,819.9122175999996,None,2.5819393000001583,822.5299792999999,None,823.0425152000003,None,823.0425152000003,None,r,0.9315766999998232,823.0425152000003,None,0.9315766999998232,,,112 Silent,001,2022_Dec_01_1055,ProdSingRedoBetween,2021.2.3,59.959371529795845,
,,,,62,0,62,0,,,,,,,,,,,,,,,,,,,,,,826.4488053999999,None,,,,,,,,,,,,,,,,,commercial,175,63,silent,new,null,824.4964107000001,None,824.4964107000001,None,6,0.693907599999875,824.4964107000001,None,0.693907599999875,825.2235066999997,None,825.7319168999998,None,825.7319168999998,None,r,0.6982580999992933,825.7319168999998,None,0.6982580999992933,,,112 Silent,001,2022_Dec_01_1055,ProdSingRedoBetween,2021.2.3,59.959371529795845,
,,,,63,0,63,0,,,,,,,,,,,,,,,,,,,,,,828.9984199999994,None,,,,,,,,,,,,,,,,,enemy,89,64,silent,old,red,826.9740618000001,None,826.9740618000001,None,6,1.1440605000007054,826.9740618000001,None,1.1440605000007054,828.1478327999998,None,828.6549552000001,None,828.6549552000001,None,r,0.31912610000017594,828.6549552000001,None,0.31912610000017594,,,112 Silent,001,2022_Dec_01_1055,ProdSingRedoBetween,2021.2.3,59.959371529795845,
,,,,64,0,64,0,,,,,,,,,,,,,,,,,,,,,,831.9176891000002,None,,,,,,,,,,,,,,,,,election,69,65,silent,old,red,829.5051010000002,None,829.5051010000002,None,6,0.7489786000005552,829.5051010000002,None,0.7489786000005552,830.2829657999996,None,830.7874083000002,None,830.7874083000002,None,r,1.1066348999993352,830.7874083000002,None,1.1066348999993352,,,112 Silent,001,2022_Dec_01_1055,ProdSingRedoBetween,2021.2.3,59.959371529795845,
,,,,65,0,65,0,,,,,,,,,,,,,,,,,,,,,,835.3917709000002,None,,,,,,,,,,,,,,,,,substance,174,66,silent,new,null,832.4186082000001,None,832.4186082000001,None,6,1.6594277000003785,832.4186082000001,None,1.6594277000003785,834.1056406000002,None,834.6258894999996,None,834.6258894999996,None,r,0.7324721000004502,834.6258894999996,None,0.7324721000004502,,,112 Silent,001,2022_Dec_01_1055,ProdSingRedoBetween,2021.2.3,59.959371529795845,
,,,,66,0,66,0,,,,,,,,,,,,,,,,,,,,,,838.7413197999999,None,,,,,,,,,,,,,,,,,bright,19,67,silent,old,yellow,835.9133378000001,None,835.9133378000001,None,6,2.1727325000001656,835.9133378000001,None,2.1727325000001656,838.1096984000001,None,838.6340544999998,None,838.6340544999998,None,r,0.09206919999996899,838.6340544999998,None,0.09206919999996899,,,112 Silent,001,2022_Dec_01_1055,ProdSingRedoBetween,2021.2.3,59.959371529795845,
,,,,67,0,67,0,,,,,,,,,,,,,,,,,,,,,,841.9777538000003,None,,,,,,,,,,,,,,,,,bucket,23,68,silent,old,yellow,839.2602070999997,None,839.2602070999997,None,6,0.8338569999996253,839.2602070999997,None,0.8338569999996253,840.1134035,None,840.6350871999998,None,840.6350871999998,None,r,1.314988899999662,840.6350871999998,None,1.314988899999662,,,112 Silent,001,2022_Dec_01_1055,ProdSingRedoBetween,2021.2.3,59.959371529795845,
,,,,68,0,68,0,,,,,,,,,,,,,,,,,,,,,,848.0171297000002,None,,,,,,,,,,,,,,,,,testimony,165,69,silent,new,null,842.4862745999994,None,842.4862745999994,None,6,3.4558882000001176,842.4862745999994,None,3.4558882000001176,845.9769479000001,None,846.4838683000003,None,846.4838683000003,None,f,1.514166099999784,846.4838683000003,None,1.514166099999784,,,112 Silent,001,2022_Dec_01_1055,ProdSingRedoBetween,2021.2.3,59.959371529795845,
,,,,69,0,69,0,,,,,,,,,,,,,,,,,,,,,,850.0696359999997,None,,,,,,,,,,,,,,,,,pressure,73,70,silent,old,red,848.5178247999997,None,848.5178247999997,None,6,0.9522241000004215,848.5178247999997,None,0.9522241000004215,849.4866901,None,849.9938612999999,None,849.9938612999999,None,r,0.060179600000083155,849.9938612999999,None,0.060179600000083155,,,112 Silent,001,2022_Dec_01_1055,ProdSingRedoBetween,2021.2.3,59.959371529795845,
,,,,70,0,70,0,,,,,,,,,,,,,,,,,,,,,,853.5562121999997,None,,,,,,,,,,,,,,,,,curve,38,71,silent,old,blue,850.5785185999998,None,850.5785185999998,None,6,2.3717570999997406,850.5785185999998,None,2.3717570999997406,852.9797045,None,853.4914413000001,None,853.4914413000001,None,r,0.034691400000156136,853.4914413000001,None,0.034691400000156136,,,112 Silent,001,2022_Dec_01_1055,ProdSingRedoBetween,2021.2.3,59.959371529795845,
,,,,71,0,71,0,,,,,,,,,,,,,,,,,,,,,,855.6083283000003,None,,,,,,,,,,,,,,,,,appearance,143,72,silent,new,null,854.0627050999997,None,854.0627050999997,None,6,0.6552661000005173,854.0627050999997,None,0.6552661000005173,854.7430836999997,None,855.2627674999999,None,855.2627674999999,None,r,0.3272177000008014,855.2627674999999,None,0.3272177000008014,,,112 Silent,001,2022_Dec_01_1055,ProdSingRedoBetween,2021.2.3,59.959371529795845,
,,,,72,0,72,0,,,,,,,,,,,,,,,,,,,,,,858.8616410999998,None,,,,,,,,,,,,,,,,,guard,136,73,silent,new,null,856.1168009999997,None,856.1168009999997,None,6,1.7772540999994817,856.1168009999997,None,1.7772540999994817,857.9103832999995,None,858.4206552,None,858.4206552,None,r,0.41736760000003414,858.4206552,None,0.41736760000003414,,,112 Silent,001,2022_Dec_01_1055,ProdSingRedoBetween,2021.2.3,59.959371529795845,
,,,,73,0,73,0,,,,,,,,,,,,,,,,,,,,,,860.8134673999998,None,,,,,,,,,,,,,,,,,narrow,94,74,silent,new,null,859.3647458,None,859.3647458,None,6,0.777331399999639,859.3647458,None,0.777331399999639,860.1663655999996,None,860.6837595000002,None,860.6837595000002,None,r,0.11428620000060619,860.6837595000002,None,0.11428620000060619,,,112 Silent,001,2022_Dec_01_1055,ProdSingRedoBetween,2021.2.3,59.959371529795845,
,,,,74,0,74,0,,,,,,,,,,,,,,,,,,,,,,862.6820586999997,None,,,,,,,,,,,,,,,,,group,137,75,silent,new,null,861.3239489000002,None,861.3239489000002,None,6,0.7061170000006314,861.3239489000002,None,0.7061170000006314,862.0538200999995,None,862.5681772000003,None,862.5681772000003,None,r,0.09388099999978294,862.5681772000003,None,0.09388099999978294,,,112 Silent,001,2022_Dec_01_1055,ProdSingRedoBetween,2021.2.3,59.959371529795845,
,,,,75,0,75,0,,,,,,,,,,,,,,,,,,,,,,866.0520511999998,None,,,,,,,,,,,,,,,,,style,141,76,silent,new,null,863.1904428000003,None,863.1904428000003,None,6,1.1356865999996444,863.1904428000003,None,1.1356865999996444,864.3533210999999,None,864.8759347999999,None,864.8759347999999,None,r,1.146128299999873,864.8759347999999,None,1.146128299999873,,,112 Silent,001,2022_Dec_01_1055,ProdSingRedoBetween,2021.2.3,59.959371529795845,
,,,,76,0,76,0,,,,,,,,,,,,,,,,,,,,,,868.0055925000001,None,,,,,,,,,,,,,,,,,sight,127,77,silent,new,null,866.5667244000001,None,866.5667244000001,None,6,0.7833405000001221,866.5667244000001,None,0.7833405000001221,867.3715179999995,None,867.8811246999999,None,867.8811246999999,None,r,0.09294229999977688,867.8811246999999,None,0.09294229999977688,,,112 Silent,001,2022_Dec_01_1055,ProdSingRedoBetween,2021.2.3,59.959371529795845,
,,,,77,0,77,0,,,,,,,,,,,,,,,,,,,,,,870.8735148999999,None,,,,,,,,,,,,,,,,,leader,151,78,silent,new,null,868.5167317999999,None,868.5167317999999,None,6,1.2013266999992993,868.5167317999999,None,1.2013266999992993,869.7400345000001,None,870.2439847999999,None,870.2439847999999,None,r,0.6100571999995736,870.2439847999999,None,0.6100571999995736,,,112 Silent,001,2022_Dec_01_1055,ProdSingRedoBetween,2021.2.3,59.959371529795845,
,,,,78,0,78,0,,,,,,,,,,,,,,,,,,,,,,872.8254346999997,None,,,,,,,,,,,,,,,,,meeting,70,79,silent,old,red,871.3921587999998,None,871.3921587999998,None,6,0.589903800000684,871.3921587999998,None,0.589903800000684,872.0098070999998,None,872.5306924000001,None,872.5306924000001,None,r,0.2753529999999955,872.5306924000001,None,0.2753529999999955,,,112 Silent,001,2022_Dec_01_1055,ProdSingRedoBetween,2021.2.3,59.959371529795845,
,,,,79,0,79,0,,,,,,,,,,,,,,,,,,,,,,875.0109620999997,None,,,,,,,,,,,,,,,,,season,153,80,silent,new,null,873.3440907999998,None,873.3440907999998,None,6,0.8300051000005624,873.3440907999998,None,0.8300051000005624,874.1971376999995,None,874.7123722000001,None,874.7123722000001,None,r,0.2697709999993094,874.7123722000001,None,0.2697709999993094,,,112 Silent,001,2022_Dec_01_1055,ProdSingRedoBetween,2021.2.3,59.959371529795845,
,,,,80,0,80,0,,,,,,,,,,,,,,,,,,,,,,881.0837322000002,None,,,,,,,,,,,,,,,,,agency,40,81,silent,old,blue,875.5165587999995,None,875.5165587999995,None,6,1.4097609999998895,875.5165587999995,None,1.4097609999998895,876.9531747999995,None,877.4635250999995,None,877.4635250999995,None,r,3.5905238999994253,877.4635250999995,None,3.5905238999994253,,,112 Silent,001,2022_Dec_01_1055,ProdSingRedoBetween,2021.2.3,59.959371529795845,
,,,,81,0,81,0,,,,,,,,,,,,,,,,,,,,,,885.0375503,None,,,,,,,,,,,,,,,,,individual,101,82,silent,new,null,881.5952923999998,None,881.5952923999998,None,6,2.618774399999893,881.5952923999998,None,2.618774399999893,884.2380360000002,None,884.7372155999997,None,884.7372155999997,None,r,0.2767567999999301,884.7372155999997,None,0.2767567999999301,,,112 Silent,001,2022_Dec_01_1055,ProdSingRedoBetween,2021.2.3,59.959371529795845,
,,,,82,0,82,0,,,,,,,,,,,,,,,,,,,,,,892.4989783999995,None,,,,,,,,,,,,,,,,,provision,147,83,silent,new,null,885.5480186999998,None,885.5480186999998,None,6,1.762120800000048,885.5480186999998,None,1.762120800000048,887.3416262999995,None,887.8503089999999,None,887.8503089999999,None,f,4.62784019999981,887.8503089999999,None,4.62784019999981,,,112 Silent,001,2022_Dec_01_1055,ProdSingRedoBetween,2021.2.3,59.959371529795845,
,,,,83,0,83,0,,,,,,,,,,,,,,,,,,,,,,895.1308641,None,,,,,,,,,,,,,,,,,sunset,76,84,silent,old,red,893.0198441999996,None,893.0198441999996,None,6,1.0982350000003862,893.0198441999996,None,1.0982350000003862,894.1479658000003,None,894.653546,None,894.653546,None,r,0.44863789999999426,894.653546,None,0.44863789999999426,,,112 Silent,001,2022_Dec_01_1055,ProdSingRedoBetween,2021.2.3,59.959371529795845,
,,,,84,0,84,0,,,,,,,,,,,,,,,,,,,,,,897.5016897999999,None,,,,,,,,,,,,,,,,,citizen,63,85,silent,old,red,895.6400306999999,None,895.6400306999999,None,6,0.7500406999997722,895.6400306999999,None,0.7500406999997722,896.4171728999995,None,896.9248651000003,None,896.9248651000003,None,r,0.5451764999997977,896.9248651000003,None,0.5451764999997977,,,112 Silent,001,2022_Dec_01_1055,ProdSingRedoBetween,2021.2.3,59.959371529795845,
,,,,85,0,85,0,,,,,,,,,,,,,,,,,,,,,,899.6074898000002,None,,,,,,,,,,,,,,,,,stranger,51,86,silent,old,blue,898.0199701999995,None,898.0199701999995,None,6,0.8342059999995399,898.0199701999995,None,0.8342059999995399,898.8898475000001,None,899.4032955999996,None,899.4032955999996,None,r,0.1709154000000126,899.4032955999996,None,0.1709154000000126,,,112 Silent,001,2022_Dec_01_1055,ProdSingRedoBetween,2021.2.3,59.959371529795845,
,,,,86,0,86,0,,,,,,,,,,,,,,,,,,,,,,901.7073257999996,None,,,,,,,,,,,,,,,,,balance,79,87,silent,old,red,900.1274766000001,None,900.1274766000001,None,6,0.6545734999999695,900.1274766000001,None,0.6545734999999695,900.8048311999996,None,901.3098034999998,None,901.3098034999998,None,r,0.3763480999996318,901.3098034999998,None,0.3763480999996318,,,112 Silent,001,2022_Dec_01_1055,ProdSingRedoBetween,2021.2.3,59.959371529795845,
,,,,87,0,87,0,,,,,,,,,,,,,,,,,,,,,,905.1410921000002,None,,,,,,,,,,,,,,,,,listen,148,88,silent,new,null,902.2373726000001,None,902.2373726000001,None,6,0.5686735999997836,902.2373726000001,None,0.5686735999997836,902.8233091999996,None,903.3312965999999,None,903.3312965999999,None,r,1.7788730000002033,903.3312965999999,None,1.7788730000002033,,,112 Silent,001,2022_Dec_01_1055,ProdSingRedoBetween,2021.2.3,59.959371529795845,
,,,,88,0,88,0,,,,,,,,,,,,,,,,,,,,,,907.2098306000003,None,,,,,,,,,,,,,,,,,suspect,87,89,silent,old,red,905.6575283999996,None,905.6575283999996,None,6,0.6926260999998703,905.6575283999996,None,0.6926260999998703,906.3770518999995,None,906.8811269000003,None,906.8811269000003,None,r,0.3008645999998407,906.8811269000003,None,0.3008645999998407,,,112 Silent,001,2022_Dec_01_1055,ProdSingRedoBetween,2021.2.3,59.959371529795845,
,,,,89,0,89,0,,,,,,,,,,,,,,,,,,,,,,909.2952216999997,None,,,,,,,,,,,,,,,,,population,135,90,silent,new,null,907.7223876000003,None,907.7223876000003,None,6,0.9157279000000926,907.7223876000003,None,0.9157279000000926,908.6664921999995,None,909.1911447999996,None,909.1911447999996,None,r,0.07894540000052075,909.1911447999996,None,0.07894540000052075,,,112 Silent,001,2022_Dec_01_1055,ProdSingRedoBetween,2021.2.3,59.959371529795845,
,,,,90,0,90,0,,,,,,,,,,,,,,,,,,,,,,912.4648905999998,None,,,,,,,,,,,,,,,,,majority,161,91,silent,new,null,909.8066512,None,909.8066512,None,6,2.0313627999994424,909.8066512,None,2.0313627999994424,911.8664875999998,None,912.3921482000001,None,912.3921482000001,None,r,0.05394849999993312,912.3921482000001,None,0.05394849999993312,,,112 Silent,001,2022_Dec_01_1055,ProdSingRedoBetween,2021.2.3,59.959371529795845,
,,,,91,0,91,0,,,,,,,,,,,,,,,,,,,,,,916.4690549000002,None,,,,,,,,,,,,,,,,,executive,118,92,silent,new,null,912.9813601000001,None,912.9813601000001,None,6,1.2646975999996357,912.9813601000001,None,1.2646975999996357,914.2690723000001,None,914.8023622999995,None,914.8023622999995,None,f,1.651727600000413,914.8023622999995,None,1.651727600000413,,,112 Silent,001,2022_Dec_01_1055,ProdSingRedoBetween,2021.2.3,59.959371529795845,
,,,,92,0,92,0,,,,,,,,,,,,,,,,,,,,,,918.8046939999999,None,,,,,,,,,,,,,,,,,religion,60,93,silent,old,red,916.9788367999995,None,916.9788367999995,None,6,0.8752013000002989,916.9788367999995,None,0.8752013000002989,917.8723354999997,None,918.3981343,None,918.3981343,None,r,0.38395719999971334,918.3981343,None,0.38395719999971334,,,112 Silent,001,2022_Dec_01_1055,ProdSingRedoBetween,2021.2.3,59.959371529795845,
,,,,93,0,93,0,,,,,,,,,,,,,,,,,,,,,,920.5732765999996,None,,,,,,,,,,,,,,,,,month,57,94,silent,old,blue,919.3124032999999,None,919.3124032999999,None,6,0.6615830999999162,919.3124032999999,None,0.6615830999999162,919.9916649000002,None,920.5084873999999,None,920.5084873999999,None,r,0.04963270000007469,920.5084873999999,None,0.04963270000007469,,,112 Silent,001,2022_Dec_01_1055,ProdSingRedoBetween,2021.2.3,59.959371529795845,
,,,,94,0,94,0,,,,,,,,,,,,,,,,,,,,,,923.1424799000001,None,,,,,,,,,,,,,,,,,alert,155,95,silent,new,null,921.0815489000001,None,921.0815489000001,None,6,0.5245045000001483,921.0815489000001,None,0.5245045000001483,921.6252109000002,None,922.1307455000001,None,922.1307455000001,None,r,0.9953367999996772,922.1307455000001,None,0.9953367999996772,,,112 Silent,001,2022_Dec_01_1055,ProdSingRedoBetween,2021.2.3,59.959371529795845,
,,,,95,0,95,0,,,,,,,,,,,,,,,,,,,,,,925.3780345,None,,,,,,,,,,,,,,,,,scale,159,96,silent,new,null,923.6430494000001,None,923.6430494000001,None,6,0.6270838000000367,923.6430494000001,None,0.6270838000000367,924.3072698000001,None,924.8112865999997,None,924.8112865999997,None,r,0.546779900000729,924.8112865999997,None,0.546779900000729,,,112 Silent,001,2022_Dec_01_1055,ProdSingRedoBetween,2021.2.3,59.959371529795845,
,,,,96,0,96,0,,,,,,,,,,,,,,,,,,,,,,927.2130940000002,None,,,,,,,,,,,,,,,,,running,34,97,silent,old,blue,925.8887467999998,None,925.8887467999998,None,6,0.6133601000001363,925.8887467999998,None,0.6133601000001363,926.5332630999997,None,927.0481009999999,None,927.0481009999999,None,r,0.1500175000001036,927.0481009999999,None,0.1500175000001036,,,112 Silent,001,2022_Dec_01_1055,ProdSingRedoBetween,2021.2.3,59.959371529795845,
,,,,97,0,97,0,,,,,,,,,,,,,,,,,,,,,,929.5019846999999,None,,,,,,,,,,,,,,,,,school,14,98,silent,old,yellow,927.7315653,None,927.7315653,None,6,0.5385490999997273,927.7315653,None,0.5385490999997273,928.3025301000002,None,928.8186739999996,None,928.8186739999996,None,r,0.6594938999996884,928.8186739999996,None,0.6594938999996884,,,112 Silent,001,2022_Dec_01_1055,ProdSingRedoBetween,2021.2.3,59.959371529795845,
,,,,98,0,98,0,,,,,,,,,,,,,,,,,,,,,,932.7186402000002,None,,,,,,,,,,,,,,,,,material,30,99,silent,old,blue,930.0215711999995,None,930.0215711999995,None,6,1.5445305000002918,930.0215711999995,None,1.5445305000002918,931.5912151999996,None,932.1014051999996,None,932.1014051999996,None,r,0.6006221999996342,932.1014051999996,None,0.6006221999996342,,,112 Silent,001,2022_Dec_01_1055,ProdSingRedoBetween,2021.2.3,59.959371529795845,
,,,,99,0,99,0,,,,,,,,,,,,,,,,,,,,,,934.8040416999997,None,,,,,,,,,,,,,,,,,education,32,100,silent,old,blue,933.2283663000003,None,933.2283663000003,None,6,0.6178285000005417,933.2283663000003,None,0.6178285000005417,933.8808943999998,None,934.3880267,None,934.3880267,None,r,0.3860507999997935,934.3880267,None,0.3860507999997935,,,112 Silent,001,2022_Dec_01_1055,ProdSingRedoBetween,2021.2.3,59.959371529795845,
,,,,100,0,100,0,,,,,,,,,,,,,,,,,,,,,,939.5588622,None,,,,,,,,,,,,,,,,,candidate,176,101,silent,new,null,935.3115464999996,None,935.3115464999996,None,6,0.5426461999995809,935.3115464999996,None,0.5426461999995809,935.8848874999999,None,936.3891392,None,936.3891392,None,r,3.144936200000302,936.3891392,None,3.144936200000302,,,112 Silent,001,2022_Dec_01_1055,ProdSingRedoBetween,2021.2.3,59.959371529795845,
,,,,101,0,101,0,,,,,,,,,,,,,,,,,,,,,,941.7503044,None,,,,,,,,,,,,,,,,,judge,83,102,silent,old,red,940.0640304000003,None,940.0640304000003,None,6,0.654200399999354,940.0640304000003,None,0.654200399999354,940.7484420999995,None,941.2643737000003,None,941.2643737000003,None,r,0.4618657999999414,941.2643737000003,None,0.4618657999999414,,,112 Silent,001,2022_Dec_01_1055,ProdSingRedoBetween,2021.2.3,59.959371529795845,
,,,,102,0,102,0,,,,,,,,,,,,,,,,,,,,,,943.5333918000001,None,,,,,,,,,,,,,,,,,working,142,103,silent,new,null,942.2823443000002,None,942.2823443000002,None,6,0.5477534999999989,942.2823443000002,None,0.5477534999999989,942.8524364,None,943.3689441000001,None,943.3689441000001,None,r,0.1332075000000259,943.3689441000001,None,0.1332075000000259,,,112 Silent,001,2022_Dec_01_1055,ProdSingRedoBetween,2021.2.3,59.959371529795845,
,,,,103,0,103,0,,,,,,,,,,,,,,,,,,,,,,945.6358519,None,,,,,,,,,,,,,,,,,territory,88,104,silent,old,red,944.0516536,None,944.0516536,None,6,0.5544279999994615,944.0516536,None,0.5544279999994615,944.6319719999997,None,945.1477620999999,None,945.1477620999999,None,r,0.4666240000005928,945.1477620999999,None,0.4666240000005928,,,112 Silent,001,2022_Dec_01_1055,ProdSingRedoBetween,2021.2.3,59.959371529795845,
,,,,104,0,104,0,,,,,,,,,,,,,,,,,,,,,,948.9181477999996,None,,,,,,,,,,,,,,,,,platform,110,105,silent,new,null,946.1632143000002,None,946.1632143000002,None,6,0.7389469999998255,946.1632143000002,None,0.7389469999998255,946.9387617999996,None,947.4509855000001,None,947.4509855000001,None,r,1.450969399999849,947.4509855000001,None,1.450969399999849,,,112 Silent,001,2022_Dec_01_1055,ProdSingRedoBetween,2021.2.3,59.959371529795845,
,,,,105,0,105,0,,,,,,,,,,,,,,,,,,,,,,952.0249976,None,,,,,,,,,,,,,,,,,republic,61,106,silent,old,red,949.4307099000002,None,949.4307099000002,None,6,0.7833709999995335,949.4307099000002,None,0.7833709999995335,950.2413431999998,None,950.7552608999999,None,950.7552608999999,None,f,1.235176600000159,950.7552608999999,None,1.235176600000159,,,112 Silent,001,2022_Dec_01_1055,ProdSingRedoBetween,2021.2.3,59.959371529795845,
,,,,106,0,106,0,,,,,,,,,,,,,,,,,,,,,,955.2780404,None,,,,,,,,,,,,,,,,,court,130,107,silent,new,null,952.5386432999999,None,952.5386432999999,None,6,1.667398399999911,952.5386432999999,None,1.667398399999911,954.2253577999995,None,954.7447692999999,None,954.7447692999999,None,r,0.5015523000001849,954.7447692999999,None,0.5015523000001849,,,112 Silent,001,2022_Dec_01_1055,ProdSingRedoBetween,2021.2.3,59.959371529795845,
,,,,107,0,107,0,,,,,,,,,,,,,,,,,,,,,,958.7823400000002,None,,,,,,,,,,,,,,,,,detective,106,108,silent,new,null,955.7991219,None,955.7991219,None,6,1.2151508000006288,955.7991219,None,1.2151508000006288,957.0594664999994,None,957.5647377,None,957.5647377,None,r,1.1936419000003298,957.5647377,None,1.1936419000003298,,,112 Silent,001,2022_Dec_01_1055,ProdSingRedoBetween,2021.2.3,59.959371529795845,
,,,,108,0,108,0,,,,,,,,,,,,,,,,,,,,,,962.8530303000002,None,,,,,,,,,,,,,,,,,comedy,44,109,silent,old,blue,959.3250836000002,None,959.3250836000002,None,6,1.7450982999998814,959.3250836000002,None,1.7450982999998814,961.1087929,None,961.6178655999997,None,961.6178655999997,None,f,1.2123839999994743,961.6178655999997,None,1.2123839999994743,,,112 Silent,001,2022_Dec_01_1055,ProdSingRedoBetween,2021.2.3,59.959371529795845,
,,,,109,0,109,0,,,,,,,,,,,,,,,,,,,,,,966.1429241000001,None,,,,,,,,,,,,,,,,,character,15,110,silent,old,yellow,963.3777727000002,None,963.3777727000002,None,6,1.40436150000005,963.3777727000002,None,1.40436150000005,964.8082092,None,965.3193421999999,None,965.3193421999999,None,r,0.7909072000002197,965.3193421999999,None,0.7909072000002197,,,112 Silent,001,2022_Dec_01_1055,ProdSingRedoBetween,2021.2.3,59.959371529795845,
,,,,110,0,110,0,,,,,,,,,,,,,,,,,,,,,,968.6067740000003,None,,,,,,,,,,,,,,,,,height,29,111,silent,old,blue,966.6672453999995,None,966.6672453999995,None,6,0.6189076999999088,966.6672453999995,None,0.6189076999999088,967.3080730999995,None,967.8204395999996,None,967.8204395999996,None,r,0.7539076000002751,967.8204395999996,None,0.7539076000002751,,,112 Silent,001,2022_Dec_01_1055,ProdSingRedoBetween,2021.2.3,59.959371529795845,
,,,,111,0,111,0,,,,,,,,,,,,,,,,,,,,,,971.4932622000001,None,,,,,,,,,,,,,,,,,orchestra,62,112,silent,old,red,969.1278539999998,None,969.1278539999998,None,6,0.6702389000001858,969.1278539999998,None,0.6702389000001858,969.8255999999997,None,970.3425719000002,None,970.3425719000002,None,f,1.1196203999998033,970.3425719000002,None,1.1196203999998033,,,112 Silent,001,2022_Dec_01_1055,ProdSingRedoBetween,2021.2.3,59.959371529795845,
,,,,112,0,112,0,,,,,,,,,,,,,,,,,,,,,,975.4946247000003,None,,,,,,,,,,,,,,,,,engineer,66,113,silent,old,red,972.0203538999999,None,972.0203538999999,None,6,1.1457454999999754,972.0203538999999,None,1.1457454999999754,973.1943762999995,None,973.7199392999996,None,973.7199392999996,None,r,1.758053500000642,973.7199392999996,None,1.758053500000642,,,112 Silent,001,2022_Dec_01_1055,ProdSingRedoBetween,2021.2.3,59.959371529795845,
,,,,113,0,113,0,,,,,,,,,,,,,,,,,,,,,,977.3466395,None,,,,,,,,,,,,,,,,,level,167,114,silent,new,null,976.0051724,None,976.0051724,None,6,0.47287109999979293,976.0051724,None,0.47287109999979293,976.4991708000002,None,977.0137336000003,None,977.0137336000003,None,r,0.3124067999997351,977.0137336000003,None,0.3124067999997351,,,112 Silent,001,2022_Dec_01_1055,ProdSingRedoBetween,2021.2.3,59.959371529795845,
,,,,114,0,114,0,,,,,,,,,,,,,,,,,,,,,,979.2208613999996,None,,,,,,,,,,,,,,,,,contract,13,115,silent,old,yellow,977.8512666000001,None,977.8512666000001,None,6,0.47484519999943586,977.8512666000001,None,0.47484519999943586,978.3486160999996,None,978.8546118999998,None,978.8546118999998,None,r,0.34355070000037813,978.8546118999998,None,0.34355070000037813,,,112 Silent,001,2022_Dec_01_1055,ProdSingRedoBetween,2021.2.3,59.959371529795845,
,,,,115,0,115,0,,,,,,,,,,,,,,,,,,,,,,983.1190024000002,None,,,,,,,,,,,,,,,,,broad,37,116,silent,old,blue,979.7402924000003,None,979.7402924000003,None,6,0.4899218999998993,979.7402924000003,None,0.4899218999998993,980.2546498999995,None,980.7668259999996,None,980.7668259999996,None,r,2.33530139999948,980.7668259999996,None,2.33530139999948,,,112 Silent,001,2022_Dec_01_1055,ProdSingRedoBetween,2021.2.3,59.959371529795845,
,,,,116,0,116,0,,,,,,,,,,,,,,,,,,,,,,985.4880540999998,None,,,,,,,,,,,,,,,,,pretty,113,117,silent,new,null,983.6351055,None,983.6351055,None,6,0.7470878999993147,983.6351055,None,0.7470878999993147,984.4091751999999,None,984.9208066999995,None,984.9208066999995,None,r,0.5412365000001955,984.9208066999995,None,0.5412365000001955,,,112 Silent,001,2022_Dec_01_1055,ProdSingRedoBetween,2021.2.3,59.959371529795845,
,,,,117,0,117,0,,,,,,,,,,,,,,,,,,,,,,990.4262198000001,None,,,,,,,,,,,,,,,,,session,170,118,silent,new,null,985.9996481000003,None,985.9996481000003,None,6,3.3984250999992582,985.9996481000003,None,3.3984250999992582,989.4263224000001,None,989.9325776000001,None,989.9325776000001,None,r,0.4655917000000045,989.9325776000001,None,0.4655917000000045,,,112 Silent,001,2022_Dec_01_1055,ProdSingRedoBetween,2021.2.3,59.959371529795845,
,,,,118,0,118,0,,,,,,,,,,,,,,,,,,,,,,993.3793419999997,None,,,,,,,,,,,,,,,,,clean,134,119,silent,new,null,990.9449959999997,None,990.9449959999997,None,6,1.4133212000006097,990.9449959999997,None,1.4133212000006097,992.3861247999998,None,992.8991070999996,None,992.8991070999996,None,r,0.45105789999979606,992.8991070999996,None,0.45105789999979606,,,112 Silent,001,2022_Dec_01_1055,ProdSingRedoBetween,2021.2.3,59.959371529795845,
,,,,119,0,119,0,,,,,,,,,,,,,,,,,,,,,,996.6660744999995,None,,,,,,,,,,,,,,,,,conference,96,120,silent,new,null,993.8915394,None,993.8915394,None,6,1.1225016999997024,993.8915394,None,1.1225016999997024,995.0324301999995,None,995.5382506000001,None,995.5382506000001,None,r,1.099829800000407,995.5382506000001,None,1.099829800000407,,,112 Silent,001,2022_Dec_01_1055,ProdSingRedoBetween,2021.2.3,59.959371529795845,
,,,,120,0,120,0,,,,,,,,,,,,,,,,,,,,,,1000.0026228000002,None,,,,,,,,,,,,,,,,,goose,109,121,silent,new,null,997.1791019999996,None,997.1791019999996,None,6,1.971062499999789,997.1791019999996,None,1.971062499999789,999.1755317000002,None,999.6856556999996,None,999.6856556999996,None,r,0.296519200000148,999.6856556999996,None,0.296519200000148,,,112 Silent,001,2022_Dec_01_1055,ProdSingRedoBetween,2021.2.3,59.959371529795845,
,,,,121,0,121,0,,,,,,,,,,,,,,,,,,,,,,1003.0900858,None,,,,,,,,,,,,,,,,,career,129,122,silent,new,null,1000.5049729999996,None,1000.5049729999996,None,6,1.3571862999997393,1000.5049729999996,None,1.3571862999997393,1001.8941836999998,None,1002.4063581999994,None,1002.4063581999994,None,r,0.6559174999993047,1002.4063581999994,None,0.6559174999993047,,,112 Silent,001,2022_Dec_01_1055,ProdSingRedoBetween,2021.2.3,59.959371529795845,
,,,,122,0,122,0,,,,,,,,,,,,,,,,,,,,,,1005.4623409000001,None,,,,,,,,,,,,,,,,,distance,68,123,silent,old,red,1003.6029633000003,None,1003.6029633000003,None,6,1.1390744000000268,1003.6029633000003,None,1.1390744000000268,1004.7632454,None,1005.2799399999999,None,1005.2799399999999,None,r,0.1501289000007091,1005.2799399999999,None,0.1501289000007091,,,112 Silent,001,2022_Dec_01_1055,ProdSingRedoBetween,2021.2.3,59.959371529795845,
,,,,123,0,123,0,,,,,,,,,,,,,,,,,,,,,,1008.0975186999999,None,,,,,,,,,,,,,,,,,beginning,35,124,silent,old,blue,1005.9823560999998,None,1005.9823560999998,None,6,1.183849399999417,1005.9823560999998,None,1.183849399999417,1007.2028973000001,None,1007.7202517999999,None,1007.7202517999999,None,r,0.3501483999998527,1007.7202517999999,None,0.3501483999998527,,,112 Silent,001,2022_Dec_01_1055,ProdSingRedoBetween,2021.2.3,59.959371529795845,
,,,,124,0,124,0,,,,,,,,,,,,,,,,,,,,,,1013.9329395999998,None,,,,,,,,,,,,,,,,,report,59,125,silent,old,yellow,1008.6140333999997,None,1008.6140333999997,None,5,2.664246800000001,1008.6140333999997,None,2.664246800000001,1011.3040573000003,None,1011.8193569999999,None,1011.8193569999999,None,r,2.0907490999998117,1011.8193569999999,None,2.0907490999998117,,,112 Silent,001,2022_Dec_01_1055,ProdSingRedoBetween,2021.2.3,59.959371529795845,
,,,,125,0,125,0,,,,,,,,,,,,,,,,,,,,,,1018.8715036999997,None,,,,,,,,,,,,,,,,,quick,166,126,silent,new,null,1014.4406197000003,None,1014.4406197000003,None,6,3.0376315999992585,1014.4406197000003,None,3.0376315999992585,1017.5120966,None,1018.0244695999995,None,1018.0244695999995,None,r,0.8216690999997809,1018.0244695999995,None,0.8216690999997809,,,112 Silent,001,2022_Dec_01_1055,ProdSingRedoBetween,2021.2.3,59.959371529795845,
,,,,126,0,126,0,,,,,,,,,,,,,,,,,,,,,,1022.8836565999995,None,,,,,,,,,,,,,,,,,title,104,127,silent,new,null,1019.3841105999995,None,1019.3841105999995,None,6,1.7582063999998354,1019.3841105999995,None,1.7582063999998354,1021.1835063000003,None,1021.6937002999998,None,1021.6937002999998,None,r,1.1524718999999095,1021.6937002999998,None,1.1524718999999095,,,112 Silent,001,2022_Dec_01_1055,ProdSingRedoBetween,2021.2.3,59.959371529795845,
,,,,127,0,127,0,,,,,,,,,,,,,,,,,,,,,,1027.399245,None,,,,,,,,,,,,,,,,,course,26,128,silent,old,yellow,1023.4054519999995,None,1023.4054519999995,None,6,2.5686785999996573,1023.4054519999995,None,2.5686785999996573,1025.9982883999996,None,1026.5166106000001,None,1026.5166106000001,None,r,0.8497817999996187,1026.5166106000001,None,0.8497817999996187,,,112 Silent,001,2022_Dec_01_1055,ProdSingRedoBetween,2021.2.3,59.959371529795845,
,,,,128,0,128,0,,,,,,,,,,,,,,,,,,,,,,1030.1826954000003,None,,,,,,,,,,,,,,,,,review,5,129,silent,old,yellow,1027.9387925999995,None,1027.9387925999995,None,6,1.5554710000005798,1027.9387925999995,None,1.5554710000005798,1029.5269720000001,None,1030.0326885,None,1030.0326885,None,r,0.13343080000049667,1030.0326885,None,0.13343080000049667,,,112 Silent,001,2022_Dec_01_1055,ProdSingRedoBetween,2021.2.3,59.959371529795845,
,,,,129,0,129,0,,,,,,,,,,,,,,,,,,,,,,1035.7739914999997,None,,,,,,,,,,,,,,,,,produce,22,130,silent,old,yellow,1030.6958398000002,None,1030.6958398000002,None,6,1.854202499999701,1030.6958398000002,None,1.854202499999701,1032.5698117999996,None,1033.0764679999997,None,1033.0764679999997,None,r,2.6655366000004506,1033.0764679999997,None,2.6655366000004506,,,112 Silent,001,2022_Dec_01_1055,ProdSingRedoBetween,2021.2.3,59.959371529795845,
,,,,130,0,130,0,,,,,,,,,,,,,,,,,,,,,,1039.3251881,None,,,,,,,,,,,,,,,,,cross,154,131,silent,new,null,1036.2986632999996,None,1036.2986632999996,None,6,1.90743780000048,1036.2986632999996,None,1.90743780000048,1038.2281210999995,None,1038.7528140999998,None,1038.7528140999998,None,r,0.5493628999993234,1038.7528140999998,None,0.5493628999993234,,,112 Silent,001,2022_Dec_01_1055,ProdSingRedoBetween,2021.2.3,59.959371529795845,
,,,,131,0,131,0,,,,,,,,,,,,,,,,,,,,,,1044.5136735,None,,,,,,,,,,,,,,,,,salary,0,132,silent,old,yellow,1039.8304299999995,None,1039.8304299999995,None,6,2.191820899999584,1039.8304299999995,None,2.191820899999584,1042.0527208999997,None,1042.5651966,None,1042.5651966,None,r,1.9289243000002898,1042.5651966,None,1.9289243000002898,,,112 Silent,001,2022_Dec_01_1055,ProdSingRedoBetween,2021.2.3,59.959371529795845,
,,,,132,0,132,0,,,,,,,,,,,,,,,,,,,,,,1047.6173846999995,None,,,,,,,,,,,,,,,,,prime,140,133,silent,new,null,1045.0199244,None,1045.0199244,None,6,1.8022903000000952,1045.0199244,None,1.8022903000000952,1046.8575175,None,1047.3682084999996,None,1047.3682084999996,None,f,0.22999669999990147,1047.3682084999996,None,0.22999669999990147,,,112 Silent,001,2022_Dec_01_1055,ProdSingRedoBetween,2021.2.3,59.959371529795845,
,,,,133,0,133,0,,,,,,,,,,,,,,,,,,,,,,1052.0235786999997,None,,,,,,,,,,,,,,,,,frank,49,134,silent,old,blue,1048.1258475999998,None,1048.1258475999998,None,6,1.656332100000327,1048.1258475999998,None,1.656332100000327,1049.8056574999996,None,1050.3219125,None,1050.3219125,None,n,1.668461500000376,1050.3219125,None,1.668461500000376,,,112 Silent,001,2022_Dec_01_1055,ProdSingRedoBetween,2021.2.3,59.959371529795845,
,,,,134,0,134,0,,,,,,,,,,,,,,,,,,,,,,1062.4650109,None,,,,,,,,,,,,,,,,,profession,55,135,silent,old,blue,1052.5490554000003,None,1052.5490554000003,None,6,8.441251199999897,1052.5490554000003,None,8.441251199999897,1061.0259819999997,None,1061.5342268,None,1061.5342268,None,r,0.9119205999995756,1061.5342268,None,0.9119205999995756,,,112 Silent,001,2022_Dec_01_1055,ProdSingRedoBetween,2021.2.3,59.959371529795845,
,,,,135,0,135,0,,,,,,,,,,,,,,,,,,,,,,1064.4669770999994,None,,,,,,,,,,,,,,,,,gesture,139,136,silent,new,null,1062.9754711,None,1062.9754711,None,6,0.8946753999998691,1062.9754711,None,0.8946753999998691,1063.9009485000001,None,1064.4047282999995,None,1064.4047282999995,None,r,0.0334512999997969,1064.4047282999995,None,0.0334512999997969,,,112 Silent,001,2022_Dec_01_1055,ProdSingRedoBetween,2021.2.3,59.959371529795845,
,,,,136,0,136,0,,,,,,,,,,,,,,,,,,,,,,1066.3859348,None,,,,,,,,,,,,,,,,,property,107,137,silent,new,null,1064.9799300999998,None,1064.9799300999998,None,6,0.7942261999996845,1064.9799300999998,None,0.7942261999996845,1065.8268090999995,None,1066.3273390999998,None,1066.3273390999998,None,r,0.03884219999963534,1066.3273390999998,None,0.03884219999963534,,,112 Silent,001,2022_Dec_01_1055,ProdSingRedoBetween,2021.2.3,59.959371529795845,
,,,,137,0,137,0,,,,,,,,,,,,,,,,,,,,,,1069.6929145,None,,,,,,,,,,,,,,,,,carry,8,138,silent,old,yellow,1066.8914394999997,None,1066.8914394999997,None,6,1.3306751000000077,1066.8914394999997,None,1.3306751000000077,1068.2428816999995,None,1068.7588718000002,None,1068.7588718000002,None,r,0.9114312000001519,1068.7588718000002,None,0.9114312000001519,,,112 Silent,001,2022_Dec_01_1055,ProdSingRedoBetween,2021.2.3,59.959371529795845,
,,,,138,0,138,0,,,,,,,,,,,,,,,,,,,,,,1071.5407220000002,None,,,,,,,,,,,,,,,,,sleep,162,139,silent,new,null,1070.2117619999995,None,1070.2117619999995,None,6,0.6824048000007679,1070.2117619999995,None,0.6824048000007679,1070.9247818999997,None,1071.4289502999995,None,1071.4289502999995,None,r,0.08120659999985946,1071.4289502999995,None,0.08120659999985946,,,112 Silent,001,2022_Dec_01_1055,ProdSingRedoBetween,2021.2.3,59.959371529795845,
,,,,139,0,139,0,,,,,,,,,,,,,,,,,,,,,,1073.9614115999998,None,,,,,,,,,,,,,,,,,committee,65,140,silent,old,red,1072.0534367999994,None,1072.0534367999994,None,6,1.1367585999996663,1072.0534367999994,None,1.1367585999996663,1073.2142456999995,None,1073.7365801,None,1073.7365801,None,r,0.19763509999938833,1073.7365801,None,0.19763509999938833,,,112 Silent,001,2022_Dec_01_1055,ProdSingRedoBetween,2021.2.3,59.959371529795845,
,,,,140,0,140,0,,,,,,,,,,,,,,,,,,,,,,1076.6151284000002,None,,,,,,,,,,,,,,,,,question,105,141,silent,new,null,1074.4684414999997,None,1074.4684414999997,None,6,0.7696903999994902,1074.4684414999997,None,0.7696903999994902,1075.2698502999997,None,1075.7814876999996,None,1075.7814876999996,None,r,0.8087898999992831,1075.7814876999996,None,0.8087898999992831,,,112 Silent,001,2022_Dec_01_1055,ProdSingRedoBetween,2021.2.3,59.959371529795845,
,,,,141,0,141,0,,,,,,,,,,,,,,,,,,,,,,1080.2494167999998,None,,,,,,,,,,,,,,,,,appeal,9,142,silent,old,yellow,1077.1352353999996,None,1077.1352353999996,None,6,1.6790865000002668,1077.1352353999996,None,1.6790865000002668,1078.8445834,None,1079.3531705999999,None,1079.3531705999999,None,f,0.8689784999996846,1079.3531705999999,None,0.8689784999996846,,,112 Silent,001,2022_Dec_01_1055,ProdSingRedoBetween,2021.2.3,59.959371529795845,
,,,,142,0,142,0,,,,,,,,,,,,,,,,,,,,,,1082.6015432,None,,,,,,,,,,,,,,,,,series,133,143,silent,new,null,1080.7601915,None,1080.7601915,None,6,1.061986299999262,1080.7601915,None,1.061986299999262,1081.8532234,None,1082.3770097000001,None,1082.3770097000001,None,r,0.2051504000000932,1082.3770097000001,None,0.2051504000000932,,,112 Silent,001,2022_Dec_01_1055,ProdSingRedoBetween,2021.2.3,59.959371529795845,
,,,,143,0,143,0,,,,,,,,,,,,,,,,,,,,,,1084.4422269000002,None,,,,,,,,,,,,,,,,,broke,39,144,silent,old,blue,1083.1071695999995,None,1083.1071695999995,None,6,0.7070505000001504,1083.1071695999995,None,0.7070505000001504,1083.8429333,None,1084.3589921999996,None,1084.3589921999996,None,r,0.05528090000007069,1084.3589921999996,None,0.05528090000007069,,,112 Silent,001,2022_Dec_01_1055,ProdSingRedoBetween,2021.2.3,59.959371529795845,
,,,,144,0,144,0,,,,,,,,,,,,,,,,,,,,,,1088.0572208999997,None,,,,,,,,,,,,,,,,,charter,58,145,silent,old,blue,1084.9677415,None,1084.9677415,None,6,0.6705364999997983,1084.9677415,None,0.6705364999997983,1085.6621411,None,1086.1818017,None,1086.1818017,None,f,1.848269199999777,1086.1818017,None,1.848269199999777,,,112 Silent,001,2022_Dec_01_1055,ProdSingRedoBetween,2021.2.3,59.959371529795845,
,,,,145,0,145,0,,,,,,,,,,,,,,,,,,,,,,1090.4596072,None,,,,,,,,,,,,,,,,,design,128,146,silent,new,null,1088.5668762,None,1088.5668762,None,6,1.3112436000001253,1088.5668762,None,1.3112436000001253,1089.9101398999996,None,1090.4096864999997,None,1090.4096864999997,None,r,0.020459200000004785,1090.4096864999997,None,0.020459200000004785,,,112 Silent,001,2022_Dec_01_1055,ProdSingRedoBetween,2021.2.3,59.959371529795845,
,,,,146,0,146,0,,,,,,,,,,,,,,,,,,,,,,1092.4783491000003,None,,,,,,,,,,,,,,,,,match,75,147,silent,old,red,1090.9692242999995,None,1090.9692242999995,None,6,0.8289442999994208,1090.9692242999995,None,0.8289442999994208,1091.8328823999996,None,1092.3449353,None,1092.3449353,None,r,0.1092506000004505,1092.3449353,None,0.1092506000004505,,,112 Silent,001,2022_Dec_01_1055,ProdSingRedoBetween,2021.2.3,59.959371529795845,
,,,,147,0,147,0,,,,,,,,,,,,,,,,,,,,,,1094.4470066999997,None,,,,,,,,,,,,,,,,,fashion,25,148,silent,old,yellow,1092.9867840000002,None,1092.9867840000002,None,6,0.755614599999717,1092.9867840000002,None,0.755614599999717,1093.7716931,None,1094.2832990000002,None,1094.2832990000002,None,r,0.13878639999984443,1094.2832990000002,None,0.13878639999984443,,,112 Silent,001,2022_Dec_01_1055,ProdSingRedoBetween,2021.2.3,59.959371529795845,
,,,,148,0,148,0,,,,,,,,,,,,,,,,,,,,,,1096.5824662,None,,,,,,,,,,,,,,,,,council,123,149,silent,new,null,1094.9553829000001,None,1094.9553829000001,None,6,0.5547710000000734,1094.9553829000001,None,0.5547710000000734,1095.5312761,None,1096.0318649999995,None,1096.0318649999995,None,f,0.5342834999992192,1096.0318649999995,None,0.5342834999992192,,,112 Silent,001,2022_Dec_01_1055,ProdSingRedoBetween,2021.2.3,59.959371529795845,
,,,,149,0,149,0,,,,,,,,,,,,,,,,,,,,,,1098.5177116,None,,,,,,,,,,,,,,,,,cover,168,150,silent,new,null,1097.0931710999998,None,1097.0931710999998,None,6,0.7771122000003743,1097.0931710999998,None,0.7771122000003743,1097.9125745999995,None,1098.4214467999996,None,1098.4214467999996,None,r,0.07272879999982251,1098.4214467999996,None,0.07272879999982251,,,112 Silent,001,2022_Dec_01_1055,ProdSingRedoBetween,2021.2.3,59.959371529795845,
,,,,150,0,150,0,,,,,,,,,,,,,,,,,,,,,,1100.3557891999994,None,,,,,,,,,,,,,,,,,private,81,151,silent,old,red,1099.0311158,None,1099.0311158,None,6,0.6151177000001553,1099.0311158,None,0.6151177000001553,1099.6721213999995,None,1100.1935010000002,None,1100.1935010000002,None,r,0.14083900000059657,1100.1935010000002,None,0.14083900000059657,,,112 Silent,001,2022_Dec_01_1055,ProdSingRedoBetween,2021.2.3,59.959371529795845,
,,,,151,0,151,0,,,,,,,,,,,,,,,,,,,,,,1102.0398829,None,,,,,,,,,,,,,,,,,tough,179,152,silent,new,null,1100.8840864,None,1100.8840864,None,6,0.546067000000221,1100.8840864,None,0.546067000000221,1101.4540672999997,None,1101.961648,None,1101.961648,None,r,0.05256159999953525,1101.961648,None,0.05256159999953525,,,112 Silent,001,2022_Dec_01_1055,ProdSingRedoBetween,2021.2.3,59.959371529795845,
,,,,152,0,152,0,,,,,,,,,,,,,,,,,,,,,,1104.0065098999999,None,,,,,,,,,,,,,,,,,degree,4,153,silent,old,yellow,1102.5587886999997,None,1102.5587886999997,None,6,0.7753622999998697,1102.5587886999997,None,0.7753622999998697,1103.3559592999995,None,1103.8614956999995,None,1103.8614956999995,None,r,0.12067169999954785,1103.8614956999995,None,0.12067169999954785,,,112 Silent,001,2022_Dec_01_1055,ProdSingRedoBetween,2021.2.3,59.959371529795845,
,,,,153,0,153,0,,,,,,,,,,,,,,,,,,,,,,1105.7916269000002,None,,,,,,,,,,,,,,,,,quarter,93,154,silent,new,null,1104.5238136000003,None,1104.5238136000003,None,6,0.570390299999417,1104.5238136000003,None,0.570390299999417,1105.1283341000003,None,1105.6467139000001,None,1105.6467139000001,None,r,0.11952079999991838,1105.6467139000001,None,0.11952079999991838,,,112 Silent,001,2022_Dec_01_1055,ProdSingRedoBetween,2021.2.3,59.959371529795845,
,,,,154,0,154,0,,,,,,,,,,,,,,,,,,,,,,1109.5787145,None,,,,,,,,,,,,,,,,,position,18,155,silent,old,yellow,1106.3044036999995,None,1106.3044036999995,None,6,0.8217591000002358,1106.3044036999995,None,0.8217591000002358,1107.1489768999995,None,1107.6756479,None,1107.6756479,None,r,1.8745208999998795,1107.6756479,None,1.8745208999998795,,,112 Silent,001,2022_Dec_01_1055,ProdSingRedoBetween,2021.2.3,59.959371529795845,
,,,,155,0,155,0,,,,,,,,,,,,,,,,,,,,,,1115.0509764000003,None,,,,,,,,,,,,,,,,,mayor,99,156,silent,new,null,1110.0889353999996,None,1110.0889353999996,None,6,1.7813246000005165,1110.0889353999996,None,1.7813246000005165,1111.9060405999994,None,1112.4148029000003,None,1112.4148029000003,None,f,2.6073710000000574,1112.4148029000003,None,2.6073710000000574,,,112 Silent,001,2022_Dec_01_1055,ProdSingRedoBetween,2021.2.3,59.959371529795845,
,,,,156,0,156,0,,,,,,,,,,,,,,,,,,,,,,1123.1256004000002,None,,,,,,,,,,,,,,,,,travel,20,157,silent,old,yellow,1115.5514080999997,None,1115.5514080999997,None,6,5.566770399999768,1115.5514080999997,None,5.566770399999768,1121.1424873,None,1121.6572442000002,None,1121.6572442000002,None,r,1.4369698000000426,1121.6572442000002,None,1.4369698000000426,,,112 Silent,001,2022_Dec_01_1055,ProdSingRedoBetween,2021.2.3,59.959371529795845,
,,,,157,0,157,0,,,,,,,,,,,,,,,,,,,,,,1125.9117399000002,None,,,,,,,,,,,,,,,,,space,169,158,silent,new,null,1123.6384758999998,None,1123.6384758999998,None,6,1.559747100000095,1123.6384758999998,None,1.559747100000095,1125.2336220000002,None,1125.7449856999997,None,1125.7449856999997,None,r,0.1411975999999413,1125.7449856999997,None,0.1411975999999413,,,112 Silent,001,2022_Dec_01_1055,ProdSingRedoBetween,2021.2.3,59.959371529795845,
,,,,158,0,158,0,,,,,,,,,,,,,,,,,,,,,,1127.8497370999999,None,,,,,,,,,,,,,,,,,turkey,108,159,silent,new,null,1126.4164788000003,None,1126.4164788000003,None,6,0.7656167000004643,1126.4164788000003,None,0.7656167000004643,1127.2145863,None,1127.7214856999994,None,1127.7214856999994,None,r,0.10883720000038011,1127.7214856999994,None,0.10883720000038011,,,112 Silent,001,2022_Dec_01_1055,ProdSingRedoBetween,2021.2.3,59.959371529795845,
,,,,159,0,159,0,,,,,,,,,,,,,,,,,,,,,,1130.4162726999998,None,,,,,,,,,,,,,,,,,period,21,160,silent,old,yellow,1128.3740942999998,None,1128.3740942999998,None,6,0.800147900000411,1128.3740942999998,None,0.800147900000411,1129.205735,None,1129.7197854,None,1129.7197854,None,r,0.670387699999992,1129.7197854,None,0.670387699999992,,,112 Silent,001,2022_Dec_01_1055,ProdSingRedoBetween,2021.2.3,59.959371529795845,
,,,,160,0,160,0,,,,,,,,,,,,,,,,,,,,,,1133.3191861999999,None,,,,,,,,,,,,,,,,,signal,80,161,silent,old,red,1130.9268938999999,None,1130.9268938999999,None,6,1.1433782000003703,1130.9268938999999,None,1.1433782000003703,1132.1033315,None,1132.6219267000001,None,1132.6219267000001,None,r,0.6722466000001077,1132.6219267000001,None,0.6722466000001077,,,112 Silent,001,2022_Dec_01_1055,ProdSingRedoBetween,2021.2.3,59.959371529795845,
,,,,161,0,161,0,,,,,,,,,,,,,,,,,,,,,,1135.7214970999999,None,,,,,,,,,,,,,,,,,shock,46,162,silent,old,blue,1133.8277942,None,1133.8277942,None,6,0.8743666000000303,1133.8277942,None,0.8743666000000303,1134.7222491999996,None,1135.2422451999996,None,1135.2422451999996,None,r,0.4518569000001662,1135.2422451999996,None,0.4518569000001662,,,112 Silent,001,2022_Dec_01_1055,ProdSingRedoBetween,2021.2.3,59.959371529795845,
,,,,162,0,162,0,,,,,,,,,,,,,,,,,,,,,,1138.9412021000003,None,,,,,,,,,,,,,,,,,drama,45,163,silent,old,blue,1136.2274561,None,1136.2274561,None,6,0.9146734000005381,1136.2274561,None,0.9146734000005381,1137.1736902999996,None,1137.6784340999998,None,1137.6784340999998,None,r,1.2397854999999254,1137.6784340999998,None,1.2397854999999254,,,112 Silent,001,2022_Dec_01_1055,ProdSingRedoBetween,2021.2.3,59.959371529795845,
,,,,163,0,163,0,,,,,,,,,,,,,,,,,,,,,,1141.1936924999995,None,,,,,,,,,,,,,,,,,people,158,164,silent,new,null,1139.4457016000001,None,1139.4457016000001,None,6,1.0485834000000978,1139.4457016000001,None,1.0485834000000978,1140.5188377,None,1141.0306958999995,None,1141.0306958999995,None,r,0.14346190000014758,1141.0306958999995,None,0.14346190000014758,,,112 Silent,001,2022_Dec_01_1055,ProdSingRedoBetween,2021.2.3,59.959371529795845,
,,,,164,0,164,0,,,,,,,,,,,,,,,,,,,,,,1143.0955195000001,None,,,,,,,,,,,,,,,,,community,17,165,silent,old,yellow,1141.7205677999996,None,1141.7205677999996,None,6,0.6056527999999162,1141.7205677999996,None,0.6056527999999162,1142.3524538999995,None,1142.8648123999997,None,1142.8648123999997,None,r,0.21333449999929144,1142.8648123999997,None,0.21333449999929144,,,112 Silent,001,2022_Dec_01_1055,ProdSingRedoBetween,2021.2.3,59.959371529795845,
,,,,165,0,165,0,,,,,,,,,,,,,,,,,,,,,,1144.8855742,None,,,,,,,,,,,,,,,,,debate,171,166,silent,new,null,1143.6127696999997,None,1143.6127696999997,None,6,0.6493809000003239,1143.6127696999997,None,0.6493809000003239,1144.2818800999999,None,1144.8064491,None,1144.8064491,None,r,0.05596429999968677,1144.8064491,None,0.05596429999968677,,,112 Silent,001,2022_Dec_01_1055,ProdSingRedoBetween,2021.2.3,59.959371529795845,
,,,,166,0,166,0,,,,,,,,,,,,,,,,,,,,,,1149.1874235999999,None,,,,,,,,,,,,,,,,,staff,11,167,silent,old,yellow,1145.4159921999994,None,1145.4159921999994,None,6,2.1982121000000916,1145.4159921999994,None,2.1982121000000916,1147.6385814999999,None,1148.1542782000001,None,1148.1542782000001,None,r,1.0121016000002783,1148.1542782000001,None,1.0121016000002783,,,112 Silent,001,2022_Dec_01_1055,ProdSingRedoBetween,2021.2.3,59.959371529795845,
,,,,167,0,167,0,,,,,,,,,,,,,,,,,,,,,,1151.4205502,None,,,,,,,,,,,,,,,,,health,121,168,silent,new,null,1149.7096809,None,1149.7096809,None,6,0.6244458999999551,1149.7096809,None,0.6244458999999551,1150.3538308000002,None,1150.8534065,None,1150.8534065,None,r,0.5367638000006991,1150.8534065,None,0.5367638000006991,,,112 Silent,001,2022_Dec_01_1055,ProdSingRedoBetween,2021.2.3,59.959371529795845,
,,,,168,0,168,0,,,,,,,,,,,,,,,,,,,,,,1154.1233123999996,None,,,,,,,,,,,,,,,,,reach,100,169,silent,new,null,1151.9290874000003,None,1151.9290874000003,None,6,1.1411965000006603,1151.9290874000003,None,1.1411965000006603,1153.0943222,None,1153.6088149000002,None,1153.6088149000002,None,r,0.4854381999994075,1153.6088149000002,None,0.4854381999994075,,,112 Silent,001,2022_Dec_01_1055,ProdSingRedoBetween,2021.2.3,59.959371529795845,
,,,,169,0,169,0,,,,,,,,,,,,,,,,,,,,,,1157.8270038999995,None,,,,,,,,,,,,,,,,,quantity,125,170,silent,new,null,1154.6348510000003,None,1154.6348510000003,None,6,1.71535060000042,1154.6348510000003,None,1.71535060000042,1156.3862524,None,1156.8993637999997,None,1156.8993637999997,None,r,0.9068465000000288,1156.8993637999997,None,0.9068465000000288,,,112 Silent,001,2022_Dec_01_1055,ProdSingRedoBetween,2021.2.3,59.959371529795845,
,,,,170,0,170,0,,,,,,,,,,,,,,,,,,,,,,1160.0625396,None,,,,,,,,,,,,,,,,,comfort,12,171,silent,old,yellow,1158.3478652999997,None,1158.3478652999997,None,6,0.7784163999995144,1158.3478652999997,None,0.7784163999995144,1159.1501514999995,None,1159.6688909999998,None,1159.6688909999998,None,r,0.37736080000013317,1159.6688909999998,None,0.37736080000013317,,,112 Silent,001,2022_Dec_01_1055,ProdSingRedoBetween,2021.2.3,59.959371529795845,
,,,,171,0,171,0,,,,,,,,,,,,,,,,,,,,,,1162.3646891000003,None,,,,,,,,,,,,,,,,,surface,160,172,silent,new,null,1160.5667945,None,1160.5667945,None,6,0.5514096000006248,1160.5667945,None,0.5514096000006248,1161.1480693999997,None,1161.6554112,None,1161.6554112,None,r,0.6787883999995756,1161.6554112,None,0.6787883999995756,,,112 Silent,001,2022_Dec_01_1055,ProdSingRedoBetween,2021.2.3,59.959371529795845,
,,,,172,0,172,0,,,,,,,,,,,,,,,,,,,,,,1164.5170002999998,None,,,,,,,,,,,,,,,,,search,119,173,silent,new,null,1162.8763015999998,None,1162.8763015999998,None,6,0.5538475000003018,1162.8763015999998,None,0.5538475000003018,1163.4498184,None,1163.9627882999998,None,1163.9627882999998,None,r,0.5394906999999876,1163.9627882999998,None,0.5394906999999876,,,112 Silent,001,2022_Dec_01_1055,ProdSingRedoBetween,2021.2.3,59.959371529795845,
,,,,173,0,173,0,,,,,,,,,,,,,,,,,,,,,,1166.8361423000001,None,,,,,,,,,,,,,,,,,thick,48,174,silent,old,blue,1165.0203583999996,None,1165.0203583999996,None,6,0.6338150999999925,1165.0203583999996,None,0.6338150999999925,1165.6860053999994,None,1166.1905573999998,None,1166.1905573999998,None,r,0.615606200000002,1166.1905573999998,None,0.615606200000002,,,112 Silent,001,2022_Dec_01_1055,ProdSingRedoBetween,2021.2.3,59.959371529795845,
,,,,174,0,174,0,,,,,,,,,,,,,,,,,,,,,,1168.9712212999998,None,,,,,,,,,,,,,,,,,second,6,175,silent,old,yellow,1167.3455876000003,None,1167.3455876000003,None,6,0.6366963000000396,1167.3455876000003,None,0.6366963000000396,1168.0057548,None,1168.5220950999997,None,1168.5220950999997,None,r,0.4281166000000667,1168.5220950999997,None,0.4281166000000667,,,112 Silent,001,2022_Dec_01_1055,ProdSingRedoBetween,2021.2.3,59.959371529795845,
,,,,175,0,175,0,,,,,,,,,,,,,,,,,,,,,,1174.5438042,None,,,,,,,,,,,,,,,,,rural,144,176,silent,new,null,1169.4839342999999,None,1169.4839342999999,None,6,1.5304276999995636,1169.4839342999999,None,1.5304276999995636,1171.0401099999995,None,1171.5461036000002,None,1171.5461036000002,None,f,2.972098900000674,1171.5461036000002,None,2.972098900000674,,,112 Silent,001,2022_Dec_01_1055,ProdSingRedoBetween,2021.2.3,59.959371529795845,
,,,,176,0,176,0,,,,,,,,,,,,,,,,,,,,,,1180.1333984999997,None,,,,,,,,,,,,,,,,,portion,132,177,silent,new,null,1175.0544353999999,None,1175.0544353999999,None,6,3.22375109999939,1175.0544353999999,None,3.22375109999939,1178.3024379000003,None,1178.8224814999999,None,1178.8224814999999,None,r,1.2797503000001598,1178.8224814999999,None,1.2797503000001598,,,112 Silent,001,2022_Dec_01_1055,ProdSingRedoBetween,2021.2.3,59.959371529795845,
