StudyLoop.thisRepN,StudyLoop.thisTrialN,StudyLoop.thisN,StudyLoop.thisIndex,TestLoop.thisRepN,TestLoop.thisTrialN,TestLoop.thisN,TestLoop.thisIndex,textCondition.started,textCondition.stopped,keyCondition.keys,keyCondition.rt,keyCondition.started,keyCondition.stopped,Condition,textWelcome.started,textWelcome.stopped,keyWelcome.keys,keyWelcome.rt,keyWelcome.started,keyWelcome.stopped,textAloud.started,textAloud.stopped,textSilent.started,textSilent.stopped,textSing.started,textSing.stopped,conditional_text.started,conditional_text.stopped,textBlank500.started,textBlank500.stopped,study_word,study_num,study_order,study_type,word_color,textStudy.started,textStudy.stopped,keyStudy.keys,keyStudy.started,keyStudy.stopped,textTestInstructions.started,textTestInstructions.stopped,key_resp_3.keys,key_resp_3.rt,key_resp_3.started,key_resp_3.stopped,test_word,test_num,test_order,test_condition,old_new_test,test_word_original_color,textConf.started,textConf.stopped,textConfScale.started,textConfScale.stopped,keyConf.keys,keyConf.rt,keyConf.started,keyConf.stopped,confidence response time,textTestBlank.started,textTestBlank.stopped,textRKN.started,textRKN.stopped,textRKNScale.started,textRKNScale.stopped,keyRKN.keys,keyRKN.rt,keyRKN.started,keyRKN.stopped,rkn response time,textEnd.started,textEnd.stopped,participant,session,date,expName,psychopyVersion,frameRate,
,,,,,,,,19.960711199999423,None,b,4.457120400000349,19.960711199999423,None,,,,,,,,,,,,,,,,,,,,,,,,,,,,,,,,,,,,,,,,,,,,,,,,,,,,,,,,,,,,,,133 Aloud,001,2022_Dec_01_1123,ProdSingRedoBetween,2021.2.3,59.90861539801789,
,,,,,,,,,,,,,,AloudTest,24.468753999999535,None,space,410.22902729999987,24.468753999999535,None,,,,,,,,,,,,,,,,,,,,,,,,,,,,,,,,,,,,,,,,,,,,,,,,,,,,,,,133 Aloud,001,2022_Dec_01_1123,ProdSingRedoBetween,2021.2.3,59.90861539801789,
0,0,0,0,,,,,,,,,,,,,,,,,,24.468753999999535,None,24.468753999999535,None,24.468753999999535,None,24.468753999999535,None,437.2324429999999,None,pancakes,27,1,aloud,yellow,435.2352028999994,None,None,435.2352028999994,None,,,,,,,,,,,,,,,,,,,,,,,,,,,,,,,,,,,133 Aloud,001,2022_Dec_01_1123,ProdSingRedoBetween,2021.2.3,59.90861539801789,
1,0,1,0,,,,,,,,,,,,,,,,,,,,,,,,,,439.7517023999999,None,population,77,2,aloud,red,437.7375925999995,None,None,437.7375925999995,None,,,,,,,,,,,,,,,,,,,,,,,,,,,,,,,,,,,133 Aloud,001,2022_Dec_01_1123,ProdSingRedoBetween,2021.2.3,59.90861539801789,
2,0,2,0,,,,,,,,,,,,,,,,,,,,,,,,,,442.2541347999995,None,nation,76,3,aloud,red,440.2520700999994,None,None,440.2520700999994,None,,,,,,,,,,,,,,,,,,,,,,,,,,,,,,,,,,,133 Aloud,001,2022_Dec_01_1123,ProdSingRedoBetween,2021.2.3,59.90861539801789,
3,0,3,0,,,,,,,,,,,,,,,,,,,,,,,,,,444.7733698000002,None,guest,29,4,aloud,blue,442.759822,None,None,442.759822,None,,,,,,,,,,,,,,,,,,,,,,,,,,,,,,,,,,,133 Aloud,001,2022_Dec_01_1123,ProdSingRedoBetween,2021.2.3,59.90861539801789,
4,0,4,0,,,,,,,,,,,,,,,,,,,,,,,,,,447.29235379999955,None,direction,17,5,aloud,yellow,445.27976579999995,None,None,445.27976579999995,None,,,,,,,,,,,,,,,,,,,,,,,,,,,,,,,,,,,133 Aloud,001,2022_Dec_01_1123,ProdSingRedoBetween,2021.2.3,59.90861539801789,
5,0,5,0,,,,,,,,,,,,,,,,,,,,,,,,,,449.7949758999994,None,minute,57,6,aloud,blue,447.7943669999995,None,None,447.7943669999995,None,,,,,,,,,,,,,,,,,,,,,,,,,,,,,,,,,,,133 Aloud,001,2022_Dec_01_1123,ProdSingRedoBetween,2021.2.3,59.90861539801789,
6,0,6,0,,,,,,,,,,,,,,,,,,,,,,,,,,452.29717619999974,None,murder,32,7,aloud,blue,450.2958486999996,None,None,450.2958486999996,None,,,,,,,,,,,,,,,,,,,,,,,,,,,,,,,,,,,133 Aloud,001,2022_Dec_01_1123,ProdSingRedoBetween,2021.2.3,59.90861539801789,
7,0,7,0,,,,,,,,,,,,,,,,,,,,,,,,,,454.79991319999954,None,gesture,11,8,aloud,yellow,452.7979981999997,None,None,452.7979981999997,None,,,,,,,,,,,,,,,,,,,,,,,,,,,,,,,,,,,133 Aloud,001,2022_Dec_01_1123,ProdSingRedoBetween,2021.2.3,59.90861539801789,
8,0,8,0,,,,,,,,,,,,,,,,,,,,,,,,,,457.30240270000013,None,store,49,9,aloud,blue,455.30160669999987,None,None,455.30160669999987,None,,,,,,,,,,,,,,,,,,,,,,,,,,,,,,,,,,,133 Aloud,001,2022_Dec_01_1123,ProdSingRedoBetween,2021.2.3,59.90861539801789,
9,0,9,0,,,,,,,,,,,,,,,,,,,,,,,,,,459.82143579999956,None,management,33,10,aloud,blue,457.81280069999957,None,None,457.81280069999957,None,,,,,,,,,,,,,,,,,,,,,,,,,,,,,,,,,,,133 Aloud,001,2022_Dec_01_1123,ProdSingRedoBetween,2021.2.3,59.90861539801789,
10,0,10,0,,,,,,,,,,,,,,,,,,,,,,,,,,462.3408926000002,None,nature,46,11,aloud,blue,460.32620979999956,None,None,460.32620979999956,None,,,,,,,,,,,,,,,,,,,,,,,,,,,,,,,,,,,133 Aloud,001,2022_Dec_01_1123,ProdSingRedoBetween,2021.2.3,59.90861539801789,
11,0,11,0,,,,,,,,,,,,,,,,,,,,,,,,,,464.84325179999996,None,military,8,12,aloud,yellow,462.8425847999997,None,None,462.8425847999997,None,,,,,,,,,,,,,,,,,,,,,,,,,,,,,,,,,,,133 Aloud,001,2022_Dec_01_1123,ProdSingRedoBetween,2021.2.3,59.90861539801789,
12,0,12,0,,,,,,,,,,,,,,,,,,,,,,,,,,467.3624614999999,None,orchestra,14,13,aloud,yellow,465.35583659999975,None,None,465.35583659999975,None,,,,,,,,,,,,,,,,,,,,,,,,,,,,,,,,,,,133 Aloud,001,2022_Dec_01_1123,ProdSingRedoBetween,2021.2.3,59.90861539801789,
13,0,13,0,,,,,,,,,,,,,,,,,,,,,,,,,,469.8816277999995,None,relation,3,14,aloud,yellow,467.8691005999999,None,None,467.8691005999999,None,,,,,,,,,,,,,,,,,,,,,,,,,,,,,,,,,,,133 Aloud,001,2022_Dec_01_1123,ProdSingRedoBetween,2021.2.3,59.90861539801789,
14,0,14,0,,,,,,,,,,,,,,,,,,,,,,,,,,472.38411259999975,None,rural,21,15,aloud,yellow,470.3821876000002,None,None,470.3821876000002,None,,,,,,,,,,,,,,,,,,,,,,,,,,,,,,,,,,,133 Aloud,001,2022_Dec_01_1123,ProdSingRedoBetween,2021.2.3,59.90861539801789,
15,0,15,0,,,,,,,,,,,,,,,,,,,,,,,,,,474.8866915999997,None,still,59,16,aloud,yellow,472.8857358999994,None,None,472.8857358999994,None,,,,,,,,,,,,,,,,,,,,,,,,,,,,,,,,,,,133 Aloud,001,2022_Dec_01_1123,ProdSingRedoBetween,2021.2.3,59.90861539801789,
16,0,16,0,,,,,,,,,,,,,,,,,,,,,,,,,,477.4059030999997,None,incident,41,17,aloud,blue,475.3909881999998,None,None,475.3909881999998,None,,,,,,,,,,,,,,,,,,,,,,,,,,,,,,,,,,,133 Aloud,001,2022_Dec_01_1123,ProdSingRedoBetween,2021.2.3,59.90861539801789,
17,0,17,0,,,,,,,,,,,,,,,,,,,,,,,,,,479.90829099999974,None,character,37,18,aloud,blue,477.90898149999975,None,None,477.90898149999975,None,,,,,,,,,,,,,,,,,,,,,,,,,,,,,,,,,,,133 Aloud,001,2022_Dec_01_1123,ProdSingRedoBetween,2021.2.3,59.90861539801789,
18,0,18,0,,,,,,,,,,,,,,,,,,,,,,,,,,482.4275313999997,None,shock,0,19,aloud,yellow,480.42050930000005,None,None,480.42050930000005,None,,,,,,,,,,,,,,,,,,,,,,,,,,,,,,,,,,,133 Aloud,001,2022_Dec_01_1123,ProdSingRedoBetween,2021.2.3,59.90861539801789,
19,0,19,0,,,,,,,,,,,,,,,,,,,,,,,,,,484.93024199999945,None,style,74,20,aloud,red,482.9289560999996,None,None,482.9289560999996,None,,,,,,,,,,,,,,,,,,,,,,,,,,,,,,,,,,,133 Aloud,001,2022_Dec_01_1123,ProdSingRedoBetween,2021.2.3,59.90861539801789,
20,0,20,0,,,,,,,,,,,,,,,,,,,,,,,,,,487.44928399999935,None,figure,5,21,aloud,yellow,485.43528499999957,None,None,485.43528499999957,None,,,,,,,,,,,,,,,,,,,,,,,,,,,,,,,,,,,133 Aloud,001,2022_Dec_01_1123,ProdSingRedoBetween,2021.2.3,59.90861539801789,
21,0,21,0,,,,,,,,,,,,,,,,,,,,,,,,,,489.9684437999995,None,worker,79,22,aloud,red,487.95507889999953,None,None,487.95507889999953,None,,,,,,,,,,,,,,,,,,,,,,,,,,,,,,,,,,,133 Aloud,001,2022_Dec_01_1123,ProdSingRedoBetween,2021.2.3,59.90861539801789,
22,0,22,0,,,,,,,,,,,,,,,,,,,,,,,,,,492.4875766999994,None,search,1,23,aloud,yellow,490.47450039999967,None,None,490.47450039999967,None,,,,,,,,,,,,,,,,,,,,,,,,,,,,,,,,,,,133 Aloud,001,2022_Dec_01_1123,ProdSingRedoBetween,2021.2.3,59.90861539801789,
23,0,23,0,,,,,,,,,,,,,,,,,,,,,,,,,,494.99005529999977,None,solution,9,24,aloud,yellow,492.9880938999995,None,None,492.9880938999995,None,,,,,,,,,,,,,,,,,,,,,,,,,,,,,,,,,,,133 Aloud,001,2022_Dec_01_1123,ProdSingRedoBetween,2021.2.3,59.90861539801789,
24,0,24,0,,,,,,,,,,,,,,,,,,,,,,,,,,497.49261509999997,None,danger,66,25,aloud,red,495.49151129999973,None,None,495.49151129999973,None,,,,,,,,,,,,,,,,,,,,,,,,,,,,,,,,,,,133 Aloud,001,2022_Dec_01_1123,ProdSingRedoBetween,2021.2.3,59.90861539801789,
25,0,25,0,,,,,,,,,,,,,,,,,,,,,,,,,,499.9952478999994,None,charter,83,26,aloud,red,497.9942986999995,None,None,497.9942986999995,None,,,,,,,,,,,,,,,,,,,,,,,,,,,,,,,,,,,133 Aloud,001,2022_Dec_01_1123,ProdSingRedoBetween,2021.2.3,59.90861539801789,
26,0,26,0,,,,,,,,,,,,,,,,,,,,,,,,,,502.5142890999996,None,revolution,40,27,aloud,blue,500.5095216999998,None,None,500.5095216999998,None,,,,,,,,,,,,,,,,,,,,,,,,,,,,,,,,,,,133 Aloud,001,2022_Dec_01_1123,ProdSingRedoBetween,2021.2.3,59.90861539801789,
27,0,27,0,,,,,,,,,,,,,,,,,,,,,,,,,,505.03351870000006,None,number,73,28,aloud,red,503.02456449999954,None,None,503.02456449999954,None,,,,,,,,,,,,,,,,,,,,,,,,,,,,,,,,,,,133 Aloud,001,2022_Dec_01_1123,ProdSingRedoBetween,2021.2.3,59.90861539801789,
28,0,28,0,,,,,,,,,,,,,,,,,,,,,,,,,,507.5360456999997,None,budget,69,29,aloud,red,505.5355028999993,None,None,505.5355028999993,None,,,,,,,,,,,,,,,,,,,,,,,,,,,,,,,,,,,133 Aloud,001,2022_Dec_01_1123,ProdSingRedoBetween,2021.2.3,59.90861539801789,
29,0,29,0,,,,,,,,,,,,,,,,,,,,,,,,,,510.05524499999956,None,debate,18,30,aloud,yellow,508.0405909000001,None,None,508.0405909000001,None,,,,,,,,,,,,,,,,,,,,,,,,,,,,,,,,,,,133 Aloud,001,2022_Dec_01_1123,ProdSingRedoBetween,2021.2.3,59.90861539801789,
30,0,30,0,,,,,,,,,,,,,,,,,,,,,,,,,,512.5743305999995,None,committee,6,31,aloud,yellow,510.5599870999995,None,None,510.5599870999995,None,,,,,,,,,,,,,,,,,,,,,,,,,,,,,,,,,,,133 Aloud,001,2022_Dec_01_1123,ProdSingRedoBetween,2021.2.3,59.90861539801789,
31,0,31,0,,,,,,,,,,,,,,,,,,,,,,,,,,515.0764991999995,None,curve,42,32,aloud,blue,513.0756818,None,None,513.0756818,None,,,,,,,,,,,,,,,,,,,,,,,,,,,,,,,,,,,133 Aloud,001,2022_Dec_01_1123,ProdSingRedoBetween,2021.2.3,59.90861539801789,
32,0,32,0,,,,,,,,,,,,,,,,,,,,,,,,,,517.5960518000002,None,south,23,33,aloud,yellow,515.5972436000002,None,None,515.5972436000002,None,,,,,,,,,,,,,,,,,,,,,,,,,,,,,,,,,,,133 Aloud,001,2022_Dec_01_1123,ProdSingRedoBetween,2021.2.3,59.90861539801789,
33,0,33,0,,,,,,,,,,,,,,,,,,,,,,,,,,520.0981587999995,None,fight,82,34,aloud,red,518.0962619000002,None,None,518.0962619000002,None,,,,,,,,,,,,,,,,,,,,,,,,,,,,,,,,,,,133 Aloud,001,2022_Dec_01_1123,ProdSingRedoBetween,2021.2.3,59.90861539801789,
34,0,34,0,,,,,,,,,,,,,,,,,,,,,,,,,,522.6010446999999,None,question,7,35,aloud,yellow,520.5987792999995,None,None,520.5987792999995,None,,,,,,,,,,,,,,,,,,,,,,,,,,,,,,,,,,,133 Aloud,001,2022_Dec_01_1123,ProdSingRedoBetween,2021.2.3,59.90861539801789,
35,0,35,0,,,,,,,,,,,,,,,,,,,,,,,,,,525.1036137000001,None,carry,53,36,aloud,blue,523.1013482999997,None,None,523.1013482999997,None,,,,,,,,,,,,,,,,,,,,,,,,,,,,,,,,,,,133 Aloud,001,2022_Dec_01_1123,ProdSingRedoBetween,2021.2.3,59.90861539801789,
36,0,36,0,,,,,,,,,,,,,,,,,,,,,,,,,,527.6060018999997,None,dance,65,37,aloud,red,525.6054613999995,None,None,525.6054613999995,None,,,,,,,,,,,,,,,,,,,,,,,,,,,,,,,,,,,133 Aloud,001,2022_Dec_01_1123,ProdSingRedoBetween,2021.2.3,59.90861539801789,
37,0,37,0,,,,,,,,,,,,,,,,,,,,,,,,,,530.1253846,None,working,64,38,aloud,red,528.1108704999997,None,None,528.1108704999997,None,,,,,,,,,,,,,,,,,,,,,,,,,,,,,,,,,,,133 Aloud,001,2022_Dec_01_1123,ProdSingRedoBetween,2021.2.3,59.90861539801789,
38,0,38,0,,,,,,,,,,,,,,,,,,,,,,,,,,532.6444259,None,group,80,39,aloud,red,530.6308399999998,None,None,530.6308399999998,None,,,,,,,,,,,,,,,,,,,,,,,,,,,,,,,,,,,133 Aloud,001,2022_Dec_01_1123,ProdSingRedoBetween,2021.2.3,59.90861539801789,
39,0,39,0,,,,,,,,,,,,,,,,,,,,,,,,,,535.1636241999995,None,leader,78,40,aloud,red,533.1486090999997,None,None,533.1486090999997,None,,,,,,,,,,,,,,,,,,,,,,,,,,,,,,,,,,,133 Aloud,001,2022_Dec_01_1123,ProdSingRedoBetween,2021.2.3,59.90861539801789,
40,0,40,0,,,,,,,,,,,,,,,,,,,,,,,,,,537.6828258999994,None,piece,12,41,aloud,yellow,535.6680912000002,None,None,535.6680912000002,None,,,,,,,,,,,,,,,,,,,,,,,,,,,,,,,,,,,133 Aloud,001,2022_Dec_01_1123,ProdSingRedoBetween,2021.2.3,59.90861539801789,
41,0,41,0,,,,,,,,,,,,,,,,,,,,,,,,,,540.2019260999996,None,cover,60,42,aloud,red,538.1900086999995,None,None,538.1900086999995,None,,,,,,,,,,,,,,,,,,,,,,,,,,,,,,,,,,,133 Aloud,001,2022_Dec_01_1123,ProdSingRedoBetween,2021.2.3,59.90861539801789,
42,0,42,0,,,,,,,,,,,,,,,,,,,,,,,,,,542.7045388999995,None,afternoon,51,43,aloud,blue,540.7047788,None,None,540.7047788,None,,,,,,,,,,,,,,,,,,,,,,,,,,,,,,,,,,,133 Aloud,001,2022_Dec_01_1123,ProdSingRedoBetween,2021.2.3,59.90861539801789,
43,0,43,0,,,,,,,,,,,,,,,,,,,,,,,,,,545.2265959999995,None,space,50,44,aloud,blue,543.2177004999994,None,None,543.2177004999994,None,,,,,,,,,,,,,,,,,,,,,,,,,,,,,,,,,,,133 Aloud,001,2022_Dec_01_1123,ProdSingRedoBetween,2021.2.3,59.90861539801789,
44,0,44,0,,,,,,,,,,,,,,,,,,,,,,,,,,547.7427713999996,None,notice,43,45,aloud,blue,545.7307795999996,None,None,545.7307795999996,None,,,,,,,,,,,,,,,,,,,,,,,,,,,,,,,,,,,133 Aloud,001,2022_Dec_01_1123,ProdSingRedoBetween,2021.2.3,59.90861539801789,
45,0,45,0,,,,,,,,,,,,,,,,,,,,,,,,,,550.2620385,None,season,31,46,aloud,blue,548.2532861,None,None,548.2532861,None,,,,,,,,,,,,,,,,,,,,,,,,,,,,,,,,,,,133 Aloud,001,2022_Dec_01_1123,ProdSingRedoBetween,2021.2.3,59.90861539801789,
46,0,46,0,,,,,,,,,,,,,,,,,,,,,,,,,,552.7812073999994,None,answer,62,47,aloud,red,550.7661987000001,None,None,550.7661987000001,None,,,,,,,,,,,,,,,,,,,,,,,,,,,,,,,,,,,133 Aloud,001,2022_Dec_01_1123,ProdSingRedoBetween,2021.2.3,59.90861539801789,
47,0,47,0,,,,,,,,,,,,,,,,,,,,,,,,,,555.2837058999994,None,property,36,48,aloud,blue,553.2832546999998,None,None,553.2832546999998,None,,,,,,,,,,,,,,,,,,,,,,,,,,,,,,,,,,,133 Aloud,001,2022_Dec_01_1123,ProdSingRedoBetween,2021.2.3,59.90861539801789,
48,0,48,0,,,,,,,,,,,,,,,,,,,,,,,,,,557.7861594999995,None,beauty,54,49,aloud,blue,555.7861411999993,None,None,555.7861411999993,None,,,,,,,,,,,,,,,,,,,,,,,,,,,,,,,,,,,133 Aloud,001,2022_Dec_01_1123,ProdSingRedoBetween,2021.2.3,59.90861539801789,
49,0,49,0,,,,,,,,,,,,,,,,,,,,,,,,,,560.3053395999996,None,little,35,50,aloud,blue,558.2944515999998,None,None,558.2944515999998,None,,,,,,,,,,,,,,,,,,,,,,,,,,,,,,,,,,,133 Aloud,001,2022_Dec_01_1123,ProdSingRedoBetween,2021.2.3,59.90861539801789,
50,0,50,0,,,,,,,,,,,,,,,,,,,,,,,,,,562.8079372000002,None,build,19,51,aloud,yellow,560.8058200999994,None,None,560.8058200999994,None,,,,,,,,,,,,,,,,,,,,,,,,,,,,,,,,,,,133 Aloud,001,2022_Dec_01_1123,ProdSingRedoBetween,2021.2.3,59.90861539801789,
51,0,51,0,,,,,,,,,,,,,,,,,,,,,,,,,,565.3271573000002,None,track,25,52,aloud,yellow,563.3148012000001,None,None,563.3148012000001,None,,,,,,,,,,,,,,,,,,,,,,,,,,,,,,,,,,,133 Aloud,001,2022_Dec_01_1123,ProdSingRedoBetween,2021.2.3,59.90861539801789,
52,0,52,0,,,,,,,,,,,,,,,,,,,,,,,,,,567.8462277999997,None,colonel,85,53,aloud,red,565.8364007999999,None,None,565.8364007999999,None,,,,,,,,,,,,,,,,,,,,,,,,,,,,,,,,,,,133 Aloud,001,2022_Dec_01_1123,ProdSingRedoBetween,2021.2.3,59.90861539801789,
53,0,53,0,,,,,,,,,,,,,,,,,,,,,,,,,,570.3488577999997,None,union,34,54,aloud,blue,568.3467313000001,None,None,568.3467313000001,None,,,,,,,,,,,,,,,,,,,,,,,,,,,,,,,,,,,133 Aloud,001,2022_Dec_01_1123,ProdSingRedoBetween,2021.2.3,59.90861539801789,
54,0,54,0,,,,,,,,,,,,,,,,,,,,,,,,,,572.8514126,None,watch,2,55,aloud,yellow,570.8494094999996,None,None,570.8494094999996,None,,,,,,,,,,,,,,,,,,,,,,,,,,,,,,,,,,,133 Aloud,001,2022_Dec_01_1123,ProdSingRedoBetween,2021.2.3,59.90861539801789,
55,0,55,0,,,,,,,,,,,,,,,,,,,,,,,,,,575.3537048999997,None,session,84,56,aloud,red,573.3541372,None,None,573.3541372,None,,,,,,,,,,,,,,,,,,,,,,,,,,,,,,,,,,,133 Aloud,001,2022_Dec_01_1123,ProdSingRedoBetween,2021.2.3,59.90861539801789,
56,0,56,0,,,,,,,,,,,,,,,,,,,,,,,,,,577.8730427999999,None,light,89,57,aloud,red,575.8676250999997,None,None,575.8676250999997,None,,,,,,,,,,,,,,,,,,,,,,,,,,,,,,,,,,,133 Aloud,001,2022_Dec_01_1123,ProdSingRedoBetween,2021.2.3,59.90861539801789,
57,0,57,0,,,,,,,,,,,,,,,,,,,,,,,,,,580.3755223999997,None,straight,67,58,aloud,red,578.3751475999998,None,None,578.3751475999998,None,,,,,,,,,,,,,,,,,,,,,,,,,,,,,,,,,,,133 Aloud,001,2022_Dec_01_1123,ProdSingRedoBetween,2021.2.3,59.90861539801789,
58,0,58,0,,,,,,,,,,,,,,,,,,,,,,,,,,582.8946305,None,prime,39,59,aloud,blue,580.8815346000001,None,None,580.8815346000001,None,,,,,,,,,,,,,,,,,,,,,,,,,,,,,,,,,,,133 Aloud,001,2022_Dec_01_1123,ProdSingRedoBetween,2021.2.3,59.90861539801789,
59,0,59,0,,,,,,,,,,,,,,,,,,,,,,,,,,585.3972346,None,burden,71,60,aloud,red,583.3951305,None,None,583.3951305,None,,,,,,,,,,,,,,,,,,,,,,,,,,,,,,,,,,,133 Aloud,001,2022_Dec_01_1123,ProdSingRedoBetween,2021.2.3,59.90861539801789,
60,0,60,0,,,,,,,,,,,,,,,,,,,,,,,,,,587.9163117999997,None,citizen,45,61,aloud,blue,585.9085268999997,None,None,585.9085268999997,None,,,,,,,,,,,,,,,,,,,,,,,,,,,,,,,,,,,133 Aloud,001,2022_Dec_01_1123,ProdSingRedoBetween,2021.2.3,59.90861539801789,
61,0,61,0,,,,,,,,,,,,,,,,,,,,,,,,,,590.4189458999999,None,break,88,62,aloud,red,588.4168652999997,None,None,588.4168652999997,None,,,,,,,,,,,,,,,,,,,,,,,,,,,,,,,,,,,133 Aloud,001,2022_Dec_01_1123,ProdSingRedoBetween,2021.2.3,59.90861539801789,
62,0,62,0,,,,,,,,,,,,,,,,,,,,,,,,,,592.9380284999997,None,rough,24,63,aloud,yellow,590.9257232999998,None,None,590.9257232999998,None,,,,,,,,,,,,,,,,,,,,,,,,,,,,,,,,,,,133 Aloud,001,2022_Dec_01_1123,ProdSingRedoBetween,2021.2.3,59.90861539801789,
63,0,63,0,,,,,,,,,,,,,,,,,,,,,,,,,,595.4404899000001,None,candidate,28,64,aloud,yellow,593.4399597000001,None,None,593.4399597000001,None,,,,,,,,,,,,,,,,,,,,,,,,,,,,,,,,,,,133 Aloud,001,2022_Dec_01_1123,ProdSingRedoBetween,2021.2.3,59.90861539801789,
64,0,64,0,,,,,,,,,,,,,,,,,,,,,,,,,,597.9430200999996,None,point,4,65,aloud,yellow,595.9439444,None,None,595.9439444,None,,,,,,,,,,,,,,,,,,,,,,,,,,,,,,,,,,,133 Aloud,001,2022_Dec_01_1123,ProdSingRedoBetween,2021.2.3,59.90861539801789,
65,0,65,0,,,,,,,,,,,,,,,,,,,,,,,,,,600.4454399999995,None,clean,20,66,aloud,yellow,598.4439333999999,None,None,598.4439333999999,None,,,,,,,,,,,,,,,,,,,,,,,,,,,,,,,,,,,133 Aloud,001,2022_Dec_01_1123,ProdSingRedoBetween,2021.2.3,59.90861539801789,
66,0,66,0,,,,,,,,,,,,,,,,,,,,,,,,,,602.9647489999998,None,tennis,55,67,aloud,blue,600.9595644999999,None,None,600.9595644999999,None,,,,,,,,,,,,,,,,,,,,,,,,,,,,,,,,,,,133 Aloud,001,2022_Dec_01_1123,ProdSingRedoBetween,2021.2.3,59.90861539801789,
67,0,67,0,,,,,,,,,,,,,,,,,,,,,,,,,,605.4839992999996,None,level,70,68,aloud,red,603.4768284000002,None,None,603.4768284000002,None,,,,,,,,,,,,,,,,,,,,,,,,,,,,,,,,,,,133 Aloud,001,2022_Dec_01_1123,ProdSingRedoBetween,2021.2.3,59.90861539801789,
68,0,68,0,,,,,,,,,,,,,,,,,,,,,,,,,,608.0030348,None,education,16,69,aloud,yellow,605.9889966000001,None,None,605.9889966000001,None,,,,,,,,,,,,,,,,,,,,,,,,,,,,,,,,,,,133 Aloud,001,2022_Dec_01_1123,ProdSingRedoBetween,2021.2.3,59.90861539801789,
69,0,69,0,,,,,,,,,,,,,,,,,,,,,,,,,,610.5056433,None,month,68,70,aloud,red,608.5036151999993,None,None,608.5036151999993,None,,,,,,,,,,,,,,,,,,,,,,,,,,,,,,,,,,,133 Aloud,001,2022_Dec_01_1123,ProdSingRedoBetween,2021.2.3,59.90861539801789,
70,0,70,0,,,,,,,,,,,,,,,,,,,,,,,,,,613.0245606999997,None,service,75,71,aloud,red,611.0111831999993,None,None,611.0111831999993,None,,,,,,,,,,,,,,,,,,,,,,,,,,,,,,,,,,,133 Aloud,001,2022_Dec_01_1123,ProdSingRedoBetween,2021.2.3,59.90861539801789,
71,0,71,0,,,,,,,,,,,,,,,,,,,,,,,,,,615.5440331,None,block,58,72,aloud,blue,613.5311523999999,None,None,613.5311523999999,None,,,,,,,,,,,,,,,,,,,,,,,,,,,,,,,,,,,133 Aloud,001,2022_Dec_01_1123,ProdSingRedoBetween,2021.2.3,59.90861539801789,
72,0,72,0,,,,,,,,,,,,,,,,,,,,,,,,,,618.0462225000001,None,quarter,30,73,aloud,blue,616.0444723,None,None,616.0444723,None,,,,,,,,,,,,,,,,,,,,,,,,,,,,,,,,,,,133 Aloud,001,2022_Dec_01_1123,ProdSingRedoBetween,2021.2.3,59.90861539801789,
73,0,73,0,,,,,,,,,,,,,,,,,,,,,,,,,,620.5489160999996,None,reach,13,74,aloud,yellow,618.5485952999998,None,None,618.5485952999998,None,,,,,,,,,,,,,,,,,,,,,,,,,,,,,,,,,,,133 Aloud,001,2022_Dec_01_1123,ProdSingRedoBetween,2021.2.3,59.90861539801789,
74,0,74,0,,,,,,,,,,,,,,,,,,,,,,,,,,623.0681510999993,None,hunger,48,75,aloud,blue,621.0527486000001,None,None,621.0527486000001,None,,,,,,,,,,,,,,,,,,,,,,,,,,,,,,,,,,,133 Aloud,001,2022_Dec_01_1123,ProdSingRedoBetween,2021.2.3,59.90861539801789,
75,0,75,0,,,,,,,,,,,,,,,,,,,,,,,,,,625.5873271,None,atmosphere,10,76,aloud,yellow,623.5792855999998,None,None,623.5792855999998,None,,,,,,,,,,,,,,,,,,,,,,,,,,,,,,,,,,,133 Aloud,001,2022_Dec_01_1123,ProdSingRedoBetween,2021.2.3,59.90861539801789,
76,0,76,0,,,,,,,,,,,,,,,,,,,,,,,,,,628.0898309999993,None,title,22,77,aloud,yellow,626.0878482999997,None,None,626.0878482999997,None,,,,,,,,,,,,,,,,,,,,,,,,,,,,,,,,,,,133 Aloud,001,2022_Dec_01_1123,ProdSingRedoBetween,2021.2.3,59.90861539801789,
77,0,77,0,,,,,,,,,,,,,,,,,,,,,,,,,,630.6090419000002,None,discovery,72,78,aloud,red,628.6076234000002,None,None,628.6076234000002,None,,,,,,,,,,,,,,,,,,,,,,,,,,,,,,,,,,,133 Aloud,001,2022_Dec_01_1123,ProdSingRedoBetween,2021.2.3,59.90861539801789,
78,0,78,0,,,,,,,,,,,,,,,,,,,,,,,,,,633.1111362000001,None,profession,15,79,aloud,yellow,631.1092749999998,None,None,631.1092749999998,None,,,,,,,,,,,,,,,,,,,,,,,,,,,,,,,,,,,133 Aloud,001,2022_Dec_01_1123,ProdSingRedoBetween,2021.2.3,59.90861539801789,
79,0,79,0,,,,,,,,,,,,,,,,,,,,,,,,,,635.6141157000002,None,drama,61,80,aloud,red,633.6119167999996,None,None,633.6119167999996,None,,,,,,,,,,,,,,,,,,,,,,,,,,,,,,,,,,,133 Aloud,001,2022_Dec_01_1123,ProdSingRedoBetween,2021.2.3,59.90861539801789,
80,0,80,0,,,,,,,,,,,,,,,,,,,,,,,,,,638.1165143999997,None,trail,81,81,aloud,red,636.1144663999994,None,None,636.1144663999994,None,,,,,,,,,,,,,,,,,,,,,,,,,,,,,,,,,,,133 Aloud,001,2022_Dec_01_1123,ProdSingRedoBetween,2021.2.3,59.90861539801789,
81,0,81,0,,,,,,,,,,,,,,,,,,,,,,,,,,640.6357297999994,None,religion,38,82,aloud,blue,638.6212538,None,None,638.6212538,None,,,,,,,,,,,,,,,,,,,,,,,,,,,,,,,,,,,133 Aloud,001,2022_Dec_01_1123,ProdSingRedoBetween,2021.2.3,59.90861539801789,
82,0,82,0,,,,,,,,,,,,,,,,,,,,,,,,,,643.1381261999995,None,sound,26,83,aloud,yellow,641.1361000999996,None,None,641.1361000999996,None,,,,,,,,,,,,,,,,,,,,,,,,,,,,,,,,,,,133 Aloud,001,2022_Dec_01_1123,ProdSingRedoBetween,2021.2.3,59.90861539801789,
83,0,83,0,,,,,,,,,,,,,,,,,,,,,,,,,,645.6573082999994,None,display,56,84,aloud,blue,643.6417780000002,None,None,643.6417780000002,None,,,,,,,,,,,,,,,,,,,,,,,,,,,,,,,,,,,133 Aloud,001,2022_Dec_01_1123,ProdSingRedoBetween,2021.2.3,59.90861539801789,
84,0,84,0,,,,,,,,,,,,,,,,,,,,,,,,,,648.1598364000001,None,treatment,87,85,aloud,red,646.1584837999999,None,None,646.1584837999999,None,,,,,,,,,,,,,,,,,,,,,,,,,,,,,,,,,,,133 Aloud,001,2022_Dec_01_1123,ProdSingRedoBetween,2021.2.3,59.90861539801789,
85,0,85,0,,,,,,,,,,,,,,,,,,,,,,,,,,650.6789703999993,None,design,63,86,aloud,red,648.6725885999995,None,None,648.6725885999995,None,,,,,,,,,,,,,,,,,,,,,,,,,,,,,,,,,,,133 Aloud,001,2022_Dec_01_1123,ProdSingRedoBetween,2021.2.3,59.90861539801789,
86,0,86,0,,,,,,,,,,,,,,,,,,,,,,,,,,653.1983051999996,None,goose,52,87,aloud,blue,651.1826772999993,None,None,651.1826772999993,None,,,,,,,,,,,,,,,,,,,,,,,,,,,,,,,,,,,133 Aloud,001,2022_Dec_01_1123,ProdSingRedoBetween,2021.2.3,59.90861539801789,
87,0,87,0,,,,,,,,,,,,,,,,,,,,,,,,,,655.7174712999995,None,guide,86,88,aloud,red,653.7018306,None,None,653.7018306,None,,,,,,,,,,,,,,,,,,,,,,,,,,,,,,,,,,,133 Aloud,001,2022_Dec_01_1123,ProdSingRedoBetween,2021.2.3,59.90861539801789,
88,0,88,0,,,,,,,,,,,,,,,,,,,,,,,,,,658.236535,None,business,44,89,aloud,blue,656.2281545999995,None,None,656.2281545999995,None,,,,,,,,,,,,,,,,,,,,,,,,,,,,,,,,,,,133 Aloud,001,2022_Dec_01_1123,ProdSingRedoBetween,2021.2.3,59.90861539801789,
89,0,89,0,,,,,,,,,,,,,,,,,,,,,,,,,,660.7557526,None,staff,47,90,aloud,blue,658.7429981999994,None,None,658.7429981999994,None,,,,,,,,,,,,,,,,,,,,,,,,,,,,,,,,,,,133 Aloud,001,2022_Dec_01_1123,ProdSingRedoBetween,2021.2.3,59.90861539801789,
,,,,,,,,,,,,,,,,,,,,,,,,,,,,,,,,,,,,,,,,,661.2566767999997,None,k,223.3452188000001,661.2566767999997,None,,,,,,,,,,,,,,,,,,,,,,,,,,,,,133 Aloud,001,2022_Dec_01_1123,ProdSingRedoBetween,2021.2.3,59.90861539801789,
,,,,0,0,0,0,,,,,,,,,,,,,,,,,,,,,,952.8985524999998,None,,,,,,,,,,,,,,,,,cover,60,1,aloud,old,red,885.1388750999995,None,885.1388750999995,None,6,46.41493509999964,885.1388750999995,None,46.41493509999964,931.5807077999998,None,932.1019249999999,None,932.1019249999999,None,f,20.779846700000235,932.1019249999999,None,20.779846700000235,,,133 Aloud,001,2022_Dec_01_1123,ProdSingRedoBetween,2021.2.3,59.90861539801789,
,,,,1,0,1,0,,,,,,,,,,,,,,,,,,,,,,960.2715035000001,None,,,,,,,,,,,,,,,,,review,146,2,aloud,new,null,953.4028342000001,None,953.4028342000001,None,6,4.406970700000784,953.4028342000001,None,4.406970700000784,957.8394997999994,None,958.3632048999998,None,958.3632048999998,None,r,1.878664700000627,958.3632048999998,None,1.878664700000627,,,133 Aloud,001,2022_Dec_01_1123,ProdSingRedoBetween,2021.2.3,59.90861539801789,
,,,,2,0,2,0,,,,,,,,,,,,,,,,,,,,,,973.4015914000001,None,,,,,,,,,,,,,,,,,science,153,3,aloud,new,null,960.7760328999993,None,960.7760328999993,None,5,5.913814999999886,960.7760328999993,None,5.913814999999886,966.7187266000001,None,967.2360122999999,None,967.2360122999999,None,f,6.141802999999527,967.2360122999999,None,6.141802999999527,,,133 Aloud,001,2022_Dec_01_1123,ProdSingRedoBetween,2021.2.3,59.90861539801789,
,,,,3,0,3,0,,,,,,,,,,,,,,,,,,,,,,980.4419195999999,None,,,,,,,,,,,,,,,,,victory,115,4,aloud,new,null,973.9138888999996,None,973.9138888999996,None,6,4.736061200000222,973.9138888999996,None,4.736061200000222,978.6816177000001,None,979.1959636000001,None,979.1959636000001,None,r,1.2297539000001052,979.1959636000001,None,1.2297539000001052,,,133 Aloud,001,2022_Dec_01_1123,ProdSingRedoBetween,2021.2.3,59.90861539801789,
,,,,4,0,4,0,,,,,,,,,,,,,,,,,,,,,,995.1899226999994,None,,,,,,,,,,,,,,,,,estate,127,5,aloud,new,null,980.9533302999998,None,980.9533302999998,None,3,8.032681099999536,980.9533302999998,None,8.032681099999536,989.0218325999995,None,989.5344784999998,None,989.5344784999998,None,f,5.62743219999993,989.5344784999998,None,5.62743219999993,,,133 Aloud,001,2022_Dec_01_1123,ProdSingRedoBetween,2021.2.3,59.90861539801789,
,,,,5,0,5,0,,,,,,,,,,,,,,,,,,,,,,1008.2376936999999,None,,,,,,,,,,,,,,,,,prime,39,6,aloud,old,blue,995.7046980999994,None,995.7046980999994,None,4,10.865126100000452,995.7046980999994,None,10.865126100000452,1006.5878341999996,None,1007.1111031,None,1007.1111031,None,f,1.1066814999994676,1007.1111031,None,1.1066814999994676,,,133 Aloud,001,2022_Dec_01_1123,ProdSingRedoBetween,2021.2.3,59.90861539801789,
,,,,6,0,6,0,,,,,,,,,,,,,,,,,,,,,,1014.7094569999999,None,,,,,,,,,,,,,,,,,dream,158,7,aloud,new,null,1008.7550572,None,1008.7550572,None,6,4.198737700000493,1008.7550572,None,4.198737700000493,1012.9741669999994,None,1013.4794654999996,None,1013.4794654999996,None,r,1.2022644999997283,1013.4794654999996,None,1.2022644999997283,,,133 Aloud,001,2022_Dec_01_1123,ProdSingRedoBetween,2021.2.3,59.90861539801789,
,,,,7,0,7,0,,,,,,,,,,,,,,,,,,,,,,1026.8735368999996,None,,,,,,,,,,,,,,,,,quarter,30,8,aloud,old,blue,1015.2234530999995,None,1015.2234530999995,None,6,7.706359800000428,1015.2234530999995,None,7.706359800000428,1022.9525051999999,None,1023.4579718999994,None,1023.4579718999994,None,r,3.3918943000007857,1023.4579718999994,None,3.3918943000007857,,,133 Aloud,001,2022_Dec_01_1123,ProdSingRedoBetween,2021.2.3,59.90861539801789,
,,,,8,0,8,0,,,,,,,,,,,,,,,,,,,,,,1043.0224285999993,None,,,,,,,,,,,,,,,,,treatment,87,9,aloud,old,red,1027.3999284000001,None,1027.3999284000001,None,4,14.201961500000834,1027.3999284000001,None,14.201961500000834,1041.6255009999995,None,1042.1446841999996,None,1042.1446841999996,None,f,0.8573233999995864,1042.1446841999996,None,0.8573233999995864,,,133 Aloud,001,2022_Dec_01_1123,ProdSingRedoBetween,2021.2.3,59.90861539801789,
,,,,9,0,9,0,,,,,,,,,,,,,,,,,,,,,,1048.1760353999998,None,,,,,,,,,,,,,,,,,pattern,168,10,aloud,new,null,1043.5332284999995,None,1043.5332284999995,None,5,3.1085941999999704,1043.5332284999995,None,3.1085941999999704,1046.6641712,None,1047.1835686999993,None,1047.1835686999993,None,r,0.9703251999999338,1047.1835686999993,None,0.9703251999999338,,,133 Aloud,001,2022_Dec_01_1123,ProdSingRedoBetween,2021.2.3,59.90861539801789,
,,,,10,0,10,0,,,,,,,,,,,,,,,,,,,,,,1052.0835091,None,,,,,,,,,,,,,,,,,search,1,11,aloud,old,yellow,1048.6935864999996,None,1048.6935864999996,None,6,2.340291700000307,1048.6935864999996,None,2.340291700000307,1051.0637166999995,None,1051.5655989999996,None,1051.5655989999996,None,r,0.4923908999999185,1051.5655989999996,None,0.4923908999999185,,,133 Aloud,001,2022_Dec_01_1123,ProdSingRedoBetween,2021.2.3,59.90861539801789,
,,,,11,0,11,0,,,,,,,,,,,,,,,,,,,,,,1056.0867159999998,None,,,,,,,,,,,,,,,,,property,36,12,aloud,old,blue,1052.6076109999995,None,1052.6076109999995,None,6,2.0022173999996085,1052.6076109999995,None,2.0022173999996085,1054.6340904999997,None,1055.1333122999995,None,1055.1333122999995,None,r,0.9326085000002422,1055.1333122999995,None,0.9326085000002422,,,133 Aloud,001,2022_Dec_01_1123,ProdSingRedoBetween,2021.2.3,59.90861539801789,
,,,,12,0,12,0,,,,,,,,,,,,,,,,,,,,,,1064.4091301999997,None,,,,,,,,,,,,,,,,,corner,90,13,aloud,new,null,1056.6060594,None,1056.6060594,None,5,5.78791530000035,1056.6060594,None,5.78791530000035,1062.4314347999998,None,1062.9444211,None,1062.9444211,None,r,1.4335689999998067,1062.9444211,None,1.4335689999998067,,,133 Aloud,001,2022_Dec_01_1123,ProdSingRedoBetween,2021.2.3,59.90861539801789,
,,,,13,0,13,0,,,,,,,,,,,,,,,,,,,,,,1068.8980081999998,None,,,,,,,,,,,,,,,,,burden,71,14,aloud,old,red,1064.9238713999994,None,1064.9238713999994,None,5,2.710056199999599,1064.9238713999994,None,2.710056199999599,1067.6651226999993,None,1068.1870583,None,1068.1870583,None,r,0.6788927000006879,1068.1870583,None,0.6788927000006879,,,133 Aloud,001,2022_Dec_01_1123,ProdSingRedoBetween,2021.2.3,59.90861539801789,
,,,,14,0,14,0,,,,,,,,,,,,,,,,,,,,,,1076.0374978999998,None,,,,,,,,,,,,,,,,,piece,12,15,aloud,old,yellow,1069.4159777999994,None,1069.4159777999994,None,6,4.169915400000718,1069.4159777999994,None,4.169915400000718,1073.6098887999997,None,1074.1254795999994,None,1074.1254795999994,None,r,1.8843431000004784,1074.1254795999994,None,1.8843431000004784,,,133 Aloud,001,2022_Dec_01_1123,ProdSingRedoBetween,2021.2.3,59.90861539801789,
,,,,15,0,15,0,,,,,,,,,,,,,,,,,,,,,,1080.6754087,None,,,,,,,,,,,,,,,,,business,44,16,aloud,old,blue,1076.5463683999997,None,1076.5463683999997,None,6,2.9595903999997972,1076.5463683999997,None,2.9595903999997972,1079.530111,None,1080.0460220999994,None,1080.0460220999994,None,r,0.6038711000001058,1080.0460220999994,None,0.6038711000001058,,,133 Aloud,001,2022_Dec_01_1123,ProdSingRedoBetween,2021.2.3,59.90861539801789,
,,,,16,0,16,0,,,,,,,,,,,,,,,,,,,,,,1086.7145476999995,None,,,,,,,,,,,,,,,,,atmosphere,10,17,aloud,old,yellow,1081.1894206999996,None,1081.1894206999996,None,4,3.364503699999659,1081.1894206999996,None,3.364503699999659,1084.5798435999995,None,1085.0850444999996,None,1085.0850444999996,None,f,1.612844600000244,1085.0850444999996,None,1.612844600000244,,,133 Aloud,001,2022_Dec_01_1123,ProdSingRedoBetween,2021.2.3,59.90861539801789,
,,,,17,0,17,0,,,,,,,,,,,,,,,,,,,,,,1092.6559281,None,,,,,,,,,,,,,,,,,minute,57,18,aloud,old,blue,1087.2306932000001,None,1087.2306932000001,None,6,3.987115000000813,1087.2306932000001,None,3.987115000000813,1091.2391785999998,None,1091.7609606999995,None,1091.7609606999995,None,r,0.8650207000000592,1091.7609606999995,None,0.8650207000000592,,,133 Aloud,001,2022_Dec_01_1123,ProdSingRedoBetween,2021.2.3,59.90861539801789,
,,,,18,0,18,0,,,,,,,,,,,,,,,,,,,,,,1098.8281348,None,,,,,,,,,,,,,,,,,report,152,19,aloud,new,null,1093.1863113999998,None,1093.1863113999998,None,6,2.647601300000133,1093.1863113999998,None,2.647601300000133,1095.8621311999996,None,1096.3851094000001,None,1096.3851094000001,None,r,2.41678150000007,1096.3851094000001,None,2.41678150000007,,,133 Aloud,001,2022_Dec_01_1123,ProdSingRedoBetween,2021.2.3,59.90861539801789,
,,,,19,0,19,0,,,,,,,,,,,,,,,,,,,,,,1102.2525516999995,None,,,,,,,,,,,,,,,,,store,49,20,aloud,old,blue,1099.3310819999997,None,1099.3310819999997,None,6,1.734914600000593,1099.3310819999997,None,1.734914600000593,1101.1032814,None,1101.6141539,None,1101.6141539,None,r,0.6118298999999752,1101.6141539,None,0.6118298999999752,,,133 Aloud,001,2022_Dec_01_1123,ProdSingRedoBetween,2021.2.3,59.90861539801789,
,,,,20,0,20,0,,,,,,,,,,,,,,,,,,,,,,1106.7511799999993,None,,,,,,,,,,,,,,,,,people,136,21,aloud,new,null,1102.7701471,None,1102.7701471,None,6,2.359862399999656,1102.7701471,None,2.359862399999656,1105.1571979,None,1105.6817161999998,None,1105.6817161999998,None,r,1.0481417999999394,1105.6817161999998,None,1.0481417999999394,,,133 Aloud,001,2022_Dec_01_1123,ProdSingRedoBetween,2021.2.3,59.90861539801789,
,,,,21,0,21,0,,,,,,,,,,,,,,,,,,,,,,1113.8252409999996,None,,,,,,,,,,,,,,,,,weight,154,22,aloud,new,null,1107.2595966,None,1107.2595966,None,6,4.718179200000122,1107.2595966,None,4.718179200000122,1112.0162778999993,None,1112.5267945999994,None,1112.5267945999994,None,r,1.2830159999994066,1112.5267945999994,None,1.2830159999994066,,,133 Aloud,001,2022_Dec_01_1123,ProdSingRedoBetween,2021.2.3,59.90861539801789,
,,,,22,0,22,0,,,,,,,,,,,,,,,,,,,,,,1118.2797929999997,None,,,,,,,,,,,,,,,,,number,73,23,aloud,old,red,1114.3343656999996,None,1114.3343656999996,None,6,2.6835167999997793,1114.3343656999996,None,2.6835167999997793,1117.0501508999996,None,1117.5664841999996,None,1117.5664841999996,None,r,0.6834357000007003,1117.5664841999996,None,0.6834357000007003,,,133 Aloud,001,2022_Dec_01_1123,ProdSingRedoBetween,2021.2.3,59.90861539801789,
,,,,23,0,23,0,,,,,,,,,,,,,,,,,,,,,,1123.8710845999994,None,,,,,,,,,,,,,,,,,grade,98,24,aloud,new,null,1118.7895196,None,1118.7895196,None,5,3.3245597000004636,1118.7895196,None,3.3245597000004636,1122.1399071999995,None,1122.6523386999997,None,1122.6523386999997,None,r,1.189679499999329,1122.6523386999997,None,1.189679499999329,,,133 Aloud,001,2022_Dec_01_1123,ProdSingRedoBetween,2021.2.3,59.90861539801789,
,,,,24,0,24,0,,,,,,,,,,,,,,,,,,,,,,1130.2916612999998,None,,,,,,,,,,,,,,,,,second,145,25,aloud,new,null,1124.3895891000002,None,1124.3895891000002,None,5,3.4603093000005174,1124.3895891000002,None,3.4603093000005174,1127.8759780999999,None,1128.3934652999997,None,1128.3934652999997,None,r,1.8723657000000458,1128.3934652999997,None,1.8723657000000458,,,133 Aloud,001,2022_Dec_01_1123,ProdSingRedoBetween,2021.2.3,59.90861539801789,
,,,,25,0,25,0,,,,,,,,,,,,,,,,,,,,,,1133.7283851000002,None,,,,,,,,,,,,,,,,,worker,79,26,aloud,old,red,1130.8087797999997,None,1130.8087797999997,None,6,1.561217100000249,1130.8087797999997,None,1.561217100000249,1132.4017985,None,1132.9330645,None,1132.9330645,None,r,0.7729008999995131,1132.9330645,None,0.7729008999995131,,,133 Aloud,001,2022_Dec_01_1123,ProdSingRedoBetween,2021.2.3,59.90861539801789,
,,,,26,0,26,0,,,,,,,,,,,,,,,,,,,,,,1140.3684052999997,None,,,,,,,,,,,,,,,,,character,37,27,aloud,old,blue,1134.2330635999997,None,1134.2330635999997,None,5,5.184768099999928,1134.2330635999997,None,5.184768099999928,1139.4350513,None,1139.9423115999998,None,1139.9423115999998,None,r,0.3956172999996852,1139.9423115999998,None,0.3956172999996852,,,133 Aloud,001,2022_Dec_01_1123,ProdSingRedoBetween,2021.2.3,59.90861539801789,
,,,,27,0,27,0,,,,,,,,,,,,,,,,,,,,,,1150.0781834999998,None,,,,,,,,,,,,,,,,,group,80,28,aloud,old,red,1140.8790422000002,None,1140.8790422000002,None,5,7.690905200000088,1140.8790422000002,None,7.690905200000088,1148.6007393999998,None,1149.1143736999993,None,1149.1143736999993,None,r,0.9355331999995542,1149.1143736999993,None,0.9355331999995542,,,133 Aloud,001,2022_Dec_01_1123,ProdSingRedoBetween,2021.2.3,59.90861539801789,
,,,,28,0,28,0,,,,,,,,,,,,,,,,,,,,,,1155.3864938999996,None,,,,,,,,,,,,,,,,,range,133,29,aloud,new,null,1150.5857933999996,None,1150.5857933999996,None,4,3.1440843999998833,1150.5857933999996,None,3.1440843999998833,1153.7517387999997,None,1154.2720242999994,None,1154.2720242999994,None,f,1.081967999999506,1154.2720242999994,None,1.081967999999506,,,133 Aloud,001,2022_Dec_01_1123,ProdSingRedoBetween,2021.2.3,59.90861539801789,
,,,,29,0,29,0,,,,,,,,,,,,,,,,,,,,,,1160.5725083999996,None,,,,,,,,,,,,,,,,,guide,86,30,aloud,old,red,1155.900694,None,1155.900694,None,4,3.429190299999391,1155.900694,None,3.429190299999391,1159.355802,None,1159.8715093,None,1159.8715093,None,f,0.6746784000006301,1159.8715093,None,0.6746784000006301,,,133 Aloud,001,2022_Dec_01_1123,ProdSingRedoBetween,2021.2.3,59.90861539801789,
,,,,30,0,30,0,,,,,,,,,,,,,,,,,,,,,,1165.4268525999996,None,,,,,,,,,,,,,,,,,solution,9,31,aloud,old,yellow,1161.0755008999995,None,1161.0755008999995,None,5,3.1023198000002594,1161.0755008999995,None,3.1023198000002594,1164.2099841999998,None,1164.7152338999995,None,1164.7152338999995,None,r,0.6866944000003059,1164.7152338999995,None,0.6866944000003059,,,133 Aloud,001,2022_Dec_01_1123,ProdSingRedoBetween,2021.2.3,59.90861539801789,
,,,,31,0,31,0,,,,,,,,,,,,,,,,,,,,,,1170.8702978000001,None,,,,,,,,,,,,,,,,,south,23,32,aloud,old,yellow,1165.9300855000001,None,1165.9300855000001,None,6,4.023869200000263,1165.9300855000001,None,4.023869200000263,1169.9871426999998,None,1170.5039797,None,1170.5039797,None,r,0.33810600000015256,1170.5039797,None,0.33810600000015256,,,133 Aloud,001,2022_Dec_01_1123,ProdSingRedoBetween,2021.2.3,59.90861539801789,
,,,,32,0,32,0,,,,,,,,,,,,,,,,,,,,,,1175.3916240999997,None,,,,,,,,,,,,,,,,,force,151,33,aloud,new,null,1171.3828598,None,1171.3828598,None,4,2.467140100000506,1171.3828598,None,2.467140100000506,1173.8756027999998,None,1174.3858228999998,None,1174.3858228999998,None,f,0.976093100000071,1174.3858228999998,None,0.976093100000071,,,133 Aloud,001,2022_Dec_01_1123,ProdSingRedoBetween,2021.2.3,59.90861539801789,
,,,,33,0,33,0,,,,,,,,,,,,,,,,,,,,,,1180.4919082999995,None,,,,,,,,,,,,,,,,,build,19,34,aloud,old,yellow,1175.9116236,None,1175.9116236,None,5,3.1783401000002414,1175.9116236,None,3.1783401000002414,1179.1132539999999,None,1179.6244455999995,None,1179.6244455999995,None,r,0.8414204000000609,1179.6244455999995,None,0.8414204000000609,,,133 Aloud,001,2022_Dec_01_1123,ProdSingRedoBetween,2021.2.3,59.90861539801789,
,,,,34,0,34,0,,,,,,,,,,,,,,,,,,,,,,1185.6637193999995,None,,,,,,,,,,,,,,,,,beauty,54,35,aloud,old,blue,1181.0164054999996,None,1181.0164054999996,None,6,3.7375327999998262,1181.0164054999996,None,3.7375327999998262,1184.7864497,None,1185.3038434,None,1185.3038434,None,r,0.3300099999996746,1185.3038434,None,0.3300099999996746,,,133 Aloud,001,2022_Dec_01_1123,ProdSingRedoBetween,2021.2.3,59.90861539801789,
,,,,35,0,35,0,,,,,,,,,,,,,,,,,,,,,,1192.5538927999996,None,,,,,,,,,,,,,,,,,track,25,36,aloud,old,yellow,1186.1771767999999,None,1186.1771767999999,None,4,3.976731099999597,1186.1771767999999,None,3.976731099999597,1190.1881575999996,None,1190.7117029,None,1190.7117029,None,f,1.8182245000007242,1190.7117029,None,1.8182245000007242,,,133 Aloud,001,2022_Dec_01_1123,ProdSingRedoBetween,2021.2.3,59.90861539801789,
,,,,36,0,36,0,,,,,,,,,,,,,,,,,,,,,,1197.5255017,None,,,,,,,,,,,,,,,,,block,58,37,aloud,old,blue,1193.0655858,None,1193.0655858,None,4,2.88833859999977,1193.0655858,None,2.88833859999977,1195.9808414999998,None,1196.4952194999996,None,1196.4952194999996,None,f,1.0026211000003968,1196.4952194999996,None,1.0026211000003968,,,133 Aloud,001,2022_Dec_01_1123,ProdSingRedoBetween,2021.2.3,59.90861539801789,
,,,,37,0,37,0,,,,,,,,,,,,,,,,,,,,,,1201.2290189999994,None,,,,,,,,,,,,,,,,,season,31,38,aloud,old,blue,1198.0261842999998,None,1198.0261842999998,None,6,2.135880100000577,1198.0261842999998,None,2.135880100000577,1200.1890044000002,None,1200.7005997999995,None,1200.7005997999995,None,r,0.5094624000003023,1200.7005997999995,None,0.5094624000003023,,,133 Aloud,001,2022_Dec_01_1123,ProdSingRedoBetween,2021.2.3,59.90861539801789,
,,,,38,0,38,0,,,,,,,,,,,,,,,,,,,,,,1207.719032,None,,,,,,,,,,,,,,,,,industry,102,39,aloud,new,null,1201.7452483999996,None,1201.7452483999996,None,6,4.6326609999996435,1201.7452483999996,None,4.6326609999996435,1206.4033897,None,1206.9208362999998,None,1206.9208362999998,None,r,0.7771342000005461,1206.9208362999998,None,0.7771342000005461,,,133 Aloud,001,2022_Dec_01_1123,ProdSingRedoBetween,2021.2.3,59.90861539801789,
,,,,39,0,39,0,,,,,,,,,,,,,,,,,,,,,,1211.4910068,None,,,,,,,,,,,,,,,,,stranger,148,40,aloud,new,null,1208.2352074,None,1208.2352074,None,5,2.230762400000458,1208.2352074,None,2.230762400000458,1210.4932915999998,None,1211.0167802999995,None,1211.0167802999995,None,r,0.44929380000030505,1211.0167802999995,None,0.44929380000030505,,,133 Aloud,001,2022_Dec_01_1123,ProdSingRedoBetween,2021.2.3,59.90861539801789,
,,,,40,0,40,0,,,,,,,,,,,,,,,,,,,,,,1215.0929065,None,,,,,,,,,,,,,,,,,bucket,170,41,aloud,new,null,1212.0125154999996,None,1212.0125154999996,None,6,1.9654560999997557,1212.0125154999996,None,1.9654560999997557,1214.0102170999999,None,1214.5150420999998,None,1214.5150420999998,None,r,0.5508915000000343,1214.5150420999998,None,0.5508915000000343,,,133 Aloud,001,2022_Dec_01_1123,ProdSingRedoBetween,2021.2.3,59.90861539801789,
,,,,41,0,41,0,,,,,,,,,,,,,,,,,,,,,,1222.1539478999994,None,,,,,,,,,,,,,,,,,reach,13,42,aloud,old,yellow,1215.6083906999993,None,1215.6083906999993,None,4,4.657480300000316,1215.6083906999993,None,4.657480300000316,1220.2903951999997,None,1220.8046722,None,1220.8046722,None,f,1.325319099999433,1220.8046722,None,1.325319099999433,,,133 Aloud,001,2022_Dec_01_1123,ProdSingRedoBetween,2021.2.3,59.90861539801789,
,,,,42,0,42,0,,,,,,,,,,,,,,,,,,,,,,1231.1424319999996,None,,,,,,,,,,,,,,,,,benefit,93,43,aloud,new,null,1222.6782982999994,None,1222.6782982999994,None,4,6.2598838000003525,1222.6782982999994,None,6.2598838000003525,1228.9649079,None,1229.4749679999995,None,1229.4749679999995,None,f,1.6469974000001457,1229.4749679999995,None,1.6469974000001457,,,133 Aloud,001,2022_Dec_01_1123,ProdSingRedoBetween,2021.2.3,59.90861539801789,
,,,,43,0,43,0,,,,,,,,,,,,,,,,,,,,,,1235.6637326999999,None,,,,,,,,,,,,,,,,,write,114,44,aloud,new,null,1231.6571786999993,None,1231.6571786999993,None,6,2.560697699999764,1231.6571786999993,None,2.560697699999764,1234.2468706999998,None,1234.7520342999997,None,1234.7520342999997,None,r,0.8900135000003502,1234.7520342999997,None,0.8900135000003502,,,133 Aloud,001,2022_Dec_01_1123,ProdSingRedoBetween,2021.2.3,59.90861539801789,
,,,,44,0,44,0,,,,,,,,,,,,,,,,,,,,,,1239.7687814,None,,,,,,,,,,,,,,,,,sleep,116,45,aloud,new,null,1236.1755057999999,None,1236.1755057999999,None,6,2.5064014000008683,1236.1755057999999,None,2.5064014000008683,1238.7079802999997,None,1239.2174754999996,None,1239.2174754999996,None,r,0.5206018000008044,1239.2174754999996,None,0.5206018000008044,,,133 Aloud,001,2022_Dec_01_1123,ProdSingRedoBetween,2021.2.3,59.90861539801789,
,,,,45,0,45,0,,,,,,,,,,,,,,,,,,,,,,1246.3426205999995,None,,,,,,,,,,,,,,,,,committee,6,46,aloud,old,yellow,1240.2724879999996,None,1240.2724879999996,None,3,3.4734316000003673,1240.2724879999996,None,3.4734316000003673,1243.7730602000001,None,1244.279168,None,1244.279168,None,f,2.0348088999999163,1244.279168,None,2.0348088999999163,,,133 Aloud,001,2022_Dec_01_1123,ProdSingRedoBetween,2021.2.3,59.90861539801789,
,,,,46,0,46,0,,,,,,,,,,,,,,,,,,,,,,1250.4785316999996,None,,,,,,,,,,,,,,,,,carry,53,47,aloud,old,blue,1246.8515966999994,None,1246.8515966999994,None,5,2.4063466000006883,1246.8515966999994,None,2.4063466000006883,1249.2785055999993,None,1249.7828111,None,1249.7828111,None,r,0.6671433999999863,1249.7828111,None,0.6671433999999863,,,133 Aloud,001,2022_Dec_01_1123,ProdSingRedoBetween,2021.2.3,59.90861539801789,
,,,,47,0,47,0,,,,,,,,,,,,,,,,,,,,,,1258.4697436999995,None,,,,,,,,,,,,,,,,,blind,176,48,aloud,new,null,1250.9876668999996,None,1250.9876668999996,None,5,5.614408200000071,1250.9876668999996,None,5.614408200000071,1256.6250719999998,None,1257.1365775999993,None,1257.1365775999993,None,f,1.305383000000802,1257.1365775999993,None,1.305383000000802,,,133 Aloud,001,2022_Dec_01_1123,ProdSingRedoBetween,2021.2.3,59.90861539801789,
,,,,48,0,48,0,,,,,,,,,,,,,,,,,,,,,,1263.9586043,None,,,,,,,,,,,,,,,,,tennis,55,49,aloud,old,blue,1258.9749272999998,None,1258.9749272999998,None,6,3.699123100000179,1258.9749272999998,None,3.699123100000179,1262.6957414999997,None,1263.2150821999994,None,1263.2150821999994,None,r,0.7148471999998947,1263.2150821999994,None,0.7148471999998947,,,133 Aloud,001,2022_Dec_01_1123,ProdSingRedoBetween,2021.2.3,59.90861539801789,
,,,,49,0,49,0,,,,,,,,,,,,,,,,,,,,,,1267.5788908999994,None,,,,,,,,,,,,,,,,,straight,67,50,aloud,old,red,1264.4701175999999,None,1264.4701175999999,None,6,1.8919416000007914,1264.4701175999999,None,1.8919416000007914,1266.3837929000001,None,1266.9064601999999,None,1266.9064601999999,None,r,0.6554206000000704,1266.9064601999999,None,0.6554206000000704,,,133 Aloud,001,2022_Dec_01_1123,ProdSingRedoBetween,2021.2.3,59.90861539801789,
,,,,50,0,50,0,,,,,,,,,,,,,,,,,,,,,,1273.3512900999995,None,,,,,,,,,,,,,,,,,light,89,51,aloud,old,red,1268.0921786,None,1268.0921786,None,6,4.1976878000004945,1268.0921786,None,4.1976878000004945,1272.3167164999995,None,1272.8227300999997,None,1272.8227300999997,None,r,0.4992517999999109,1272.8227300999997,None,0.4992517999999109,,,133 Aloud,001,2022_Dec_01_1123,ProdSingRedoBetween,2021.2.3,59.90861539801789,
,,,,51,0,51,0,,,,,,,,,,,,,,,,,,,,,,1278.2228814,None,,,,,,,,,,,,,,,,,relation,3,52,aloud,old,yellow,1273.8597638,None,1273.8597638,None,5,2.414184100000057,1273.8597638,None,2.414184100000057,1276.3041382000001,None,1276.8088821000001,None,1276.8088821000001,None,f,1.393077899999298,1276.8088821000001,None,1.393077899999298,,,133 Aloud,001,2022_Dec_01_1123,ProdSingRedoBetween,2021.2.3,59.90861539801789,
,,,,52,0,52,0,,,,,,,,,,,,,,,,,,,,,,1284.9128836,None,,,,,,,,,,,,,,,,,appearance,119,53,aloud,new,null,1278.7365885999998,None,1278.7365885999998,None,5,4.753527700000632,1278.7365885999998,None,4.753527700000632,1283.5260678999994,None,1284.0323817999997,None,1284.0323817999997,None,r,0.8575977000000421,1284.0323817999997,None,0.8575977000000421,,,133 Aloud,001,2022_Dec_01_1123,ProdSingRedoBetween,2021.2.3,59.90861539801789,
,,,,53,0,53,0,,,,,,,,,,,,,,,,,,,,,,1291.2445246999996,None,,,,,,,,,,,,,,,,,company,122,54,aloud,new,null,1285.4177562999994,None,1285.4177562999994,None,5,4.432360900000276,1285.4177562999994,None,4.432360900000276,1289.8815080999993,None,1290.3900328999998,None,1290.3900328999998,None,r,0.8280377000000954,1290.3900328999998,None,0.8280377000000954,,,133 Aloud,001,2022_Dec_01_1123,ProdSingRedoBetween,2021.2.3,59.90861539801789,
,,,,54,0,54,0,,,,,,,,,,,,,,,,,,,,,,1295.7570405999995,None,,,,,,,,,,,,,,,,,direction,17,55,aloud,old,yellow,1291.7602366,None,1291.7602366,None,6,2.9937931000004028,1291.7602366,None,2.9937931000004028,1294.7738301999998,None,1295.2778435999999,None,1295.2778435999999,None,r,0.4603832999991937,1295.2778435999999,None,0.4603832999991937,,,133 Aloud,001,2022_Dec_01_1123,ProdSingRedoBetween,2021.2.3,59.90861539801789,
,,,,55,0,55,0,,,,,,,,,,,,,,,,,,,,,,1300.0289106999999,None,,,,,,,,,,,,,,,,,graduate,165,56,aloud,new,null,1296.2674545999998,None,1296.2674545999998,None,5,2.6385787999997774,1296.2674545999998,None,2.6385787999997774,1298.9337265999993,None,1299.4441954999993,None,1299.4441954999993,None,r,0.5578384000000369,1299.4441954999993,None,0.5578384000000369,,,133 Aloud,001,2022_Dec_01_1123,ProdSingRedoBetween,2021.2.3,59.90861539801789,
,,,,56,0,56,0,,,,,,,,,,,,,,,,,,,,,,1306.1340660999995,None,,,,,,,,,,,,,,,,,account,135,57,aloud,new,null,1300.53262,None,1300.53262,None,6,4.037496900000406,1300.53262,None,4.037496900000406,1304.6057729999993,None,1305.1220304999997,None,1305.1220304999997,None,r,0.9919578999997611,1305.1220304999997,None,0.9919578999997611,,,133 Aloud,001,2022_Dec_01_1123,ProdSingRedoBetween,2021.2.3,59.90861539801789,
,,,,57,0,57,0,,,,,,,,,,,,,,,,,,,,,,1310.073851,None,,,,,,,,,,,,,,,,,rural,21,58,aloud,old,yellow,1306.6402128999998,None,1306.6402128999998,None,6,1.953952500000014,1306.6402128999998,None,1.953952500000014,1308.6305412000002,None,1309.1469446,None,1309.1469446,None,r,0.9030953000001318,1309.1469446,None,0.9030953000001318,,,133 Aloud,001,2022_Dec_01_1123,ProdSingRedoBetween,2021.2.3,59.90861539801789,
,,,,58,0,58,0,,,,,,,,,,,,,,,,,,,,,,1313.9270780999996,None,,,,,,,,,,,,,,,,,hunger,48,59,aloud,old,blue,1310.5995361999994,None,1310.5995361999994,None,6,2.274583899999925,1310.5995361999994,None,2.274583899999925,1312.8985567,None,1313.4126178999995,None,1313.4126178999995,None,r,0.48561140000037994,1313.4126178999995,None,0.48561140000037994,,,133 Aloud,001,2022_Dec_01_1123,ProdSingRedoBetween,2021.2.3,59.90861539801789,
,,,,59,0,59,0,,,,,,,,,,,,,,,,,,,,,,1318.8310482999996,None,,,,,,,,,,,,,,,,,curve,42,60,aloud,old,blue,1314.4426973,None,1314.4426973,None,6,3.1913380999994843,1314.4426973,None,3.1913380999994843,1317.6645008999994,None,1318.1835604999997,None,1318.1835604999997,None,r,0.6264387000001079,1318.1835604999997,None,0.6264387000001079,,,133 Aloud,001,2022_Dec_01_1123,ProdSingRedoBetween,2021.2.3,59.90861539801789,
,,,,60,0,60,0,,,,,,,,,,,,,,,,,,,,,,1324.619256,None,,,,,,,,,,,,,,,,,shock,0,61,aloud,old,yellow,1319.3507157999993,None,1319.3507157999993,None,5,2.795173900000009,1319.3507157999993,None,2.795173900000009,1322.1666443999993,None,1322.6737827999996,None,1322.6737827999996,None,r,1.9281449000000066,1322.6737827999996,None,1.9281449000000066,,,133 Aloud,001,2022_Dec_01_1123,ProdSingRedoBetween,2021.2.3,59.90861539801789,
,,,,61,0,61,0,,,,,,,,,,,,,,,,,,,,,,1329.5585824999998,None,,,,,,,,,,,,,,,,,brief,143,62,aloud,new,null,1325.1301230999998,None,1325.1301230999998,None,4,2.0398291999999856,1325.1301230999998,None,2.0398291999999856,1327.1922659000002,None,1327.7094141999996,None,1327.7094141999996,None,f,1.8285875000001397,1327.7094141999996,None,1.8285875000001397,,,133 Aloud,001,2022_Dec_01_1123,ProdSingRedoBetween,2021.2.3,59.90861539801789,
,,,,62,0,62,0,,,,,,,,,,,,,,,,,,,,,,1336.5144855999997,None,,,,,,,,,,,,,,,,,discovery,72,63,aloud,old,red,1330.0618753999997,None,1330.0618753999997,None,5,4.036113000000114,1330.0618753999997,None,4.036113000000114,1334.1350692999995,None,1334.6463502999995,None,1334.6463502999995,None,f,1.843679699999484,1334.6463502999995,None,1.843679699999484,,,133 Aloud,001,2022_Dec_01_1123,ProdSingRedoBetween,2021.2.3,59.90861539801789,
,,,,63,0,63,0,,,,,,,,,,,,,,,,,,,,,,1342.9247810999996,None,,,,,,,,,,,,,,,,,century,117,64,aloud,new,null,1337.0192545,None,1337.0192545,None,5,4.4707341000003,1337.0192545,None,4.4707341000003,1341.5228714999994,None,1342.0366118000002,None,1342.0366118000002,None,r,0.8614548000005016,1342.0366118000002,None,0.8614548000005016,,,133 Aloud,001,2022_Dec_01_1123,ProdSingRedoBetween,2021.2.3,59.90861539801789,
,,,,64,0,64,0,,,,,,,,,,,,,,,,,,,,,,1346.6412897999999,None,,,,,,,,,,,,,,,,,short,108,65,aloud,new,null,1343.4464641999994,None,1343.4464641999994,None,6,2.2354427000000214,1343.4464641999994,None,2.2354427000000214,1345.7143897999995,None,1346.2332437999994,None,1346.2332437999994,None,r,0.3926645000001372,1346.2332437999994,None,0.3926645000001372,,,133 Aloud,001,2022_Dec_01_1123,ProdSingRedoBetween,2021.2.3,59.90861539801789,
,,,,65,0,65,0,,,,,,,,,,,,,,,,,,,,,,1350.299226,None,,,,,,,,,,,,,,,,,election,178,66,aloud,new,null,1347.1524768,None,1347.1524768,None,6,1.9696327000001475,1347.1524768,None,1.9696327000001475,1349.1540529999993,None,1349.6683176999995,None,1349.6683176999995,None,r,0.6057054000002609,1349.6683176999995,None,0.6057054000002609,,,133 Aloud,001,2022_Dec_01_1123,ProdSingRedoBetween,2021.2.3,59.90861539801789,
,,,,66,0,66,0,,,,,,,,,,,,,,,,,,,,,,1353.9651863,None,,,,,,,,,,,,,,,,,staff,47,67,aloud,old,blue,1350.8260419999997,None,1350.8260419999997,None,5,2.1119443999996292,1350.8260419999997,None,2.1119443999996292,1352.9679774999995,None,1353.4866127999994,None,1353.4866127999994,None,r,0.45131599999967875,1353.4866127999994,None,0.45131599999967875,,,133 Aloud,001,2022_Dec_01_1123,ProdSingRedoBetween,2021.2.3,59.90861539801789,
,,,,67,0,67,0,,,,,,,,,,,,,,,,,,,,,,1357.4519759999994,None,,,,,,,,,,,,,,,,,nation,76,68,aloud,old,red,1354.4764135999994,None,1354.4764135999994,None,6,1.973516899999595,1354.4764135999994,None,1.973516899999595,1356.4699420999996,None,1356.9850019999994,None,1356.9850019999994,None,r,0.4408973999998125,1356.9850019999994,None,0.4408973999998125,,,133 Aloud,001,2022_Dec_01_1123,ProdSingRedoBetween,2021.2.3,59.90861539801789,
,,,,68,0,68,0,,,,,,,,,,,,,,,,,,,,,,1366.2459841,None,,,,,,,,,,,,,,,,,frank,160,69,aloud,new,null,1357.9605186,None,1357.9605186,None,1,5.833479800000532,1357.9605186,None,5.833479800000532,1363.8267416999997,None,1364.3422676999999,None,1364.3422676999999,None,n,1.883657000000312,1364.3422676999999,None,1.883657000000312,,,133 Aloud,001,2022_Dec_01_1123,ProdSingRedoBetween,2021.2.3,59.90861539801789,
,,,,69,0,69,0,,,,,,,,,,,,,,,,,,,,,,1372.1016420999995,None,,,,,,,,,,,,,,,,,impact,128,70,aloud,new,null,1366.7628539999996,None,1366.7628539999996,None,5,3.8551962000001367,1366.7628539999996,None,3.8551962000001367,1370.6588473000002,None,1371.1702647000002,None,1371.1702647000002,None,r,0.9037642999992386,1371.1702647000002,None,0.9037642999992386,,,133 Aloud,001,2022_Dec_01_1123,ProdSingRedoBetween,2021.2.3,59.90861539801789,
,,,,70,0,70,0,,,,,,,,,,,,,,,,,,,,,,1375.5386742,None,,,,,,,,,,,,,,,,,revolution,40,71,aloud,old,blue,1372.6203576999997,None,1372.6203576999997,None,6,1.9894852999996147,1372.6203576999997,None,1.9894852999996147,1374.6390929,None,1375.1559561999993,None,1375.1559561999993,None,r,0.36615510000046925,1375.1559561999993,None,0.36615510000046925,,,133 Aloud,001,2022_Dec_01_1123,ProdSingRedoBetween,2021.2.3,59.90861539801789,
,,,,71,0,71,0,,,,,,,,,,,,,,,,,,,,,,1379.7410163999994,None,,,,,,,,,,,,,,,,,partner,94,72,aloud,new,null,1376.0641968999998,None,1376.0641968999998,None,6,2.633950299999924,1376.0641968999998,None,2.633950299999924,1378.7314084,None,1379.2419184,None,1379.2419184,None,r,0.48019009999916307,1379.2419184,None,0.48019009999916307,,,133 Aloud,001,2022_Dec_01_1123,ProdSingRedoBetween,2021.2.3,59.90861539801789,
,,,,72,0,72,0,,,,,,,,,,,,,,,,,,,,,,1383.5297758999995,None,,,,,,,,,,,,,,,,,working,64,73,aloud,old,red,1380.2541335999995,None,1380.2541335999995,None,6,2.259908899999573,1380.2541335999995,None,2.259908899999573,1382.5546138999998,None,1383.0739113,None,1383.0739113,None,r,0.4241563000005044,1383.0739113,None,0.4241563000005044,,,133 Aloud,001,2022_Dec_01_1123,ProdSingRedoBetween,2021.2.3,59.90861539801789,
,,,,73,0,73,0,,,,,,,,,,,,,,,,,,,,,,1389.9176936999993,None,,,,,,,,,,,,,,,,,instrument,99,74,aloud,new,null,1384.0457269999997,None,1384.0457269999997,None,6,3.0362508999996862,1384.0457269999997,None,3.0362508999996862,1387.1006830999995,None,1387.6273751999997,None,1387.6273751999997,None,r,2.270593899999767,1387.6273751999997,None,2.270593899999767,,,133 Aloud,001,2022_Dec_01_1123,ProdSingRedoBetween,2021.2.3,59.90861539801789,
,,,,74,0,74,0,,,,,,,,,,,,,,,,,,,,,,1394.4058415999998,None,,,,,,,,,,,,,,,,,trail,81,75,aloud,old,red,1390.4249306000002,None,1390.4249306000002,None,4,2.9933513000005405,1390.4249306000002,None,2.9933513000005405,1393.4475027999997,None,1393.9554221999997,None,1393.9554221999997,None,r,0.42265729999962787,1393.9554221999997,None,0.42265729999962787,,,133 Aloud,001,2022_Dec_01_1123,ProdSingRedoBetween,2021.2.3,59.90861539801789,
,,,,75,0,75,0,,,,,,,,,,,,,,,,,,,,,,1397.7423423,None,,,,,,,,,,,,,,,,,vision,101,76,aloud,new,null,1394.9119266999996,None,1394.9119266999996,None,6,1.9221035000000484,1394.9119266999996,None,1.9221035000000484,1396.8627345999994,None,1397.375446,None,1397.375446,None,r,0.3466393999997308,1397.375446,None,0.3466393999997308,,,133 Aloud,001,2022_Dec_01_1123,ProdSingRedoBetween,2021.2.3,59.90861539801789,
,,,,76,0,76,0,,,,,,,,,,,,,,,,,,,,,,1401.8635852999996,None,,,,,,,,,,,,,,,,,education,16,77,aloud,old,yellow,1398.2474567,None,1398.2474567,None,5,2.538501500000166,1398.2474567,None,2.538501500000166,1400.8131272,None,1401.3147185999997,None,1401.3147185999997,None,r,0.5194218000006003,1401.3147185999997,None,0.5194218000006003,,,133 Aloud,001,2022_Dec_01_1123,ProdSingRedoBetween,2021.2.3,59.90861539801789,
,,,,77,0,77,0,,,,,,,,,,,,,,,,,,,,,,1407.1684185999993,None,,,,,,,,,,,,,,,,,orchestra,14,78,aloud,old,yellow,1402.3737129,None,1402.3737129,None,4,3.332248499999878,1402.3737129,None,3.332248499999878,1405.7351009999993,None,1406.2412856,None,1406.2412856,None,f,0.896704700000555,1406.2412856,None,0.896704700000555,,,133 Aloud,001,2022_Dec_01_1123,ProdSingRedoBetween,2021.2.3,59.90861539801789,
,,,,78,0,78,0,,,,,,,,,,,,,,,,,,,,,,1414.0918542,None,,,,,,,,,,,,,,,,,contract,118,79,aloud,new,null,1407.6756533999996,None,1407.6756533999996,None,5,4.182410299999901,1407.6756533999996,None,4.182410299999901,1411.87946,None,1412.3913004999995,None,1412.3913004999995,None,r,1.6745820000005551,1412.3913004999995,None,1.6745820000005551,,,133 Aloud,001,2022_Dec_01_1123,ProdSingRedoBetween,2021.2.3,59.90861539801789,
,,,,79,0,79,0,,,,,,,,,,,,,,,,,,,,,,1417.5287638,None,,,,,,,,,,,,,,,,,murder,32,80,aloud,old,blue,1414.6048573999997,None,1414.6048573999997,None,6,1.445198700000219,1414.6048573999997,None,1.445198700000219,1416.0801199999996,None,1416.5947158999998,None,1416.5947158999998,None,r,0.903338399999484,1416.5947158999998,None,0.903338399999484,,,133 Aloud,001,2022_Dec_01_1123,ProdSingRedoBetween,2021.2.3,59.90861539801789,
,,,,80,0,80,0,,,,,,,,,,,,,,,,,,,,,,1421.3541618,None,,,,,,,,,,,,,,,,,charter,83,81,aloud,old,red,1418.0382610999995,None,1418.0382610999995,None,6,1.9398029999993014,1418.0382610999995,None,1.9398029999993014,1420.0048766,None,1420.5195992,None,1420.5195992,None,r,0.8108314999999493,1420.5195992,None,0.8108314999999493,,,133 Aloud,001,2022_Dec_01_1123,ProdSingRedoBetween,2021.2.3,59.90861539801789,
,,,,81,0,81,0,,,,,,,,,,,,,,,,,,,,,,1427.2885534999996,None,,,,,,,,,,,,,,,,,passage,92,82,aloud,new,null,1421.8744953999994,None,1421.8744953999994,None,5,4.25547590000042,1421.8744953999994,None,4.25547590000042,1426.1554136999994,None,1426.6609500999994,None,1426.6609500999994,None,r,0.5970448999996734,1426.6609500999994,None,0.5970448999996734,,,133 Aloud,001,2022_Dec_01_1123,ProdSingRedoBetween,2021.2.3,59.90861539801789,
,,,,82,0,82,0,,,,,,,,,,,,,,,,,,,,,,1433.5282030999997,None,,,,,,,,,,,,,,,,,court,155,83,aloud,new,null,1427.7992617999998,None,1427.7992617999998,None,6,4.362910199999533,1427.7992617999998,None,4.362910199999533,1432.2031011999998,None,1432.7131238000002,None,1432.7131238000002,None,r,0.7928834999993342,1432.7131238000002,None,0.7928834999993342,,,133 Aloud,001,2022_Dec_01_1123,ProdSingRedoBetween,2021.2.3,59.90861539801789,
,,,,83,0,83,0,,,,,,,,,,,,,,,,,,,,,,1438.8883409,None,,,,,,,,,,,,,,,,,point,4,84,aloud,old,yellow,1434.0381178999996,None,1434.0381178999996,None,5,3.8999696000000768,1434.0381178999996,None,3.8999696000000768,1437.9719868000002,None,1438.4877994999997,None,1438.4877994999997,None,r,0.37042440000004717,1438.4877994999997,None,0.37042440000004717,,,133 Aloud,001,2022_Dec_01_1123,ProdSingRedoBetween,2021.2.3,59.90861539801789,
,,,,84,0,84,0,,,,,,,,,,,,,,,,,,,,,,1442.6539318999994,None,,,,,,,,,,,,,,,,,notice,43,85,aloud,old,blue,1439.4129142000002,None,1439.4129142000002,None,5,2.1331418999998277,1439.4129142000002,None,2.1331418999998277,1441.5694968999996,None,1442.0738424,None,1442.0738424,None,r,0.5521348000002035,1442.0738424,None,0.5521348000002035,,,133 Aloud,001,2022_Dec_01_1123,ProdSingRedoBetween,2021.2.3,59.90861539801789,
,,,,85,0,85,0,,,,,,,,,,,,,,,,,,,,,,1446.4743650999999,None,,,,,,,,,,,,,,,,,distance,138,86,aloud,new,null,1443.1751328,None,1443.1751328,None,6,2.1228796000004877,1443.1751328,None,2.1228796000004877,1445.3276105999994,None,1445.8464156,None,1445.8464156,None,r,0.603481300000567,1445.8464156,None,0.603481300000567,,,133 Aloud,001,2022_Dec_01_1123,ProdSingRedoBetween,2021.2.3,59.90861539801789,
,,,,86,0,86,0,,,,,,,,,,,,,,,,,,,,,,1451.9464565999997,None,,,,,,,,,,,,,,,,,express,156,87,aloud,new,null,1446.9749659,None,1446.9749659,None,4,4.027017400000659,1446.9749659,None,4.027017400000659,1451.0300320999995,None,1451.5360026999997,None,1451.5360026999997,None,r,0.3860599999998158,1451.5360026999997,None,0.3860599999998158,,,133 Aloud,001,2022_Dec_01_1123,ProdSingRedoBetween,2021.2.3,59.90861539801789,
,,,,87,0,87,0,,,,,,,,,,,,,,,,,,,,,,1458.2860911999996,None,,,,,,,,,,,,,,,,,principal,175,88,aloud,new,null,1452.4531343999997,None,1452.4531343999997,None,6,4.492978199999925,1452.4531343999997,None,4.492978199999925,1456.9768657999994,None,1457.4927435999998,None,1457.4927435999998,None,f,0.7653378999993947,1457.4927435999998,None,0.7653378999993947,,,133 Aloud,001,2022_Dec_01_1123,ProdSingRedoBetween,2021.2.3,59.90861539801789,
,,,,88,0,88,0,,,,,,,,,,,,,,,,,,,,,,1462.9923645,None,,,,,,,,,,,,,,,,,watch,2,89,aloud,old,yellow,1458.800279,None,1458.800279,None,6,3.209857199999533,1458.800279,None,3.209857199999533,1462.0487914999994,None,1462.5571951000002,None,1462.5571951000002,None,r,0.4129358999998658,1462.5571951000002,None,0.4129358999998658,,,133 Aloud,001,2022_Dec_01_1123,ProdSingRedoBetween,2021.2.3,59.90861539801789,
,,,,89,0,89,0,,,,,,,,,,,,,,,,,,,,,,1467.2784575999995,None,,,,,,,,,,,,,,,,,candidate,28,90,aloud,old,yellow,1463.5047938999996,None,1463.5047938999996,None,6,2.84125480000057,1463.5047938999996,None,2.84125480000057,1466.3620531999995,None,1466.8680596999993,None,1466.8680596999993,None,r,0.3899784000004729,1466.8680596999993,None,0.3899784000004729,,,133 Aloud,001,2022_Dec_01_1123,ProdSingRedoBetween,2021.2.3,59.90861539801789,
,,,,90,0,90,0,,,,,,,,,,,,,,,,,,,,,,1474.2520779999995,None,,,,,,,,,,,,,,,,,agency,157,91,aloud,new,null,1467.7889123999994,None,1467.7889123999994,None,5,3.1570926000003965,1467.7889123999994,None,3.1570926000003965,1470.9667286999993,None,1471.4725038999995,None,1471.4725038999995,None,f,2.7536110000000917,1471.4725038999995,None,2.7536110000000917,,,133 Aloud,001,2022_Dec_01_1123,ProdSingRedoBetween,2021.2.3,59.90861539801789,
,,,,91,0,91,0,,,,,,,,,,,,,,,,,,,,,,1480.8753339999994,None,,,,,,,,,,,,,,,,,whole,124,92,aloud,new,null,1474.7636297,None,1474.7636297,None,6,3.566475300000093,1474.7636297,None,3.566475300000093,1478.3579480999997,None,1478.8754837999995,None,1478.8754837999995,None,f,1.9745702000000165,1478.8754837999995,None,1.9745702000000165,,,133 Aloud,001,2022_Dec_01_1123,ProdSingRedoBetween,2021.2.3,59.90861539801789,
,,,,92,0,92,0,,,,,,,,,,,,,,,,,,,,,,1484.1953671,None,,,,,,,,,,,,,,,,,pancakes,27,93,aloud,old,yellow,1481.3887453999996,None,1481.3887453999996,None,6,1.893491499999982,1481.3887453999996,None,1.893491499999982,1483.3203729999996,None,1483.8305652,None,1483.8305652,None,r,0.3395034000004671,1483.8305652,None,0.3395034000004671,,,133 Aloud,001,2022_Dec_01_1123,ProdSingRedoBetween,2021.2.3,59.90861539801789,
,,,,93,0,93,0,,,,,,,,,,,,,,,,,,,,,,1490.3028866999994,None,,,,,,,,,,,,,,,,,display,56,94,aloud,old,blue,1484.7066177999995,None,1484.7066177999995,None,4,4.167570800000249,1484.7066177999995,None,4.167570800000249,1488.9031129999994,None,1489.4266257,None,1489.4266257,None,f,0.8555041000008714,1489.4266257,None,0.8555041000008714,,,133 Aloud,001,2022_Dec_01_1123,ProdSingRedoBetween,2021.2.3,59.90861539801789,
,,,,94,0,94,0,,,,,,,,,,,,,,,,,,,,,,1496.8923832,None,,,,,,,,,,,,,,,,,entrance,105,95,aloud,new,null,1490.8071734999994,None,1490.8071734999994,None,6,4.266940800000157,1490.8071734999994,None,4.266940800000157,1495.0957506999994,None,1495.611954,None,1495.611954,None,r,1.2541964000001826,1495.611954,None,1.2541964000001826,,,133 Aloud,001,2022_Dec_01_1123,ProdSingRedoBetween,2021.2.3,59.90861539801789,
,,,,95,0,95,0,,,,,,,,,,,,,,,,,,,,,,1499.551531,None,,,,,,,,,,,,,,,,,religion,38,96,aloud,old,blue,1497.3984419999997,None,1497.3984419999997,None,6,1.0195754000005763,1497.3984419999997,None,1.0195754000005763,1498.4427354,None,1498.9450139,None,1498.9450139,None,r,0.5692302999996173,1498.9450139,None,0.5692302999996173,,,133 Aloud,001,2022_Dec_01_1123,ProdSingRedoBetween,2021.2.3,59.90861539801789,
,,,,96,0,96,0,,,,,,,,,,,,,,,,,,,,,,1505.3332391999993,None,,,,,,,,,,,,,,,,,danger,66,97,aloud,old,red,1500.0692752999994,None,1500.0692752999994,None,5,4.204775899999731,1500.0692752999994,None,4.204775899999731,1504.3015537,None,1504.8158611999997,None,1504.8158611999997,None,r,0.49015979999967385,1504.8158611999997,None,0.49015979999967385,,,133 Aloud,001,2022_Dec_01_1123,ProdSingRedoBetween,2021.2.3,59.90861539801789,
,,,,97,0,97,0,,,,,,,,,,,,,,,,,,,,,,1508.7032209999998,None,,,,,,,,,,,,,,,,,question,7,98,aloud,old,yellow,1505.8461971999996,None,1505.8461971999996,None,6,2.1557817000002615,1505.8461971999996,None,2.1557817000002615,1508.0213415999997,None,1508.5462196999997,None,1508.5462196999997,None,r,0.1358856000006199,1508.5462196999997,None,0.1358856000006199,,,133 Aloud,001,2022_Dec_01_1123,ProdSingRedoBetween,2021.2.3,59.90861539801789,
,,,,98,0,98,0,,,,,,,,,,,,,,,,,,,,,,1515.8270658000001,None,,,,,,,,,,,,,,,,,match,137,99,aloud,new,null,1509.2159971,None,1509.2159971,None,4,4.570082500000353,1509.2159971,None,4.570082500000353,1513.8084288999999,None,1514.3131291999998,None,1514.3131291999998,None,f,1.4888862000007066,1514.3131291999998,None,1.4888862000007066,,,133 Aloud,001,2022_Dec_01_1123,ProdSingRedoBetween,2021.2.3,59.90861539801789,
,,,,99,0,99,0,,,,,,,,,,,,,,,,,,,,,,1522.5373983,None,,,,,,,,,,,,,,,,,institute,95,100,aloud,new,null,1516.3388883999996,None,1516.3388883999996,None,6,5.183275800000047,1516.3388883999996,None,5.183275800000047,1521.5574178999996,None,1522.0726702000002,None,1522.0726702000002,None,r,0.4414961000002222,1522.0726702000002,None,0.4414961000002222,,,133 Aloud,001,2022_Dec_01_1123,ProdSingRedoBetween,2021.2.3,59.90861539801789,
,,,,100,0,100,0,,,,,,,,,,,,,,,,,,,,,,1527.2548671999994,None,,,,,,,,,,,,,,,,,smooth,134,101,aloud,new,null,1523.0542400999993,None,1523.0542400999993,None,5,3.227717599999778,1523.0542400999993,None,3.227717599999778,1526.3146029,None,1526.8281871,None,1526.8281871,None,r,0.397959400000218,1526.8281871,None,0.397959400000218,,,133 Aloud,001,2022_Dec_01_1123,ProdSingRedoBetween,2021.2.3,59.90861539801789,
,,,,101,0,101,0,,,,,,,,,,,,,,,,,,,,,,1534.5957531999993,None,,,,,,,,,,,,,,,,,conference,171,102,aloud,new,null,1527.7692152999998,None,1527.7692152999998,None,4,4.520837000000029,1527.7692152999998,None,4.520837000000029,1532.3113825,None,1532.8169429999998,None,1532.8169429999998,None,f,1.7610820999998396,1532.8169429999998,None,1.7610820999998396,,,133 Aloud,001,2022_Dec_01_1123,ProdSingRedoBetween,2021.2.3,59.90861539801789,
,,,,102,0,102,0,,,,,,,,,,,,,,,,,,,,,,1539.0668801000002,None,,,,,,,,,,,,,,,,,quick,104,103,aloud,new,null,1535.0961828,None,1535.0961828,None,6,2.9059268000000884,1535.0961828,None,2.9059268000000884,1538.0383057,None,1538.5563285999997,None,1538.5563285999997,None,r,0.4857196000002659,1538.5563285999997,None,0.4857196000002659,,,133 Aloud,001,2022_Dec_01_1123,ProdSingRedoBetween,2021.2.3,59.90861539801789,
,,,,103,0,103,0,,,,,,,,,,,,,,,,,,,,,,1542.9087593999993,None,,,,,,,,,,,,,,,,,fashion,131,104,aloud,new,null,1539.5847697,None,1539.5847697,None,5,2.2894382000004043,1539.5847697,None,2.2894382000004043,1541.9144674999998,None,1542.4261990999994,None,1542.4261990999994,None,r,0.4560618000004979,1542.4261990999994,None,0.4560618000004979,,,133 Aloud,001,2022_Dec_01_1123,ProdSingRedoBetween,2021.2.3,59.90861539801789,
,,,,104,0,104,0,,,,,,,,,,,,,,,,,,,,,,1551.1620985999998,None,,,,,,,,,,,,,,,,,space,50,105,aloud,old,blue,1543.4295787,None,1543.4295787,None,6,6.092534800000067,1543.4295787,None,6.092534800000067,1549.5492270999994,None,1550.0613698999996,None,1550.0613698999996,None,f,1.0847130000001926,1550.0613698999996,None,1.0847130000001926,,,133 Aloud,001,2022_Dec_01_1123,ProdSingRedoBetween,2021.2.3,59.90861539801789,
,,,,105,0,105,0,,,,,,,,,,,,,,,,,,,,,,1559.2037408999995,None,,,,,,,,,,,,,,,,,answer,62,106,aloud,old,red,1551.675996,None,1551.675996,None,6,5.974136300000282,1551.675996,None,5.974136300000282,1557.6701678,None,1558.1740653999996,None,1558.1740653999996,None,f,1.0119219000007433,1558.1740653999996,None,1.0119219000007433,,,133 Aloud,001,2022_Dec_01_1123,ProdSingRedoBetween,2021.2.3,59.90861539801789,
,,,,106,0,106,0,,,,,,,,,,,,,,,,,,,,,,1564.7607472,None,,,,,,,,,,,,,,,,,design,63,107,aloud,old,red,1559.7133631999995,None,1559.7133631999995,None,4,4.056757700000162,1559.7133631999995,None,4.056757700000162,1563.7954651999999,None,1564.3192244000002,None,1564.3192244000002,None,f,0.4110074000000168,1564.3192244000002,None,0.4110074000000168,,,133 Aloud,001,2022_Dec_01_1123,ProdSingRedoBetween,2021.2.3,59.90861539801789,
,,,,107,0,107,0,,,,,,,,,,,,,,,,,,,,,,1569.5974237,None,,,,,,,,,,,,,,,,,evidence,144,108,aloud,new,null,1565.2740095999998,None,1565.2740095999998,None,6,3.6480922000000646,1565.2740095999998,None,3.6480922000000646,1568.9504943000002,None,1569.4685160999998,None,1569.4685160999998,None,r,0.1095647000001918,1569.4685160999998,None,0.1095647000001918,,,133 Aloud,001,2022_Dec_01_1123,ProdSingRedoBetween,2021.2.3,59.90861539801789,
,,,,108,0,108,0,,,,,,,,,,,,,,,,,,,,,,1575.3083609999994,None,,,,,,,,,,,,,,,,,count,113,109,aloud,new,null,1570.1075873999998,None,1570.1075873999998,None,5,3.2626662000002398,1570.1075873999998,None,3.2626662000002398,1573.4063486999994,None,1573.9217629999994,None,1573.9217629999994,None,f,1.360465199999453,1573.9217629999994,None,1.360465199999453,,,133 Aloud,001,2022_Dec_01_1123,ProdSingRedoBetween,2021.2.3,59.90861539801789,
,,,,109,0,109,0,,,,,,,,,,,,,,,,,,,,,,1581.9095443999995,None,,,,,,,,,,,,,,,,,permit,169,110,aloud,new,null,1575.8321435999997,None,1575.8321435999997,None,3,3.6100117999994836,1575.8321435999997,None,3.6100117999994836,1579.4627003999994,None,1579.9859510999995,None,1579.9859510999995,None,f,1.9041330999998536,1579.9859510999995,None,1.9041330999998536,,,133 Aloud,001,2022_Dec_01_1123,ProdSingRedoBetween,2021.2.3,59.90861539801789,
,,,,110,0,110,0,,,,,,,,,,,,,,,,,,,,,,1591.569391,None,,,,,,,,,,,,,,,,,symbol,161,111,aloud,new,null,1582.4231019999997,None,1582.4231019999997,None,4,6.467177000000447,1582.4231019999997,None,6.467177000000447,1588.9326089999995,None,1589.4394198,None,1589.4394198,None,f,2.1147289000000455,1589.4394198,None,2.1147289000000455,,,133 Aloud,001,2022_Dec_01_1123,ProdSingRedoBetween,2021.2.3,59.90861539801789,
,,,,111,0,111,0,,,,,,,,,,,,,,,,,,,,,,1594.7739898999998,None,,,,,,,,,,,,,,,,,service,75,112,aloud,old,red,1592.0843071,None,1592.0843071,None,6,1.7498121999997238,1592.0843071,None,1.7498121999997238,1593.8591256,None,1594.3722354000001,None,1594.3722354000001,None,r,0.3738609000001816,1594.3722354000001,None,0.3738609000001816,,,133 Aloud,001,2022_Dec_01_1123,ProdSingRedoBetween,2021.2.3,59.90861539801789,
,,,,112,0,112,0,,,,,,,,,,,,,,,,,,,,,,1598.4095951999998,None,,,,,,,,,,,,,,,,,style,74,113,aloud,old,red,1595.2756915999998,None,1595.2756915999998,None,5,1.9904561000003014,1595.2756915999998,None,1.9904561000003014,1597.3008137999996,None,1597.8128576999998,None,1597.8128576999998,None,r,0.5812262999997984,1597.8128576999998,None,0.5812262999997984,,,133 Aloud,001,2022_Dec_01_1123,ProdSingRedoBetween,2021.2.3,59.90861539801789,
,,,,113,0,113,0,,,,,,,,,,,,,,,,,,,,,,1606.6545368999996,None,,,,,,,,,,,,,,,,,exchange,150,114,aloud,new,null,1598.9226841999998,None,1598.9226841999998,None,4,6.247411500000453,1598.9226841999998,None,6.247411500000453,1605.2052697,None,1605.7240283,None,1605.7240283,None,f,0.9022232999996049,1605.7240283,None,0.9022232999996049,,,133 Aloud,001,2022_Dec_01_1123,ProdSingRedoBetween,2021.2.3,59.90861539801789,
,,,,114,0,114,0,,,,,,,,,,,,,,,,,,,,,,1611.4224964999994,None,,,,,,,,,,,,,,,,,research,97,115,aloud,new,null,1607.1750894999996,None,1607.1750894999996,None,6,3.147032899999431,1607.1750894999996,None,3.147032899999431,1610.3414893999998,None,1610.8606374,None,1610.8606374,None,r,0.5415835000003426,1610.8606374,None,0.5415835000003426,,,133 Aloud,001,2022_Dec_01_1123,ProdSingRedoBetween,2021.2.3,59.90861539801789,
,,,,115,0,115,0,,,,,,,,,,,,,,,,,,,,,,1616.5125033999993,None,,,,,,,,,,,,,,,,,citizen,45,116,aloud,old,blue,1611.9410613,None,1611.9410613,None,5,2.22105399999964,1611.9410613,None,2.22105399999964,1614.197107,None,1614.7092735999995,None,1614.7092735999995,None,r,1.7728983999995762,1614.7092735999995,None,1.7728983999995762,,,133 Aloud,001,2022_Dec_01_1123,ProdSingRedoBetween,2021.2.3,59.90861539801789,
,,,,116,0,116,0,,,,,,,,,,,,,,,,,,,,,,1622.4856524999996,None,,,,,,,,,,,,,,,,,personnel,96,117,aloud,new,null,1617.0227968,None,1617.0227968,None,3,3.7073326999998244,1617.0227968,None,3.7073326999998244,1620.7607100999994,None,1621.2720504,None,1621.2720504,None,f,1.1861552000000302,1621.2720504,None,1.1861552000000302,,,133 Aloud,001,2022_Dec_01_1123,ProdSingRedoBetween,2021.2.3,59.90861539801789,
,,,,117,0,117,0,,,,,,,,,,,,,,,,,,,,,,1627.2233151,None,,,,,,,,,,,,,,,,,still,59,118,aloud,old,yellow,1623.0071909999997,None,1623.0071909999997,None,5,3.0511905000003026,1623.0071909999997,None,3.0511905000003026,1626.0948595,None,1626.6060905999993,None,1626.6060905999993,None,r,0.5964215000003605,1626.6060905999993,None,0.5964215000003605,,,133 Aloud,001,2022_Dec_01_1123,ProdSingRedoBetween,2021.2.3,59.90861539801789,
,,,,118,0,118,0,,,,,,,,,,,,,,,,,,,,,,1633.1148993999996,None,,,,,,,,,,,,,,,,,column,112,119,aloud,new,null,1627.7529909999994,None,1627.7529909999994,None,4,3.465124100000139,1627.7529909999994,None,3.465124100000139,1631.2441921999998,None,1631.7629454999997,None,1631.7629454999997,None,f,1.3193030999991606,1631.7629454999997,None,1.3193030999991606,,,133 Aloud,001,2022_Dec_01_1123,ProdSingRedoBetween,2021.2.3,59.90861539801789,
,,,,119,0,119,0,,,,,,,,,,,,,,,,,,,,,,1637.7156047999997,None,,,,,,,,,,,,,,,,,profession,15,120,aloud,old,yellow,1633.6358020999996,None,1633.6358020999996,None,6,2.950388999999632,1633.6358020999996,None,2.950388999999632,1636.6192117,None,1637.1354621,None,1637.1354621,None,r,0.5626191000001199,1637.1354621,None,0.5626191000001199,,,133 Aloud,001,2022_Dec_01_1123,ProdSingRedoBetween,2021.2.3,59.90861539801789,
,,,,120,0,120,0,,,,,,,,,,,,,,,,,,,,,,1648.5124189999997,None,,,,,,,,,,,,,,,,,enemy,106,121,aloud,new,null,1638.2227869999997,None,1638.2227869999997,None,5,8.779216299999462,1638.2227869999997,None,8.779216299999462,1647.0256082999995,None,1647.5299323999998,None,1647.5299323999998,None,f,0.9603096000000733,1647.5299323999998,None,0.9603096000000733,,,133 Aloud,001,2022_Dec_01_1123,ProdSingRedoBetween,2021.2.3,59.90861539801789,
,,,,121,0,121,0,,,,,,,,,,,,,,,,,,,,,,1654.8659416,None,,,,,,,,,,,,,,,,,afternoon,51,122,aloud,old,blue,1649.0383930999997,None,1649.0383930999997,None,6,4.051721599999837,1649.0383930999997,None,4.051721599999837,1653.1156096999994,None,1653.6226258999995,None,1653.6226258999995,None,r,1.2275593000003937,1653.6226258999995,None,1.2275593000003937,,,133 Aloud,001,2022_Dec_01_1123,ProdSingRedoBetween,2021.2.3,59.90861539801789,
,,,,122,0,122,0,,,,,,,,,,,,,,,,,,,,,,1660.5215669999998,None,,,,,,,,,,,,,,,,,equipment,140,123,aloud,new,null,1655.3826321999995,None,1655.3826321999995,None,5,3.3638100999996823,1655.3826321999995,None,3.3638100999996823,1658.7820790999995,None,1659.2943988999996,None,1659.2943988999996,None,f,1.2116979000002175,1659.2943988999996,None,1.2116979000002175,,,133 Aloud,001,2022_Dec_01_1123,ProdSingRedoBetween,2021.2.3,59.90861539801789,
,,,,123,0,123,0,,,,,,,,,,,,,,,,,,,,,,1667.3503141,None,,,,,,,,,,,,,,,,,rough,24,124,aloud,old,yellow,1661.0302717999994,None,1661.0302717999994,None,4,4.5239187000006496,1661.0302717999994,None,4.5239187000006496,1665.5824277000002,None,1666.0939159999998,None,1666.0939159999998,None,f,1.228325300000506,1666.0939159999998,None,1.228325300000506,,,133 Aloud,001,2022_Dec_01_1123,ProdSingRedoBetween,2021.2.3,59.90861539801789,
,,,,124,0,124,0,,,,,,,,,,,,,,,,,,,,,,1672.4854010999998,None,,,,,,,,,,,,,,,,,machinery,162,125,aloud,new,null,1667.8712262,None,1667.8712262,None,5,3.194940200000019,1667.8712262,None,3.194940200000019,1671.0925232999998,None,1671.6097209,None,1671.6097209,None,r,0.8564639000005627,1671.6097209,None,0.8564639000005627,,,133 Aloud,001,2022_Dec_01_1123,ProdSingRedoBetween,2021.2.3,59.90861539801789,
,,,,125,0,125,0,,,,,,,,,,,,,,,,,,,,,,1677.4385254999997,None,,,,,,,,,,,,,,,,,dance,65,126,aloud,old,red,1673.0053933999998,None,1673.0053933999998,None,6,2.6847295999996277,1673.0053933999998,None,2.6847295999996277,1675.7210175,None,1676.2244541,None,1676.2244541,None,f,1.185672099999465,1676.2244541,None,1.185672099999465,,,133 Aloud,001,2022_Dec_01_1123,ProdSingRedoBetween,2021.2.3,59.90861539801789,
,,,,126,0,126,0,,,,,,,,,,,,,,,,,,,,,,1685.130924,None,,,,,,,,,,,,,,,,,agreement,177,127,aloud,new,null,1677.9463147999995,None,1677.9463147999995,None,6,6.183887600000162,1677.9463147999995,None,6.183887600000162,1684.1672187999993,None,1684.6832976999995,None,1684.6832976999995,None,r,0.42290869999942515,1684.6832976999995,None,0.42290869999942515,,,133 Aloud,001,2022_Dec_01_1123,ProdSingRedoBetween,2021.2.3,59.90861539801789,
,,,,127,0,127,0,,,,,,,,,,,,,,,,,,,,,,1688.6662848999995,None,,,,,,,,,,,,,,,,,population,77,128,aloud,old,red,1685.6614808999993,None,1685.6614808999993,None,6,1.996658699999898,1685.6614808999993,None,1.996658699999898,1687.6853744999999,None,1688.2059414999994,None,1688.2059414999994,None,r,0.444251400000212,1688.2059414999994,None,0.444251400000212,,,133 Aloud,001,2022_Dec_01_1123,ProdSingRedoBetween,2021.2.3,59.90861539801789,
,,,,128,0,128,0,,,,,,,,,,,,,,,,,,,,,,1692.8705872,None,,,,,,,,,,,,,,,,,level,70,129,aloud,old,red,1689.1705175999996,None,1689.1705175999996,None,4,2.6876963999993677,1689.1705175999996,None,2.6876963999993677,1691.8940978,None,1692.4076974,None,1692.4076974,None,f,0.4343715999993947,1692.4076974,None,0.4343715999993947,,,133 Aloud,001,2022_Dec_01_1123,ProdSingRedoBetween,2021.2.3,59.90861539801789,
,,,,129,0,129,0,,,,,,,,,,,,,,,,,,,,,,1698.3261062000001,None,,,,,,,,,,,,,,,,,thing,172,130,aloud,new,null,1693.3864727,None,1693.3864727,None,6,3.9438380000001416,1693.3864727,None,3.9438380000001416,1697.3639034999997,None,1697.8819739,None,1697.8819739,None,r,0.41615249999995285,1697.8819739,None,0.41615249999995285,,,133 Aloud,001,2022_Dec_01_1123,ProdSingRedoBetween,2021.2.3,59.90861539801789,
,,,,130,0,130,0,,,,,,,,,,,,,,,,,,,,,,1707.0369051999996,None,,,,,,,,,,,,,,,,,bureau,141,131,aloud,new,null,1698.8401046,None,1698.8401046,None,3,4.690105499999845,1698.8401046,None,4.690105499999845,1703.5502697000002,None,1704.0651123999996,None,1704.0651123999996,None,n,2.94492210000044,1704.0651123999996,None,2.94492210000044,,,133 Aloud,001,2022_Dec_01_1123,ProdSingRedoBetween,2021.2.3,59.90861539801789,
,,,,131,0,131,0,,,,,,,,,,,,,,,,,,,,,,1712.4234736999997,None,,,,,,,,,,,,,,,,,husband,167,132,aloud,new,null,1707.5554114999995,None,1707.5554114999995,None,5,3.2307526000004145,1707.5554114999995,None,3.2307526000004145,1710.8063259,None,1711.3065268999999,None,1711.3065268999999,None,r,1.087646400000267,1711.3065268999999,None,1.087646400000267,,,133 Aloud,001,2022_Dec_01_1123,ProdSingRedoBetween,2021.2.3,59.90861539801789,
,,,,132,0,132,0,,,,,,,,,,,,,,,,,,,,,,1718.3827904999998,None,,,,,,,,,,,,,,,,,gesture,11,133,aloud,old,yellow,1712.9378213999998,None,1712.9378213999998,None,4,4.512318199999754,1712.9378213999998,None,4.512318199999754,1717.4796072,None,1717.9875658,None,1717.9875658,None,f,0.36673070000051666,1717.9875658,None,0.36673070000051666,,,133 Aloud,001,2022_Dec_01_1123,ProdSingRedoBetween,2021.2.3,59.90861539801789,
,,,,133,0,133,0,,,,,,,,,,,,,,,,,,,,,,1721.7662211999996,None,,,,,,,,,,,,,,,,,individual,132,134,aloud,new,null,1718.9043142,None,1718.9043142,None,6,2.1138726999997743,1718.9043142,None,2.1138726999997743,1721.0498732999995,None,1721.5573506,None,1721.5573506,None,r,0.18879070000002685,1721.5573506,None,0.18879070000002685,,,133 Aloud,001,2022_Dec_01_1123,ProdSingRedoBetween,2021.2.3,59.90861539801789,
,,,,134,0,134,0,,,,,,,,,,,,,,,,,,,,,,1729.1402024,None,,,,,,,,,,,,,,,,,figure,5,135,aloud,old,yellow,1722.2774527000001,None,1722.2774527000001,None,4,3.4926332999993974,1722.2774527000001,None,3.4926332999993974,1725.7904201000001,None,1726.3041294999994,None,1726.3041294999994,None,f,2.8179581000003964,1726.3041294999994,None,2.8179581000003964,,,133 Aloud,001,2022_Dec_01_1123,ProdSingRedoBetween,2021.2.3,59.90861539801789,
,,,,135,0,135,0,,,,,,,,,,,,,,,,,,,,,,1733.0605619999997,None,,,,,,,,,,,,,,,,,defeat,149,136,aloud,new,null,1729.6514232,None,1729.6514232,None,6,2.3267244999997274,1729.6514232,None,2.3267244999997274,1731.9944780999995,None,1732.5018061,None,1732.5018061,None,r,0.5323555999993914,1732.5018061,None,0.5323555999993914,,,133 Aloud,001,2022_Dec_01_1123,ProdSingRedoBetween,2021.2.3,59.90861539801789,
,,,,136,0,136,0,,,,,,,,,,,,,,,,,,,,,,1742.8219829,None,,,,,,,,,,,,,,,,,crisis,139,137,aloud,new,null,1733.5766102999996,None,1733.5766102999996,None,5,7.865500300000349,1733.5766102999996,None,7.865500300000349,1741.470316,None,1741.9792883,None,1741.9792883,None,r,0.8229587000005267,1741.9792883,None,0.8229587000005267,,,133 Aloud,001,2022_Dec_01_1123,ProdSingRedoBetween,2021.2.3,59.90861539801789,
,,,,137,0,137,0,,,,,,,,,,,,,,,,,,,,,,1746.0438574999998,None,,,,,,,,,,,,,,,,,debate,18,138,aloud,old,yellow,1743.3357587,None,1743.3357587,None,6,1.7544724999997925,1743.3357587,None,1.7544724999997925,1745.1130319999993,None,1745.6240151000002,None,1745.6240151000002,None,r,0.3861909999995987,1745.6240151000002,None,0.3861909999995987,,,133 Aloud,001,2022_Dec_01_1123,ProdSingRedoBetween,2021.2.3,59.90861539801789,
,,,,138,0,138,0,,,,,,,,,,,,,,,,,,,,,,1751.3456786999996,None,,,,,,,,,,,,,,,,,oxygen,129,139,aloud,new,null,1746.5577868,None,1746.5577868,None,5,3.772378199999366,1746.5577868,None,3.772378199999366,1750.3623770999993,None,1750.8651873999997,None,1750.8651873999997,None,f,0.4649958999998489,1750.8651873999997,None,0.4649958999998489,,,133 Aloud,001,2022_Dec_01_1123,ProdSingRedoBetween,2021.2.3,59.90861539801789,
,,,,139,0,139,0,,,,,,,,,,,,,,,,,,,,,,1760.0412114,None,,,,,,,,,,,,,,,,,harmony,174,140,aloud,new,null,1751.8615,None,1751.8615,None,5,4.516625700000077,1751.8615,None,4.516625700000077,1756.4021358,None,1756.9064227999997,None,1756.9064227999997,None,f,3.1038189999999304,1756.9064227999997,None,3.1038189999999304,,,133 Aloud,001,2022_Dec_01_1123,ProdSingRedoBetween,2021.2.3,59.90861539801789,
,,,,140,0,140,0,,,,,,,,,,,,,,,,,,,,,,1764.7593146,None,,,,,,,,,,,,,,,,,escape,100,141,aloud,new,null,1760.5624354000001,None,1760.5624354000001,None,6,3.2318402000000788,1760.5624354000001,None,3.2318402000000788,1763.8353366000001,None,1764.3421278999995,None,1764.3421278999995,None,r,0.39624910000020463,1764.3421278999995,None,0.39624910000020463,,,133 Aloud,001,2022_Dec_01_1123,ProdSingRedoBetween,2021.2.3,59.90861539801789,
,,,,141,0,141,0,,,,,,,,,,,,,,,,,,,,,,1767.6454101999998,None,,,,,,,,,,,,,,,,,colonel,85,142,aloud,old,red,1765.2749654999998,None,1765.2749654999998,None,6,1.287449700000252,1765.2749654999998,None,1.287449700000252,1766.5896994999994,None,1767.0989608,None,1767.0989608,None,r,0.5272005999995599,1767.0989608,None,0.5272005999995599,,,133 Aloud,001,2022_Dec_01_1123,ProdSingRedoBetween,2021.2.3,59.90861539801789,
,,,,142,0,142,0,,,,,,,,,,,,,,,,,,,,,,1770.6483061999998,None,,,,,,,,,,,,,,,,,leader,78,143,aloud,old,red,1768.1531593999998,None,1768.1531593999998,None,6,1.4891324999998687,1768.1531593999998,None,1.4891324999998687,1769.6710472999994,None,1770.1842355999997,None,1770.1842355999997,None,r,0.43399000000044907,1770.1842355999997,None,0.43399000000044907,,,133 Aloud,001,2022_Dec_01_1123,ProdSingRedoBetween,2021.2.3,59.90861539801789,
,,,,143,0,143,0,,,,,,,,,,,,,,,,,,,,,,1777.5049898999996,None,,,,,,,,,,,,,,,,,native,164,144,aloud,new,null,1771.1589132,None,1771.1589132,None,4,4.9953771000000415,1771.1589132,None,4.9953771000000415,1776.1791287999995,None,1776.6957899999998,None,1776.6957899999998,None,f,0.786418999999114,1776.6957899999998,None,0.786418999999114,,,133 Aloud,001,2022_Dec_01_1123,ProdSingRedoBetween,2021.2.3,59.90861539801789,
,,,,144,0,144,0,,,,,,,,,,,,,,,,,,,,,,1782.7311452999993,None,,,,,,,,,,,,,,,,,guest,29,145,aloud,old,blue,1778.0233835999998,None,1778.0233835999998,None,5,3.5308632999995098,1778.0233835999998,None,3.5308632999995098,1781.5855381000001,None,1782.0967394,None,1782.0967394,None,r,0.6095712000005733,1782.0967394,None,0.6095712000005733,,,133 Aloud,001,2022_Dec_01_1123,ProdSingRedoBetween,2021.2.3,59.90861539801789,
,,,,145,0,145,0,,,,,,,,,,,,,,,,,,,,,,1790.7517337999998,None,,,,,,,,,,,,,,,,,goose,52,146,aloud,old,blue,1783.2588135999995,None,1783.2588135999995,None,5,6.391430499999842,1783.2588135999995,None,6.391430499999842,1789.6779348999999,None,1790.1885978999999,None,1790.1885978999999,None,f,0.5416376000002856,1790.1885978999999,None,0.5416376000002856,,,133 Aloud,001,2022_Dec_01_1123,ProdSingRedoBetween,2021.2.3,59.90861539801789,
,,,,146,0,146,0,,,,,,,,,,,,,,,,,,,,,,1797.5585660999996,None,,,,,,,,,,,,,,,,,broad,130,147,aloud,new,null,1791.2628644999995,None,1791.2628644999995,None,4,5.411272899999858,1791.2628644999995,None,5.411272899999858,1796.6927893000002,None,1797.2096444999997,None,1797.2096444999997,None,f,0.32054210000023886,1797.2096444999997,None,0.32054210000023886,,,133 Aloud,001,2022_Dec_01_1123,ProdSingRedoBetween,2021.2.3,59.90861539801789,
,,,,147,0,147,0,,,,,,,,,,,,,,,,,,,,,,1800.5018546000001,None,,,,,,,,,,,,,,,,,military,8,148,aloud,old,yellow,1798.0700644999997,None,1798.0700644999997,None,6,1.4761282999998002,1798.0700644999997,None,1.4761282999998002,1799.5795000999997,None,1800.0989381,None,1800.0989381,None,r,0.3753716999999597,1800.0989381,None,0.3753716999999597,,,133 Aloud,001,2022_Dec_01_1123,ProdSingRedoBetween,2021.2.3,59.90861539801789,
,,,,148,0,148,0,,,,,,,,,,,,,,,,,,,,,,1803.6996887999994,None,,,,,,,,,,,,,,,,,command,107,149,aloud,new,null,1801.0232515999996,None,1801.0232515999996,None,6,1.514923099999578,1801.0232515999996,None,1.514923099999578,1802.5678932,None,1803.0926467,None,1803.0926467,None,r,0.5817016999999396,1803.0926467,None,0.5817016999999396,,,133 Aloud,001,2022_Dec_01_1123,ProdSingRedoBetween,2021.2.3,59.90861539801789,
,,,,149,0,149,0,,,,,,,,,,,,,,,,,,,,,,1808.1877866999994,None,,,,,,,,,,,,,,,,,fight,82,150,aloud,old,red,1804.2232066999995,None,1804.2232066999995,None,5,2.986924800000452,1804.2232066999995,None,2.986924800000452,1807.2362185000002,None,1807.7441674000002,None,1807.7441674000002,None,r,0.418038499999966,1807.7441674000002,None,0.418038499999966,,,133 Aloud,001,2022_Dec_01_1123,ProdSingRedoBetween,2021.2.3,59.90861539801789,
,,,,150,0,150,0,,,,,,,,,,,,,,,,,,,,,,1813.4745364999999,None,,,,,,,,,,,,,,,,,color,91,151,aloud,new,null,1808.7163556999994,None,1808.7163556999994,None,6,3.9099907999998322,1808.7163556999994,None,3.9099907999998322,1812.6677314999997,None,1813.1776021999995,None,1813.1776021999995,None,r,0.272581999999602,1813.1776021999995,None,0.272581999999602,,,133 Aloud,001,2022_Dec_01_1123,ProdSingRedoBetween,2021.2.3,59.90861539801789,
,,,,151,0,151,0,,,,,,,,,,,,,,,,,,,,,,1816.7956821999996,None,,,,,,,,,,,,,,,,,month,68,152,aloud,old,red,1813.9819467999996,None,1813.9819467999996,None,6,1.668435700000373,1813.9819467999996,None,1.668435700000373,1815.6814576999996,None,1816.2037352999996,None,1816.2037352999996,None,r,0.5664680999998382,1816.2037352999996,None,0.5664680999998382,,,133 Aloud,001,2022_Dec_01_1123,ProdSingRedoBetween,2021.2.3,59.90861539801789,
,,,,152,0,152,0,,,,,,,,,,,,,,,,,,,,,,1821.4157141999995,None,,,,,,,,,,,,,,,,,clean,20,153,aloud,old,yellow,1817.3089661999993,None,1817.3089661999993,None,4,2.797192300000461,1817.3089661999993,None,2.797192300000461,1820.1367721999995,None,1820.6511555999996,None,1820.6511555999996,None,f,0.7350489999998899,1820.6511555999996,None,0.7350489999998899,,,133 Aloud,001,2022_Dec_01_1123,ProdSingRedoBetween,2021.2.3,59.90861539801789,
,,,,153,0,153,0,,,,,,,,,,,,,,,,,,,,,,1824.4855546,None,,,,,,,,,,,,,,,,,union,34,154,aloud,old,blue,1821.9250427999996,None,1821.9250427999996,None,6,1.597280199999659,1821.9250427999996,None,1.597280199999659,1823.5553124999997,None,1824.0685680999995,None,1824.0685680999995,None,r,0.3976253999999244,1824.0685680999995,None,0.3976253999999244,,,133 Aloud,001,2022_Dec_01_1123,ProdSingRedoBetween,2021.2.3,59.90861539801789,
,,,,154,0,154,0,,,,,,,,,,,,,,,,,,,,,,1831.9263802999994,None,,,,,,,,,,,,,,,,,sound,26,155,aloud,old,yellow,1825.0032130999998,None,1825.0032130999998,None,5,5.927074899999752,1825.0032130999998,None,5.927074899999752,1830.9654185,None,1831.4759453999995,None,1831.4759453999995,None,f,0.4222639999998137,1831.4759453999995,None,0.4222639999998137,,,133 Aloud,001,2022_Dec_01_1123,ProdSingRedoBetween,2021.2.3,59.90861539801789,
,,,,155,0,155,0,,,,,,,,,,,,,,,,,,,,,,1837.8154746999999,None,,,,,,,,,,,,,,,,,management,33,156,aloud,old,blue,1832.4372285999998,None,1832.4372285999998,None,4,3.8290700000006836,1832.4372285999998,None,3.8290700000006836,1836.2997133,None,1836.8145705999996,None,1836.8145705999996,None,f,0.9796340000002601,1836.8145705999996,None,0.9796340000002601,,,133 Aloud,001,2022_Dec_01_1123,ProdSingRedoBetween,2021.2.3,59.90861539801789,
,,,,156,0,156,0,,,,,,,,,,,,,,,,,,,,,,1841.3691742,None,,,,,,,,,,,,,,,,,drove,147,157,aloud,new,null,1838.3259259999995,None,1838.3259259999995,None,5,1.9964114000003974,1838.3259259999995,None,1.9964114000003974,1840.3547752999993,None,1840.8746405000002,None,1840.8746405000002,None,r,0.4717075999997178,1840.8746405000002,None,0.4717075999997178,,,133 Aloud,001,2022_Dec_01_1123,ProdSingRedoBetween,2021.2.3,59.90861539801789,
,,,,157,0,157,0,,,,,,,,,,,,,,,,,,,,,,1844.9056371999995,None,,,,,,,,,,,,,,,,,member,109,158,aloud,new,null,1841.8859163999996,None,1841.8859163999996,None,6,2.0682925999999497,1841.8859163999996,None,2.0682925999999497,1843.9816752999996,None,1844.4902513999996,None,1844.4902513999996,None,r,0.3920399000007819,1844.4902513999996,None,0.3920399000007819,,,133 Aloud,001,2022_Dec_01_1123,ProdSingRedoBetween,2021.2.3,59.90861539801789,
,,,,158,0,158,0,,,,,,,,,,,,,,,,,,,,,,1848.4943015,None,,,,,,,,,,,,,,,,,budget,69,159,aloud,old,red,1845.4156229999999,None,1845.4156229999999,None,4,2.122662499999933,1845.4156229999999,None,2.122662499999933,1847.5672181999998,None,1848.0773926000002,None,1848.0773926000002,None,f,0.38877880000018195,1848.0773926000002,None,0.38877880000018195,,,133 Aloud,001,2022_Dec_01_1123,ProdSingRedoBetween,2021.2.3,59.90861539801789,
,,,,159,0,159,0,,,,,,,,,,,,,,,,,,,,,,1851.9295655999995,None,,,,,,,,,,,,,,,,,session,84,160,aloud,old,red,1849.0065675999995,None,1849.0065675999995,None,6,1.9557091999995464,1849.0065675999995,None,1.9557091999995464,1850.9804999999997,None,1851.5010948,None,1851.5010948,None,r,0.4051051999995252,1851.5010948,None,0.4051051999995252,,,133 Aloud,001,2022_Dec_01_1123,ProdSingRedoBetween,2021.2.3,59.90861539801789,
,,,,160,0,160,0,,,,,,,,,,,,,,,,,,,,,,1857.0205042999996,None,,,,,,,,,,,,,,,,,judge,142,161,aloud,new,null,1852.446922,None,1852.446922,None,4,3.6351651000004495,1852.446922,None,3.6351651000004495,1856.1060957999998,None,1856.6245341999993,None,1856.6245341999993,None,f,0.37778270000035263,1856.6245341999993,None,0.37778270000035263,,,133 Aloud,001,2022_Dec_01_1123,ProdSingRedoBetween,2021.2.3,59.90861539801789,
,,,,161,0,161,0,,,,,,,,,,,,,,,,,,,,,,1862.6592666999995,None,,,,,,,,,,,,,,,,,welcome,103,162,aloud,new,null,1857.5397286999996,None,1857.5397286999996,None,4,3.3026221999998597,1857.5397286999996,None,3.3026221999998597,1860.8834030999997,None,1861.3900886000001,None,1861.3900886000001,None,f,1.236172500000066,1861.3900886000001,None,1.236172500000066,,,133 Aloud,001,2022_Dec_01_1123,ProdSingRedoBetween,2021.2.3,59.90861539801789,
,,,,162,0,162,0,,,,,,,,,,,,,,,,,,,,,,1866.2438907999995,None,,,,,,,,,,,,,,,,,society,111,163,aloud,new,null,1863.1802919000002,None,1863.1802919000002,None,6,2.1419426000002204,1863.1802919000002,None,2.1419426000002204,1865.3532058,None,1865.8642260999995,None,1865.8642260999995,None,r,0.36193380000077013,1865.8642260999995,None,0.36193380000077013,,,133 Aloud,001,2022_Dec_01_1123,ProdSingRedoBetween,2021.2.3,59.90861539801789,
,,,,163,0,163,0,,,,,,,,,,,,,,,,,,,,,,1868.9499959999994,None,,,,,,,,,,,,,,,,,incident,41,164,aloud,old,blue,1866.7518160999998,None,1866.7518160999998,None,6,1.2823453999999401,1866.7518160999998,None,1.2823453999999401,1868.0641200999999,None,1868.5833163999996,None,1868.5833163999996,None,r,0.34710919999997714,1868.5833163999996,None,0.34710919999997714,,,133 Aloud,001,2022_Dec_01_1123,ProdSingRedoBetween,2021.2.3,59.90861539801789,
,,,,164,0,164,0,,,,,,,,,,,,,,,,,,,,,,1873.4342442999996,None,,,,,,,,,,,,,,,,,title,22,165,aloud,old,yellow,1869.4698706999998,None,1869.4698706999998,None,5,2.9723369000003004,1869.4698706999998,None,2.9723369000003004,1872.4665015,None,1872.9718852999995,None,1872.9718852999995,None,r,0.4384465999992244,1872.9718852999995,None,0.4384465999992244,,,133 Aloud,001,2022_Dec_01_1123,ProdSingRedoBetween,2021.2.3,59.90861539801789,
,,,,165,0,165,0,,,,,,,,,,,,,,,,,,,,,,1876.3372395999995,None,,,,,,,,,,,,,,,,,drama,61,166,aloud,old,red,1873.9394701,None,1873.9394701,None,6,1.4148815999997169,1873.9394701,None,1.4148815999997169,1875.3785718,None,1875.8894008999996,None,1875.8894008999996,None,r,0.4168506999994861,1875.8894008999996,None,0.4168506999994861,,,133 Aloud,001,2022_Dec_01_1123,ProdSingRedoBetween,2021.2.3,59.90861539801789,
,,,,166,0,166,0,,,,,,,,,,,,,,,,,,,,,,1883.8956841999998,None,,,,,,,,,,,,,,,,,school,120,167,aloud,new,null,1876.8418747999995,None,1876.8418747999995,None,5,4.1366964999997435,1876.8418747999995,None,4.1366964999997435,1881.0183983999996,None,1881.5258379999996,None,1881.5258379999996,None,r,2.340461600000708,1881.5258379999996,None,2.340461600000708,,,133 Aloud,001,2022_Dec_01_1123,ProdSingRedoBetween,2021.2.3,59.90861539801789,
,,,,167,0,167,0,,,,,,,,,,,,,,,,,,,,,,1889.6337806000001,None,,,,,,,,,,,,,,,,,nature,46,168,aloud,old,blue,1884.4047119999996,None,1884.4047119999996,None,5,4.277464800000416,1884.4047119999996,None,4.277464800000416,1888.7014449999997,None,1889.2235919999994,None,1889.2235919999994,None,r,0.38673629999993864,1889.2235919999994,None,0.38673629999993864,,,133 Aloud,001,2022_Dec_01_1123,ProdSingRedoBetween,2021.2.3,59.90861539801789,
,,,,168,0,168,0,,,,,,,,,,,,,,,,,,,,,,1901.0120154999995,None,,,,,,,,,,,,,,,,,shear,126,169,aloud,new,null,1890.1503309,None,1890.1503309,None,5,3.100002399999539,1890.1503309,None,3.100002399999539,1893.2820637999994,None,1893.7901870999995,None,1893.7901870999995,None,f,7.196054800000638,1893.7901870999995,None,7.196054800000638,,,133 Aloud,001,2022_Dec_01_1123,ProdSingRedoBetween,2021.2.3,59.90861539801789,
,,,,169,0,169,0,,,,,,,,,,,,,,,,,,,,,,1904.7656909999996,None,,,,,,,,,,,,,,,,,little,35,170,aloud,old,blue,1901.5224351999996,None,1901.5224351999996,None,6,2.279980900000737,1901.5224351999996,None,2.279980900000737,1903.8403669,None,1904.3487513,None,1904.3487513,None,r,0.3975673999993887,1904.3487513,None,0.3975673999993887,,,133 Aloud,001,2022_Dec_01_1123,ProdSingRedoBetween,2021.2.3,59.90861539801789,
,,,,170,0,170,0,,,,,,,,,,,,,,,,,,,,,,1913.0090825999996,None,,,,,,,,,,,,,,,,,edition,121,171,aloud,new,null,1905.2821666,None,1905.2821666,None,3,5.12030279999999,1905.2821666,None,5.12030279999999,1910.4295483999995,None,1910.9387305999999,None,1910.9387305999999,None,n,2.047497300000032,1910.9387305999999,None,2.047497300000032,,,133 Aloud,001,2022_Dec_01_1123,ProdSingRedoBetween,2021.2.3,59.90861539801789,
,,,,171,0,171,0,,,,,,,,,,,,,,,,,,,,,,1920.7329338,None,,,,,,,,,,,,,,,,,bright,179,172,aloud,new,null,1913.5347260999997,None,1913.5347260999997,None,5,6.251546999999846,1913.5347260999997,None,6.251546999999846,1919.8184893999996,None,1920.3315083999996,None,1920.3315083999996,None,r,0.382785500000864,1920.3315083999996,None,0.382785500000864,,,133 Aloud,001,2022_Dec_01_1123,ProdSingRedoBetween,2021.2.3,59.90861539801789,
,,,,172,0,172,0,,,,,,,,,,,,,,,,,,,,,,1924.503697,None,,,,,,,,,,,,,,,,,accident,159,173,aloud,new,null,1921.2382859999998,None,1921.2382859999998,None,6,2.3559503999995286,1921.2382859999998,None,2.3559503999995286,1923.6204542999994,None,1924.1410275999997,None,1924.1410275999997,None,r,0.3333983000002263,1924.1410275999997,None,0.3333983000002263,,,133 Aloud,001,2022_Dec_01_1123,ProdSingRedoBetween,2021.2.3,59.90861539801789,
,,,,173,0,173,0,,,,,,,,,,,,,,,,,,,,,,1928.8579054000002,None,,,,,,,,,,,,,,,,,quantity,123,174,aloud,new,null,1925.0223785999997,None,1925.0223785999997,None,4,2.515743800000564,1925.0223785999997,None,2.515743800000564,1927.5594277,None,1928.0804269,None,1928.0804269,None,f,0.7458443999994415,1928.0804269,None,0.7458443999994415,,,133 Aloud,001,2022_Dec_01_1123,ProdSingRedoBetween,2021.2.3,59.90861539801789,
,,,,174,0,174,0,,,,,,,,,,,,,,,,,,,,,,1935.1632916999997,None,,,,,,,,,,,,,,,,,break,88,175,aloud,old,red,1929.3635924999999,None,1929.3635924999999,None,5,3.567033100000117,1929.3635924999999,None,3.567033100000117,1932.9716413999995,None,1933.4778215999995,None,1933.4778215999995,None,f,1.6685311999999612,1933.4778215999995,None,1.6685311999999612,,,133 Aloud,001,2022_Dec_01_1123,ProdSingRedoBetween,2021.2.3,59.90861539801789,
,,,,175,0,175,0,,,,,,,,,,,,,,,,,,,,,,1941.2369906999993,None,,,,,,,,,,,,,,,,,material,110,176,aloud,new,null,1935.6730773999998,None,1935.6730773999998,None,4,4.585100499999498,1935.6730773999998,None,4.585100499999498,1940.2864726999996,None,1940.8060850000002,None,1940.8060850000002,None,f,0.40430770000057237,1940.8060850000002,None,0.40430770000057237,,,133 Aloud,001,2022_Dec_01_1123,ProdSingRedoBetween,2021.2.3,59.90861539801789,
,,,,176,0,176,0,,,,,,,,,,,,,,,,,,,,,,1947.0747442000002,None,,,,,,,,,,,,,,,,,under,125,177,aloud,new,null,1941.7389053999996,None,1941.7389053999996,None,5,3.927343400000609,1941.7389053999996,None,3.927343400000609,1945.6896757999993,None,1946.1979833999994,None,1946.1979833999994,None,r,0.8522516000002724,1946.1979833999994,None,0.8522516000002724,,,133 Aloud,001,2022_Dec_01_1123,ProdSingRedoBetween,2021.2.3,59.90861539801789,
,,,,177,0,177,0,,,,,,,,,,,,,,,,,,,,,,1950.6282309999997,None,,,,,,,,,,,,,,,,,close,166,178,aloud,new,null,1947.5855193999996,None,1947.5855193999996,None,6,1.76085730000068,1947.5855193999996,None,1.76085730000068,1949.3771939999997,None,1949.8826565999998,None,1949.8826565999998,None,r,0.7195376999998189,1949.8826565999998,None,0.7195376999998189,,,133 Aloud,001,2022_Dec_01_1123,ProdSingRedoBetween,2021.2.3,59.90861539801789,
,,,,178,0,178,0,,,,,,,,,,,,,,,,,,,,,,1960.0042229,None,,,,,,,,,,,,,,,,,childhood,163,179,aloud,new,null,1951.140848,None,1951.140848,None,5,3.74144939999951,1951.140848,None,3.74144939999951,1954.9060302999997,None,1955.4164541,None,1955.4164541,None,r,4.569737899999382,1955.4164541,None,4.569737899999382,,,133 Aloud,001,2022_Dec_01_1123,ProdSingRedoBetween,2021.2.3,59.90861539801789,
,,,,179,0,179,0,,,,,,,,,,,,,,,,,,,,,,1965.4099455999994,None,,,,,,,,,,,,,,,,,mechanical,173,180,aloud,new,null,1960.5132815999996,None,1960.5132815999996,None,3,3.233041000000412,1960.5132815999996,None,3.233041000000412,1963.7786362999996,None,1964.2943988999996,None,1964.2943988999996,None,f,1.0997915999996621,1964.2943988999996,None,1.0997915999996621,,,133 Aloud,001,2022_Dec_01_1123,ProdSingRedoBetween,2021.2.3,59.90861539801789,
,,,,,,,,,,,,,,,,,,,,,,,,,,,,,,,,,,,,,,,,,,,,,,,,,,,,,,,,,,,,,,,,,,,,,,,,,1965.9160537999996,None,,,,,,,
