StudyLoop.thisRepN,StudyLoop.thisTrialN,StudyLoop.thisN,StudyLoop.thisIndex,TestLoop.thisRepN,TestLoop.thisTrialN,TestLoop.thisN,TestLoop.thisIndex,textCondition.started,textCondition.stopped,keyCondition.keys,keyCondition.rt,keyCondition.started,keyCondition.stopped,Condition,textWelcome.started,textWelcome.stopped,keyWelcome.keys,keyWelcome.rt,keyWelcome.started,keyWelcome.stopped,textAloud.started,textAloud.stopped,textSilent.started,textSilent.stopped,textSing.started,textSing.stopped,conditional_text.started,conditional_text.stopped,textBlank500.started,textBlank500.stopped,study_word,study_num,study_order,study_type,word_color,textStudy.started,textStudy.stopped,keyStudy.keys,keyStudy.started,keyStudy.stopped,textTestInstructions.started,textTestInstructions.stopped,key_resp_3.keys,key_resp_3.rt,key_resp_3.started,key_resp_3.stopped,test_word,test_num,test_order,test_condition,old_new_test,test_word_original_color,textConf.started,textConf.stopped,textConfScale.started,textConfScale.stopped,keyConf.keys,keyConf.rt,keyConf.started,keyConf.stopped,confidence response time,textTestBlank.started,textTestBlank.stopped,textRKN.started,textRKN.stopped,textRKNScale.started,textRKNScale.stopped,keyRKN.keys,keyRKN.rt,keyRKN.started,keyRKN.stopped,rkn response time,textEnd.started,textEnd.stopped,participant,session,date,expName,psychopyVersion,frameRate,
,,,,,,,,16.30786480000006,None,c,1.8330518000002485,16.30786480000006,None,,,,,,,,,,,,,,,,,,,,,,,,,,,,,,,,,,,,,,,,,,,,,,,,,,,,,,,,,,,,,,114 sing,001,2022_Dec_01_1200,ProdSingRedoBetween,2021.2.3,59.94143721585849,
,,,,,,,,,,,,,,SingTest,18.19091380000009,None,space,272.3654402000002,18.19091380000009,None,,,,,,,,,,,,,,,,,,,,,,,,,,,,,,,,,,,,,,,,,,,,,,,,,,,,,,,114 sing,001,2022_Dec_01_1200,ProdSingRedoBetween,2021.2.3,59.94143721585849,
0,0,0,0,,,,,,,,,,,,,,,,,,18.19091380000009,None,18.19091380000009,None,18.19091380000009,None,18.19091380000009,None,293.0945502000004,None,minute,4,1,sing,yellow,291.0804947000006,None,None,291.0804947000006,None,,,,,,,,,,,,,,,,,,,,,,,,,,,,,,,,,,,114 sing,001,2022_Dec_01_1200,ProdSingRedoBetween,2021.2.3,59.94143721585849,
1,0,1,0,,,,,,,,,,,,,,,,,,,,,,,,,,295.59470990000045,None,stand,37,2,sing,blue,293.5933706000005,None,None,293.5933706000005,None,,,,,,,,,,,,,,,,,,,,,,,,,,,,,,,,,,,114 sing,001,2022_Dec_01_1200,ProdSingRedoBetween,2021.2.3,59.94143721585849,
2,0,2,0,,,,,,,,,,,,,,,,,,,,,,,,,,298.0972470000006,None,throw,71,3,sing,red,296.0972511,None,None,296.0972511,None,,,,,,,,,,,,,,,,,,,,,,,,,,,,,,,,,,,114 sing,001,2022_Dec_01_1200,ProdSingRedoBetween,2021.2.3,59.94143721585849,
3,0,3,0,,,,,,,,,,,,,,,,,,,,,,,,,,300.61637190000056,None,scale,14,4,sing,yellow,298.6098455000001,None,None,298.6098455000001,None,,,,,,,,,,,,,,,,,,,,,,,,,,,,,,,,,,,114 sing,001,2022_Dec_01_1200,ProdSingRedoBetween,2021.2.3,59.94143721585849,
4,0,4,0,,,,,,,,,,,,,,,,,,,,,,,,,,303.13516720000007,None,suggestion,60,5,sing,red,301.11989820000053,None,None,301.11989820000053,None,,,,,,,,,,,,,,,,,,,,,,,,,,,,,,,,,,,114 sing,001,2022_Dec_01_1200,ProdSingRedoBetween,2021.2.3,59.94143721585849,
5,0,5,0,,,,,,,,,,,,,,,,,,,,,,,,,,305.6544463,None,vision,81,6,sing,red,303.63906120000047,None,None,303.63906120000047,None,,,,,,,,,,,,,,,,,,,,,,,,,,,,,,,,,,,114 sing,001,2022_Dec_01_1200,ProdSingRedoBetween,2021.2.3,59.94143721585849,
6,0,6,0,,,,,,,,,,,,,,,,,,,,,,,,,,308.15701700000045,None,enemy,18,7,sing,yellow,306.15578410000035,None,None,306.15578410000035,None,,,,,,,,,,,,,,,,,,,,,,,,,,,,,,,,,,,114 sing,001,2022_Dec_01_1200,ProdSingRedoBetween,2021.2.3,59.94143721585849,
7,0,7,0,,,,,,,,,,,,,,,,,,,,,,,,,,310.6595500000003,None,interior,87,8,sing,red,308.65856090000034,None,None,308.65856090000034,None,,,,,,,,,,,,,,,,,,,,,,,,,,,,,,,,,,,114 sing,001,2022_Dec_01_1200,ProdSingRedoBetween,2021.2.3,59.94143721585849,
8,0,8,0,,,,,,,,,,,,,,,,,,,,,,,,,,313.1789213000002,None,impact,29,9,sing,blue,311.17216290000033,None,None,311.17216290000033,None,,,,,,,,,,,,,,,,,,,,,,,,,,,,,,,,,,,114 sing,001,2022_Dec_01_1200,ProdSingRedoBetween,2021.2.3,59.94143721585849,
9,0,9,0,,,,,,,,,,,,,,,,,,,,,,,,,,315.6983239000001,None,budget,86,10,sing,red,313.68395990000045,None,None,313.68395990000045,None,,,,,,,,,,,,,,,,,,,,,,,,,,,,,,,,,,,114 sing,001,2022_Dec_01_1200,ProdSingRedoBetween,2021.2.3,59.94143721585849,
10,0,10,0,,,,,,,,,,,,,,,,,,,,,,,,,,318.20021780000025,None,surface,80,11,sing,red,316.1987048000001,None,None,316.1987048000001,None,,,,,,,,,,,,,,,,,,,,,,,,,,,,,,,,,,,114 sing,001,2022_Dec_01_1200,ProdSingRedoBetween,2021.2.3,59.94143721585849,
11,0,11,0,,,,,,,,,,,,,,,,,,,,,,,,,,320.7029856999998,None,signal,48,12,sing,blue,318.7035345000004,None,None,318.7035345000004,None,,,,,,,,,,,,,,,,,,,,,,,,,,,,,,,,,,,114 sing,001,2022_Dec_01_1200,ProdSingRedoBetween,2021.2.3,59.94143721585849,
12,0,12,0,,,,,,,,,,,,,,,,,,,,,,,,,,323.2054274000002,None,escape,78,13,sing,red,321.2061824000002,None,None,321.2061824000002,None,,,,,,,,,,,,,,,,,,,,,,,,,,,,,,,,,,,114 sing,001,2022_Dec_01_1200,ProdSingRedoBetween,2021.2.3,59.94143721585849,
13,0,13,0,,,,,,,,,,,,,,,,,,,,,,,,,,325.72450350000054,None,portion,89,14,sing,red,323.7202935000005,None,None,323.7202935000005,None,,,,,,,,,,,,,,,,,,,,,,,,,,,,,,,,,,,114 sing,001,2022_Dec_01_1200,ProdSingRedoBetween,2021.2.3,59.94143721585849,
14,0,14,0,,,,,,,,,,,,,,,,,,,,,,,,,,328.22732989999986,None,series,53,15,sing,blue,326.22577420000016,None,None,326.22577420000016,None,,,,,,,,,,,,,,,,,,,,,,,,,,,,,,,,,,,114 sing,001,2022_Dec_01_1200,ProdSingRedoBetween,2021.2.3,59.94143721585849,
15,0,15,0,,,,,,,,,,,,,,,,,,,,,,,,,,330.7296928000005,None,carry,46,16,sing,blue,328.7293540999999,None,None,328.7293540999999,None,,,,,,,,,,,,,,,,,,,,,,,,,,,,,,,,,,,114 sing,001,2022_Dec_01_1200,ProdSingRedoBetween,2021.2.3,59.94143721585849,
16,0,16,0,,,,,,,,,,,,,,,,,,,,,,,,,,333.2489940000005,None,suspect,45,17,sing,blue,331.24288330000036,None,None,331.24288330000036,None,,,,,,,,,,,,,,,,,,,,,,,,,,,,,,,,,,,114 sing,001,2022_Dec_01_1200,ProdSingRedoBetween,2021.2.3,59.94143721585849,
17,0,17,0,,,,,,,,,,,,,,,,,,,,,,,,,,335.7509799999998,None,smooth,39,18,sing,blue,333.7500531000005,None,None,333.7500531000005,None,,,,,,,,,,,,,,,,,,,,,,,,,,,,,,,,,,,114 sing,001,2022_Dec_01_1200,ProdSingRedoBetween,2021.2.3,59.94143721585849,
18,0,18,0,,,,,,,,,,,,,,,,,,,,,,,,,,338.25345130000005,None,ground,49,19,sing,blue,336.25244590000057,None,None,336.25244590000057,None,,,,,,,,,,,,,,,,,,,,,,,,,,,,,,,,,,,114 sing,001,2022_Dec_01_1200,ProdSingRedoBetween,2021.2.3,59.94143721585849,
19,0,19,0,,,,,,,,,,,,,,,,,,,,,,,,,,340.7562133000001,None,guest,82,20,sing,red,338.7557225999999,None,None,338.7557225999999,None,,,,,,,,,,,,,,,,,,,,,,,,,,,,,,,,,,,114 sing,001,2022_Dec_01_1200,ProdSingRedoBetween,2021.2.3,59.94143721585849,
20,0,20,0,,,,,,,,,,,,,,,,,,,,,,,,,,343.2590975000003,None,period,21,21,sing,yellow,341.2595246000001,None,None,341.2595246000001,None,,,,,,,,,,,,,,,,,,,,,,,,,,,,,,,,,,,114 sing,001,2022_Dec_01_1200,ProdSingRedoBetween,2021.2.3,59.94143721585849,
21,0,21,0,,,,,,,,,,,,,,,,,,,,,,,,,,345.7614973,None,height,26,22,sing,yellow,343.7620837000004,None,None,343.7620837000004,None,,,,,,,,,,,,,,,,,,,,,,,,,,,,,,,,,,,114 sing,001,2022_Dec_01_1200,ProdSingRedoBetween,2021.2.3,59.94143721585849,
22,0,22,0,,,,,,,,,,,,,,,,,,,,,,,,,,348.26368530000036,None,agency,24,23,sing,yellow,346.26340250000067,None,None,346.26340250000067,None,,,,,,,,,,,,,,,,,,,,,,,,,,,,,,,,,,,114 sing,001,2022_Dec_01_1200,ProdSingRedoBetween,2021.2.3,59.94143721585849,
23,0,23,0,,,,,,,,,,,,,,,,,,,,,,,,,,350.7665186000004,None,trail,73,24,sing,red,348.76556450000044,None,None,348.76556450000044,None,,,,,,,,,,,,,,,,,,,,,,,,,,,,,,,,,,,114 sing,001,2022_Dec_01_1200,ProdSingRedoBetween,2021.2.3,59.94143721585849,
24,0,24,0,,,,,,,,,,,,,,,,,,,,,,,,,,353.26911329999984,None,light,43,25,sing,blue,351.26757869999983,None,None,351.26757869999983,None,,,,,,,,,,,,,,,,,,,,,,,,,,,,,,,,,,,114 sing,001,2022_Dec_01_1200,ProdSingRedoBetween,2021.2.3,59.94143721585849,
25,0,25,0,,,,,,,,,,,,,,,,,,,,,,,,,,355.7717796000006,None,grade,47,26,sing,blue,353.77130639999996,None,None,353.77130639999996,None,,,,,,,,,,,,,,,,,,,,,,,,,,,,,,,,,,,114 sing,001,2022_Dec_01_1200,ProdSingRedoBetween,2021.2.3,59.94143721585849,
26,0,26,0,,,,,,,,,,,,,,,,,,,,,,,,,,358.29051640000034,None,crowd,1,27,sing,yellow,356.2825619000005,None,None,356.2825619000005,None,,,,,,,,,,,,,,,,,,,,,,,,,,,,,,,,,,,114 sing,001,2022_Dec_01_1200,ProdSingRedoBetween,2021.2.3,59.94143721585849,
27,0,27,0,,,,,,,,,,,,,,,,,,,,,,,,,,360.80984069999977,None,judge,84,28,sing,red,358.7944875000003,None,None,358.7944875000003,None,,,,,,,,,,,,,,,,,,,,,,,,,,,,,,,,,,,114 sing,001,2022_Dec_01_1200,ProdSingRedoBetween,2021.2.3,59.94143721585849,
28,0,28,0,,,,,,,,,,,,,,,,,,,,,,,,,,363.31211110000004,None,count,85,29,sing,red,361.31194400000004,None,None,361.31194400000004,None,,,,,,,,,,,,,,,,,,,,,,,,,,,,,,,,,,,114 sing,001,2022_Dec_01_1200,ProdSingRedoBetween,2021.2.3,59.94143721585849,
29,0,29,0,,,,,,,,,,,,,,,,,,,,,,,,,,365.8145752999999,None,pressure,59,30,sing,yellow,363.81491319999986,None,None,363.81491319999986,None,,,,,,,,,,,,,,,,,,,,,,,,,,,,,,,,,,,114 sing,001,2022_Dec_01_1200,ProdSingRedoBetween,2021.2.3,59.94143721585849,
30,0,30,0,,,,,,,,,,,,,,,,,,,,,,,,,,368.3172099000003,None,design,67,31,sing,red,366.31754490000003,None,None,366.31754490000003,None,,,,,,,,,,,,,,,,,,,,,,,,,,,,,,,,,,,114 sing,001,2022_Dec_01_1200,ProdSingRedoBetween,2021.2.3,59.94143721585849,
31,0,31,0,,,,,,,,,,,,,,,,,,,,,,,,,,370.81947630000013,None,trial,7,32,sing,yellow,368.8192889000002,None,None,368.8192889000002,None,,,,,,,,,,,,,,,,,,,,,,,,,,,,,,,,,,,114 sing,001,2022_Dec_01_1200,ProdSingRedoBetween,2021.2.3,59.94143721585849,
32,0,32,0,,,,,,,,,,,,,,,,,,,,,,,,,,373.3221687000005,None,tragedy,34,33,sing,blue,371.3224942000006,None,None,371.3224942000006,None,,,,,,,,,,,,,,,,,,,,,,,,,,,,,,,,,,,114 sing,001,2022_Dec_01_1200,ProdSingRedoBetween,2021.2.3,59.94143721585849,
33,0,33,0,,,,,,,,,,,,,,,,,,,,,,,,,,375.8246718999999,None,marriage,36,34,sing,blue,373.8243640999999,None,None,373.8243640999999,None,,,,,,,,,,,,,,,,,,,,,,,,,,,,,,,,,,,114 sing,001,2022_Dec_01_1200,ProdSingRedoBetween,2021.2.3,59.94143721585849,
34,0,34,0,,,,,,,,,,,,,,,,,,,,,,,,,,378.32740319999994,None,comfort,42,35,sing,blue,376.32816360000015,None,None,376.32816360000015,None,,,,,,,,,,,,,,,,,,,,,,,,,,,,,,,,,,,114 sing,001,2022_Dec_01_1200,ProdSingRedoBetween,2021.2.3,59.94143721585849,
35,0,35,0,,,,,,,,,,,,,,,,,,,,,,,,,,380.8474061000006,None,novel,13,36,sing,yellow,378.8314949000005,None,None,378.8314949000005,None,,,,,,,,,,,,,,,,,,,,,,,,,,,,,,,,,,,114 sing,001,2022_Dec_01_1200,ProdSingRedoBetween,2021.2.3,59.94143721585849,
36,0,36,0,,,,,,,,,,,,,,,,,,,,,,,,,,383.34872950000045,None,debate,3,37,sing,yellow,381.3468426999998,None,None,381.3468426999998,None,,,,,,,,,,,,,,,,,,,,,,,,,,,,,,,,,,,114 sing,001,2022_Dec_01_1200,ProdSingRedoBetween,2021.2.3,59.94143721585849,
37,0,37,0,,,,,,,,,,,,,,,,,,,,,,,,,,385.85119980000036,None,reach,6,38,sing,yellow,383.8516526000003,None,None,383.8516526000003,None,,,,,,,,,,,,,,,,,,,,,,,,,,,,,,,,,,,114 sing,001,2022_Dec_01_1200,ProdSingRedoBetween,2021.2.3,59.94143721585849,
38,0,38,0,,,,,,,,,,,,,,,,,,,,,,,,,,388.3537348,None,music,74,39,sing,red,386.35425380000015,None,None,386.35425380000015,None,,,,,,,,,,,,,,,,,,,,,,,,,,,,,,,,,,,114 sing,001,2022_Dec_01_1200,ProdSingRedoBetween,2021.2.3,59.94143721585849,
39,0,39,0,,,,,,,,,,,,,,,,,,,,,,,,,,390.8563986999998,None,present,61,40,sing,red,388.85654690000047,None,None,388.85654690000047,None,,,,,,,,,,,,,,,,,,,,,,,,,,,,,,,,,,,114 sing,001,2022_Dec_01_1200,ProdSingRedoBetween,2021.2.3,59.94143721585849,
40,0,40,0,,,,,,,,,,,,,,,,,,,,,,,,,,393.3590095999998,None,military,17,41,sing,yellow,391.3593676999999,None,None,391.3593676999999,None,,,,,,,,,,,,,,,,,,,,,,,,,,,,,,,,,,,114 sing,001,2022_Dec_01_1200,ProdSingRedoBetween,2021.2.3,59.94143721585849,
41,0,41,0,,,,,,,,,,,,,,,,,,,,,,,,,,395.87818120000065,None,estate,0,42,sing,yellow,393.86282070000016,None,None,393.86282070000016,None,,,,,,,,,,,,,,,,,,,,,,,,,,,,,,,,,,,114 sing,001,2022_Dec_01_1200,ProdSingRedoBetween,2021.2.3,59.94143721585849,
42,0,42,0,,,,,,,,,,,,,,,,,,,,,,,,,,398.38055650000024,None,income,76,43,sing,red,396.3805798000003,None,None,396.3805798000003,None,,,,,,,,,,,,,,,,,,,,,,,,,,,,,,,,,,,114 sing,001,2022_Dec_01_1200,ProdSingRedoBetween,2021.2.3,59.94143721585849,
43,0,43,0,,,,,,,,,,,,,,,,,,,,,,,,,,400.8996930000003,None,strain,30,44,sing,blue,398.88501499999984,None,None,398.88501499999984,None,,,,,,,,,,,,,,,,,,,,,,,,,,,,,,,,,,,114 sing,001,2022_Dec_01_1200,ProdSingRedoBetween,2021.2.3,59.94143721585849,
44,0,44,0,,,,,,,,,,,,,,,,,,,,,,,,,,403.40368040000067,None,reading,27,45,sing,yellow,401.4004418000004,None,None,401.4004418000004,None,,,,,,,,,,,,,,,,,,,,,,,,,,,,,,,,,,,114 sing,001,2022_Dec_01_1200,ProdSingRedoBetween,2021.2.3,59.94143721585849,
45,0,45,0,,,,,,,,,,,,,,,,,,,,,,,,,,405.9222540999999,None,length,38,46,sing,blue,403.90887810000004,None,None,403.90887810000004,None,,,,,,,,,,,,,,,,,,,,,,,,,,,,,,,,,,,114 sing,001,2022_Dec_01_1200,ProdSingRedoBetween,2021.2.3,59.94143721585849,
46,0,46,0,,,,,,,,,,,,,,,,,,,,,,,,,,408.4238694000005,None,smell,16,47,sing,yellow,406.4237161000001,None,None,406.4237161000001,None,,,,,,,,,,,,,,,,,,,,,,,,,,,,,,,,,,,114 sing,001,2022_Dec_01_1200,ProdSingRedoBetween,2021.2.3,59.94143721585849,
47,0,47,0,,,,,,,,,,,,,,,,,,,,,,,,,,410.9266002000004,None,youth,69,48,sing,red,408.92671280000013,None,None,408.92671280000013,None,,,,,,,,,,,,,,,,,,,,,,,,,,,,,,,,,,,114 sing,001,2022_Dec_01_1200,ProdSingRedoBetween,2021.2.3,59.94143721585849,
48,0,48,0,,,,,,,,,,,,,,,,,,,,,,,,,,413.4290898999998,None,state,50,49,sing,blue,411.4284281,None,None,411.4284281,None,,,,,,,,,,,,,,,,,,,,,,,,,,,,,,,,,,,114 sing,001,2022_Dec_01_1200,ProdSingRedoBetween,2021.2.3,59.94143721585849,
49,0,49,0,,,,,,,,,,,,,,,,,,,,,,,,,,415.9486702000004,None,conference,72,50,sing,red,413.93329090000043,None,None,413.93329090000043,None,,,,,,,,,,,,,,,,,,,,,,,,,,,,,,,,,,,114 sing,001,2022_Dec_01_1200,ProdSingRedoBetween,2021.2.3,59.94143721585849,
50,0,50,0,,,,,,,,,,,,,,,,,,,,,,,,,,418.45067090000066,None,testimony,19,51,sing,yellow,416.4507854000003,None,None,416.4507854000003,None,,,,,,,,,,,,,,,,,,,,,,,,,,,,,,,,,,,114 sing,001,2022_Dec_01_1200,ProdSingRedoBetween,2021.2.3,59.94143721585849,
51,0,51,0,,,,,,,,,,,,,,,,,,,,,,,,,,420.95323650000046,None,session,62,52,sing,red,418.9533978999998,None,None,418.9533978999998,None,,,,,,,,,,,,,,,,,,,,,,,,,,,,,,,,,,,114 sing,001,2022_Dec_01_1200,ProdSingRedoBetween,2021.2.3,59.94143721585849,
52,0,52,0,,,,,,,,,,,,,,,,,,,,,,,,,,423.45588430000043,None,permit,25,53,sing,yellow,421.4554941000006,None,None,421.4554941000006,None,,,,,,,,,,,,,,,,,,,,,,,,,,,,,,,,,,,114 sing,001,2022_Dec_01_1200,ProdSingRedoBetween,2021.2.3,59.94143721585849,
53,0,53,0,,,,,,,,,,,,,,,,,,,,,,,,,,425.9637453000005,None,match,40,54,sing,blue,423.95856920000006,None,None,423.95856920000006,None,,,,,,,,,,,,,,,,,,,,,,,,,,,,,,,,,,,114 sing,001,2022_Dec_01_1200,ProdSingRedoBetween,2021.2.3,59.94143721585849,
54,0,54,0,,,,,,,,,,,,,,,,,,,,,,,,,,428.4774852999999,None,evidence,23,55,sing,yellow,426.4777003999998,None,None,426.4777003999998,None,,,,,,,,,,,,,,,,,,,,,,,,,,,,,,,,,,,114 sing,001,2022_Dec_01_1200,ProdSingRedoBetween,2021.2.3,59.94143721585849,
55,0,55,0,,,,,,,,,,,,,,,,,,,,,,,,,,430.99676180000006,None,watch,54,56,sing,blue,428.9821356000002,None,None,428.9821356000002,None,,,,,,,,,,,,,,,,,,,,,,,,,,,,,,,,,,,114 sing,001,2022_Dec_01_1200,ProdSingRedoBetween,2021.2.3,59.94143721585849,
56,0,56,0,,,,,,,,,,,,,,,,,,,,,,,,,,433.49906420000025,None,style,35,57,sing,blue,431.4981271000006,None,None,431.4981271000006,None,,,,,,,,,,,,,,,,,,,,,,,,,,,,,,,,,,,114 sing,001,2022_Dec_01_1200,ProdSingRedoBetween,2021.2.3,59.94143721585849,
57,0,57,0,,,,,,,,,,,,,,,,,,,,,,,,,,436.0181325000003,None,education,51,58,sing,blue,434.00324960000034,None,None,434.00324960000034,None,,,,,,,,,,,,,,,,,,,,,,,,,,,,,,,,,,,114 sing,001,2022_Dec_01_1200,ProdSingRedoBetween,2021.2.3,59.94143721585849,
58,0,58,0,,,,,,,,,,,,,,,,,,,,,,,,,,438.52125609999985,None,junior,52,59,sing,blue,436.52009780000026,None,None,436.52009780000026,None,,,,,,,,,,,,,,,,,,,,,,,,,,,,,,,,,,,114 sing,001,2022_Dec_01_1200,ProdSingRedoBetween,2021.2.3,59.94143721585849,
59,0,59,0,,,,,,,,,,,,,,,,,,,,,,,,,,441.02310769999985,None,worker,83,60,sing,red,439.0229938000002,None,None,439.0229938000002,None,,,,,,,,,,,,,,,,,,,,,,,,,,,,,,,,,,,114 sing,001,2022_Dec_01_1200,ProdSingRedoBetween,2021.2.3,59.94143721585849,
60,0,60,0,,,,,,,,,,,,,,,,,,,,,,,,,,443.5257294000003,None,council,65,61,sing,red,441.52462990000004,None,None,441.52462990000004,None,,,,,,,,,,,,,,,,,,,,,,,,,,,,,,,,,,,114 sing,001,2022_Dec_01_1200,ProdSingRedoBetween,2021.2.3,59.94143721585849,
61,0,61,0,,,,,,,,,,,,,,,,,,,,,,,,,,446.0283596999998,None,household,31,62,sing,blue,444.0286673999999,None,None,444.0286673999999,None,,,,,,,,,,,,,,,,,,,,,,,,,,,,,,,,,,,114 sing,001,2022_Dec_01_1200,ProdSingRedoBetween,2021.2.3,59.94143721585849,
62,0,62,0,,,,,,,,,,,,,,,,,,,,,,,,,,448.54747399999997,None,crisis,8,63,sing,yellow,446.5332790000002,None,None,446.5332790000002,None,,,,,,,,,,,,,,,,,,,,,,,,,,,,,,,,,,,114 sing,001,2022_Dec_01_1200,ProdSingRedoBetween,2021.2.3,59.94143721585849,
63,0,63,0,,,,,,,,,,,,,,,,,,,,,,,,,,451.05005660000006,None,notice,28,64,sing,yellow,449.0505055000003,None,None,449.0505055000003,None,,,,,,,,,,,,,,,,,,,,,,,,,,,,,,,,,,,114 sing,001,2022_Dec_01_1200,ProdSingRedoBetween,2021.2.3,59.94143721585849,
64,0,64,0,,,,,,,,,,,,,,,,,,,,,,,,,,453.5691747999999,None,detective,68,65,sing,red,451.5541342000006,None,None,451.5541342000006,None,,,,,,,,,,,,,,,,,,,,,,,,,,,,,,,,,,,114 sing,001,2022_Dec_01_1200,ProdSingRedoBetween,2021.2.3,59.94143721585849,
65,0,65,0,,,,,,,,,,,,,,,,,,,,,,,,,,456.07160170000043,None,solution,57,66,sing,blue,454.0702446000005,None,None,454.0702446000005,None,,,,,,,,,,,,,,,,,,,,,,,,,,,,,,,,,,,114 sing,001,2022_Dec_01_1200,ProdSingRedoBetween,2021.2.3,59.94143721585849,
66,0,66,0,,,,,,,,,,,,,,,,,,,,,,,,,,458.5908091000001,None,people,2,67,sing,yellow,456.5862477999999,None,None,456.5862477999999,None,,,,,,,,,,,,,,,,,,,,,,,,,,,,,,,,,,,114 sing,001,2022_Dec_01_1200,ProdSingRedoBetween,2021.2.3,59.94143721585849,
67,0,67,0,,,,,,,,,,,,,,,,,,,,,,,,,,461.0931485000001,None,partner,32,68,sing,blue,459.0933500000001,None,None,459.0933500000001,None,,,,,,,,,,,,,,,,,,,,,,,,,,,,,,,,,,,114 sing,001,2022_Dec_01_1200,ProdSingRedoBetween,2021.2.3,59.94143721585849,
68,0,68,0,,,,,,,,,,,,,,,,,,,,,,,,,,463.5957349999999,None,problem,64,69,sing,red,461.5957788000005,None,None,461.5957788000005,None,,,,,,,,,,,,,,,,,,,,,,,,,,,,,,,,,,,114 sing,001,2022_Dec_01_1200,ProdSingRedoBetween,2021.2.3,59.94143721585849,
69,0,69,0,,,,,,,,,,,,,,,,,,,,,,,,,,466.09816039999987,None,author,88,70,sing,red,464.0975201000001,None,None,464.0975201000001,None,,,,,,,,,,,,,,,,,,,,,,,,,,,,,,,,,,,114 sing,001,2022_Dec_01_1200,ProdSingRedoBetween,2021.2.3,59.94143721585849,
70,0,70,0,,,,,,,,,,,,,,,,,,,,,,,,,,468.61739920000036,None,patient,10,71,sing,yellow,466.6017460000003,None,None,466.6017460000003,None,,,,,,,,,,,,,,,,,,,,,,,,,,,,,,,,,,,114 sing,001,2022_Dec_01_1200,ProdSingRedoBetween,2021.2.3,59.94143721585849,
71,0,71,0,,,,,,,,,,,,,,,,,,,,,,,,,,471.1199072999998,None,salary,22,72,sing,yellow,469.1182647000005,None,None,469.1182647000005,None,,,,,,,,,,,,,,,,,,,,,,,,,,,,,,,,,,,114 sing,001,2022_Dec_01_1200,ProdSingRedoBetween,2021.2.3,59.94143721585849,
72,0,72,0,,,,,,,,,,,,,,,,,,,,,,,,,,473.62242419999984,None,court,5,73,sing,yellow,471.62264180000057,None,None,471.62264180000057,None,,,,,,,,,,,,,,,,,,,,,,,,,,,,,,,,,,,114 sing,001,2022_Dec_01_1200,ProdSingRedoBetween,2021.2.3,59.94143721585849,
73,0,73,0,,,,,,,,,,,,,,,,,,,,,,,,,,476.1248172000005,None,sound,75,74,sing,red,474.12483500000053,None,None,474.12483500000053,None,,,,,,,,,,,,,,,,,,,,,,,,,,,,,,,,,,,114 sing,001,2022_Dec_01_1200,ProdSingRedoBetween,2021.2.3,59.94143721585849,
74,0,74,0,,,,,,,,,,,,,,,,,,,,,,,,,,478.6276034000002,None,voice,77,75,sing,red,476.6280204000004,None,None,476.6280204000004,None,,,,,,,,,,,,,,,,,,,,,,,,,,,,,,,,,,,114 sing,001,2022_Dec_01_1200,ProdSingRedoBetween,2021.2.3,59.94143721585849,
75,0,75,0,,,,,,,,,,,,,,,,,,,,,,,,,,481.1300553000001,None,couch,58,76,sing,blue,479.1286028000004,None,None,479.1286028000004,None,,,,,,,,,,,,,,,,,,,,,,,,,,,,,,,,,,,114 sing,001,2022_Dec_01_1200,ProdSingRedoBetween,2021.2.3,59.94143721585849,
76,0,76,0,,,,,,,,,,,,,,,,,,,,,,,,,,483.6326509999999,None,defeat,33,77,sing,blue,481.63303410000026,None,None,481.63303410000026,None,,,,,,,,,,,,,,,,,,,,,,,,,,,,,,,,,,,114 sing,001,2022_Dec_01_1200,ProdSingRedoBetween,2021.2.3,59.94143721585849,
77,0,77,0,,,,,,,,,,,,,,,,,,,,,,,,,,486.13494510000055,None,color,41,78,sing,blue,484.1357208999998,None,None,484.1357208999998,None,,,,,,,,,,,,,,,,,,,,,,,,,,,,,,,,,,,114 sing,001,2022_Dec_01_1200,ProdSingRedoBetween,2021.2.3,59.94143721585849,
78,0,78,0,,,,,,,,,,,,,,,,,,,,,,,,,,488.6375552999998,None,volume,11,79,sing,yellow,486.637514,None,None,486.637514,None,,,,,,,,,,,,,,,,,,,,,,,,,,,,,,,,,,,114 sing,001,2022_Dec_01_1200,ProdSingRedoBetween,2021.2.3,59.94143721585849,
79,0,79,0,,,,,,,,,,,,,,,,,,,,,,,,,,491.1397228000005,None,trash,79,80,sing,red,489.14025390000006,None,None,489.14025390000006,None,,,,,,,,,,,,,,,,,,,,,,,,,,,,,,,,,,,114 sing,001,2022_Dec_01_1200,ProdSingRedoBetween,2021.2.3,59.94143721585849,
80,0,80,0,,,,,,,,,,,,,,,,,,,,,,,,,,493.64256639999985,None,recall,66,81,sing,red,491.6414751000002,None,None,491.6414751000002,None,,,,,,,,,,,,,,,,,,,,,,,,,,,,,,,,,,,114 sing,001,2022_Dec_01_1200,ProdSingRedoBetween,2021.2.3,59.94143721585849,
81,0,81,0,,,,,,,,,,,,,,,,,,,,,,,,,,496.1450240000004,None,government,56,82,sing,blue,494.14490170000045,None,None,494.14490170000045,None,,,,,,,,,,,,,,,,,,,,,,,,,,,,,,,,,,,114 sing,001,2022_Dec_01_1200,ProdSingRedoBetween,2021.2.3,59.94143721585849,
82,0,82,0,,,,,,,,,,,,,,,,,,,,,,,,,,498.6474564,None,right,12,83,sing,yellow,496.6462074000001,None,None,496.6462074000001,None,,,,,,,,,,,,,,,,,,,,,,,,,,,,,,,,,,,114 sing,001,2022_Dec_01_1200,ProdSingRedoBetween,2021.2.3,59.94143721585849,
83,0,83,0,,,,,,,,,,,,,,,,,,,,,,,,,,501.14994360000037,None,account,70,84,sing,red,499.14874229999987,None,None,499.14874229999987,None,,,,,,,,,,,,,,,,,,,,,,,,,,,,,,,,,,,114 sing,001,2022_Dec_01_1200,ProdSingRedoBetween,2021.2.3,59.94143721585849,
84,0,84,0,,,,,,,,,,,,,,,,,,,,,,,,,,503.6692281000005,None,symbol,20,85,sing,yellow,501.65835210000023,None,None,501.65835210000023,None,,,,,,,,,,,,,,,,,,,,,,,,,,,,,,,,,,,114 sing,001,2022_Dec_01_1200,ProdSingRedoBetween,2021.2.3,59.94143721585849,
85,0,85,0,,,,,,,,,,,,,,,,,,,,,,,,,,506.1715614000004,None,group,55,86,sing,blue,504.1716057000003,None,None,504.1716057000003,None,,,,,,,,,,,,,,,,,,,,,,,,,,,,,,,,,,,114 sing,001,2022_Dec_01_1200,ProdSingRedoBetween,2021.2.3,59.94143721585849,
86,0,86,0,,,,,,,,,,,,,,,,,,,,,,,,,,508.67414610000014,None,agreement,15,87,sing,yellow,506.6729495999998,None,None,506.6729495999998,None,,,,,,,,,,,,,,,,,,,,,,,,,,,,,,,,,,,114 sing,001,2022_Dec_01_1200,ProdSingRedoBetween,2021.2.3,59.94143721585849,
87,0,87,0,,,,,,,,,,,,,,,,,,,,,,,,,,511.1766634000005,None,dance,63,88,sing,red,509.1767907000003,None,None,509.1767907000003,None,,,,,,,,,,,,,,,,,,,,,,,,,,,,,,,,,,,114 sing,001,2022_Dec_01_1200,ProdSingRedoBetween,2021.2.3,59.94143721585849,
88,0,88,0,,,,,,,,,,,,,,,,,,,,,,,,,,513.6792061000006,None,concern,44,89,sing,blue,511.67881769999985,None,None,511.67881769999985,None,,,,,,,,,,,,,,,,,,,,,,,,,,,,,,,,,,,114 sing,001,2022_Dec_01_1200,ProdSingRedoBetween,2021.2.3,59.94143721585849,
89,0,89,0,,,,,,,,,,,,,,,,,,,,,,,,,,516.1812570000002,None,sweet,9,90,sing,yellow,514.1822152000004,None,None,514.1822152000004,None,,,,,,,,,,,,,,,,,,,,,,,,,,,,,,,,,,,114 sing,001,2022_Dec_01_1200,ProdSingRedoBetween,2021.2.3,59.94143721585849,
,,,,,,,,,,,,,,,,,,,,,,,,,,,,,,,,,,,,,,,,,516.6820568000003,None,k,53.53831599999921,516.6820568000003,None,,,,,,,,,,,,,,,,,,,,,,,,,,,,,114 sing,001,2022_Dec_01_1200,ProdSingRedoBetween,2021.2.3,59.94143721585849,
,,,,0,0,0,0,,,,,,,,,,,,,,,,,,,,,,584.7852632000004,None,,,,,,,,,,,,,,,,,marriage,36,1,sing,old,blue,570.7439940000004,None,570.7439940000004,None,6,5.404235599999993,570.7439940000004,None,5.404235599999993,576.1800438,None,576.6987227999998,None,576.6987227999998,None,r,8.057540199999494,576.6987227999998,None,8.057540199999494,,,114 sing,001,2022_Dec_01_1200,ProdSingRedoBetween,2021.2.3,59.94143721585849,
,,,,1,0,1,0,,,,,,,,,,,,,,,,,,,,,,593.2256011,None,,,,,,,,,,,,,,,,,victory,175,2,sing,new,null,585.3027573999998,None,585.3027573999998,None,1,3.509604400000171,585.3027573999998,None,3.509604400000171,588.8412667000002,None,589.3549954999999,None,589.3549954999999,None,n,3.8413793999998234,589.3549954999999,None,3.8413793999998234,,,114 sing,001,2022_Dec_01_1200,ProdSingRedoBetween,2021.2.3,59.94143721585849,
,,,,2,0,2,0,,,,,,,,,,,,,,,,,,,,,,598.6323544000006,None,,,,,,,,,,,,,,,,,agreement,15,3,sing,old,yellow,593.7281641,None,593.7281641,None,6,2.948349899999812,593.7281641,None,2.948349899999812,596.6974381,None,597.2125262999998,None,597.2125262999998,None,r,1.4000354999998308,597.2125262999998,None,1.4000354999998308,,,114 sing,001,2022_Dec_01_1200,ProdSingRedoBetween,2021.2.3,59.94143721585849,
,,,,3,0,3,0,,,,,,,,,,,,,,,,,,,,,,603.4766718000001,None,,,,,,,,,,,,,,,,,surface,80,4,sing,old,red,599.1338598000002,None,599.1338598000002,None,6,3.3506028000001606,599.1338598000002,None,3.3506028000001606,602.5047703999999,None,603.0190074000002,None,603.0190074000002,None,r,0.4334819999994579,603.0190074000002,None,0.4334819999994579,,,114 sing,001,2022_Dec_01_1200,ProdSingRedoBetween,2021.2.3,59.94143721585849,
,,,,4,0,4,0,,,,,,,,,,,,,,,,,,,,,,606.7907254000002,None,,,,,,,,,,,,,,,,,dance,63,5,sing,old,red,603.9875234000001,None,603.9875234000001,None,6,2.192873099999815,603.9875234000001,None,2.192873099999815,606.2072962000002,None,606.7221086,None,606.7221086,None,r,0.04226529999959894,606.7221086,None,0.04226529999959894,,,114 sing,001,2022_Dec_01_1200,ProdSingRedoBetween,2021.2.3,59.94143721585849,
,,,,5,0,5,0,,,,,,,,,,,,,,,,,,,,,,613.0630852000004,None,,,,,,,,,,,,,,,,,reading,27,6,sing,old,yellow,607.3075638,None,607.3075638,None,6,1.7208706000001257,607.3075638,None,1.7208706000001257,609.059166,None,609.5746852000002,None,609.5746852000002,None,r,3.4617168000004312,609.5746852000002,None,3.4617168000004312,,,114 sing,001,2022_Dec_01_1200,ProdSingRedoBetween,2021.2.3,59.94143721585849,
,,,,6,0,6,0,,,,,,,,,,,,,,,,,,,,,,617.2679459999999,None,,,,,,,,,,,,,,,,,member,156,7,sing,new,null,613.5649560000002,None,613.5649560000002,None,6,2.3754312000000937,613.5649560000002,None,2.3754312000000937,615.9664472000004,None,616.4823919,None,616.4823919,None,r,0.7619625000006636,616.4823919,None,0.7619625000006636,,,114 sing,001,2022_Dec_01_1200,ProdSingRedoBetween,2021.2.3,59.94143721585849,
,,,,7,0,7,0,,,,,,,,,,,,,,,,,,,,,,621.8721706000006,None,,,,,,,,,,,,,,,,,weather,112,8,sing,new,null,617.7974186000001,None,617.7974186000001,None,1,2.630922099999225,617.7974186000001,None,2.630922099999225,620.4552191000002,None,620.9700644000004,None,620.9700644000004,None,n,0.8742517000000589,620.9700644000004,None,0.8742517000000589,,,114 sing,001,2022_Dec_01_1200,ProdSingRedoBetween,2021.2.3,59.94143721585849,
,,,,8,0,8,0,,,,,,,,,,,,,,,,,,,,,,625.6261989000004,None,,,,,,,,,,,,,,,,,debate,3,9,sing,old,yellow,622.3898221999998,None,622.3898221999998,None,6,1.9265088000001924,622.3898221999998,None,1.9265088000001924,624.3425695000005,None,624.8611036000002,None,624.8611036000002,None,r,0.7352504999998928,624.8611036000002,None,0.7352504999998928,,,114 sing,001,2022_Dec_01_1200,ProdSingRedoBetween,2021.2.3,59.94143721585849,
,,,,9,0,9,0,,,,,,,,,,,,,,,,,,,,,,629.9477003000002,None,,,,,,,,,,,,,,,,,science,167,10,sing,new,null,626.1455463000002,None,626.1455463000002,None,1,2.754918400000861,626.1455463000002,None,2.754918400000861,628.9335558000002,None,629.4450490999998,None,629.4450490999998,None,n,0.4792651999996451,629.4450490999998,None,0.4792651999996451,,,114 sing,001,2022_Dec_01_1200,ProdSingRedoBetween,2021.2.3,59.94143721585849,
,,,,10,0,10,0,,,,,,,,,,,,,,,,,,,,,,633.1001987,None,,,,,,,,,,,,,,,,,patient,10,11,sing,old,yellow,630.4645903,None,630.4645903,None,6,1.4757363999997324,630.4645903,None,1.4757363999997324,631.9659943000006,None,632.4818169,None,632.4818169,None,r,0.5865065999996659,632.4818169,None,0.5865065999996659,,,114 sing,001,2022_Dec_01_1200,ProdSingRedoBetween,2021.2.3,59.94143721585849,
,,,,11,0,11,0,,,,,,,,,,,,,,,,,,,,,,636.2866112000002,None,,,,,,,,,,,,,,,,,light,43,12,sing,old,blue,633.6183701999998,None,633.6183701999998,None,6,1.5462421000001996,633.6183701999998,None,1.5462421000001996,635.1858851000006,None,635.7009816,None,635.7009816,None,r,0.5675013000000035,635.7009816,None,0.5675013000000035,,,114 sing,001,2022_Dec_01_1200,ProdSingRedoBetween,2021.2.3,59.94143721585849,
,,,,12,0,12,0,,,,,,,,,,,,,,,,,,,,,,642.5924322999999,None,,,,,,,,,,,,,,,,,reach,6,13,sing,old,yellow,636.7927992000004,None,636.7927992000004,None,5,4.21944959999928,636.7927992000004,None,4.21944959999928,641.0421639000006,None,641.5578653000002,None,641.5578653000002,None,f,1.0146962999997413,641.5578653000002,None,1.0146962999997413,,,114 sing,001,2022_Dec_01_1200,ProdSingRedoBetween,2021.2.3,59.94143721585849,
,,,,13,0,13,0,,,,,,,,,,,,,,,,,,,,,,646.1967152000007,None,,,,,,,,,,,,,,,,,turkey,145,14,sing,new,null,643.0948521,None,643.0948521,None,1,2.021439299999656,643.0948521,None,2.021439299999656,645.1506364000006,None,645.6617363000005,None,645.6617363000005,None,n,0.5106729000008272,645.6617363000005,None,0.5106729000008272,,,114 sing,001,2022_Dec_01_1200,ProdSingRedoBetween,2021.2.3,59.94143721585849,
,,,,14,0,14,0,,,,,,,,,,,,,,,,,,,,,,650.2998846999999,None,,,,,,,,,,,,,,,,,short,173,15,sing,new,null,646.6983062999998,None,646.6983062999998,None,1,2.1219390999995085,646.6983062999998,None,2.1219390999995085,648.8545494,None,649.3707906999998,None,649.3707906999998,None,n,0.8976704999995491,649.3707906999998,None,0.8976704999995491,,,114 sing,001,2022_Dec_01_1200,ProdSingRedoBetween,2021.2.3,59.94143721585849,
,,,,15,0,15,0,,,,,,,,,,,,,,,,,,,,,,654.2887372000005,None,,,,,,,,,,,,,,,,,carry,46,16,sing,old,blue,650.8023198999999,None,650.8023198999999,None,5,2.370026399999915,650.8023198999999,None,2.370026399999915,653.2041564000001,None,653.7191387000003,None,653.7191387000003,None,f,0.5412169000001086,653.7191387000003,None,0.5412169000001086,,,114 sing,001,2022_Dec_01_1200,ProdSingRedoBetween,2021.2.3,59.94143721585849,
,,,,16,0,16,0,,,,,,,,,,,,,,,,,,,,,,657.9920093000001,None,,,,,,,,,,,,,,,,,leader,111,17,sing,new,null,654.8053852000003,None,654.8053852000003,None,1,1.847284800000125,654.8053852000003,None,1.847284800000125,656.6737664000002,None,657.1891288000006,None,657.1891288000006,None,n,0.7832804999998189,657.1891288000006,None,0.7832804999998189,,,114 sing,001,2022_Dec_01_1200,ProdSingRedoBetween,2021.2.3,59.94143721585849,
,,,,17,0,17,0,,,,,,,,,,,,,,,,,,,,,,661.8446160000003,None,,,,,,,,,,,,,,,,,motion,110,18,sing,new,null,658.5078054000005,None,658.5078054000005,None,1,2.224498599999606,658.5078054000005,None,2.224498599999606,660.7611622000004,None,661.2636069999999,None,661.2636069999999,None,n,0.5567616999996972,661.2636069999999,None,0.5567616999996972,,,114 sing,001,2022_Dec_01_1200,ProdSingRedoBetween,2021.2.3,59.94143721585849,
,,,,18,0,18,0,,,,,,,,,,,,,,,,,,,,,,665.9665952000005,None,,,,,,,,,,,,,,,,,guest,82,19,sing,old,red,662.3470415000002,None,662.3470415000002,None,5,2.1853456999997434,662.3470415000002,None,2.1853456999997434,664.5667635999998,None,665.0807404000006,None,665.0807404000006,None,f,0.8597022000003562,665.0807404000006,None,0.8597022000003562,,,114 sing,001,2022_Dec_01_1200,ProdSingRedoBetween,2021.2.3,59.94143721585849,
,,,,19,0,19,0,,,,,,,,,,,,,,,,,,,,,,669.2695122000005,None,,,,,,,,,,,,,,,,,month,94,20,sing,new,null,666.4838661000003,None,666.4838661000003,None,1,1.6646913000004133,666.4838661000003,None,1.6646913000004133,668.1689549000002,None,668.6844271999998,None,668.6844271999998,None,n,0.567985900000167,668.6844271999998,None,0.567985900000167,,,114 sing,001,2022_Dec_01_1200,ProdSingRedoBetween,2021.2.3,59.94143721585849,
,,,,20,0,20,0,,,,,,,,,,,,,,,,,,,,,,673.5066825000004,None,,,,,,,,,,,,,,,,,evidence,23,21,sing,old,yellow,669.7770492,None,669.7770492,None,6,2.6672379999999976,669.7770492,None,2.6672379999999976,672.4810103,None,672.9887563000002,None,672.9887563000002,None,r,0.4877310000001671,672.9887563000002,None,0.4877310000001671,,,114 sing,001,2022_Dec_01_1200,ProdSingRedoBetween,2021.2.3,59.94143721585849,
,,,,21,0,21,0,,,,,,,,,,,,,,,,,,,,,,676.5435413000005,None,,,,,,,,,,,,,,,,,orchestra,139,22,sing,new,null,674.0129035,None,674.0129035,None,1,1.7436708999994153,674.0129035,None,1.7436708999994153,675.7798591999999,None,676.2919468,None,676.2919468,None,n,0.22443120000025374,676.2919468,None,0.22443120000025374,,,114 sing,001,2022_Dec_01_1200,ProdSingRedoBetween,2021.2.3,59.94143721585849,
,,,,22,0,22,0,,,,,,,,,,,,,,,,,,,,,,679.5797450999999,None,,,,,,,,,,,,,,,,,trail,73,23,sing,old,red,677.0606886000005,None,677.0606886000005,None,6,1.5515619999996488,677.0606886000005,None,1.5515619999996488,678.6330871,None,679.1449287000005,None,679.1449287000005,None,r,0.4114705000001777,679.1449287000005,None,0.4114705000001777,,,114 sing,001,2022_Dec_01_1200,ProdSingRedoBetween,2021.2.3,59.94143721585849,
,,,,23,0,23,0,,,,,,,,,,,,,,,,,,,,,,684.4281489000005,None,,,,,,,,,,,,,,,,,smooth,39,24,sing,old,blue,680.0813659000005,None,680.0813659000005,None,6,1.6992286999993667,680.0813659000005,None,1.6992286999993667,681.8045585999998,None,682.3151441,None,682.3151441,None,r,2.073124700000335,682.3151441,None,2.073124700000335,,,114 sing,001,2022_Dec_01_1200,ProdSingRedoBetween,2021.2.3,59.94143721585849,
,,,,24,0,24,0,,,,,,,,,,,,,,,,,,,,,,689.4386967,None,,,,,,,,,,,,,,,,,public,127,25,sing,new,null,684.9417063000001,None,684.9417063000001,None,5,3.246600899999976,684.9417063000001,None,3.246600899999976,688.2080575,None,688.7214013000003,None,688.7214013000003,None,f,0.6991287999999258,688.7214013000003,None,0.6991287999999258,,,114 sing,001,2022_Dec_01_1200,ProdSingRedoBetween,2021.2.3,59.94143721585849,
,,,,25,0,25,0,,,,,,,,,,,,,,,,,,,,,,692.6751576000006,None,,,,,,,,,,,,,,,,,shock,107,26,sing,new,null,689.9415973000005,None,689.9415973000005,None,1,1.6068622000002506,689.9415973000005,None,1.6068622000002506,691.5801394,None,692.0918302999999,None,692.0918302999999,None,n,0.5605862000002162,692.0918302999999,None,0.5605862000002162,,,114 sing,001,2022_Dec_01_1200,ProdSingRedoBetween,2021.2.3,59.94143721585849,
,,,,26,0,26,0,,,,,,,,,,,,,,,,,,,,,,695.3288680000005,None,,,,,,,,,,,,,,,,,military,17,27,sing,old,yellow,693.1780772000002,None,693.1780772000002,None,6,1.1145401000003403,693.1780772000002,None,1.1145401000003403,694.3125168000006,None,694.827362,None,694.827362,None,r,0.47305280000000494,694.827362,None,0.47305280000000494,,,114 sing,001,2022_Dec_01_1200,ProdSingRedoBetween,2021.2.3,59.94143721585849,
,,,,27,0,27,0,,,,,,,,,,,,,,,,,,,,,,698.0488118000003,None,,,,,,,,,,,,,,,,,crisis,8,28,sing,old,yellow,695.8303756000005,None,695.8303756000005,None,6,1.0700154000005568,695.8303756000005,None,1.0700154000005568,696.9308953999998,None,697.4504935000004,None,697.4504935000004,None,r,0.5699800000002142,697.4504935000004,None,0.5699800000002142,,,114 sing,001,2022_Dec_01_1200,ProdSingRedoBetween,2021.2.3,59.94143721585849,
,,,,28,0,28,0,,,,,,,,,,,,,,,,,,,,,,701.4336070999998,None,,,,,,,,,,,,,,,,,notice,28,29,sing,old,yellow,698.5663765999998,None,698.5663765999998,None,6,1.8860015000000203,698.5663765999998,None,1.8860015000000203,700.4851919000002,None,701.0000282999999,None,701.0000282999999,None,r,0.404375600000094,701.0000282999999,None,0.404375600000094,,,114 sing,001,2022_Dec_01_1200,ProdSingRedoBetween,2021.2.3,59.94143721585849,
,,,,29,0,29,0,,,,,,,,,,,,,,,,,,,,,,705.0056400000003,None,,,,,,,,,,,,,,,,,department,114,30,sing,new,null,701.9367628999998,None,701.9367628999998,None,6,2.1076156999997693,701.9367628999998,None,2.1076156999997693,704.0791210000007,None,704.5937167000002,None,704.5937167000002,None,r,0.3787470999996003,704.5937167000002,None,0.3787470999996003,,,114 sing,001,2022_Dec_01_1200,ProdSingRedoBetween,2021.2.3,59.94143721585849,
,,,,30,0,30,0,,,,,,,,,,,,,,,,,,,,,,708.4201159000004,None,,,,,,,,,,,,,,,,,judge,84,31,sing,old,red,705.5228514,None,705.5228514,None,6,1.9217028000002756,705.5228514,None,1.9217028000002756,707.4828521999998,None,707.9976757000004,None,707.9976757000004,None,r,0.3910265000004074,707.9976757000004,None,0.3910265000004074,,,114 sing,001,2022_Dec_01_1200,ProdSingRedoBetween,2021.2.3,59.94143721585849,
,,,,31,0,31,0,,,,,,,,,,,,,,,,,,,,,,713.7486022000003,None,,,,,,,,,,,,,,,,,community,133,32,sing,new,null,708.9269958000004,None,708.9269958000004,None,4,3.6933833999992203,708.9269958000004,None,3.6933833999992203,712.6479402000004,None,713.1659958,None,713.1659958,None,f,0.5506506000001536,713.1659958,None,0.5506506000001536,,,114 sing,001,2022_Dec_01_1200,ProdSingRedoBetween,2021.2.3,59.94143721585849,
,,,,32,0,32,0,,,,,,,,,,,,,,,,,,,,,,717.4164787999998,None,,,,,,,,,,,,,,,,,finance,129,33,sing,new,null,714.2647235000004,None,714.2647235000004,None,1,1.603767799999332,714.2647235000004,None,1.603767799999332,715.9073463999994,None,716.4169686000005,None,716.4169686000005,None,n,0.979634299999816,716.4169686000005,None,0.979634299999816,,,114 sing,001,2022_Dec_01_1200,ProdSingRedoBetween,2021.2.3,59.94143721585849,
,,,,33,0,33,0,,,,,,,,,,,,,,,,,,,,,,720.6379534999996,None,,,,,,,,,,,,,,,,,appeal,131,34,sing,new,null,717.9196229000008,None,717.9196229000008,None,1,1.460715799999889,717.9196229000008,None,1.460715799999889,719.4038684000006,None,719.9190595,None,719.9190595,None,n,0.7013275000008434,719.9190595,None,0.7013275000008434,,,114 sing,001,2022_Dec_01_1200,ProdSingRedoBetween,2021.2.3,59.94143721585849,
,,,,34,0,34,0,,,,,,,,,,,,,,,,,,,,,,724.1125542999998,None,,,,,,,,,,,,,,,,,signal,48,35,sing,old,blue,721.1544362000004,None,721.1544362000004,None,5,2.121953800000483,721.1544362000004,None,2.121953800000483,723.3073509000005,None,723.8222648999999,None,723.8222648999999,None,f,0.25403340000048047,723.8222648999999,None,0.25403340000048047,,,114 sing,001,2022_Dec_01_1200,ProdSingRedoBetween,2021.2.3,59.94143721585849,
,,,,35,0,35,0,,,,,,,,,,,,,,,,,,,,,,727.161723700001,None,,,,,,,,,,,,,,,,,substance,105,36,sing,new,null,724.6374969000008,None,724.6374969000008,None,1,1.5512212000012369,724.6374969000008,None,1.5512212000012369,726.2113967999994,None,726.7280491000001,None,726.7280491000001,None,n,0.41263699999944947,726.7280491000001,None,0.41263699999944947,,,114 sing,001,2022_Dec_01_1200,ProdSingRedoBetween,2021.2.3,59.94143721585849,
,,,,36,0,36,0,,,,,,,,,,,,,,,,,,,,,,731.6139287999995,None,,,,,,,,,,,,,,,,,session,62,37,sing,old,red,727.6876248999997,None,727.6876248999997,None,5,2.9086980000010954,727.6876248999997,None,2.9086980000010954,730.6148319000004,None,731.1303289000007,None,731.1303289000007,None,f,0.4423984000004566,731.1303289000007,None,0.4423984000004566,,,114 sing,001,2022_Dec_01_1200,ProdSingRedoBetween,2021.2.3,59.94143721585849,
,,,,37,0,37,0,,,,,,,,,,,,,,,,,,,,,,735.2186789999996,None,,,,,,,,,,,,,,,,,measure,151,38,sing,new,null,732.1200552999999,None,732.1200552999999,None,5,2.0445116000009875,732.1200552999999,None,2.0445116000009875,734.1859528999994,None,734.6998848000003,None,734.6998848000003,None,f,0.48856160000104865,734.6998848000003,None,0.48856160000104865,,,114 sing,001,2022_Dec_01_1200,ProdSingRedoBetween,2021.2.3,59.94143721585849,
,,,,38,0,38,0,,,,,,,,,,,,,,,,,,,,,,740.723171900001,None,,,,,,,,,,,,,,,,,finish,138,39,sing,new,null,735.720890300001,None,735.720890300001,None,5,3.603391799999372,735.720890300001,None,3.603391799999372,739.3578825999994,None,739.8730869999999,None,739.8730869999999,None,f,0.819352100001197,739.8730869999999,None,0.819352100001197,,,114 sing,001,2022_Dec_01_1200,ProdSingRedoBetween,2021.2.3,59.94143721585849,
,,,,39,0,39,0,,,,,,,,,,,,,,,,,,,,,,743.7768422999998,None,,,,,,,,,,,,,,,,,institute,116,40,sing,new,null,741.2315813000005,None,741.2315813000005,None,1,1.3250245999988692,741.2315813000005,None,1.3250245999988692,742.577960300001,None,743.0921691000003,None,743.0921691000003,None,n,0.6644302000004245,743.0921691000003,None,0.6644302000004245,,,114 sing,001,2022_Dec_01_1200,ProdSingRedoBetween,2021.2.3,59.94143721585849,
,,,,40,0,40,0,,,,,,,,,,,,,,,,,,,,,,748.598557700001,None,,,,,,,,,,,,,,,,,trial,7,41,sing,old,yellow,744.2777805999995,None,744.2777805999995,None,6,3.118611600000804,744.2777805999995,None,3.118611600000804,747.4148915999995,None,747.9329840000009,None,747.9329840000009,None,r,0.6394753999993554,747.9329840000009,None,0.6394753999993554,,,114 sing,001,2022_Dec_01_1200,ProdSingRedoBetween,2021.2.3,59.94143721585849,
,,,,41,0,41,0,,,,,,,,,,,,,,,,,,,,,,751.6177946000007,None,,,,,,,,,,,,,,,,,partner,32,42,sing,old,blue,749.1161929000009,None,749.1161929000009,None,6,1.3602014999996754,749.1161929000009,None,1.3602014999996754,750.5019673000006,None,751.0207578999998,None,751.0207578999998,None,r,0.5758629000010842,751.0207578999998,None,0.5758629000010842,,,114 sing,001,2022_Dec_01_1200,ProdSingRedoBetween,2021.2.3,59.94143721585849,
,,,,42,0,42,0,,,,,,,,,,,,,,,,,,,,,,754.4046988000009,None,,,,,,,,,,,,,,,,,close,178,43,sing,new,null,752.1228716999995,None,752.1228716999995,None,6,1.193712799999048,752.1228716999995,None,1.193712799999048,753.3379502000007,None,753.8531313000003,None,753.8531313000003,None,r,0.527347600000212,753.8531313000003,None,0.527347600000212,,,114 sing,001,2022_Dec_01_1200,ProdSingRedoBetween,2021.2.3,59.94143721585849,
,,,,43,0,43,0,,,,,,,,,,,,,,,,,,,,,,757.3576125,None,,,,,,,,,,,,,,,,,captain,99,44,sing,new,null,754.9220623000001,None,754.9220623000001,None,1,1.3943681000000652,754.9220623000001,None,1.3943681000000652,756.341707900001,None,756.8562130999999,None,756.8562130999999,None,n,0.48425899999892863,756.8562130999999,None,0.48425899999892863,,,114 sing,001,2022_Dec_01_1200,ProdSingRedoBetween,2021.2.3,59.94143721585849,
,,,,44,0,44,0,,,,,,,,,,,,,,,,,,,,,,760.1608139,None,,,,,,,,,,,,,,,,,ground,49,45,sing,old,blue,757.8763025999997,None,757.8763025999997,None,1,1.232086200001504,757.8763025999997,None,1.232086200001504,759.1283122999994,None,759.6418408000009,None,759.6418408000009,None,n,0.49052780000056373,759.6418408000009,None,0.49052780000056373,,,114 sing,001,2022_Dec_01_1200,ProdSingRedoBetween,2021.2.3,59.94143721585849,
,,,,45,0,45,0,,,,,,,,,,,,,,,,,,,,,,763.2467185000005,None,,,,,,,,,,,,,,,,,tragedy,34,46,sing,old,blue,760.6785830000008,None,760.6785830000008,None,1,1.3898690000005445,760.6785830000008,None,1.3898690000005445,762.0961158000009,None,762.6118772999998,None,762.6118772999998,None,n,0.6166656999994302,762.6118772999998,None,0.6166656999994302,,,114 sing,001,2022_Dec_01_1200,ProdSingRedoBetween,2021.2.3,59.94143721585849,
,,,,46,0,46,0,,,,,,,,,,,,,,,,,,,,,,766.1328212999997,None,,,,,,,,,,,,,,,,,entrance,132,47,sing,new,null,763.7481927000008,None,763.7481927000008,None,1,1.3442427999998472,763.7481927000008,None,1.3442427999998472,765.1157282000004,None,765.6211452999996,None,765.6211452999996,None,n,0.4872945000006439,765.6211452999996,None,0.4872945000006439,,,114 sing,001,2022_Dec_01_1200,ProdSingRedoBetween,2021.2.3,59.94143721585849,
,,,,47,0,47,0,,,,,,,,,,,,,,,,,,,,,,770.5377922999996,None,,,,,,,,,,,,,,,,,union,96,48,sing,new,null,766.6342368999995,None,766.6342368999995,None,3,3.162172800000917,766.6342368999995,None,3.162172800000917,769.8216214000004,None,770.3362643,None,770.3362643,None,f,0.17209770000044955,770.3362643,None,0.17209770000044955,,,114 sing,001,2022_Dec_01_1200,ProdSingRedoBetween,2021.2.3,59.94143721585849,
,,,,48,0,48,0,,,,,,,,,,,,,,,,,,,,,,773.4759668000006,None,,,,,,,,,,,,,,,,,council,65,49,sing,old,red,771.0674085999999,None,771.0674085999999,None,6,1.5531468999997742,771.0674085999999,None,1.5531468999997742,772.641676700001,None,773.1593477000006,None,773.1593477000006,None,r,0.2933527999994112,773.1593477000006,None,0.2933527999994112,,,114 sing,001,2022_Dec_01_1200,ProdSingRedoBetween,2021.2.3,59.94143721585849,
,,,,49,0,49,0,,,,,,,,,,,,,,,,,,,,,,775.9260224999998,None,,,,,,,,,,,,,,,,,shear,143,50,sing,new,null,773.9911652999999,None,773.9911652999999,None,1,1.1172781000004761,773.9911652999999,None,1.1172781000004761,775.1277902000002,None,775.6415267000011,None,775.6415267000011,None,n,0.25894270000026154,775.6415267000011,None,0.25894270000026154,,,114 sing,001,2022_Dec_01_1200,ProdSingRedoBetween,2021.2.3,59.94143721585849,
,,,,50,0,50,0,,,,,,,,,,,,,,,,,,,,,,778.8295252999997,None,,,,,,,,,,,,,,,,,household,31,51,sing,old,blue,776.4288799999995,None,776.4288799999995,None,6,1.5595747999996092,776.4288799999995,None,1.5595747999996092,778.0128408,None,778.5275206000006,None,778.5275206000006,None,r,0.27688839999973425,778.5275206000006,None,0.27688839999973425,,,114 sing,001,2022_Dec_01_1200,ProdSingRedoBetween,2021.2.3,59.94143721585849,
,,,,51,0,51,0,,,,,,,,,,,,,,,,,,,,,,781.4977149000006,None,,,,,,,,,,,,,,,,,sound,75,52,sing,old,red,779.3471092,None,779.3471092,None,6,1.1295816999991075,779.3471092,None,1.1295816999991075,780.4987031000001,None,781.013351900001,None,781.013351900001,None,r,0.45509909999964293,781.013351900001,None,0.45509909999964293,,,114 sing,001,2022_Dec_01_1200,ProdSingRedoBetween,2021.2.3,59.94143721585849,
,,,,52,0,52,0,,,,,,,,,,,,,,,,,,,,,,784.1195411000008,None,,,,,,,,,,,,,,,,,emergency,174,53,sing,new,null,782.0006973,None,782.0006973,None,6,1.163848100000905,782.0006973,None,1.163848100000905,783.1842022000001,None,783.7016318999995,None,783.7016318999995,None,r,0.39886899999874004,783.7016318999995,None,0.39886899999874004,,,114 sing,001,2022_Dec_01_1200,ProdSingRedoBetween,2021.2.3,59.94143721585849,
,,,,53,0,53,0,,,,,,,,,,,,,,,,,,,,,,787.8887293999996,None,,,,,,,,,,,,,,,,,fight,179,54,sing,new,null,784.6353902999999,None,784.6353902999999,None,3,2.2889592999999877,784.6353902999999,None,2.2889592999999877,786.9540078999999,None,787.4698337000009,None,787.4698337000009,None,f,0.3986912000000302,787.4698337000009,None,0.3986912000000302,,,114 sing,001,2022_Dec_01_1200,ProdSingRedoBetween,2021.2.3,59.94143721585849,
,,,,54,0,54,0,,,,,,,,,,,,,,,,,,,,,,790.8410041999996,None,,,,,,,,,,,,,,,,,course,135,55,sing,new,null,788.4058184000005,None,788.4058184000005,None,5,1.6225307999993674,788.4058184000005,None,1.6225307999993674,790.0585637000004,None,790.572983,None,790.572983,None,f,0.23938600000110455,790.572983,None,0.23938600000110455,,,114 sing,001,2022_Dec_01_1200,ProdSingRedoBetween,2021.2.3,59.94143721585849,
,,,,55,0,55,0,,,,,,,,,,,,,,,,,,,,,,793.3937176,None,,,,,,,,,,,,,,,,,taste,102,56,sing,new,null,791.3436156999996,None,791.3436156999996,None,1,1.3008319999989908,791.3436156999996,None,1.3008319999989908,792.6780920000001,None,793.1926934000003,None,793.1926934000003,None,n,0.1800987000005989,793.1926934000003,None,0.1800987000005989,,,114 sing,001,2022_Dec_01_1200,ProdSingRedoBetween,2021.2.3,59.94143721585849,
,,,,56,0,56,0,,,,,,,,,,,,,,,,,,,,,,796.2128269000004,None,,,,,,,,,,,,,,,,,guard,95,57,sing,new,null,793.9112418000004,None,793.9112418000004,None,6,1.5571755000000849,793.9112418000004,None,1.5571755000000849,795.4978083999995,None,796.0136215000002,None,796.0136215000002,None,r,0.18279600000096252,796.0136215000002,None,0.18279600000096252,,,114 sing,001,2022_Dec_01_1200,ProdSingRedoBetween,2021.2.3,59.94143721585849,
,,,,57,0,57,0,,,,,,,,,,,,,,,,,,,,,,799.3159653000002,None,,,,,,,,,,,,,,,,,series,53,58,sing,old,blue,796.7150753000005,None,796.7150753000005,None,6,1.817397400000118,796.7150753000005,None,1.817397400000118,798.5505341000007,None,799.0644840000004,None,799.0644840000004,None,r,0.22796220000054745,799.0644840000004,None,0.22796220000054745,,,114 sing,001,2022_Dec_01_1200,ProdSingRedoBetween,2021.2.3,59.94143721585849,
,,,,58,0,58,0,,,,,,,,,,,,,,,,,,,,,,801.8351605999997,None,,,,,,,,,,,,,,,,,search,162,59,sing,new,null,799.8179565999999,None,799.8179565999999,None,1,1.2425100000000384,799.8179565999999,None,1.2425100000000384,801.0869165999993,None,801.6004059000006,None,801.6004059000006,None,n,0.20412130000113393,801.6004059000006,None,0.20412130000113393,,,114 sing,001,2022_Dec_01_1200,ProdSingRedoBetween,2021.2.3,59.94143721585849,
,,,,59,0,59,0,,,,,,,,,,,,,,,,,,,,,,804.2706500999993,None,,,,,,,,,,,,,,,,,right,12,60,sing,old,yellow,802.3393293000008,None,802.3393293000008,None,6,1.1051109999989421,802.3393293000008,None,1.1051109999989421,803.4723334000009,None,803.9874216999997,None,803.9874216999997,None,r,0.25704770000083954,803.9874216999997,None,0.25704770000083954,,,114 sing,001,2022_Dec_01_1200,ProdSingRedoBetween,2021.2.3,59.94143721585849,
,,,,60,0,60,0,,,,,,,,,,,,,,,,,,,,,,806.6256859000005,None,,,,,,,,,,,,,,,,,crowd,1,61,sing,old,yellow,804.7732618000009,None,804.7732618000009,None,6,0.9833476000003429,804.7732618000009,None,0.9833476000003429,805.7910056000001,None,806.3089180000006,None,806.3089180000006,None,r,0.2875883000015165,806.3089180000006,None,0.2875883000015165,,,114 sing,001,2022_Dec_01_1200,ProdSingRedoBetween,2021.2.3,59.94143721585849,
,,,,61,0,61,0,,,,,,,,,,,,,,,,,,,,,,809.4268993000005,None,,,,,,,,,,,,,,,,,group,55,62,sing,old,blue,807.1441099000003,None,807.1441099000003,None,1,1.444497099999353,807.1441099000003,None,1.444497099999353,808.6111277,None,809.1248823999995,None,809.1248823999995,None,n,0.27984289999949397,809.1248823999995,None,0.27984289999949397,,,114 sing,001,2022_Dec_01_1200,ProdSingRedoBetween,2021.2.3,59.94143721585849,
,,,,62,0,62,0,,,,,,,,,,,,,,,,,,,,,,812.1082263000008,None,,,,,,,,,,,,,,,,,portion,89,63,sing,old,red,809.9440348999997,None,809.9440348999997,None,5,1.4203928000006272,809.9440348999997,None,1.4203928000006272,811.3951345000005,None,811.9110227000001,None,811.9110227000001,None,f,0.1574259000008169,811.9110227000001,None,0.1574259000008169,,,114 sing,001,2022_Dec_01_1200,ProdSingRedoBetween,2021.2.3,59.94143721585849,
,,,,63,0,63,0,,,,,,,,,,,,,,,,,,,,,,814.7637149000002,None,,,,,,,,,,,,,,,,,straight,117,64,sing,new,null,812.6187377000006,None,812.6187377000006,None,1,1.3377237999993667,812.6187377000006,None,1.3377237999993667,813.988615100001,None,814.5040360000003,None,814.5040360000003,None,n,0.23647040000105335,814.5040360000003,None,0.23647040000105335,,,114 sing,001,2022_Dec_01_1200,ProdSingRedoBetween,2021.2.3,59.94143721585849,
,,,,64,0,64,0,,,,,,,,,,,,,,,,,,,,,,819.2681778000006,None,,,,,,,,,,,,,,,,,report,122,65,sing,new,null,815.2676614000011,None,815.2676614000011,None,5,3.0568294000004244,815.2676614000011,None,3.0568294000004244,818.3525060000011,None,818.8676068999994,None,818.8676068999994,None,f,0.3848221999996895,818.8676068999994,None,0.3848221999996895,,,114 sing,001,2022_Dec_01_1200,ProdSingRedoBetween,2021.2.3,59.94143721585849,
,,,,65,0,65,0,,,,,,,,,,,,,,,,,,,,,,821.8705434000003,None,,,,,,,,,,,,,,,,,sweet,9,66,sing,old,yellow,819.7711727000005,None,819.7711727000005,None,1,1.3294081000003644,819.7711727000005,None,1.3294081000003644,821.122108900001,None,821.6378552000006,None,821.6378552000006,None,n,0.20654749999994237,821.6378552000006,None,0.20654749999994237,,,114 sing,001,2022_Dec_01_1200,ProdSingRedoBetween,2021.2.3,59.94143721585849,
,,,,66,0,66,0,,,,,,,,,,,,,,,,,,,,,,824.7248142999997,None,,,,,,,,,,,,,,,,,angle,92,67,sing,new,null,822.3751788000009,None,822.3751788000009,None,1,1.573257799998828,822.3751788000009,None,1.573257799998828,823.9754616000009,None,824.4897154000009,None,824.4897154000009,None,n,0.21871599999940372,824.4897154000009,None,0.21871599999940372,,,114 sing,001,2022_Dec_01_1200,ProdSingRedoBetween,2021.2.3,59.94143721585849,
,,,,67,0,67,0,,,,,,,,,,,,,,,,,,,,,,827.1430466000002,None,,,,,,,,,,,,,,,,,youth,69,68,sing,old,red,825.2290656000005,None,825.2290656000005,None,6,1.1752670999994734,825.2290656000005,None,1.1752670999994734,826.4294133000003,None,826.9421113999997,None,826.9421113999997,None,r,0.1742906999988918,826.9421113999997,None,0.1742906999988918,,,114 sing,001,2022_Dec_01_1200,ProdSingRedoBetween,2021.2.3,59.94143721585849,
,,,,68,0,68,0,,,,,,,,,,,,,,,,,,,,,,829.4634765999999,None,,,,,,,,,,,,,,,,,vision,81,69,sing,old,red,827.6495300999995,None,827.6495300999995,None,6,1.0829926999995223,827.6495300999995,None,1.0829926999995223,828.7680380000002,None,829.2838958000011,None,829.2838958000011,None,r,0.16066000000137137,829.2838958000011,None,0.16066000000137137,,,114 sing,001,2022_Dec_01_1200,ProdSingRedoBetween,2021.2.3,59.94143721585849,
,,,,69,0,69,0,,,,,,,,,,,,,,,,,,,,,,831.9654711000003,None,,,,,,,,,,,,,,,,,piece,150,70,sing,new,null,829.9820197999998,None,829.9820197999998,None,5,1.390468100000362,829.9820197999998,None,1.390468100000362,831.3994784999995,None,831.9144801000002,None,831.9144801000002,None,f,0.025982299999668612,831.9144801000002,None,0.025982299999668612,,,114 sing,001,2022_Dec_01_1200,ProdSingRedoBetween,2021.2.3,59.94143721585849,
,,,,70,0,70,0,,,,,,,,,,,,,,,,,,,,,,835.1544501000008,None,,,,,,,,,,,,,,,,,smell,16,71,sing,old,yellow,832.4716900000003,None,832.4716900000003,None,1,1.8448287999999593,832.4716900000003,None,1.8448287999999593,834.3362027000003,None,834.8518738000002,None,834.8518738000002,None,n,0.2726384000015969,834.8518738000002,None,0.2726384000015969,,,114 sing,001,2022_Dec_01_1200,ProdSingRedoBetween,2021.2.3,59.94143721585849,
,,,,71,0,71,0,,,,,,,,,,,,,,,,,,,,,,839.5900251000003,None,,,,,,,,,,,,,,,,,color,41,72,sing,old,blue,835.6713497000001,None,835.6713497000001,None,2,3.261087299999417,835.6713497000001,None,3.261087299999417,838.9572831999994,None,839.4713498000001,None,839.4713498000001,None,f,0.1012613999992027,839.4713498000001,None,0.1012613999992027,,,114 sing,001,2022_Dec_01_1200,ProdSingRedoBetween,2021.2.3,59.94143721585849,
,,,,72,0,72,0,,,,,,,,,,,,,,,,,,,,,,843.5110746000009,None,,,,,,,,,,,,,,,,,candidate,149,73,sing,new,null,840.0920552999996,None,840.0920552999996,None,1,2.696664500001134,840.0920552999996,None,2.696664500001134,842.8176659000001,None,843.3258710000009,None,843.3258710000009,None,n,0.15861320000112755,843.3258710000009,None,0.15861320000112755,,,114 sing,001,2022_Dec_01_1200,ProdSingRedoBetween,2021.2.3,59.94143721585849,
,,,,73,0,73,0,,,,,,,,,,,,,,,,,,,,,,845.9481372999999,None,,,,,,,,,,,,,,,,,balance,144,74,sing,new,null,844.0322202999996,None,844.0322202999996,None,1,1.260320999999749,844.0322202999996,None,1.260320999999749,845.3143044000008,None,845.8284452000007,None,845.8284452000007,None,n,0.08789580000120623,845.8284452000007,None,0.08789580000120623,,,114 sing,001,2022_Dec_01_1200,ProdSingRedoBetween,2021.2.3,59.94143721585849,
,,,,74,0,74,0,,,,,,,,,,,,,,,,,,,,,,848.3475127000002,None,,,,,,,,,,,,,,,,,symbol,20,75,sing,old,yellow,846.4633145999996,None,846.4633145999996,None,1,1.1730670999986614,846.4633145999996,None,1.1730670999986614,847.6663136999996,None,848.1800521000005,None,848.1800521000005,None,n,0.1444338000001153,848.1800521000005,None,0.1444338000001153,,,114 sing,001,2022_Dec_01_1200,ProdSingRedoBetween,2021.2.3,59.94143721585849,
,,,,75,0,75,0,,,,,,,,,,,,,,,,,,,,,,851.4682986999997,None,,,,,,,,,,,,,,,,,novel,13,76,sing,old,yellow,848.8504551999995,None,848.8504551999995,None,4,1.9940081000004284,848.8504551999995,None,1.9940081000004284,850.8701798000002,None,851.3836904,None,851.3836904,None,f,0.053019400000266614,851.3836904,None,0.053019400000266614,,,114 sing,001,2022_Dec_01_1200,ProdSingRedoBetween,2021.2.3,59.94143721585849,
,,,,76,0,76,0,,,,,,,,,,,,,,,,,,,,,,855.8765217,None,,,,,,,,,,,,,,,,,range,152,77,sing,new,null,851.971365200001,None,851.971365200001,None,1,1.649111200000334,851.971365200001,None,1.649111200000334,853.6374565000006,None,854.1529771000005,None,854.1529771000005,None,n,1.6996985000005225,854.1529771000005,None,1.6996985000005225,,,114 sing,001,2022_Dec_01_1200,ProdSingRedoBetween,2021.2.3,59.94143721585849,
,,,,77,0,77,0,,,,,,,,,,,,,,,,,,,,,,858.8706796999995,None,,,,,,,,,,,,,,,,,power,176,78,sing,new,null,856.4025077000006,None,856.4025077000006,None,1,1.8259691999992356,856.4025077000006,None,1.8259691999992356,858.2589883,None,858.7763510999994,None,858.7763510999994,None,n,0.052390400000149384,858.7763510999994,None,0.052390400000149384,,,114 sing,001,2022_Dec_01_1200,ProdSingRedoBetween,2021.2.3,59.94143721585849,
,,,,78,0,78,0,,,,,,,,,,,,,,,,,,,,,,861.5282205000003,None,,,,,,,,,,,,,,,,,commercial,160,79,sing,new,null,859.3893454000008,None,859.3893454000008,None,5,1.5353770999990957,859.3893454000008,None,1.5353770999990957,860.9460448000009,None,861.4597204000002,None,861.4597204000002,None,f,0.040730400000029476,861.4597204000002,None,0.040730400000029476,,,114 sing,001,2022_Dec_01_1200,ProdSingRedoBetween,2021.2.3,59.94143721585849,
,,,,79,0,79,0,,,,,,,,,,,,,,,,,,,,,,866.7171995999997,None,,,,,,,,,,,,,,,,,season,164,80,sing,new,null,862.0365808999995,None,862.0365808999995,None,5,2.84017859999949,862.0365808999995,None,2.84017859999949,864.9003250000005,None,865.4283206,None,865.4283206,None,f,1.272093200001109,865.4283206,None,1.272093200001109,,,114 sing,001,2022_Dec_01_1200,ProdSingRedoBetween,2021.2.3,59.94143721585849,
,,,,80,0,80,0,,,,,,,,,,,,,,,,,,,,,,869.4361035000002,None,,,,,,,,,,,,,,,,,burden,147,81,sing,new,null,867.2361963000003,None,867.2361963000003,None,1,1.0962882000003447,867.2361963000003,None,1.0962882000003447,868.3551163000011,None,868.8679971000001,None,868.8679971000001,None,n,0.5444680999989941,868.8679971000001,None,0.5444680999989941,,,114 sing,001,2022_Dec_01_1200,ProdSingRedoBetween,2021.2.3,59.94143721585849,
,,,,81,0,81,0,,,,,,,,,,,,,,,,,,,,,,872.5547447999998,None,,,,,,,,,,,,,,,,,foundation,171,82,sing,new,null,869.9543245999994,None,869.9543245999994,None,1,1.474166800000603,869.9543245999994,None,1.474166800000603,871.4566364000002,None,871.9710455000004,None,871.9710455000004,None,n,0.5534669999997277,871.9710455000004,None,0.5534669999997277,,,114 sing,001,2022_Dec_01_1200,ProdSingRedoBetween,2021.2.3,59.94143721585849,
,,,,82,0,82,0,,,,,,,,,,,,,,,,,,,,,,875.9597716999997,None,,,,,,,,,,,,,,,,,worker,83,83,sing,old,red,873.0648686000004,None,873.0648686000004,None,1,2.0995933000012883,873.0648686000004,None,2.0995933000012883,875.1940028999998,None,875.7092317999995,None,875.7092317999995,None,n,0.22324599999956263,875.7092317999995,None,0.22324599999956263,,,114 sing,001,2022_Dec_01_1200,ProdSingRedoBetween,2021.2.3,59.94143721585849,
,,,,83,0,83,0,,,,,,,,,,,,,,,,,,,,,,878.9628370999999,None,,,,,,,,,,,,,,,,,school,109,84,sing,new,null,876.4775133000003,None,876.4775133000003,None,1,1.391054300000178,876.4775133000003,None,1.391054300000178,877.8966775999997,None,878.4108732000004,None,878.4108732000004,None,n,0.5216267999985575,878.4108732000004,None,0.5216267999985575,,,114 sing,001,2022_Dec_01_1200,ProdSingRedoBetween,2021.2.3,59.94143721585849,
,,,,84,0,84,0,,,,,,,,,,,,,,,,,,,,,,881.5817650000008,None,,,,,,,,,,,,,,,,,blind,100,85,sing,new,null,879.4688311999998,None,879.4688311999998,None,1,1.0239770999996836,879.4688311999998,None,1.0239770999996836,880.5148184000009,None,881.0293091000003,None,881.0293091000003,None,n,0.527172399999472,881.0293091000003,None,0.527172399999472,,,114 sing,001,2022_Dec_01_1200,ProdSingRedoBetween,2021.2.3,59.94143721585849,
,,,,85,0,85,0,,,,,,,,,,,,,,,,,,,,,,885.2520779999995,None,,,,,,,,,,,,,,,,,watch,54,86,sing,old,blue,882.089230900001,None,882.089230900001,None,3,2.0992927000006603,882.089230900001,None,2.0992927000006603,884.2250973999999,None,884.7351199999994,None,884.7351199999994,None,f,0.49336009999933594,884.7351199999994,None,0.49336009999933594,,,114 sing,001,2022_Dec_01_1200,ProdSingRedoBetween,2021.2.3,59.94143721585849,
,,,,86,0,86,0,,,,,,,,,,,,,,,,,,,,,,888.0200808000009,None,,,,,,,,,,,,,,,,,master,104,87,sing,new,null,885.7699011999994,None,885.7699011999994,None,1,1.1146981999991112,885.7699011999994,None,1.1146981999991112,886.9076504000004,None,887.4203815000001,None,887.4203815000001,None,n,0.5682791999988694,887.4203815000001,None,0.5682791999988694,,,114 sing,001,2022_Dec_01_1200,ProdSingRedoBetween,2021.2.3,59.94143721585849,
,,,,87,0,87,0,,,,,,,,,,,,,,,,,,,,,,890.5411392999995,None,,,,,,,,,,,,,,,,,congress,126,88,sing,new,null,888.5233055999997,None,888.5233055999997,None,1,0.9613351999996667,888.5233055999997,None,0.9613351999996667,889.5091818000001,None,890.0227255000009,None,890.0227255000009,None,n,0.493773099999089,890.0227255000009,None,0.493773099999089,,,114 sing,001,2022_Dec_01_1200,ProdSingRedoBetween,2021.2.3,59.94143721585849,
,,,,88,0,88,0,,,,,,,,,,,,,,,,,,,,,,895.1952061000011,None,,,,,,,,,,,,,,,,,waste,166,89,sing,new,null,891.0698418000011,None,891.0698418000011,None,4,3.1106256999992183,891.0698418000011,None,3.1106256999992183,894.2112299,None,894.7270449999996,None,894.7270449999996,None,f,0.4454688999994687,894.7270449999996,None,0.4454688999994687,,,114 sing,001,2022_Dec_01_1200,ProdSingRedoBetween,2021.2.3,59.94143721585849,
,,,,89,0,89,0,,,,,,,,,,,,,,,,,,,,,,897.9477353000002,None,,,,,,,,,,,,,,,,,direction,137,90,sing,new,null,895.697368000001,None,895.697368000001,None,1,1.1634606000006897,895.697368000001,None,1.1634606000006897,896.8848813000004,None,897.3960826000002,None,897.3960826000002,None,n,0.5203557999993791,897.3960826000002,None,0.5203557999993791,,,114 sing,001,2022_Dec_01_1200,ProdSingRedoBetween,2021.2.3,59.94143721585849,
,,,,90,0,90,0,,,,,,,,,,,,,,,,,,,,,,900.6332416000005,None,,,,,,,,,,,,,,,,,suspect,45,91,sing,old,blue,898.4501866999999,None,898.4501866999999,None,1,1.2023624000012205,898.4501866999999,None,1.2023624000012205,899.6900765000009,None,900.1993478999993,None,900.1993478999993,None,n,0.405064599999605,900.1993478999993,None,0.405064599999605,,,114 sing,001,2022_Dec_01_1200,ProdSingRedoBetween,2021.2.3,59.94143721585849,
,,,,91,0,91,0,,,,,,,,,,,,,,,,,,,,,,905.1047247000006,None,,,,,,,,,,,,,,,,,couch,58,92,sing,old,blue,901.1403633000009,None,901.1403633000009,None,6,3.2241322999998374,901.1403633000009,None,3.2241322999998374,904.3893258000007,None,904.9054517000004,None,904.9054517000004,None,r,0.17095169999993232,904.9054517000004,None,0.17095169999993232,,,114 sing,001,2022_Dec_01_1200,ProdSingRedoBetween,2021.2.3,59.94143721585849,
,,,,92,0,92,0,,,,,,,,,,,,,,,,,,,,,,913.5969987000008,None,,,,,,,,,,,,,,,,,engineer,123,93,sing,new,null,905.6067444,None,905.6067444,None,2,2.4377607999995234,905.6067444,None,2.4377607999995234,908.077068300001,None,908.5905760000005,None,908.5905760000005,None,n,4.981858799999827,908.5905760000005,None,4.981858799999827,,,114 sing,001,2022_Dec_01_1200,ProdSingRedoBetween,2021.2.3,59.94143721585849,
,,,,93,0,93,0,,,,,,,,,,,,,,,,,,,,,,916.6506052999994,None,,,,,,,,,,,,,,,,,management,157,94,sing,new,null,914.1130427000007,None,914.1130427000007,None,1,1.467622799998935,914.1130427000007,None,1.467622799998935,915.6002243000003,None,916.1150847000008,None,916.1150847000008,None,n,0.5139046000003873,916.1150847000008,None,0.5139046000003873,,,114 sing,001,2022_Dec_01_1200,ProdSingRedoBetween,2021.2.3,59.94143721585849,
,,,,94,0,94,0,,,,,,,,,,,,,,,,,,,,,,919.9528828000002,None,,,,,,,,,,,,,,,,,enemy,18,95,sing,old,yellow,917.1674616,None,917.1674616,None,5,1.6930453999993915,917.1674616,None,1.6930453999993915,918.8867317000004,None,919.4020593000005,None,919.4020593000005,None,f,0.522310500000458,919.4020593000005,None,0.522310500000458,,,114 sing,001,2022_Dec_01_1200,ProdSingRedoBetween,2021.2.3,59.94143721585849,
,,,,95,0,95,0,,,,,,,,,,,,,,,,,,,,,,922.7062430999995,None,,,,,,,,,,,,,,,,,threat,101,96,sing,new,null,920.4587687000003,None,920.4587687000003,None,1,1.2421831999999995,920.4587687000003,None,1.2421831999999995,921.7266426000006,None,922.2377268,None,922.2377268,None,n,0.43872150000061083,922.2377268,None,0.43872150000061083,,,114 sing,001,2022_Dec_01_1200,ProdSingRedoBetween,2021.2.3,59.94143721585849,
,,,,96,0,96,0,,,,,,,,,,,,,,,,,,,,,,925.2741053000009,None,,,,,,,,,,,,,,,,,dispute,91,97,sing,new,null,923.2124502000006,None,923.2124502000006,None,1,1.1199982999987697,923.2124502000006,None,1.1199982999987697,924.3592695999996,None,924.8740405000008,None,924.8740405000008,None,n,0.37043810000068333,924.8740405000008,None,0.37043810000068333,,,114 sing,001,2022_Dec_01_1200,ProdSingRedoBetween,2021.2.3,59.94143721585849,
,,,,97,0,97,0,,,,,,,,,,,,,,,,,,,,,,927.9280333000006,None,,,,,,,,,,,,,,,,,collection,153,98,sing,new,null,925.7766262000005,None,925.7766262000005,None,1,1.083883600000263,925.7766262000005,None,1.083883600000263,926.8783186000001,None,927.3932920000007,None,927.3932920000007,None,n,0.5152816000008897,927.3932920000007,None,0.5152816000008897,,,114 sing,001,2022_Dec_01_1200,ProdSingRedoBetween,2021.2.3,59.94143721585849,
,,,,98,0,98,0,,,,,,,,,,,,,,,,,,,,,,930.5473717000004,None,,,,,,,,,,,,,,,,,opening,158,99,sing,new,null,928.4310306000007,None,928.4310306000007,None,1,1.0135780999989947,928.4310306000007,None,1.0135780999989947,929.4651114999997,None,929.9857429000003,None,929.9857429000003,None,n,0.5387587000004714,929.9857429000003,None,0.5387587000004714,,,114 sing,001,2022_Dec_01_1200,ProdSingRedoBetween,2021.2.3,59.94143721585849,
,,,,99,0,99,0,,,,,,,,,,,,,,,,,,,,,,932.8990417000005,None,,,,,,,,,,,,,,,,,strain,30,100,sing,old,blue,931.0499015999994,None,931.0499015999994,None,1,0.858578999999736,931.0499015999994,None,0.858578999999736,931.9336045,None,932.4483048000002,None,932.4483048000002,None,n,0.42825470000025234,932.4483048000002,None,0.42825470000025234,,,114 sing,001,2022_Dec_01_1200,ProdSingRedoBetween,2021.2.3,59.94143721585849,
,,,,100,0,100,0,,,,,,,,,,,,,,,,,,,,,,936.7362621000011,None,,,,,,,,,,,,,,,,,working,136,101,sing,new,null,933.4014243000001,None,933.4014243000001,None,6,2.4190503999998327,933.4014243000001,None,2.4190503999998327,935.8544345000009,None,936.3693203000003,None,936.3693203000003,None,r,0.33912319999944884,936.3693203000003,None,0.33912319999944884,,,114 sing,001,2022_Dec_01_1200,ProdSingRedoBetween,2021.2.3,59.94143721585849,
,,,,101,0,101,0,,,,,,,,,,,,,,,,,,,,,,939.2727713999993,None,,,,,,,,,,,,,,,,,graduate,118,102,sing,new,null,937.2383308999997,None,937.2383308999997,None,1,1.0304108999989694,937.2383308999997,None,1.0304108999989694,938.2963890999999,None,938.8044179999997,None,938.8044179999997,None,n,0.4482409000011103,938.8044179999997,None,0.4482409000011103,,,114 sing,001,2022_Dec_01_1200,ProdSingRedoBetween,2021.2.3,59.94143721585849,
,,,,102,0,102,0,,,,,,,,,,,,,,,,,,,,,,941.9774287,None,,,,,,,,,,,,,,,,,general,120,103,sing,new,null,939.7740694000004,None,939.7740694000004,None,1,1.0223659000002954,939.7740694000004,None,1.0223659000002954,940.8251445999995,None,941.3476138999995,None,941.3476138999995,None,n,0.6090505000011035,941.3476138999995,None,0.6090505000011035,,,114 sing,001,2022_Dec_01_1200,ProdSingRedoBetween,2021.2.3,59.94143721585849,
,,,,103,0,103,0,,,,,,,,,,,,,,,,,,,,,,944.6948271000001,None,,,,,,,,,,,,,,,,,length,38,104,sing,old,blue,942.5042133000006,None,942.5042133000006,None,1,1.0122877000012522,942.5042133000006,None,1.0122877000012522,943.5442756000011,None,944.0594273999995,None,944.0594273999995,None,n,0.6172116000016103,944.0594273999995,None,0.6172116000016103,,,114 sing,001,2022_Dec_01_1200,ProdSingRedoBetween,2021.2.3,59.94143721585849,
,,,,104,0,104,0,,,,,,,,,,,,,,,,,,,,,,947.4978160999999,None,,,,,,,,,,,,,,,,,escape,78,105,sing,old,red,945.2124289000003,None,945.2124289000003,None,6,1.4240931000003911,945.2124289000003,None,1.4240931000003911,946.6651772000005,None,947.1801701000004,None,947.1801701000004,None,r,0.2965537999989465,947.1801701000004,None,0.2965537999989465,,,114 sing,001,2022_Dec_01_1200,ProdSingRedoBetween,2021.2.3,59.94143721585849,
,,,,105,0,105,0,,,,,,,,,,,,,,,,,,,,,,949.7999997000006,None,,,,,,,,,,,,,,,,,atmosphere,103,106,sing,new,null,948.0227046,None,948.0227046,None,1,0.9498633000002883,948.0227046,None,0.9498633000002883,949.0022762999997,None,949.5151425000004,None,949.5151425000004,None,n,0.2574019000003318,949.5151425000004,None,0.2574019000003318,,,114 sing,001,2022_Dec_01_1200,ProdSingRedoBetween,2021.2.3,59.94143721585849,
,,,,106,0,106,0,,,,,,,,,,,,,,,,,,,,,,953.4711972000005,None,,,,,,,,,,,,,,,,,point,141,107,sing,new,null,950.3178662999999,None,950.3178662999999,None,1,2.158614600000874,950.3178662999999,None,2.158614600000874,952.5035700000008,None,953.0098889000001,None,953.0098889000001,None,n,0.442555400000856,953.0098889000001,None,0.442555400000856,,,114 sing,001,2022_Dec_01_1200,ProdSingRedoBetween,2021.2.3,59.94143721585849,
,,,,107,0,107,0,,,,,,,,,,,,,,,,,,,,,,956.1737945000004,None,,,,,,,,,,,,,,,,,count,85,108,sing,old,red,953.9870678999996,None,953.9870678999996,None,5,1.409470099999453,953.9870678999996,None,1.409470099999453,955.4231842999998,None,955.9377557999996,None,955.9377557999996,None,f,0.2187047999996139,955.9377557999996,None,0.2187047999996139,,,114 sing,001,2022_Dec_01_1200,ProdSingRedoBetween,2021.2.3,59.94143721585849,
,,,,108,0,108,0,,,,,,,,,,,,,,,,,,,,,,958.4579185000002,None,,,,,,,,,,,,,,,,,problem,64,109,sing,old,red,956.6914023999998,None,956.6914023999998,None,1,1.1133303999995405,956.6914023999998,None,1.1133303999995405,957.8263072999998,None,958.3412355,None,958.3412355,None,n,0.08728830000109156,958.3412355,None,0.08728830000109156,,,114 sing,001,2022_Dec_01_1200,ProdSingRedoBetween,2021.2.3,59.94143721585849,
,,,,109,0,109,0,,,,,,,,,,,,,,,,,,,,,,961.4436910999993,None,,,,,,,,,,,,,,,,,growth,140,110,sing,new,null,958.9609378999994,None,958.9609378999994,None,1,1.5155694999994012,958.9609378999994,None,1.5155694999994012,960.4957648,None,961.0096467000003,None,961.0096467000003,None,n,0.4028880999994726,961.0096467000003,None,0.4028880999994726,,,114 sing,001,2022_Dec_01_1200,ProdSingRedoBetween,2021.2.3,59.94143721585849,
,,,,110,0,110,0,,,,,,,,,,,,,,,,,,,,,,963.8144388000001,None,,,,,,,,,,,,,,,,,bitter,113,111,sing,new,null,961.947193,None,961.947193,None,1,0.9775363999997353,961.947193,None,0.9775363999997353,962.9538840999994,None,963.4639375000006,None,963.4639375000006,None,n,0.3325497000005271,963.4639375000006,None,0.3325497000005271,,,114 sing,001,2022_Dec_01_1200,ProdSingRedoBetween,2021.2.3,59.94143721585849,
,,,,111,0,111,0,,,,,,,,,,,,,,,,,,,,,,966.2165688999994,None,,,,,,,,,,,,,,,,,account,70,112,sing,old,red,964.331828800001,None,964.331828800001,None,1,1.0487646000001405,964.331828800001,None,1.0487646000001405,965.400407000001,None,965.9151901000005,None,965.9151901000005,None,n,0.273310999999012,965.9151901000005,None,0.273310999999012,,,114 sing,001,2022_Dec_01_1200,ProdSingRedoBetween,2021.2.3,59.94143721585849,
,,,,112,0,112,0,,,,,,,,,,,,,,,,,,,,,,968.685695600001,None,,,,,,,,,,,,,,,,,figure,97,113,sing,new,null,966.7341761999996,None,966.7341761999996,None,1,1.2063679999992019,966.7341761999996,None,1.2063679999992019,967.9679985000002,None,968.4691118999999,None,968.4691118999999,None,n,0.18335839999963355,968.4691118999999,None,0.18335839999963355,,,114 sing,001,2022_Dec_01_1200,ProdSingRedoBetween,2021.2.3,59.94143721585849,
,,,,113,0,113,0,,,,,,,,,,,,,,,,,,,,,,971.0375657000004,None,,,,,,,,,,,,,,,,,author,88,114,sing,old,red,969.193177000001,None,969.193177000001,None,1,1.0193029000001843,969.193177000001,None,1.0193029000001843,970.2392731,None,970.7530845000001,None,970.7530845000001,None,n,0.25945839999985765,970.7530845000001,None,0.25945839999985765,,,114 sing,001,2022_Dec_01_1200,ProdSingRedoBetween,2021.2.3,59.94143721585849,
,,,,114,0,114,0,,,,,,,,,,,,,,,,,,,,,,973.4053201999996,None,,,,,,,,,,,,,,,,,stand,37,115,sing,old,blue,971.5401784999995,None,971.5401784999995,None,1,1.0723238999999012,971.5401784999995,None,1.0723238999999012,972.6416527000001,None,973.1554656999997,None,973.1554656999997,None,n,0.23321489999943879,973.1554656999997,None,0.23321489999943879,,,114 sing,001,2022_Dec_01_1200,ProdSingRedoBetween,2021.2.3,59.94143721585849,
,,,,115,0,115,0,,,,,,,,,,,,,,,,,,,,,,975.9758005000003,None,,,,,,,,,,,,,,,,,danger,159,116,sing,new,null,973.9108302000004,None,973.9108302000004,None,1,1.22968100000071,973.9108302000004,None,1.22968100000071,975.1599273000011,None,975.6744524000005,None,975.6744524000005,None,n,0.28210769999896,975.6744524000005,None,0.28210769999896,,,114 sing,001,2022_Dec_01_1200,ProdSingRedoBetween,2021.2.3,59.94143721585849,
,,,,116,0,116,0,,,,,,,,,,,,,,,,,,,,,,978.4620137000002,None,,,,,,,,,,,,,,,,,style,35,117,sing,old,blue,976.4776431999999,None,976.4776431999999,None,1,0.9908885000004375,976.4776431999999,None,0.9908885000004375,977.4962011000007,None,978.0103498999997,None,978.0103498999997,None,n,0.4261554000004253,978.0103498999997,None,0.4261554000004253,,,114 sing,001,2022_Dec_01_1200,ProdSingRedoBetween,2021.2.3,59.94143721585849,
,,,,117,0,117,0,,,,,,,,,,,,,,,,,,,,,,982.3329147999993,None,,,,,,,,,,,,,,,,,audience,163,118,sing,new,null,978.9821539999994,None,978.9821539999994,None,5,2.5343351000010443,978.9821539999994,None,2.5343351000010443,981.5489773000008,None,982.0643001000008,None,982.0643001000008,None,f,0.23623159999988275,982.0643001000008,None,0.23623159999988275,,,114 sing,001,2022_Dec_01_1200,ProdSingRedoBetween,2021.2.3,59.94143721585849,
,,,,118,0,118,0,,,,,,,,,,,,,,,,,,,,,,988.2196924,None,,,,,,,,,,,,,,,,,conference,72,119,sing,old,red,982.8499468000009,None,982.8499468000009,None,3,4.058639099999709,982.8499468000009,None,4.058639099999709,986.9448272999998,None,987.4556319000003,None,987.4556319000003,None,n,0.7488185000001977,987.4556319000003,None,0.7488185000001977,,,114 sing,001,2022_Dec_01_1200,ProdSingRedoBetween,2021.2.3,59.94143721585849,
,,,,119,0,119,0,,,,,,,,,,,,,,,,,,,,,,990.9070528000011,None,,,,,,,,,,,,,,,,,sight,121,120,sing,new,null,988.7260944999998,None,988.7260944999998,None,1,1.1744311999991623,988.7260944999998,None,1.1744311999991623,989.9253246999997,None,990.4392877000009,None,990.4392877000009,None,n,0.4452989000001253,990.4392877000009,None,0.4452989000001253,,,114 sing,001,2022_Dec_01_1200,ProdSingRedoBetween,2021.2.3,59.94143721585849,
,,,,120,0,120,0,,,,,,,,,,,,,,,,,,,,,,993.6608962000009,None,,,,,,,,,,,,,,,,,committee,161,121,sing,new,null,991.423368400001,None,991.423368400001,None,1,1.0611048999999184,991.423368400001,None,1.0611048999999184,992.5114183999995,None,993.0278292000003,None,993.0278292000003,None,n,0.600717799999984,993.0278292000003,None,0.600717799999984,,,114 sing,001,2022_Dec_01_1200,ProdSingRedoBetween,2021.2.3,59.94143721585849,
,,,,121,0,121,0,,,,,,,,,,,,,,,,,,,,,,996.2129287999996,None,,,,,,,,,,,,,,,,,salary,22,122,sing,old,yellow,994.1780976000009,None,994.1780976000009,None,1,1.130586700001004,994.1780976000009,None,1.130586700001004,995.331981700001,None,995.8449818000008,None,995.8449818000008,None,n,0.3435135999989143,995.8449818000008,None,0.3435135999989143,,,114 sing,001,2022_Dec_01_1200,ProdSingRedoBetween,2021.2.3,59.94143721585849,
,,,,122,0,122,0,,,,,,,,,,,,,,,,,,,,,,998.8328321000008,None,,,,,,,,,,,,,,,,,income,76,123,sing,old,red,996.7136795999995,None,996.7136795999995,None,1,1.3948651999999129,996.7136795999995,None,1.3948651999999129,998.1328866000003,None,998.6473633999994,None,998.6473633999994,None,n,0.1652775999991718,998.6473633999994,None,0.1652775999991718,,,114 sing,001,2022_Dec_01_1200,ProdSingRedoBetween,2021.2.3,59.94143721585849,
,,,,123,0,123,0,,,,,,,,,,,,,,,,,,,,,,1001.2176985000006,None,,,,,,,,,,,,,,,,,weight,125,124,sing,new,null,999.3620704999994,None,999.3620704999994,None,1,0.9625066999997216,999.3620704999994,None,0.9625066999997216,1000.3581890000005,None,1000.8665022000005,None,1000.8665022000005,None,n,0.33030719999987923,1000.8665022000005,None,0.33030719999987923,,,114 sing,001,2022_Dec_01_1200,ProdSingRedoBetween,2021.2.3,59.94143721585849,
,,,,124,0,124,0,,,,,,,,,,,,,,,,,,,,,,1003.6371399,None,,,,,,,,,,,,,,,,,interview,108,125,sing,new,null,1001.7199782999996,None,1001.7199782999996,None,1,1.0288733999987016,1001.7199782999996,None,1.0288733999987016,1002.7723814000001,None,1003.3140120000007,None,1003.3140120000007,None,n,0.29049420000046666,1003.3140120000007,None,0.29049420000046666,,,114 sing,001,2022_Dec_01_1200,ProdSingRedoBetween,2021.2.3,59.94143721585849,
,,,,125,0,125,0,,,,,,,,,,,,,,,,,,,,,,1005.9379991999995,None,,,,,,,,,,,,,,,,,voice,77,126,sing,old,red,1004.1669039000008,None,1004.1669039000008,None,1,0.9097588999993604,1004.1669039000008,None,0.9097588999993604,1005.106297100001,None,1005.621193500001,None,1005.621193500001,None,n,0.28738679999878514,1005.621193500001,None,0.28738679999878514,,,114 sing,001,2022_Dec_01_1200,ProdSingRedoBetween,2021.2.3,59.94143721585849,
,,,,126,0,126,0,,,,,,,,,,,,,,,,,,,,,,1008.6829546999998,None,,,,,,,,,,,,,,,,,present,61,127,sing,old,red,1006.4409809000008,None,1006.4409809000008,None,6,1.5236847000014677,1006.4409809000008,None,1.5236847000014677,1007.9916988999994,None,1008.5110144000009,None,1008.5110144000009,None,r,0.13377000000036787,1008.5110144000009,None,0.13377000000036787,,,114 sing,001,2022_Dec_01_1200,ProdSingRedoBetween,2021.2.3,59.94143721585849,
,,,,127,0,127,0,,,,,,,,,,,,,,,,,,,,,,1010.9606643000006,None,,,,,,,,,,,,,,,,,people,2,128,sing,old,yellow,1009.1980868999999,None,1009.1980868999999,None,1,0.9185145999999804,1009.1980868999999,None,0.9185145999999804,1010.1504554000003,None,1010.6619391000004,None,1010.6619391000004,None,n,0.27878619999864895,1010.6619391000004,None,0.27878619999864895,,,114 sing,001,2022_Dec_01_1200,ProdSingRedoBetween,2021.2.3,59.94143721585849,
,,,,128,0,128,0,,,,,,,,,,,,,,,,,,,,,,1013.4297549000003,None,,,,,,,,,,,,,,,,,whole,106,129,sing,new,null,1011.4633935000002,None,1011.4633935000002,None,1,1.0691817000006267,1011.4633935000002,None,1.0691817000006267,1012.5631463000009,None,1013.0788226999994,None,1013.0788226999994,None,n,0.32565599999907135,1013.0788226999994,None,0.32565599999907135,,,114 sing,001,2022_Dec_01_1200,ProdSingRedoBetween,2021.2.3,59.94143721585849,
,,,,129,0,129,0,,,,,,,,,,,,,,,,,,,,,,1015.7984644000007,None,,,,,,,,,,,,,,,,,center,142,130,sing,new,null,1013.9379843999996,None,1013.9379843999996,None,1,0.9144699000007677,1013.9379843999996,None,0.9144699000007677,1014.8844064999994,None,1015.3988853999999,None,1015.3988853999999,None,n,0.3816796000010072,1015.3988853999999,None,0.3816796000010072,,,114 sing,001,2022_Dec_01_1200,ProdSingRedoBetween,2021.2.3,59.94143721585849,
,,,,130,0,130,0,,,,,,,,,,,,,,,,,,,,,,1018.1506847,None,,,,,,,,,,,,,,,,,service,169,131,sing,new,null,1016.3011203000005,None,1016.3011203000005,None,1,1.015331699998569,1016.3011203000005,None,1.015331699998569,1017.3404964000001,None,1017.8508691000006,None,1017.8508691000006,None,n,0.2737398999997822,1017.8508691000006,None,0.2737398999997822,,,114 sing,001,2022_Dec_01_1200,ProdSingRedoBetween,2021.2.3,59.94143721585849,
,,,,131,0,131,0,,,,,,,,,,,,,,,,,,,,,,1020.8206824999997,None,,,,,,,,,,,,,,,,,education,51,132,sing,old,blue,1018.6532535000006,None,1018.6532535000006,None,5,1.5831792000008136,1018.6532535000006,None,1.5831792000008136,1020.2553674999999,None,1020.7692729999999,None,1020.7692729999999,None,f,0.019244000000981032,1020.7692729999999,None,0.019244000000981032,,,114 sing,001,2022_Dec_01_1200,ProdSingRedoBetween,2021.2.3,59.94143721585849,
,,,,132,0,132,0,,,,,,,,,,,,,,,,,,,,,,1023.5070185000004,None,,,,,,,,,,,,,,,,,solution,57,133,sing,old,blue,1021.3224248000006,None,1021.3224248000006,None,1,1.3861445000002277,1021.3224248000006,None,1.3861445000002277,1022.741130800001,None,1023.2561353000001,None,1023.2561353000001,None,n,0.22839509999903385,1023.2561353000001,None,0.22839509999903385,,,114 sing,001,2022_Dec_01_1200,ProdSingRedoBetween,2021.2.3,59.94143721585849,
,,,,133,0,133,0,,,,,,,,,,,,,,,,,,,,,,1025.9262070000004,None,,,,,,,,,,,,,,,,,drama,130,134,sing,new,null,1024.0077791000003,None,1024.0077791000003,None,1,1.0927489000005153,1024.0077791000003,None,1.0927489000005153,1025.1258626,None,1025.6429453,None,1025.6429453,None,n,0.2655856999990647,1025.6429453,None,0.2655856999990647,,,114 sing,001,2022_Dec_01_1200,ProdSingRedoBetween,2021.2.3,59.94143721585849,
,,,,134,0,134,0,,,,,,,,,,,,,,,,,,,,,,1028.228363100001,None,,,,,,,,,,,,,,,,,broke,134,135,sing,new,null,1026.4558551999999,None,1026.4558551999999,None,1,0.988776100000905,1026.4558551999999,None,0.988776100000905,1027.4802677999996,None,1027.9931637000009,None,1027.9931637000009,None,n,0.21137780000026396,1027.9931637000009,None,0.21137780000026396,,,114 sing,001,2022_Dec_01_1200,ProdSingRedoBetween,2021.2.3,59.94143721585849,
,,,,135,0,135,0,,,,,,,,,,,,,,,,,,,,,,1030.549057100001,None,,,,,,,,,,,,,,,,,agency,24,136,sing,old,yellow,1028.7344223,None,1028.7344223,None,1,0.9501483000003645,1028.7344223,None,0.9501483000003645,1029.7158448999999,None,1030.2315555999994,None,1030.2315555999994,None,n,0.28499899999951595,1030.2315555999994,None,0.28499899999951595,,,114 sing,001,2022_Dec_01_1200,ProdSingRedoBetween,2021.2.3,59.94143721585849,
,,,,136,0,136,0,,,,,,,,,,,,,,,,,,,,,,1032.8666531,None,,,,,,,,,,,,,,,,,volume,11,137,sing,old,yellow,1031.0649854000003,None,1031.0649854000003,None,1,1.0114840999995067,1031.0649854000003,None,1.0114840999995067,1032.1012489999994,None,1032.6150159999997,None,1032.6150159999997,None,n,0.2298356999999669,1032.6150159999997,None,0.2298356999999669,,,114 sing,001,2022_Dec_01_1200,ProdSingRedoBetween,2021.2.3,59.94143721585849,
,,,,137,0,137,0,,,,,,,,,,,,,,,,,,,,,,1035.3531177999994,None,,,,,,,,,,,,,,,,,suggestion,60,138,sing,old,red,1033.3843588,None,1033.3843588,None,1,1.300193400000353,1033.3843588,None,1.300193400000353,1034.7028580999995,None,1035.217545200001,None,1035.217545200001,None,n,0.1150300999997853,1035.217545200001,None,0.1150300999997853,,,114 sing,001,2022_Dec_01_1200,ProdSingRedoBetween,2021.2.3,59.94143721585849,
,,,,138,0,138,0,,,,,,,,,,,,,,,,,,,,,,1040.640921600001,None,,,,,,,,,,,,,,,,,pressure,59,139,sing,old,yellow,1035.877518700001,None,1035.877518700001,None,6,2.230911200000264,1035.877518700001,None,2.230911200000264,1038.139347800001,None,1038.6601451000006,None,1038.6601451000006,None,r,1.9605690000007598,1038.6601451000006,None,1.9605690000007598,,,114 sing,001,2022_Dec_01_1200,ProdSingRedoBetween,2021.2.3,59.94143721585849,
,,,,139,0,139,0,,,,,,,,,,,,,,,,,,,,,,1043.6509557999998,None,,,,,,,,,,,,,,,,,empty,172,140,sing,new,null,1041.1586012000007,None,1041.1586012000007,None,1,1.285918399998991,1041.1586012000007,None,1.285918399998991,1042.4777507,None,1042.9918034000002,None,1042.9918034000002,None,n,0.6206772000005003,1042.9918034000002,None,0.6206772000005003,,,114 sing,001,2022_Dec_01_1200,ProdSingRedoBetween,2021.2.3,59.94143721585849,
,,,,140,0,140,0,,,,,,,,,,,,,,,,,,,,,,1046.2131289999998,None,,,,,,,,,,,,,,,,,junior,52,141,sing,old,blue,1044.1628973000006,None,1044.1628973000006,None,1,0.9137695999997959,1044.1628973000006,None,0.9137695999997959,1045.0968874999999,None,1045.6110835,None,1045.6110835,None,n,0.5694109999985812,1045.6110835,None,0.5694109999985812,,,114 sing,001,2022_Dec_01_1200,ProdSingRedoBetween,2021.2.3,59.94143721585849,
,,,,141,0,141,0,,,,,,,,,,,,,,,,,,,,,,1050.818360700001,None,,,,,,,,,,,,,,,,,generation,90,142,sing,new,null,1046.7198351999996,None,1046.7198351999996,None,1,3.036812299998928,1046.7198351999996,None,3.036812299998928,1049.7868533,None,1050.2987259000001,None,1050.2987259000001,None,n,0.49798680000094464,1050.2987259000001,None,0.49798680000094464,,,114 sing,001,2022_Dec_01_1200,ProdSingRedoBetween,2021.2.3,59.94143721585849,
,,,,142,0,142,0,,,,,,,,,,,,,,,,,,,,,,1055.454757200001,None,,,,,,,,,,,,,,,,,music,74,143,sing,old,red,1051.3447536000003,None,1051.3447536000003,None,6,2.331928399999015,1051.3447536000003,None,2.331928399999015,1053.7094429999997,None,1054.2216454999998,None,1054.2216454999998,None,r,1.215091100000791,1054.2216454999998,None,1.215091100000791,,,114 sing,001,2022_Dec_01_1200,ProdSingRedoBetween,2021.2.3,59.94143721585849,
,,,,143,0,143,0,,,,,,,,,,,,,,,,,,,,,,1062.311313100001,None,,,,,,,,,,,,,,,,,state,50,144,sing,old,blue,1055.9572497999998,None,1055.9572497999998,None,4,5.3593186999987665,1055.9572497999998,None,5.3593186999987665,1061.3457727000005,None,1061.8603757,None,1061.8603757,None,f,0.42411510000056296,1061.8603757,None,0.42411510000056296,,,114 sing,001,2022_Dec_01_1200,ProdSingRedoBetween,2021.2.3,59.94143721585849,
,,,,144,0,144,0,,,,,,,,,,,,,,,,,,,,,,1065.8502098999998,None,,,,,,,,,,,,,,,,,machinery,115,145,sing,new,null,1062.8182914999998,None,1062.8182914999998,None,1,2.314240300000165,1062.8182914999998,None,2.314240300000165,1065.166937600001,None,1065.6819544999998,None,1065.6819544999998,None,n,0.1469407999993564,1065.6819544999998,None,0.1469407999993564,,,114 sing,001,2022_Dec_01_1200,ProdSingRedoBetween,2021.2.3,59.94143721585849,
,,,,145,0,145,0,,,,,,,,,,,,,,,,,,,,,,1068.601646000001,None,,,,,,,,,,,,,,,,,force,165,146,sing,new,null,1066.3670724000003,None,1066.3670724000003,None,1,1.0296746999993047,1066.3670724000003,None,1.0296746999993047,1067.4181546,None,1067.9335692000004,None,1067.9335692000004,None,n,0.6389557000002242,1067.9335692000004,None,0.6389557000002242,,,114 sing,001,2022_Dec_01_1200,ProdSingRedoBetween,2021.2.3,59.94143721585849,
,,,,146,0,146,0,,,,,,,,,,,,,,,,,,,,,,1072.071721800001,None,,,,,,,,,,,,,,,,,recall,66,147,sing,old,red,1069.1122058,None,1069.1122058,None,6,2.0122037000001,1069.1122058,None,2.0122037000001,1071.1563686000009,None,1071.6704745000006,None,1071.6704745000006,None,r,0.3821659000004729,1071.6704745000006,None,0.3821659000004729,,,114 sing,001,2022_Dec_01_1200,ProdSingRedoBetween,2021.2.3,59.94143721585849,
,,,,147,0,147,0,,,,,,,,,,,,,,,,,,,,,,1074.9733895000008,None,,,,,,,,,,,,,,,,,grade,47,148,sing,old,blue,1072.5749445000001,None,1072.5749445000001,None,5,1.613753199999337,1072.5749445000001,None,1.613753199999337,1074.207988600001,None,1074.7229050000005,None,1074.7229050000005,None,f,0.23375940000005357,1074.7229050000005,None,0.23375940000005357,,,114 sing,001,2022_Dec_01_1200,ProdSingRedoBetween,2021.2.3,59.94143721585849,
,,,,148,0,148,0,,,,,,,,,,,,,,,,,,,,,,1077.6334036000007,None,,,,,,,,,,,,,,,,,mankind,119,149,sing,new,null,1075.476955,None,1075.476955,None,1,1.1995703000011417,1075.476955,None,1.1995703000011417,1076.6941398,None,1077.2095332999997,None,1077.2095332999997,None,n,0.38708070000029693,1077.2095332999997,None,0.38708070000029693,,,114 sing,001,2022_Dec_01_1200,ProdSingRedoBetween,2021.2.3,59.94143721585849,
,,,,149,0,149,0,,,,,,,,,,,,,,,,,,,,,,1080.0802951999995,None,,,,,,,,,,,,,,,,,budget,86,150,sing,old,red,1078.1491755000006,None,1078.1491755000006,None,6,1.1994381999993493,1078.1491755000006,None,1.1994381999993493,1079.3802123999994,None,1079.8953719,None,1079.8953719,None,r,0.16523689999849012,1079.8953719,None,0.16523689999849012,,,114 sing,001,2022_Dec_01_1200,ProdSingRedoBetween,2021.2.3,59.94143721585849,
,,,,150,0,150,0,,,,,,,,,,,,,,,,,,,,,,1083.4332515000006,None,,,,,,,,,,,,,,,,,executive,98,151,sing,new,null,1080.5982249000008,None,1080.5982249000008,None,1,1.9502642000006745,1080.5982249000008,None,1.9502642000006745,1082.5721328,None,1083.0821713999994,None,1083.0821713999994,None,n,0.3305356999990181,1083.0821713999994,None,0.3305356999990181,,,114 sing,001,2022_Dec_01_1200,ProdSingRedoBetween,2021.2.3,59.94143721585849,
,,,,151,0,151,0,,,,,,,,,,,,,,,,,,,,,,1087.7706252000007,None,,,,,,,,,,,,,,,,,testimony,19,152,sing,old,yellow,1083.9527233000008,None,1083.9527233000008,None,5,1.2598290000005363,1083.9527233000008,None,1.2598290000005363,1085.2357267000007,None,1085.7549794999995,None,1085.7549794999995,None,r,1.9855975999998918,1085.7549794999995,None,1.9855975999998918,,,114 sing,001,2022_Dec_01_1200,ProdSingRedoBetween,2021.2.3,59.94143721585849,
,,,,152,0,152,0,,,,,,,,,,,,,,,,,,,,,,1090.4403782000009,None,,,,,,,,,,,,,,,,,device,148,153,sing,new,null,1088.2732434000009,None,1088.2732434000009,None,1,1.1795094000008248,1088.2732434000009,None,1.1795094000008248,1089.4732212,None,1089.9887820000004,None,1089.9887820000004,None,n,0.43199079999976675,1089.9887820000004,None,0.43199079999976675,,,114 sing,001,2022_Dec_01_1200,ProdSingRedoBetween,2021.2.3,59.94143721585849,
,,,,153,0,153,0,,,,,,,,,,,,,,,,,,,,,,1092.759180000001,None,,,,,,,,,,,,,,,,,staff,124,154,sing,new,null,1090.9441179999994,None,1090.9441179999994,None,1,0.9564761999990878,1090.9441179999994,None,0.9564761999990878,1091.926121300001,None,1092.4414536000004,None,1092.4414536000004,None,n,0.2911278999999922,1092.4414536000004,None,0.2911278999999922,,,114 sing,001,2022_Dec_01_1200,ProdSingRedoBetween,2021.2.3,59.94143721585849,
,,,,154,0,154,0,,,,,,,,,,,,,,,,,,,,,,1095.1452049,None,,,,,,,,,,,,,,,,,expansion,128,155,sing,new,null,1093.2612054,None,1093.2612054,None,1,1.0073343999993085,1093.2612054,None,1.0073343999993085,1094.2951400000002,None,1094.8110536000004,None,1094.8110536000004,None,n,0.30560549999972864,1094.8110536000004,None,0.30560549999972864,,,114 sing,001,2022_Dec_01_1200,ProdSingRedoBetween,2021.2.3,59.94143721585849,
,,,,155,0,155,0,,,,,,,,,,,,,,,,,,,,,,1097.4158853999998,None,,,,,,,,,,,,,,,,,permit,25,156,sing,old,yellow,1095.6636997999994,None,1095.6636997999994,None,1,0.9328547000004619,1095.6636997999994,None,0.9328547000004619,1096.6151093999997,None,1097.1291858999994,None,1097.1291858999994,None,n,0.2593891000014992,1097.1291858999994,None,0.2593891000014992,,,114 sing,001,2022_Dec_01_1200,ProdSingRedoBetween,2021.2.3,59.94143721585849,
,,,,156,0,156,0,,,,,,,,,,,,,,,,,,,,,,1099.9483371000006,None,,,,,,,,,,,,,,,,,period,21,157,sing,old,yellow,1097.932554500001,None,1097.932554500001,None,6,1.304306900001393,1097.932554500001,None,1.304306900001393,1099.2712520000005,None,1099.7819311000003,None,1099.7819311000003,None,r,0.14272949999940465,1099.7819311000003,None,0.14272949999940465,,,114 sing,001,2022_Dec_01_1200,ProdSingRedoBetween,2021.2.3,59.94143721585849,
,,,,157,0,157,0,,,,,,,,,,,,,,,,,,,,,,1102.635906900001,None,,,,,,,,,,,,,,,,,scale,14,158,sing,old,yellow,1100.4516607000005,None,1100.4516607000005,None,5,1.3529865999989852,1100.4516607000005,None,1.3529865999989852,1101.8361091000006,None,1102.3512702999997,None,1102.3512702999997,None,r,0.25329190000047674,1102.3512702999997,None,0.25329190000047674,,,114 sing,001,2022_Dec_01_1200,ProdSingRedoBetween,2021.2.3,59.94143721585849,
,,,,158,0,158,0,,,,,,,,,,,,,,,,,,,,,,1105.4216214000007,None,,,,,,,,,,,,,,,,,court,5,159,sing,old,yellow,1103.1374539000008,None,1103.1374539000008,None,5,1.4831856000000698,1103.1374539000008,None,1.4831856000000698,1104.6458679000007,None,1105.1534745000008,None,1105.1534745000008,None,r,0.24308729999938805,1105.1534745000008,None,0.24308729999938805,,,114 sing,001,2022_Dec_01_1200,ProdSingRedoBetween,2021.2.3,59.94143721585849,
,,,,159,0,159,0,,,,,,,,,,,,,,,,,,,,,,1107.7749614999993,None,,,,,,,,,,,,,,,,,plane,154,160,sing,new,null,1105.9239460000008,None,1105.9239460000008,None,1,1.0967932999992627,1105.9239460000008,None,1.0967932999992627,1107.0429189000006,None,1107.5565207,None,1107.5565207,None,n,0.19210460000067542,1107.5565207,None,0.19210460000067542,,,114 sing,001,2022_Dec_01_1200,ProdSingRedoBetween,2021.2.3,59.94143721585849,
,,,,160,0,160,0,,,,,,,,,,,,,,,,,,,,,,1110.0600775000003,None,,,,,,,,,,,,,,,,,impact,29,161,sing,old,blue,1108.2922271999996,None,1108.2922271999996,None,1,1.0082594999985304,1108.2922271999996,None,1.0082594999985304,1109.3271196000005,None,1109.8421328999993,None,1109.8421328999993,None,n,0.19443169999976817,1109.8421328999993,None,0.19443169999976817,,,114 sing,001,2022_Dec_01_1200,ProdSingRedoBetween,2021.2.3,59.94143721585849,
,,,,161,0,161,0,,,,,,,,,,,,,,,,,,,,,,1112.8283883000004,None,,,,,,,,,,,,,,,,,trash,79,162,sing,old,red,1110.5615257999998,None,1110.5615257999998,None,6,1.5390870000010182,1110.5615257999998,None,1.5390870000010182,1112.1288174000001,None,1112.6441283000004,None,1112.6441283000004,None,r,0.15260210000087682,1112.6441283000004,None,0.15260210000087682,,,114 sing,001,2022_Dec_01_1200,ProdSingRedoBetween,2021.2.3,59.94143721585849,
,,,,162,0,162,0,,,,,,,,,,,,,,,,,,,,,,1115.9160076000007,None,,,,,,,,,,,,,,,,,defeat,33,163,sing,old,blue,1113.3311802999997,None,1113.3311802999997,None,4,1.4654602000009618,1113.3311802999997,None,1.4654602000009618,1114.8155965000005,None,1115.3302370000001,None,1115.3302370000001,None,f,0.5623340999991342,1115.3302370000001,None,0.5623340999991342,,,114 sing,001,2022_Dec_01_1200,ProdSingRedoBetween,2021.2.3,59.94143721585849,
,,,,163,0,163,0,,,,,,,,,,,,,,,,,,,,,,1118.5040640000007,None,,,,,,,,,,,,,,,,,comfort,42,164,sing,old,blue,1116.4335007000009,None,1116.4335007000009,None,5,1.2035097999996651,1116.4335007000009,None,1.2035097999996651,1117.6948465000005,None,1118.203505200001,None,1118.203505200001,None,f,0.28110500000002503,1118.203505200001,None,0.28110500000002503,,,114 sing,001,2022_Dec_01_1200,ProdSingRedoBetween,2021.2.3,59.94143721585849,
,,,,164,0,164,0,,,,,,,,,,,,,,,,,,,,,,1122.1070937999993,None,,,,,,,,,,,,,,,,,concern,44,165,sing,old,blue,1119.0186004999996,None,1119.0186004999996,None,1,2.418004999999539,1119.0186004999996,None,2.418004999999539,1121.455080400001,None,1121.9577386,None,1121.9577386,None,n,0.11891390000164392,1121.9577386,None,0.11891390000164392,,,114 sing,001,2022_Dec_01_1200,ProdSingRedoBetween,2021.2.3,59.94143721585849,
,,,,165,0,165,0,,,,,,,,,,,,,,,,,,,,,,1124.5912136000006,None,,,,,,,,,,,,,,,,,addition,170,166,sing,new,null,1122.6233243000006,None,1122.6233243000006,None,5,1.3573250999997981,1122.6233243000006,None,1.3573250999997981,1124.0090426999996,None,1124.5233528999997,None,1124.5233528999997,None,f,0.049353500000506756,1124.5233528999997,None,0.049353500000506756,,,114 sing,001,2022_Dec_01_1200,ProdSingRedoBetween,2021.2.3,59.94143721585849,
,,,,166,0,166,0,,,,,,,,,,,,,,,,,,,,,,1127.2599367000003,None,,,,,,,,,,,,,,,,,track,155,167,sing,new,null,1125.1016306000001,None,1125.1016306000001,None,1,1.3429061000006186,1125.1016306000001,None,1.3429061000006186,1126.4768611,None,1126.993299400001,None,1126.993299400001,None,n,0.24319070000092324,1126.993299400001,None,0.24319070000092324,,,114 sing,001,2022_Dec_01_1200,ProdSingRedoBetween,2021.2.3,59.94143721585849,
,,,,167,0,167,0,,,,,,,,,,,,,,,,,,,,,,1129.780717900001,None,,,,,,,,,,,,,,,,,throw,71,168,sing,old,red,1127.7630057999995,None,1127.7630057999995,None,1,1.0415746999988187,1127.7630057999995,None,1.0415746999988187,1128.8309150000005,None,1129.3585934000002,None,1129.3585934000002,None,n,0.39018080000096234,1129.3585934000002,None,0.39018080000096234,,,114 sing,001,2022_Dec_01_1200,ProdSingRedoBetween,2021.2.3,59.94143721585849,
,,,,168,0,168,0,,,,,,,,,,,,,,,,,,,,,,1133.5629630000003,None,,,,,,,,,,,,,,,,,design,67,169,sing,old,red,1130.297493,None,1130.297493,None,5,2.163343199999872,1130.297493,None,2.163343199999872,1132.484340500001,None,1132.9993178000004,None,1132.9993178000004,None,f,0.533256299999266,1132.9993178000004,None,0.533256299999266,,,114 sing,001,2022_Dec_01_1200,ProdSingRedoBetween,2021.2.3,59.94143721585849,
,,,,169,0,169,0,,,,,,,,,,,,,,,,,,,,,,1137.3379182000008,None,,,,,,,,,,,,,,,,,government,56,170,sing,old,blue,1134.0734668000005,None,1134.0734668000005,None,5,2.5151563999988866,1134.0734668000005,None,2.5151563999988866,1136.6215224999996,None,1137.1359267999997,None,1137.1359267999997,None,f,0.17262870000013208,1137.1359267999997,None,0.17262870000013208,,,114 sing,001,2022_Dec_01_1200,ProdSingRedoBetween,2021.2.3,59.94143721585849,
,,,,170,0,170,0,,,,,,,,,,,,,,,,,,,,,,1139.873388,None,,,,,,,,,,,,,,,,,height,26,171,sing,old,yellow,1137.8651929999996,None,1137.8651929999996,None,1,1.2034951000005094,1137.8651929999996,None,1.2034951000005094,1139.0896713000002,None,1139.6046877999997,None,1139.6046877999997,None,n,0.23984899999959453,1139.6046877999997,None,0.23984899999959453,,,114 sing,001,2022_Dec_01_1200,ProdSingRedoBetween,2021.2.3,59.94143721585849,
,,,,171,0,171,0,,,,,,,,,,,,,,,,,,,,,,1144.228302900001,None,,,,,,,,,,,,,,,,,match,40,172,sing,old,blue,1140.3898405,None,1140.3898405,None,1,3.166939900000216,1140.3898405,None,3.166939900000216,1143.5790048,None,1144.0979389999993,None,1144.0979389999993,None,n,0.10672580000027665,1144.0979389999993,None,0.10672580000027665,,,114 sing,001,2022_Dec_01_1200,ProdSingRedoBetween,2021.2.3,59.94143721585849,
,,,,172,0,172,0,,,,,,,,,,,,,,,,,,,,,,1146.4806688999997,None,,,,,,,,,,,,,,,,,estate,0,173,sing,old,yellow,1144.752037100001,None,1144.752037100001,None,1,1.0206598000004306,1144.752037100001,None,1.0206598000004306,1145.797132900001,None,1146.3115866000007,None,1146.3115866000007,None,n,0.1409616000000824,1146.3115866000007,None,0.1409616000000824,,,114 sing,001,2022_Dec_01_1200,ProdSingRedoBetween,2021.2.3,59.94143721585849,
,,,,173,0,173,0,,,,,,,,,,,,,,,,,,,,,,1148.5989374,None,,,,,,,,,,,,,,,,,election,146,174,sing,new,null,1146.997026500001,None,1146.997026500001,None,1,0.8554594000015641,1146.997026500001,None,0.8554594000015641,1147.8823518999998,None,1148.4045583000006,None,1148.4045583000006,None,n,0.17608910000126343,1148.4045583000006,None,0.17608910000126343,,,114 sing,001,2022_Dec_01_1200,ProdSingRedoBetween,2021.2.3,59.94143721585849,
,,,,174,0,174,0,,,,,,,,,,,,,,,,,,,,,,1151.2683969000009,None,,,,,,,,,,,,,,,,,minute,4,175,sing,old,yellow,1149.1163089000001,None,1149.1163089000001,None,6,1.344295000000784,1149.1163089000001,None,1.344295000000784,1150.4841338000006,None,1150.9994315000004,None,1150.9994315000004,None,r,0.24517919999925653,1150.9994315000004,None,0.24517919999925653,,,114 sing,001,2022_Dec_01_1200,ProdSingRedoBetween,2021.2.3,59.94143721585849,
,,,,175,0,175,0,,,,,,,,,,,,,,,,,,,,,,1153.5368744999996,None,,,,,,,,,,,,,,,,,interior,87,176,sing,old,red,1151.7843095000007,None,1151.7843095000007,None,6,0.9242661999996926,1151.7843095000007,None,0.9242661999996926,1152.7382195999999,None,1153.2516945000007,None,1153.2516945000007,None,r,0.2650876999996399,1153.2516945000007,None,0.2650876999996399,,,114 sing,001,2022_Dec_01_1200,ProdSingRedoBetween,2021.2.3,59.94143721585849,
,,,,176,0,176,0,,,,,,,,,,,,,,,,,,,,,,1156.0394219999998,None,,,,,,,,,,,,,,,,,quarter,177,177,sing,new,null,1154.0568086000003,None,1154.0568086000003,None,1,1.2518040999984805,1154.0568086000003,None,1.2518040999984805,1155.3398326000006,None,1155.8550488,None,1155.8550488,None,n,0.1575714999999036,1155.8550488,None,0.1575714999999036,,,114 sing,001,2022_Dec_01_1200,ProdSingRedoBetween,2021.2.3,59.94143721585849,
,,,,177,0,177,0,,,,,,,,,,,,,,,,,,,,,,1158.658812400001,None,,,,,,,,,,,,,,,,,story,93,178,sing,new,null,1156.5573789999999,None,1156.5573789999999,None,5,1.4231709000014234,1156.5573789999999,None,1.4231709000014234,1158.0103013000007,None,1158.5241234000005,None,1158.5241234000005,None,f,0.1044965000000957,1158.5241234000005,None,0.1044965000000957,,,114 sing,001,2022_Dec_01_1200,ProdSingRedoBetween,2021.2.3,59.94143721585849,
,,,,178,0,178,0,,,,,,,,,,,,,,,,,,,,,,1161.2107276000006,None,,,,,,,,,,,,,,,,,treatment,168,179,sing,new,null,1159.159267000001,None,1159.159267000001,None,1,1.3733551000004809,1159.159267000001,None,1.3733551000004809,1160.5643450999996,None,1161.0763098999996,None,1161.0763098999996,None,n,0.10437539999838918,1161.0763098999996,None,0.10437539999838918,,,114 sing,001,2022_Dec_01_1200,ProdSingRedoBetween,2021.2.3,59.94143721585849,
,,,,179,0,179,0,,,,,,,,,,,,,,,,,,,,,,1163.846662,None,,,,,,,,,,,,,,,,,detective,68,180,sing,old,red,1161.7141176000005,None,1161.7141176000005,None,5,1.5064946999991662,1161.7141176000005,None,1.5064946999991662,1163.2484206999998,None,1163.7622164000004,None,1163.7622164000004,None,f,0.0664742999997543,1163.7622164000004,None,0.0664742999997543,,,114 sing,001,2022_Dec_01_1200,ProdSingRedoBetween,2021.2.3,59.94143721585849,
,,,,,,,,,,,,,,,,,,,,,,,,,,,,,,,,,,,,,,,,,,,,,,,,,,,,,,,,,,,,,,,,,,,,,,,,,1164.3512974999994,None,,,,,,,
