StudyLoop.thisRepN,StudyLoop.thisTrialN,StudyLoop.thisN,StudyLoop.thisIndex,TestLoop.thisRepN,TestLoop.thisTrialN,TestLoop.thisN,TestLoop.thisIndex,textCondition.started,textCondition.stopped,keyCondition.keys,keyCondition.rt,keyCondition.started,keyCondition.stopped,Condition,textWelcome.started,textWelcome.stopped,keyWelcome.keys,keyWelcome.rt,keyWelcome.started,keyWelcome.stopped,textAloud.started,textAloud.stopped,textSilent.started,textSilent.stopped,textSing.started,textSing.stopped,conditional_text.started,conditional_text.stopped,textBlank500.started,textBlank500.stopped,study_word,study_num,study_order,study_type,word_color,textStudy.started,textStudy.stopped,keyStudy.keys,keyStudy.started,keyStudy.stopped,textTestInstructions.started,textTestInstructions.stopped,key_resp_3.keys,key_resp_3.rt,key_resp_3.started,key_resp_3.stopped,test_word,test_num,test_order,test_condition,old_new_test,test_word_original_color,textConf.started,textConf.stopped,textConfScale.started,textConfScale.stopped,keyConf.keys,keyConf.rt,keyConf.started,keyConf.stopped,confidence response time,textTestBlank.started,textTestBlank.stopped,textRKN.started,textRKN.stopped,textRKNScale.started,textRKNScale.stopped,keyRKN.keys,keyRKN.rt,keyRKN.started,keyRKN.stopped,rkn response time,textEnd.started,textEnd.stopped,participant,session,date,expName,psychopyVersion,frameRate,
,,,,,,,,14.60530110000036,None,a,1.293363999999201,14.60530110000036,None,,,,,,,,,,,,,,,,,,,,,,,,,,,,,,,,,,,,,,,,,,,,,,,,,,,,,,,,,,,,,,115 silent,001,2022_Dec_01_1228,ProdSingRedoBetween,2021.2.3,59.87457474093426,
,,,,,,,,,,,,,,SilentTest,15.944991700000173,None,space,229.67362039999898,15.944991700000173,None,,,,,,,,,,,,,,,,,,,,,,,,,,,,,,,,,,,,,,,,,,,,,,,,,,,,,,,115 silent,001,2022_Dec_01_1228,ProdSingRedoBetween,2021.2.3,59.87457474093426,
0,0,0,0,,,,,,,,,,,,,,,,,,15.944991700000173,None,15.944991700000173,None,15.944991700000173,None,15.944991700000173,None,248.13684210000065,None,department,3,1,silent,yellow,246.13668210000105,None,None,246.13668210000105,None,,,,,,,,,,,,,,,,,,,,,,,,,,,,,,,,,,,115 silent,001,2022_Dec_01_1228,ProdSingRedoBetween,2021.2.3,59.87457474093426,
1,0,1,0,,,,,,,,,,,,,,,,,,,,,,,,,,250.6396789999999,None,community,39,2,silent,blue,248.64026000000013,None,None,248.64026000000013,None,,,,,,,,,,,,,,,,,,,,,,,,,,,,,,,,,,,115 silent,001,2022_Dec_01_1228,ProdSingRedoBetween,2021.2.3,59.87457474093426,
2,0,2,0,,,,,,,,,,,,,,,,,,,,,,,,,,253.14193859999978,None,fashion,41,3,silent,blue,251.14175960000102,None,None,251.14175960000102,None,,,,,,,,,,,,,,,,,,,,,,,,,,,,,,,,,,,115 silent,001,2022_Dec_01_1228,ProdSingRedoBetween,2021.2.3,59.87457474093426,
3,0,3,0,,,,,,,,,,,,,,,,,,,,,,,,,,255.644150600001,None,tennis,11,4,silent,yellow,253.64461680000022,None,None,253.64461680000022,None,,,,,,,,,,,,,,,,,,,,,,,,,,,,,,,,,,,115 silent,001,2022_Dec_01_1228,ProdSingRedoBetween,2021.2.3,59.87457474093426,
4,0,4,0,,,,,,,,,,,,,,,,,,,,,,,,,,258.14748860000145,None,owner,21,5,silent,yellow,256.1474460999998,None,None,256.1474460999998,None,,,,,,,,,,,,,,,,,,,,,,,,,,,,,,,,,,,115 silent,001,2022_Dec_01_1228,ProdSingRedoBetween,2021.2.3,59.87457474093426,
5,0,5,0,,,,,,,,,,,,,,,,,,,,,,,,,,260.6661942999999,None,concern,75,6,silent,red,258.65089120000084,None,None,258.65089120000084,None,,,,,,,,,,,,,,,,,,,,,,,,,,,,,,,,,,,115 silent,001,2022_Dec_01_1228,ProdSingRedoBetween,2021.2.3,59.87457474093426,
6,0,6,0,,,,,,,,,,,,,,,,,,,,,,,,,,263.1853045000007,None,danger,65,7,silent,red,261.1744931000012,None,None,261.1744931000012,None,,,,,,,,,,,,,,,,,,,,,,,,,,,,,,,,,,,115 silent,001,2022_Dec_01_1228,ProdSingRedoBetween,2021.2.3,59.87457474093426,
7,0,7,0,,,,,,,,,,,,,,,,,,,,,,,,,,265.7047899999998,None,majority,37,8,silent,blue,263.7058979000012,None,None,263.7058979000012,None,,,,,,,,,,,,,,,,,,,,,,,,,,,,,,,,,,,115 silent,001,2022_Dec_01_1228,ProdSingRedoBetween,2021.2.3,59.87457474093426,
8,0,8,0,,,,,,,,,,,,,,,,,,,,,,,,,,268.2070280000007,None,front,4,9,silent,yellow,266.2058465000009,None,None,266.2058465000009,None,,,,,,,,,,,,,,,,,,,,,,,,,,,,,,,,,,,115 silent,001,2022_Dec_01_1228,ProdSingRedoBetween,2021.2.3,59.87457474093426,
9,0,9,0,,,,,,,,,,,,,,,,,,,,,,,,,,270.7092112999999,None,broke,85,10,silent,red,268.7096806999998,None,None,268.7096806999998,None,,,,,,,,,,,,,,,,,,,,,,,,,,,,,,,,,,,115 silent,001,2022_Dec_01_1228,ProdSingRedoBetween,2021.2.3,59.87457474093426,
10,0,10,0,,,,,,,,,,,,,,,,,,,,,,,,,,273.2129253000003,None,income,32,11,silent,blue,271.21003680000103,None,None,271.21003680000103,None,,,,,,,,,,,,,,,,,,,,,,,,,,,,,,,,,,,115 silent,001,2022_Dec_01_1228,ProdSingRedoBetween,2021.2.3,59.87457474093426,
11,0,11,0,,,,,,,,,,,,,,,,,,,,,,,,,,275.714612400001,None,instrument,74,12,silent,red,273.71419810000043,None,None,273.71419810000043,None,,,,,,,,,,,,,,,,,,,,,,,,,,,,,,,,,,,115 silent,001,2022_Dec_01_1228,ProdSingRedoBetween,2021.2.3,59.87457474093426,
12,0,12,0,,,,,,,,,,,,,,,,,,,,,,,,,,278.2337316000012,None,search,63,13,silent,red,276.21863210000083,None,None,276.21863210000083,None,,,,,,,,,,,,,,,,,,,,,,,,,,,,,,,,,,,115 silent,001,2022_Dec_01_1228,ProdSingRedoBetween,2021.2.3,59.87457474093426,
13,0,13,0,,,,,,,,,,,,,,,,,,,,,,,,,,280.75556810000126,None,quick,34,14,silent,blue,278.73834630000056,None,None,278.73834630000056,None,,,,,,,,,,,,,,,,,,,,,,,,,,,,,,,,,,,115 silent,001,2022_Dec_01_1228,ProdSingRedoBetween,2021.2.3,59.87457474093426,
14,0,14,0,,,,,,,,,,,,,,,,,,,,,,,,,,283.25586980000116,None,clear,59,15,silent,yellow,281.2557032000004,None,None,281.2557032000004,None,,,,,,,,,,,,,,,,,,,,,,,,,,,,,,,,,,,115 silent,001,2022_Dec_01_1228,ProdSingRedoBetween,2021.2.3,59.87457474093426,
15,0,15,0,,,,,,,,,,,,,,,,,,,,,,,,,,285.75769450000007,None,skill,13,16,silent,yellow,283.7584217000003,None,None,283.7584217000003,None,,,,,,,,,,,,,,,,,,,,,,,,,,,,,,,,,,,115 silent,001,2022_Dec_01_1228,ProdSingRedoBetween,2021.2.3,59.87457474093426,
16,0,16,0,,,,,,,,,,,,,,,,,,,,,,,,,,288.27718620000087,None,suggestion,49,17,silent,blue,286.2620618000001,None,None,286.2620618000001,None,,,,,,,,,,,,,,,,,,,,,,,,,,,,,,,,,,,115 silent,001,2022_Dec_01_1228,ProdSingRedoBetween,2021.2.3,59.87457474093426,
17,0,17,0,,,,,,,,,,,,,,,,,,,,,,,,,,290.77987920000123,None,shape,56,18,silent,blue,288.7787569000011,None,None,288.7787569000011,None,,,,,,,,,,,,,,,,,,,,,,,,,,,,,,,,,,,115 silent,001,2022_Dec_01_1228,ProdSingRedoBetween,2021.2.3,59.87457474093426,
18,0,18,0,,,,,,,,,,,,,,,,,,,,,,,,,,293.28242750000027,None,native,71,19,silent,red,291.2832079,None,None,291.2832079,None,,,,,,,,,,,,,,,,,,,,,,,,,,,,,,,,,,,115 silent,001,2022_Dec_01_1228,ProdSingRedoBetween,2021.2.3,59.87457474093426,
19,0,19,0,,,,,,,,,,,,,,,,,,,,,,,,,,295.8014370000001,None,question,2,20,silent,yellow,293.7874118,None,None,293.7874118,None,,,,,,,,,,,,,,,,,,,,,,,,,,,,,,,,,,,115 silent,001,2022_Dec_01_1228,ProdSingRedoBetween,2021.2.3,59.87457474093426,
20,0,20,0,,,,,,,,,,,,,,,,,,,,,,,,,,298.3207097000013,None,bright,1,21,silent,yellow,296.3052677000014,None,None,296.3052677000014,None,,,,,,,,,,,,,,,,,,,,,,,,,,,,,,,,,,,115 silent,001,2022_Dec_01_1228,ProdSingRedoBetween,2021.2.3,59.87457474093426,
21,0,21,0,,,,,,,,,,,,,,,,,,,,,,,,,,300.8227845000001,None,break,6,22,silent,yellow,298.82180100000005,None,None,298.82180100000005,None,,,,,,,,,,,,,,,,,,,,,,,,,,,,,,,,,,,115 silent,001,2022_Dec_01_1228,ProdSingRedoBetween,2021.2.3,59.87457474093426,
22,0,22,0,,,,,,,,,,,,,,,,,,,,,,,,,,303.32537690000026,None,leader,18,23,silent,yellow,301.32584360000146,None,None,301.32584360000146,None,,,,,,,,,,,,,,,,,,,,,,,,,,,,,,,,,,,115 silent,001,2022_Dec_01_1228,ProdSingRedoBetween,2021.2.3,59.87457474093426,
23,0,23,0,,,,,,,,,,,,,,,,,,,,,,,,,,305.8291773000001,None,dispute,19,24,silent,yellow,303.8286484,None,None,303.8286484,None,,,,,,,,,,,,,,,,,,,,,,,,,,,,,,,,,,,115 silent,001,2022_Dec_01_1228,ProdSingRedoBetween,2021.2.3,59.87457474093426,
24,0,24,0,,,,,,,,,,,,,,,,,,,,,,,,,,308.3305539000012,None,surprise,73,25,silent,red,306.3309644000001,None,None,306.3309644000001,None,,,,,,,,,,,,,,,,,,,,,,,,,,,,,,,,,,,115 silent,001,2022_Dec_01_1228,ProdSingRedoBetween,2021.2.3,59.87457474093426,
25,0,25,0,,,,,,,,,,,,,,,,,,,,,,,,,,310.84956950000014,None,material,46,26,silent,blue,308.8362782000004,None,None,308.8362782000004,None,,,,,,,,,,,,,,,,,,,,,,,,,,,,,,,,,,,115 silent,001,2022_Dec_01_1228,ProdSingRedoBetween,2021.2.3,59.87457474093426,
26,0,26,0,,,,,,,,,,,,,,,,,,,,,,,,,,313.35241440000027,None,expansion,83,27,silent,red,311.3509603000002,None,None,311.3509603000002,None,,,,,,,,,,,,,,,,,,,,,,,,,,,,,,,,,,,115 silent,001,2022_Dec_01_1228,ProdSingRedoBetween,2021.2.3,59.87457474093426,
27,0,27,0,,,,,,,,,,,,,,,,,,,,,,,,,,315.8551673000002,None,trend,27,28,silent,yellow,313.85372310000093,None,None,313.85372310000093,None,,,,,,,,,,,,,,,,,,,,,,,,,,,,,,,,,,,115 silent,001,2022_Dec_01_1228,ProdSingRedoBetween,2021.2.3,59.87457474093426,
28,0,28,0,,,,,,,,,,,,,,,,,,,,,,,,,,318.37379110000074,None,citizen,62,29,silent,red,316.35828820000097,None,None,316.35828820000097,None,,,,,,,,,,,,,,,,,,,,,,,,,,,,,,,,,,,115 silent,001,2022_Dec_01_1228,ProdSingRedoBetween,2021.2.3,59.87457474093426,
29,0,29,0,,,,,,,,,,,,,,,,,,,,,,,,,,320.8763119000014,None,foundation,33,30,silent,blue,318.8757304999999,None,None,318.8757304999999,None,,,,,,,,,,,,,,,,,,,,,,,,,,,,,,,,,,,115 silent,001,2022_Dec_01_1228,ProdSingRedoBetween,2021.2.3,59.87457474093426,
30,0,30,0,,,,,,,,,,,,,,,,,,,,,,,,,,323.37850609999987,None,judge,25,31,silent,yellow,321.3794708000005,None,None,321.3794708000005,None,,,,,,,,,,,,,,,,,,,,,,,,,,,,,,,,,,,115 silent,001,2022_Dec_01_1228,ProdSingRedoBetween,2021.2.3,59.87457474093426,
31,0,31,0,,,,,,,,,,,,,,,,,,,,,,,,,,325.8813160999998,None,mayor,10,32,silent,yellow,323.8818449999999,None,None,323.8818449999999,None,,,,,,,,,,,,,,,,,,,,,,,,,,,,,,,,,,,115 silent,001,2022_Dec_01_1228,ProdSingRedoBetween,2021.2.3,59.87457474093426,
32,0,32,0,,,,,,,,,,,,,,,,,,,,,,,,,,328.3841975000014,None,candidate,77,33,silent,red,326.3846222000011,None,None,326.3846222000011,None,,,,,,,,,,,,,,,,,,,,,,,,,,,,,,,,,,,115 silent,001,2022_Dec_01_1228,ProdSingRedoBetween,2021.2.3,59.87457474093426,
33,0,33,0,,,,,,,,,,,,,,,,,,,,,,,,,,330.88604470000064,None,article,40,34,silent,blue,328.8847342000008,None,None,328.8847342000008,None,,,,,,,,,,,,,,,,,,,,,,,,,,,,,,,,,,,115 silent,001,2022_Dec_01_1228,ProdSingRedoBetween,2021.2.3,59.87457474093426,
34,0,34,0,,,,,,,,,,,,,,,,,,,,,,,,,,333.4064049000008,None,fight,86,35,silent,red,331.39549290000105,None,None,331.39549290000105,None,,,,,,,,,,,,,,,,,,,,,,,,,,,,,,,,,,,115 silent,001,2022_Dec_01_1228,ProdSingRedoBetween,2021.2.3,59.87457474093426,
35,0,35,0,,,,,,,,,,,,,,,,,,,,,,,,,,335.9079743000002,None,public,28,36,silent,yellow,333.9077756000006,None,None,333.9077756000006,None,,,,,,,,,,,,,,,,,,,,,,,,,,,,,,,,,,,115 silent,001,2022_Dec_01_1228,ProdSingRedoBetween,2021.2.3,59.87457474093426,
36,0,36,0,,,,,,,,,,,,,,,,,,,,,,,,,,338.4102275000005,None,match,54,37,silent,blue,336.40899700000045,None,None,336.40899700000045,None,,,,,,,,,,,,,,,,,,,,,,,,,,,,,,,,,,,115 silent,001,2022_Dec_01_1228,ProdSingRedoBetween,2021.2.3,59.87457474093426,
37,0,37,0,,,,,,,,,,,,,,,,,,,,,,,,,,340.91336450000017,None,division,76,38,silent,red,338.91290050000134,None,None,338.91290050000134,None,,,,,,,,,,,,,,,,,,,,,,,,,,,,,,,,,,,115 silent,001,2022_Dec_01_1228,ProdSingRedoBetween,2021.2.3,59.87457474093426,
38,0,38,0,,,,,,,,,,,,,,,,,,,,,,,,,,343.41550740000093,None,literature,26,39,silent,yellow,341.4145841999998,None,None,341.4145841999998,None,,,,,,,,,,,,,,,,,,,,,,,,,,,,,,,,,,,115 silent,001,2022_Dec_01_1228,ProdSingRedoBetween,2021.2.3,59.87457474093426,
39,0,39,0,,,,,,,,,,,,,,,,,,,,,,,,,,345.91784110000117,None,career,47,40,silent,blue,343.9161064,None,None,343.9161064,None,,,,,,,,,,,,,,,,,,,,,,,,,,,,,,,,,,,115 silent,001,2022_Dec_01_1228,ProdSingRedoBetween,2021.2.3,59.87457474093426,
40,0,40,0,,,,,,,,,,,,,,,,,,,,,,,,,,348.43815540000105,None,measure,55,41,silent,blue,346.4217653000014,None,None,346.4217653000014,None,,,,,,,,,,,,,,,,,,,,,,,,,,,,,,,,,,,115 silent,001,2022_Dec_01_1228,ProdSingRedoBetween,2021.2.3,59.87457474093426,
41,0,41,0,,,,,,,,,,,,,,,,,,,,,,,,,,350.9398835000011,None,health,87,42,silent,red,348.9400190000015,None,None,348.9400190000015,None,,,,,,,,,,,,,,,,,,,,,,,,,,,,,,,,,,,115 silent,001,2022_Dec_01_1228,ProdSingRedoBetween,2021.2.3,59.87457474093426,
42,0,42,0,,,,,,,,,,,,,,,,,,,,,,,,,,353.4422689000003,None,right,66,43,silent,red,351.44281820000106,None,None,351.44281820000106,None,,,,,,,,,,,,,,,,,,,,,,,,,,,,,,,,,,,115 silent,001,2022_Dec_01_1228,ProdSingRedoBetween,2021.2.3,59.87457474093426,
43,0,43,0,,,,,,,,,,,,,,,,,,,,,,,,,,355.9444947000011,None,series,84,44,silent,red,353.9449101000009,None,None,353.9449101000009,None,,,,,,,,,,,,,,,,,,,,,,,,,,,,,,,,,,,115 silent,001,2022_Dec_01_1228,ProdSingRedoBetween,2021.2.3,59.87457474093426,
44,0,44,0,,,,,,,,,,,,,,,,,,,,,,,,,,358.44717910000145,None,treatment,67,45,silent,red,356.4457542,None,None,356.4457542,None,,,,,,,,,,,,,,,,,,,,,,,,,,,,,,,,,,,115 silent,001,2022_Dec_01_1228,ProdSingRedoBetween,2021.2.3,59.87457474093426,
45,0,45,0,,,,,,,,,,,,,,,,,,,,,,,,,,360.9504323000001,None,frank,58,46,silent,blue,358.94983839999986,None,None,358.94983839999986,None,,,,,,,,,,,,,,,,,,,,,,,,,,,,,,,,,,,115 silent,001,2022_Dec_01_1228,ProdSingRedoBetween,2021.2.3,59.87457474093426,
46,0,46,0,,,,,,,,,,,,,,,,,,,,,,,,,,363.4522947000005,None,discussion,48,47,silent,blue,361.4530523000012,None,None,361.4530523000012,None,,,,,,,,,,,,,,,,,,,,,,,,,,,,,,,,,,,115 silent,001,2022_Dec_01_1228,ProdSingRedoBetween,2021.2.3,59.87457474093426,
47,0,47,0,,,,,,,,,,,,,,,,,,,,,,,,,,365.97135460000027,None,minute,23,48,silent,yellow,363.9568739000006,None,None,363.9568739000006,None,,,,,,,,,,,,,,,,,,,,,,,,,,,,,,,,,,,115 silent,001,2022_Dec_01_1228,ProdSingRedoBetween,2021.2.3,59.87457474093426,
48,0,48,0,,,,,,,,,,,,,,,,,,,,,,,,,,368.4908770000002,None,express,29,49,silent,blue,366.4764453000007,None,None,366.4764453000007,None,,,,,,,,,,,,,,,,,,,,,,,,,,,,,,,,,,,115 silent,001,2022_Dec_01_1228,ProdSingRedoBetween,2021.2.3,59.87457474093426,
49,0,49,0,,,,,,,,,,,,,,,,,,,,,,,,,,370.99320160000025,None,patient,72,50,silent,red,368.9915689999998,None,None,368.9915689999998,None,,,,,,,,,,,,,,,,,,,,,,,,,,,,,,,,,,,115 silent,001,2022_Dec_01_1228,ProdSingRedoBetween,2021.2.3,59.87457474093426,
50,0,50,0,,,,,,,,,,,,,,,,,,,,,,,,,,373.49615710000035,None,attack,68,51,silent,red,371.49664720000146,None,None,371.49664720000146,None,,,,,,,,,,,,,,,,,,,,,,,,,,,,,,,,,,,115 silent,001,2022_Dec_01_1228,ProdSingRedoBetween,2021.2.3,59.87457474093426,
51,0,51,0,,,,,,,,,,,,,,,,,,,,,,,,,,375.9981187000012,None,problem,79,52,silent,red,373.9979473000003,None,None,373.9979473000003,None,,,,,,,,,,,,,,,,,,,,,,,,,,,,,,,,,,,115 silent,001,2022_Dec_01_1228,ProdSingRedoBetween,2021.2.3,59.87457474093426,
52,0,52,0,,,,,,,,,,,,,,,,,,,,,,,,,,378.5007191000004,None,review,61,53,silent,red,376.5009103000011,None,None,376.5009103000011,None,,,,,,,,,,,,,,,,,,,,,,,,,,,,,,,,,,,115 silent,001,2022_Dec_01_1228,ProdSingRedoBetween,2021.2.3,59.87457474093426,
53,0,53,0,,,,,,,,,,,,,,,,,,,,,,,,,,381.0033562000008,None,fellow,52,54,silent,blue,379.00395949999984,None,None,379.00395949999984,None,,,,,,,,,,,,,,,,,,,,,,,,,,,,,,,,,,,115 silent,001,2022_Dec_01_1228,ProdSingRedoBetween,2021.2.3,59.87457474093426,
54,0,54,0,,,,,,,,,,,,,,,,,,,,,,,,,,383.52252170000065,None,motion,57,55,silent,blue,381.51525220000076,None,None,381.51525220000076,None,,,,,,,,,,,,,,,,,,,,,,,,,,,,,,,,,,,115 silent,001,2022_Dec_01_1228,ProdSingRedoBetween,2021.2.3,59.87457474093426,
55,0,55,0,,,,,,,,,,,,,,,,,,,,,,,,,,386.04152070000055,None,smell,88,56,silent,red,384.02710470000056,None,None,384.02710470000056,None,,,,,,,,,,,,,,,,,,,,,,,,,,,,,,,,,,,115 silent,001,2022_Dec_01_1228,ProdSingRedoBetween,2021.2.3,59.87457474093426,
56,0,56,0,,,,,,,,,,,,,,,,,,,,,,,,,,388.56049150000035,None,worker,89,57,silent,red,386.54515710000123,None,None,386.54515710000123,None,,,,,,,,,,,,,,,,,,,,,,,,,,,,,,,,,,,115 silent,001,2022_Dec_01_1228,ProdSingRedoBetween,2021.2.3,59.87457474093426,
57,0,57,0,,,,,,,,,,,,,,,,,,,,,,,,,,391.06322680000085,None,meeting,43,58,silent,blue,389.0609921000014,None,None,389.0609921000014,None,,,,,,,,,,,,,,,,,,,,,,,,,,,,,,,,,,,115 silent,001,2022_Dec_01_1228,ProdSingRedoBetween,2021.2.3,59.87457474093426,
58,0,58,0,,,,,,,,,,,,,,,,,,,,,,,,,,393.56565880000016,None,junior,51,59,silent,blue,391.56623390000095,None,None,391.56623390000095,None,,,,,,,,,,,,,,,,,,,,,,,,,,,,,,,,,,,115 silent,001,2022_Dec_01_1228,ProdSingRedoBetween,2021.2.3,59.87457474093426,
59,0,59,0,,,,,,,,,,,,,,,,,,,,,,,,,,396.0848633000005,None,appearance,82,60,silent,red,394.0704553000014,None,None,394.0704553000014,None,,,,,,,,,,,,,,,,,,,,,,,,,,,,,,,,,,,115 silent,001,2022_Dec_01_1228,ProdSingRedoBetween,2021.2.3,59.87457474093426,
60,0,60,0,,,,,,,,,,,,,,,,,,,,,,,,,,398.6036187999998,None,audience,70,61,silent,red,396.59181680000074,None,None,396.59181680000074,None,,,,,,,,,,,,,,,,,,,,,,,,,,,,,,,,,,,115 silent,001,2022_Dec_01_1228,ProdSingRedoBetween,2021.2.3,59.87457474093426,
61,0,61,0,,,,,,,,,,,,,,,,,,,,,,,,,,401.10655580000093,None,novel,53,62,silent,blue,399.1047369000007,None,None,399.1047369000007,None,,,,,,,,,,,,,,,,,,,,,,,,,,,,,,,,,,,115 silent,001,2022_Dec_01_1228,ProdSingRedoBetween,2021.2.3,59.87457474093426,
62,0,62,0,,,,,,,,,,,,,,,,,,,,,,,,,,403.609261900001,None,narrow,31,63,silent,blue,401.6083785999999,None,None,401.6083785999999,None,,,,,,,,,,,,,,,,,,,,,,,,,,,,,,,,,,,115 silent,001,2022_Dec_01_1228,ProdSingRedoBetween,2021.2.3,59.87457474093426,
63,0,63,0,,,,,,,,,,,,,,,,,,,,,,,,,,406.1283254000009,None,crisis,15,64,silent,yellow,404.1133942000015,None,None,404.1133942000015,None,,,,,,,,,,,,,,,,,,,,,,,,,,,,,,,,,,,115 silent,001,2022_Dec_01_1228,ProdSingRedoBetween,2021.2.3,59.87457474093426,
64,0,64,0,,,,,,,,,,,,,,,,,,,,,,,,,,408.647686100001,None,pressure,30,65,silent,blue,406.632259,None,None,406.632259,None,,,,,,,,,,,,,,,,,,,,,,,,,,,,,,,,,,,115 silent,001,2022_Dec_01_1228,ProdSingRedoBetween,2021.2.3,59.87457474093426,
65,0,65,0,,,,,,,,,,,,,,,,,,,,,,,,,,411.1500356000015,None,raise,12,66,silent,yellow,409.1501592000004,None,None,409.1501592000004,None,,,,,,,,,,,,,,,,,,,,,,,,,,,,,,,,,,,115 silent,001,2022_Dec_01_1228,ProdSingRedoBetween,2021.2.3,59.87457474093426,
66,0,66,0,,,,,,,,,,,,,,,,,,,,,,,,,,413.66960720000134,None,position,20,67,silent,yellow,411.66102110000065,None,None,411.66102110000065,None,,,,,,,,,,,,,,,,,,,,,,,,,,,,,,,,,,,115 silent,001,2022_Dec_01_1228,ProdSingRedoBetween,2021.2.3,59.87457474093426,
67,0,67,0,,,,,,,,,,,,,,,,,,,,,,,,,,416.17167060000065,None,accident,50,68,silent,blue,414.17197280000073,None,None,414.17197280000073,None,,,,,,,,,,,,,,,,,,,,,,,,,,,,,,,,,,,115 silent,001,2022_Dec_01_1228,ProdSingRedoBetween,2021.2.3,59.87457474093426,
68,0,68,0,,,,,,,,,,,,,,,,,,,,,,,,,,418.6908961000008,None,design,64,69,silent,red,416.6759536999998,None,None,416.6759536999998,None,,,,,,,,,,,,,,,,,,,,,,,,,,,,,,,,,,,115 silent,001,2022_Dec_01_1228,ProdSingRedoBetween,2021.2.3,59.87457474093426,
69,0,69,0,,,,,,,,,,,,,,,,,,,,,,,,,,421.19322869999996,None,direction,9,70,silent,yellow,419.1933630000003,None,None,419.1933630000003,None,,,,,,,,,,,,,,,,,,,,,,,,,,,,,,,,,,,115 silent,001,2022_Dec_01_1228,ProdSingRedoBetween,2021.2.3,59.87457474093426,
70,0,70,0,,,,,,,,,,,,,,,,,,,,,,,,,,423.6960267000013,None,household,44,71,silent,blue,421.6960190000009,None,None,421.6960190000009,None,,,,,,,,,,,,,,,,,,,,,,,,,,,,,,,,,,,115 silent,001,2022_Dec_01_1228,ProdSingRedoBetween,2021.2.3,59.87457474093426,
71,0,71,0,,,,,,,,,,,,,,,,,,,,,,,,,,426.1983493000007,None,route,0,72,silent,yellow,424.19901840000057,None,None,424.19901840000057,None,,,,,,,,,,,,,,,,,,,,,,,,,,,,,,,,,,,115 silent,001,2022_Dec_01_1228,ProdSingRedoBetween,2021.2.3,59.87457474093426,
72,0,72,0,,,,,,,,,,,,,,,,,,,,,,,,,,428.71756450000066,None,atmosphere,7,73,silent,yellow,426.70277840000017,None,None,426.70277840000017,None,,,,,,,,,,,,,,,,,,,,,,,,,,,,,,,,,,,115 silent,001,2022_Dec_01_1228,ProdSingRedoBetween,2021.2.3,59.87457474093426,
73,0,73,0,,,,,,,,,,,,,,,,,,,,,,,,,,431.22061440000107,None,smooth,24,74,silent,yellow,429.2201612000008,None,None,429.2201612000008,None,,,,,,,,,,,,,,,,,,,,,,,,,,,,,,,,,,,115 silent,001,2022_Dec_01_1228,ProdSingRedoBetween,2021.2.3,59.87457474093426,
74,0,74,0,,,,,,,,,,,,,,,,,,,,,,,,,,433.7398229999999,None,angle,36,75,silent,blue,431.7238307000007,None,None,431.7238307000007,None,,,,,,,,,,,,,,,,,,,,,,,,,,,,,,,,,,,115 silent,001,2022_Dec_01_1228,ProdSingRedoBetween,2021.2.3,59.87457474093426,
75,0,75,0,,,,,,,,,,,,,,,,,,,,,,,,,,436.24137540000083,None,quiet,80,76,silent,red,434.24162179999985,None,None,434.24162179999985,None,,,,,,,,,,,,,,,,,,,,,,,,,,,,,,,,,,,115 silent,001,2022_Dec_01_1228,ProdSingRedoBetween,2021.2.3,59.87457474093426,
76,0,76,0,,,,,,,,,,,,,,,,,,,,,,,,,,438.7444121999997,None,heavy,42,77,silent,blue,436.7445007000006,None,None,436.7445007000006,None,,,,,,,,,,,,,,,,,,,,,,,,,,,,,,,,,,,115 silent,001,2022_Dec_01_1228,ProdSingRedoBetween,2021.2.3,59.87457474093426,
77,0,77,0,,,,,,,,,,,,,,,,,,,,,,,,,,441.263476600001,None,enemy,16,78,silent,yellow,439.2493441000006,None,None,439.2493441000006,None,,,,,,,,,,,,,,,,,,,,,,,,,,,,,,,,,,,115 silent,001,2022_Dec_01_1228,ProdSingRedoBetween,2021.2.3,59.87457474093426,
78,0,78,0,,,,,,,,,,,,,,,,,,,,,,,,,,443.7659703999998,None,weight,78,79,silent,red,441.7656760000009,None,None,441.7656760000009,None,,,,,,,,,,,,,,,,,,,,,,,,,,,,,,,,,,,115 silent,001,2022_Dec_01_1228,ProdSingRedoBetween,2021.2.3,59.87457474093426,
79,0,79,0,,,,,,,,,,,,,,,,,,,,,,,,,,446.28539180000007,None,shear,38,80,silent,blue,444.2698677999997,None,None,444.2698677999997,None,,,,,,,,,,,,,,,,,,,,,,,,,,,,,,,,,,,115 silent,001,2022_Dec_01_1228,ProdSingRedoBetween,2021.2.3,59.87457474093426,
80,0,80,0,,,,,,,,,,,,,,,,,,,,,,,,,,448.80461730000025,None,reading,69,81,silent,red,446.78962350000074,None,None,446.78962350000074,None,,,,,,,,,,,,,,,,,,,,,,,,,,,,,,,,,,,115 silent,001,2022_Dec_01_1228,ProdSingRedoBetween,2021.2.3,59.87457474093426,
81,0,81,0,,,,,,,,,,,,,,,,,,,,,,,,,,451.3065974000001,None,store,60,82,silent,red,449.30585900000005,None,None,449.30585900000005,None,,,,,,,,,,,,,,,,,,,,,,,,,,,,,,,,,,,115 silent,001,2022_Dec_01_1228,ProdSingRedoBetween,2021.2.3,59.87457474093426,
82,0,82,0,,,,,,,,,,,,,,,,,,,,,,,,,,453.82580530000087,None,engineer,45,83,silent,blue,451.8212937999997,None,None,451.8212937999997,None,,,,,,,,,,,,,,,,,,,,,,,,,,,,,,,,,,,115 silent,001,2022_Dec_01_1228,ProdSingRedoBetween,2021.2.3,59.87457474093426,
83,0,83,0,,,,,,,,,,,,,,,,,,,,,,,,,,456.32870770000045,None,balance,8,84,silent,yellow,454.32632639999974,None,None,454.32632639999974,None,,,,,,,,,,,,,,,,,,,,,,,,,,,,,,,,,,,115 silent,001,2022_Dec_01_1228,ProdSingRedoBetween,2021.2.3,59.87457474093426,
84,0,84,0,,,,,,,,,,,,,,,,,,,,,,,,,,458.8478430000014,None,service,81,85,silent,red,456.83737570000085,None,None,456.83737570000085,None,,,,,,,,,,,,,,,,,,,,,,,,,,,,,,,,,,,115 silent,001,2022_Dec_01_1228,ProdSingRedoBetween,2021.2.3,59.87457474093426,
85,0,85,0,,,,,,,,,,,,,,,,,,,,,,,,,,461.366928200001,None,opening,22,86,silent,yellow,459.35221249999995,None,None,459.35221249999995,None,,,,,,,,,,,,,,,,,,,,,,,,,,,,,,,,,,,115 silent,001,2022_Dec_01_1228,ProdSingRedoBetween,2021.2.3,59.87457474093426,
86,0,86,0,,,,,,,,,,,,,,,,,,,,,,,,,,463.8692533000012,None,contract,14,87,silent,yellow,461.869568600001,None,None,461.869568600001,None,,,,,,,,,,,,,,,,,,,,,,,,,,,,,,,,,,,115 silent,001,2022_Dec_01_1228,ProdSingRedoBetween,2021.2.3,59.87457474093426,
87,0,87,0,,,,,,,,,,,,,,,,,,,,,,,,,,466.3718110000009,None,second,5,88,silent,yellow,464.37267690000044,None,None,464.37267690000044,None,,,,,,,,,,,,,,,,,,,,,,,,,,,,,,,,,,,115 silent,001,2022_Dec_01_1228,ProdSingRedoBetween,2021.2.3,59.87457474093426,
88,0,88,0,,,,,,,,,,,,,,,,,,,,,,,,,,468.8909343000014,None,religion,35,89,silent,blue,466.8785294999998,None,None,466.8785294999998,None,,,,,,,,,,,,,,,,,,,,,,,,,,,,,,,,,,,115 silent,001,2022_Dec_01_1228,ProdSingRedoBetween,2021.2.3,59.87457474093426,
89,0,89,0,,,,,,,,,,,,,,,,,,,,,,,,,,471.3932657000005,None,evidence,17,90,silent,yellow,469.3934504000008,None,None,469.3934504000008,None,,,,,,,,,,,,,,,,,,,,,,,,,,,,,,,,,,,115 silent,001,2022_Dec_01_1228,ProdSingRedoBetween,2021.2.3,59.87457474093426,
,,,,,,,,,,,,,,,,,,,,,,,,,,,,,,,,,,,,,,,,,471.8938545000001,None,k,51.15434970000024,471.8938545000001,None,,,,,,,,,,,,,,,,,,,,,,,,,,,,,115 silent,001,2022_Dec_01_1228,ProdSingRedoBetween,2021.2.3,59.87457474093426,
,,,,0,0,0,0,,,,,,,,,,,,,,,,,,,,,,543.4296656000006,None,,,,,,,,,,,,,,,,,reading,69,1,silent,old,red,523.5917995,None,523.5917995,None,6,17.231138699999065,523.5917995,None,17.231138699999065,540.8492849000013,None,541.363814100001,None,541.363814100001,None,r,2.0211577999998553,541.363814100001,None,2.0211577999998553,,,115 silent,001,2022_Dec_01_1228,ProdSingRedoBetween,2021.2.3,59.87457474093426,
,,,,1,0,1,0,,,,,,,,,,,,,,,,,,,,,,551.2579717000008,None,,,,,,,,,,,,,,,,,motion,57,2,silent,old,blue,543.9339231000013,None,543.9339231000013,None,2,5.501373600000079,543.9339231000013,None,5.501373600000079,549.4571627000005,None,549.9718749000003,None,549.9718749000003,None,f,1.2633230999999796,549.9718749000003,None,1.2633230999999796,,,115 silent,001,2022_Dec_01_1228,ProdSingRedoBetween,2021.2.3,59.87457474093426,
,,,,2,0,2,0,,,,,,,,,,,,,,,,,,,,,,555.0288697000015,None,,,,,,,,,,,,,,,,,enemy,16,3,silent,old,yellow,551.759352000001,None,551.759352000001,None,6,2.4187400999999227,551.759352000001,None,2.4187400999999227,554.2064073000001,None,554.7127942000006,None,554.7127942000006,None,r,0.288628800000879,554.7127942000006,None,0.288628800000879,,,115 silent,001,2022_Dec_01_1228,ProdSingRedoBetween,2021.2.3,59.87457474093426,
,,,,3,0,3,0,,,,,,,,,,,,,,,,,,,,,,560.1004604000009,None,,,,,,,,,,,,,,,,,write,151,4,silent,new,null,555.5460887999998,None,555.5460887999998,None,3,2.357199500000206,555.5460887999998,None,2.357199500000206,557.9319696000002,None,558.453311700001,None,558.453311700001,None,n,1.6258001000005606,558.453311700001,None,1.6258001000005606,,,115 silent,001,2022_Dec_01_1228,ProdSingRedoBetween,2021.2.3,59.87457474093426,
,,,,4,0,4,0,,,,,,,,,,,,,,,,,,,,,,564.3047615000014,None,,,,,,,,,,,,,,,,,passage,142,5,silent,new,null,560.6182031000008,None,560.6182031000008,None,1,2.115180099999634,560.6182031000008,None,2.115180099999634,562.7541053000004,None,563.2689415000004,None,563.2689415000004,None,n,1.0046722000006412,563.2689415000004,None,1.0046722000006412,,,115 silent,001,2022_Dec_01_1228,ProdSingRedoBetween,2021.2.3,59.87457474093426,
,,,,5,0,5,0,,,,,,,,,,,,,,,,,,,,,,567.9744123,None,,,,,,,,,,,,,,,,,trail,141,6,silent,new,null,564.8219804,None,564.8219804,None,1,2.273272000000361,564.8219804,None,2.273272000000361,567.1252850000001,None,567.6402317000011,None,567.6402317000011,None,n,0.3172001000002638,567.6402317000011,None,0.3172001000002638,,,115 silent,001,2022_Dec_01_1228,ProdSingRedoBetween,2021.2.3,59.87457474093426,
,,,,6,0,6,0,,,,,,,,,,,,,,,,,,,,,,571.1619842,None,,,,,,,,,,,,,,,,,concern,75,7,silent,old,red,568.4763156000008,None,568.4763156000008,None,6,1.8557382999988477,568.4763156000008,None,1.8557382999988477,570.3621309000009,None,570.8762493000013,None,570.8762493000013,None,r,0.2568830000000162,570.8762493000013,None,0.2568830000000162,,,115 silent,001,2022_Dec_01_1228,ProdSingRedoBetween,2021.2.3,59.87457474093426,
,,,,7,0,7,0,,,,,,,,,,,,,,,,,,,,,,574.2639364000006,None,,,,,,,,,,,,,,,,,short,147,8,silent,new,null,571.6912805000011,None,571.6912805000011,None,1,1.5946586999998544,571.6912805000011,None,1.5946586999998544,573.3150643999998,None,573.8290305999999,None,573.8290305999999,None,n,0.4137919000004331,573.8290305999999,None,0.4137919000004331,,,115 silent,001,2022_Dec_01_1228,ProdSingRedoBetween,2021.2.3,59.87457474093426,
,,,,8,0,8,0,,,,,,,,,,,,,,,,,,,,,,577.1670585000011,None,,,,,,,,,,,,,,,,,chief,128,9,silent,new,null,574.7660577000006,None,574.7660577000006,None,1,1.2251254999991943,574.7660577000006,None,1.2251254999991943,576.0171386000002,None,576.5333461000009,None,576.5333461000009,None,n,0.6166853000013361,576.5333461000009,None,0.6166853000013361,,,115 silent,001,2022_Dec_01_1228,ProdSingRedoBetween,2021.2.3,59.87457474093426,
,,,,9,0,9,0,,,,,,,,,,,,,,,,,,,,,,581.4510117000009,None,,,,,,,,,,,,,,,,,danger,65,10,silent,old,red,577.6732111000001,None,577.6732111000001,None,6,2.3107071000013093,577.6732111000001,None,2.3107071000013093,580.0042792000004,None,580.519968300001,None,580.519968300001,None,r,0.8870719999995345,580.519968300001,None,0.8870719999995345,,,115 silent,001,2022_Dec_01_1228,ProdSingRedoBetween,2021.2.3,59.87457474093426,
,,,,10,0,10,0,,,,,,,,,,,,,,,,,,,,,,585.2920704000007,None,,,,,,,,,,,,,,,,,judge,25,11,silent,old,yellow,581.9706547000005,None,581.9706547000005,None,6,2.321596799998588,581.9706547000005,None,2.321596799998588,584.3251838000015,None,584.8412351000006,None,584.8412351000006,None,r,0.4264571000003343,584.8412351000006,None,0.4264571000003343,,,115 silent,001,2022_Dec_01_1228,ProdSingRedoBetween,2021.2.3,59.87457474093426,
,,,,11,0,11,0,,,,,,,,,,,,,,,,,,,,,,588.1118373999998,None,,,,,,,,,,,,,,,,,broad,121,12,silent,new,null,585.7983473000004,None,585.7983473000004,None,1,1.3592226000000664,585.7983473000004,None,1.3592226000000664,587.1779170000009,None,587.6928614000008,None,587.6928614000008,None,n,0.393646999998964,587.6928614000008,None,0.393646999998964,,,115 silent,001,2022_Dec_01_1228,ProdSingRedoBetween,2021.2.3,59.87457474093426,
,,,,12,0,12,0,,,,,,,,,,,,,,,,,,,,,,593.7674146000008,None,,,,,,,,,,,,,,,,,research,103,13,silent,new,null,588.6297844000001,None,588.6297844000001,None,3,3.2315440000002127,588.6297844000001,None,3.2315440000002127,591.8878648000009,None,592.4061268000005,None,592.4061268000005,None,f,1.3285876000009011,592.4061268000005,None,1.3285876000009011,,,115 silent,001,2022_Dec_01_1228,ProdSingRedoBetween,2021.2.3,59.87457474093426,
,,,,13,0,13,0,,,,,,,,,,,,,,,,,,,,,,597.5733559,None,,,,,,,,,,,,,,,,,clear,59,14,silent,old,yellow,594.2841626000009,None,594.2841626000009,None,1,2.1684431999983644,594.2841626000009,None,2.1684431999983644,596.4714615000012,None,596.9903429000005,None,596.9903429000005,None,n,0.5506522000014229,596.9903429000005,None,0.5506522000014229,,,115 silent,001,2022_Dec_01_1228,ProdSingRedoBetween,2021.2.3,59.87457474093426,
,,,,14,0,14,0,,,,,,,,,,,,,,,,,,,,,,600.6078143000013,None,,,,,,,,,,,,,,,,,still,129,15,silent,new,null,598.0891576000013,None,598.0891576000013,None,1,1.628345499999341,598.0891576000013,None,1.628345499999341,599.7420528000002,None,600.2561126,None,600.2561126,None,n,0.3282041999991634,600.2561126,None,0.3282041999991634,,,115 silent,001,2022_Dec_01_1228,ProdSingRedoBetween,2021.2.3,59.87457474093426,
,,,,15,0,15,0,,,,,,,,,,,,,,,,,,,,,,604.4615114000007,None,,,,,,,,,,,,,,,,,number,169,16,silent,new,null,601.1226055000006,None,601.1226055000006,None,3,1.7826684000010573,601.1226055000006,None,1.7826684000010573,602.9432826000011,None,603.4465708000007,None,603.4465708000007,None,f,0.9945071000001917,603.4465708000007,None,0.9945071000001917,,,115 silent,001,2022_Dec_01_1228,ProdSingRedoBetween,2021.2.3,59.87457474093426,
,,,,16,0,16,0,,,,,,,,,,,,,,,,,,,,,,607.2128958000012,None,,,,,,,,,,,,,,,,,group,91,17,silent,new,null,604.9648189,None,604.9648189,None,2,1.2319387999996252,604.9648189,None,1.2319387999996252,606.2203893000005,None,606.7289595000002,None,606.7289595000002,None,f,0.4585484999988694,606.7289595000002,None,0.4585484999988694,,,115 silent,001,2022_Dec_01_1228,ProdSingRedoBetween,2021.2.3,59.87457474093426,
,,,,17,0,17,0,,,,,,,,,,,,,,,,,,,,,,611.5515113000001,None,,,,,,,,,,,,,,,,,month,111,18,silent,new,null,607.7151334999999,None,607.7151334999999,None,1,2.6320737000005465,607.7151334999999,None,2.6320737000005465,610.3692361000012,None,610.8835677000006,None,610.8835677000006,None,n,0.6363832000006369,610.8835677000006,None,0.6363832000006369,,,115 silent,001,2022_Dec_01_1228,ProdSingRedoBetween,2021.2.3,59.87457474093426,
,,,,18,0,18,0,,,,,,,,,,,,,,,,,,,,,,614.5548252000008,None,,,,,,,,,,,,,,,,,century,113,19,silent,new,null,612.0694166000012,None,612.0694166000012,None,1,1.5003656999997474,612.0694166000012,None,1.5003656999997474,613.5889736000008,None,614.1030701,None,614.1030701,None,n,0.41991520000010496,614.1030701,None,0.41991520000010496,,,115 silent,001,2022_Dec_01_1228,ProdSingRedoBetween,2021.2.3,59.87457474093426,
,,,,19,0,19,0,,,,,,,,,,,,,,,,,,,,,,619.4259087999999,None,,,,,,,,,,,,,,,,,damage,136,20,silent,new,null,615.0753987000007,None,615.0753987000007,None,4,2.81694299999981,615.0753987000007,None,2.81694299999981,617.9249240000008,None,618.4403880999998,None,618.4403880999998,None,f,0.9657912999991822,618.4403880999998,None,0.9657912999991822,,,115 silent,001,2022_Dec_01_1228,ProdSingRedoBetween,2021.2.3,59.87457474093426,
,,,,20,0,20,0,,,,,,,,,,,,,,,,,,,,,,622.7480906000001,None,,,,,,,,,,,,,,,,,suggestion,49,21,silent,old,blue,619.9280632999998,None,619.9280632999998,None,1,2.1414478000006056,619.9280632999998,None,2.1414478000006056,622.0992886000004,None,622.6162017000006,None,622.6162017000006,None,n,0.10364399999889429,622.6162017000006,None,0.10364399999889429,,,115 silent,001,2022_Dec_01_1228,ProdSingRedoBetween,2021.2.3,59.87457474093426,
,,,,21,0,21,0,,,,,,,,,,,,,,,,,,,,,,627.3002021000011,None,,,,,,,,,,,,,,,,,break,6,22,silent,old,yellow,623.2639426000005,None,623.2639426000005,None,1,1.667238300000463,623.2639426000005,None,1.667238300000463,624.9502924999997,None,625.4647384,None,625.4647384,None,n,1.8128583999987313,625.4647384,None,1.8128583999987313,,,115 silent,001,2022_Dec_01_1228,ProdSingRedoBetween,2021.2.3,59.87457474093426,
,,,,22,0,22,0,,,,,,,,,,,,,,,,,,,,,,631.6216788000002,None,,,,,,,,,,,,,,,,,store,60,23,silent,old,red,627.8039482000004,None,627.8039482000004,None,2,3.0170171999998274,627.8039482000004,None,3.0170171999998274,630.8618676000006,None,631.3701204999998,None,631.3701204999998,None,f,0.2274476999991748,631.3701204999998,None,0.2274476999991748,,,115 silent,001,2022_Dec_01_1228,ProdSingRedoBetween,2021.2.3,59.87457474093426,
,,,,23,0,23,0,,,,,,,,,,,,,,,,,,,,,,636.4434700000002,None,,,,,,,,,,,,,,,,,novel,53,24,silent,old,blue,632.1454771000008,None,632.1454771000008,None,5,2.205448200000319,632.1454771000008,None,2.205448200000319,634.3820969999997,None,634.8908421000015,None,634.8908421000015,None,r,1.534370299999864,634.8908421000015,None,1.534370299999864,,,115 silent,001,2022_Dec_01_1228,ProdSingRedoBetween,2021.2.3,59.87457474093426,
,,,,24,0,24,0,,,,,,,,,,,,,,,,,,,,,,639.2962357000015,None,,,,,,,,,,,,,,,,,plane,126,25,silent,new,null,636.9497068000001,None,636.9497068000001,None,2,1.609526199999891,636.9497068000001,None,1.609526199999891,638.5804530000005,None,639.0951100000002,None,639.0951100000002,None,n,0.18203319999884116,639.0951100000002,None,0.18203319999884116,,,115 silent,001,2022_Dec_01_1228,ProdSingRedoBetween,2021.2.3,59.87457474093426,
,,,,25,0,25,0,,,,,,,,,,,,,,,,,,,,,,641.7472738000015,None,,,,,,,,,,,,,,,,,solution,144,26,silent,new,null,639.8132218999999,None,639.8132218999999,None,2,1.1308413999995537,639.8132218999999,None,1.1308413999995537,640.9661133000009,None,641.4809266000011,None,641.4809266000011,None,n,0.23882580000099551,641.4809266000011,None,0.23882580000099551,,,115 silent,001,2022_Dec_01_1228,ProdSingRedoBetween,2021.2.3,59.87457474093426,
,,,,26,0,26,0,,,,,,,,,,,,,,,,,,,,,,644.2007782000001,None,,,,,,,,,,,,,,,,,couch,134,27,silent,new,null,642.2497235999999,None,642.2497235999999,None,1,1.1235814000010578,642.2497235999999,None,1.1235814000010578,643.4015197999997,None,643.9162100000012,None,643.9162100000012,None,n,0.26094799999918905,643.9162100000012,None,0.26094799999918905,,,115 silent,001,2022_Dec_01_1228,ProdSingRedoBetween,2021.2.3,59.87457474093426,
,,,,27,0,27,0,,,,,,,,,,,,,,,,,,,,,,648.2888357000011,None,,,,,,,,,,,,,,,,,accident,50,28,silent,old,blue,644.7103478000008,None,644.7103478000008,None,4,2.01754179999989,644.7103478000008,None,2.01754179999989,646.7584880000013,None,647.2728588999998,None,647.2728588999998,None,f,0.9991374000001088,647.2728588999998,None,0.9991374000001088,,,115 silent,001,2022_Dec_01_1228,ProdSingRedoBetween,2021.2.3,59.87457474093426,
,,,,28,0,28,0,,,,,,,,,,,,,,,,,,,,,,651.6113847000015,None,,,,,,,,,,,,,,,,,death,163,29,silent,new,null,648.8048557000002,None,648.8048557000002,None,1,2.008384599999772,648.8048557000002,None,2.008384599999772,650.842120700001,None,651.3568482999999,None,651.3568482999999,None,n,0.22510630000033416,651.3568482999999,None,0.22510630000033416,,,115 silent,001,2022_Dec_01_1228,ProdSingRedoBetween,2021.2.3,59.87457474093426,
,,,,29,0,29,0,,,,,,,,,,,,,,,,,,,,,,654.8778352000008,None,,,,,,,,,,,,,,,,,right,66,30,silent,old,red,652.1276566000015,None,652.1276566000015,None,4,1.9671990999995614,652.1276566000015,None,1.9671990999995614,654.1279978000002,None,654.6275135000014,None,654.6275135000014,None,f,0.22846500000014203,654.6275135000014,None,0.22846500000014203,,,115 silent,001,2022_Dec_01_1228,ProdSingRedoBetween,2021.2.3,59.87457474093426,
,,,,30,0,30,0,,,,,,,,,,,,,,,,,,,,,,657.8854922999999,None,,,,,,,,,,,,,,,,,watch,119,31,silent,new,null,655.3805846000014,None,655.3805846000014,None,2,1.6975149000008969,655.3805846000014,None,1.6975149000008969,657.0990180999997,None,657.6175917,None,657.6175917,None,n,0.24211250000007567,657.6175917,None,0.24211250000007567,,,115 silent,001,2022_Dec_01_1228,ProdSingRedoBetween,2021.2.3,59.87457474093426,
,,,,31,0,31,0,,,,,,,,,,,,,,,,,,,,,,660.1335187000004,None,,,,,,,,,,,,,,,,,birth,95,32,silent,new,null,658.3981506,None,658.3981506,None,2,0.9941058000003977,658.3981506,None,0.9941058000003977,659.4175647000011,None,659.9324038000013,None,659.9324038000013,None,n,0.1731276999998954,659.9324038000013,None,0.1731276999998954,,,115 silent,001,2022_Dec_01_1228,ProdSingRedoBetween,2021.2.3,59.87457474093426,
,,,,32,0,32,0,,,,,,,,,,,,,,,,,,,,,,662.3516088000015,None,,,,,,,,,,,,,,,,,title,152,33,silent,new,null,660.6356723999997,None,660.6356723999997,None,1,0.9458725000004051,660.6356723999997,None,0.9458725000004051,661.6030413999997,None,662.1178842999998,None,662.1178842999998,None,n,0.2163259000008111,662.1178842999998,None,0.2163259000008111,,,115 silent,001,2022_Dec_01_1228,ProdSingRedoBetween,2021.2.3,59.87457474093426,
,,,,33,0,33,0,,,,,,,,,,,,,,,,,,,,,,664.1886950000007,None,,,,,,,,,,,,,,,,,listen,149,34,silent,new,null,662.8704770000004,None,662.8704770000004,None,1,0.6644241000012698,662.8704770000004,None,0.6644241000012698,663.5561018999997,None,664.0708512000001,None,664.0708512000001,None,n,0.09381969999958528,664.0708512000001,None,0.09381969999958528,,,115 silent,001,2022_Dec_01_1228,ProdSingRedoBetween,2021.2.3,59.87457474093426,
,,,,34,0,34,0,,,,,,,,,,,,,,,,,,,,,,667.4907027000008,None,,,,,,,,,,,,,,,,,minute,23,35,silent,old,yellow,664.7051800999998,None,664.7051800999998,None,5,1.9744150999995327,664.7051800999998,None,1.9744150999995327,666.7081592000013,None,667.2232137999999,None,667.2232137999999,None,f,0.24167429999943124,667.2232137999999,None,0.24167429999943124,,,115 silent,001,2022_Dec_01_1228,ProdSingRedoBetween,2021.2.3,59.87457474093426,
,,,,35,0,35,0,,,,,,,,,,,,,,,,,,,,,,671.5292868000015,None,,,,,,,,,,,,,,,,,income,32,36,silent,old,blue,667.9923285000004,None,667.9923285000004,None,6,1.9531236000002536,667.9923285000004,None,1.9531236000002536,669.9686515000012,None,670.4785497000012,None,670.4785497000012,None,r,1.0328028999992966,670.4785497000012,None,1.0328028999992966,,,115 silent,001,2022_Dec_01_1228,ProdSingRedoBetween,2021.2.3,59.87457474093426,
,,,,36,0,36,0,,,,,,,,,,,,,,,,,,,,,,674.3475296000015,None,,,,,,,,,,,,,,,,,fashion,41,37,silent,old,blue,672.0452755000006,None,672.0452755000006,None,1,1.4597892999991018,672.0452755000006,None,1.4597892999991018,673.5315405000001,None,674.0465488000009,None,674.0465488000009,None,n,0.26919099999940954,674.0465488000009,None,0.26919099999940954,,,115 silent,001,2022_Dec_01_1228,ProdSingRedoBetween,2021.2.3,59.87457474093426,
,,,,37,0,37,0,,,,,,,,,,,,,,,,,,,,,,677.852579800001,None,,,,,,,,,,,,,,,,,engineer,45,38,silent,old,blue,674.8494415000005,None,674.8494415000005,None,6,1.404547399999501,674.8494415000005,None,1.404547399999501,676.2864359000014,None,676.7997205000011,None,676.7997205000011,None,r,1.0294960999999603,676.7997205000011,None,1.0294960999999603,,,115 silent,001,2022_Dec_01_1228,ProdSingRedoBetween,2021.2.3,59.87457474093426,
,,,,38,0,38,0,,,,,,,,,,,,,,,,,,,,,,680.6723856999997,None,,,,,,,,,,,,,,,,,brilliant,171,39,silent,new,null,678.3684185000002,None,678.3684185000002,None,1,1.4720990999994683,678.3684185000002,None,1.4720990999994683,679.8726320000005,None,680.3880942000014,None,680.3880942000014,None,n,0.25185599999895203,680.3880942000014,None,0.25185599999895203,,,115 silent,001,2022_Dec_01_1228,ProdSingRedoBetween,2021.2.3,59.87457474093426,
,,,,39,0,39,0,,,,,,,,,,,,,,,,,,,,,,682.8728487999997,None,,,,,,,,,,,,,,,,,trend,27,40,silent,old,yellow,681.1917731000012,None,681.1917731000012,None,1,0.8712102000008599,681.1917731000012,None,0.8712102000008599,682.0903554000015,None,682.6046723,None,682.6046723,None,n,0.23704109999926004,682.6046723,None,0.23704109999926004,,,115 silent,001,2022_Dec_01_1228,ProdSingRedoBetween,2021.2.3,59.87457474093426,
,,,,40,0,40,0,,,,,,,,,,,,,,,,,,,,,,684.7144872999997,None,,,,,,,,,,,,,,,,,dozen,133,41,silent,new,null,683.3755153000002,None,683.3755153000002,None,1,0.6167443000013009,683.3755153000002,None,0.6167443000013009,684.0254850000001,None,684.5448862000012,None,684.5448862000012,None,n,0.137305500000366,684.5448862000012,None,0.137305500000366,,,115 silent,001,2022_Dec_01_1228,ProdSingRedoBetween,2021.2.3,59.87457474093426,
,,,,41,0,41,0,,,,,,,,,,,,,,,,,,,,,,686.5605974000009,None,,,,,,,,,,,,,,,,,colonel,140,42,silent,new,null,685.2327488999999,None,685.2327488999999,None,1,0.6165350999999646,685.2327488999999,None,0.6165350999999646,685.8793074000005,None,686.3927808999997,None,686.3927808999997,None,n,0.13443499999993946,686.3927808999997,None,0.13443499999993946,,,115 silent,001,2022_Dec_01_1228,ProdSingRedoBetween,2021.2.3,59.87457474093426,
,,,,42,0,42,0,,,,,,,,,,,,,,,,,,,,,,690.2921513000001,None,,,,,,,,,,,,,,,,,defeat,179,43,silent,new,null,687.0786349000009,None,687.0786349000009,None,2,2.3073019000003114,687.0786349000009,None,2.3073019000003114,689.4266206000011,None,689.9381100999999,None,689.9381100999999,None,f,0.31882539999969595,689.9381100999999,None,0.31882539999969595,,,115 silent,001,2022_Dec_01_1228,ProdSingRedoBetween,2021.2.3,59.87457474093426,
,,,,43,0,43,0,,,,,,,,,,,,,,,,,,,,,,694.6192035000004,None,,,,,,,,,,,,,,,,,majority,37,44,silent,old,blue,690.8011150000002,None,690.8011150000002,None,5,2.880069700000604,690.8011150000002,None,2.880069700000604,693.7030608000005,None,694.2178530000001,None,694.2178530000001,None,f,0.37014819999967585,694.2178530000001,None,0.37014819999967585,,,115 silent,001,2022_Dec_01_1228,ProdSingRedoBetween,2021.2.3,59.87457474093426,
,,,,44,0,44,0,,,,,,,,,,,,,,,,,,,,,,697.0221177000003,None,,,,,,,,,,,,,,,,,health,87,45,silent,old,red,695.1362267000004,None,695.1362267000004,None,1,1.1217702999983885,695.1362267000004,None,1.1217702999983885,696.2893612000007,None,696.8022652,None,696.8022652,None,n,0.1875517000007676,696.8022652,None,0.1875517000007676,,,115 silent,001,2022_Dec_01_1228,ProdSingRedoBetween,2021.2.3,59.87457474093426,
,,,,45,0,45,0,,,,,,,,,,,,,,,,,,,,,,700.5902452000009,None,,,,,,,,,,,,,,,,,angle,36,46,silent,old,blue,697.5384264000004,None,697.5384264000004,None,6,2.3111098000008496,697.5384264000004,None,2.3111098000008496,699.8740685000012,None,700.3884346000013,None,700.3884346000013,None,r,0.1750489000005473,700.3884346000013,None,0.1750489000005473,,,115 silent,001,2022_Dec_01_1228,ProdSingRedoBetween,2021.2.3,59.87457474093426,
,,,,46,0,46,0,,,,,,,,,,,,,,,,,,,,,,703.2436230000003,None,,,,,,,,,,,,,,,,,notice,153,47,silent,new,null,701.0923733,None,701.0923733,None,2,1.365516200001366,701.0923733,None,1.365516200001366,702.4777140000006,None,702.9924711000003,None,702.9924711000003,None,f,0.2190826999994897,702.9924711000003,None,0.2190826999994897,,,115 silent,001,2022_Dec_01_1228,ProdSingRedoBetween,2021.2.3,59.87457474093426,
,,,,47,0,47,0,,,,,,,,,,,,,,,,,,,,,,705.9120151000006,None,,,,,,,,,,,,,,,,,article,40,48,silent,old,blue,703.7451533000003,None,703.7451533000003,None,1,1.4982126000013523,703.7451533000003,None,1.4982126000013523,705.2622449999999,None,705.777315700001,None,705.777315700001,None,n,0.10510429999885673,705.777315700001,None,0.10510429999885673,,,115 silent,001,2022_Dec_01_1228,ProdSingRedoBetween,2021.2.3,59.87457474093426,
,,,,48,0,48,0,,,,,,,,,,,,,,,,,,,,,,708.0138614000007,None,,,,,,,,,,,,,,,,,match,54,49,silent,old,blue,706.4122047000001,None,706.4122047000001,None,1,0.7819737999998324,706.4122047000001,None,0.7819737999998324,707.2198425000006,None,707.7296129000006,None,707.7296129000006,None,n,0.26396719999866036,707.7296129000006,None,0.26396719999866036,,,115 silent,001,2022_Dec_01_1228,ProdSingRedoBetween,2021.2.3,59.87457474093426,
,,,,49,0,49,0,,,,,,,,,,,,,,,,,,,,,,710.3674867999998,None,,,,,,,,,,,,,,,,,second,5,50,silent,old,yellow,708.5155962000008,None,708.5155962000008,None,1,1.1293486000013218,708.5155962000008,None,1.1293486000013218,709.6681320000007,None,710.1829435,None,710.1829435,None,n,0.15196110000033514,710.1829435,None,0.15196110000033514,,,115 silent,001,2022_Dec_01_1228,ProdSingRedoBetween,2021.2.3,59.87457474093426,
,,,,50,0,50,0,,,,,,,,,,,,,,,,,,,,,,713.3582440999999,None,,,,,,,,,,,,,,,,,display,132,51,silent,new,null,710.8862360000003,None,710.8862360000003,None,2,1.6888854000007996,710.8862360000003,None,1.6888854000007996,712.6056528000008,None,713.118026600001,None,713.118026600001,None,f,0.2072483000010834,713.118026600001,None,0.2072483000010834,,,115 silent,001,2022_Dec_01_1228,ProdSingRedoBetween,2021.2.3,59.87457474093426,
,,,,51,0,51,0,,,,,,,,,,,,,,,,,,,,,,716.0064137999998,None,,,,,,,,,,,,,,,,,reach,156,52,silent,new,null,713.8687463000006,None,713.8687463000006,None,2,1.4701414999999542,713.8687463000006,None,1.4701414999999542,715.3600146000008,None,715.870614200001,None,715.870614200001,None,f,0.1069485000007262,715.870614200001,None,0.1069485000007262,,,115 silent,001,2022_Dec_01_1228,ProdSingRedoBetween,2021.2.3,59.87457474093426,
,,,,52,0,52,0,,,,,,,,,,,,,,,,,,,,,,722.4789012000001,None,,,,,,,,,,,,,,,,,education,176,53,silent,new,null,716.5216507000005,None,716.5216507000005,None,2,3.176854800000001,716.5216507000005,None,3.176854800000001,719.7358409999997,None,720.2437430000009,None,720.2437430000009,None,f,2.2100176000003557,720.2437430000009,None,2.2100176000003557,,,115 silent,001,2022_Dec_01_1228,ProdSingRedoBetween,2021.2.3,59.87457474093426,
,,,,53,0,53,0,,,,,,,,,,,,,,,,,,,,,,725.768720600001,None,,,,,,,,,,,,,,,,,gesture,138,54,silent,new,null,722.982654200001,None,722.982654200001,None,1,1.0892951999994693,722.982654200001,None,1.0892951999994693,724.1047096000002,None,724.6129842999999,None,724.6129842999999,None,n,1.1288117000003695,724.6129842999999,None,1.1288117000003695,,,115 silent,001,2022_Dec_01_1228,ProdSingRedoBetween,2021.2.3,59.87457474093426,
,,,,54,0,54,0,,,,,,,,,,,,,,,,,,,,,,729.487926400001,None,,,,,,,,,,,,,,,,,native,71,55,silent,old,red,726.281151000001,None,726.281151000001,None,2,2.5810328999996273,726.281151000001,None,2.5810328999996273,728.8940338000011,None,729.4018382000013,None,729.4018382000013,None,f,0.06264280000141298,729.4018382000013,None,0.06264280000141298,,,115 silent,001,2022_Dec_01_1228,ProdSingRedoBetween,2021.2.3,59.87457474093426,
,,,,55,0,55,0,,,,,,,,,,,,,,,,,,,,,,731.8887766000007,None,,,,,,,,,,,,,,,,,principal,137,56,silent,new,null,730.0034797000008,None,730.0034797000008,None,2,1.1618359000003693,730.0034797000008,None,1.1618359000003693,731.1991651000008,None,731.7033475000007,None,731.7033475000007,None,f,0.15945529999953578,731.7033475000007,None,0.15945529999953578,,,115 silent,001,2022_Dec_01_1228,ProdSingRedoBetween,2021.2.3,59.87457474093426,
,,,,56,0,56,0,,,,,,,,,,,,,,,,,,,,,,734.0442825999999,None,,,,,,,,,,,,,,,,,voice,104,57,silent,new,null,732.4039637000005,None,732.4039637000005,None,2,0.9833576999990328,732.4039637000005,None,0.9833576999990328,733.4133402000007,None,733.9270456000013,None,733.9270456000013,None,f,0.08218469999883382,733.9270456000013,None,0.08218469999883382,,,115 silent,001,2022_Dec_01_1228,ProdSingRedoBetween,2021.2.3,59.87457474093426,
,,,,57,0,57,0,,,,,,,,,,,,,,,,,,,,,,736.5101482999999,None,,,,,,,,,,,,,,,,,bright,1,58,silent,old,yellow,734.5577095000008,None,734.5577095000008,None,2,1.1842821999998705,734.5577095000008,None,1.1842821999998705,735.7724671000014,None,736.2745437000012,None,736.2745437000012,None,f,0.2073632000010548,736.2745437000012,None,0.2073632000010548,,,115 silent,001,2022_Dec_01_1228,ProdSingRedoBetween,2021.2.3,59.87457474093426,
,,,,58,0,58,0,,,,,,,,,,,,,,,,,,,,,,738.6440589000013,None,,,,,,,,,,,,,,,,,story,155,59,silent,new,null,737.054865600001,None,737.054865600001,None,2,0.8912029999992228,737.054865600001,None,0.8912029999992228,737.9836644000006,None,738.4934955999997,None,738.4934955999997,None,f,0.13265310000133468,738.4934955999997,None,0.13265310000133468,,,115 silent,001,2022_Dec_01_1228,ProdSingRedoBetween,2021.2.3,59.87457474093426,
,,,,59,0,59,0,,,,,,,,,,,,,,,,,,,,,,741.3141389000011,None,,,,,,,,,,,,,,,,,edition,158,60,silent,new,null,739.1511081999997,None,739.1511081999997,None,2,1.0147785999997723,739.1511081999997,None,1.0147785999997723,740.2017850000011,None,740.7280495000014,None,740.7280495000014,None,f,0.5573298999988765,740.7280495000014,None,0.5573298999988765,,,115 silent,001,2022_Dec_01_1228,ProdSingRedoBetween,2021.2.3,59.87457474093426,
,,,,60,0,60,0,,,,,,,,,,,,,,,,,,,,,,746.8883747,None,,,,,,,,,,,,,,,,,close,159,61,silent,new,null,741.8165492000007,None,741.8165492000007,None,2,3.2010627999989083,741.8165492000007,None,3.2010627999989083,745.0356592000007,None,745.5512370000015,None,745.5512370000015,None,f,1.3107732000007672,745.5512370000015,None,1.3107732000007672,,,115 silent,001,2022_Dec_01_1228,ProdSingRedoBetween,2021.2.3,59.87457474093426,
,,,,61,0,61,0,,,,,,,,,,,,,,,,,,,,,,749.6736707,None,,,,,,,,,,,,,,,,,bureau,98,62,silent,new,null,747.4090327000013,None,747.4090327000013,None,1,1.3165220999999292,747.4090327000013,None,1.3165220999999292,748.7556201000007,None,749.2560855000011,None,749.2560855000011,None,n,0.3841312000004109,749.2560855000011,None,0.3841312000004109,,,115 silent,001,2022_Dec_01_1228,ProdSingRedoBetween,2021.2.3,59.87457474093426,
,,,,62,0,62,0,,,,,,,,,,,,,,,,,,,,,,751.9931013000005,None,,,,,,,,,,,,,,,,,childhood,112,63,silent,new,null,750.1928560000015,None,750.1928560000015,None,1,0.998789699999179,750.1928560000015,None,0.998789699999179,751.2099248000013,None,751.7332600000009,None,751.7332600000009,None,n,0.2315629999993689,751.7332600000009,None,0.2315629999993689,,,115 silent,001,2022_Dec_01_1228,ProdSingRedoBetween,2021.2.3,59.87457474093426,
,,,,63,0,63,0,,,,,,,,,,,,,,,,,,,,,,754.0940795000006,None,,,,,,,,,,,,,,,,,error,123,64,silent,new,null,752.5263986999998,None,752.5263986999998,None,1,0.7605963999994856,752.5263986999998,None,0.7605963999994856,753.3118910000012,None,753.8266879000003,None,753.8266879000003,None,n,0.24912469999981113,753.8266879000003,None,0.24912469999981113,,,115 silent,001,2022_Dec_01_1228,ProdSingRedoBetween,2021.2.3,59.87457474093426,
,,,,64,0,64,0,,,,,,,,,,,,,,,,,,,,,,756.680744700001,None,,,,,,,,,,,,,,,,,foundation,33,65,silent,old,blue,754.5985828000012,None,754.5985828000012,None,2,1.3167718999993667,754.5985828000012,None,1.3167718999993667,755.9476066000007,None,756.4621554000005,None,756.4621554000005,None,f,0.18879170000036538,756.4621554000005,None,0.18879170000036538,,,115 silent,001,2022_Dec_01_1228,ProdSingRedoBetween,2021.2.3,59.87457474093426,
,,,,65,0,65,0,,,,,,,,,,,,,,,,,,,,,,759.5545729000005,None,,,,,,,,,,,,,,,,,service,81,66,silent,old,red,757.2100195000003,None,757.2100195000003,None,6,1.5304090000008728,757.2100195000003,None,1.5304090000008728,758.7674751000013,None,759.2997249,None,759.2997249,None,r,0.22537130000091565,759.2997249,None,0.22537130000091565,,,115 silent,001,2022_Dec_01_1228,ProdSingRedoBetween,2021.2.3,59.87457474093426,
,,,,66,0,66,0,,,,,,,,,,,,,,,,,,,,,,762.1356033000011,None,,,,,,,,,,,,,,,,,personnel,107,67,silent,new,null,760.0838629999998,None,760.0838629999998,None,1,1.0932005000013305,760.0838629999998,None,1.0932005000013305,761.2044780000015,None,761.7184990000005,None,761.7184990000005,None,n,0.3870941999994102,761.7184990000005,None,0.3870941999994102,,,115 silent,001,2022_Dec_01_1228,ProdSingRedoBetween,2021.2.3,59.87457474093426,
,,,,67,0,67,0,,,,,,,,,,,,,,,,,,,,,,765.2682451000001,None,,,,,,,,,,,,,,,,,career,47,68,silent,old,blue,762.6529441000002,None,762.6529441000002,None,5,1.8611906999994972,762.6529441000002,None,1.8611906999994972,764.5385478000007,None,765.0538699000008,None,765.0538699000008,None,f,0.1723721000016667,765.0538699000008,None,0.1723721000016667,,,115 silent,001,2022_Dec_01_1228,ProdSingRedoBetween,2021.2.3,59.87457474093426,
,,,,68,0,68,0,,,,,,,,,,,,,,,,,,,,,,768.3566804000002,None,,,,,,,,,,,,,,,,,frank,58,69,silent,old,blue,765.7730007999999,None,765.7730007999999,None,6,1.3146971999995003,765.7730007999999,None,1.3146971999995003,767.1092723000002,None,767.6227571,None,767.6227571,None,r,0.7059776999994938,767.6227571,None,0.7059776999994938,,,115 silent,001,2022_Dec_01_1228,ProdSingRedoBetween,2021.2.3,59.87457474093426,
,,,,69,0,69,0,,,,,,,,,,,,,,,,,,,,,,771.5606771000002,None,,,,,,,,,,,,,,,,,collection,174,70,silent,new,null,768.8591303000012,None,768.8591303000012,None,5,2.0503000000007887,768.8591303000012,None,2.0503000000007887,770.929214400001,None,771.4427860000014,None,771.4427860000014,None,f,0.08750010000039765,771.4427860000014,None,0.08750010000039765,,,115 silent,001,2022_Dec_01_1228,ProdSingRedoBetween,2021.2.3,59.87457474093426,
,,,,70,0,70,0,,,,,,,,,,,,,,,,,,,,,,774.4624093000002,None,,,,,,,,,,,,,,,,,owner,21,71,silent,old,yellow,772.0627005000006,None,772.0627005000006,None,3,1.64633909999975,772.0627005000006,None,1.64633909999975,773.7307108000005,None,774.2457744000003,None,774.2457744000003,None,f,0.1937710000001971,774.2457744000003,None,0.1937710000001971,,,115 silent,001,2022_Dec_01_1228,ProdSingRedoBetween,2021.2.3,59.87457474093426,
,,,,71,0,71,0,,,,,,,,,,,,,,,,,,,,,,776.8150246000005,None,,,,,,,,,,,,,,,,,republic,168,72,silent,new,null,774.9653839000002,None,774.9653839000002,None,1,1.0657602999999654,774.9653839000002,None,1.0657602999999654,776.0504256000004,None,776.5655640000004,None,776.5655640000004,None,n,0.22547490000033577,776.5655640000004,None,0.22547490000033577,,,115 silent,001,2022_Dec_01_1228,ProdSingRedoBetween,2021.2.3,59.87457474093426,
,,,,72,0,72,0,,,,,,,,,,,,,,,,,,,,,,779.517918900001,None,,,,,,,,,,,,,,,,,object,148,73,silent,new,null,777.3172528000014,None,777.3172528000014,None,2,1.353617499999018,777.3172528000014,None,1.353617499999018,778.7025795999998,None,779.2173515000013,None,779.2173515000013,None,f,0.28211389999887615,779.2173515000013,None,0.28211389999887615,,,115 silent,001,2022_Dec_01_1228,ProdSingRedoBetween,2021.2.3,59.87457474093426,
,,,,73,0,73,0,,,,,,,,,,,,,,,,,,,,,,781.8868136000001,None,,,,,,,,,,,,,,,,,surprise,73,74,silent,old,red,780.020389700001,None,780.020389700001,None,1,1.152025200000935,780.020389700001,None,1.152025200000935,781.2123279000007,None,781.7203394000007,None,781.7203394000007,None,n,0.13827860000128567,781.7203394000007,None,0.13827860000128567,,,115 silent,001,2022_Dec_01_1228,ProdSingRedoBetween,2021.2.3,59.87457474093426,
,,,,74,0,74,0,,,,,,,,,,,,,,,,,,,,,,784.9731511000009,None,,,,,,,,,,,,,,,,,subject,170,75,silent,new,null,782.3892248000011,None,782.3892248000011,None,5,1.8574887000013405,782.3892248000011,None,1.8574887000013405,784.2745513000009,None,784.7896196000002,None,784.7896196000002,None,f,0.15625010000076145,784.7896196000002,None,0.15625010000076145,,,115 silent,001,2022_Dec_01_1228,ProdSingRedoBetween,2021.2.3,59.87457474093426,
,,,,75,0,75,0,,,,,,,,,,,,,,,,,,,,,,787.509207000001,None,,,,,,,,,,,,,,,,,direction,9,76,silent,old,yellow,785.4754807999998,None,785.4754807999998,None,4,1.4289750000007189,785.4754807999998,None,1.4289750000007189,786.9270484999997,None,787.4421978999999,None,787.4421978999999,None,f,0.047558800000842893,787.4421978999999,None,0.047558800000842893,,,115 silent,001,2022_Dec_01_1228,ProdSingRedoBetween,2021.2.3,59.87457474093426,
,,,,76,0,76,0,,,,,,,,,,,,,,,,,,,,,,790.9958588999998,None,,,,,,,,,,,,,,,,,patient,72,77,silent,old,red,788.0103933999999,None,788.0103933999999,None,4,2.275062300001082,788.0103933999999,None,2.275062300001082,790.3137657000007,None,790.8289947000012,None,790.8289947000012,None,f,0.14231029999973543,790.8289947000012,None,0.14231029999973543,,,115 silent,001,2022_Dec_01_1228,ProdSingRedoBetween,2021.2.3,59.87457474093426,
,,,,77,0,77,0,,,,,,,,,,,,,,,,,,,,,,793.6484727000006,None,,,,,,,,,,,,,,,,,harmony,177,78,silent,new,null,791.5014872000011,None,791.5014872000011,None,1,1.052771799999391,791.5014872000011,None,1.052771799999391,792.5826115,None,793.0978973000001,None,793.0978973000001,None,n,0.5204346999998961,793.0978973000001,None,0.5204346999998961,,,115 silent,001,2022_Dec_01_1228,ProdSingRedoBetween,2021.2.3,59.87457474093426,
,,,,78,0,78,0,,,,,,,,,,,,,,,,,,,,,,797.0686369000014,None,,,,,,,,,,,,,,,,,position,20,79,silent,old,yellow,794.152278900001,None,794.152278900001,None,3,1.781349399998362,794.152278900001,None,1.781349399998362,795.9528683999997,None,796.4679210000013,None,796.4679210000013,None,f,0.5738058000006276,796.4679210000013,None,0.5738058000006276,,,115 silent,001,2022_Dec_01_1228,ProdSingRedoBetween,2021.2.3,59.87457474093426,
,,,,79,0,79,0,,,,,,,,,,,,,,,,,,,,,,799.5045908000011,None,,,,,,,,,,,,,,,,,thing,110,80,silent,new,null,797.5722022000009,None,797.5722022000009,None,1,1.1532211000012467,797.5722022000009,None,1.1532211000012467,798.7679700999997,None,799.2706576,None,799.2706576,None,n,0.2078535999989981,799.2706576,None,0.2078535999989981,,,115 silent,001,2022_Dec_01_1228,ProdSingRedoBetween,2021.2.3,59.87457474093426,
,,,,80,0,80,0,,,,,,,,,,,,,,,,,,,,,,802.0583044000014,None,,,,,,,,,,,,,,,,,citizen,62,81,silent,old,red,800.0064241,None,800.0064241,None,1,1.1876193000007333,800.0064241,None,1.1876193000007333,801.2247145000001,None,801.7397896000002,None,801.7397896000002,None,n,0.3009600999994291,801.7397896000002,None,0.3009600999994291,,,115 silent,001,2022_Dec_01_1228,ProdSingRedoBetween,2021.2.3,59.87457474093426,
,,,,81,0,81,0,,,,,,,,,,,,,,,,,,,,,,805.3080461999998,None,,,,,,,,,,,,,,,,,series,84,82,silent,old,red,802.5593759000003,None,802.5593759000003,None,2,1.3861727999992581,802.5593759000003,None,1.3861727999992581,803.9785060000013,None,804.4933271000009,None,804.4933271000009,None,f,0.7722743000012997,804.4933271000009,None,0.7722743000012997,,,115 silent,001,2022_Dec_01_1228,ProdSingRedoBetween,2021.2.3,59.87457474093426,
,,,,82,0,82,0,,,,,,,,,,,,,,,,,,,,,,808.067028200001,None,,,,,,,,,,,,,,,,,power,102,83,silent,new,null,805.8255796000012,None,805.8255796000012,None,1,1.4376590000010765,805.8255796000012,None,1.4376590000010765,807.2856553000001,None,807.8064365999999,None,807.8064365999999,None,n,0.22143440000036207,807.8064365999999,None,0.22143440000036207,,,115 silent,001,2022_Dec_01_1228,ProdSingRedoBetween,2021.2.3,59.87457474093426,
,,,,83,0,83,0,,,,,,,,,,,,,,,,,,,,,,810.8007570999998,None,,,,,,,,,,,,,,,,,express,29,84,silent,old,blue,808.5958896000011,None,808.5958896000011,None,4,1.4691579999998794,808.5958896000011,None,1.4691579999998794,810.0836244000002,None,810.5849429999998,None,810.5849429999998,None,f,0.19102249999923515,810.5849429999998,None,0.19102249999923515,,,115 silent,001,2022_Dec_01_1228,ProdSingRedoBetween,2021.2.3,59.87457474093426,
,,,,84,0,84,0,,,,,,,,,,,,,,,,,,,,,,813.9872161000003,None,,,,,,,,,,,,,,,,,cover,173,85,silent,new,null,811.3033106000003,None,811.3033106000003,None,2,1.954394599999432,811.3033106000003,None,1.954394599999432,813.2869261000014,None,813.7927478000001,None,813.7927478000001,None,f,0.1641736999990826,813.7927478000001,None,0.1641736999990826,,,115 silent,001,2022_Dec_01_1228,ProdSingRedoBetween,2021.2.3,59.87457474093426,
,,,,85,0,85,0,,,,,,,,,,,,,,,,,,,,,,816.2083477000015,None,,,,,,,,,,,,,,,,,skill,13,86,silent,old,yellow,814.4926726000012,None,814.4926726000012,None,1,0.9420561000006273,814.4926726000012,None,0.9420561000006273,815.4574726999999,None,815.9769451000011,None,815.9769451000011,None,n,0.21032089999971504,815.9769451000011,None,0.21032089999971504,,,115 silent,001,2022_Dec_01_1228,ProdSingRedoBetween,2021.2.3,59.87457474093426,
,,,,86,0,86,0,,,,,,,,,,,,,,,,,,,,,,818.675284500001,None,,,,,,,,,,,,,,,,,broke,85,87,silent,old,red,816.7280766000003,None,816.7280766000003,None,6,1.169534600001498,816.7280766000003,None,1.169534600001498,817.9354034000007,None,818.4418944000008,None,818.4418944000008,None,r,0.2111525000000256,818.4418944000008,None,0.2111525000000256,,,115 silent,001,2022_Dec_01_1228,ProdSingRedoBetween,2021.2.3,59.87457474093426,
,,,,87,0,87,0,,,,,,,,,,,,,,,,,,,,,,824.4477693999997,None,,,,,,,,,,,,,,,,,trial,166,88,silent,new,null,819.1947200000013,None,819.1947200000013,None,5,4.475172200000088,819.1947200000013,None,4.475172200000088,823.6975886,None,824.2127658999998,None,824.2127658999998,None,f,0.21171070000127656,824.2127658999998,None,0.21171070000127656,,,115 silent,001,2022_Dec_01_1228,ProdSingRedoBetween,2021.2.3,59.87457474093426,
,,,,88,0,88,0,,,,,,,,,,,,,,,,,,,,,,827.2509668000002,None,,,,,,,,,,,,,,,,,route,0,89,silent,old,yellow,824.9659288000003,None,824.9659288000003,None,2,1.5030050000004849,824.9659288000003,None,1.5030050000004849,826.5016713000005,None,827.0155798000014,None,827.0155798000014,None,f,0.21824310000010883,827.0155798000014,None,0.21824310000010883,,,115 silent,001,2022_Dec_01_1228,ProdSingRedoBetween,2021.2.3,59.87457474093426,
,,,,89,0,89,0,,,,,,,,,,,,,,,,,,,,,,831.3730458000009,None,,,,,,,,,,,,,,,,,quick,34,90,silent,old,blue,827.7702096000012,None,827.7702096000012,None,2,2.9143729000006715,827.7702096000012,None,2.9143729000006715,830.7053844000002,None,831.2233962999999,None,831.2233962999999,None,f,0.10408149999966554,831.2233962999999,None,0.10408149999966554,,,115 silent,001,2022_Dec_01_1228,ProdSingRedoBetween,2021.2.3,59.87457474093426,
,,,,90,0,90,0,,,,,,,,,,,,,,,,,,,,,,833.8404214000002,None,,,,,,,,,,,,,,,,,level,120,91,silent,new,null,831.9061873999999,None,831.9061873999999,None,2,1.2518466999990778,831.9061873999999,None,1.2518466999990778,833.1916344000001,None,833.7056701000001,None,833.7056701000001,None,f,0.10323439999956463,833.7056701000001,None,0.10323439999956463,,,115 silent,001,2022_Dec_01_1228,ProdSingRedoBetween,2021.2.3,59.87457474093426,
,,,,91,0,91,0,,,,,,,,,,,,,,,,,,,,,,836.4102782000009,None,,,,,,,,,,,,,,,,,balance,8,92,silent,old,yellow,834.3413942000007,None,834.3413942000007,None,4,1.389481700000033,834.3413942000007,None,1.389481700000033,835.7608551000012,None,836.2753019000011,None,836.2753019000011,None,f,0.10708420000082697,836.2753019000011,None,0.10708420000082697,,,115 silent,001,2022_Dec_01_1228,ProdSingRedoBetween,2021.2.3,59.87457474093426,
,,,,92,0,92,0,,,,,,,,,,,,,,,,,,,,,,838.7294041000005,None,,,,,,,,,,,,,,,,,estate,100,93,silent,new,null,836.9308622000008,None,836.9308622000008,None,1,0.9999186999993981,836.9308622000008,None,0.9999186999993981,837.9656045000011,None,838.4785277999999,None,838.4785277999999,None,n,0.23344290000022738,838.4785277999999,None,0.23344290000022738,,,115 silent,001,2022_Dec_01_1228,ProdSingRedoBetween,2021.2.3,59.87457474093426,
,,,,93,0,93,0,,,,,,,,,,,,,,,,,,,,,,842.248927300001,None,,,,,,,,,,,,,,,,,tennis,11,94,silent,old,yellow,839.2586786000011,None,839.2586786000011,None,3,2.2980263000008563,839.2586786000011,None,2.2980263000008563,841.5834793000013,None,842.0984002000005,None,842.0984002000005,None,f,0.12298709999959101,842.0984002000005,None,0.12298709999959101,,,115 silent,001,2022_Dec_01_1228,ProdSingRedoBetween,2021.2.3,59.87457474093426,
,,,,94,0,94,0,,,,,,,,,,,,,,,,,,,,,,844.7847435000003,None,,,,,,,,,,,,,,,,,junior,51,95,silent,old,blue,842.7690718000013,None,842.7690718000013,None,6,1.2392964999999094,842.7690718000013,None,1.2392964999999094,844.0665650999999,None,844.5502727000003,None,844.5502727000003,None,r,0.20941270000002987,844.5502727000003,None,0.20941270000002987,,,115 silent,001,2022_Dec_01_1228,ProdSingRedoBetween,2021.2.3,59.87457474093426,
,,,,95,0,95,0,,,,,,,,,,,,,,,,,,,,,,847.8546715000011,None,,,,,,,,,,,,,,,,,place,124,96,silent,new,null,845.2893645000004,None,845.2893645000004,None,2,1.243170800000371,845.2893645000004,None,1.243170800000371,846.5536468000009,None,847.0698357000001,None,847.0698357000001,None,n,0.7522693000009895,847.0698357000001,None,0.7522693000009895,,,115 silent,001,2022_Dec_01_1228,ProdSingRedoBetween,2021.2.3,59.87457474093426,
,,,,96,0,96,0,,,,,,,,,,,,,,,,,,,,,,851.0242573000014,None,,,,,,,,,,,,,,,,,discussion,48,97,silent,old,blue,848.3564898000004,None,848.3564898000004,None,4,1.877580800000942,848.3564898000004,None,1.877580800000942,850.2588606999998,None,850.7768473000015,None,850.7768473000015,None,f,0.2295112000010704,850.7768473000015,None,0.2295112000010704,,,115 silent,001,2022_Dec_01_1228,ProdSingRedoBetween,2021.2.3,59.87457474093426,
,,,,97,0,97,0,,,,,,,,,,,,,,,,,,,,,,856.8481993000005,None,,,,,,,,,,,,,,,,,management,131,98,silent,new,null,851.5253428000015,None,851.5253428000015,None,4,4.5248749000002135,851.5253428000015,None,4.5248749000002135,856.0805900000014,None,856.5987153000005,None,856.5987153000005,None,f,0.2152263000007224,856.5987153000005,None,0.2152263000007224,,,115 silent,001,2022_Dec_01_1228,ProdSingRedoBetween,2021.2.3,59.87457474093426,
,,,,98,0,98,0,,,,,,,,,,,,,,,,,,,,,,860.3003774000008,None,,,,,,,,,,,,,,,,,household,44,99,silent,old,blue,857.364751000001,None,857.364751000001,None,2,2.273901800001113,857.364751000001,None,2.273901800001113,859.6713887000005,None,860.1843344999997,None,860.1843344999997,None,f,0.09239090000119177,860.1843344999997,None,0.09239090000119177,,,115 silent,001,2022_Dec_01_1228,ProdSingRedoBetween,2021.2.3,59.87457474093426,
,,,,99,0,99,0,,,,,,,,,,,,,,,,,,,,,,862.8879049000006,None,,,,,,,,,,,,,,,,,height,154,100,silent,new,null,860.8017436000009,None,860.8017436000009,None,1,1.2738259000016114,860.8017436000009,None,1.2738259000016114,862.1038292000012,None,862.6212852000008,None,862.6212852000008,None,n,0.23967970000012428,862.6212852000008,None,0.23967970000012428,,,115 silent,001,2022_Dec_01_1228,ProdSingRedoBetween,2021.2.3,59.87457474093426,
,,,,100,0,100,0,,,,,,,,,,,,,,,,,,,,,,864.856308800001,None,,,,,,,,,,,,,,,,,blind,161,101,silent,new,null,863.4034437000009,None,863.4034437000009,None,1,0.7777520999989065,863.4034437000009,None,0.7777520999989065,864.2048758000001,None,864.719793100001,None,864.719793100001,None,n,0.11838979999993171,864.719793100001,None,0.11838979999993171,,,115 silent,001,2022_Dec_01_1228,ProdSingRedoBetween,2021.2.3,59.87457474093426,
,,,,101,0,101,0,,,,,,,,,,,,,,,,,,,,,,866.840276500001,None,,,,,,,,,,,,,,,,,curve,145,102,silent,new,null,865.3770045000001,None,865.3770045000001,None,1,0.6652100999999675,865.3770045000001,None,0.6652100999999675,866.0742294000011,None,866.5893754000008,None,866.5893754000008,None,n,0.2334575999993831,866.5893754000008,None,0.2334575999993831,,,115 silent,001,2022_Dec_01_1228,ProdSingRedoBetween,2021.2.3,59.87457474093426,
,,,,102,0,102,0,,,,,,,,,,,,,,,,,,,,,,870.4443053000014,None,,,,,,,,,,,,,,,,,scene,130,103,silent,new,null,867.3583209000008,None,867.3583209000008,None,3,2.2869635000006383,867.3583209000008,None,2.2869635000006383,869.6835967000006,None,870.1941698999999,None,870.1941698999999,None,f,0.2304593000008026,870.1941698999999,None,0.2304593000008026,,,115 silent,001,2022_Dec_01_1228,ProdSingRedoBetween,2021.2.3,59.87457474093426,
,,,,103,0,103,0,,,,,,,,,,,,,,,,,,,,,,872.980393400001,None,,,,,,,,,,,,,,,,,literature,26,104,silent,old,yellow,870.9613901000012,None,870.9613901000012,None,1,1.2654005999993387,870.9613901000012,None,1.2654005999993387,872.2486444000006,None,872.7615244999997,None,872.7615244999997,None,n,0.19150970000009693,872.7615244999997,None,0.19150970000009693,,,115 silent,001,2022_Dec_01_1228,ProdSingRedoBetween,2021.2.3,59.87457474093426,
,,,,104,0,104,0,,,,,,,,,,,,,,,,,,,,,,874.9316283000007,None,,,,,,,,,,,,,,,,,crisis,15,105,silent,old,yellow,873.5096646000002,None,873.5096646000002,None,1,0.7042961000006471,873.5096646000002,None,0.7042961000006471,874.2413867000014,None,874.7473033000006,None,874.7473033000006,None,n,0.15231649999986985,874.7473033000006,None,0.15231649999986985,,,115 silent,001,2022_Dec_01_1228,ProdSingRedoBetween,2021.2.3,59.87457474093426,
,,,,105,0,105,0,,,,,,,,,,,,,,,,,,,,,,877.3840746000005,None,,,,,,,,,,,,,,,,,finance,115,106,silent,new,null,875.4336385000006,None,875.4336385000006,None,1,1.1435532999985298,875.4336385000006,None,1.1435532999985298,876.6016013000008,None,877.1161377000008,None,877.1161377000008,None,n,0.23747829999956593,877.1161377000008,None,0.23747829999956593,,,115 silent,001,2022_Dec_01_1228,ProdSingRedoBetween,2021.2.3,59.87457474093426,
,,,,106,0,106,0,,,,,,,,,,,,,,,,,,,,,,880.5039897000006,None,,,,,,,,,,,,,,,,,weight,78,107,silent,old,red,877.8864966000001,None,877.8864966000001,None,6,1.3293952000003628,877.8864966000001,None,1.3293952000003628,879.2359210000013,None,879.7369843000015,None,879.7369843000015,None,r,0.7394448999984888,879.7369843000015,None,0.7394448999984888,,,115 silent,001,2022_Dec_01_1228,ProdSingRedoBetween,2021.2.3,59.87457474093426,
,,,,107,0,107,0,,,,,,,,,,,,,,,,,,,,,,882.8227981,None,,,,,,,,,,,,,,,,,search,63,108,silent,old,red,881.0231961000009,None,881.0231961000009,None,1,0.9586252999997669,881.0231961000009,None,0.9586252999997669,882.0065210000012,None,882.5213753000007,None,882.5213753000007,None,n,0.276039899999887,882.5213753000007,None,0.276039899999887,,,115 silent,001,2022_Dec_01_1228,ProdSingRedoBetween,2021.2.3,59.87457474093426,
,,,,108,0,108,0,,,,,,,,,,,,,,,,,,,,,,885.9091979000004,None,,,,,,,,,,,,,,,,,dispute,19,109,silent,old,yellow,883.3246736000001,None,883.3246736000001,None,5,1.8235287999996217,883.3246736000001,None,1.8235287999996217,885.176053000001,None,885.6913885000013,None,885.6913885000013,None,f,0.19197220000023663,885.6913885000013,None,0.19197220000023663,,,115 silent,001,2022_Dec_01_1228,ProdSingRedoBetween,2021.2.3,59.87457474093426,
,,,,109,0,109,0,,,,,,,,,,,,,,,,,,,,,,888.5248189000013,None,,,,,,,,,,,,,,,,,length,96,110,silent,new,null,886.4109298000003,None,886.4109298000003,None,1,1.3083772999998473,886.4109298000003,None,1.3083772999998473,887.7454835999997,None,888.2599176000003,None,888.2599176000003,None,n,0.22685960000126215,888.2599176000003,None,0.22685960000126215,,,115 silent,001,2022_Dec_01_1228,ProdSingRedoBetween,2021.2.3,59.87457474093426,
,,,,110,0,110,0,,,,,,,,,,,,,,,,,,,,,,891.1477993000008,None,,,,,,,,,,,,,,,,,design,64,111,silent,old,red,889.0288766000012,None,889.0288766000012,None,4,1.498339499999929,889.0288766000012,None,1.498339499999929,890.5480299999999,None,891.0634308000008,None,891.0634308000008,None,f,0.052317399999083136,891.0634308000008,None,0.052317399999083136,,,115 silent,001,2022_Dec_01_1228,ProdSingRedoBetween,2021.2.3,59.87457474093426,
,,,,111,0,111,0,,,,,,,,,,,,,,,,,,,,,,893.6632511000007,None,,,,,,,,,,,,,,,,,partner,160,112,silent,new,null,891.6658384000002,None,891.6658384000002,None,3,1.3199519999998302,891.6658384000002,None,1.3199519999998302,893.0182311999997,None,893.5394102999999,None,893.5394102999999,None,f,0.08875349999834725,893.5394102999999,None,0.08875349999834725,,,115 silent,001,2022_Dec_01_1228,ProdSingRedoBetween,2021.2.3,59.87457474093426,
,,,,112,0,112,0,,,,,,,,,,,,,,,,,,,,,,896.2216974000003,None,,,,,,,,,,,,,,,,,incident,117,113,silent,new,null,894.1757159000008,None,894.1757159000008,None,3,1.4003081999999267,894.1757159000008,None,1.4003081999999267,895.6040503000004,None,896.1233401000009,None,896.1233401000009,None,f,0.06998770000063814,896.1233401000009,None,0.06998770000063814,,,115 silent,001,2022_Dec_01_1228,ProdSingRedoBetween,2021.2.3,59.87457474093426,
,,,,113,0,113,0,,,,,,,,,,,,,,,,,,,,,,898.6215067000012,None,,,,,,,,,,,,,,,,,thick,101,114,silent,new,null,896.7393716000006,None,896.7393716000006,None,1,1.0425111999993533,896.7393716000006,None,1.0425111999993533,897.8271076000001,None,898.3390850000014,None,898.3390850000014,None,n,0.2403415999997378,898.3390850000014,None,0.2403415999997378,,,115 silent,001,2022_Dec_01_1228,ProdSingRedoBetween,2021.2.3,59.87457474093426,
,,,,114,0,114,0,,,,,,,,,,,,,,,,,,,,,,901.1249813000013,None,,,,,,,,,,,,,,,,,treatment,67,115,silent,old,red,899.1228057999997,None,899.1228057999997,None,2,1.40072279999913,899.1228057999997,None,1.40072279999913,900.5433776000009,None,901.0572092000002,None,901.0572092000002,None,f,0.04426260000036564,901.0572092000002,None,0.04426260000036564,,,115 silent,001,2022_Dec_01_1228,ProdSingRedoBetween,2021.2.3,59.87457474093426,
,,,,115,0,115,0,,,,,,,,,,,,,,,,,,,,,,903.6441554000012,None,,,,,,,,,,,,,,,,,theme,94,116,silent,new,null,901.6414998,None,901.6414998,None,1,0.9923882999992202,901.6414998,None,0.9923882999992202,902.6595112000014,None,903.1754495000005,None,903.1754495000005,None,n,0.44474840000111726,903.1754495000005,None,0.44474840000111726,,,115 silent,001,2022_Dec_01_1228,ProdSingRedoBetween,2021.2.3,59.87457474093426,
,,,,116,0,116,0,,,,,,,,,,,,,,,,,,,,,,906.959316800001,None,,,,,,,,,,,,,,,,,shape,56,117,silent,old,blue,904.1610583000001,None,904.1610583000001,None,2,2.0519691000008606,904.1610583000001,None,2.0519691000008606,906.2479186,None,906.7645990000001,None,906.7645990000001,None,f,0.1591380999998364,906.7645990000001,None,0.1591380999998364,,,115 silent,001,2022_Dec_01_1228,ProdSingRedoBetween,2021.2.3,59.87457474093426,
,,,,117,0,117,0,,,,,,,,,,,,,,,,,,,,,,909.7184229000013,None,,,,,,,,,,,,,,,,,agreement,178,118,silent,new,null,907.4691871000014,None,907.4691871000014,None,1,1.21477380000033,907.4691871000014,None,1.21477380000033,908.7164277000011,None,909.2345506000001,None,909.2345506000001,None,n,0.45124269999905664,909.2345506000001,None,0.45124269999905664,,,115 silent,001,2022_Dec_01_1228,ProdSingRedoBetween,2021.2.3,59.87457474093426,
,,,,118,0,118,0,,,,,,,,,,,,,,,,,,,,,,912.2691996000012,None,,,,,,,,,,,,,,,,,piece,108,119,silent,new,null,910.2346155000014,None,910.2346155000014,None,1,1.3000422999994043,910.2346155000014,None,1.3000422999994043,911.5532476999997,None,912.0674759000012,None,912.0674759000012,None,n,0.17610599999898113,912.0674759000012,None,0.17610599999898113,,,115 silent,001,2022_Dec_01_1228,ProdSingRedoBetween,2021.2.3,59.87457474093426,
,,,,119,0,119,0,,,,,,,,,,,,,,,,,,,,,,914.0711885000001,None,,,,,,,,,,,,,,,,,narrow,31,120,silent,old,blue,912.8072745999998,None,912.8072745999998,None,1,0.6576583999994909,912.8072745999998,None,0.6576583999994909,913.4954581000002,None,914.0034067000015,None,914.0034067000015,None,n,0.03659700000025623,914.0034067000015,None,0.03659700000025623,,,115 silent,001,2022_Dec_01_1228,ProdSingRedoBetween,2021.2.3,59.87457474093426,
,,,,120,0,120,0,,,,,,,,,,,,,,,,,,,,,,917.6241344000009,None,,,,,,,,,,,,,,,,,burden,92,121,silent,new,null,914.5880539999998,None,914.5880539999998,None,5,2.4209561000006943,914.5880539999998,None,2.4209561000006943,917.0603843999997,None,917.5768184000008,None,917.5768184000008,None,f,0.01513399999930698,917.5768184000008,None,0.01513399999930698,,,115 silent,001,2022_Dec_01_1228,ProdSingRedoBetween,2021.2.3,59.87457474093426,
,,,,121,0,121,0,,,,,,,,,,,,,,,,,,,,,,921.2128388000001,None,,,,,,,,,,,,,,,,,contract,14,122,silent,old,yellow,918.1320500000002,None,918.1320500000002,None,3,2.446605199998885,918.1320500000002,None,2.446605199998885,920.6142187000005,None,921.1301574999998,None,921.1301574999998,None,f,0.0636095000008936,921.1301574999998,None,0.0636095000008936,,,115 silent,001,2022_Dec_01_1228,ProdSingRedoBetween,2021.2.3,59.87457474093426,
,,,,122,0,122,0,,,,,,,,,,,,,,,,,,,,,,923.9977157000012,None,,,,,,,,,,,,,,,,,appearance,82,123,silent,old,red,921.7295556999998,None,921.7295556999998,None,2,1.2167479999989155,921.7295556999998,None,1.2167479999989155,922.9655158000005,None,923.4791721000001,None,923.4791721000001,None,f,0.4874352999995608,923.4791721000001,None,0.4874352999995608,,,115 silent,001,2022_Dec_01_1228,ProdSingRedoBetween,2021.2.3,59.87457474093426,
,,,,123,0,123,0,,,,,,,,,,,,,,,,,,,,,,927.2570301000014,None,,,,,,,,,,,,,,,,,opening,22,124,silent,old,yellow,924.5157429999999,None,924.5157429999999,None,2,2.1241681999999855,924.5157429999999,None,2.1241681999999855,926.6786489000006,None,927.1878042999997,None,927.1878042999997,None,f,0.030512799999996787,927.1878042999997,None,0.030512799999996787,,,115 silent,001,2022_Dec_01_1228,ProdSingRedoBetween,2021.2.3,59.87457474093426,
,,,,124,0,124,0,,,,,,,,,,,,,,,,,,,,,,929.8865796999999,None,,,,,,,,,,,,,,,,,meeting,43,125,silent,old,blue,927.7864307,None,927.7864307,None,2,1.4094301000004634,927.7864307,None,1.4094301000004634,929.2221353000004,None,929.7353663000013,None,929.7353663000013,None,f,0.13312600000062957,929.7353663000013,None,0.13312600000062957,,,115 silent,001,2022_Dec_01_1228,ProdSingRedoBetween,2021.2.3,59.87457474093426,
,,,,125,0,125,0,,,,,,,,,,,,,,,,,,,,,,933.1569168000005,None,,,,,,,,,,,,,,,,,audience,70,126,silent,old,red,930.3940533000005,None,930.3940533000005,None,6,1.7598659999985102,930.3940533000005,None,1.7598659999985102,932.1733718000014,None,932.688277700001,None,932.688277700001,None,r,0.44028050000088115,932.688277700001,None,0.44028050000088115,,,115 silent,001,2022_Dec_01_1228,ProdSingRedoBetween,2021.2.3,59.87457474093426,
,,,,126,0,126,0,,,,,,,,,,,,,,,,,,,,,,935.6762225000002,None,,,,,,,,,,,,,,,,,smooth,24,127,silent,old,yellow,933.6811169000011,None,933.6811169000011,None,1,1.2440319999986968,933.6811169000011,None,1.2440319999986968,934.9623088000008,None,935.4739017000011,None,935.4739017000011,None,n,0.18057760000010603,935.4739017000011,None,0.18057760000010603,,,115 silent,001,2022_Dec_01_1228,ProdSingRedoBetween,2021.2.3,59.87457474093426,
,,,,127,0,127,0,,,,,,,,,,,,,,,,,,,,,,938.197847200001,None,,,,,,,,,,,,,,,,,atmosphere,7,128,silent,old,yellow,936.1964157000002,None,936.1964157000002,None,6,1.1529048000011244,936.1964157000002,None,1.1529048000011244,937.3794297000004,None,937.8934141000009,None,937.8934141000009,None,r,0.2541330999993079,937.8934141000009,None,0.2541330999993079,,,115 silent,001,2022_Dec_01_1228,ProdSingRedoBetween,2021.2.3,59.87457474093426,
,,,,128,0,128,0,,,,,,,,,,,,,,,,,,,,,,940.6471183000012,None,,,,,,,,,,,,,,,,,quiet,80,129,silent,old,red,938.7124272000001,None,938.7124272000001,None,2,1.2116456999992806,938.7124272000001,None,1.2116456999992806,939.9481677000003,None,940.4632154999999,None,940.4632154999999,None,f,0.16317460000027495,940.4632154999999,None,0.16317460000027495,,,115 silent,001,2022_Dec_01_1228,ProdSingRedoBetween,2021.2.3,59.87457474093426,
,,,,129,0,129,0,,,,,,,,,,,,,,,,,,,,,,942.9315091000008,None,,,,,,,,,,,,,,,,,marriage,172,130,silent,new,null,941.148974400001,None,941.148974400001,None,1,0.9778876000000309,941.148974400001,None,0.9778876000000309,942.1492407000005,None,942.664416900001,None,942.664416900001,None,n,0.24105649999910383,942.664416900001,None,0.24105649999910383,,,115 silent,001,2022_Dec_01_1228,ProdSingRedoBetween,2021.2.3,59.87457474093426,
,,,,130,0,130,0,,,,,,,,,,,,,,,,,,,,,,945.8689317999997,None,,,,,,,,,,,,,,,,,shear,38,131,silent,old,blue,943.4519655000004,None,943.4519655000004,None,6,1.6529764999995677,943.4519655000004,None,1.6529764999995677,945.1437862000002,None,945.652587300001,None,945.652587300001,None,r,0.18393060000016703,945.652587300001,None,0.18393060000016703,,,115 silent,001,2022_Dec_01_1228,ProdSingRedoBetween,2021.2.3,59.87457474093426,
,,,,131,0,131,0,,,,,,,,,,,,,,,,,,,,,,949.891600500001,None,,,,,,,,,,,,,,,,,block,114,132,silent,new,null,946.3710766000004,None,946.3710766000004,None,2,2.9026223000000755,946.3710766000004,None,2.9026223000000755,949.3206639,None,949.8257150000009,None,949.8257150000009,None,f,0.03924879999976838,949.8257150000009,None,0.03924879999976838,,,115 silent,001,2022_Dec_01_1228,ProdSingRedoBetween,2021.2.3,59.87457474093426,
,,,,132,0,132,0,,,,,,,,,,,,,,,,,,,,,,953.7423463000014,None,,,,,,,,,,,,,,,,,evidence,17,133,silent,old,yellow,950.4110700000001,None,950.4110700000001,None,2,2.647584199999983,950.4110700000001,None,2.647584199999983,953.0783948000008,None,953.5931711000012,None,953.5931711000012,None,f,0.13400569999976142,953.5931711000012,None,0.13400569999976142,,,115 silent,001,2022_Dec_01_1228,ProdSingRedoBetween,2021.2.3,59.87457474093426,
,,,,133,0,133,0,,,,,,,,,,,,,,,,,,,,,,955.9292010000008,None,,,,,,,,,,,,,,,,,attack,68,134,silent,old,red,954.2498981999997,None,954.2498981999997,None,1,0.9519610000006651,954.2498981999997,None,0.9519610000006651,955.2304424000013,None,955.7445609000006,None,955.7445609000006,None,n,0.16095529999984137,955.7445609000006,None,0.16095529999984137,,,115 silent,001,2022_Dec_01_1228,ProdSingRedoBetween,2021.2.3,59.87457474093426,
,,,,134,0,134,0,,,,,,,,,,,,,,,,,,,,,,958.2820690999997,None,,,,,,,,,,,,,,,,,hunger,122,135,silent,new,null,956.4338991000004,None,956.4338991000004,None,1,1.0493397000009281,956.4338991000004,None,1.0493397000009281,957.5160852999998,None,958.0304598000002,None,958.0304598000002,None,n,0.23176180000155,958.0304598000002,None,0.23176180000155,,,115 silent,001,2022_Dec_01_1228,ProdSingRedoBetween,2021.2.3,59.87457474093426,
,,,,135,0,135,0,,,,,,,,,,,,,,,,,,,,,,961.2333603000006,None,,,,,,,,,,,,,,,,,nature,139,136,silent,new,null,958.7983516000004,None,958.7983516000004,None,3,1.3616856000007829,958.7983516000004,None,1.3616856000007829,960.1846341,None,960.6993645000002,None,960.6993645000002,None,f,0.5123251999993954,960.6993645000002,None,0.5123251999993954,,,115 silent,001,2022_Dec_01_1228,ProdSingRedoBetween,2021.2.3,59.87457474093426,
,,,,136,0,136,0,,,,,,,,,,,,,,,,,,,,,,964.0879974,None,,,,,,,,,,,,,,,,,goose,175,137,silent,new,null,961.7361333000008,None,961.7361333000008,None,1,1.5784738000002108,961.7361333000008,None,1.5784738000002108,963.3381767999999,None,963.8532242000001,None,963.8532242000001,None,n,0.21479640000143263,963.8532242000001,None,0.21479640000143263,,,115 silent,001,2022_Dec_01_1228,ProdSingRedoBetween,2021.2.3,59.87457474093426,
,,,,137,0,137,0,,,,,,,,,,,,,,,,,,,,,,966.6586359000012,None,,,,,,,,,,,,,,,,,worker,89,138,silent,old,red,964.6081513999998,None,964.6081513999998,None,2,1.152967099998932,964.6081513999998,None,1.152967099998932,965.7950036000002,None,966.305298700001,None,966.305298700001,None,f,0.31927490000089165,966.305298700001,None,0.31927490000089165,,,115 silent,001,2022_Dec_01_1228,ProdSingRedoBetween,2021.2.3,59.87457474093426,
,,,,138,0,138,0,,,,,,,,,,,,,,,,,,,,,,970.3897448000007,None,,,,,,,,,,,,,,,,,community,39,139,silent,old,blue,967.1737444999999,None,967.1737444999999,None,2,2.5348169000008056,967.1737444999999,None,2.5348169000008056,969.7273999000008,None,970.2431585000013,None,970.2431585000013,None,f,0.11281860000053712,970.2431585000013,None,0.11281860000053712,,,115 silent,001,2022_Dec_01_1228,ProdSingRedoBetween,2021.2.3,59.87457474093426,
,,,,139,0,139,0,,,,,,,,,,,,,,,,,,,,,,974.2641930999998,None,,,,,,,,,,,,,,,,,heavy,42,140,silent,old,blue,970.8954461000012,None,970.8954461000012,None,2,2.357298400000218,970.8954461000012,None,2.357298400000218,973.2834648000007,None,973.7962851000011,None,973.7962851000011,None,f,0.4487275999999838,973.7962851000011,None,0.4487275999999838,,,115 silent,001,2022_Dec_01_1228,ProdSingRedoBetween,2021.2.3,59.87457474093426,
,,,,140,0,140,0,,,,,,,,,,,,,,,,,,,,,,976.9227595000011,None,,,,,,,,,,,,,,,,,question,2,141,silent,old,yellow,974.7661325999998,None,974.7661325999998,None,2,1.2854407000013452,974.7661325999998,None,1.2854407000013452,976.0842458000006,None,976.5995798000004,None,976.5995798000004,None,f,0.29407370000080846,976.5995798000004,None,0.29407370000080846,,,115 silent,001,2022_Dec_01_1228,ProdSingRedoBetween,2021.2.3,59.87457474093426,
,,,,141,0,141,0,,,,,,,,,,,,,,,,,,,,,,979.3531074000002,None,,,,,,,,,,,,,,,,,raise,12,142,silent,old,yellow,977.4343604000005,None,977.4343604000005,None,1,1.127465999999913,977.4343604000005,None,1.127465999999913,978.5866103999997,None,979.1012843000008,None,979.1012843000008,None,n,0.2200875000016822,979.1012843000008,None,0.2200875000016822,,,115 silent,001,2022_Dec_01_1228,ProdSingRedoBetween,2021.2.3,59.87457474093426,
,,,,142,0,142,0,,,,,,,,,,,,,,,,,,,,,,981.5062140000009,None,,,,,,,,,,,,,,,,,expansion,83,143,silent,old,red,979.8621744000011,None,979.8621744000011,None,1,0.9069942999994964,979.8621744000011,None,0.9069942999994964,980.7964673000006,None,981.3080654000005,None,981.3080654000005,None,n,0.166461500000878,981.3080654000005,None,0.166461500000878,,,115 silent,001,2022_Dec_01_1228,ProdSingRedoBetween,2021.2.3,59.87457474093426,
,,,,143,0,143,0,,,,,,,,,,,,,,,,,,,,,,984.2758372000008,None,,,,,,,,,,,,,,,,,waste,167,144,silent,new,null,982.0263431000003,None,982.0263431000003,None,4,1.5355160999988584,982.0263431000003,None,1.5355160999988584,983.6060494000012,None,984.109711000001,None,984.109711000001,None,f,0.14581510000061826,984.109711000001,None,0.14581510000061826,,,115 silent,001,2022_Dec_01_1228,ProdSingRedoBetween,2021.2.3,59.87457474093426,
,,,,144,0,144,0,,,,,,,,,,,,,,,,,,,,,,986.4767389000008,None,,,,,,,,,,,,,,,,,population,125,145,silent,new,null,984.8145485000005,None,984.8145485000005,None,1,0.927752600000531,984.8145485000005,None,0.927752600000531,985.7656929000004,None,986.2778729000001,None,986.2778729000001,None,n,0.17012109999996028,986.2778729000001,None,0.17012109999996028,,,115 silent,001,2022_Dec_01_1228,ProdSingRedoBetween,2021.2.3,59.87457474093426,
,,,,145,0,145,0,,,,,,,,,,,,,,,,,,,,,,988.5949049999999,None,,,,,,,,,,,,,,,,,smell,88,146,silent,old,red,986.9962235000003,None,986.9962235000003,None,1,0.9405927000007068,986.9962235000003,None,0.9405927000007068,987.9635823999997,None,988.4775254000015,None,988.4775254000015,None,n,0.08929279999938444,988.4775254000015,None,0.08929279999938444,,,115 silent,001,2022_Dec_01_1228,ProdSingRedoBetween,2021.2.3,59.87457474093426,
,,,,146,0,146,0,,,,,,,,,,,,,,,,,,,,,,991.5649928000003,None,,,,,,,,,,,,,,,,,fight,86,147,silent,old,red,989.1048897000001,None,989.1048897000001,None,1,1.0408257999988564,989.1048897000001,None,1.0408257999988564,990.1711895000008,None,990.6813840000013,None,990.6813840000013,None,n,0.8561664000008022,990.6813840000013,None,0.8561664000008022,,,115 silent,001,2022_Dec_01_1228,ProdSingRedoBetween,2021.2.3,59.87457474093426,
,,,,147,0,147,0,,,,,,,,,,,,,,,,,,,,,,993.5824494999997,None,,,,,,,,,,,,,,,,,quarter,90,148,silent,new,null,992.0829634000002,None,992.0829634000002,None,1,0.7337272999993729,992.0829634000002,None,0.7337272999993729,992.8508017000004,None,993.3655742999999,None,993.3655742999999,None,n,0.20113110000056622,993.3655742999999,None,0.20113110000056622,,,115 silent,001,2022_Dec_01_1228,ProdSingRedoBetween,2021.2.3,59.87457474093426,
,,,,148,0,148,0,,,,,,,,,,,,,,,,,,,,,,995.4854169999999,None,,,,,,,,,,,,,,,,,fellow,52,149,silent,old,blue,994.0901453000006,None,994.0901453000006,None,1,0.6278891999991174,994.0901453000006,None,0.6278891999991174,994.7361149999997,None,995.2511933000005,None,995.2511933000005,None,n,0.21701890000076673,995.2511933000005,None,0.21701890000076673,,,115 silent,001,2022_Dec_01_1228,ProdSingRedoBetween,2021.2.3,59.87457474093426,
,,,,149,0,149,0,,,,,,,,,,,,,,,,,,,,,,998.3371342999999,None,,,,,,,,,,,,,,,,,instrument,74,150,silent,old,red,995.9876230999998,None,995.9876230999998,None,5,1.6182041999982175,995.9876230999998,None,1.6182041999982175,997.6404672000008,None,998.1545837000012,None,998.1545837000012,None,f,0.15120170000045619,998.1545837000012,None,0.15120170000045619,,,115 silent,001,2022_Dec_01_1228,ProdSingRedoBetween,2021.2.3,59.87457474093426,
,,,,150,0,150,0,,,,,,,,,,,,,,,,,,,,,,1002.3092047000009,None,,,,,,,,,,,,,,,,,staff,127,151,silent,new,null,998.8400191000001,None,998.8400191000001,None,2,1.120011599999998,998.8400191000001,None,1.120011599999998,999.9922693999997,None,1000.5061596000014,None,1000.5061596000014,None,n,1.7771570999993855,1000.5061596000014,None,1.7771570999993855,,,115 silent,001,2022_Dec_01_1228,ProdSingRedoBetween,2021.2.3,59.87457474093426,
,,,,151,0,151,0,,,,,,,,,,,,,,,,,,,,,,1005.1625421000008,None,,,,,,,,,,,,,,,,,department,3,152,silent,old,yellow,1002.8182317999999,None,1002.8182317999999,None,5,1.656587400000717,1002.8182317999999,None,1.656587400000717,1004.4963583999997,None,1005.0124661999998,None,1005.0124661999998,None,f,0.10926810000091791,1005.0124661999998,None,0.10926810000091791,,,115 silent,001,2022_Dec_01_1228,ProdSingRedoBetween,2021.2.3,59.87457474093426,
,,,,152,0,152,0,,,,,,,,,,,,,,,,,,,,,,1007.4841185000005,None,,,,,,,,,,,,,,,,,mayor,10,153,silent,old,yellow,1005.6828323999998,None,1005.6828323999998,None,6,1.0082048000003851,1005.6828323999998,None,1.0082048000003851,1006.7145940999999,None,1007.2478656000003,None,1007.2478656000003,None,r,0.2080960999992385,1007.2478656000003,None,0.2080960999992385,,,115 silent,001,2022_Dec_01_1228,ProdSingRedoBetween,2021.2.3,59.87457474093426,
,,,,153,0,153,0,,,,,,,,,,,,,,,,,,,,,,1009.7819200000013,None,,,,,,,,,,,,,,,,,pancakes,99,154,silent,new,null,1008.0037228000001,None,1008.0037228000001,None,1,0.9789488000005804,1008.0037228000001,None,0.9789488000005804,1009.0175541999997,None,1009.533771800001,None,1009.533771800001,None,n,0.21904899999935878,1009.533771800001,None,0.21904899999935878,,,115 silent,001,2022_Dec_01_1228,ProdSingRedoBetween,2021.2.3,59.87457474093426,
,,,,154,0,154,0,,,,,,,,,,,,,,,,,,,,,,1012.2513636000003,None,,,,,,,,,,,,,,,,,whole,118,155,silent,new,null,1010.2938298999998,None,1010.2938298999998,None,5,1.3064360999997007,1010.2938298999998,None,1.3064360999997007,1011.6224330000005,None,1012.1339406000006,None,1012.1339406000006,None,f,0.08739199999945413,1012.1339406000006,None,0.08739199999945413,,,115 silent,001,2022_Dec_01_1228,ProdSingRedoBetween,2021.2.3,59.87457474093426,
,,,,155,0,155,0,,,,,,,,,,,,,,,,,,,,,,1014.438043600001,None,,,,,,,,,,,,,,,,,period,143,156,silent,new,null,1012.7543983000014,None,1012.7543983000014,None,1,0.9745155000000523,1012.7543983000014,None,0.9745155000000523,1013.755191100001,None,1014.2701907999999,None,1014.2701907999999,None,n,0.14205539999966277,1014.2701907999999,None,0.14205539999966277,,,115 silent,001,2022_Dec_01_1228,ProdSingRedoBetween,2021.2.3,59.87457474093426,
,,,,156,0,156,0,,,,,,,,,,,,,,,,,,,,,,1016.5901271000002,None,,,,,,,,,,,,,,,,,pretty,109,157,silent,new,null,1014.9549091999997,None,1014.9549091999997,None,1,0.9116279999998369,1014.9549091999997,None,0.9116279999998369,1015.8912897999999,None,1016.4053886000002,None,1016.4053886000002,None,n,0.16367170000012266,1016.4053886000002,None,0.16367170000012266,,,115 silent,001,2022_Dec_01_1228,ProdSingRedoBetween,2021.2.3,59.87457474093426,
,,,,157,0,157,0,,,,,,,,,,,,,,,,,,,,,,1019.2314510000015,None,,,,,,,,,,,,,,,,,safety,97,158,silent,new,null,1017.1101606000011,None,1017.1101606000011,None,4,1.5171408000005613,1017.1101606000011,None,1.5171408000005613,1018.6601655000013,None,1019.1796180000001,None,1019.1796180000001,None,f,0.005933200000072247,1019.1796180000001,None,0.005933200000072247,,,115 silent,001,2022_Dec_01_1228,ProdSingRedoBetween,2021.2.3,59.87457474093426,
,,,,158,0,158,0,,,,,,,,,,,,,,,,,,,,,,1022.6753785000001,None,,,,,,,,,,,,,,,,,surface,165,159,silent,new,null,1019.7497577000013,None,1019.7497577000013,None,3,2.1397998000011285,1019.7497577000013,None,2.1397998000011285,1021.9135373999998,None,1022.4281229000007,None,1022.4281229000007,None,f,0.21603010000035283,1022.4281229000007,None,0.21603010000035283,,,115 silent,001,2022_Dec_01_1228,ProdSingRedoBetween,2021.2.3,59.87457474093426,
,,,,159,0,159,0,,,,,,,,,,,,,,,,,,,,,,1025.0144720000008,None,,,,,,,,,,,,,,,,,taste,162,160,silent,new,null,1023.1847039000004,None,1023.1847039000004,None,2,1.1568876000001183,1023.1847039000004,None,1.1568876000001183,1024.3656050000009,None,1024.8804075000007,None,1024.8804075000007,None,f,0.11102219999884255,1024.8804075000007,None,0.11102219999884255,,,115 silent,001,2022_Dec_01_1228,ProdSingRedoBetween,2021.2.3,59.87457474093426,
,,,,160,0,160,0,,,,,,,,,,,,,,,,,,,,,,1027.1050540000015,None,,,,,,,,,,,,,,,,,science,150,161,silent,new,null,1025.5190552000004,None,1025.5190552000004,None,1,0.9735796000004484,1025.5190552000004,None,0.9735796000004484,1026.5179742,None,1027.0342571,None,1027.0342571,None,n,0.02506569999968633,1027.0342571,None,0.02506569999968633,,,115 silent,001,2022_Dec_01_1228,ProdSingRedoBetween,2021.2.3,59.87457474093426,
,,,,161,0,161,0,,,,,,,,,,,,,,,,,,,,,,1029.469423300001,None,,,,,,,,,,,,,,,,,sunset,93,162,silent,new,null,1027.6258558000009,None,1027.6258558000009,None,1,0.7908422999989853,1027.6258558000009,None,0.7908422999989853,1028.4354797000015,None,1028.951250600001,None,1028.951250600001,None,n,0.5009070000014617,1028.951250600001,None,0.5009070000014617,,,115 silent,001,2022_Dec_01_1228,ProdSingRedoBetween,2021.2.3,59.87457474093426,
,,,,162,0,162,0,,,,,,,,,,,,,,,,,,,,,,1031.4882658000006,None,,,,,,,,,,,,,,,,,salary,157,163,silent,new,null,1029.9783114000002,None,1029.9783114000002,None,1,0.8088195000000269,1029.9783114000002,None,0.8088195000000269,1030.8072696,None,1031.3213913,None,1031.3213913,None,n,0.14459999999962747,1031.3213913,None,0.14459999999962747,,,115 silent,001,2022_Dec_01_1228,ProdSingRedoBetween,2021.2.3,59.87457474093426,
,,,,163,0,163,0,,,,,,,,,,,,,,,,,,,,,,1034.7332179000005,None,,,,,,,,,,,,,,,,,guest,146,164,silent,new,null,1031.9913174000012,None,1031.9913174000012,None,3,2.0163467999991553,1031.9913174000012,None,2.0163467999991553,1034.0268289000014,None,1034.5440870000002,None,1034.5440870000002,None,f,0.15703450000000885,1034.5440870000002,None,0.15703450000000885,,,115 silent,001,2022_Dec_01_1228,ProdSingRedoBetween,2021.2.3,59.87457474093426,
,,,,164,0,164,0,,,,,,,,,,,,,,,,,,,,,,1037.7784210999998,None,,,,,,,,,,,,,,,,,pressure,30,165,silent,old,blue,1035.248467200001,None,1035.248467200001,None,4,1.790725900000325,1035.248467200001,None,1.790725900000325,1037.0613700000013,None,1037.5768650999998,None,1037.5768650999998,None,f,0.1736254999996163,1037.5768650999998,None,0.1736254999996163,,,115 silent,001,2022_Dec_01_1228,ProdSingRedoBetween,2021.2.3,59.87457474093426,
,,,,165,0,165,0,,,,,,,,,,,,,,,,,,,,,,1040.502159400001,None,,,,,,,,,,,,,,,,,addition,106,166,silent,new,null,1038.2951896000013,None,1038.2951896000013,None,4,1.549645099999907,1038.2951896000013,None,1.549645099999907,1039.8643839000015,None,1040.3806624999997,None,1040.3806624999997,None,f,0.09338179999940621,1040.3806624999997,None,0.09338179999940621,,,115 silent,001,2022_Dec_01_1228,ProdSingRedoBetween,2021.2.3,59.87457474093426,
,,,,166,0,166,0,,,,,,,,,,,,,,,,,,,,,,1043.2671729000012,None,,,,,,,,,,,,,,,,,candidate,77,167,silent,old,red,1041.0149812,None,1041.0149812,None,2,1.477612599999702,1041.0149812,None,1.477612599999702,1042.5174148000006,None,1043.0348669000014,None,1043.0348669000014,None,f,0.2055473999989772,1043.0348669000014,None,0.2055473999989772,,,115 silent,001,2022_Dec_01_1228,ProdSingRedoBetween,2021.2.3,59.87457474093426,
,,,,167,0,167,0,,,,,,,,,,,,,,,,,,,,,,1045.703148300001,None,,,,,,,,,,,,,,,,,mankind,135,168,silent,new,null,1043.7896201000003,None,1043.7896201000003,None,1,1.1227639999997336,1043.7896201000003,None,1.1227639999997336,1044.9405340000012,None,1045.4525519,None,1045.4525519,None,n,0.2252900999992562,1045.4525519,None,0.2252900999992562,,,115 silent,001,2022_Dec_01_1228,ProdSingRedoBetween,2021.2.3,59.87457474093426,
,,,,168,0,168,0,,,,,,,,,,,,,,,,,,,,,,1048.2551081000001,None,,,,,,,,,,,,,,,,,business,116,169,silent,new,null,1046.2232937999997,None,1046.2232937999997,None,4,1.3160399999997026,1046.2232937999997,None,1.3160399999997026,1047.579550800001,None,1048.0908420000014,None,1048.0908420000014,None,f,0.1227510999997321,1048.0908420000014,None,0.1227510999997321,,,115 silent,001,2022_Dec_01_1228,ProdSingRedoBetween,2021.2.3,59.87457474093426,
,,,,169,0,169,0,,,,,,,,,,,,,,,,,,,,,,1051.1359598,None,,,,,,,,,,,,,,,,,leader,18,170,silent,old,yellow,1048.7804491000006,None,1048.7804491000006,None,3,1.6729668000007223,1048.7804491000006,None,1.6729668000007223,1050.4756584000006,None,1051.0034775000004,None,1051.0034775000004,None,f,0.09869609999987006,1051.0034775000004,None,0.09869609999987006,,,115 silent,001,2022_Dec_01_1228,ProdSingRedoBetween,2021.2.3,59.87457474093426,
,,,,170,0,170,0,,,,,,,,,,,,,,,,,,,,,,1053.3934864000003,None,,,,,,,,,,,,,,,,,review,61,171,silent,old,red,1051.6498779000012,None,1051.6498779000012,None,1,0.9057040000006964,1051.6498779000012,None,0.9057040000006964,1052.5806155999999,None,1053.104617500001,None,1053.104617500001,None,n,0.2639178000008542,1053.104617500001,None,0.2639178000008542,,,115 silent,001,2022_Dec_01_1228,ProdSingRedoBetween,2021.2.3,59.87457474093426,
,,,,171,0,171,0,,,,,,,,,,,,,,,,,,,,,,1056.0964712000005,None,,,,,,,,,,,,,,,,,public,28,172,silent,old,yellow,1053.9115890000012,None,1053.9115890000012,None,4,1.481760900000154,1053.9115890000012,None,1.481760900000154,1055.4211454000015,None,1055.9292602000005,None,1055.9292602000005,None,f,0.13685289999921224,1055.9292602000005,None,0.13685289999921224,,,115 silent,001,2022_Dec_01_1228,ProdSingRedoBetween,2021.2.3,59.87457474093426,
,,,,172,0,172,0,,,,,,,,,,,,,,,,,,,,,,1060.3502063000014,None,,,,,,,,,,,,,,,,,front,4,173,silent,old,yellow,1056.6117517000002,None,1056.6117517000002,None,6,2.8821031999996194,1056.6117517000002,None,2.8821031999996194,1059.5174365000003,None,1060.0323077000012,None,1060.0323077000012,None,r,0.2985910999996122,1060.0323077000012,None,0.2985910999996122,,,115 silent,001,2022_Dec_01_1228,ProdSingRedoBetween,2021.2.3,59.87457474093426,
,,,,173,0,173,0,,,,,,,,,,,,,,,,,,,,,,1063.1532736999998,None,,,,,,,,,,,,,,,,,measure,55,174,silent,old,blue,1060.8735047999999,None,1060.8735047999999,None,1,1.4798104999990755,1060.8735047999999,None,1.4798104999990755,1062.3895295000002,None,1062.9205344000002,None,1062.9205344000002,None,n,0.20391949999975623,1062.9205344000002,None,0.20391949999975623,,,115 silent,001,2022_Dec_01_1228,ProdSingRedoBetween,2021.2.3,59.87457474093426,
,,,,174,0,174,0,,,,,,,,,,,,,,,,,,,,,,1065.8639945000014,None,,,,,,,,,,,,,,,,,impact,164,175,silent,new,null,1063.6576971000013,None,1063.6576971000013,None,4,1.4963374999988446,1063.6576971000013,None,1.4963374999988446,1065.1773461000012,None,1065.7011015000007,None,1065.7011015000007,None,f,0.11960760000147275,1065.7011015000007,None,0.11960760000147275,,,115 silent,001,2022_Dec_01_1228,ProdSingRedoBetween,2021.2.3,59.87457474093426,
,,,,175,0,175,0,,,,,,,,,,,,,,,,,,,,,,1069.0773835,None,,,,,,,,,,,,,,,,,problem,79,176,silent,old,red,1066.3899225000005,None,1066.3899225000005,None,4,1.8069911999991746,1066.3899225000005,None,1.8069911999991746,1068.2257083000004,None,1068.739491100001,None,1068.739491100001,None,f,0.30864520000068296,1068.739491100001,None,0.30864520000068296,,,115 silent,001,2022_Dec_01_1228,ProdSingRedoBetween,2021.2.3,59.87457474093426,
