StudyLoop.thisRepN,StudyLoop.thisTrialN,StudyLoop.thisN,StudyLoop.thisIndex,TestLoop.thisRepN,TestLoop.thisTrialN,TestLoop.thisN,TestLoop.thisIndex,textCondition.started,textCondition.stopped,keyCondition.keys,keyCondition.rt,keyCondition.started,keyCondition.stopped,Condition,textWelcome.started,textWelcome.stopped,keyWelcome.keys,keyWelcome.rt,keyWelcome.started,keyWelcome.stopped,textAloud.started,textAloud.stopped,textSilent.started,textSilent.stopped,textSing.started,textSing.stopped,conditional_text.started,conditional_text.stopped,textBlank500.started,textBlank500.stopped,study_word,study_num,study_order,study_type,word_color,textStudy.started,textStudy.stopped,keyStudy.keys,keyStudy.rt,keyStudy.started,keyStudy.stopped,textTestInstructions.started,textTestInstructions.stopped,key_resp_3.keys,key_resp_3.rt,key_resp_3.started,key_resp_3.stopped,test_word,test_num,test_order,test_condition,old_new_test,test_word_original_color,textConf.started,textConf.stopped,textConfScale.started,textConfScale.stopped,keyConf.keys,keyConf.rt,keyConf.started,keyConf.stopped,confidence response time,textTestBlank.started,textTestBlank.stopped,textRKN.started,textRKN.stopped,textRKNScale.started,textRKNScale.stopped,keyRKN.keys,keyRKN.rt,keyRKN.started,keyRKN.stopped,rkn response time,textEnd.started,textEnd.stopped,participant,session,date,expName,psychopyVersion,frameRate,
,,,,,,,,15.196303099999568,None,b,423.84148490000007,15.196303099999568,None,,,,,,,,,,,,,,,,,,,,,,,,,,,,,,,,,,,,,,,,,,,,,,,,,,,,,,,,,,,,,,,116 aloud,001,2022_Dec_01_1247,ProdSingRedoBetween,2021.2.3,59.936335624028885,
,,,,,,,,,,,,,,AloudTest,439.08931219999977,None,space,214.36751509999885,439.08931219999977,None,,,,,,,,,,,,,,,,,,,,,,,,,,,,,,,,,,,,,,,,,,,,,,,,,,,,,,,,116 aloud,001,2022_Dec_01_1247,ProdSingRedoBetween,2021.2.3,59.936335624028885,
0,0,0,0,,,,,,,,,,,,,,,,,,439.08931219999977,None,439.08931219999977,None,439.08931219999977,None,439.08931219999977,None,655.9828825999994,None,birth,76,1,aloud,red,653.9833227999989,None,space,1.5374167999998463,653.9833227999989,None,,,,,,,,,,,,,,,,,,,,,,,,,,,,,,,,,,,116 aloud,001,2022_Dec_01_1247,ProdSingRedoBetween,2021.2.3,59.936335624028885,
1,0,1,0,,,,,,,,,,,,,,,,,,,,,,,,,,658.4852916,None,travel,61,2,aloud,red,656.4854381999994,None,None,,656.4854381999994,None,,,,,,,,,,,,,,,,,,,,,,,,,,,,,,,,,,,116 aloud,001,2022_Dec_01_1247,ProdSingRedoBetween,2021.2.3,59.936335624028885,
2,0,2,0,,,,,,,,,,,,,,,,,,,,,,,,,,660.9877512999992,None,crowd,70,3,aloud,red,658.9882562999992,None,None,,658.9882562999992,None,,,,,,,,,,,,,,,,,,,,,,,,,,,,,,,,,,,116 aloud,001,2022_Dec_01_1247,ProdSingRedoBetween,2021.2.3,59.936335624028885,
3,0,3,0,,,,,,,,,,,,,,,,,,,,,,,,,,663.4904795000002,None,member,14,4,aloud,yellow,661.489102399999,None,None,,661.489102399999,None,,,,,,,,,,,,,,,,,,,,,,,,,,,,,,,,,,,116 aloud,001,2022_Dec_01_1247,ProdSingRedoBetween,2021.2.3,59.936335624028885,
4,0,4,0,,,,,,,,,,,,,,,,,,,,,,,,,,665.9935743999995,None,accident,40,5,aloud,blue,663.9921111000003,None,None,,663.9921111000003,None,,,,,,,,,,,,,,,,,,,,,,,,,,,,,,,,,,,116 aloud,001,2022_Dec_01_1247,ProdSingRedoBetween,2021.2.3,59.936335624028885,
5,0,5,0,,,,,,,,,,,,,,,,,,,,,,,,,,668.4956315,None,thick,15,6,aloud,yellow,666.4957033999999,None,None,,666.4957033999999,None,,,,,,,,,,,,,,,,,,,,,,,,,,,,,,,,,,,116 aloud,001,2022_Dec_01_1247,ProdSingRedoBetween,2021.2.3,59.936335624028885,
6,0,6,0,,,,,,,,,,,,,,,,,,,,,,,,,,671.0148078000002,None,comfort,86,7,aloud,red,669.0021015999992,None,None,,669.0021015999992,None,,,,,,,,,,,,,,,,,,,,,,,,,,,,,,,,,,,116 aloud,001,2022_Dec_01_1247,ProdSingRedoBetween,2021.2.3,59.936335624028885,
7,0,7,0,,,,,,,,,,,,,,,,,,,,,,,,,,673.5175438000006,None,running,55,8,aloud,blue,671.5169791999997,None,None,,671.5169791999997,None,,,,,,,,,,,,,,,,,,,,,,,,,,,,,,,,,,,116 aloud,001,2022_Dec_01_1247,ProdSingRedoBetween,2021.2.3,59.936335624028885,
8,0,8,0,,,,,,,,,,,,,,,,,,,,,,,,,,676.0196994999988,None,republic,77,9,aloud,red,674.0201354000001,None,None,,674.0201354000001,None,,,,,,,,,,,,,,,,,,,,,,,,,,,,,,,,,,,116 aloud,001,2022_Dec_01_1247,ProdSingRedoBetween,2021.2.3,59.936335624028885,
9,0,9,0,,,,,,,,,,,,,,,,,,,,,,,,,,678.5226180999998,None,display,49,10,aloud,blue,676.5220169999993,None,None,,676.5220169999993,None,,,,,,,,,,,,,,,,,,,,,,,,,,,,,,,,,,,116 aloud,001,2022_Dec_01_1247,ProdSingRedoBetween,2021.2.3,59.936335624028885,
10,0,10,0,,,,,,,,,,,,,,,,,,,,,,,,,,681.0244318000005,None,pattern,20,11,aloud,yellow,679.0253909999992,None,None,,679.0253909999992,None,,,,,,,,,,,,,,,,,,,,,,,,,,,,,,,,,,,116 aloud,001,2022_Dec_01_1247,ProdSingRedoBetween,2021.2.3,59.936335624028885,
11,0,11,0,,,,,,,,,,,,,,,,,,,,,,,,,,683.528637899999,None,detective,8,12,aloud,yellow,681.5265146999991,None,None,,681.5265146999991,None,,,,,,,,,,,,,,,,,,,,,,,,,,,,,,,,,,,116 aloud,001,2022_Dec_01_1247,ProdSingRedoBetween,2021.2.3,59.936335624028885,
12,0,12,0,,,,,,,,,,,,,,,,,,,,,,,,,,686.0459945999992,None,style,82,13,aloud,red,684.0448006999995,None,None,,684.0448006999995,None,,,,,,,,,,,,,,,,,,,,,,,,,,,,,,,,,,,116 aloud,001,2022_Dec_01_1247,ProdSingRedoBetween,2021.2.3,59.936335624028885,
13,0,13,0,,,,,,,,,,,,,,,,,,,,,,,,,,688.5494161999995,None,welcome,56,14,aloud,blue,686.5490236999995,None,None,,686.5490236999995,None,,,,,,,,,,,,,,,,,,,,,,,,,,,,,,,,,,,116 aloud,001,2022_Dec_01_1247,ProdSingRedoBetween,2021.2.3,59.936335624028885,
14,0,14,0,,,,,,,,,,,,,,,,,,,,,,,,,,691.0514896999994,None,carry,66,15,aloud,red,689.0520976999996,None,None,,689.0520976999996,None,,,,,,,,,,,,,,,,,,,,,,,,,,,,,,,,,,,116 aloud,001,2022_Dec_01_1247,ProdSingRedoBetween,2021.2.3,59.936335624028885,
15,0,15,0,,,,,,,,,,,,,,,,,,,,,,,,,,693.554180699999,None,route,3,16,aloud,yellow,691.5536824999999,None,None,,691.5536824999999,None,,,,,,,,,,,,,,,,,,,,,,,,,,,,,,,,,,,116 aloud,001,2022_Dec_01_1247,ProdSingRedoBetween,2021.2.3,59.936335624028885,
16,0,16,0,,,,,,,,,,,,,,,,,,,,,,,,,,696.0730654999988,None,region,85,17,aloud,red,694.0593627999988,None,None,,694.0593627999988,None,,,,,,,,,,,,,,,,,,,,,,,,,,,,,,,,,,,116 aloud,001,2022_Dec_01_1247,ProdSingRedoBetween,2021.2.3,59.936335624028885,
17,0,17,0,,,,,,,,,,,,,,,,,,,,,,,,,,698.5766955999989,None,watch,24,18,aloud,yellow,696.574582199999,None,None,,696.574582199999,None,,,,,,,,,,,,,,,,,,,,,,,,,,,,,,,,,,,116 aloud,001,2022_Dec_01_1247,ProdSingRedoBetween,2021.2.3,59.936335624028885,
18,0,18,0,,,,,,,,,,,,,,,,,,,,,,,,,,701.0780827999988,None,clean,9,19,aloud,yellow,699.0791337999999,None,None,,699.0791337999999,None,,,,,,,,,,,,,,,,,,,,,,,,,,,,,,,,,,,116 aloud,001,2022_Dec_01_1247,ProdSingRedoBetween,2021.2.3,59.936335624028885,
19,0,19,0,,,,,,,,,,,,,,,,,,,,,,,,,,703.5806573999998,None,impact,74,20,aloud,red,701.5809441999991,None,None,,701.5809441999991,None,,,,,,,,,,,,,,,,,,,,,,,,,,,,,,,,,,,116 aloud,001,2022_Dec_01_1247,ProdSingRedoBetween,2021.2.3,59.936335624028885,
20,0,20,0,,,,,,,,,,,,,,,,,,,,,,,,,,706.0831037999997,None,cross,58,21,aloud,blue,704.0832511999997,None,None,,704.0832511999997,None,,,,,,,,,,,,,,,,,,,,,,,,,,,,,,,,,,,116 aloud,001,2022_Dec_01_1247,ProdSingRedoBetween,2021.2.3,59.936335624028885,
21,0,21,0,,,,,,,,,,,,,,,,,,,,,,,,,,708.5857212999999,None,heavy,30,22,aloud,blue,706.5860058999988,None,None,,706.5860058999988,None,,,,,,,,,,,,,,,,,,,,,,,,,,,,,,,,,,,116 aloud,001,2022_Dec_01_1247,ProdSingRedoBetween,2021.2.3,59.936335624028885,
22,0,22,0,,,,,,,,,,,,,,,,,,,,,,,,,,711.0879977999994,None,afternoon,37,23,aloud,blue,709.0881964,None,None,,709.0881964,None,,,,,,,,,,,,,,,,,,,,,,,,,,,,,,,,,,,116 aloud,001,2022_Dec_01_1247,ProdSingRedoBetween,2021.2.3,59.936335624028885,
23,0,23,0,,,,,,,,,,,,,,,,,,,,,,,,,,713.6073488999991,None,majority,29,24,aloud,blue,711.5993990999996,None,None,,711.5993990999996,None,,,,,,,,,,,,,,,,,,,,,,,,,,,,,,,,,,,116 aloud,001,2022_Dec_01_1247,ProdSingRedoBetween,2021.2.3,59.936335624028885,
24,0,24,0,,,,,,,,,,,,,,,,,,,,,,,,,,716.1262903999996,None,measure,7,25,aloud,yellow,714.1122804999995,None,None,,714.1122804999995,None,,,,,,,,,,,,,,,,,,,,,,,,,,,,,,,,,,,116 aloud,001,2022_Dec_01_1247,ProdSingRedoBetween,2021.2.3,59.936335624028885,
25,0,25,0,,,,,,,,,,,,,,,,,,,,,,,,,,718.6289393999996,None,charter,2,26,aloud,yellow,716.6271078999998,None,None,,716.6271078999998,None,,,,,,,,,,,,,,,,,,,,,,,,,,,,,,,,,,,116 aloud,001,2022_Dec_01_1247,ProdSingRedoBetween,2021.2.3,59.936335624028885,
26,0,26,0,,,,,,,,,,,,,,,,,,,,,,,,,,721.131464099999,None,group,52,27,aloud,blue,719.1311571000006,None,None,,719.1311571000006,None,,,,,,,,,,,,,,,,,,,,,,,,,,,,,,,,,,,116 aloud,001,2022_Dec_01_1247,ProdSingRedoBetween,2021.2.3,59.936335624028885,
27,0,27,0,,,,,,,,,,,,,,,,,,,,,,,,,,723.6339912999993,None,sunset,69,28,aloud,red,721.6342824000003,None,None,,721.6342824000003,None,,,,,,,,,,,,,,,,,,,,,,,,,,,,,,,,,,,116 aloud,001,2022_Dec_01_1247,ProdSingRedoBetween,2021.2.3,59.936335624028885,
28,0,28,0,,,,,,,,,,,,,,,,,,,,,,,,,,726.1365855999993,None,disease,48,29,aloud,blue,724.1366051000005,None,None,,724.1366051000005,None,,,,,,,,,,,,,,,,,,,,,,,,,,,,,,,,,,,116 aloud,001,2022_Dec_01_1247,ProdSingRedoBetween,2021.2.3,59.936335624028885,
29,0,29,0,,,,,,,,,,,,,,,,,,,,,,,,,,728.6555922999996,None,answer,78,30,aloud,red,726.6414107,None,None,,726.6414107,None,,,,,,,,,,,,,,,,,,,,,,,,,,,,,,,,,,,116 aloud,001,2022_Dec_01_1247,ProdSingRedoBetween,2021.2.3,59.936335624028885,
30,0,30,0,,,,,,,,,,,,,,,,,,,,,,,,,,731.175103399999,None,addition,16,31,aloud,yellow,729.1597027999996,None,None,,729.1597027999996,None,,,,,,,,,,,,,,,,,,,,,,,,,,,,,,,,,,,116 aloud,001,2022_Dec_01_1247,ProdSingRedoBetween,2021.2.3,59.936335624028885,
31,0,31,0,,,,,,,,,,,,,,,,,,,,,,,,,,733.6774714999992,None,cover,27,32,aloud,yellow,731.674991599999,None,None,,731.674991599999,None,,,,,,,,,,,,,,,,,,,,,,,,,,,,,,,,,,,116 aloud,001,2022_Dec_01_1247,ProdSingRedoBetween,2021.2.3,59.936335624028885,
32,0,32,0,,,,,,,,,,,,,,,,,,,,,,,,,,736.1800459000006,None,right,25,33,aloud,yellow,734.1785402999994,None,None,,734.1785402999994,None,,,,,,,,,,,,,,,,,,,,,,,,,,,,,,,,,,,116 aloud,001,2022_Dec_01_1247,ProdSingRedoBetween,2021.2.3,59.936335624028885,
33,0,33,0,,,,,,,,,,,,,,,,,,,,,,,,,,738.6825948999995,None,portion,47,34,aloud,blue,736.6827973999989,None,None,,736.6827973999989,None,,,,,,,,,,,,,,,,,,,,,,,,,,,,,,,,,,,116 aloud,001,2022_Dec_01_1247,ProdSingRedoBetween,2021.2.3,59.936335624028885,
34,0,34,0,,,,,,,,,,,,,,,,,,,,,,,,,,741.201556,None,express,43,35,aloud,blue,739.1868364999991,None,None,,739.1868364999991,None,,,,,,,,,,,,,,,,,,,,,,,,,,,,,,,,,,,116 aloud,001,2022_Dec_01_1247,ProdSingRedoBetween,2021.2.3,59.936335624028885,
35,0,35,0,,,,,,,,,,,,,,,,,,,,,,,,,,743.7186416000004,None,brief,50,36,aloud,blue,741.702441899999,None,None,,741.702441899999,None,,,,,,,,,,,,,,,,,,,,,,,,,,,,,,,,,,,116 aloud,001,2022_Dec_01_1247,ProdSingRedoBetween,2021.2.3,59.936335624028885,
36,0,36,0,,,,,,,,,,,,,,,,,,,,,,,,,,746.2232590999993,None,husband,17,37,aloud,yellow,744.2079892000002,None,None,,744.2079892000002,None,,,,,,,,,,,,,,,,,,,,,,,,,,,,,,,,,,,116 aloud,001,2022_Dec_01_1247,ProdSingRedoBetween,2021.2.3,59.936335624028885,
37,0,37,0,,,,,,,,,,,,,,,,,,,,,,,,,,748.7258475999988,None,health,39,38,aloud,blue,746.7242152999988,None,None,,746.7242152999988,None,,,,,,,,,,,,,,,,,,,,,,,,,,,,,,,,,,,116 aloud,001,2022_Dec_01_1247,ProdSingRedoBetween,2021.2.3,59.936335624028885,
38,0,38,0,,,,,,,,,,,,,,,,,,,,,,,,,,751.244423099999,None,resistance,42,39,aloud,blue,749.2294287000004,None,None,,749.2294287000004,None,,,,,,,,,,,,,,,,,,,,,,,,,,,,,,,,,,,116 aloud,001,2022_Dec_01_1247,ProdSingRedoBetween,2021.2.3,59.936335624028885,
39,0,39,0,,,,,,,,,,,,,,,,,,,,,,,,,,753.7478993999994,None,dream,21,40,aloud,yellow,751.7454660000003,None,None,,751.7454660000003,None,,,,,,,,,,,,,,,,,,,,,,,,,,,,,,,,,,,116 aloud,001,2022_Dec_01_1247,ProdSingRedoBetween,2021.2.3,59.936335624028885,
40,0,40,0,,,,,,,,,,,,,,,,,,,,,,,,,,756.2665354000001,None,narrow,41,41,aloud,blue,754.2518889000003,None,None,,754.2518889000003,None,,,,,,,,,,,,,,,,,,,,,,,,,,,,,,,,,,,116 aloud,001,2022_Dec_01_1247,ProdSingRedoBetween,2021.2.3,59.936335624028885,
41,0,41,0,,,,,,,,,,,,,,,,,,,,,,,,,,758.769000799999,None,point,80,42,aloud,red,756.7681568999997,None,None,,756.7681568999997,None,,,,,,,,,,,,,,,,,,,,,,,,,,,,,,,,,,,116 aloud,001,2022_Dec_01_1247,ProdSingRedoBetween,2021.2.3,59.936335624028885,
42,0,42,0,,,,,,,,,,,,,,,,,,,,,,,,,,761.2714981999998,None,science,83,43,aloud,red,759.2718987999997,None,None,,759.2718987999997,None,,,,,,,,,,,,,,,,,,,,,,,,,,,,,,,,,,,116 aloud,001,2022_Dec_01_1247,ProdSingRedoBetween,2021.2.3,59.936335624028885,
43,0,43,0,,,,,,,,,,,,,,,,,,,,,,,,,,763.7908437000006,None,shock,73,44,aloud,red,761.7854920999998,None,None,,761.7854920999998,None,,,,,,,,,,,,,,,,,,,,,,,,,,,,,,,,,,,116 aloud,001,2022_Dec_01_1247,ProdSingRedoBetween,2021.2.3,59.936335624028885,
44,0,44,0,,,,,,,,,,,,,,,,,,,,,,,,,,766.3099309999998,None,space,65,45,aloud,red,764.3039668999991,None,None,,764.3039668999991,None,,,,,,,,,,,,,,,,,,,,,,,,,,,,,,,,,,,116 aloud,001,2022_Dec_01_1247,ProdSingRedoBetween,2021.2.3,59.936335624028885,
45,0,45,0,,,,,,,,,,,,,,,,,,,,,,,,,,768.8124463000004,None,corner,11,46,aloud,yellow,766.8130633000001,None,None,,766.8130633000001,None,,,,,,,,,,,,,,,,,,,,,,,,,,,,,,,,,,,116 aloud,001,2022_Dec_01_1247,ProdSingRedoBetween,2021.2.3,59.936335624028885,
46,0,46,0,,,,,,,,,,,,,,,,,,,,,,,,,,771.3151638999989,None,literature,60,47,aloud,red,769.3150810999996,None,None,,769.3150810999996,None,,,,,,,,,,,,,,,,,,,,,,,,,,,,,,,,,,,116 aloud,001,2022_Dec_01_1247,ProdSingRedoBetween,2021.2.3,59.936335624028885,
47,0,47,0,,,,,,,,,,,,,,,,,,,,,,,,,,773.8171662000004,None,material,57,48,aloud,blue,771.8178241999994,None,None,,771.8178241999994,None,,,,,,,,,,,,,,,,,,,,,,,,,,,,,,,,,,,116 aloud,001,2022_Dec_01_1247,ProdSingRedoBetween,2021.2.3,59.936335624028885,
48,0,48,0,,,,,,,,,,,,,,,,,,,,,,,,,,776.3205380999989,None,level,32,49,aloud,blue,774.3201535999997,None,None,,774.3201535999997,None,,,,,,,,,,,,,,,,,,,,,,,,,,,,,,,,,,,116 aloud,001,2022_Dec_01_1247,ProdSingRedoBetween,2021.2.3,59.936335624028885,
49,0,49,0,,,,,,,,,,,,,,,,,,,,,,,,,,778.8227088000003,None,nation,0,50,aloud,yellow,776.8210374999999,None,None,,776.8210374999999,None,,,,,,,,,,,,,,,,,,,,,,,,,,,,,,,,,,,116 aloud,001,2022_Dec_01_1247,ProdSingRedoBetween,2021.2.3,59.936335624028885,
50,0,50,0,,,,,,,,,,,,,,,,,,,,,,,,,,781.3416421999991,None,recall,1,51,aloud,yellow,779.3271301999994,None,None,,779.3271301999994,None,,,,,,,,,,,,,,,,,,,,,,,,,,,,,,,,,,,116 aloud,001,2022_Dec_01_1247,ProdSingRedoBetween,2021.2.3,59.936335624028885,
51,0,51,0,,,,,,,,,,,,,,,,,,,,,,,,,,783.84404,None,youth,19,52,aloud,yellow,781.8428325000004,None,None,,781.8428325000004,None,,,,,,,,,,,,,,,,,,,,,,,,,,,,,,,,,,,116 aloud,001,2022_Dec_01_1247,ProdSingRedoBetween,2021.2.3,59.936335624028885,
52,0,52,0,,,,,,,,,,,,,,,,,,,,,,,,,,786.3464946999993,None,length,72,53,aloud,red,784.3461021999992,None,None,,784.3461021999992,None,,,,,,,,,,,,,,,,,,,,,,,,,,,,,,,,,,,116 aloud,001,2022_Dec_01_1247,ProdSingRedoBetween,2021.2.3,59.936335624028885,
53,0,53,0,,,,,,,,,,,,,,,,,,,,,,,,,,788.8486734999988,None,industry,63,54,aloud,red,786.8493770999994,None,None,,786.8493770999994,None,,,,,,,,,,,,,,,,,,,,,,,,,,,,,,,,,,,116 aloud,001,2022_Dec_01_1247,ProdSingRedoBetween,2021.2.3,59.936335624028885,
54,0,54,0,,,,,,,,,,,,,,,,,,,,,,,,,,791.3518659000001,None,union,84,55,aloud,red,789.3503413999988,None,None,,789.3503413999988,None,,,,,,,,,,,,,,,,,,,,,,,,,,,,,,,,,,,116 aloud,001,2022_Dec_01_1247,ProdSingRedoBetween,2021.2.3,59.936335624028885,
55,0,55,0,,,,,,,,,,,,,,,,,,,,,,,,,,793.8538960999995,None,company,51,56,aloud,blue,791.8543451000005,None,None,,791.8543451000005,None,,,,,,,,,,,,,,,,,,,,,,,,,,,,,,,,,,,116 aloud,001,2022_Dec_01_1247,ProdSingRedoBetween,2021.2.3,59.936335624028885,
56,0,56,0,,,,,,,,,,,,,,,,,,,,,,,,,,796.3564065999999,None,trail,31,57,aloud,blue,794.3556470000003,None,None,,794.3556470000003,None,,,,,,,,,,,,,,,,,,,,,,,,,,,,,,,,,,,116 aloud,001,2022_Dec_01_1247,ProdSingRedoBetween,2021.2.3,59.936335624028885,
57,0,57,0,,,,,,,,,,,,,,,,,,,,,,,,,,798.8591963999988,None,review,10,58,aloud,yellow,796.8592263999999,None,None,,796.8592263999999,None,,,,,,,,,,,,,,,,,,,,,,,,,,,,,,,,,,,116 aloud,001,2022_Dec_01_1247,ProdSingRedoBetween,2021.2.3,59.936335624028885,
58,0,58,0,,,,,,,,,,,,,,,,,,,,,,,,,,801.3616934000001,None,curve,45,59,aloud,blue,799.3620121999993,None,None,,799.3620121999993,None,,,,,,,,,,,,,,,,,,,,,,,,,,,,,,,,,,,116 aloud,001,2022_Dec_01_1247,ProdSingRedoBetween,2021.2.3,59.936335624028885,
59,0,59,0,,,,,,,,,,,,,,,,,,,,,,,,,,803.8640078999997,None,block,44,60,aloud,blue,801.8648861000001,None,None,,801.8648861000001,None,,,,,,,,,,,,,,,,,,,,,,,,,,,,,,,,,,,116 aloud,001,2022_Dec_01_1247,ProdSingRedoBetween,2021.2.3,59.936335624028885,
60,0,60,0,,,,,,,,,,,,,,,,,,,,,,,,,,806.3667217000002,None,touch,75,61,aloud,red,804.3654484999988,None,None,,804.3654484999988,None,,,,,,,,,,,,,,,,,,,,,,,,,,,,,,,,,,,116 aloud,001,2022_Dec_01_1247,ProdSingRedoBetween,2021.2.3,59.936335624028885,
61,0,61,0,,,,,,,,,,,,,,,,,,,,,,,,,,808.8696641999995,None,medicine,53,62,aloud,blue,806.8691651999998,None,None,,806.8691651999998,None,,,,,,,,,,,,,,,,,,,,,,,,,,,,,,,,,,,116 aloud,001,2022_Dec_01_1247,ProdSingRedoBetween,2021.2.3,59.936335624028885,
62,0,62,0,,,,,,,,,,,,,,,,,,,,,,,,,,811.3715587999995,None,symbol,88,63,aloud,red,809.3714787999997,None,None,,809.3714787999997,None,,,,,,,,,,,,,,,,,,,,,,,,,,,,,,,,,,,116 aloud,001,2022_Dec_01_1247,ProdSingRedoBetween,2021.2.3,59.936335624028885,
63,0,63,0,,,,,,,,,,,,,,,,,,,,,,,,,,813.8740356999988,None,working,71,64,aloud,red,811.8748106999992,None,None,,811.8748106999992,None,,,,,,,,,,,,,,,,,,,,,,,,,,,,,,,,,,,116 aloud,001,2022_Dec_01_1247,ProdSingRedoBetween,2021.2.3,59.936335624028885,
64,0,64,0,,,,,,,,,,,,,,,,,,,,,,,,,,816.376385399999,None,evidence,4,65,aloud,yellow,814.3763631000002,None,None,,814.3763631000002,None,,,,,,,,,,,,,,,,,,,,,,,,,,,,,,,,,,,116 aloud,001,2022_Dec_01_1247,ProdSingRedoBetween,2021.2.3,59.936335624028885,
65,0,65,0,,,,,,,,,,,,,,,,,,,,,,,,,,818.8793179000004,None,bureau,28,66,aloud,yellow,816.8789849999994,None,None,,816.8789849999994,None,,,,,,,,,,,,,,,,,,,,,,,,,,,,,,,,,,,116 aloud,001,2022_Dec_01_1247,ProdSingRedoBetween,2021.2.3,59.936335624028885,
66,0,66,0,,,,,,,,,,,,,,,,,,,,,,,,,,821.3814717999994,None,spoke,67,67,aloud,red,819.3822882999993,None,None,,819.3822882999993,None,,,,,,,,,,,,,,,,,,,,,,,,,,,,,,,,,,,116 aloud,001,2022_Dec_01_1247,ProdSingRedoBetween,2021.2.3,59.936335624028885,
67,0,67,0,,,,,,,,,,,,,,,,,,,,,,,,,,823.9009251999996,None,worker,81,68,aloud,red,821.8862479999989,None,None,,821.8862479999989,None,,,,,,,,,,,,,,,,,,,,,,,,,,,,,,,,,,,116 aloud,001,2022_Dec_01_1247,ProdSingRedoBetween,2021.2.3,59.936335624028885,
68,0,68,0,,,,,,,,,,,,,,,,,,,,,,,,,,826.4034274999995,None,comedy,34,69,aloud,blue,824.403814199999,None,None,,824.403814199999,None,,,,,,,,,,,,,,,,,,,,,,,,,,,,,,,,,,,116 aloud,001,2022_Dec_01_1247,ProdSingRedoBetween,2021.2.3,59.936335624028885,
69,0,69,0,,,,,,,,,,,,,,,,,,,,,,,,,,828.9228731999992,None,primary,22,70,aloud,yellow,826.9077378999991,None,None,,826.9077378999991,None,,,,,,,,,,,,,,,,,,,,,,,,,,,,,,,,,,,116 aloud,001,2022_Dec_01_1247,ProdSingRedoBetween,2021.2.3,59.936335624028885,
70,0,70,0,,,,,,,,,,,,,,,,,,,,,,,,,,831.425299999999,None,thing,46,71,aloud,blue,829.4231469999995,None,None,,829.4231469999995,None,,,,,,,,,,,,,,,,,,,,,,,,,,,,,,,,,,,116 aloud,001,2022_Dec_01_1247,ProdSingRedoBetween,2021.2.3,59.936335624028885,
71,0,71,0,,,,,,,,,,,,,,,,,,,,,,,,,,833.9452523999989,None,reach,38,72,aloud,blue,831.9293937000002,None,None,,831.9293937000002,None,,,,,,,,,,,,,,,,,,,,,,,,,,,,,,,,,,,116 aloud,001,2022_Dec_01_1247,ProdSingRedoBetween,2021.2.3,59.936335624028885,
72,0,72,0,,,,,,,,,,,,,,,,,,,,,,,,,,836.4641806999989,None,discovery,23,73,aloud,yellow,834.4498626999994,None,None,,834.4498626999994,None,,,,,,,,,,,,,,,,,,,,,,,,,,,,,,,,,,,116 aloud,001,2022_Dec_01_1247,ProdSingRedoBetween,2021.2.3,59.936335624028885,
73,0,73,0,,,,,,,,,,,,,,,,,,,,,,,,,,838.965934599999,None,drink,12,74,aloud,yellow,836.966523699999,None,None,,836.966523699999,None,,,,,,,,,,,,,,,,,,,,,,,,,,,,,,,,,,,116 aloud,001,2022_Dec_01_1247,ProdSingRedoBetween,2021.2.3,59.936335624028885,
74,0,74,0,,,,,,,,,,,,,,,,,,,,,,,,,,841.4849259999992,None,turkey,89,75,aloud,red,839.4741058999989,None,None,,839.4741058999989,None,,,,,,,,,,,,,,,,,,,,,,,,,,,,,,,,,,,116 aloud,001,2022_Dec_01_1247,ProdSingRedoBetween,2021.2.3,59.936335624028885,
75,0,75,0,,,,,,,,,,,,,,,,,,,,,,,,,,844.0038984999992,None,state,68,76,aloud,red,841.9932386,None,None,,841.9932386,None,,,,,,,,,,,,,,,,,,,,,,,,,,,,,,,,,,,116 aloud,001,2022_Dec_01_1247,ProdSingRedoBetween,2021.2.3,59.936335624028885,
76,0,76,0,,,,,,,,,,,,,,,,,,,,,,,,,,846.5236609999993,None,stand,13,77,aloud,yellow,844.5085605999993,None,None,,844.5085605999993,None,,,,,,,,,,,,,,,,,,,,,,,,,,,,,,,,,,,116 aloud,001,2022_Dec_01_1247,ProdSingRedoBetween,2021.2.3,59.936335624028885,
77,0,77,0,,,,,,,,,,,,,,,,,,,,,,,,,,849.0427237000004,None,escape,64,78,aloud,red,847.0347813999997,None,None,,847.0347813999997,None,,,,,,,,,,,,,,,,,,,,,,,,,,,,,,,,,,,116 aloud,001,2022_Dec_01_1247,ProdSingRedoBetween,2021.2.3,59.936335624028885,
78,0,78,0,,,,,,,,,,,,,,,,,,,,,,,,,,851.5617287000005,None,angle,35,79,aloud,blue,849.5495142,None,None,,849.5495142,None,,,,,,,,,,,,,,,,,,,,,,,,,,,,,,,,,,,116 aloud,001,2022_Dec_01_1247,ProdSingRedoBetween,2021.2.3,59.936335624028885,
79,0,79,0,,,,,,,,,,,,,,,,,,,,,,,,,,854.0644152000004,None,match,36,80,aloud,blue,852.0624432000004,None,None,,852.0624432000004,None,,,,,,,,,,,,,,,,,,,,,,,,,,,,,,,,,,,116 aloud,001,2022_Dec_01_1247,ProdSingRedoBetween,2021.2.3,59.936335624028885,
80,0,80,0,,,,,,,,,,,,,,,,,,,,,,,,,,856.5668884999995,None,tennis,87,81,aloud,red,854.5671299999995,None,None,,854.5671299999995,None,,,,,,,,,,,,,,,,,,,,,,,,,,,,,,,,,,,116 aloud,001,2022_Dec_01_1247,ProdSingRedoBetween,2021.2.3,59.936335624028885,
81,0,81,0,,,,,,,,,,,,,,,,,,,,,,,,,,859.0691072999998,None,background,62,82,aloud,red,857.0699721000001,None,None,,857.0699721000001,None,,,,,,,,,,,,,,,,,,,,,,,,,,,,,,,,,,,116 aloud,001,2022_Dec_01_1247,ProdSingRedoBetween,2021.2.3,59.936335624028885,
82,0,82,0,,,,,,,,,,,,,,,,,,,,,,,,,,861.5717389999991,None,command,5,83,aloud,yellow,859.5721942,None,None,,859.5721942,None,,,,,,,,,,,,,,,,,,,,,,,,,,,,,,,,,,,116 aloud,001,2022_Dec_01_1247,ProdSingRedoBetween,2021.2.3,59.936335624028885,
83,0,83,0,,,,,,,,,,,,,,,,,,,,,,,,,,864.0742040000005,None,burden,79,84,aloud,red,862.0741811999997,None,None,,862.0741811999997,None,,,,,,,,,,,,,,,,,,,,,,,,,,,,,,,,,,,116 aloud,001,2022_Dec_01_1247,ProdSingRedoBetween,2021.2.3,59.936335624028885,
84,0,84,0,,,,,,,,,,,,,,,,,,,,,,,,,,866.5934259999995,None,century,54,85,aloud,blue,864.5820320999992,None,None,,864.5820320999992,None,,,,,,,,,,,,,,,,,,,,,,,,,,,,,,,,,,,116 aloud,001,2022_Dec_01_1247,ProdSingRedoBetween,2021.2.3,59.936335624028885,
85,0,85,0,,,,,,,,,,,,,,,,,,,,,,,,,,869.1123972999994,None,clear,59,86,aloud,yellow,867.1011015000004,None,None,,867.1011015000004,None,,,,,,,,,,,,,,,,,,,,,,,,,,,,,,,,,,,116 aloud,001,2022_Dec_01_1247,ProdSingRedoBetween,2021.2.3,59.936335624028885,
86,0,86,0,,,,,,,,,,,,,,,,,,,,,,,,,,871.6153335999988,None,voice,18,87,aloud,yellow,869.6142808999994,None,None,,869.6142808999994,None,,,,,,,,,,,,,,,,,,,,,,,,,,,,,,,,,,,116 aloud,001,2022_Dec_01_1247,ProdSingRedoBetween,2021.2.3,59.936335624028885,
87,0,87,0,,,,,,,,,,,,,,,,,,,,,,,,,,874.1177227999997,None,period,26,88,aloud,yellow,872.117673499999,None,None,,872.117673499999,None,,,,,,,,,,,,,,,,,,,,,,,,,,,,,,,,,,,116 aloud,001,2022_Dec_01_1247,ProdSingRedoBetween,2021.2.3,59.936335624028885,
88,0,88,0,,,,,,,,,,,,,,,,,,,,,,,,,,876.6200025999988,None,article,33,89,aloud,blue,874.618478299999,None,None,,874.618478299999,None,,,,,,,,,,,,,,,,,,,,,,,,,,,,,,,,,,,116 aloud,001,2022_Dec_01_1247,ProdSingRedoBetween,2021.2.3,59.936335624028885,
89,0,89,0,,,,,,,,,,,,,,,,,,,,,,,,,,879.1224320000001,None,suspect,6,90,aloud,yellow,877.123261499999,None,None,,877.123261499999,None,,,,,,,,,,,,,,,,,,,,,,,,,,,,,,,,,,,116 aloud,001,2022_Dec_01_1247,ProdSingRedoBetween,2021.2.3,59.936335624028885,
,,,,,,,,,,,,,,,,,,,,,,,,,,,,,,,,,,,,,,,,,,879.6233768999991,None,k,83.42565260000083,879.6233768999991,None,,,,,,,,,,,,,,,,,,,,,,,,,,,,,116 aloud,001,2022_Dec_01_1247,ProdSingRedoBetween,2021.2.3,59.936335624028885,
,,,,0,0,0,0,,,,,,,,,,,,,,,,,,,,,,982.3774560000002,None,,,,,,,,,,,,,,,,,,title,158,1,aloud,new,null,963.5860885000002,None,963.5860885000002,None,4,14.998652299998867,963.5860885000002,None,14.998652299998867,978.6103824999991,None,979.1234425999992,None,979.1234425999992,None,f,3.2294502000004286,979.1234425999992,None,3.2294502000004286,,,116 aloud,001,2022_Dec_01_1247,ProdSingRedoBetween,2021.2.3,59.936335624028885,
,,,,1,0,1,0,,,,,,,,,,,,,,,,,,,,,,990.868459199999,None,,,,,,,,,,,,,,,,,,broke,153,2,aloud,new,null,982.9038608999999,None,982.9038608999999,None,6,5.7931747999991785,982.9038608999999,None,5.7931747999991785,988.7179278999993,None,989.2360754000001,None,989.2360754000001,None,r,1.6047608999997465,989.2360754000001,None,1.6047608999997465,,,116 aloud,001,2022_Dec_01_1247,ProdSingRedoBetween,2021.2.3,59.936335624028885,
,,,,2,0,2,0,,,,,,,,,,,,,,,,,,,,,,999.0612691999995,None,,,,,,,,,,,,,,,,,,business,114,3,aloud,new,null,991.379785699999,None,991.379785699999,None,3,4.253090600001087,991.379785699999,None,4.253090600001087,995.6579583999992,None,996.1746674000005,None,996.1746674000005,None,n,2.858198199999606,996.1746674000005,None,2.858198199999606,,,116 aloud,001,2022_Dec_01_1247,ProdSingRedoBetween,2021.2.3,59.936335624028885,
,,,,3,0,3,0,,,,,,,,,,,,,,,,,,,,,,1004.9821462,None,,,,,,,,,,,,,,,,,,science,83,4,aloud,old,red,999.5786074999996,None,999.5786074999996,None,6,2.5583759999990434,999.5786074999996,None,2.5583759999990434,1002.1665193999997,None,1002.6797551999989,None,1002.6797551999989,None,r,2.28109460000087,1002.6797551999989,None,2.28109460000087,,,116 aloud,001,2022_Dec_01_1247,ProdSingRedoBetween,2021.2.3,59.936335624028885,
,,,,4,0,4,0,,,,,,,,,,,,,,,,,,,,,,1010.5224344999988,None,,,,,,,,,,,,,,,,,,taste,121,5,aloud,new,null,1005.4853559000003,None,1005.4853559000003,None,5,3.1637157000004663,1005.4853559000003,None,3.1637157000004663,1008.6715241999991,None,1009.1898303999988,None,1009.1898303999988,None,r,1.3151245999997627,1009.1898303999988,None,1.3151245999997627,,,116 aloud,001,2022_Dec_01_1247,ProdSingRedoBetween,2021.2.3,59.936335624028885,
,,,,5,0,5,0,,,,,,,,,,,,,,,,,,,,,,1014.5605942999991,None,,,,,,,,,,,,,,,,,,brief,50,6,aloud,old,blue,1011.0389276000005,None,1011.0389276000005,None,6,1.585881099999824,1011.0389276000005,None,1.585881099999824,1012.6595909999996,None,1013.1737089999988,None,1013.1737089999988,None,r,1.3631803000007494,1013.1737089999988,None,1.3631803000007494,,,116 aloud,001,2022_Dec_01_1247,ProdSingRedoBetween,2021.2.3,59.936335624028885,
,,,,6,0,6,0,,,,,,,,,,,,,,,,,,,,,,1021.1162977999993,None,,,,,,,,,,,,,,,,,,weight,130,7,aloud,new,null,1015.0896056999991,None,1015.0896056999991,None,3,2.5992891999994754,1015.0896056999991,None,2.5992891999994754,1017.7148247999994,None,1018.2287073999996,None,1018.2287073999996,None,f,2.8601761999998416,1018.2287073999996,None,2.8601761999998416,,,116 aloud,001,2022_Dec_01_1247,ProdSingRedoBetween,2021.2.3,59.936335624028885,
,,,,7,0,7,0,,,,,,,,,,,,,,,,,,,,,,1025.353613199999,None,,,,,,,,,,,,,,,,,,audience,117,8,aloud,new,null,1021.633323,None,1021.633323,None,6,2.3916208000009647,1021.633323,None,2.3916208000009647,1024.0528491999994,None,1024.5713548999993,None,1024.5713548999993,None,r,0.7654069000000163,1024.5713548999993,None,0.7654069000000163,,,116 aloud,001,2022_Dec_01_1247,ProdSingRedoBetween,2021.2.3,59.936335624028885,
,,,,8,0,8,0,,,,,,,,,,,,,,,,,,,,,,1028.7058517000005,None,,,,,,,,,,,,,,,,,,symbol,88,9,aloud,old,red,1025.855055,None,1025.855055,None,6,1.505838400000357,1025.855055,None,1.505838400000357,1027.3912428999993,None,1027.9053458999988,None,1027.9053458999988,None,r,0.7756317999992461,1027.9053458999988,None,0.7756317999992461,,,116 aloud,001,2022_Dec_01_1247,ProdSingRedoBetween,2021.2.3,59.936335624028885,
,,,,9,0,9,0,,,,,,,,,,,,,,,,,,,,,,1034.4420391999993,None,,,,,,,,,,,,,,,,,,collection,175,10,aloud,new,null,1029.2118962000004,None,1029.2118962000004,None,1,2.42102100000011,1029.2118962000004,None,2.42102100000011,1031.6609860999997,None,1032.1755221999993,None,1032.1755221999993,None,f,2.225518999999622,1032.1755221999993,None,2.225518999999622,,,116 aloud,001,2022_Dec_01_1247,ProdSingRedoBetween,2021.2.3,59.936335624028885,
,,,,10,0,10,0,,,,,,,,,,,,,,,,,,,,,,1047.9586320999988,None,,,,,,,,,,,,,,,,,,group,52,11,aloud,old,blue,1034.9519984999988,None,1034.9519984999988,None,6,3.897098499999629,1034.9519984999988,None,3.897098499999629,1038.8718544000003,None,1039.3897815,None,1039.3897815,None,f,8.5390570999989,1039.3897815,None,8.5390570999989,,,116 aloud,001,2022_Dec_01_1247,ProdSingRedoBetween,2021.2.3,59.936335624028885,
,,,,11,0,11,0,,,,,,,,,,,,,,,,,,,,,,1063.1411353999993,None,,,,,,,,,,,,,,,,,,afternoon,37,12,aloud,old,blue,1048.4612990999995,None,1048.4612990999995,None,5,4.035505399999238,1048.4612990999995,None,4.035505399999238,1052.5155061999994,None,1053.0305286000003,None,1053.0305286000003,None,f,10.082393200000297,1053.0305286000003,None,10.082393200000297,,,116 aloud,001,2022_Dec_01_1247,ProdSingRedoBetween,2021.2.3,59.936335624028885,
,,,,12,0,12,0,,,,,,,,,,,,,,,,,,,,,,1068.3463367000004,None,,,,,,,,,,,,,,,,,,quantity,133,13,aloud,new,null,1063.6458428000005,None,1063.6458428000005,None,3,2.9550330999991274,1063.6458428000005,None,2.9550330999991274,1066.6304230999995,None,1067.1455067999996,None,1067.1455067999996,None,f,1.1753700000008394,1067.1455067999996,None,1.1753700000008394,,,116 aloud,001,2022_Dec_01_1247,ProdSingRedoBetween,2021.2.3,59.936335624028885,
,,,,13,0,13,0,,,,,,,,,,,,,,,,,,,,,,1074.0351732,None,,,,,,,,,,,,,,,,,,story,90,14,aloud,new,null,1068.8484721999994,None,1068.8484721999994,None,2,3.576470599999084,1068.8484721999994,None,3.576470599999084,1072.4513432000003,None,1072.9668839000005,None,1072.9668839000005,None,f,1.0502360999998928,1072.9668839000005,None,1.0502360999998928,,,116 aloud,001,2022_Dec_01_1247,ProdSingRedoBetween,2021.2.3,59.936335624028885,
,,,,14,0,14,0,,,,,,,,,,,,,,,,,,,,,,1078.8075135999989,None,,,,,,,,,,,,,,,,,,committee,141,15,aloud,new,null,1074.537187599999,None,1074.537187599999,None,1,2.7757791000003635,1074.537187599999,None,2.7757791000003635,1077.339771699999,None,1077.854703699999,None,1077.854703699999,None,n,0.9301778999997623,1077.854703699999,None,0.9301778999997623,,,116 aloud,001,2022_Dec_01_1247,ProdSingRedoBetween,2021.2.3,59.936335624028885,
,,,,15,0,15,0,,,,,,,,,,,,,,,,,,,,,,1084.3462199000005,None,,,,,,,,,,,,,,,,,,substance,177,16,aloud,new,null,1079.3371322000003,None,1079.3371322000003,None,6,3.039773200000127,1079.3371322000003,None,3.039773200000127,1082.3943975999991,None,1082.9097248999988,None,1082.9097248999988,None,r,1.4111718999993172,1082.9097248999988,None,1.4111718999993172,,,116 aloud,001,2022_Dec_01_1247,ProdSingRedoBetween,2021.2.3,59.936335624028885,
,,,,16,0,16,0,,,,,,,,,,,,,,,,,,,,,,1088.633166399999,None,,,,,,,,,,,,,,,,,,religion,172,17,aloud,new,null,1084.8538473999997,None,1084.8538473999997,None,1,2.3951252000006207,1084.8538473999997,None,2.3951252000006207,1087.2842889000003,None,1087.7978779999994,None,1087.7978779999994,None,n,0.8110978000004252,1087.7978779999994,None,0.8110978000004252,,,116 aloud,001,2022_Dec_01_1247,ProdSingRedoBetween,2021.2.3,59.936335624028885,
,,,,17,0,17,0,,,,,,,,,,,,,,,,,,,,,,1092.6712558,None,,,,,,,,,,,,,,,,,,worker,81,18,aloud,old,red,1089.1367990999988,None,1089.1367990999988,None,6,1.872567500000514,1089.1367990999988,None,1.872567500000514,1091.0365720999998,None,1091.5368749999998,None,1091.5368749999998,None,r,1.1041029000007256,1091.5368749999998,None,1.1041029000007256,,,116 aloud,001,2022_Dec_01_1247,ProdSingRedoBetween,2021.2.3,59.936335624028885,
,,,,18,0,18,0,,,,,,,,,,,,,,,,,,,,,,1097.4261019000005,None,,,,,,,,,,,,,,,,,,review,10,19,aloud,old,yellow,1093.1884539999992,None,1093.1884539999992,None,3,2.9243924999991577,1093.1884539999992,None,2.9243924999991577,1096.1427027999998,None,1096.6573843999995,None,1096.6573843999995,None,f,0.74356970000008,1096.6573843999995,None,0.74356970000008,,,116 aloud,001,2022_Dec_01_1247,ProdSingRedoBetween,2021.2.3,59.936335624028885,
,,,,19,0,19,0,,,,,,,,,,,,,,,,,,,,,,1105.2506469,None,,,,,,,,,,,,,,,,,,income,152,20,aloud,new,null,1097.9518745999994,None,1097.9518745999994,None,2,2.8649743999994826,1097.9518745999994,None,2.8649743999994826,1100.8475715000004,None,1101.3643532999995,None,1101.3643532999995,None,n,3.8685182000008353,1101.3643532999995,None,3.8685182000008353,,,116 aloud,001,2022_Dec_01_1247,ProdSingRedoBetween,2021.2.3,59.936335624028885,
,,,,20,0,20,0,,,,,,,,,,,,,,,,,,,,,,1115.0604538999996,None,,,,,,,,,,,,,,,,,,finance,128,21,aloud,new,null,1105.7803036999994,None,1105.7803036999994,None,3,4.900713099999848,1105.7803036999994,None,4.900713099999848,1110.7071801999991,None,1111.2210321000002,None,1111.2210321000002,None,f,3.820056599999589,1111.2210321000002,None,3.820056599999589,,,116 aloud,001,2022_Dec_01_1247,ProdSingRedoBetween,2021.2.3,59.936335624028885,
,,,,21,0,21,0,,,,,,,,,,,,,,,,,,,,,,1119.3302141000004,None,,,,,,,,,,,,,,,,,,silence,132,22,aloud,new,null,1115.578004699999,None,1115.578004699999,None,5,2.183130400000664,1115.578004699999,None,2.183130400000664,1117.7810141999998,None,1118.2954962999993,None,1118.2954962999993,None,r,1.00946820000172,1118.2954962999993,None,1.00946820000172,,,116 aloud,001,2022_Dec_01_1247,ProdSingRedoBetween,2021.2.3,59.936335624028885,
,,,,22,0,22,0,,,,,,,,,,,,,,,,,,,,,,1124.872346799999,None,,,,,,,,,,,,,,,,,,public,176,23,aloud,new,null,1119.8327597999996,None,1119.8327597999996,None,3,2.2242277999994258,1119.8327597999996,None,2.2242277999994258,1122.0841507999994,None,1122.6018017999995,None,1122.6018017999995,None,f,2.2473312000001897,1122.6018017999995,None,2.2473312000001897,,,116 aloud,001,2022_Dec_01_1247,ProdSingRedoBetween,2021.2.3,59.936335624028885,
,,,,23,0,23,0,,,,,,,,,,,,,,,,,,,,,,1128.4733123000005,None,,,,,,,,,,,,,,,,,,property,111,24,aloud,new,null,1125.3890283,None,1125.3890283,None,2,2.0199334000008093,1125.3890283,None,2.0199334000008093,1127.4391501999999,None,1127.942599099999,None,1127.942599099999,None,f,0.5063633999998274,1127.942599099999,None,0.5063633999998274,,,116 aloud,001,2022_Dec_01_1247,ProdSingRedoBetween,2021.2.3,59.936335624028885,
,,,,24,0,24,0,,,,,,,,,,,,,,,,,,,,,,1131.9459570999989,None,,,,,,,,,,,,,,,,,,sunset,69,25,aloud,old,red,1128.9770816,None,1128.9770816,None,2,1.9279897000014898,1128.9770816,None,1.9279897000014898,1130.9273776999999,None,1131.4466902999993,None,1131.4466902999993,None,f,0.46645119999993767,1131.4466902999993,None,0.46645119999993767,,,116 aloud,001,2022_Dec_01_1247,ProdSingRedoBetween,2021.2.3,59.936335624028885,
,,,,25,0,25,0,,,,,,,,,,,,,,,,,,,,,,1139.6041650999996,None,,,,,,,,,,,,,,,,,,attack,100,26,aloud,new,null,1132.4615309,None,1132.4615309,None,2,3.619460699999763,1132.4615309,None,3.619460699999763,1136.0996763000003,None,1136.6187859000001,None,1136.6187859000001,None,f,2.966175400000793,1136.6187859000001,None,2.966175400000793,,,116 aloud,001,2022_Dec_01_1247,ProdSingRedoBetween,2021.2.3,59.936335624028885,
,,,,26,0,26,0,,,,,,,,,,,,,,,,,,,,,,1143.9907654999988,None,,,,,,,,,,,,,,,,,,youth,19,27,aloud,old,yellow,1140.1259272999996,None,1140.1259272999996,None,6,2.3710097999992286,1140.1259272999996,None,2.3710097999992286,1142.5233085,None,1143.0473065999995,None,1143.0473065999995,None,r,0.9218569000004209,1143.0473065999995,None,0.9218569000004209,,,116 aloud,001,2022_Dec_01_1247,ProdSingRedoBetween,2021.2.3,59.936335624028885,
,,,,27,0,27,0,,,,,,,,,,,,,,,,,,,,,,1147.627005799999,None,,,,,,,,,,,,,,,,,,health,39,28,aloud,old,blue,1144.5094100999995,None,1144.5094100999995,None,6,2.083538900000349,1144.5094100999995,None,2.083538900000349,1146.6261995000004,None,1147.1475193999995,None,1147.1475193999995,None,r,0.4535412000004726,1147.1475193999995,None,0.4535412000004726,,,116 aloud,001,2022_Dec_01_1247,ProdSingRedoBetween,2021.2.3,59.936335624028885,
,,,,28,0,28,0,,,,,,,,,,,,,,,,,,,,,,1153.0137512000001,None,,,,,,,,,,,,,,,,,,education,108,29,aloud,new,null,1148.1435017999993,None,1148.1435017999993,None,3,3.6656995000012103,1148.1435017999993,None,3.6656995000012103,1151.8302762999992,None,1152.3456523999994,None,1152.3456523999994,None,f,0.6392340999991575,1152.3456523999994,None,0.6392340999991575,,,116 aloud,001,2022_Dec_01_1247,ProdSingRedoBetween,2021.2.3,59.936335624028885,
,,,,29,0,29,0,,,,,,,,,,,,,,,,,,,,,,1158.2186956999994,None,,,,,,,,,,,,,,,,,,dozen,94,30,aloud,new,null,1153.5176742000003,None,1153.5176742000003,None,1,3.0433341000007204,1153.5176742000003,None,3.0433341000007204,1156.586460999999,None,1157.1006914999998,None,1157.1006914999998,None,n,1.0923024999992776,1157.1006914999998,None,1.0923024999992776,,,116 aloud,001,2022_Dec_01_1247,ProdSingRedoBetween,2021.2.3,59.936335624028885,
,,,,30,0,30,0,,,,,,,,,,,,,,,,,,,,,,1162.4566011999996,None,,,,,,,,,,,,,,,,,,universal,135,31,aloud,new,null,1158.7289046000005,None,1158.7289046000005,None,1,2.559928000000582,1158.7289046000005,None,2.559928000000582,1161.308175799999,None,1161.8230717999995,None,1161.8230717999995,None,n,0.6179047999994509,1161.8230717999995,None,0.6179047999994509,,,116 aloud,001,2022_Dec_01_1247,ProdSingRedoBetween,2021.2.3,59.936335624028885,
,,,,31,0,31,0,,,,,,,,,,,,,,,,,,,,,,1168.3957558999991,None,,,,,,,,,,,,,,,,,,department,118,32,aloud,new,null,1162.9592035999995,None,1162.9592035999995,None,1,3.3458921999990707,1162.9592035999995,None,3.3458921999990707,1166.3302372999988,None,1166.8440281999992,None,1166.8440281999992,None,n,1.5248919000005117,1166.8440281999992,None,1.5248919000005117,,,116 aloud,001,2022_Dec_01_1247,ProdSingRedoBetween,2021.2.3,59.936335624028885,
,,,,32,0,32,0,,,,,,,,,,,,,,,,,,,,,,1173.5174358999993,None,,,,,,,,,,,,,,,,,,rural,157,33,aloud,new,null,1168.8983790000002,None,1168.8983790000002,None,1,2.422510999998849,1168.8983790000002,None,2.422510999998849,1171.3506758000003,None,1171.8656535999999,None,1171.8656535999999,None,n,1.6316157000001112,1171.8656535999999,None,1.6316157000001112,,,116 aloud,001,2022_Dec_01_1247,ProdSingRedoBetween,2021.2.3,59.936335624028885,
,,,,33,0,33,0,,,,,,,,,,,,,,,,,,,,,,1179.2072979999994,None,,,,,,,,,,,,,,,,,,curve,45,34,aloud,old,blue,1174.0202411999999,None,1174.0202411999999,None,6,3.500839399999677,1174.0202411999999,None,3.500839399999677,1177.5405654000006,None,1178.0553619999991,None,1178.0553619999991,None,r,1.121630900001037,1178.0553619999991,None,1.121630900001037,,,116 aloud,001,2022_Dec_01_1247,ProdSingRedoBetween,2021.2.3,59.936335624028885,
,,,,34,0,34,0,,,,,,,,,,,,,,,,,,,,,,1184.6953905999999,None,,,,,,,,,,,,,,,,,,husband,17,35,aloud,old,yellow,1179.7276760999994,None,1179.7276760999994,None,6,3.481514299999617,1179.7276760999994,None,3.481514299999617,1183.228944999999,None,1183.7553049999988,None,1183.7553049999988,None,r,0.9096939999999449,1183.7553049999988,None,0.9096939999999449,,,116 aloud,001,2022_Dec_01_1247,ProdSingRedoBetween,2021.2.3,59.936335624028885,
,,,,35,0,35,0,,,,,,,,,,,,,,,,,,,,,,1188.829732099999,None,,,,,,,,,,,,,,,,,,judge,178,36,aloud,new,null,1185.1984018000003,None,1185.1984018000003,None,4,2.7066080999993574,1185.1984018000003,None,2.7066080999993574,1187.935039,None,1188.4488196000002,None,1188.4488196000002,None,f,0.34419640000123763,1188.4488196000002,None,0.34419640000123763,,,116 aloud,001,2022_Dec_01_1247,ProdSingRedoBetween,2021.2.3,59.936335624028885,
,,,,36,0,36,0,,,,,,,,,,,,,,,,,,,,,,1192.8717622999993,None,,,,,,,,,,,,,,,,,,resistance,42,37,aloud,old,blue,1189.3347333000002,None,1189.3347333000002,None,5,2.274169599999368,1189.3347333000002,None,2.274169599999368,1191.6392845999999,None,1192.1582770000005,None,1192.1582770000005,None,f,0.6827402999988408,1192.1582770000005,None,0.6827402999988408,,,116 aloud,001,2022_Dec_01_1247,ProdSingRedoBetween,2021.2.3,59.936335624028885,
,,,,37,0,37,0,,,,,,,,,,,,,,,,,,,,,,1196.7902881999998,None,,,,,,,,,,,,,,,,,,union,84,38,aloud,old,red,1193.3881872999991,None,1193.3881872999991,None,6,1.3727151000002777,1193.3881872999991,None,1.3727151000002777,1194.7896779000002,None,1195.2892764999997,None,1195.2892764999997,None,f,1.4797297999994043,1195.2892764999997,None,1.4797297999994043,,,116 aloud,001,2022_Dec_01_1247,ProdSingRedoBetween,2021.2.3,59.936335624028885,
,,,,38,0,38,0,,,,,,,,,,,,,,,,,,,,,,1202.180411199999,None,,,,,,,,,,,,,,,,,,space,65,39,aloud,old,red,1197.2934669999995,None,1197.2934669999995,None,2,3.4594849000004615,1197.2934669999995,None,3.4594849000004615,1200.7806600999993,None,1201.2944558,None,1201.2944558,None,n,0.8665653000007296,1201.2944558,None,0.8665653000007296,,,116 aloud,001,2022_Dec_01_1247,ProdSingRedoBetween,2021.2.3,59.936335624028885,
,,,,39,0,39,0,,,,,,,,,,,,,,,,,,,,,,1207.5521559999997,None,,,,,,,,,,,,,,,,,,portion,47,40,aloud,old,blue,1202.6844003000006,None,1202.6844003000006,None,4,3.22054339999886,1202.6844003000006,None,3.22054339999886,1205.9358269999993,None,1206.4565681999993,None,1206.4565681999993,None,f,1.0723849999994854,1206.4565681999993,None,1.0723849999994854,,,116 aloud,001,2022_Dec_01_1247,ProdSingRedoBetween,2021.2.3,59.936335624028885,
,,,,40,0,40,0,,,,,,,,,,,,,,,,,,,,,,1215.860977799999,None,,,,,,,,,,,,,,,,,,dispute,155,41,aloud,new,null,1208.0544744,None,1208.0544744,None,5,4.650622900000599,1208.0544744,None,4.650622900000599,1212.7251340000003,None,1213.2444789,None,1213.2444789,None,r,2.5884043000005477,1213.2444789,None,2.5884043000005477,,,116 aloud,001,2022_Dec_01_1247,ProdSingRedoBetween,2021.2.3,59.936335624028885,
,,,,41,0,41,0,,,,,,,,,,,,,,,,,,,,,,1220.9492443999989,None,,,,,,,,,,,,,,,,,,device,169,42,aloud,new,null,1216.3790379000002,None,1216.3790379000002,None,2,2.4218818999997893,1216.3790379000002,None,2.4218818999997893,1218.8341364999997,None,1219.3465262999998,None,1219.3465262999998,None,f,1.5826269000008324,1219.3465262999998,None,1.5826269000008324,,,116 aloud,001,2022_Dec_01_1247,ProdSingRedoBetween,2021.2.3,59.936335624028885,
,,,,42,0,42,0,,,,,,,,,,,,,,,,,,,,,,1226.0042125,None,,,,,,,,,,,,,,,,,,reach,38,43,aloud,old,blue,1221.4671529999996,None,1221.4671529999996,None,3,2.541880400000082,1221.4671529999996,None,2.541880400000082,1224.0374026999998,None,1224.5511406999995,None,1224.5511406999995,None,f,1.4258398999991186,1224.5511406999995,None,1.4258398999991186,,,116 aloud,001,2022_Dec_01_1247,ProdSingRedoBetween,2021.2.3,59.936335624028885,
,,,,43,0,43,0,,,,,,,,,,,,,,,,,,,,,,1229.9743686000002,None,,,,,,,,,,,,,,,,,,cross,58,44,aloud,old,blue,1226.5219980000002,None,1226.5219980000002,None,6,1.5590881999996782,1226.5219980000002,None,1.5590881999996782,1228.1107615,None,1228.6243151999988,None,1228.6243151999988,None,r,1.3206451000005472,1228.6243151999988,None,1.3206451000005472,,,116 aloud,001,2022_Dec_01_1247,ProdSingRedoBetween,2021.2.3,59.936335624028885,
,,,,44,0,44,0,,,,,,,,,,,,,,,,,,,,,,1234.2961324999997,None,,,,,,,,,,,,,,,,,,bright,150,45,aloud,new,null,1230.4782823000005,None,1230.4782823000005,None,5,2.882775300000503,1230.4782823000005,None,2.882775300000503,1233.3782427999995,None,1233.8944847999992,None,1233.8944847999992,None,r,0.3785234999995737,1233.8944847999992,None,0.3785234999995737,,,116 aloud,001,2022_Dec_01_1247,ProdSingRedoBetween,2021.2.3,59.936335624028885,
,,,,45,0,45,0,,,,,,,,,,,,,,,,,,,,,,1237.8495426999998,None,,,,,,,,,,,,,,,,,,touch,75,46,aloud,old,red,1234.8140494,None,1234.8140494,None,6,1.5948817999997118,1234.8140494,None,1.5948817999997118,1236.4350309000001,None,1236.9469286000003,None,1236.9469286000003,None,r,0.8860576000006404,1236.9469286000003,None,0.8860576000006404,,,116 aloud,001,2022_Dec_01_1247,ProdSingRedoBetween,2021.2.3,59.936335624028885,
,,,,46,0,46,0,,,,,,,,,,,,,,,,,,,,,,1240.9865675,None,,,,,,,,,,,,,,,,,,goose,95,47,aloud,new,null,1238.3851342999988,None,1238.3851342999988,None,1,1.6158887000001414,1238.3851342999988,None,1.6158887000001414,1240.020650999999,None,1240.5345180999993,None,1240.5345180999993,None,n,0.43445749999955297,1240.5345180999993,None,0.43445749999955297,,,116 aloud,001,2022_Dec_01_1247,ProdSingRedoBetween,2021.2.3,59.936335624028885,
,,,,47,0,47,0,,,,,,,,,,,,,,,,,,,,,,1247.8102438000005,None,,,,,,,,,,,,,,,,,,straight,112,48,aloud,new,null,1241.5037197000001,None,1241.5037197000001,None,1,5.3052489000001515,1241.5037197000001,None,5.3052489000001515,1246.8439608999997,None,1247.3624793999988,None,1247.3624793999988,None,n,0.4305508000015834,1247.3624793999988,None,0.4305508000015834,,,116 aloud,001,2022_Dec_01_1247,ProdSingRedoBetween,2021.2.3,59.936335624028885,
,,,,48,0,48,0,,,,,,,,,,,,,,,,,,,,,,1255.1628760000003,None,,,,,,,,,,,,,,,,,,harmony,137,49,aloud,new,null,1248.3268561000004,None,1248.3268561000004,None,4,5.1141740000002756,1248.3268561000004,None,5.1141740000002756,1253.4702550999991,None,1253.9813534000004,None,1253.9813534000004,None,f,1.1478017999997974,1253.9813534000004,None,1.1478017999997974,,,116 aloud,001,2022_Dec_01_1247,ProdSingRedoBetween,2021.2.3,59.936335624028885,
,,,,49,0,49,0,,,,,,,,,,,,,,,,,,,,,,1258.3700859,None,,,,,,,,,,,,,,,,,,scale,154,50,aloud,new,null,1255.6677863999994,None,1255.6677863999994,None,6,1.8293079000013677,1255.6677863999994,None,1.8293079000013677,1257.5217582000005,None,1258.0351587000005,None,1258.0351587000005,None,r,0.31782789999851957,1258.0351587000005,None,0.31782789999851957,,,116 aloud,001,2022_Dec_01_1247,ProdSingRedoBetween,2021.2.3,59.936335624028885,
,,,,50,0,50,0,,,,,,,,,,,,,,,,,,,,,,1261.2885281999988,None,,,,,,,,,,,,,,,,,,impact,74,51,aloud,old,red,1258.8878110000005,None,1258.8878110000005,None,6,1.6412503000010474,1258.8878110000005,None,1.6412503000010474,1260.5582092000004,None,1261.071468099999,None,1261.071468099999,None,r,0.18558970000049158,1261.071468099999,None,0.18558970000049158,,,116 aloud,001,2022_Dec_01_1247,ProdSingRedoBetween,2021.2.3,59.936335624028885,
,,,,51,0,51,0,,,,,,,,,,,,,,,,,,,,,,1264.408560599999,None,,,,,,,,,,,,,,,,,,majority,29,52,aloud,old,blue,1261.8036223999989,None,1261.8036223999989,None,6,1.709382299999561,1261.8036223999989,None,1.709382299999561,1263.5463316999994,None,1264.0584254000005,None,1264.0584254000005,None,r,0.32661779999943974,1264.0584254000005,None,0.32661779999943974,,,116 aloud,001,2022_Dec_01_1247,ProdSingRedoBetween,2021.2.3,59.936335624028885,
,,,,52,0,52,0,,,,,,,,,,,,,,,,,,,,,,1267.5624253999995,None,,,,,,,,,,,,,,,,,,novel,124,53,aloud,new,null,1264.9118901000002,None,1264.9118901000002,None,2,1.7931214000000182,1264.9118901000002,None,1.7931214000000182,1266.7306950000002,None,1267.244861699999,None,1267.244861699999,None,f,0.3002418000014586,1267.244861699999,None,0.3002418000014586,,,116 aloud,001,2022_Dec_01_1247,ProdSingRedoBetween,2021.2.3,59.936335624028885,
,,,,53,0,53,0,,,,,,,,,,,,,,,,,,,,,,1273.9523594000002,None,,,,,,,,,,,,,,,,,,literature,60,54,aloud,old,red,1268.0633156999993,None,1268.0633156999993,None,6,4.961819399999513,1268.0633156999993,None,4.961819399999513,1273.0517748000002,None,1273.5667135999993,None,1273.5667135999993,None,r,0.36244540000006964,1273.5667135999993,None,0.36244540000006964,,,116 aloud,001,2022_Dec_01_1247,ProdSingRedoBetween,2021.2.3,59.936335624028885,
,,,,54,0,54,0,,,,,,,,,,,,,,,,,,,,,,1279.5244784999995,None,,,,,,,,,,,,,,,,,,agency,104,55,aloud,new,null,1274.4707983999997,None,1274.4707983999997,None,3,4.2021968999997625,1274.4707983999997,None,4.2021968999997625,1278.692615599999,None,1279.2071612,None,1279.2071612,None,f,0.2898478000006435,1279.2071612,None,0.2898478000006435,,,116 aloud,001,2022_Dec_01_1247,ProdSingRedoBetween,2021.2.3,59.936335624028885,
,,,,55,0,55,0,,,,,,,,,,,,,,,,,,,,,,1283.9121388000003,None,,,,,,,,,,,,,,,,,,error,96,56,aloud,new,null,1280.0376694999995,None,1280.0376694999995,None,1,3.091347500001575,1280.0376694999995,None,3.091347500001575,1283.16323,None,1283.6775435,None,1283.6775435,None,n,0.2034784999996191,1283.6775435,None,0.2034784999996191,,,116 aloud,001,2022_Dec_01_1247,ProdSingRedoBetween,2021.2.3,59.936335624028885,
,,,,56,0,56,0,,,,,,,,,,,,,,,,,,,,,,1290.5343758999988,None,,,,,,,,,,,,,,,,,,alert,160,57,aloud,new,null,1284.4294241999996,None,1284.4294241999996,None,2,4.419563400000698,1284.4294241999996,None,4.419563400000698,1288.8675975999995,None,1289.3926804000002,None,1289.3926804000002,None,n,1.112319199999547,1289.3926804000002,None,1.112319199999547,,,116 aloud,001,2022_Dec_01_1247,ProdSingRedoBetween,2021.2.3,59.936335624028885,
,,,,57,0,57,0,,,,,,,,,,,,,,,,,,,,,,1295.1232820000005,None,,,,,,,,,,,,,,,,,,testimony,156,58,aloud,new,null,1291.037620699999,None,1291.037620699999,None,3,3.155309899999338,1291.037620699999,None,3.155309899999338,1294.2225916999996,None,1294.7385436000004,None,1294.7385436000004,None,f,0.3668004999999539,1294.7385436000004,None,0.3668004999999539,,,116 aloud,001,2022_Dec_01_1247,ProdSingRedoBetween,2021.2.3,59.936335624028885,
,,,,58,0,58,0,,,,,,,,,,,,,,,,,,,,,,1299.4775946999998,None,,,,,,,,,,,,,,,,,,session,103,59,aloud,new,null,1295.6323088999998,None,1295.6323088999998,None,1,2.984741300000678,1295.6323088999998,None,2.984741300000678,1298.6447224000003,None,1299.1600340000005,None,1299.1600340000005,None,n,0.28918270000031043,1299.1600340000005,None,0.28918270000031043,,,116 aloud,001,2022_Dec_01_1247,ProdSingRedoBetween,2021.2.3,59.936335624028885,
,,,,59,0,59,0,,,,,,,,,,,,,,,,,,,,,,1305.2506711000005,None,,,,,,,,,,,,,,,,,,column,179,60,aloud,new,null,1299.9787876999999,None,1299.9787876999999,None,4,4.254198999999062,1299.9787876999999,None,4.254198999999062,1304.2660877999988,None,1304.7818322000003,None,1304.7818322000003,None,f,0.4512150999998994,1304.7818322000003,None,0.4512150999998994,,,116 aloud,001,2022_Dec_01_1247,ProdSingRedoBetween,2021.2.3,59.936335624028885,
,,,,60,0,60,0,,,,,,,,,,,,,,,,,,,,,,1309.9217541999988,None,,,,,,,,,,,,,,,,,,number,129,61,aloud,new,null,1305.767485299999,None,1305.767485299999,None,3,3.329542199999196,1305.767485299999,None,3.329542199999196,1309.1215644000004,None,1309.6360329,None,1309.6360329,None,f,0.26901730000099633,1309.6360329,None,0.26901730000099633,,,116 aloud,001,2022_Dec_01_1247,ProdSingRedoBetween,2021.2.3,59.936335624028885,
,,,,61,0,61,0,,,,,,,,,,,,,,,,,,,,,,1315.2591725000002,None,,,,,,,,,,,,,,,,,,heavy,30,62,aloud,old,blue,1310.4392147999988,None,1310.4392147999988,None,6,3.473742100000891,1310.4392147999988,None,3.473742100000891,1313.9437355999999,None,1314.4632743000002,None,1314.4632743000002,None,r,0.7779076000006171,1314.4632743000002,None,0.7779076000006171,,,116 aloud,001,2022_Dec_01_1247,ProdSingRedoBetween,2021.2.3,59.936335624028885,
,,,,62,0,62,0,,,,,,,,,,,,,,,,,,,,,,1320.5817009999992,None,,,,,,,,,,,,,,,,,,raise,173,63,aloud,new,null,1315.7620217999993,None,1315.7620217999993,None,4,4.079021800000191,1315.7620217999993,None,4.079021800000191,1319.8681216999994,None,1320.3809216999998,None,1320.3809216999998,None,f,0.18036690000008093,1320.3809216999998,None,0.18036690000008093,,,116 aloud,001,2022_Dec_01_1247,ProdSingRedoBetween,2021.2.3,59.936335624028885,
,,,,63,0,63,0,,,,,,,,,,,,,,,,,,,,,,1325.9889137999999,None,,,,,,,,,,,,,,,,,,finish,131,64,aloud,new,null,1321.0838657999993,None,1321.0838657999993,None,4,4.029200500001025,1321.0838657999993,None,4.029200500001025,1325.1392188999998,None,1325.6528677999995,None,1325.6528677999995,None,f,0.31633490000058373,1325.6528677999995,None,0.31633490000058373,,,116 aloud,001,2022_Dec_01_1247,ProdSingRedoBetween,2021.2.3,59.936335624028885,
,,,,64,0,64,0,,,,,,,,,,,,,,,,,,,,,,1331.6766370000005,None,,,,,,,,,,,,,,,,,,suspect,6,65,aloud,old,yellow,1326.5122663999991,None,1326.5122663999991,None,5,4.5527481000008265,1326.5122663999991,None,4.5527481000008265,1331.0945534999992,None,1331.6095841999995,None,1331.6095841999995,None,f,0.047490599999946426,1331.6095841999995,None,0.047490599999946426,,,116 aloud,001,2022_Dec_01_1247,ProdSingRedoBetween,2021.2.3,59.936335624028885,
,,,,65,0,65,0,,,,,,,,,,,,,,,,,,,,,,1338.8505946000005,None,,,,,,,,,,,,,,,,,,smooth,139,66,aloud,new,null,1332.1791988000004,None,1332.1791988000004,None,3,5.493848100000832,1332.1791988000004,None,5.493848100000832,1337.700825,None,1338.215895199999,None,1338.215895199999,None,f,0.6091667000000598,1338.215895199999,None,0.6091667000000598,,,116 aloud,001,2022_Dec_01_1247,ProdSingRedoBetween,2021.2.3,59.936335624028885,
,,,,66,0,66,0,,,,,,,,,,,,,,,,,,,,,,1344.3736812999996,None,,,,,,,,,,,,,,,,,,couch,98,67,aloud,new,null,1339.3684754999995,None,1339.3684754999995,None,5,4.240503099999842,1339.3684754999995,None,4.240503099999842,1343.6388030999988,None,1344.1563994999997,None,1344.1563994999997,None,f,0.19672469999932218,1344.1563994999997,None,0.19672469999932218,,,116 aloud,001,2022_Dec_01_1247,ProdSingRedoBetween,2021.2.3,59.936335624028885,
,,,,67,0,67,0,,,,,,,,,,,,,,,,,,,,,,1347.3238681999992,None,,,,,,,,,,,,,,,,,,stand,13,68,aloud,old,yellow,1344.8906017999998,None,1344.8906017999998,None,6,1.7584664999994857,1344.8906017999998,None,1.7584664999994857,1346.6769165000005,None,1347.1908392999994,None,1347.1908392999994,None,r,0.10618739999881655,1347.1908392999994,None,0.10618739999881655,,,116 aloud,001,2022_Dec_01_1247,ProdSingRedoBetween,2021.2.3,59.936335624028885,
,,,,68,0,68,0,,,,,,,,,,,,,,,,,,,,,,1350.0444647000004,None,,,,,,,,,,,,,,,,,,estate,109,69,aloud,new,null,1347.8378513999996,None,1347.8378513999996,None,6,1.5313070000011066,1347.8378513999996,None,1.5313070000011066,1349.401577499999,None,1349.9104941000005,None,1349.9104941000005,None,r,0.10659689999920374,1349.9104941000005,None,0.10659689999920374,,,116 aloud,001,2022_Dec_01_1247,ProdSingRedoBetween,2021.2.3,59.936335624028885,
,,,,69,0,69,0,,,,,,,,,,,,,,,,,,,,,,1355.8349782000005,None,,,,,,,,,,,,,,,,,,state,68,70,aloud,old,red,1350.5577147000004,None,1350.5577147000004,None,4,3.8593741999993654,1350.5577147000004,None,3.8593741999993654,1354.4502453000005,None,1354.9654367999992,None,1354.9654367999992,None,f,0.8516164000011486,1354.9654367999992,None,0.8516164000011486,,,116 aloud,001,2022_Dec_01_1247,ProdSingRedoBetween,2021.2.3,59.936335624028885,
,,,,70,0,70,0,,,,,,,,,,,,,,,,,,,,,,1360.472495099999,None,,,,,,,,,,,,,,,,,,grade,148,71,aloud,new,null,1356.3527003999989,None,1356.3527003999989,None,1,3.4324113999991823,1356.3527003999989,None,3.4324113999991823,1359.80746,None,1360.3228013999997,None,1360.3228013999997,None,n,0.12635020000016084,1360.3228013999997,None,0.12635020000016084,,,116 aloud,001,2022_Dec_01_1247,ProdSingRedoBetween,2021.2.3,59.936335624028885,
,,,,71,0,71,0,,,,,,,,,,,,,,,,,,,,,,1368.4454422999988,None,,,,,,,,,,,,,,,,,,accident,40,72,aloud,old,blue,1360.9899324999988,None,1360.9899324999988,None,4,3.6270762999993167,1360.9899324999988,None,3.6270762999993167,1364.6440989999992,None,1365.1592636000005,None,1365.1592636000005,None,f,3.257720600000539,1365.1592636000005,None,3.257720600000539,,,116 aloud,001,2022_Dec_01_1247,ProdSingRedoBetween,2021.2.3,59.936335624028885,
,,,,72,0,72,0,,,,,,,,,,,,,,,,,,,,,,1373.6687430999991,None,,,,,,,,,,,,,,,,,,crisis,92,73,aloud,new,null,1368.9520448999992,None,1368.9520448999992,None,4,3.8890152999993006,1368.9520448999992,None,3.8890152999993006,1372.8700568999993,None,1373.3839561000004,None,1373.3839561000004,None,f,0.2651122999996005,1373.3839561000004,None,0.2651122999996005,,,116 aloud,001,2022_Dec_01_1247,ProdSingRedoBetween,2021.2.3,59.936335624028885,
,,,,73,0,73,0,,,,,,,,,,,,,,,,,,,,,,1377.4056123999999,None,,,,,,,,,,,,,,,,,,birth,76,74,aloud,old,red,1374.1938685999994,None,1374.1938685999994,None,5,2.4312173999987863,1374.1938685999994,None,2.4312173999987863,1376.658438999999,None,1377.1704824999997,None,1377.1704824999997,None,f,0.21474300000045332,1377.1704824999997,None,0.21474300000045332,,,116 aloud,001,2022_Dec_01_1247,ProdSingRedoBetween,2021.2.3,59.936335624028885,
,,,,74,0,74,0,,,,,,,,,,,,,,,,,,,,,,1380.776085899999,None,,,,,,,,,,,,,,,,,,present,170,75,aloud,new,null,1377.907727599999,None,1377.907727599999,None,6,1.9893054000003758,1377.907727599999,None,1.9893054000003758,1379.9297511000004,None,1380.4407873,None,1380.4407873,None,r,0.3043264000007184,1380.4407873,None,0.3043264000007184,,,116 aloud,001,2022_Dec_01_1247,ProdSingRedoBetween,2021.2.3,59.936335624028885,
,,,,75,0,75,0,,,,,,,,,,,,,,,,,,,,,,1387.5321132999998,None,,,,,,,,,,,,,,,,,,month,99,76,aloud,new,null,1381.2923303999996,None,1381.2923303999996,None,1,5.428746800000226,1381.2923303999996,None,5.428746800000226,1386.7495538999992,None,1387.2640833999994,None,1387.2640833999994,None,n,0.24088010000014037,1387.2640833999994,None,0.24088010000014037,,,116 aloud,001,2022_Dec_01_1247,ProdSingRedoBetween,2021.2.3,59.936335624028885,
,,,,76,0,76,0,,,,,,,,,,,,,,,,,,,,,,1390.6844490999993,None,,,,,,,,,,,,,,,,,,thing,46,77,aloud,old,blue,1388.0367963999997,None,1388.0367963999997,None,6,1.5965267999999924,1388.0367963999997,None,1.5965267999999924,1389.6511357,None,1390.1514258999996,None,1390.1514258999996,None,r,0.5055644000003667,1390.1514258999996,None,0.5055644000003667,,,116 aloud,001,2022_Dec_01_1247,ProdSingRedoBetween,2021.2.3,59.936335624028885,
,,,,77,0,77,0,,,,,,,,,,,,,,,,,,,,,,1400.2284670999998,None,,,,,,,,,,,,,,,,,,dream,21,78,aloud,old,yellow,1391.1901094999994,None,1391.1901094999994,None,3,8.210970899999666,1391.1901094999994,None,8.210970899999666,1399.428964499999,None,1399.9447342999993,None,1399.9447342999993,None,f,0.2563039000015124,1399.9447342999993,None,0.2563039000015124,,,116 aloud,001,2022_Dec_01_1247,ProdSingRedoBetween,2021.2.3,59.936335624028885,
,,,,78,0,78,0,,,,,,,,,,,,,,,,,,,,,,1404.048745099999,None,,,,,,,,,,,,,,,,,,commercial,106,79,aloud,new,null,1400.746316499999,None,1400.746316499999,None,6,2.5428164999993896,1400.746316499999,None,2.5428164999993896,1403.3176982000005,None,1403.8306923,None,1403.8306923,None,r,0.18642069999987143,1403.8306923,None,0.18642069999987143,,,116 aloud,001,2022_Dec_01_1247,ProdSingRedoBetween,2021.2.3,59.936335624028885,
,,,,79,0,79,0,,,,,,,,,,,,,,,,,,,,,,1407.3685972999992,None,,,,,,,,,,,,,,,,,,generation,119,80,aloud,new,null,1404.5507335999991,None,1404.5507335999991,None,1,2.0103462000006402,1404.5507335999991,None,2.0103462000006402,1406.5867932,None,1407.100978999999,None,1407.100978999999,None,n,0.23609530000067025,1407.100978999999,None,0.23609530000067025,,,116 aloud,001,2022_Dec_01_1247,ProdSingRedoBetween,2021.2.3,59.936335624028885,
,,,,80,0,80,0,,,,,,,,,,,,,,,,,,,,,,1412.1402734000003,None,,,,,,,,,,,,,,,,,,measure,7,81,aloud,old,yellow,1407.8867723999992,None,1407.8867723999992,None,6,3.474369800000204,1407.8867723999992,None,3.474369800000204,1411.3904705000004,None,1411.9049083999998,None,1411.9049083999998,None,r,0.20814489999975194,1411.9049083999998,None,0.20814489999975194,,,116 aloud,001,2022_Dec_01_1247,ProdSingRedoBetween,2021.2.3,59.936335624028885,
,,,,81,0,81,0,,,,,,,,,,,,,,,,,,,,,,1415.7628439,None,,,,,,,,,,,,,,,,,,broad,134,82,aloud,new,null,1412.6582719999988,None,1412.6582719999988,None,5,2.398922799999127,1412.6582719999988,None,2.398922799999127,1415.079765299999,None,1415.6018676999993,None,1415.6018676999993,None,r,0.13526810000075784,1415.6018676999993,None,0.13526810000075784,,,116 aloud,001,2022_Dec_01_1247,ProdSingRedoBetween,2021.2.3,59.936335624028885,
,,,,82,0,82,0,,,,,,,,,,,,,,,,,,,,,,1421.867516799999,None,,,,,,,,,,,,,,,,,,clean,9,83,aloud,old,yellow,1416.2819435000001,None,1416.2819435000001,None,6,4.743135200000324,1416.2819435000001,None,4.743135200000324,1421.0502306999988,None,1421.5646070999992,None,1421.5646070999992,None,r,0.2764917999993486,1421.5646070999992,None,0.2764917999993486,,,116 aloud,001,2022_Dec_01_1247,ProdSingRedoBetween,2021.2.3,59.936335624028885,
,,,,83,0,83,0,,,,,,,,,,,,,,,,,,,,,,1424.9698592999994,None,,,,,,,,,,,,,,,,,,comfort,86,84,aloud,old,red,1422.3845459999993,None,1422.3845459999993,None,6,1.8005334999998013,1422.3845459999993,None,1.8005334999998013,1424.2031219,None,1424.7187252000003,None,1424.7187252000003,None,r,0.2263758000008238,1424.7187252000003,None,0.2263758000008238,,,116 aloud,001,2022_Dec_01_1247,ProdSingRedoBetween,2021.2.3,59.936335624028885,
,,,,84,0,84,0,,,,,,,,,,,,,,,,,,,,,,1432.8504381999992,None,,,,,,,,,,,,,,,,,,escape,64,85,aloud,old,red,1425.4873773999989,None,1425.4873773999989,None,4,6.569951699999365,1425.4873773999989,None,6.569951699999365,1432.0778986000005,None,1432.597967399999,None,1432.597967399999,None,f,0.22719580000011774,1432.597967399999,None,0.22719580000011774,,,116 aloud,001,2022_Dec_01_1247,ProdSingRedoBetween,2021.2.3,59.936335624028885,
,,,,85,0,85,0,,,,,,,,,,,,,,,,,,,,,,1437.3489523999997,None,,,,,,,,,,,,,,,,,,patient,167,86,aloud,new,null,1433.370683199999,None,1433.370683199999,None,5,2.726402899999812,1433.370683199999,None,2.726402899999812,1436.1150354000001,None,1436.6309595999992,None,1436.6309595999992,None,r,0.6901618000010785,1436.6309595999992,None,0.6901618000010785,,,116 aloud,001,2022_Dec_01_1247,ProdSingRedoBetween,2021.2.3,59.936335624028885,
,,,,86,0,86,0,,,,,,,,,,,,,,,,,,,,,,1443.138358099999,None,,,,,,,,,,,,,,,,,,murder,145,87,aloud,new,null,1437.866120499999,None,1437.866120499999,None,3,4.254955599999448,1437.866120499999,None,4.254955599999448,1442.1539883999994,None,1442.6691971,None,1442.6691971,None,f,0.45197920000100567,1442.6691971,None,0.45197920000100567,,,116 aloud,001,2022_Dec_01_1247,ProdSingRedoBetween,2021.2.3,59.936335624028885,
,,,,87,0,87,0,,,,,,,,,,,,,,,,,,,,,,1445.9735456999988,None,,,,,,,,,,,,,,,,,,right,25,88,aloud,old,yellow,1443.6723932000004,None,1443.6723932000004,None,6,1.552679000000353,1443.6723932000004,None,1.552679000000353,1445.257080899999,None,1445.7725888999994,None,1445.7725888999994,None,r,0.1724794000001566,1445.7725888999994,None,0.1724794000001566,,,116 aloud,001,2022_Dec_01_1247,ProdSingRedoBetween,2021.2.3,59.936335624028885,
,,,,88,0,88,0,,,,,,,,,,,,,,,,,,,,,,1452.8652970000003,None,,,,,,,,,,,,,,,,,,answer,78,89,aloud,old,red,1446.4758475999988,None,1446.4758475999988,None,6,5.677265800000896,1446.4758475999988,None,5.677265800000896,1452.1845563999996,None,1452.7041606999992,None,1452.7041606999992,None,r,0.1290874000005715,1452.7041606999992,None,0.1290874000005715,,,116 aloud,001,2022_Dec_01_1247,ProdSingRedoBetween,2021.2.3,59.936335624028885,
,,,,89,0,89,0,,,,,,,,,,,,,,,,,,,,,,1457.1313075999988,None,,,,,,,,,,,,,,,,,,burden,79,90,aloud,old,red,1453.382336499999,None,1453.382336499999,None,6,2.9707579999994778,1453.382336499999,None,2.9707579999994778,1456.3848786999988,None,1456.9006792,None,1456.9006792,None,r,0.18838229999892064,1456.9006792,None,0.18838229999892064,,,116 aloud,001,2022_Dec_01_1247,ProdSingRedoBetween,2021.2.3,59.936335624028885,
,,,,90,0,90,0,,,,,,,,,,,,,,,,,,,,,,1464.541312199999,None,,,,,,,,,,,,,,,,,,appeal,110,91,aloud,new,null,1457.6359807999997,None,1457.6359807999997,None,5,6.253124099999695,1457.6359807999997,None,6.253124099999695,1463.9110161999997,None,1464.4302408000003,None,1464.4302408000003,None,r,0.07525089999944612,1464.4302408000003,None,0.07525089999944612,,,116 aloud,001,2022_Dec_01_1247,ProdSingRedoBetween,2021.2.3,59.936335624028885,
,,,,91,0,91,0,,,,,,,,,,,,,,,,,,,,,,1467.7122732999997,None,,,,,,,,,,,,,,,,,,spoke,67,92,aloud,old,red,1465.0495886999997,None,1465.0495886999997,None,5,1.7598567999993975,1465.0495886999997,None,1.7598567999993975,1466.830829299999,None,1467.345073999999,None,1467.345073999999,None,r,0.3360482000007323,1467.345073999999,None,0.3360482000007323,,,116 aloud,001,2022_Dec_01_1247,ProdSingRedoBetween,2021.2.3,59.936335624028885,
,,,,92,0,92,0,,,,,,,,,,,,,,,,,,,,,,1473.1183972,None,,,,,,,,,,,,,,,,,,partner,164,93,aloud,new,null,1468.2143319999996,None,1468.2143319999996,None,3,4.042796699999599,1468.2143319999996,None,4.042796699999599,1472.2846592000005,None,1472.7999407999996,None,1472.7999407999996,None,f,0.2891194000003452,1472.7999407999996,None,0.2891194000003452,,,116 aloud,001,2022_Dec_01_1247,ProdSingRedoBetween,2021.2.3,59.936335624028885,
,,,,93,0,93,0,,,,,,,,,,,,,,,,,,,,,,1476.6882485999995,None,,,,,,,,,,,,,,,,,,mankind,126,94,aloud,new,null,1473.6453456,None,1473.6453456,None,1,2.195712700000513,1473.6453456,None,2.195712700000513,1475.8727686000002,None,1476.3866132999992,None,1476.3866132999992,None,n,0.27855079999972077,1476.3866132999992,None,0.27855079999972077,,,116 aloud,001,2022_Dec_01_1247,ProdSingRedoBetween,2021.2.3,59.936335624028885,
,,,,94,0,94,0,,,,,,,,,,,,,,,,,,,,,,1480.5084258999996,None,,,,,,,,,,,,,,,,,,orchestra,115,95,aloud,new,null,1477.190051399999,None,1477.190051399999,None,1,2.563279699999839,1477.190051399999,None,2.563279699999839,1479.776323,None,1480.2906408999988,None,1480.2906408999988,None,n,0.19869239999934507,1480.2906408999988,None,0.19869239999934507,,,116 aloud,001,2022_Dec_01_1247,ProdSingRedoBetween,2021.2.3,59.936335624028885,
,,,,95,0,95,0,,,,,,,,,,,,,,,,,,,,,,1483.4575191000004,None,,,,,,,,,,,,,,,,,,recall,1,96,aloud,old,yellow,1481.0163155999999,None,1481.0163155999999,None,6,1.673112200000105,1481.0163155999999,None,1.673112200000105,1482.7141143999997,None,1483.2288563000002,None,1483.2288563000002,None,r,0.18828020000000834,1483.2288563000002,None,0.18828020000000834,,,116 aloud,001,2022_Dec_01_1247,ProdSingRedoBetween,2021.2.3,59.936335624028885,
,,,,96,0,96,0,,,,,,,,,,,,,,,,,,,,,,1486.7989560999995,None,,,,,,,,,,,,,,,,,,point,80,97,aloud,old,red,1483.969787099999,None,1483.969787099999,None,6,1.999410500000522,1483.969787099999,None,1.999410500000522,1485.9980295000005,None,1486.5135673000004,None,1486.5135673000004,None,r,0.25548929999968095,1486.5135673000004,None,0.25548929999968095,,,116 aloud,001,2022_Dec_01_1247,ProdSingRedoBetween,2021.2.3,59.936335624028885,
,,,,97,0,97,0,,,,,,,,,,,,,,,,,,,,,,1491.1861181999993,None,,,,,,,,,,,,,,,,,,range,146,98,aloud,new,null,1487.3237604999995,None,1487.3237604999995,None,5,3.2053766999997606,1487.3237604999995,None,3.2053766999997606,1490.5519800000002,None,1491.0524413000003,None,1491.0524413000003,None,f,0.11667709999892395,1491.0524413000003,None,0.11667709999892395,,,116 aloud,001,2022_Dec_01_1247,ProdSingRedoBetween,2021.2.3,59.936335624028885,
,,,,98,0,98,0,,,,,,,,,,,,,,,,,,,,,,1494.3393139,None,,,,,,,,,,,,,,,,,,express,43,99,aloud,old,blue,1491.7036864000002,None,1491.7036864000002,None,6,1.8254156000002695,1491.7036864000002,None,1.8254156000002695,1493.5554993000005,None,1494.0708393000004,None,1494.0708393000004,None,r,0.24240499999905296,1494.0708393000004,None,0.24240499999905296,,,116 aloud,001,2022_Dec_01_1247,ProdSingRedoBetween,2021.2.3,59.936335624028885,
,,,,99,0,99,0,,,,,,,,,,,,,,,,,,,,,,1498.6776267000005,None,,,,,,,,,,,,,,,,,,command,5,100,aloud,old,yellow,1494.8563756000003,None,1494.8563756000003,None,6,3.128740600001038,1494.8563756000003,None,3.128740600001038,1498.0103118999996,None,1498.525007799999,None,1498.525007799999,None,r,0.12414739999985613,1498.525007799999,None,0.12414739999985613,,,116 aloud,001,2022_Dec_01_1247,ProdSingRedoBetween,2021.2.3,59.936335624028885,
,,,,100,0,100,0,,,,,,,,,,,,,,,,,,,,,,1502.8304430999997,None,,,,,,,,,,,,,,,,,,employment,144,101,aloud,new,null,1499.1945856999992,None,1499.1945856999992,None,3,2.5265230999993946,1499.1945856999992,None,2.5265230999993946,1501.7474450999998,None,1502.2626433999994,None,1502.2626433999994,None,f,0.5468357999998261,1502.2626433999994,None,0.5468357999998261,,,116 aloud,001,2022_Dec_01_1247,ProdSingRedoBetween,2021.2.3,59.936335624028885,
,,,,101,0,101,0,,,,,,,,,,,,,,,,,,,,,,1509.233397099999,None,,,,,,,,,,,,,,,,,,medicine,53,102,aloud,old,blue,1503.3354357999997,None,1503.3354357999997,None,5,2.0497206000000006,1503.3354357999997,None,2.0497206000000006,1505.4226691000003,None,1505.9326745999988,None,1505.9326745999988,None,r,3.268450199999279,1505.9326745999988,None,3.268450199999279,,,116 aloud,001,2022_Dec_01_1247,ProdSingRedoBetween,2021.2.3,59.936335624028885,
,,,,102,0,102,0,,,,,,,,,,,,,,,,,,,,,,1514.092182299999,None,,,,,,,,,,,,,,,,,,article,33,103,aloud,old,blue,1509.7378255000003,None,1509.7378255000003,None,5,3.5514431999999942,1509.7378255000003,None,3.5514431999999942,1513.3097106000005,None,1513.8242259999988,None,1513.8242259999988,None,r,0.24085390000072948,1513.8242259999988,None,0.24085390000072948,,,116 aloud,001,2022_Dec_01_1247,ProdSingRedoBetween,2021.2.3,59.936335624028885,
,,,,103,0,103,0,,,,,,,,,,,,,,,,,,,,,,1516.8814118999999,None,,,,,,,,,,,,,,,,,,carry,66,104,aloud,old,red,1514.6222044000006,None,1514.6222044000006,None,6,1.451148699999976,1514.6222044000006,None,1.451148699999976,1516.0993264999997,None,1516.6104730999996,None,1516.6104730999996,None,r,0.23853730000155338,1516.6104730999996,None,0.23853730000155338,,,116 aloud,001,2022_Dec_01_1247,ProdSingRedoBetween,2021.2.3,59.936335624028885,
,,,,104,0,104,0,,,,,,,,,,,,,,,,,,,,,,1519.6978098,None,,,,,,,,,,,,,,,,,,century,54,105,aloud,old,blue,1517.3957740000005,None,1517.3957740000005,None,6,1.5413768999987951,1517.3957740000005,None,1.5413768999987951,1518.965049299999,None,1519.4798530999997,None,1519.4798530999997,None,r,0.18520580000040354,1519.4798530999997,None,0.18520580000040354,,,116 aloud,001,2022_Dec_01_1247,ProdSingRedoBetween,2021.2.3,59.936335624028885,
,,,,105,0,105,0,,,,,,,,,,,,,,,,,,,,,,1522.8167558999994,None,,,,,,,,,,,,,,,,,,shock,73,106,aloud,old,red,1520.2001571,None,1520.2001571,None,6,1.872959100001026,1520.2001571,None,1.872959100001026,1522.1061848999998,None,1522.6157311999996,None,1522.6157311999996,None,r,0.16940690000046743,1522.6157311999996,None,0.16940690000046743,,,116 aloud,001,2022_Dec_01_1247,ProdSingRedoBetween,2021.2.3,59.936335624028885,
,,,,106,0,106,0,,,,,,,,,,,,,,,,,,,,,,1526.8549007000001,None,,,,,,,,,,,,,,,,,,republic,77,107,aloud,old,red,1523.3193542999998,None,1523.3193542999998,None,3,2.6018103000005794,1523.3193542999998,None,2.6018103000005794,1525.9394606999995,None,1526.455785,None,1526.455785,None,n,0.36933309999949415,1526.455785,None,0.36933309999949415,,,116 aloud,001,2022_Dec_01_1247,ProdSingRedoBetween,2021.2.3,59.936335624028885,
,,,,107,0,107,0,,,,,,,,,,,,,,,,,,,,,,1533.428702199999,None,,,,,,,,,,,,,,,,,,edition,163,108,aloud,new,null,1527.3718004999992,None,1527.3718004999992,None,2,4.845627200000308,1527.3718004999992,None,4.845627200000308,1532.2447708,None,1532.7593825000004,None,1532.7593825000004,None,f,0.6417025999999169,1532.7593825000004,None,0.6417025999999169,,,116 aloud,001,2022_Dec_01_1247,ProdSingRedoBetween,2021.2.3,59.936335624028885,
,,,,108,0,108,0,,,,,,,,,,,,,,,,,,,,,,1539.7177797999993,None,,,,,,,,,,,,,,,,,,voice,18,109,aloud,old,yellow,1533.9462255999988,None,1533.9462255999988,None,4,5.0709237000010035,1533.9462255999988,None,5.0709237000010035,1539.0357738000002,None,1539.5496843,None,1539.5496843,None,f,0.13941959999829123,1539.5496843,None,0.13941959999829123,,,116 aloud,001,2022_Dec_01_1247,ProdSingRedoBetween,2021.2.3,59.936335624028885,
,,,,109,0,109,0,,,,,,,,,,,,,,,,,,,,,,1543.3674138999995,None,,,,,,,,,,,,,,,,,,passage,166,110,aloud,new,null,1540.2196624999997,None,1540.2196624999997,None,1,2.565622300000541,1540.2196624999997,None,2.565622300000541,1542.8064890000005,None,1543.3211259,None,1543.3211259,None,n,0.016172200001165038,1543.3211259,None,0.016172200001165038,,,116 aloud,001,2022_Dec_01_1247,ProdSingRedoBetween,2021.2.3,59.936335624028885,
,,,,110,0,110,0,,,,,,,,,,,,,,,,,,,,,,1546.458140499999,None,,,,,,,,,,,,,,,,,,strain,140,111,aloud,new,null,1543.8712624,None,1543.8712624,None,6,1.9939618999997037,1543.8712624,None,1.9939618999997037,1545.8970357999988,None,1546.406751299999,None,1546.406751299999,None,r,0.026400500000818283,1546.406751299999,None,0.026400500000818283,,,116 aloud,001,2022_Dec_01_1247,ProdSingRedoBetween,2021.2.3,59.936335624028885,
,,,,111,0,111,0,,,,,,,,,,,,,,,,,,,,,,1553.9781586999998,None,,,,,,,,,,,,,,,,,,display,49,112,aloud,old,blue,1546.975688299999,None,1546.975688299999,None,5,5.417705699999715,1546.975688299999,None,5.417705699999715,1552.4151461000001,None,1552.9297936999992,None,1552.9297936999992,None,r,1.0155038999982935,1552.9297936999992,None,1.0155038999982935,,,116 aloud,001,2022_Dec_01_1247,ProdSingRedoBetween,2021.2.3,59.936335624028885,
,,,,112,0,112,0,,,,,,,,,,,,,,,,,,,,,,1561.5395642000003,None,,,,,,,,,,,,,,,,,,scene,138,113,aloud,new,null,1554.482895199999,None,1554.482895199999,None,5,6.334574999998949,1554.482895199999,None,6.334574999998949,1560.8399135,None,1561.3613908999996,None,1561.3613908999996,None,f,0.15982859999894572,1561.3613908999996,None,0.15982859999894572,,,116 aloud,001,2022_Dec_01_1247,ProdSingRedoBetween,2021.2.3,59.936335624028885,
,,,,113,0,113,0,,,,,,,,,,,,,,,,,,,,,,1565.0098992999992,None,,,,,,,,,,,,,,,,,,sweet,116,114,aloud,new,null,1562.0426429999989,None,1562.0426429999989,None,5,2.31045450000056,1562.0426429999989,None,2.31045450000056,1564.3776801999993,None,1564.8918154000003,None,1564.8918154000003,None,f,0.10136389999934181,1564.8918154000003,None,0.10136389999934181,,,116 aloud,001,2022_Dec_01_1247,ProdSingRedoBetween,2021.2.3,59.936335624028885,
,,,,114,0,114,0,,,,,,,,,,,,,,,,,,,,,,1570.9157118999992,None,,,,,,,,,,,,,,,,,,drama,93,115,aloud,new,null,1565.5363858,None,1565.5363858,None,2,4.7126906999983476,1565.5363858,None,4.7126906999983476,1570.2817522000005,None,1570.782697999999,None,1570.782697999999,None,n,0.11460840000108874,1570.782697999999,None,0.11460840000108874,,,116 aloud,001,2022_Dec_01_1247,ProdSingRedoBetween,2021.2.3,59.936335624028885,
,,,,115,0,115,0,,,,,,,,,,,,,,,,,,,,,,1574.3689379999996,None,,,,,,,,,,,,,,,,,,travel,61,116,aloud,old,red,1571.4184649,None,1571.4184649,None,3,2.3426963000001706,1571.4184649,None,2.3426963000001706,1573.7870340999998,None,1574.3018948999998,None,1574.3018948999998,None,n,0.03529600000001665,1574.3018948999998,None,0.03529600000001665,,,116 aloud,001,2022_Dec_01_1247,ProdSingRedoBetween,2021.2.3,59.936335624028885,
,,,,116,0,116,0,,,,,,,,,,,,,,,,,,,,,,1577.0216201999992,None,,,,,,,,,,,,,,,,,,comedy,34,117,aloud,old,blue,1574.8706208999993,None,1574.8706208999993,None,6,1.450573299998723,1574.8706208999993,None,1.450573299998723,1576.3385024,None,1576.8539992999995,None,1576.8539992999995,None,r,0.13909870000134106,1576.8539992999995,None,0.13909870000134106,,,116 aloud,001,2022_Dec_01_1247,ProdSingRedoBetween,2021.2.3,59.936335624028885,
,,,,117,0,117,0,,,,,,,,,,,,,,,,,,,,,,1579.5702277,None,,,,,,,,,,,,,,,,,,angle,35,118,aloud,old,blue,1577.5230343000003,None,1577.5230343000003,None,6,1.3581794000001537,1577.5230343000003,None,1.3581794000001537,1578.910812099999,None,1579.426655199999,None,1579.426655199999,None,r,0.10244820000116306,1579.426655199999,None,0.10244820000116306,,,116 aloud,001,2022_Dec_01_1247,ProdSingRedoBetween,2021.2.3,59.936335624028885,
,,,,118,0,118,0,,,,,,,,,,,,,,,,,,,,,,1585.8975513999994,None,,,,,,,,,,,,,,,,,,drink,12,119,aloud,old,yellow,1580.0757374999994,None,1580.0757374999994,None,3,4.997411000000284,1580.0757374999994,None,4.997411000000284,1585.0973544999997,None,1585.6126599999989,None,1585.6126599999989,None,f,0.2525353000000905,1585.6126599999989,None,0.2525353000000905,,,116 aloud,001,2022_Dec_01_1247,ProdSingRedoBetween,2021.2.3,59.936335624028885,
,,,,119,0,119,0,,,,,,,,,,,,,,,,,,,,,,1588.7673706999994,None,,,,,,,,,,,,,,,,,,fellow,159,120,aloud,new,null,1586.4271188999992,None,1586.4271188999992,None,1,1.766106499999296,1586.4271188999992,None,1.766106499999296,1588.2168745999988,None,1588.7319279999992,None,1588.7319279999992,None,n,0.013559299999542418,1588.7319279999992,None,0.013559299999542418,,,116 aloud,001,2022_Dec_01_1247,ProdSingRedoBetween,2021.2.3,59.936335624028885,
,,,,120,0,120,0,,,,,,,,,,,,,,,,,,,,,,1596.8573373,None,,,,,,,,,,,,,,,,,,trail,31,121,aloud,old,blue,1589.285950399999,None,1589.285950399999,None,6,5.851210400000127,1589.285950399999,None,5.851210400000127,1595.1580379999996,None,1595.6723242999997,None,1595.6723242999997,None,r,1.1608600999988994,1595.6723242999997,None,1.1608600999988994,,,116 aloud,001,2022_Dec_01_1247,ProdSingRedoBetween,2021.2.3,59.936335624028885,
,,,,121,0,121,0,,,,,,,,,,,,,,,,,,,,,,1605.6833917999993,None,,,,,,,,,,,,,,,,,,suggestion,107,122,aloud,new,null,1597.3602388,None,1597.3602388,None,5,7.504833199998757,1597.3602388,None,7.504833199998757,1604.8845929,None,1605.3989710000005,None,1605.3989710000005,None,r,0.26633419999961916,1605.3989710000005,None,0.26633419999961916,,,116 aloud,001,2022_Dec_01_1247,ProdSingRedoBetween,2021.2.3,59.936335624028885,
,,,,122,0,122,0,,,,,,,,,,,,,,,,,,,,,,1609.7212024,None,,,,,,,,,,,,,,,,,,track,101,123,aloud,new,null,1606.1933695999996,None,1606.1933695999996,None,6,2.6560876999992615,1606.1933695999996,None,2.6560876999992615,1608.8790532999992,None,1609.3863695,None,1609.3863695,None,r,0.3027905999988434,1609.3863695,None,0.3027905999988434,,,116 aloud,001,2022_Dec_01_1247,ProdSingRedoBetween,2021.2.3,59.936335624028885,
,,,,123,0,123,0,,,,,,,,,,,,,,,,,,,,,,1612.4406208,None,,,,,,,,,,,,,,,,,,bureau,28,124,aloud,old,yellow,1610.238876899999,None,1610.238876899999,None,6,1.4422479000004387,1610.238876899999,None,1.4422479000004387,1611.7072874999994,None,1612.2226687999992,None,1612.2226687999992,None,r,0.19452950000049896,1612.2226687999992,None,0.19452950000049896,,,116 aloud,001,2022_Dec_01_1247,ProdSingRedoBetween,2021.2.3,59.936335624028885,
,,,,124,0,124,0,,,,,,,,,,,,,,,,,,,,,,1616.3932003999998,None,,,,,,,,,,,,,,,,,,primary,22,125,aloud,old,yellow,1612.9614870000005,None,1612.9614870000005,None,6,2.847716999998738,1612.9614870000005,None,2.847716999998738,1615.8301647999997,None,1616.3432448999993,None,1616.3432448999993,None,r,0.02596599999924365,1616.3432448999993,None,0.02596599999924365,,,116 aloud,001,2022_Dec_01_1247,ProdSingRedoBetween,2021.2.3,59.936335624028885,
,,,,125,0,125,0,,,,,,,,,,,,,,,,,,,,,,1620.3317571999996,None,,,,,,,,,,,,,,,,,,evidence,4,126,aloud,old,yellow,1616.8990723999996,None,1616.8990723999996,None,4,2.7660771000009845,1616.8990723999996,None,2.7660771000009845,1619.7032087999996,None,1620.2132791999993,None,1620.2132791999993,None,r,0.09226920000037353,1620.2132791999993,None,0.09226920000037353,,,116 aloud,001,2022_Dec_01_1247,ProdSingRedoBetween,2021.2.3,59.936335624028885,
,,,,126,0,126,0,,,,,,,,,,,,,,,,,,,,,,1628.3067355999992,None,,,,,,,,,,,,,,,,,,member,14,127,aloud,old,yellow,1620.8325848999993,None,1620.8325848999993,None,3,6.816695400000754,1620.8325848999993,None,6.816695400000754,1627.6727766999993,None,1628.1881013000002,None,1628.1881013000002,None,f,0.10104329999921902,1628.1881013000002,None,0.10104329999921902,,,116 aloud,001,2022_Dec_01_1247,ProdSingRedoBetween,2021.2.3,59.936335624028885,
,,,,127,0,127,0,,,,,,,,,,,,,,,,,,,,,,1634.7128202999993,None,,,,,,,,,,,,,,,,,,graduate,105,128,aloud,new,null,1628.8220540000002,None,1628.8220540000002,None,4,5.083089799998561,1628.8220540000002,None,5.083089799998561,1633.9295671,None,1634.4448479000002,None,1634.4448479000002,None,f,0.23633609999887994,1634.4448479000002,None,0.23633609999887994,,,116 aloud,001,2022_Dec_01_1247,ProdSingRedoBetween,2021.2.3,59.936335624028885,
,,,,128,0,128,0,,,,,,,,,,,,,,,,,,,,,,1637.1484691000005,None,,,,,,,,,,,,,,,,,,tennis,87,129,aloud,old,red,1635.2425934999992,None,1635.2425934999992,None,6,1.2066211999990628,1635.2425934999992,None,1.2066211999990628,1636.4826661999996,None,1636.9976821,None,1636.9976821,None,r,0.13161030000082974,1636.9976821,None,0.13161030000082974,,,116 aloud,001,2022_Dec_01_1247,ProdSingRedoBetween,2021.2.3,59.936335624028885,
,,,,129,0,129,0,,,,,,,,,,,,,,,,,,,,,,1639.651697899999,None,,,,,,,,,,,,,,,,,,industry,63,130,aloud,old,red,1637.6783455999994,None,1637.6783455999994,None,6,1.282786899999337,1637.6783455999994,None,1.282786899999337,1638.9847743999999,None,1639.506688399999,None,1639.506688399999,None,r,0.12666270000045188,1639.506688399999,None,0.12666270000045188,,,116 aloud,001,2022_Dec_01_1247,ProdSingRedoBetween,2021.2.3,59.936335624028885,
,,,,130,0,130,0,,,,,,,,,,,,,,,,,,,,,,1642.8376542999995,None,,,,,,,,,,,,,,,,,,region,85,131,aloud,old,red,1640.1684667999998,None,1640.1684667999998,None,6,1.864813400001367,1640.1684667999998,None,1.864813400001367,1642.0538913,None,1642.5688668000003,None,1642.5688668000003,None,r,0.24848869999914314,1642.5688668000003,None,0.24848869999914314,,,116 aloud,001,2022_Dec_01_1247,ProdSingRedoBetween,2021.2.3,59.936335624028885,
,,,,131,0,131,0,,,,,,,,,,,,,,,,,,,,,,1646.9414161000004,None,,,,,,,,,,,,,,,,,,guide,165,132,aloud,new,null,1643.355189599999,None,1643.355189599999,None,3,2.2140883000010945,1643.355189599999,None,2.2140883000010945,1645.5924541999993,None,1646.1059797999987,None,1646.1059797999987,None,f,0.8153763999998773,1646.1059797999987,None,0.8153763999998773,,,116 aloud,001,2022_Dec_01_1247,ProdSingRedoBetween,2021.2.3,59.936335624028885,
,,,,132,0,132,0,,,,,,,,,,,,,,,,,,,,,,1654.9980522000005,None,,,,,,,,,,,,,,,,,,background,62,133,aloud,old,red,1647.4440854000004,None,1647.4440854000004,None,4,6.933290700000725,1647.4440854000004,None,6.933290700000725,1654.4010483000002,None,1654.915463199999,None,1654.915463199999,None,f,0.05373920000056387,1654.915463199999,None,0.05373920000056387,,,116 aloud,001,2022_Dec_01_1247,ProdSingRedoBetween,2021.2.3,59.936335624028885,
,,,,133,0,133,0,,,,,,,,,,,,,,,,,,,,,,1658.1695985999995,None,,,,,,,,,,,,,,,,,,pressure,174,134,aloud,new,null,1655.5017909999988,None,1655.5017909999988,None,5,1.9873303999993368,1655.5017909999988,None,1.9873303999993368,1657.5230429000003,None,1658.0366145999997,None,1658.0366145999997,None,r,0.10062389999984589,1658.0366145999997,None,0.10062389999984589,,,116 aloud,001,2022_Dec_01_1247,ProdSingRedoBetween,2021.2.3,59.936335624028885,
,,,,134,0,134,0,,,,,,,,,,,,,,,,,,,,,,1662.2569280999996,None,,,,,,,,,,,,,,,,,,contract,142,135,aloud,new,null,1658.6881443999991,None,1658.6881443999991,None,5,2.856987200000731,1658.6881443999991,None,2.856987200000731,1661.5750501000002,None,1662.0889869999992,None,1662.0889869999992,None,r,0.13619180000023334,1662.0889869999992,None,0.13619180000023334,,,116 aloud,001,2022_Dec_01_1247,ProdSingRedoBetween,2021.2.3,59.936335624028885,
,,,,135,0,135,0,,,,,,,,,,,,,,,,,,,,,,1664.7762153000003,None,,,,,,,,,,,,,,,,,,cover,27,136,aloud,old,yellow,1662.7634388999995,None,1662.7634388999995,None,6,1.3817583999989438,1662.7634388999995,None,1.3817583999989438,1664.1769771,None,1664.6915396999993,None,1664.6915396999993,None,r,0.06173750000016298,1664.6915396999993,None,0.06173750000016298,,,116 aloud,001,2022_Dec_01_1247,ProdSingRedoBetween,2021.2.3,59.936335624028885,
,,,,136,0,136,0,,,,,,,,,,,,,,,,,,,,,,1667.1953813,None,,,,,,,,,,,,,,,,,,running,55,137,aloud,old,blue,1665.2775870999994,None,1665.2775870999994,None,6,1.1957884000003105,1665.2775870999994,None,1.1957884000003105,1666.494493799999,None,1666.9946428000003,None,1666.9946428000003,None,r,0.17461679999905755,1666.9946428000003,None,0.17461679999905755,,,116 aloud,001,2022_Dec_01_1247,ProdSingRedoBetween,2021.2.3,59.936335624028885,
,,,,137,0,137,0,,,,,,,,,,,,,,,,,,,,,,1675.7206016,None,,,,,,,,,,,,,,,,,,company,51,138,aloud,old,blue,1667.712698199999,None,1667.712698199999,None,1,6.896901000000071,1667.712698199999,None,6.896901000000071,1674.637461299999,None,1675.1572166000005,None,1675.1572166000005,None,n,0.531948800000464,1675.1572166000005,None,0.531948800000464,,,116 aloud,001,2022_Dec_01_1247,ProdSingRedoBetween,2021.2.3,59.936335624028885,
,,,,138,0,138,0,,,,,,,,,,,,,,,,,,,,,,1679.4087299999992,None,,,,,,,,,,,,,,,,,,disease,48,139,aloud,old,blue,1676.2224167999993,None,1676.2224167999993,None,6,2.4989320000004227,1676.2224167999993,None,2.4989320000004227,1678.7417184000005,None,1679.2660914999997,None,1679.2660914999997,None,r,0.11909779999950842,1679.2660914999997,None,0.11909779999950842,,,116 aloud,001,2022_Dec_01_1247,ProdSingRedoBetween,2021.2.3,59.936335624028885,
,,,,139,0,139,0,,,,,,,,,,,,,,,,,,,,,,1683.1837180999992,None,,,,,,,,,,,,,,,,,,match,36,140,aloud,old,blue,1679.9300160000003,None,1679.9300160000003,None,6,2.6232653000006394,1679.9300160000003,None,2.6232653000006394,1682.579679999999,None,1683.0953778999992,None,1683.0953778999992,None,r,0.06596429999990505,1683.0953778999992,None,0.06596429999990505,,,116 aloud,001,2022_Dec_01_1247,ProdSingRedoBetween,2021.2.3,59.936335624028885,
,,,,140,0,140,0,,,,,,,,,,,,,,,,,,,,,,1685.8806415,None,,,,,,,,,,,,,,,,,,detective,8,141,aloud,old,yellow,1683.7077950999992,None,1683.7077950999992,None,6,1.4454370999992534,1683.7077950999992,None,1.4454370999992534,1685.1812537000005,None,1685.6960304000004,None,1685.6960304000004,None,r,0.1611734999987675,1685.6960304000004,None,0.1611734999987675,,,116 aloud,001,2022_Dec_01_1247,ProdSingRedoBetween,2021.2.3,59.936335624028885,
,,,,141,0,141,0,,,,,,,,,,,,,,,,,,,,,,1688.9960324999993,None,,,,,,,,,,,,,,,,,,season,97,142,aloud,new,null,1686.3907062999988,None,1686.3907062999988,None,6,2.0024768999992375,1686.3907062999988,None,2.0024768999992375,1688.4170021999998,None,1688.9320876000002,None,1688.9320876000002,None,r,0.0209988999995403,1688.9320876000002,None,0.0209988999995403,,,116 aloud,001,2022_Dec_01_1247,ProdSingRedoBetween,2021.2.3,59.936335624028885,
,,,,142,0,142,0,,,,,,,,,,,,,,,,,,,,,,1691.8702302000002,None,,,,,,,,,,,,,,,,,,period,26,143,aloud,old,yellow,1689.5015724000004,None,1689.5015724000004,None,6,1.435756200000469,1689.5015724000004,None,1.435756200000469,1690.9726386000002,None,1691.4849498000003,None,1691.4849498000003,None,r,0.36441439999907743,1691.4849498000003,None,0.36441439999907743,,,116 aloud,001,2022_Dec_01_1247,ProdSingRedoBetween,2021.2.3,59.936335624028885,
,,,,143,0,143,0,,,,,,,,,,,,,,,,,,,,,,1698.222162099999,None,,,,,,,,,,,,,,,,,,pattern,20,144,aloud,old,yellow,1692.3920667999992,None,1692.3920667999992,None,5,5.201038799999878,1692.3920667999992,None,5.201038799999878,1697.6408935,None,1698.1428187000001,None,1698.1428187000001,None,r,0.04239849999976286,1698.1428187000001,None,0.04239849999976286,,,116 aloud,001,2022_Dec_01_1247,ProdSingRedoBetween,2021.2.3,59.936335624028885,
,,,,144,0,144,0,,,,,,,,,,,,,,,,,,,,,,1709.6895891000004,None,,,,,,,,,,,,,,,,,,welcome,56,145,aloud,old,blue,1698.7368303999992,None,1698.7368303999992,None,4,9.10422539999854,1698.7368303999992,None,9.10422539999854,1707.8702157999996,None,1708.3892436999995,None,1708.3892436999995,None,f,1.275955499999327,1708.3892436999995,None,1.275955499999327,,,116 aloud,001,2022_Dec_01_1247,ProdSingRedoBetween,2021.2.3,59.936335624028885,
,,,,145,0,145,0,,,,,,,,,,,,,,,,,,,,,,1715.8776180000004,None,,,,,,,,,,,,,,,,,,leader,143,146,aloud,new,null,1710.2056441000004,None,1710.2056441000004,None,3,4.227710799999841,1710.2056441000004,None,4.227710799999841,1714.4596500999996,None,1714.9767904,None,1714.9767904,None,f,0.8805956000014703,1714.9767904,None,0.8805956000014703,,,116 aloud,001,2022_Dec_01_1247,ProdSingRedoBetween,2021.2.3,59.936335624028885,
,,,,146,0,146,0,,,,,,,,,,,,,,,,,,,,,,1719.2804199000002,None,,,,,,,,,,,,,,,,,,payment,127,147,aloud,new,null,1716.3948605000005,None,1716.3948605000005,None,1,2.2463597999994818,1716.3948605000005,None,2.2463597999994818,1718.6682196000002,None,1719.1795930999997,None,1719.1795930999997,None,n,0.07761969999955909,1719.1795930999997,None,0.07761969999955909,,,116 aloud,001,2022_Dec_01_1247,ProdSingRedoBetween,2021.2.3,59.936335624028885,
,,,,147,0,147,0,,,,,,,,,,,,,,,,,,,,,,1721.850506499999,None,,,,,,,,,,,,,,,,,,turkey,89,148,aloud,old,red,1719.7934368999995,None,1719.7934368999995,None,6,1.311727599999358,1719.7934368999995,None,1.311727599999358,1721.1385790999993,None,1721.6489106999998,None,1721.6489106999998,None,r,0.18430980000084674,1721.6489106999998,None,0.18430980000084674,,,116 aloud,001,2022_Dec_01_1247,ProdSingRedoBetween,2021.2.3,59.936335624028885,
,,,,148,0,148,0,,,,,,,,,,,,,,,,,,,,,,1726.283578999999,None,,,,,,,,,,,,,,,,,,nation,0,149,aloud,old,yellow,1722.3757392999996,None,1722.3757392999996,None,4,2.8255731999997806,1722.3757392999996,None,2.8255731999997806,1725.2213993000005,None,1725.7354515999996,None,1725.7354515999996,None,f,0.5143640999995114,1725.7354515999996,None,0.5143640999995114,,,116 aloud,001,2022_Dec_01_1247,ProdSingRedoBetween,2021.2.3,59.936335624028885,
,,,,149,0,149,0,,,,,,,,,,,,,,,,,,,,,,1730.0936192999998,None,,,,,,,,,,,,,,,,,,message,91,150,aloud,new,null,1726.7965963999995,None,1726.7965963999995,None,1,2.6926707000002352,1726.7965963999995,None,2.6926707000002352,1729.5090760999992,None,1730.0268674,None,1730.0268674,None,n,0.03844260000005306,1730.0268674,None,0.03844260000005306,,,116 aloud,001,2022_Dec_01_1247,ProdSingRedoBetween,2021.2.3,59.936335624028885,
,,,,150,0,150,0,,,,,,,,,,,,,,,,,,,,,,1733.6617549999992,None,,,,,,,,,,,,,,,,,,charter,2,151,aloud,old,yellow,1730.6093013999998,None,1730.6093013999998,None,6,2.255828000001202,1730.6093013999998,None,2.255828000001202,1732.8945870999996,None,1733.4099422,None,1733.4099422,None,r,0.2314580999991449,1733.4099422,None,0.2314580999991449,,,116 aloud,001,2022_Dec_01_1247,ProdSingRedoBetween,2021.2.3,59.936335624028885,
,,,,151,0,151,0,,,,,,,,,,,,,,,,,,,,,,1736.1979367999993,None,,,,,,,,,,,,,,,,,,block,44,152,aloud,old,blue,1734.1788190999996,None,1734.1788190999996,None,6,1.1904231000007712,1734.1788190999996,None,1.1904231000007712,1735.3981896000005,None,1735.9128149999997,None,1735.9128149999997,None,r,0.25638830000025337,1735.9128149999997,None,0.25638830000025337,,,116 aloud,001,2022_Dec_01_1247,ProdSingRedoBetween,2021.2.3,59.936335624028885,
,,,,152,0,152,0,,,,,,,,,,,,,,,,,,,,,,1741.1508890999994,None,,,,,,,,,,,,,,,,,,discovery,23,153,aloud,old,yellow,1736.7153626999989,None,1736.7153626999989,None,4,2.9258692000003066,1736.7153626999989,None,2.9258692000003066,1739.6688161000002,None,1740.1924225999992,None,1740.1924225999992,None,n,0.9369165999996767,1740.1924225999992,None,0.9369165999996767,,,116 aloud,001,2022_Dec_01_1247,ProdSingRedoBetween,2021.2.3,59.936335624028885,
,,,,153,0,153,0,,,,,,,,,,,,,,,,,,,,,,1745.3078145,None,,,,,,,,,,,,,,,,,,route,3,154,aloud,old,yellow,1741.6581879999994,None,1741.6581879999994,None,6,2.9591497000001254,1741.6581879999994,None,2.9591497000001254,1744.6399180999997,None,1745.1579315999988,None,1745.1579315999988,None,r,0.12335560000065016,1745.1579315999988,None,0.12335560000065016,,,116 aloud,001,2022_Dec_01_1247,ProdSingRedoBetween,2021.2.3,59.936335624028885,
,,,,154,0,154,0,,,,,,,,,,,,,,,,,,,,,,1748.1599700999996,None,,,,,,,,,,,,,,,,,,still,162,155,aloud,new,null,1745.8244035999996,None,1745.8244035999996,None,6,1.6408301000010397,1745.8244035999996,None,1.6408301000010397,1747.4942307000001,None,1748.0081104,None,1748.0081104,None,r,0.12905920000048354,1748.0081104,None,0.12905920000048354,,,116 aloud,001,2022_Dec_01_1247,ProdSingRedoBetween,2021.2.3,59.936335624028885,
,,,,155,0,155,0,,,,,,,,,,,,,,,,,,,,,,1752.112532699999,None,,,,,,,,,,,,,,,,,,victory,149,156,aloud,new,null,1748.692252499999,None,1748.692252499999,None,5,2.7810417999990023,1748.692252499999,None,2.7810417999990023,1751.4975417000005,None,1752.0128330999996,None,1752.0128330999996,None,r,0.07648340000014286,1752.0128330999996,None,0.07648340000014286,,,116 aloud,001,2022_Dec_01_1247,ProdSingRedoBetween,2021.2.3,59.936335624028885,
,,,,156,0,156,0,,,,,,,,,,,,,,,,,,,,,,1756.0504437,None,,,,,,,,,,,,,,,,,,piece,171,157,aloud,new,null,1752.6151504999998,None,1752.6151504999998,None,2,2.7701049000006606,1752.6151504999998,None,2.7701049000006606,1755.418828599999,None,1755.932981,None,1755.932981,None,n,0.10048009999991336,1755.932981,None,0.10048009999991336,,,116 aloud,001,2022_Dec_01_1247,ProdSingRedoBetween,2021.2.3,59.936335624028885,
,,,,157,0,157,0,,,,,,,,,,,,,,,,,,,,,,1760.2533576000005,None,,,,,,,,,,,,,,,,,,length,72,158,aloud,old,red,1756.5515247999992,None,1756.5515247999992,None,6,2.1056745999994746,1756.5515247999992,None,2.1056745999994746,1758.6880118999998,None,1759.2086092999998,None,1759.2086092999998,None,r,1.0165424999995594,1759.2086092999998,None,1.0165424999995594,,,116 aloud,001,2022_Dec_01_1247,ProdSingRedoBetween,2021.2.3,59.936335624028885,
,,,,158,0,158,0,,,,,,,,,,,,,,,,,,,,,,1762.9369167000004,None,,,,,,,,,,,,,,,,,,style,82,159,aloud,old,red,1760.773656199999,None,1760.773656199999,None,6,1.5075537000011536,1760.773656199999,None,1.5075537000011536,1762.3079713999996,None,1762.8229716000005,None,1762.8229716000005,None,r,0.0824267999996664,1762.8229716000005,None,0.0824267999996664,,,116 aloud,001,2022_Dec_01_1247,ProdSingRedoBetween,2021.2.3,59.936335624028885,
,,,,159,0,159,0,,,,,,,,,,,,,,,,,,,,,,1768.6964026999995,None,,,,,,,,,,,,,,,,,,interview,120,160,aloud,new,null,1763.450065699999,None,1763.450065699999,None,5,4.271129099999598,1763.450065699999,None,4.271129099999598,1767.7498305999998,None,1768.2627603,None,1768.2627603,None,f,0.41047810000054596,1768.2627603,None,0.41047810000054596,,,116 aloud,001,2022_Dec_01_1247,ProdSingRedoBetween,2021.2.3,59.936335624028885,
,,,,160,0,160,0,,,,,,,,,,,,,,,,,,,,,,1773.4019260999994,None,,,,,,,,,,,,,,,,,,relation,113,161,aloud,new,null,1769.1981469000002,None,1769.1981469000002,None,1,3.4832090999989305,1769.1981469000002,None,3.4832090999989305,1772.7016777999997,None,1773.22271,None,1773.22271,None,n,0.1464923000003182,1773.22271,None,0.1464923000003182,,,116 aloud,001,2022_Dec_01_1247,ProdSingRedoBetween,2021.2.3,59.936335624028885,
,,,,161,0,161,0,,,,,,,,,,,,,,,,,,,,,,1777.021178699999,None,,,,,,,,,,,,,,,,,,clear,59,162,aloud,old,yellow,1773.9180629999992,None,1773.9180629999992,None,6,2.451296999999613,1773.9180629999992,None,2.451296999999613,1776.3885603999988,None,1776.9036292,None,1776.9036292,None,r,0.0977800999989995,1776.9036292,None,0.0977800999989995,,,116 aloud,001,2022_Dec_01_1247,ProdSingRedoBetween,2021.2.3,59.936335624028885,
,,,,162,0,162,0,,,,,,,,,,,,,,,,,,,,,,1780.0746301999989,None,,,,,,,,,,,,,,,,,,working,71,163,aloud,old,red,1777.5251145999991,None,1777.5251145999991,None,6,1.7241460000004736,1777.5251145999991,None,1.7241460000004736,1779.2818967000003,None,1779.7893846999996,None,1779.7893846999996,None,r,0.25986139999986335,1779.7893846999996,None,0.25986139999986335,,,116 aloud,001,2022_Dec_01_1247,ProdSingRedoBetween,2021.2.3,59.936335624028885,
,,,,163,0,163,0,,,,,,,,,,,,,,,,,,,,,,1782.4292874000002,None,,,,,,,,,,,,,,,,,,thick,15,164,aloud,old,yellow,1780.5922492999998,None,1780.5922492999998,None,6,1.14503379999951,1780.5922492999998,None,1.14503379999951,1781.7655388000003,None,1782.283693199999,None,1782.283693199999,None,r,0.11765959999866027,1782.283693199999,None,0.11765959999866027,,,116 aloud,001,2022_Dec_01_1247,ProdSingRedoBetween,2021.2.3,59.936335624028885,
,,,,164,0,164,0,,,,,,,,,,,,,,,,,,,,,,1786.013430699999,None,,,,,,,,,,,,,,,,,,personnel,122,165,aloud,new,null,1782.9451253999996,None,1782.9451253999996,None,1,2.4720723000009457,1782.9451253999996,None,2.4720723000009457,1785.4477798999997,None,1785.962617199999,None,1785.962617199999,None,n,0.022602099999858183,1785.962617199999,None,0.022602099999858183,,,116 aloud,001,2022_Dec_01_1247,ProdSingRedoBetween,2021.2.3,59.936335624028885,
,,,,165,0,165,0,,,,,,,,,,,,,,,,,,,,,,1792.9382382000003,None,,,,,,,,,,,,,,,,,,capital,125,166,aloud,new,null,1786.5157175999993,None,1786.5157175999993,None,5,5.165873699999793,1786.5157175999993,None,5.165873699999793,1791.7048713000004,None,1792.234790999999,None,1792.234790999999,None,r,0.6704788999995799,1792.234790999999,None,0.6704788999995799,,,116 aloud,001,2022_Dec_01_1247,ProdSingRedoBetween,2021.2.3,59.936335624028885,
,,,,166,0,166,0,,,,,,,,,,,,,,,,,,,,,,1795.8531105000002,None,,,,,,,,,,,,,,,,,,level,32,167,aloud,old,blue,1793.4555146000002,None,1793.4555146000002,None,6,1.665846199999578,1793.4555146000002,None,1.665846199999578,1795.1417548999998,None,1795.6558186999991,None,1795.6558186999991,None,r,0.15346059999865247,1795.6558186999991,None,0.15346059999865247,,,116 aloud,001,2022_Dec_01_1247,ProdSingRedoBetween,2021.2.3,59.936335624028885,
,,,,167,0,167,0,,,,,,,,,,,,,,,,,,,,,,1800.2283503999988,None,,,,,,,,,,,,,,,,,,foundation,147,168,aloud,new,null,1796.3583942999994,None,1796.3583942999994,None,1,3.0992255000001023,1796.3583942999994,None,3.0992255000001023,1799.478164,None,1799.9938435000004,None,1799.9938435000004,None,n,0.20741309999903024,1799.9938435000004,None,0.20741309999903024,,,116 aloud,001,2022_Dec_01_1247,ProdSingRedoBetween,2021.2.3,59.936335624028885,
,,,,168,0,168,0,,,,,,,,,,,,,,,,,,,,,,1804.6317696999995,None,,,,,,,,,,,,,,,,,,addition,16,169,aloud,old,yellow,1800.7456433999996,None,1800.7456433999996,None,6,2.511614800001553,1800.7456433999996,None,2.511614800001553,1803.2821521000005,None,1803.7978299999995,None,1803.7978299999995,None,r,0.8034562000011647,1803.7978299999995,None,0.8034562000011647,,,116 aloud,001,2022_Dec_01_1247,ProdSingRedoBetween,2021.2.3,59.936335624028885,
,,,,169,0,169,0,,,,,,,,,,,,,,,,,,,,,,1808.9201508000006,None,,,,,,,,,,,,,,,,,,concern,123,170,aloud,new,null,1805.133312,None,1805.133312,None,4,3.148380599999655,1805.133312,None,3.148380599999655,1808.3030718999998,None,1808.8038380999988,None,1808.8038380999988,None,f,0.09352000000035332,1808.8038380999988,None,0.09352000000035332,,,116 aloud,001,2022_Dec_01_1247,ProdSingRedoBetween,2021.2.3,59.936335624028885,
,,,,170,0,170,0,,,,,,,,,,,,,,,,,,,,,,1812.9412871999994,None,,,,,,,,,,,,,,,,,,position,102,171,aloud,new,null,1809.4222314999988,None,1809.4222314999988,None,5,2.322986299999684,1809.4222314999988,None,2.322986299999684,1811.7739254999997,None,1812.2892233999992,None,1812.2892233999992,None,f,0.6321779999998398,1812.2892233999992,None,0.6321779999998398,,,116 aloud,001,2022_Dec_01_1247,ProdSingRedoBetween,2021.2.3,59.936335624028885,
,,,,171,0,171,0,,,,,,,,,,,,,,,,,,,,,,1816.1605620999999,None,,,,,,,,,,,,,,,,,,watch,24,172,aloud,old,yellow,1813.4587104000002,None,1813.4587104000002,None,6,2.102613500001098,1813.4587104000002,None,2.102613500001098,1815.5936048999993,None,1816.109107799999,None,1816.109107799999,None,r,0.02816529999836348,1816.109107799999,None,0.02816529999836348,,,116 aloud,001,2022_Dec_01_1247,ProdSingRedoBetween,2021.2.3,59.936335624028885,
,,,,172,0,172,0,,,,,,,,,,,,,,,,,,,,,,1818.5633653000004,None,,,,,,,,,,,,,,,,,,narrow,41,173,aloud,old,blue,1816.670308499999,None,1816.670308499999,None,6,1.2669397000008757,1816.670308499999,None,1.2669397000008757,1817.962988899999,None,1818.4787080000006,None,1818.4787080000006,None,r,0.058586299999660696,1818.4787080000006,None,0.058586299999660696,,,116 aloud,001,2022_Dec_01_1247,ProdSingRedoBetween,2021.2.3,59.936335624028885,
,,,,173,0,173,0,,,,,,,,,,,,,,,,,,,,,,1823.301913199999,None,,,,,,,,,,,,,,,,,,material,57,174,aloud,old,blue,1819.0806911,None,1819.0806911,None,6,3.544643299999734,1819.0806911,None,3.544643299999734,1822.651235199999,None,1823.1669392000003,None,1823.1669392000003,None,r,0.11460340000121505,1823.1669392000003,None,0.11460340000121505,,,116 aloud,001,2022_Dec_01_1247,ProdSingRedoBetween,2021.2.3,59.936335624028885,
,,,,174,0,174,0,,,,,,,,,,,,,,,,,,,,,,1827.9895524999993,None,,,,,,,,,,,,,,,,,,crowd,70,175,aloud,old,red,1823.8311577000004,None,1823.8311577000004,None,6,2.610109100000045,1823.8311577000004,None,2.610109100000045,1826.4720005999989,None,1826.9870544999994,None,1826.9870544999994,None,f,0.982495199999903,1826.9870544999994,None,0.982495199999903,,,116 aloud,001,2022_Dec_01_1247,ProdSingRedoBetween,2021.2.3,59.936335624028885,
,,,,175,0,175,0,,,,,,,,,,,,,,,,,,,,,,1835.1782700000003,None,,,,,,,,,,,,,,,,,,solution,168,176,aloud,new,null,1828.5165309000004,None,1828.5165309000004,None,4,5.916523800000505,1828.5165309000004,None,5.916523800000505,1834.4637949999997,None,1834.9782954000002,None,1834.9782954000002,None,f,0.18310330000167596,1834.9782954000002,None,0.18310330000167596,,,116 aloud,001,2022_Dec_01_1247,ProdSingRedoBetween,2021.2.3,59.936335624028885,
