StudyLoop.thisRepN,StudyLoop.thisTrialN,StudyLoop.thisN,StudyLoop.thisIndex,TestLoop.thisRepN,TestLoop.thisTrialN,TestLoop.thisN,TestLoop.thisIndex,textCondition.started,textCondition.stopped,keyCondition.keys,keyCondition.rt,keyCondition.started,keyCondition.stopped,Condition,textWelcome.started,textWelcome.stopped,keyWelcome.keys,keyWelcome.rt,keyWelcome.started,keyWelcome.stopped,textAloud.started,textAloud.stopped,textSilent.started,textSilent.stopped,textSing.started,textSing.stopped,conditional_text.started,conditional_text.stopped,textBlank500.started,textBlank500.stopped,study_word,study_num,study_order,study_type,word_color,textStudy.started,textStudy.stopped,keyStudy.keys,keyStudy.started,keyStudy.stopped,textTestInstructions.started,textTestInstructions.stopped,key_resp_3.keys,key_resp_3.rt,key_resp_3.started,key_resp_3.stopped,test_word,test_num,test_order,test_condition,old_new_test,test_word_original_color,textConf.started,textConf.stopped,textConfScale.started,textConfScale.stopped,keyConf.keys,keyConf.rt,keyConf.started,keyConf.stopped,confidence response time,textTestBlank.started,textTestBlank.stopped,textRKN.started,textRKN.stopped,textRKNScale.started,textRKNScale.stopped,keyRKN.keys,keyRKN.rt,keyRKN.started,keyRKN.stopped,rkn response time,textEnd.started,textEnd.stopped,participant,session,date,expName,psychopyVersion,frameRate,
,,,,,,,,33.26812349999818,None,a,3.7768295999994734,33.26812349999818,None,,,,,,,,,,,,,,,,,,,,,,,,,,,,,,,,,,,,,,,,,,,,,,,,,,,,,,,,,,,,,,118 Silent,001,2022_Dec_01_1533,ProdSingRedoBetween,2021.2.3,59.93069614289097,
,,,,,,,,,,,,,,SilentTest,37.098485799997434,None,space,209.61832629999844,37.098485799997434,None,,,,,,,,,,,,,,,,,,,,,,,,,,,,,,,,,,,,,,,,,,,,,,,,,,,,,,,118 Silent,001,2022_Dec_01_1533,ProdSingRedoBetween,2021.2.3,59.93069614289097,
0,0,0,0,,,,,,,,,,,,,,,,,,37.098485799997434,None,37.098485799997434,None,37.098485799997434,None,37.098485799997434,None,249.2617470999976,None,period,20,1,silent,yellow,247.25135930000033,None,None,247.25135930000033,None,,,,,,,,,,,,,,,,,,,,,,,,,,,,,,,,,,,118 Silent,001,2022_Dec_01_1533,ProdSingRedoBetween,2021.2.3,59.93069614289097,
1,0,1,0,,,,,,,,,,,,,,,,,,,,,,,,,,251.78168430000005,None,council,5,2,silent,yellow,249.76645999999892,None,None,249.76645999999892,None,,,,,,,,,,,,,,,,,,,,,,,,,,,,,,,,,,,118 Silent,001,2022_Dec_01_1533,ProdSingRedoBetween,2021.2.3,59.93069614289097,
2,0,2,0,,,,,,,,,,,,,,,,,,,,,,,,,,254.2839787999983,None,property,66,3,silent,red,252.28501569999935,None,None,252.28501569999935,None,,,,,,,,,,,,,,,,,,,,,,,,,,,,,,,,,,,118 Silent,001,2022_Dec_01_1533,ProdSingRedoBetween,2021.2.3,59.93069614289097,
3,0,3,0,,,,,,,,,,,,,,,,,,,,,,,,,,256.78652819999843,None,fashion,55,4,silent,blue,254.78700169999865,None,None,254.78700169999865,None,,,,,,,,,,,,,,,,,,,,,,,,,,,,,,,,,,,118 Silent,001,2022_Dec_01_1533,ProdSingRedoBetween,2021.2.3,59.93069614289097,
4,0,4,0,,,,,,,,,,,,,,,,,,,,,,,,,,259.3057762999997,None,beauty,65,5,silent,red,257.2905677999988,None,None,257.2905677999988,None,,,,,,,,,,,,,,,,,,,,,,,,,,,,,,,,,,,118 Silent,001,2022_Dec_01_1533,ProdSingRedoBetween,2021.2.3,59.93069614289097,
5,0,5,0,,,,,,,,,,,,,,,,,,,,,,,,,,261.8264743,None,listen,29,6,silent,blue,259.8096951999978,None,None,259.8096951999978,None,,,,,,,,,,,,,,,,,,,,,,,,,,,,,,,,,,,118 Silent,001,2022_Dec_01_1533,ProdSingRedoBetween,2021.2.3,59.93069614289097,
6,0,6,0,,,,,,,,,,,,,,,,,,,,,,,,,,264.3441958000003,None,department,17,7,silent,yellow,262.334991599997,None,None,262.334991599997,None,,,,,,,,,,,,,,,,,,,,,,,,,,,,,,,,,,,118 Silent,001,2022_Dec_01_1533,ProdSingRedoBetween,2021.2.3,59.93069614289097,
7,0,7,0,,,,,,,,,,,,,,,,,,,,,,,,,,266.8466064999993,None,bureau,46,8,silent,blue,264.8443503999988,None,None,264.8443503999988,None,,,,,,,,,,,,,,,,,,,,,,,,,,,,,,,,,,,118 Silent,001,2022_Dec_01_1533,ProdSingRedoBetween,2021.2.3,59.93069614289097,
8,0,8,0,,,,,,,,,,,,,,,,,,,,,,,,,,269.3655962999983,None,symbol,22,9,silent,yellow,267.3506094999975,None,None,267.3506094999975,None,,,,,,,,,,,,,,,,,,,,,,,,,,,,,,,,,,,118 Silent,001,2022_Dec_01_1533,ProdSingRedoBetween,2021.2.3,59.93069614289097,
9,0,9,0,,,,,,,,,,,,,,,,,,,,,,,,,,271.8683146000003,None,surprise,23,10,silent,yellow,269.8666538999969,None,None,269.8666538999969,None,,,,,,,,,,,,,,,,,,,,,,,,,,,,,,,,,,,118 Silent,001,2022_Dec_01_1533,ProdSingRedoBetween,2021.2.3,59.93069614289097,
10,0,10,0,,,,,,,,,,,,,,,,,,,,,,,,,,274.38740159999725,None,title,32,11,silent,blue,272.37332949999836,None,None,272.37332949999836,None,,,,,,,,,,,,,,,,,,,,,,,,,,,,,,,,,,,118 Silent,001,2022_Dec_01_1533,ProdSingRedoBetween,2021.2.3,59.93069614289097,
11,0,11,0,,,,,,,,,,,,,,,,,,,,,,,,,,276.891113499998,None,impact,67,12,silent,red,274.8878908999977,None,None,274.8878908999977,None,,,,,,,,,,,,,,,,,,,,,,,,,,,,,,,,,,,118 Silent,001,2022_Dec_01_1533,ProdSingRedoBetween,2021.2.3,59.93069614289097,
12,0,12,0,,,,,,,,,,,,,,,,,,,,,,,,,,279.4087124999969,None,distance,4,13,silent,yellow,277.3935332000001,None,None,277.3935332000001,None,,,,,,,,,,,,,,,,,,,,,,,,,,,,,,,,,,,118 Silent,001,2022_Dec_01_1533,ProdSingRedoBetween,2021.2.3,59.93069614289097,
13,0,13,0,,,,,,,,,,,,,,,,,,,,,,,,,,281.92829079999865,None,provision,49,14,silent,blue,279.92006489999767,None,None,279.92006489999767,None,,,,,,,,,,,,,,,,,,,,,,,,,,,,,,,,,,,118 Silent,001,2022_Dec_01_1533,ProdSingRedoBetween,2021.2.3,59.93069614289097,
14,0,14,0,,,,,,,,,,,,,,,,,,,,,,,,,,284.4307399999998,None,suspect,36,15,silent,blue,282.4305121999969,None,None,282.4305121999969,None,,,,,,,,,,,,,,,,,,,,,,,,,,,,,,,,,,,118 Silent,001,2022_Dec_01_1533,ProdSingRedoBetween,2021.2.3,59.93069614289097,
15,0,15,0,,,,,,,,,,,,,,,,,,,,,,,,,,286.9499670999976,None,expansion,44,16,silent,blue,284.94362799999726,None,None,284.94362799999726,None,,,,,,,,,,,,,,,,,,,,,,,,,,,,,,,,,,,118 Silent,001,2022_Dec_01_1533,ProdSingRedoBetween,2021.2.3,59.93069614289097,
16,0,16,0,,,,,,,,,,,,,,,,,,,,,,,,,,289.4692228999993,None,executive,53,17,silent,blue,287.4571677999993,None,None,287.4571677999993,None,,,,,,,,,,,,,,,,,,,,,,,,,,,,,,,,,,,118 Silent,001,2022_Dec_01_1533,ProdSingRedoBetween,2021.2.3,59.93069614289097,
17,0,17,0,,,,,,,,,,,,,,,,,,,,,,,,,,291.98837569999887,None,native,6,18,silent,yellow,289.97408469999937,None,None,289.97408469999937,None,,,,,,,,,,,,,,,,,,,,,,,,,,,,,,,,,,,118 Silent,001,2022_Dec_01_1533,ProdSingRedoBetween,2021.2.3,59.93069614289097,
18,0,18,0,,,,,,,,,,,,,,,,,,,,,,,,,,294.50750199999675,None,household,83,19,silent,red,292.4965959999972,None,None,292.4965959999972,None,,,,,,,,,,,,,,,,,,,,,,,,,,,,,,,,,,,118 Silent,001,2022_Dec_01_1533,ProdSingRedoBetween,2021.2.3,59.93069614289097,
19,0,19,0,,,,,,,,,,,,,,,,,,,,,,,,,,297.0099844999968,None,silence,37,20,silent,blue,295.0092420000001,None,None,295.0092420000001,None,,,,,,,,,,,,,,,,,,,,,,,,,,,,,,,,,,,118 Silent,001,2022_Dec_01_1533,ProdSingRedoBetween,2021.2.3,59.93069614289097,
20,0,20,0,,,,,,,,,,,,,,,,,,,,,,,,,,299.51255749999837,None,contract,10,21,silent,yellow,297.51172849999784,None,None,297.51172849999784,None,,,,,,,,,,,,,,,,,,,,,,,,,,,,,,,,,,,118 Silent,001,2022_Dec_01_1533,ProdSingRedoBetween,2021.2.3,59.93069614289097,
21,0,21,0,,,,,,,,,,,,,,,,,,,,,,,,,,302.03168209999785,None,century,79,22,silent,red,300.02110639999955,None,None,300.02110639999955,None,,,,,,,,,,,,,,,,,,,,,,,,,,,,,,,,,,,118 Silent,001,2022_Dec_01_1533,ProdSingRedoBetween,2021.2.3,59.93069614289097,
22,0,22,0,,,,,,,,,,,,,,,,,,,,,,,,,,304.53429349999715,None,union,21,23,silent,yellow,302.53219669999817,None,None,302.53219669999817,None,,,,,,,,,,,,,,,,,,,,,,,,,,,,,,,,,,,118 Silent,001,2022_Dec_01_1533,ProdSingRedoBetween,2021.2.3,59.93069614289097,
23,0,23,0,,,,,,,,,,,,,,,,,,,,,,,,,,307.05350929999986,None,broke,24,24,silent,yellow,305.0386007999987,None,None,305.0386007999987,None,,,,,,,,,,,,,,,,,,,,,,,,,,,,,,,,,,,118 Silent,001,2022_Dec_01_1533,ProdSingRedoBetween,2021.2.3,59.93069614289097,
24,0,24,0,,,,,,,,,,,,,,,,,,,,,,,,,,309.55550369999764,None,search,60,25,silent,red,307.55532019999737,None,None,307.55532019999737,None,,,,,,,,,,,,,,,,,,,,,,,,,,,,,,,,,,,118 Silent,001,2022_Dec_01_1533,ProdSingRedoBetween,2021.2.3,59.93069614289097,
25,0,25,0,,,,,,,,,,,,,,,,,,,,,,,,,,312.07498940000005,None,threat,18,26,silent,yellow,310.06395789999806,None,None,310.06395789999806,None,,,,,,,,,,,,,,,,,,,,,,,,,,,,,,,,,,,118 Silent,001,2022_Dec_01_1533,ProdSingRedoBetween,2021.2.3,59.93069614289097,
26,0,26,0,,,,,,,,,,,,,,,,,,,,,,,,,,314.5942963999987,None,trash,69,27,silent,red,312.5847861999973,None,None,312.5847861999973,None,,,,,,,,,,,,,,,,,,,,,,,,,,,,,,,,,,,118 Silent,001,2022_Dec_01_1533,ProdSingRedoBetween,2021.2.3,59.93069614289097,
27,0,27,0,,,,,,,,,,,,,,,,,,,,,,,,,,317.09677889999875,None,author,82,28,silent,red,315.09613979999995,None,None,315.09613979999995,None,,,,,,,,,,,,,,,,,,,,,,,,,,,,,,,,,,,118 Silent,001,2022_Dec_01_1533,ProdSingRedoBetween,2021.2.3,59.93069614289097,
28,0,28,0,,,,,,,,,,,,,,,,,,,,,,,,,,319.6160146999973,None,treatment,62,29,silent,red,317.6025262999974,None,None,317.6025262999974,None,,,,,,,,,,,,,,,,,,,,,,,,,,,,,,,,,,,118 Silent,001,2022_Dec_01_1533,ProdSingRedoBetween,2021.2.3,59.93069614289097,
29,0,29,0,,,,,,,,,,,,,,,,,,,,,,,,,,322.1351219999997,None,drove,85,30,silent,red,320.1223121999974,None,None,320.1223121999974,None,,,,,,,,,,,,,,,,,,,,,,,,,,,,,,,,,,,118 Silent,001,2022_Dec_01_1533,ProdSingRedoBetween,2021.2.3,59.93069614289097,
30,0,30,0,,,,,,,,,,,,,,,,,,,,,,,,,,324.63762399999905,None,science,81,31,silent,red,322.6373019999992,None,None,322.6373019999992,None,,,,,,,,,,,,,,,,,,,,,,,,,,,,,,,,,,,118 Silent,001,2022_Dec_01_1533,ProdSingRedoBetween,2021.2.3,59.93069614289097,
31,0,31,0,,,,,,,,,,,,,,,,,,,,,,,,,,327.13985390000016,None,plane,26,32,silent,yellow,325.14086269999825,None,None,325.14086269999825,None,,,,,,,,,,,,,,,,,,,,,,,,,,,,,,,,,,,118 Silent,001,2022_Dec_01_1533,ProdSingRedoBetween,2021.2.3,59.93069614289097,
32,0,32,0,,,,,,,,,,,,,,,,,,,,,,,,,,329.64264600000024,None,exchange,48,33,silent,blue,327.6427812000002,None,None,327.6427812000002,None,,,,,,,,,,,,,,,,,,,,,,,,,,,,,,,,,,,118 Silent,001,2022_Dec_01_1533,ProdSingRedoBetween,2021.2.3,59.93069614289097,
33,0,33,0,,,,,,,,,,,,,,,,,,,,,,,,,,332.16179029999694,None,rural,28,34,silent,yellow,330.1469589999979,None,None,330.1469589999979,None,,,,,,,,,,,,,,,,,,,,,,,,,,,,,,,,,,,118 Silent,001,2022_Dec_01_1533,ProdSingRedoBetween,2021.2.3,59.93069614289097,
34,0,34,0,,,,,,,,,,,,,,,,,,,,,,,,,,334.6809936999998,None,revolution,14,35,silent,yellow,332.6675819999982,None,None,332.6675819999982,None,,,,,,,,,,,,,,,,,,,,,,,,,,,,,,,,,,,118 Silent,001,2022_Dec_01_1533,ProdSingRedoBetween,2021.2.3,59.93069614289097,
35,0,35,0,,,,,,,,,,,,,,,,,,,,,,,,,,337.20035449999705,None,salary,13,36,silent,yellow,335.19131259999995,None,None,335.19131259999995,None,,,,,,,,,,,,,,,,,,,,,,,,,,,,,,,,,,,118 Silent,001,2022_Dec_01_1533,ProdSingRedoBetween,2021.2.3,59.93069614289097,
36,0,36,0,,,,,,,,,,,,,,,,,,,,,,,,,,339.7023386000001,None,group,59,37,silent,yellow,337.70065780000004,None,None,337.70065780000004,None,,,,,,,,,,,,,,,,,,,,,,,,,,,,,,,,,,,118 Silent,001,2022_Dec_01_1533,ProdSingRedoBetween,2021.2.3,59.93069614289097,
37,0,37,0,,,,,,,,,,,,,,,,,,,,,,,,,,342.20517180000024,None,nature,61,38,silent,red,340.20313089999763,None,None,340.20313089999763,None,,,,,,,,,,,,,,,,,,,,,,,,,,,,,,,,,,,118 Silent,001,2022_Dec_01_1533,ProdSingRedoBetween,2021.2.3,59.93069614289097,
38,0,38,0,,,,,,,,,,,,,,,,,,,,,,,,,,344.72439609999856,None,hearing,15,39,silent,yellow,342.7134961999982,None,None,342.7134961999982,None,,,,,,,,,,,,,,,,,,,,,,,,,,,,,,,,,,,118 Silent,001,2022_Dec_01_1533,ProdSingRedoBetween,2021.2.3,59.93069614289097,
39,0,39,0,,,,,,,,,,,,,,,,,,,,,,,,,,347.24361339999814,None,quantity,8,40,silent,yellow,345.23053419999997,None,None,345.23053419999997,None,,,,,,,,,,,,,,,,,,,,,,,,,,,,,,,,,,,118 Silent,001,2022_Dec_01_1533,ProdSingRedoBetween,2021.2.3,59.93069614289097,
40,0,40,0,,,,,,,,,,,,,,,,,,,,,,,,,,349.7461559999974,None,chief,7,41,silent,yellow,347.7470463999998,None,None,347.7470463999998,None,,,,,,,,,,,,,,,,,,,,,,,,,,,,,,,,,,,118 Silent,001,2022_Dec_01_1533,ProdSingRedoBetween,2021.2.3,59.93069614289097,
41,0,41,0,,,,,,,,,,,,,,,,,,,,,,,,,,352.2652675999998,None,general,52,42,silent,blue,350.2511846999987,None,None,350.2511846999987,None,,,,,,,,,,,,,,,,,,,,,,,,,,,,,,,,,,,118 Silent,001,2022_Dec_01_1533,ProdSingRedoBetween,2021.2.3,59.93069614289097,
42,0,42,0,,,,,,,,,,,,,,,,,,,,,,,,,,354.7844492999975,None,gesture,68,43,silent,red,352.777987999998,None,None,352.777987999998,None,,,,,,,,,,,,,,,,,,,,,,,,,,,,,,,,,,,118 Silent,001,2022_Dec_01_1533,ProdSingRedoBetween,2021.2.3,59.93069614289097,
43,0,43,0,,,,,,,,,,,,,,,,,,,,,,,,,,357.28694189999806,None,oxygen,42,44,silent,blue,355.2866643999987,None,None,355.2866643999987,None,,,,,,,,,,,,,,,,,,,,,,,,,,,,,,,,,,,118 Silent,001,2022_Dec_01_1533,ProdSingRedoBetween,2021.2.3,59.93069614289097,
44,0,44,0,,,,,,,,,,,,,,,,,,,,,,,,,,359.8062085999991,None,poetry,89,45,silent,red,357.7907559999985,None,None,357.7907559999985,None,,,,,,,,,,,,,,,,,,,,,,,,,,,,,,,,,,,118 Silent,001,2022_Dec_01_1533,ProdSingRedoBetween,2021.2.3,59.93069614289097,
45,0,45,0,,,,,,,,,,,,,,,,,,,,,,,,,,362.3086098999993,None,season,38,46,silent,blue,360.30954589999965,None,None,360.30954589999965,None,,,,,,,,,,,,,,,,,,,,,,,,,,,,,,,,,,,118 Silent,001,2022_Dec_01_1533,ProdSingRedoBetween,2021.2.3,59.93069614289097,
46,0,46,0,,,,,,,,,,,,,,,,,,,,,,,,,,364.8278580999977,None,division,78,47,silent,red,362.82050399999935,None,None,362.82050399999935,None,,,,,,,,,,,,,,,,,,,,,,,,,,,,,,,,,,,118 Silent,001,2022_Dec_01_1533,ProdSingRedoBetween,2021.2.3,59.93069614289097,
47,0,47,0,,,,,,,,,,,,,,,,,,,,,,,,,,367.3469755999977,None,equipment,56,48,silent,blue,365.33520879999924,None,None,365.33520879999924,None,,,,,,,,,,,,,,,,,,,,,,,,,,,,,,,,,,,118 Silent,001,2022_Dec_01_1533,ProdSingRedoBetween,2021.2.3,59.93069614289097,
48,0,48,0,,,,,,,,,,,,,,,,,,,,,,,,,,369.86594889999833,None,south,19,49,silent,yellow,367.8528692999971,None,None,367.8528692999971,None,,,,,,,,,,,,,,,,,,,,,,,,,,,,,,,,,,,118 Silent,001,2022_Dec_01_1533,ProdSingRedoBetween,2021.2.3,59.93069614289097,
49,0,49,0,,,,,,,,,,,,,,,,,,,,,,,,,,372.3853163999993,None,prime,63,50,silent,red,370.3727144999975,None,None,370.3727144999975,None,,,,,,,,,,,,,,,,,,,,,,,,,,,,,,,,,,,118 Silent,001,2022_Dec_01_1533,ProdSingRedoBetween,2021.2.3,59.93069614289097,
50,0,50,0,,,,,,,,,,,,,,,,,,,,,,,,,,374.88791649999985,None,principal,47,51,silent,blue,372.8858310999967,None,None,372.8858310999967,None,,,,,,,,,,,,,,,,,,,,,,,,,,,,,,,,,,,118 Silent,001,2022_Dec_01_1533,ProdSingRedoBetween,2021.2.3,59.93069614289097,
51,0,51,0,,,,,,,,,,,,,,,,,,,,,,,,,,377.4071941000002,None,trail,34,52,silent,blue,375.3918472999976,None,None,375.3918472999976,None,,,,,,,,,,,,,,,,,,,,,,,,,,,,,,,,,,,118 Silent,001,2022_Dec_01_1533,ProdSingRedoBetween,2021.2.3,59.93069614289097,
52,0,52,0,,,,,,,,,,,,,,,,,,,,,,,,,,379.90958079999837,None,finance,0,53,silent,yellow,377.9075247999972,None,None,377.9075247999972,None,,,,,,,,,,,,,,,,,,,,,,,,,,,,,,,,,,,118 Silent,001,2022_Dec_01_1533,ProdSingRedoBetween,2021.2.3,59.93069614289097,
53,0,53,0,,,,,,,,,,,,,,,,,,,,,,,,,,382.4120742999985,None,color,74,54,silent,red,380.41165419999743,None,None,380.41165419999743,None,,,,,,,,,,,,,,,,,,,,,,,,,,,,,,,,,,,118 Silent,001,2022_Dec_01_1533,ProdSingRedoBetween,2021.2.3,59.93069614289097,
54,0,54,0,,,,,,,,,,,,,,,,,,,,,,,,,,384.93131859999994,None,republic,16,55,silent,yellow,382.91763549999814,None,None,382.91763549999814,None,,,,,,,,,,,,,,,,,,,,,,,,,,,,,,,,,,,118 Silent,001,2022_Dec_01_1533,ProdSingRedoBetween,2021.2.3,59.93069614289097,
55,0,55,0,,,,,,,,,,,,,,,,,,,,,,,,,,387.4505070999985,None,appearance,77,56,silent,red,385.43595979999736,None,None,385.43595979999736,None,,,,,,,,,,,,,,,,,,,,,,,,,,,,,,,,,,,118 Silent,001,2022_Dec_01_1533,ProdSingRedoBetween,2021.2.3,59.93069614289097,
56,0,56,0,,,,,,,,,,,,,,,,,,,,,,,,,,389.95293440000023,None,drama,11,57,silent,yellow,387.95259239999723,None,None,387.95259239999723,None,,,,,,,,,,,,,,,,,,,,,,,,,,,,,,,,,,,118 Silent,001,2022_Dec_01_1533,ProdSingRedoBetween,2021.2.3,59.93069614289097,
57,0,57,0,,,,,,,,,,,,,,,,,,,,,,,,,,392.4722036999992,None,watch,3,58,silent,yellow,390.4644585999995,None,None,390.4644585999995,None,,,,,,,,,,,,,,,,,,,,,,,,,,,,,,,,,,,118 Silent,001,2022_Dec_01_1533,ProdSingRedoBetween,2021.2.3,59.93069614289097,
58,0,58,0,,,,,,,,,,,,,,,,,,,,,,,,,,394.97459359999993,None,income,41,59,silent,blue,392.97256539999944,None,None,392.97256539999944,None,,,,,,,,,,,,,,,,,,,,,,,,,,,,,,,,,,,118 Silent,001,2022_Dec_01_1533,ProdSingRedoBetween,2021.2.3,59.93069614289097,
59,0,59,0,,,,,,,,,,,,,,,,,,,,,,,,,,397.4939820999971,None,weight,54,60,silent,blue,395.4787286999999,None,None,395.4787286999999,None,,,,,,,,,,,,,,,,,,,,,,,,,,,,,,,,,,,118 Silent,001,2022_Dec_01_1533,ProdSingRedoBetween,2021.2.3,59.93069614289097,
60,0,60,0,,,,,,,,,,,,,,,,,,,,,,,,,,400.01299629999994,None,instrument,30,61,silent,blue,397.9998624999971,None,None,397.9998624999971,None,,,,,,,,,,,,,,,,,,,,,,,,,,,,,,,,,,,118 Silent,001,2022_Dec_01_1533,ProdSingRedoBetween,2021.2.3,59.93069614289097,
61,0,61,0,,,,,,,,,,,,,,,,,,,,,,,,,,402.5154713999982,None,minor,84,62,silent,red,400.51640099999713,None,None,400.51640099999713,None,,,,,,,,,,,,,,,,,,,,,,,,,,,,,,,,,,,118 Silent,001,2022_Dec_01_1533,ProdSingRedoBetween,2021.2.3,59.93069614289097,
62,0,62,0,,,,,,,,,,,,,,,,,,,,,,,,,,405.03462379999837,None,sweet,86,63,silent,red,403.0190649999968,None,None,403.0190649999968,None,,,,,,,,,,,,,,,,,,,,,,,,,,,,,,,,,,,118 Silent,001,2022_Dec_01_1533,ProdSingRedoBetween,2021.2.3,59.93069614289097,
63,0,63,0,,,,,,,,,,,,,,,,,,,,,,,,,,407.5371519,None,guide,76,64,silent,red,405.535771699997,None,None,405.535771699997,None,,,,,,,,,,,,,,,,,,,,,,,,,,,,,,,,,,,118 Silent,001,2022_Dec_01_1533,ProdSingRedoBetween,2021.2.3,59.93069614289097,
64,0,64,0,,,,,,,,,,,,,,,,,,,,,,,,,,410.05642179999995,None,reading,40,65,silent,blue,408.0409304999994,None,None,408.0409304999994,None,,,,,,,,,,,,,,,,,,,,,,,,,,,,,,,,,,,118 Silent,001,2022_Dec_01_1533,ProdSingRedoBetween,2021.2.3,59.93069614289097,
65,0,65,0,,,,,,,,,,,,,,,,,,,,,,,,,,412.5588607999998,None,stand,73,66,silent,red,410.5569216999975,None,None,410.5569216999975,None,,,,,,,,,,,,,,,,,,,,,,,,,,,,,,,,,,,118 Silent,001,2022_Dec_01_1533,ProdSingRedoBetween,2021.2.3,59.93069614289097,
66,0,66,0,,,,,,,,,,,,,,,,,,,,,,,,,,415.06137169999784,None,scene,57,67,silent,blue,413.06147280000005,None,None,413.06147280000005,None,,,,,,,,,,,,,,,,,,,,,,,,,,,,,,,,,,,118 Silent,001,2022_Dec_01_1533,ProdSingRedoBetween,2021.2.3,59.93069614289097,
67,0,67,0,,,,,,,,,,,,,,,,,,,,,,,,,,417.5638265999987,None,staff,35,68,silent,blue,415.56443229999786,None,None,415.56443229999786,None,,,,,,,,,,,,,,,,,,,,,,,,,,,,,,,,,,,118 Silent,001,2022_Dec_01_1533,ProdSingRedoBetween,2021.2.3,59.93069614289097,
68,0,68,0,,,,,,,,,,,,,,,,,,,,,,,,,,420.0830496999988,None,discussion,31,69,silent,blue,418.0710035999982,None,None,418.0710035999982,None,,,,,,,,,,,,,,,,,,,,,,,,,,,,,,,,,,,118 Silent,001,2022_Dec_01_1533,ProdSingRedoBetween,2021.2.3,59.93069614289097,
69,0,69,0,,,,,,,,,,,,,,,,,,,,,,,,,,422.5856440999996,None,length,9,70,silent,yellow,420.5844524999993,None,None,420.5844524999993,None,,,,,,,,,,,,,,,,,,,,,,,,,,,,,,,,,,,118 Silent,001,2022_Dec_01_1533,ProdSingRedoBetween,2021.2.3,59.93069614289097,
70,0,70,0,,,,,,,,,,,,,,,,,,,,,,,,,,425.1046948999974,None,individual,58,71,silent,blue,423.0917156999967,None,None,423.0917156999967,None,,,,,,,,,,,,,,,,,,,,,,,,,,,,,,,,,,,118 Silent,001,2022_Dec_01_1533,ProdSingRedoBetween,2021.2.3,59.93069614289097,
71,0,71,0,,,,,,,,,,,,,,,,,,,,,,,,,,427.623913899999,None,light,64,72,silent,red,425.61461229999986,None,None,425.61461229999986,None,,,,,,,,,,,,,,,,,,,,,,,,,,,,,,,,,,,118 Silent,001,2022_Dec_01_1533,ProdSingRedoBetween,2021.2.3,59.93069614289097,
72,0,72,0,,,,,,,,,,,,,,,,,,,,,,,,,,430.1264100999979,None,sleep,88,73,silent,red,428.1262313999978,None,None,428.1262313999978,None,,,,,,,,,,,,,,,,,,,,,,,,,,,,,,,,,,,118 Silent,001,2022_Dec_01_1533,ProdSingRedoBetween,2021.2.3,59.93069614289097,
73,0,73,0,,,,,,,,,,,,,,,,,,,,,,,,,,432.62893469999835,None,store,12,74,silent,yellow,430.62660689999757,None,None,430.62660689999757,None,,,,,,,,,,,,,,,,,,,,,,,,,,,,,,,,,,,118 Silent,001,2022_Dec_01_1533,ProdSingRedoBetween,2021.2.3,59.93069614289097,
74,0,74,0,,,,,,,,,,,,,,,,,,,,,,,,,,435.1480644999974,None,capital,1,75,silent,yellow,433.1331253999997,None,None,433.1331253999997,None,,,,,,,,,,,,,,,,,,,,,,,,,,,,,,,,,,,118 Silent,001,2022_Dec_01_1533,ProdSingRedoBetween,2021.2.3,59.93069614289097,
75,0,75,0,,,,,,,,,,,,,,,,,,,,,,,,,,437.6525985999979,None,track,39,76,silent,blue,435.6486281999969,None,None,435.6486281999969,None,,,,,,,,,,,,,,,,,,,,,,,,,,,,,,,,,,,118 Silent,001,2022_Dec_01_1533,ProdSingRedoBetween,2021.2.3,59.93069614289097,
76,0,76,0,,,,,,,,,,,,,,,,,,,,,,,,,,440.1696796999968,None,region,50,77,silent,blue,438.1675886999983,None,None,438.1675886999983,None,,,,,,,,,,,,,,,,,,,,,,,,,,,,,,,,,,,118 Silent,001,2022_Dec_01_1533,ProdSingRedoBetween,2021.2.3,59.93069614289097,
77,0,77,0,,,,,,,,,,,,,,,,,,,,,,,,,,442.68893209999806,None,travel,27,78,silent,yellow,440.67936649999683,None,None,440.67936649999683,None,,,,,,,,,,,,,,,,,,,,,,,,,,,,,,,,,,,118 Silent,001,2022_Dec_01_1533,ProdSingRedoBetween,2021.2.3,59.93069614289097,
78,0,78,0,,,,,,,,,,,,,,,,,,,,,,,,,,445.191450899998,None,sunset,2,79,silent,yellow,443.19244909999907,None,None,443.19244909999907,None,,,,,,,,,,,,,,,,,,,,,,,,,,,,,,,,,,,118 Silent,001,2022_Dec_01_1533,ProdSingRedoBetween,2021.2.3,59.93069614289097,
79,0,79,0,,,,,,,,,,,,,,,,,,,,,,,,,,447.7106352999981,None,death,70,80,silent,red,445.6994530999982,None,None,445.6994530999982,None,,,,,,,,,,,,,,,,,,,,,,,,,,,,,,,,,,,118 Silent,001,2022_Dec_01_1533,ProdSingRedoBetween,2021.2.3,59.93069614289097,
80,0,80,0,,,,,,,,,,,,,,,,,,,,,,,,,,450.21314009999696,None,short,71,81,silent,red,448.2115292999988,None,None,448.2115292999988,None,,,,,,,,,,,,,,,,,,,,,,,,,,,,,,,,,,,118 Silent,001,2022_Dec_01_1533,ProdSingRedoBetween,2021.2.3,59.93069614289097,
81,0,81,0,,,,,,,,,,,,,,,,,,,,,,,,,,452.7323804999978,None,smell,80,82,silent,red,450.7179493000003,None,None,450.7179493000003,None,,,,,,,,,,,,,,,,,,,,,,,,,,,,,,,,,,,118 Silent,001,2022_Dec_01_1533,ProdSingRedoBetween,2021.2.3,59.93069614289097,
82,0,82,0,,,,,,,,,,,,,,,,,,,,,,,,,,455.25159189999977,None,force,43,83,silent,blue,453.2372880999974,None,None,453.2372880999974,None,,,,,,,,,,,,,,,,,,,,,,,,,,,,,,,,,,,118 Silent,001,2022_Dec_01_1533,ProdSingRedoBetween,2021.2.3,59.93069614289097,
83,0,83,0,,,,,,,,,,,,,,,,,,,,,,,,,,457.75400089999675,None,front,25,84,silent,yellow,455.75207070000033,None,None,455.75207070000033,None,,,,,,,,,,,,,,,,,,,,,,,,,,,,,,,,,,,118 Silent,001,2022_Dec_01_1533,ProdSingRedoBetween,2021.2.3,59.93069614289097,
84,0,84,0,,,,,,,,,,,,,,,,,,,,,,,,,,460.2564766999967,None,growth,87,85,silent,red,458.2566248999974,None,None,458.2566248999974,None,,,,,,,,,,,,,,,,,,,,,,,,,,,,,,,,,,,118 Silent,001,2022_Dec_01_1533,ProdSingRedoBetween,2021.2.3,59.93069614289097,
85,0,85,0,,,,,,,,,,,,,,,,,,,,,,,,,,462.75883879999674,None,permit,72,86,silent,red,460.75669729999936,None,None,460.75669729999936,None,,,,,,,,,,,,,,,,,,,,,,,,,,,,,,,,,,,118 Silent,001,2022_Dec_01_1533,ProdSingRedoBetween,2021.2.3,59.93069614289097,
86,0,86,0,,,,,,,,,,,,,,,,,,,,,,,,,,465.2615064999991,None,clean,45,87,silent,blue,463.25980929999787,None,None,463.25980929999787,None,,,,,,,,,,,,,,,,,,,,,,,,,,,,,,,,,,,118 Silent,001,2022_Dec_01_1533,ProdSingRedoBetween,2021.2.3,59.93069614289097,
87,0,87,0,,,,,,,,,,,,,,,,,,,,,,,,,,467.76399689999744,None,curve,51,88,silent,blue,465.76482479999686,None,None,465.76482479999686,None,,,,,,,,,,,,,,,,,,,,,,,,,,,,,,,,,,,118 Silent,001,2022_Dec_01_1533,ProdSingRedoBetween,2021.2.3,59.93069614289097,
88,0,88,0,,,,,,,,,,,,,,,,,,,,,,,,,,470.2665663999978,None,disease,75,89,silent,red,468.267268399999,None,None,468.267268399999,None,,,,,,,,,,,,,,,,,,,,,,,,,,,,,,,,,,,118 Silent,001,2022_Dec_01_1533,ProdSingRedoBetween,2021.2.3,59.93069614289097,
89,0,89,0,,,,,,,,,,,,,,,,,,,,,,,,,,472.785740299998,None,space,33,90,silent,blue,470.77121599999737,None,None,470.77121599999737,None,,,,,,,,,,,,,,,,,,,,,,,,,,,,,,,,,,,118 Silent,001,2022_Dec_01_1533,ProdSingRedoBetween,2021.2.3,59.93069614289097,
,,,,,,,,,,,,,,,,,,,,,,,,,,,,,,,,,,,,,,,,,473.2864120999984,None,k,183.29479400000127,473.2864120999984,None,,,,,,,,,,,,,,,,,,,,,,,,,,,,,118 Silent,001,2022_Dec_01_1533,ProdSingRedoBetween,2021.2.3,59.93069614289097,
,,,,0,0,0,0,,,,,,,,,,,,,,,,,,,,,,666.6960913999974,None,,,,,,,,,,,,,,,,,literature,100,1,silent,new,null,657.1132835999997,None,657.1132835999997,None,6,6.035805399998935,657.1132835999997,None,6.035805399998935,663.1810718999986,None,663.7075413999992,None,663.7075413999992,None,r,2.9614752999987104,663.7075413999992,None,2.9614752999987104,,,118 Silent,001,2022_Dec_01_1533,ProdSingRedoBetween,2021.2.3,59.93069614289097,
,,,,1,0,1,0,,,,,,,,,,,,,,,,,,,,,,674.9058108999998,None,,,,,,,,,,,,,,,,,clean,45,2,silent,old,blue,667.2098423999996,None,667.2098423999996,None,4,5.56325470000229,667.2098423999996,None,5.56325470000229,672.8134885,None,673.3296601999973,None,673.3296601999973,None,r,1.5474003999988781,673.3296601999973,None,1.5474003999988781,,,118 Silent,001,2022_Dec_01_1533,ProdSingRedoBetween,2021.2.3,59.93069614289097,
,,,,2,0,2,0,,,,,,,,,,,,,,,,,,,,,,683.2458733999993,None,,,,,,,,,,,,,,,,,birth,143,3,silent,new,null,675.4149092999978,None,675.4149092999978,None,6,6.310213799999474,675.4149092999978,None,6.310213799999474,681.7477831999968,None,682.2700059999988,None,682.2700059999988,None,r,0.9510895000021264,682.2700059999988,None,0.9510895000021264,,,118 Silent,001,2022_Dec_01_1533,ProdSingRedoBetween,2021.2.3,59.93069614289097,
,,,,3,0,3,0,,,,,,,,,,,,,,,,,,,,,,688.8682468999978,None,,,,,,,,,,,,,,,,,orchestra,113,4,silent,new,null,683.7609687999975,None,683.7609687999975,None,5,3.7881248999983654,683.7609687999975,None,3.7881248999983654,687.5684082999978,None,688.0721586,None,688.0721586,None,r,0.7809000999986893,688.0721586,None,0.7809000999986893,,,118 Silent,001,2022_Dec_01_1533,ProdSingRedoBetween,2021.2.3,59.93069614289097,
,,,,4,0,4,0,,,,,,,,,,,,,,,,,,,,,,691.8554207999987,None,,,,,,,,,,,,,,,,,reading,40,5,silent,old,blue,689.3764195999975,None,689.3764195999975,None,6,1.2689835999990464,689.3764195999975,None,1.2689835999990464,690.6775160999969,None,691.1874087999968,None,691.1874087999968,None,r,0.6416478999999526,691.1874087999968,None,0.6416478999999526,,,118 Silent,001,2022_Dec_01_1533,ProdSingRedoBetween,2021.2.3,59.93069614289097,
,,,,5,0,5,0,,,,,,,,,,,,,,,,,,,,,,699.0283052999985,None,,,,,,,,,,,,,,,,,short,71,6,silent,old,red,692.3574738999996,None,692.3574738999996,None,6,5.071857400002045,692.3574738999996,None,5.071857400002045,697.4687236999998,None,697.9774378000002,None,697.9774378000002,None,r,1.0357277000002796,697.9774378000002,None,1.0357277000002796,,,118 Silent,001,2022_Dec_01_1533,ProdSingRedoBetween,2021.2.3,59.93069614289097,
,,,,6,0,6,0,,,,,,,,,,,,,,,,,,,,,,702.5318948999993,None,,,,,,,,,,,,,,,,,place,124,7,silent,new,null,699.5360479999981,None,699.5360479999981,None,6,1.5492303999999422,699.5360479999981,None,1.5492303999999422,701.1227885999979,None,701.6309844999996,None,701.6309844999996,None,r,0.8780867000023136,701.6309844999996,None,0.8780867000023136,,,118 Silent,001,2022_Dec_01_1533,ProdSingRedoBetween,2021.2.3,59.93069614289097,
,,,,7,0,7,0,,,,,,,,,,,,,,,,,,,,,,708.6896472999979,None,,,,,,,,,,,,,,,,,burden,101,8,silent,new,null,703.0432619999992,None,703.0432619999992,None,5,4.2897916000001715,703.0432619999992,None,4.2897916000001715,707.3595851999999,None,707.8723395999987,None,707.8723395999987,None,r,0.7968738000017765,707.8723395999987,None,0.7968738000017765,,,118 Silent,001,2022_Dec_01_1533,ProdSingRedoBetween,2021.2.3,59.93069614289097,
,,,,8,0,8,0,,,,,,,,,,,,,,,,,,,,,,711.6969293999973,None,,,,,,,,,,,,,,,,,review,155,9,silent,new,null,709.2140170999992,None,709.2140170999992,None,6,1.6150964000007662,709.2140170999992,None,1.6150964000007662,710.8673697999984,None,711.377282999998,None,711.377282999998,None,r,0.28389270000116085,711.377282999998,None,0.28389270000116085,,,118 Silent,001,2022_Dec_01_1533,ProdSingRedoBetween,2021.2.3,59.93069614289097,
,,,,9,0,9,0,,,,,,,,,,,,,,,,,,,,,,714.9944235000003,None,,,,,,,,,,,,,,,,,congress,94,10,silent,new,null,712.2219093999993,None,712.2219093999993,None,5,1.367203599998902,712.2219093999993,None,1.367203599998902,713.613589499997,None,714.1313872999999,None,714.1313872999999,None,r,0.8337534999991476,714.1313872999999,None,0.8337534999991476,,,118 Silent,001,2022_Dec_01_1533,ProdSingRedoBetween,2021.2.3,59.93069614289097,
,,,,10,0,10,0,,,,,,,,,,,,,,,,,,,,,,717.7302201999992,None,,,,,,,,,,,,,,,,,department,17,11,silent,old,yellow,715.5083702999982,None,715.5083702999982,None,6,1.2967057000023487,715.5083702999982,None,1.2967057000023487,716.8318328999994,None,717.3527123999993,None,717.3527123999993,None,r,0.34837360000165063,717.3527123999993,None,0.34837360000165063,,,118 Silent,001,2022_Dec_01_1533,ProdSingRedoBetween,2021.2.3,59.93069614289097,
,,,,11,0,11,0,,,,,,,,,,,,,,,,,,,,,,723.2359335999972,None,,,,,,,,,,,,,,,,,article,151,12,silent,new,null,718.2457792999994,None,718.2457792999994,None,6,3.4874319000009564,718.2457792999994,None,3.4874319000009564,721.7600227999974,None,722.2688897999979,None,722.2688897999979,None,r,0.9361143999994965,722.2688897999979,None,0.9361143999994965,,,118 Silent,001,2022_Dec_01_1533,ProdSingRedoBetween,2021.2.3,59.93069614289097,
,,,,12,0,12,0,,,,,,,,,,,,,,,,,,,,,,726.4099799999967,None,,,,,,,,,,,,,,,,,height,141,13,silent,new,null,723.7483174999979,None,723.7483174999979,None,6,1.552874900000461,723.7483174999979,None,1.552874900000461,725.3291603999969,None,725.8386651000001,None,725.8386651000001,None,r,0.5425681999986409,725.8386651000001,None,0.5425681999986409,,,118 Silent,001,2022_Dec_01_1533,ProdSingRedoBetween,2021.2.3,59.93069614289097,
,,,,13,0,13,0,,,,,,,,,,,,,,,,,,,,,,728.9083017999983,None,,,,,,,,,,,,,,,,,citizen,97,14,silent,new,null,726.9477443999967,None,726.9477443999967,None,6,1.0173424999993586,726.9477443999967,None,1.0173424999993586,727.9971374999986,None,728.5118509999993,None,728.5118509999993,None,r,0.3654939000007289,728.5118509999993,None,0.3654939000007289,,,118 Silent,001,2022_Dec_01_1533,ProdSingRedoBetween,2021.2.3,59.93069614289097,
,,,,14,0,14,0,,,,,,,,,,,,,,,,,,,,,,731.3440502999983,None,,,,,,,,,,,,,,,,,object,99,15,silent,new,null,729.4226882000003,None,729.4226882000003,None,6,1.1344355999972322,729.4226882000003,None,1.1344355999972322,730.5806881999997,None,731.0940080999972,None,731.0940080999972,None,r,0.22310300000026473,731.0940080999972,None,0.22310300000026473,,,118 Silent,001,2022_Dec_01_1533,ProdSingRedoBetween,2021.2.3,59.93069614289097,
,,,,15,0,15,0,,,,,,,,,,,,,,,,,,,,,,734.1852034000003,None,,,,,,,,,,,,,,,,,recall,135,16,silent,new,null,731.8475510999997,None,731.8475510999997,None,6,1.2455178999989585,731.8475510999997,None,1.2455178999989585,733.115184299997,None,733.6312296999968,None,733.6312296999968,None,r,0.5341231999991578,733.6312296999968,None,0.5341231999991578,,,118 Silent,001,2022_Dec_01_1533,ProdSingRedoBetween,2021.2.3,59.93069614289097,
,,,,16,0,16,0,,,,,,,,,,,,,,,,,,,,,,736.215654399999,None,,,,,,,,,,,,,,,,,capital,1,17,silent,old,yellow,734.7039487000002,None,734.7039487000002,None,6,0.8930806999997003,734.7039487000002,None,0.8930806999997003,735.6161871999975,None,736.119737099998,None,736.119737099998,None,r,0.07728290000159177,736.119737099998,None,0.07728290000159177,,,118 Silent,001,2022_Dec_01_1533,ProdSingRedoBetween,2021.2.3,59.93069614289097,
,,,,17,0,17,0,,,,,,,,,,,,,,,,,,,,,,738.8713929999976,None,,,,,,,,,,,,,,,,,court,177,18,silent,new,null,736.7257310999994,None,736.7257310999994,None,6,1.2315512999994098,736.7257310999994,None,1.2315512999994098,737.9921792999994,None,738.5067536999995,None,738.5067536999995,None,r,0.33048839999901247,738.5067536999995,None,0.33048839999901247,,,118 Silent,001,2022_Dec_01_1533,ProdSingRedoBetween,2021.2.3,59.93069614289097,
,,,,18,0,18,0,,,,,,,,,,,,,,,,,,,,,,741.2378151999983,None,,,,,,,,,,,,,,,,,individual,58,19,silent,old,blue,739.3936415999997,None,739.3936415999997,None,6,1.1394493999978295,739.3936415999997,None,1.1394493999978295,740.5544585999996,None,741.0589316999976,None,741.0589316999976,None,r,0.15414099999907194,741.0589316999976,None,0.15414099999907194,,,118 Silent,001,2022_Dec_01_1533,ProdSingRedoBetween,2021.2.3,59.93069614289097,
,,,,19,0,19,0,,,,,,,,,,,,,,,,,,,,,,743.673030599999,None,,,,,,,,,,,,,,,,,suggestion,149,20,silent,new,null,741.7518865999991,None,741.7518865999991,None,6,1.2771878999992623,741.7518865999991,None,1.2771878999992623,743.059494699999,None,743.5769624999994,None,743.5769624999994,None,r,0.07616200000120443,743.5769624999994,None,0.07616200000120443,,,118 Silent,001,2022_Dec_01_1533,ProdSingRedoBetween,2021.2.3,59.93069614289097,
,,,,20,0,20,0,,,,,,,,,,,,,,,,,,,,,,746.0097425999993,None,,,,,,,,,,,,,,,,,religion,111,21,silent,new,null,744.1855531000001,None,744.1855531000001,None,6,1.1795423000003211,744.1855531000001,None,1.1795423000003211,745.3957168999987,None,745.9107661999988,None,745.9107661999988,None,r,0.07062890000088373,745.9107661999988,None,0.07062890000088373,,,118 Silent,001,2022_Dec_01_1533,ProdSingRedoBetween,2021.2.3,59.93069614289097,
,,,,21,0,21,0,,,,,,,,,,,,,,,,,,,,,,747.8297919999968,None,,,,,,,,,,,,,,,,,silence,37,22,silent,old,blue,746.5315134999983,None,746.5315134999983,None,6,0.7056695999999647,746.5315134999983,None,0.7056695999999647,747.2726842999982,None,747.7773138999983,None,747.7773138999983,None,r,0.019841599998471793,747.7773138999983,None,0.019841599998471793,,,118 Silent,001,2022_Dec_01_1533,ProdSingRedoBetween,2021.2.3,59.93069614289097,
,,,,22,0,22,0,,,,,,,,,,,,,,,,,,,,,,749.8456330999979,None,,,,,,,,,,,,,,,,,south,19,23,silent,old,yellow,748.3457576000001,None,748.3457576000001,None,6,0.8513942000026873,748.3457576000001,None,0.8513942000026873,749.2200969999976,None,749.7384020999998,None,749.7384020999998,None,r,0.09068190000107279,749.7384020999998,None,0.09068190000107279,,,118 Silent,001,2022_Dec_01_1533,ProdSingRedoBetween,2021.2.3,59.93069614289097,
,,,,23,0,23,0,,,,,,,,,,,,,,,,,,,,,,753.0494207999982,None,,,,,,,,,,,,,,,,,owner,132,24,silent,new,null,750.3531807999971,None,750.3531807999971,None,6,0.7719151000019338,750.3531807999971,None,0.7719151000019338,751.1561886999989,None,751.6671698999999,None,751.6671698999999,None,r,1.353847799997311,751.6671698999999,None,1.353847799997311,,,118 Silent,001,2022_Dec_01_1533,ProdSingRedoBetween,2021.2.3,59.93069614289097,
,,,,24,0,24,0,,,,,,,,,,,,,,,,,,,,,,755.8528191999976,None,,,,,,,,,,,,,,,,,store,12,25,silent,old,yellow,753.5616919999993,None,753.5616919999993,None,6,0.6596901999982947,753.5616919999993,None,0.6596901999982947,754.2637937,None,754.7726917,None,754.7726917,None,r,1.0564306000014767,754.7726917,None,1.0564306000014767,,,118 Silent,001,2022_Dec_01_1533,ProdSingRedoBetween,2021.2.3,59.93069614289097,
,,,,25,0,25,0,,,,,,,,,,,,,,,,,,,,,,758.3228130999996,None,,,,,,,,,,,,,,,,,story,112,26,silent,new,null,756.3569167999995,None,756.3569167999995,None,6,1.1122126000009303,756.3569167999995,None,1.1122126000009303,757.4961980999979,None,758.0052101000001,None,758.0052101000001,None,r,0.2879038999999466,758.0052101000001,None,0.2879038999999466,,,118 Silent,001,2022_Dec_01_1533,ProdSingRedoBetween,2021.2.3,59.93069614289097,
,,,,26,0,26,0,,,,,,,,,,,,,,,,,,,,,,760.489881999998,None,,,,,,,,,,,,,,,,,raise,179,27,silent,new,null,758.8431887999977,None,758.8431887999977,None,6,0.5940317999993567,758.8431887999977,None,0.5940317999993567,759.468442399997,None,759.9751389999983,None,759.9751389999983,None,r,0.4859710999990057,759.9751389999983,None,0.4859710999990057,,,118 Silent,001,2022_Dec_01_1533,ProdSingRedoBetween,2021.2.3,59.93069614289097,
,,,,27,0,27,0,,,,,,,,,,,,,,,,,,,,,,762.5776379999988,None,,,,,,,,,,,,,,,,,design,139,28,silent,new,null,760.9985056999976,None,760.9985056999976,None,6,0.5665709000022616,760.9985056999976,None,0.5665709000022616,761.5933117999994,None,762.1107608999991,None,762.1107608999991,None,r,0.4462510999983351,762.1107608999991,None,0.4462510999983351,,,118 Silent,001,2022_Dec_01_1533,ProdSingRedoBetween,2021.2.3,59.93069614289097,
,,,,28,0,28,0,,,,,,,,,,,,,,,,,,,,,,765.4281613999992,None,,,,,,,,,,,,,,,,,breath,131,29,silent,new,null,763.0926769999969,None,763.0926769999969,None,6,1.0965754999997444,763.0926769999969,None,1.0965754999997444,764.2208174999978,None,764.7294793000001,None,764.7294793000001,None,r,0.6676172000006773,764.7294793000001,None,0.6676172000006773,,,118 Silent,001,2022_Dec_01_1533,ProdSingRedoBetween,2021.2.3,59.93069614289097,
,,,,29,0,29,0,,,,,,,,,,,,,,,,,,,,,,768.5548474999996,None,,,,,,,,,,,,,,,,,broke,24,30,silent,old,yellow,765.9395860999975,None,765.9395860999975,None,6,1.6575864000005822,765.9395860999975,None,1.6575864000005822,767.6170779999993,None,768.1308953999978,None,768.1308953999978,None,r,0.38649850000001607,768.1308953999978,None,0.38649850000001607,,,118 Silent,001,2022_Dec_01_1533,ProdSingRedoBetween,2021.2.3,59.93069614289097,
,,,,30,0,30,0,,,,,,,,,,,,,,,,,,,,,,770.8335553999968,None,,,,,,,,,,,,,,,,,candidate,150,31,silent,new,null,769.0757309,None,769.0757309,None,6,0.9295109999984561,769.0757309,None,0.9295109999984561,770.0419858999994,None,770.5526377999995,None,770.5526377999995,None,r,0.26046299999870826,770.5526377999995,None,0.26046299999870826,,,118 Silent,001,2022_Dec_01_1533,ProdSingRedoBetween,2021.2.3,59.93069614289097,
,,,,31,0,31,0,,,,,,,,,,,,,,,,,,,,,,772.7354670999994,None,,,,,,,,,,,,,,,,,curve,51,32,silent,old,blue,771.3439732999977,None,771.3439732999977,None,6,0.7332634999984293,771.3439732999977,None,0.7332634999984293,772.1094594999995,None,772.6188167,None,772.6188167,None,r,0.09038000000145985,772.6188167,None,0.09038000000145985,,,118 Silent,001,2022_Dec_01_1533,ProdSingRedoBetween,2021.2.3,59.93069614289097,
,,,,32,0,32,0,,,,,,,,,,,,,,,,,,,,,,774.570442799999,None,,,,,,,,,,,,,,,,,level,172,33,silent,new,null,773.2469705999974,None,773.2469705999974,None,6,0.6701678999997966,773.2469705999974,None,0.6701678999997966,773.9414724999988,None,774.4589613999997,None,774.4589613999997,None,r,0.09014249999745516,774.4589613999997,None,0.09014249999745516,,,118 Silent,001,2022_Dec_01_1533,ProdSingRedoBetween,2021.2.3,59.93069614289097,
,,,,33,0,33,0,,,,,,,,,,,,,,,,,,,,,,776.5225701999989,None,,,,,,,,,,,,,,,,,atmosphere,102,34,silent,new,null,775.0877893999968,None,775.0877893999968,None,6,0.7733728000021074,775.0877893999968,None,0.7733728000021074,775.8995460999977,None,776.4151137999979,None,776.4151137999979,None,r,0.08608430000094813,776.4151137999979,None,0.08608430000094813,,,118 Silent,001,2022_Dec_01_1533,ProdSingRedoBetween,2021.2.3,59.93069614289097,
,,,,34,0,34,0,,,,,,,,,,,,,,,,,,,,,,778.3248428999977,None,,,,,,,,,,,,,,,,,phrase,176,35,silent,new,null,777.037874499998,None,777.037874499998,None,6,0.5591601000014634,777.037874499998,None,0.5591601000014634,777.627254199997,None,778.1454610000001,None,778.1454610000001,None,r,0.15562390000195592,778.1454610000001,None,0.15562390000195592,,,118 Silent,001,2022_Dec_01_1533,ProdSingRedoBetween,2021.2.3,59.93069614289097,
,,,,35,0,35,0,,,,,,,,,,,,,,,,,,,,,,780.0927751999989,None,,,,,,,,,,,,,,,,,series,108,36,silent,new,null,778.8314105999998,None,778.8314105999998,None,6,0.5656888999983494,778.8314105999998,None,0.5656888999983494,779.4289160999979,None,779.9473598999975,None,779.9473598999975,None,r,0.129786100002093,779.9473598999975,None,0.129786100002093,,,118 Silent,001,2022_Dec_01_1533,ProdSingRedoBetween,2021.2.3,59.93069614289097,
,,,,36,0,36,0,,,,,,,,,,,,,,,,,,,,,,782.7954867999979,None,,,,,,,,,,,,,,,,,ground,156,37,silent,new,null,780.5977708999999,None,780.5977708999999,None,6,1.5753038999973796,780.5977708999999,None,1.5753038999973796,782.1958567999973,None,782.699643699998,None,782.699643699998,None,r,0.07335240000247722,782.699643699998,None,0.07335240000247722,,,118 Silent,001,2022_Dec_01_1533,ProdSingRedoBetween,2021.2.3,59.93069614289097,
,,,,37,0,37,0,,,,,,,,,,,,,,,,,,,,,,784.5829472999976,None,,,,,,,,,,,,,,,,,region,50,38,silent,old,blue,783.3065960999993,None,783.3065960999993,None,6,0.6424555999983568,783.3065960999993,None,0.6424555999983568,783.9817440999977,None,784.503714399998,None,784.503714399998,None,r,0.061550799997348804,784.503714399998,None,0.061550799997348804,,,118 Silent,001,2022_Dec_01_1533,ProdSingRedoBetween,2021.2.3,59.93069614289097,
,,,,38,0,38,0,,,,,,,,,,,,,,,,,,,,,,786.4500741999982,None,,,,,,,,,,,,,,,,,equipment,56,39,silent,old,blue,785.1172847999987,None,785.1172847999987,None,6,0.6716880000021774,785.1172847999987,None,0.6716880000021774,785.8176429999985,None,786.3383369999974,None,786.3383369999974,None,r,0.09077400000023772,786.3383369999974,None,0.09077400000023772,,,118 Silent,001,2022_Dec_01_1533,ProdSingRedoBetween,2021.2.3,59.93069614289097,
,,,,39,0,39,0,,,,,,,,,,,,,,,,,,,,,,788.5846225999994,None,,,,,,,,,,,,,,,,,goose,125,40,silent,new,null,786.9554373999999,None,786.9554373999999,None,6,0.9777788999999757,786.9554373999999,None,0.9777788999999757,787.9540615999977,None,788.4729636999982,None,788.4729636999982,None,r,0.09214090000023134,788.4729636999982,None,0.09214090000023134,,,118 Silent,001,2022_Dec_01_1533,ProdSingRedoBetween,2021.2.3,59.93069614289097,
,,,,40,0,40,0,,,,,,,,,,,,,,,,,,,,,,791.6375020999985,None,,,,,,,,,,,,,,,,,executive,53,41,silent,old,blue,789.0904099999971,None,789.0904099999971,None,6,1.0267969999986235,789.0904099999971,None,1.0267969999986235,790.1394910999988,None,790.6605439999985,None,790.6605439999985,None,r,0.9605808000014804,790.6605439999985,None,0.9605808000014804,,,118 Silent,001,2022_Dec_01_1533,ProdSingRedoBetween,2021.2.3,59.93069614289097,
,,,,41,0,41,0,,,,,,,,,,,,,,,,,,,,,,793.4895281999998,None,,,,,,,,,,,,,,,,,salary,13,42,silent,old,yellow,792.1416974999993,None,792.1416974999993,None,6,0.7032935000024736,792.1416974999993,None,0.7032935000024736,792.8756068999974,None,793.3918300999976,None,793.3918300999976,None,r,0.07725750000099652,793.3918300999976,None,0.07725750000099652,,,118 Silent,001,2022_Dec_01_1533,ProdSingRedoBetween,2021.2.3,59.93069614289097,
,,,,42,0,42,0,,,,,,,,,,,,,,,,,,,,,,796.4090585999984,None,,,,,,,,,,,,,,,,,republic,16,43,silent,old,yellow,793.9976811999986,None,793.9976811999986,None,6,0.6634361000033095,793.9976811999986,None,0.6634361000033095,794.6928905999994,None,795.2081476999992,None,795.2081476999992,None,f,1.1729897999975947,795.2081476999992,None,1.1729897999975947,,,118 Silent,001,2022_Dec_01_1533,ProdSingRedoBetween,2021.2.3,59.93069614289097,
,,,,43,0,43,0,,,,,,,,,,,,,,,,,,,,,,799.2360883999972,None,,,,,,,,,,,,,,,,,rural,28,44,silent,old,yellow,796.9301794999992,None,796.9301794999992,None,6,1.1549967999999353,796.9301794999992,None,1.1549967999999353,798.120328099998,None,798.6300001999989,None,798.6300001999989,None,r,0.5672474999992119,798.6300001999989,None,0.5672474999992119,,,118 Silent,001,2022_Dec_01_1533,ProdSingRedoBetween,2021.2.3,59.93069614289097,
,,,,44,0,44,0,,,,,,,,,,,,,,,,,,,,,,805.3846713999992,None,,,,,,,,,,,,,,,,,provision,49,45,silent,old,blue,799.7561997999983,None,799.7561997999983,None,4,3.697007599999779,799.7561997999983,None,3.697007599999779,803.4929991999998,None,804.0077076999987,None,804.0077076999987,None,f,1.349358100000245,804.0077076999987,None,1.349358100000245,,,118 Silent,001,2022_Dec_01_1533,ProdSingRedoBetween,2021.2.3,59.93069614289097,
,,,,45,0,45,0,,,,,,,,,,,,,,,,,,,,,,808.070745699999,None,,,,,,,,,,,,,,,,,staff,35,46,silent,old,blue,805.8991970999996,None,805.8991970999996,None,6,1.0579266000022471,805.8991970999996,None,1.0579266000022471,806.9876218999998,None,807.4924813999969,None,807.4924813999969,None,r,0.5526100999995833,807.4924813999969,None,0.5526100999995833,,,118 Silent,001,2022_Dec_01_1533,ProdSingRedoBetween,2021.2.3,59.93069614289097,
,,,,46,0,46,0,,,,,,,,,,,,,,,,,,,,,,810.924546899998,None,,,,,,,,,,,,,,,,,country,133,47,silent,new,null,808.5797249999996,None,808.5797249999996,None,6,0.9214155000008759,808.5797249999996,None,0.9214155000008759,809.5255554999967,None,810.0439791999997,None,810.0439791999997,None,r,0.8571784999985539,810.0439791999997,None,0.8571784999985539,,,118 Silent,001,2022_Dec_01_1533,ProdSingRedoBetween,2021.2.3,59.93069614289097,
,,,,47,0,47,0,,,,,,,,,,,,,,,,,,,,,,813.259274,None,,,,,,,,,,,,,,,,,mechanical,164,48,silent,new,null,811.4266334999993,None,811.4266334999993,None,6,0.9065095000005385,811.4266334999993,None,0.9065095000005385,812.3607326999991,None,812.8753876999981,None,812.8753876999981,None,r,0.3537627000005159,812.8753876999981,None,0.3537627000005159,,,118 Silent,001,2022_Dec_01_1533,ProdSingRedoBetween,2021.2.3,59.93069614289097,
,,,,48,0,48,0,,,,,,,,,,,,,,,,,,,,,,815.4824422999991,None,,,,,,,,,,,,,,,,,center,159,49,silent,new,null,813.7626109999983,None,813.7626109999983,None,6,0.8106274999991001,813.7626109999983,None,0.8106274999991001,814.6002668999972,None,815.1164624999983,None,815.1164624999983,None,r,0.34479279999868595,815.1164624999983,None,0.34479279999868595,,,118 Silent,001,2022_Dec_01_1533,ProdSingRedoBetween,2021.2.3,59.93069614289097,
,,,,49,0,49,0,,,,,,,,,,,,,,,,,,,,,,817.6636241999986,None,,,,,,,,,,,,,,,,,length,9,50,silent,old,yellow,816.012388799998,None,816.012388799998,None,6,0.6487435000017285,816.012388799998,None,0.6487435000017285,816.6879732999987,None,817.196677099997,None,817.196677099997,None,r,0.4404968999988341,817.196677099997,None,0.4404968999988341,,,118 Silent,001,2022_Dec_01_1533,ProdSingRedoBetween,2021.2.3,59.93069614289097,
,,,,50,0,50,0,,,,,,,,,,,,,,,,,,,,,,819.565574799999,None,,,,,,,,,,,,,,,,,threat,18,51,silent,old,yellow,818.172394199999,None,818.172394199999,None,6,0.4887103999972169,818.172394199999,None,0.4887103999972169,818.6811916999977,None,819.1867246000002,None,819.1867246000002,None,r,0.3543680000002496,819.1867246000002,None,0.3543680000002496,,,118 Silent,001,2022_Dec_01_1533,ProdSingRedoBetween,2021.2.3,59.93069614289097,
,,,,51,0,51,0,,,,,,,,,,,,,,,,,,,,,,821.5675306999983,None,,,,,,,,,,,,,,,,,poetry,89,52,silent,old,red,820.0754842999995,None,820.0754842999995,None,6,0.6176739000002271,820.0754842999995,None,0.6176739000002271,820.7205910999983,None,821.2373762999996,None,821.2373762999996,None,r,0.3036982999983593,821.2373762999996,None,0.3036982999983593,,,118 Silent,001,2022_Dec_01_1533,ProdSingRedoBetween,2021.2.3,59.93069614289097,
,,,,52,0,52,0,,,,,,,,,,,,,,,,,,,,,,823.3527551999978,None,,,,,,,,,,,,,,,,,quantity,8,53,silent,old,yellow,822.0783293999993,None,822.0783293999993,None,6,0.49482350000107544,822.0783293999993,None,0.49482350000107544,822.6067570999985,None,823.1254399999998,None,823.1254399999998,None,r,0.20769470000232104,823.1254399999998,None,0.20769470000232104,,,118 Silent,001,2022_Dec_01_1533,ProdSingRedoBetween,2021.2.3,59.93069614289097,
,,,,53,0,53,0,,,,,,,,,,,,,,,,,,,,,,825.4047099999989,None,,,,,,,,,,,,,,,,,attack,104,54,silent,new,null,823.8747708999981,None,823.8747708999981,None,6,0.5864522000010766,823.8747708999981,None,0.5864522000010766,824.4995690999967,None,825.0089001999986,None,825.0089001999986,None,r,0.3722505000005185,825.0089001999986,None,0.3722505000005185,,,118 Silent,001,2022_Dec_01_1533,ProdSingRedoBetween,2021.2.3,59.93069614289097,
,,,,54,0,54,0,,,,,,,,,,,,,,,,,,,,,,827.5068763999989,None,,,,,,,,,,,,,,,,,rough,126,55,silent,new,null,825.908249199998,None,825.908249199998,None,6,0.49686129999827244,825.908249199998,None,0.49686129999827244,826.4242699999995,None,826.9416753999976,None,826.9416753999976,None,r,0.5434404000006907,826.9416753999976,None,0.5434404000006907,,,118 Silent,001,2022_Dec_01_1533,ProdSingRedoBetween,2021.2.3,59.93069614289097,
,,,,55,0,55,0,,,,,,,,,,,,,,,,,,,,,,829.6863328,None,,,,,,,,,,,,,,,,,finance,0,56,silent,old,yellow,828.0188498999996,None,828.0188498999996,None,6,0.6582499999967695,828.0188498999996,None,0.6582499999967695,828.7109540999991,None,829.2321936999979,None,829.2321936999979,None,r,0.4211756000004243,829.2321936999979,None,0.4211756000004243,,,118 Silent,001,2022_Dec_01_1533,ProdSingRedoBetween,2021.2.3,59.93069614289097,
,,,,56,0,56,0,,,,,,,,,,,,,,,,,,,,,,831.9281444999979,None,,,,,,,,,,,,,,,,,instrument,30,57,silent,old,blue,830.2085229999975,None,830.2085229999975,None,6,0.6607369999983348,830.2085229999975,None,0.6607369999983348,830.8991221999968,None,831.4120498999982,None,831.4120498999982,None,r,0.48908600000140723,831.4120498999982,None,0.48908600000140723,,,118 Silent,001,2022_Dec_01_1533,ProdSingRedoBetween,2021.2.3,59.93069614289097,
,,,,57,0,57,0,,,,,,,,,,,,,,,,,,,,,,834.2032537999985,None,,,,,,,,,,,,,,,,,century,79,58,silent,old,red,832.4471569999987,None,832.4471569999987,None,6,0.558106399999815,832.4471569999987,None,0.558106399999815,833.038313699999,None,833.5463258999989,None,833.5463258999989,None,r,0.6348639999996522,833.5463258999989,None,0.6348639999996522,,,118 Silent,001,2022_Dec_01_1533,ProdSingRedoBetween,2021.2.3,59.93069614289097,
,,,,58,0,58,0,,,,,,,,,,,,,,,,,,,,,,836.1487805999968,None,,,,,,,,,,,,,,,,,plane,26,59,silent,old,yellow,834.7172384999976,None,834.7172384999976,None,6,0.4798859000002267,834.7172384999976,None,0.4798859000002267,835.2161343999978,None,835.7223275999968,None,835.7223275999968,None,r,0.40277810000043246,835.7223275999968,None,0.40277810000043246,,,118 Silent,001,2022_Dec_01_1533,ProdSingRedoBetween,2021.2.3,59.93069614289097,
,,,,59,0,59,0,,,,,,,,,,,,,,,,,,,,,,838.3342634,None,,,,,,,,,,,,,,,,,division,78,60,silent,old,red,836.6619582999992,None,836.6619582999992,None,6,0.6873107999999775,836.6619582999992,None,0.6873107999999775,837.3785418999978,None,837.8944598999988,None,837.8944598999988,None,r,0.41469359999973676,837.8944598999988,None,0.41469359999973676,,,118 Silent,001,2022_Dec_01_1533,ProdSingRedoBetween,2021.2.3,59.93069614289097,
,,,,60,0,60,0,,,,,,,,,,,,,,,,,,,,,,840.494616,None,,,,,,,,,,,,,,,,,author,82,61,silent,old,red,838.8375010999989,None,838.8375010999989,None,6,0.6156144999986282,838.8375010999989,None,0.6156144999986282,839.4754345000001,None,839.9900471000001,None,839.9900471000001,None,r,0.4792237000001478,839.9900471000001,None,0.4792237000001478,,,118 Silent,001,2022_Dec_01_1533,ProdSingRedoBetween,2021.2.3,59.93069614289097,
,,,,61,0,61,0,,,,,,,,,,,,,,,,,,,,,,842.391312599997,None,,,,,,,,,,,,,,,,,minor,84,62,silent,old,red,841.0079972999993,None,841.0079972999993,None,6,0.4211682999994082,841.0079972999993,None,0.4211682999994082,841.4593105999993,None,841.974357199997,None,841.974357199997,None,r,0.3988448000018252,841.974357199997,None,0.3988448000018252,,,118 Silent,001,2022_Dec_01_1533,ProdSingRedoBetween,2021.2.3,59.93069614289097,
,,,,62,0,62,0,,,,,,,,,,,,,,,,,,,,,,844.2903014000003,None,,,,,,,,,,,,,,,,,cover,162,63,silent,new,null,842.9111188999996,None,842.9111188999996,None,6,0.4701945999986492,842.9111188999996,None,0.4701945999986492,843.4122981999972,None,843.9393772000003,None,843.9393772000003,None,r,0.32180679999873973,843.9393772000003,None,0.32180679999873973,,,118 Silent,001,2022_Dec_01_1533,ProdSingRedoBetween,2021.2.3,59.93069614289097,
,,,,63,0,63,0,,,,,,,,,,,,,,,,,,,,,,846.696388299999,None,,,,,,,,,,,,,,,,,surprise,23,64,silent,old,yellow,844.8021198999995,None,844.8021198999995,None,6,0.5951758000010159,844.8021198999995,None,0.5951758000010159,845.443693899997,None,845.9611014000002,None,845.9611014000002,None,r,0.7082632999990892,845.9611014000002,None,0.7082632999990892,,,118 Silent,001,2022_Dec_01_1533,ProdSingRedoBetween,2021.2.3,59.93069614289097,
,,,,64,0,64,0,,,,,,,,,,,,,,,,,,,,,,849.5120508,None,,,,,,,,,,,,,,,,,resistance,98,65,silent,new,null,847.2168442000002,None,847.2168442000002,None,6,1.3163064000000304,847.2168442000002,None,1.3163064000000304,848.5634615999988,None,849.078900499997,None,849.078900499997,None,r,0.4061538999994809,849.078900499997,None,0.4061538999994809,,,118 Silent,001,2022_Dec_01_1533,ProdSingRedoBetween,2021.2.3,59.93069614289097,
,,,,65,0,65,0,,,,,,,,,,,,,,,,,,,,,,854.9183526999986,None,,,,,,,,,,,,,,,,,union,21,66,silent,old,yellow,850.0248071999995,None,850.0248071999995,None,5,3.324212499999703,850.0248071999995,None,3.324212499999703,853.3673606999982,None,853.8732968999975,None,853.8732968999975,None,r,1.0198834000002535,853.8732968999975,None,1.0198834000002535,,,118 Silent,001,2022_Dec_01_1533,ProdSingRedoBetween,2021.2.3,59.93069614289097,
,,,,66,0,66,0,,,,,,,,,,,,,,,,,,,,,,857.361012399997,None,,,,,,,,,,,,,,,,,direction,123,67,silent,new,null,855.4338945999989,None,855.4338945999989,None,6,1.0112126999993052,855.4338945999989,None,1.0112126999993052,856.4703573999977,None,856.9768380999994,None,856.9768380999994,None,r,0.348654000001261,856.9768380999994,None,0.348654000001261,,,118 Silent,001,2022_Dec_01_1533,ProdSingRedoBetween,2021.2.3,59.93069614289097,
,,,,67,0,67,0,,,,,,,,,,,,,,,,,,,,,,859.5720922,None,,,,,,,,,,,,,,,,,growth,87,68,silent,old,red,857.8896589999968,None,857.8896589999968,None,6,0.595646099998703,857.8896589999968,None,0.595646099998703,858.5158601000003,None,859.0232146999988,None,859.0232146999988,None,r,0.5339069000001473,859.0232146999988,None,0.5339069000001473,,,118 Silent,001,2022_Dec_01_1533,ProdSingRedoBetween,2021.2.3,59.93069614289097,
,,,,68,0,68,0,,,,,,,,,,,,,,,,,,,,,,861.8851717999969,None,,,,,,,,,,,,,,,,,scene,57,69,silent,old,blue,860.0831909999979,None,860.0831909999979,None,6,0.7621698000002652,860.0831909999979,None,0.7621698000002652,860.8846224999979,None,861.392215099997,None,861.392215099997,None,r,0.45290709999972023,861.392215099997,None,0.45290709999972023,,,118 Silent,001,2022_Dec_01_1533,ProdSingRedoBetween,2021.2.3,59.93069614289097,
,,,,69,0,69,0,,,,,,,,,,,,,,,,,,,,,,864.032857299997,None,,,,,,,,,,,,,,,,,smell,80,70,silent,old,red,862.3971182999994,None,862.3971182999994,None,6,0.5679627000026812,862.3971182999994,None,0.5679627000026812,862.9942172999981,None,863.5128675999986,None,863.5128675999986,None,r,0.4844569999986561,863.5128675999986,None,0.4844569999986561,,,118 Silent,001,2022_Dec_01_1533,ProdSingRedoBetween,2021.2.3,59.93069614289097,
,,,,70,0,70,0,,,,,,,,,,,,,,,,,,,,,,866.2203676999998,None,,,,,,,,,,,,,,,,,voice,110,71,silent,new,null,864.552455699999,None,864.552455699999,None,6,0.6446565999976883,864.552455699999,None,0.6446565999976883,865.2291116999986,None,865.7346101999974,None,865.7346101999974,None,r,0.4627303999986907,865.7346101999974,None,0.4627303999986907,,,118 Silent,001,2022_Dec_01_1533,ProdSingRedoBetween,2021.2.3,59.93069614289097,
,,,,71,0,71,0,,,,,,,,,,,,,,,,,,,,,,868.5644476999987,None,,,,,,,,,,,,,,,,,weather,116,72,silent,new,null,866.7351047999982,None,866.7351047999982,None,6,0.6940187999971386,866.7351047999982,None,0.6940187999971386,867.4484124999981,None,867.9537208000002,None,867.9537208000002,None,r,0.5954430000019784,867.9537208000002,None,0.5954430000019784,,,118 Silent,001,2022_Dec_01_1533,ProdSingRedoBetween,2021.2.3,59.93069614289097,
,,,,72,0,72,0,,,,,,,,,,,,,,,,,,,,,,870.900909,None,,,,,,,,,,,,,,,,,gesture,68,73,silent,old,red,869.0852825999973,None,869.0852825999973,None,6,0.7918989999998303,869.0852825999973,None,0.7918989999998303,869.906230499997,None,870.4294964000001,None,870.4294964000001,None,r,0.4477638999996998,870.4294964000001,None,0.4477638999996998,,,118 Silent,001,2022_Dec_01_1533,ProdSingRedoBetween,2021.2.3,59.93069614289097,
,,,,73,0,73,0,,,,,,,,,,,,,,,,,,,,,,873.7229944999999,None,,,,,,,,,,,,,,,,,appeal,153,74,silent,new,null,871.4049791999969,None,871.4049791999969,None,5,1.5122984000008728,871.4049791999969,None,1.5122984000008728,872.9541969999991,None,873.4739693999982,None,873.4739693999982,None,r,0.2193204000031983,873.4739693999982,None,0.2193204000031983,,,118 Silent,001,2022_Dec_01_1533,ProdSingRedoBetween,2021.2.3,59.93069614289097,
,,,,74,0,74,0,,,,,,,,,,,,,,,,,,,,,,875.7549918999975,None,,,,,,,,,,,,,,,,,fashion,55,75,silent,old,blue,874.2379836999971,None,874.2379836999971,None,6,0.6712161000032211,874.2379836999971,None,0.6712161000032211,874.9407279999978,None,875.460217099997,None,875.460217099997,None,r,0.26501899999857415,875.460217099997,None,0.26501899999857415,,,118 Silent,001,2022_Dec_01_1533,ProdSingRedoBetween,2021.2.3,59.93069614289097,
,,,,75,0,75,0,,,,,,,,,,,,,,,,,,,,,,877.9429029999992,None,,,,,,,,,,,,,,,,,drama,11,76,silent,old,yellow,876.2581455999971,None,876.2581455999971,None,6,0.691014100000757,876.2581455999971,None,0.691014100000757,876.979728899998,None,877.4909971999987,None,877.4909971999987,None,r,0.4182497000001604,877.4909971999987,None,0.4182497000001604,,,118 Silent,001,2022_Dec_01_1533,ProdSingRedoBetween,2021.2.3,59.93069614289097,
,,,,76,0,76,0,,,,,,,,,,,,,,,,,,,,,,880.1594153999977,None,,,,,,,,,,,,,,,,,express,147,77,silent,new,null,878.462754199998,None,878.462754199998,None,6,0.8544030999983079,878.462754199998,None,0.8544030999983079,879.3433413999992,None,879.8499149999989,None,879.8499149999989,None,r,0.2833290000016859,879.8499149999989,None,0.2833290000016859,,,118 Silent,001,2022_Dec_01_1533,ProdSingRedoBetween,2021.2.3,59.93069614289097,
,,,,77,0,77,0,,,,,,,,,,,,,,,,,,,,,,882.081887999997,None,,,,,,,,,,,,,,,,,prime,63,78,silent,old,red,880.667505999998,None,880.667505999998,None,6,0.5536405999991985,880.667505999998,None,0.5536405999991985,881.2472030999998,None,881.7611535999968,None,881.7611535999968,None,r,0.2920367000006081,881.7611535999968,None,0.2920367000006081,,,118 Silent,001,2022_Dec_01_1533,ProdSingRedoBetween,2021.2.3,59.93069614289097,
,,,,78,0,78,0,,,,,,,,,,,,,,,,,,,,,,884.2318951999987,None,,,,,,,,,,,,,,,,,concern,120,79,silent,new,null,882.6130130999991,None,882.6130130999991,None,6,0.672002599996631,882.6130130999991,None,0.672002599996631,883.3191221999987,None,883.839841099998,None,883.839841099998,None,r,0.3654026000003796,883.839841099998,None,0.3654026000003796,,,118 Silent,001,2022_Dec_01_1533,ProdSingRedoBetween,2021.2.3,59.93069614289097,
,,,,79,0,79,0,,,,,,,,,,,,,,,,,,,,,,886.2322228999983,None,,,,,,,,,,,,,,,,,revolution,14,80,silent,old,yellow,884.7502706999985,None,884.7502706999985,None,6,0.590872799999488,884.7502706999985,None,0.590872799999488,885.3689923999991,None,885.8892476999972,None,885.8892476999972,None,r,0.3240053000008629,885.8892476999972,None,0.3240053000008629,,,118 Silent,001,2022_Dec_01_1533,ProdSingRedoBetween,2021.2.3,59.93069614289097,
,,,,80,0,80,0,,,,,,,,,,,,,,,,,,,,,,888.100749899997,None,,,,,,,,,,,,,,,,,search,60,81,silent,old,red,886.7492384999969,None,886.7492384999969,None,6,0.4399354000015592,886.7492384999969,None,0.4399354000015592,887.2225947999978,None,887.7372469000002,None,887.7372469000002,None,r,0.3478858000016771,887.7372469000002,None,0.3478858000016771,,,118 Silent,001,2022_Dec_01_1533,ProdSingRedoBetween,2021.2.3,59.93069614289097,
,,,,81,0,81,0,,,,,,,,,,,,,,,,,,,,,,889.8531408999988,None,,,,,,,,,,,,,,,,,sweet,86,82,silent,old,red,888.6067678999971,None,888.6067678999971,None,6,0.4063672000011138,888.6067678999971,None,0.4063672000011138,889.0393756999983,None,889.5563828999984,None,889.5563828999984,None,r,0.27278739999746904,889.5563828999984,None,0.27278739999746904,,,118 Silent,001,2022_Dec_01_1533,ProdSingRedoBetween,2021.2.3,59.93069614289097,
,,,,82,0,82,0,,,,,,,,,,,,,,,,,,,,,,891.7718938999969,None,,,,,,,,,,,,,,,,,colonel,114,83,silent,new,null,890.3629581999994,None,890.3629581999994,None,6,0.3622133999997459,890.3629581999994,None,0.3622133999997459,890.7548393999969,None,891.2537453999976,None,891.2537453999976,None,r,0.48748150000028545,891.2537453999976,None,0.48748150000028545,,,118 Silent,001,2022_Dec_01_1533,ProdSingRedoBetween,2021.2.3,59.93069614289097,
,,,,83,0,83,0,,,,,,,,,,,,,,,,,,,,,,893.8938569999991,None,,,,,,,,,,,,,,,,,science,81,84,silent,old,red,892.2899363999968,None,892.2899363999968,None,6,0.6352109999970708,892.2899363999968,None,0.6352109999970708,892.9564920999983,None,893.460664299997,None,893.460664299997,None,r,0.40870100000029197,893.460664299997,None,0.40870100000029197,,,118 Silent,001,2022_Dec_01_1533,ProdSingRedoBetween,2021.2.3,59.93069614289097,
,,,,84,0,84,0,,,,,,,,,,,,,,,,,,,,,,895.8918559999984,None,,,,,,,,,,,,,,,,,distance,4,85,silent,old,yellow,894.4186682,None,894.4186682,None,6,0.6186273000021174,894.4186682,None,0.6186273000021174,895.0666588999993,None,895.5757680999996,None,895.5757680999996,None,r,0.2934021000000939,895.5757680999996,None,0.2934021000000939,,,118 Silent,001,2022_Dec_01_1533,ProdSingRedoBetween,2021.2.3,59.93069614289097,
,,,,85,0,85,0,,,,,,,,,,,,,,,,,,,,,,898.3470227999969,None,,,,,,,,,,,,,,,,,testimony,109,86,silent,new,null,896.4060735999992,None,896.4060735999992,None,6,0.9111620000003313,896.4060735999992,None,0.9111620000003313,897.3533611999992,None,897.8647495999976,None,897.8647495999976,None,r,0.4606750999992073,897.8647495999976,None,0.4606750999992073,,,118 Silent,001,2022_Dec_01_1533,ProdSingRedoBetween,2021.2.3,59.93069614289097,
,,,,86,0,86,0,,,,,,,,,,,,,,,,,,,,,,900.4795143999982,None,,,,,,,,,,,,,,,,,disease,75,87,silent,old,red,898.8683170999975,None,898.8683170999975,None,6,0.7689301999998861,898.8683170999975,None,0.7689301999998861,899.671052499998,None,900.1865502,None,900.1865502,None,r,0.2746225999981107,900.1865502,None,0.2746225999981107,,,118 Silent,001,2022_Dec_01_1533,ProdSingRedoBetween,2021.2.3,59.93069614289097,
,,,,87,0,87,0,,,,,,,,,,,,,,,,,,,,,,902.5985596999999,None,,,,,,,,,,,,,,,,,native,6,88,silent,old,yellow,900.9981872999997,None,900.9981872999997,None,6,0.5351262000003771,900.9981872999997,None,0.5351262000003771,901.5674244999973,None,902.0870050999984,None,902.0870050999984,None,r,0.49419770000167773,902.0870050999984,None,0.49419770000167773,,,118 Silent,001,2022_Dec_01_1533,ProdSingRedoBetween,2021.2.3,59.93069614289097,
,,,,88,0,88,0,,,,,,,,,,,,,,,,,,,,,,904.7173716999969,None,,,,,,,,,,,,,,,,,business,118,89,silent,new,null,903.1060374999979,None,903.1060374999979,None,6,0.635216800001217,903.1060374999979,None,0.635216800001217,903.7736022999998,None,904.2864870999983,None,904.2864870999983,None,r,0.41455560000031255,904.2864870999983,None,0.41455560000031255,,,118 Silent,001,2022_Dec_01_1533,ProdSingRedoBetween,2021.2.3,59.93069614289097,
,,,,89,0,89,0,,,,,,,,,,,,,,,,,,,,,,906.9225369999986,None,,,,,,,,,,,,,,,,,general,52,90,silent,old,blue,905.2271462999997,None,905.2271462999997,None,6,0.665987699998368,905.2271462999997,None,0.665987699998368,905.9212677999967,None,906.4413929999973,None,906.4413929999973,None,r,0.4599324999981036,906.4413929999973,None,0.4599324999981036,,,118 Silent,001,2022_Dec_01_1533,ProdSingRedoBetween,2021.2.3,59.93069614289097,
,,,,90,0,90,0,,,,,,,,,,,,,,,,,,,,,,910.0900078999985,None,,,,,,,,,,,,,,,,,exchange,48,91,silent,old,blue,907.4421116999983,None,907.4421116999983,None,6,0.6189897000003839,907.4421116999983,None,0.6189897000003839,908.0893417999978,None,908.6194288999977,None,908.6194288999977,None,r,1.441798599997128,908.6194288999977,None,1.441798599997128,,,118 Silent,001,2022_Dec_01_1533,ProdSingRedoBetween,2021.2.3,59.93069614289097,
,,,,91,0,91,0,,,,,,,,,,,,,,,,,,,,,,912.1589452999979,None,,,,,,,,,,,,,,,,,engineer,145,92,silent,new,null,910.5942327999983,None,910.5942327999983,None,6,0.7629645999986678,910.5942327999983,None,0.7629645999986678,911.3819748999995,None,911.8934742999991,None,911.8934742999991,None,r,0.24767140000039944,911.8934742999991,None,0.24767140000039944,,,118 Silent,001,2022_Dec_01_1533,ProdSingRedoBetween,2021.2.3,59.93069614289097,
,,,,92,0,92,0,,,,,,,,,,,,,,,,,,,,,,914.262522099998,None,,,,,,,,,,,,,,,,,nature,61,93,silent,old,red,912.6747273000001,None,912.6747273000001,None,6,0.6584375999991607,912.6747273000001,None,0.6584375999991607,913.3654150000002,None,913.8804208000001,None,913.8804208000001,None,r,0.3569956999999704,913.8804208000001,None,0.3569956999999704,,,118 Silent,001,2022_Dec_01_1533,ProdSingRedoBetween,2021.2.3,59.93069614289097,
,,,,93,0,93,0,,,,,,,,,,,,,,,,,,,,,,916.1788067999987,None,,,,,,,,,,,,,,,,,produce,136,94,silent,new,null,914.7876467999995,None,914.7876467999995,None,6,0.5294496999995317,914.7876467999995,None,0.5294496999995317,915.3457784999991,None,915.8527531999971,None,915.8527531999971,None,r,0.2963930999976583,915.8527531999971,None,0.2963930999976583,,,118 Silent,001,2022_Dec_01_1533,ProdSingRedoBetween,2021.2.3,59.93069614289097,
,,,,94,0,94,0,,,,,,,,,,,,,,,,,,,,,,918.0636914999995,None,,,,,,,,,,,,,,,,,tragedy,96,95,silent,new,null,916.6988808999995,None,916.6988808999995,None,6,0.5384835000004387,916.6988808999995,None,0.5384835000004387,917.2670511999968,None,917.7859289999979,None,917.7859289999979,None,r,0.25930520000110846,917.7859289999979,None,0.25930520000110846,,,118 Silent,001,2022_Dec_01_1533,ProdSingRedoBetween,2021.2.3,59.93069614289097,
,,,,95,0,95,0,,,,,,,,,,,,,,,,,,,,,,919.9992530999989,None,,,,,,,,,,,,,,,,,taste,152,96,silent,new,null,918.5770503999993,None,918.5770503999993,None,6,0.524092899999232,918.5770503999993,None,0.524092899999232,919.132735799998,None,919.6343955999982,None,919.6343955999982,None,r,0.34673359999942477,919.6343955999982,None,0.34673359999942477,,,118 Silent,001,2022_Dec_01_1533,ProdSingRedoBetween,2021.2.3,59.93069614289097,
,,,,96,0,96,0,,,,,,,,,,,,,,,,,,,,,,922.1024154999977,None,,,,,,,,,,,,,,,,,contract,10,97,silent,old,yellow,920.5062965999969,None,920.5062965999969,None,6,0.6029182000020228,920.5062965999969,None,0.6029182000020228,921.1386055000003,None,921.6549218,None,921.6549218,None,r,0.42231680000259075,921.6549218,None,0.42231680000259075,,,118 Silent,001,2022_Dec_01_1533,ProdSingRedoBetween,2021.2.3,59.93069614289097,
,,,,97,0,97,0,,,,,,,,,,,,,,,,,,,,,,924.170091699998,None,,,,,,,,,,,,,,,,,drove,85,98,silent,old,red,922.6154026999975,None,922.6154026999975,None,6,0.5818780999979936,922.6154026999975,None,0.5818780999979936,923.229249,None,923.7390491999977,None,923.7390491999977,None,r,0.40217219999976805,923.7390491999977,None,0.40217219999976805,,,118 Silent,001,2022_Dec_01_1533,ProdSingRedoBetween,2021.2.3,59.93069614289097,
,,,,98,0,98,0,,,,,,,,,,,,,,,,,,,,,,926.1718650999974,None,,,,,,,,,,,,,,,,,color,74,99,silent,old,red,924.6792265999975,None,924.6792265999975,None,6,0.5259726999975101,924.6792265999975,None,0.5259726999975101,925.2275008999968,None,925.7384048999993,None,925.7384048999993,None,r,0.41878990000259364,925.7384048999993,None,0.41878990000259364,,,118 Silent,001,2022_Dec_01_1533,ProdSingRedoBetween,2021.2.3,59.93069614289097,
,,,,99,0,99,0,,,,,,,,,,,,,,,,,,,,,,928.240834799999,None,,,,,,,,,,,,,,,,,bureau,46,100,silent,old,blue,926.6873315999983,None,926.6873315999983,None,6,0.6618690000032075,926.6873315999983,None,0.6618690000032075,927.3764768999972,None,927.8931152999976,None,927.8931152999976,None,r,0.3280954000001657,927.8931152999976,None,0.3280954000001657,,,118 Silent,001,2022_Dec_01_1533,ProdSingRedoBetween,2021.2.3,59.93069614289097,
,,,,100,0,100,0,,,,,,,,,,,,,,,,,,,,,,930.2454741000001,None,,,,,,,,,,,,,,,,,hearing,15,101,silent,old,yellow,928.7411281999994,None,928.7411281999994,None,6,0.6640660999983083,928.7411281999994,None,0.6640660999983083,929.4263634999988,None,929.9259966999998,None,929.9259966999998,None,r,0.2871990999992704,929.9259966999998,None,0.2871990999992704,,,118 Silent,001,2022_Dec_01_1533,ProdSingRedoBetween,2021.2.3,59.93069614289097,
,,,,101,0,101,0,,,,,,,,,,,,,,,,,,,,,,932.1141097,None,,,,,,,,,,,,,,,,,oxygen,42,102,silent,old,blue,930.7803991000001,None,930.7803991000001,None,6,0.5449354999982461,930.7803991000001,None,0.5449354999982461,931.3503203,None,931.8611147999982,None,931.8611147999982,None,r,0.2240855999989435,931.8611147999982,None,0.2240855999989435,,,118 Silent,001,2022_Dec_01_1533,ProdSingRedoBetween,2021.2.3,59.93069614289097,
,,,,102,0,102,0,,,,,,,,,,,,,,,,,,,,,,934.0467038999996,None,,,,,,,,,,,,,,,,,corner,173,103,silent,new,null,932.6345799999981,None,932.6345799999981,None,6,0.5626883000004455,932.6345799999981,None,0.5626883000004455,933.2178617999998,None,933.7317759999969,None,933.7317759999969,None,r,0.28937349999978323,933.7317759999969,None,0.28937349999978323,,,118 Silent,001,2022_Dec_01_1533,ProdSingRedoBetween,2021.2.3,59.93069614289097,
,,,,103,0,103,0,,,,,,,,,,,,,,,,,,,,,,935.8651909,None,,,,,,,,,,,,,,,,,employment,119,104,silent,new,null,934.5612545999975,None,934.5612545999975,None,6,0.6280256999998528,934.5612545999975,None,0.6280256999998528,935.2279960999986,None,935.733830899997,None,935.733830899997,None,r,0.10327480000341893,935.733830899997,None,0.10327480000341893,,,118 Silent,001,2022_Dec_01_1533,ProdSingRedoBetween,2021.2.3,59.93069614289097,
,,,,104,0,104,0,,,,,,,,,,,,,,,,,,,,,,937.7841860999979,None,,,,,,,,,,,,,,,,,trail,34,105,silent,old,blue,936.3730543999991,None,936.3730543999991,None,6,0.6002755000008619,936.3730543999991,None,0.6002755000008619,937.0073594999994,None,937.516945899999,None,937.516945899999,None,r,0.24819279999792343,937.516945899999,None,0.24819279999792343,,,118 Silent,001,2022_Dec_01_1533,ProdSingRedoBetween,2021.2.3,59.93069614289097,
,,,,105,0,105,0,,,,,,,,,,,,,,,,,,,,,,940.4876229999973,None,,,,,,,,,,,,,,,,,personnel,148,106,silent,new,null,938.2994799999979,None,938.2994799999979,None,5,1.5616774000009173,938.2994799999979,None,1.5616774000009173,939.8891459999977,None,940.4030065999978,None,940.4030065999978,None,r,0.05807189999904949,940.4030065999978,None,0.05807189999904949,,,118 Silent,001,2022_Dec_01_1533,ProdSingRedoBetween,2021.2.3,59.93069614289097,
,,,,106,0,106,0,,,,,,,,,,,,,,,,,,,,,,943.0738684999997,None,,,,,,,,,,,,,,,,,history,144,107,silent,new,null,940.9967118999994,None,940.9967118999994,None,6,0.8564750999976241,940.9967118999994,None,0.8564750999976241,941.874748299997,None,942.3957216999988,None,942.3957216999988,None,r,0.6494050000001153,942.3957216999988,None,0.6494050000001153,,,118 Silent,001,2022_Dec_01_1533,ProdSingRedoBetween,2021.2.3,59.93069614289097,
,,,,107,0,107,0,,,,,,,,,,,,,,,,,,,,,,945.0425722,None,,,,,,,,,,,,,,,,,minute,130,108,silent,new,null,943.5819106999988,None,943.5819106999988,None,6,0.5911627000023145,943.5819106999988,None,0.5911627000023145,944.1923766999971,None,944.713215599997,None,944.713215599997,None,r,0.29996420000315993,944.713215599997,None,0.29996420000315993,,,118 Silent,001,2022_Dec_01_1533,ProdSingRedoBetween,2021.2.3,59.93069614289097,
,,,,108,0,108,0,,,,,,,,,,,,,,,,,,,,,,946.8425790999972,None,,,,,,,,,,,,,,,,,quarter,157,109,silent,new,null,945.5561544999982,None,945.5561544999982,None,6,0.4329631000000518,945.5561544999982,None,0.4329631000000518,946.009788899999,None,946.5136535999991,None,946.5136535999991,None,r,0.30750629999965895,946.5136535999991,None,0.30750629999965895,,,118 Silent,001,2022_Dec_01_1533,ProdSingRedoBetween,2021.2.3,59.93069614289097,
,,,,109,0,109,0,,,,,,,,,,,,,,,,,,,,,,948.7000750999978,None,,,,,,,,,,,,,,,,,sleep,88,110,silent,old,red,947.3529424999979,None,947.3529424999979,None,6,0.5162784000021929,947.3529424999979,None,0.5162784000021929,947.9018331999978,None,948.4110159999982,None,948.4110159999982,None,r,0.2662053999993077,948.4110159999982,None,0.2662053999993077,,,118 Silent,001,2022_Dec_01_1533,ProdSingRedoBetween,2021.2.3,59.93069614289097,
,,,,110,0,110,0,,,,,,,,,,,,,,,,,,,,,,950.465473799999,None,,,,,,,,,,,,,,,,,group,59,111,silent,old,yellow,949.2188663999987,None,949.2188663999987,None,6,0.39441770000121323,949.2188663999987,None,0.39441770000121323,949.633780199998,None,950.1462809999975,None,950.1462809999975,None,r,0.29093310000098427,950.1462809999975,None,0.29093310000098427,,,118 Silent,001,2022_Dec_01_1533,ProdSingRedoBetween,2021.2.3,59.93069614289097,
,,,,111,0,111,0,,,,,,,,,,,,,,,,,,,,,,952.4317158999984,None,,,,,,,,,,,,,,,,,discussion,31,112,silent,old,blue,950.9889874,None,950.9889874,None,6,0.6081702000010409,950.9889874,None,0.6081702000010409,951.6174780000001,None,952.1364016999978,None,952.1364016999978,None,r,0.26888819999658153,952.1364016999978,None,0.26888819999658153,,,118 Silent,001,2022_Dec_01_1533,ProdSingRedoBetween,2021.2.3,59.93069614289097,
,,,,112,0,112,0,,,,,,,,,,,,,,,,,,,,,,954.0999932999985,None,,,,,,,,,,,,,,,,,touch,169,113,silent,new,null,952.9430302000001,None,952.9430302000001,None,6,0.3661417999974219,952.9430302000001,None,0.3661417999974219,953.333174899999,None,953.8354485999989,None,953.8354485999989,None,r,0.24972669999988284,953.8354485999989,None,0.24972669999988284,,,118 Silent,001,2022_Dec_01_1533,ProdSingRedoBetween,2021.2.3,59.93069614289097,
,,,,113,0,113,0,,,,,,,,,,,,,,,,,,,,,,955.7016363000002,None,,,,,,,,,,,,,,,,,generation,106,114,silent,new,null,954.6144785999968,None,954.6144785999968,None,6,0.33465199999773176,954.6144785999968,None,0.33465199999773176,954.9702412999977,None,955.4871339999991,None,955.4871339999991,None,r,0.19004599999971106,955.4871339999991,None,0.19004599999971106,,,118 Silent,001,2022_Dec_01_1533,ProdSingRedoBetween,2021.2.3,59.93069614289097,
,,,,114,0,114,0,,,,,,,,,,,,,,,,,,,,,,957.6776528999981,None,,,,,,,,,,,,,,,,,council,5,115,silent,old,yellow,956.2135855999986,None,956.2135855999986,None,6,0.5596999999979744,956.2135855999986,None,0.5596999999979744,956.8056485999987,None,957.3244326999993,None,957.3244326999993,None,r,0.320912800001679,957.3244326999993,None,0.320912800001679,,,118 Silent,001,2022_Dec_01_1533,ProdSingRedoBetween,2021.2.3,59.93069614289097,
,,,,115,0,115,0,,,,,,,,,,,,,,,,,,,,,,959.4727303,None,,,,,,,,,,,,,,,,,symbol,22,116,silent,old,yellow,958.1954518999992,None,958.1954518999992,None,6,0.44984280000062427,958.1954518999992,None,0.44984280000062427,958.6798397999992,None,959.1919170000001,None,959.1919170000001,None,r,0.261345099999744,959.1919170000001,None,0.261345099999744,,,118 Silent,001,2022_Dec_01_1533,ProdSingRedoBetween,2021.2.3,59.93069614289097,
,,,,116,0,116,0,,,,,,,,,,,,,,,,,,,,,,961.0403302999985,None,,,,,,,,,,,,,,,,,listen,29,117,silent,old,blue,959.9878417,None,959.9878417,None,6,0.3854724000011629,959.9878417,None,0.3854724000011629,960.3947890999989,None,960.9118600999973,None,960.9118600999973,None,r,0.10124899999937043,960.9118600999973,None,0.10124899999937043,,,118 Silent,001,2022_Dec_01_1533,ProdSingRedoBetween,2021.2.3,59.93069614289097,
,,,,117,0,117,0,,,,,,,,,,,,,,,,,,,,,,962.8107668999983,None,,,,,,,,,,,,,,,,,treatment,62,118,silent,old,red,961.5409295999998,None,961.5409295999998,None,6,0.4483588000002783,961.5409295999998,None,0.4483588000002783,962.0127982999984,None,962.5252814999985,None,962.5252814999985,None,r,0.2639458999983617,962.5252814999985,None,0.2639458999983617,,,118 Silent,001,2022_Dec_01_1533,ProdSingRedoBetween,2021.2.3,59.93069614289097,
,,,,118,0,118,0,,,,,,,,,,,,,,,,,,,,,,964.493490599998,None,,,,,,,,,,,,,,,,,drink,117,119,silent,new,null,963.3419250999978,None,963.3419250999978,None,6,0.33539050000035786,963.3419250999978,None,0.33539050000035786,963.7053153999987,None,964.2103075999985,None,964.2103075999985,None,r,0.2669674999997369,964.2103075999985,None,0.2669674999997369,,,118 Silent,001,2022_Dec_01_1533,ProdSingRedoBetween,2021.2.3,59.93069614289097,
,,,,119,0,119,0,,,,,,,,,,,,,,,,,,,,,,966.1787622999982,None,,,,,,,,,,,,,,,,,weight,54,120,silent,old,blue,965.0071590999978,None,965.0071590999978,None,6,0.38199940000049537,965.0071590999978,None,0.38199940000049537,965.4125418999974,None,965.9168097999973,None,965.9168097999973,None,r,0.24036299999715993,965.9168097999973,None,0.24036299999715993,,,118 Silent,001,2022_Dec_01_1533,ProdSingRedoBetween,2021.2.3,59.93069614289097,
,,,,120,0,120,0,,,,,,,,,,,,,,,,,,,,,,967.8997043999989,None,,,,,,,,,,,,,,,,,sight,105,121,silent,new,null,966.6869750999977,None,966.6869750999977,None,6,0.3661367999993672,966.6869750999977,None,0.3661367999993672,967.0807419999983,None,967.5890633999988,None,967.5890633999988,None,r,0.2801962999983516,967.5890633999988,None,0.2801962999983516,,,118 Silent,001,2022_Dec_01_1533,ProdSingRedoBetween,2021.2.3,59.93069614289097,
,,,,121,0,121,0,,,,,,,,,,,,,,,,,,,,,,969.5180487999969,None,,,,,,,,,,,,,,,,,right,178,122,silent,new,null,968.4247782999992,None,968.4247782999992,None,6,0.29231870000148774,968.4247782999992,None,0.29231870000148774,968.7503405999996,None,969.2675495000003,None,969.2675495000003,None,r,0.2177403999994567,969.2675495000003,None,0.2177403999994567,,,118 Silent,001,2022_Dec_01_1533,ProdSingRedoBetween,2021.2.3,59.93069614289097,
,,,,122,0,122,0,,,,,,,,,,,,,,,,,,,,,,971.0915924000001,None,,,,,,,,,,,,,,,,,chief,7,123,silent,old,yellow,970.0368256999973,None,970.0368256999973,None,6,0.2723727000011422,970.0368256999973,None,0.2723727000011422,970.3361151999998,None,970.852621799997,None,970.852621799997,None,r,0.2007201000014902,970.852621799997,None,0.2007201000014902,,,118 Silent,001,2022_Dec_01_1533,ProdSingRedoBetween,2021.2.3,59.93069614289097,
,,,,123,0,123,0,,,,,,,,,,,,,,,,,,,,,,972.6353930999976,None,,,,,,,,,,,,,,,,,running,142,124,silent,new,null,971.6123501999973,None,971.6123501999973,None,6,0.26480890000311774,971.6123501999973,None,0.26480890000311774,971.9038506999968,None,972.4184762999976,None,972.4184762999976,None,r,0.1948682000002009,972.4184762999976,None,0.1948682000002009,,,118 Silent,001,2022_Dec_01_1533,ProdSingRedoBetween,2021.2.3,59.93069614289097,
,,,,124,0,124,0,,,,,,,,,,,,,,,,,,,,,,974.420348399999,None,,,,,,,,,,,,,,,,,impact,67,125,silent,old,red,973.1546148999987,None,973.1546148999987,None,6,0.3304874999994354,973.1546148999987,None,0.3304874999994354,973.5041696999979,None,974.0030656999988,None,974.0030656999988,None,r,0.394115300001431,974.0030656999988,None,0.394115300001431,,,118 Silent,001,2022_Dec_01_1533,ProdSingRedoBetween,2021.2.3,59.93069614289097,
,,,,125,0,125,0,,,,,,,,,,,,,,,,,,,,,,976.1054084999996,None,,,,,,,,,,,,,,,,,watch,3,126,silent,old,yellow,974.9292480999975,None,974.9292480999975,None,6,0.3719402999995509,974.9292480999975,None,0.3719402999995509,975.3245048999997,None,975.8423062000002,None,975.8423062000002,None,r,0.2428753999993205,975.8423062000002,None,0.2428753999993205,,,118 Silent,001,2022_Dec_01_1533,ProdSingRedoBetween,2021.2.3,59.93069614289097,
,,,,126,0,126,0,,,,,,,,,,,,,,,,,,,,,,977.9238181999972,None,,,,,,,,,,,,,,,,,conference,137,127,silent,new,null,976.6157270000003,None,976.6157270000003,None,6,0.5094723000001977,976.6157270000003,None,0.5094723000001977,977.1591502999981,None,977.6780154999979,None,977.6780154999979,None,r,0.22317650000331923,977.6780154999979,None,0.22317650000331923,,,118 Silent,001,2022_Dec_01_1533,ProdSingRedoBetween,2021.2.3,59.93069614289097,
,,,,127,0,127,0,,,,,,,,,,,,,,,,,,,,,,979.5755188000003,None,,,,,,,,,,,,,,,,,relation,107,128,silent,new,null,978.4359925999997,None,978.4359925999997,None,6,0.42542429999957676,978.4359925999997,None,0.42542429999957676,978.8949902999993,None,979.4088897000001,None,979.4088897000001,None,r,0.14027970000097412,979.4088897000001,None,0.14027970000097412,,,118 Silent,001,2022_Dec_01_1533,ProdSingRedoBetween,2021.2.3,59.93069614289097,
,,,,128,0,128,0,,,,,,,,,,,,,,,,,,,,,,981.2271443999998,None,,,,,,,,,,,,,,,,,death,70,129,silent,old,red,980.0834287999969,None,980.0834287999969,None,6,0.4577930999985256,980.0834287999969,None,0.4577930999985256,980.5608662999985,None,981.0676852999968,None,981.0676852999968,None,r,0.13752540000132285,981.0676852999968,None,0.13752540000132285,,,118 Silent,001,2022_Dec_01_1533,ProdSingRedoBetween,2021.2.3,59.93069614289097,
,,,,129,0,129,0,,,,,,,,,,,,,,,,,,,,,,982.8286923999985,None,,,,,,,,,,,,,,,,,community,95,130,silent,new,null,981.7415172999972,None,981.7415172999972,None,6,0.38366150000001653,981.7415172999972,None,0.38366150000001653,982.1480073999992,None,982.6663544000003,None,982.6663544000003,None,r,0.13884310000139521,982.6663544000003,None,0.13884310000139521,,,118 Silent,001,2022_Dec_01_1533,ProdSingRedoBetween,2021.2.3,59.93069614289097,
,,,,130,0,130,0,,,,,,,,,,,,,,,,,,,,,,984.4969270000001,None,,,,,,,,,,,,,,,,,evidence,121,131,silent,new,null,983.3482551999987,None,983.3482551999987,None,6,0.3290822000017215,983.3482551999987,None,0.3290822000017215,983.6974349999982,None,984.2049795999992,None,984.2049795999992,None,r,0.27223800000138,984.2049795999992,None,0.27223800000138,,,118 Silent,001,2022_Dec_01_1533,ProdSingRedoBetween,2021.2.3,59.93069614289097,
,,,,131,0,131,0,,,,,,,,,,,,,,,,,,,,,,986.1153553999975,None,,,,,,,,,,,,,,,,,captain,138,132,silent,new,null,985.0088644999996,None,985.0088644999996,None,6,0.32434400000056485,985.0088644999996,None,0.32434400000056485,985.3551434999972,None,985.8652126999987,None,985.8652126999987,None,r,0.2200419000000693,985.8652126999987,None,0.2200419000000693,,,118 Silent,001,2022_Dec_01_1533,ProdSingRedoBetween,2021.2.3,59.93069614289097,
,,,,132,0,132,0,,,,,,,,,,,,,,,,,,,,,,987.789047299997,None,,,,,,,,,,,,,,,,,income,41,133,silent,old,blue,986.6252667999979,None,986.6252667999979,None,6,0.4201338000020769,986.6252667999979,None,0.4201338000020769,987.0769189999992,None,987.5902967999973,None,987.5902967999973,None,r,0.17491090000112308,987.5902967999973,None,0.17491090000112308,,,118 Silent,001,2022_Dec_01_1533,ProdSingRedoBetween,2021.2.3,59.93069614289097,
,,,,133,0,133,0,,,,,,,,,,,,,,,,,,,,,,989.4020249999994,None,,,,,,,,,,,,,,,,,rapid,91,134,silent,new,null,988.3088498999969,None,988.3088498999969,None,6,0.3923854999993637,988.3088498999969,None,0.3923854999993637,988.7183143000002,None,989.2238644999998,None,989.2238644999998,None,r,0.14931450000221957,989.2238644999998,None,0.14931450000221957,,,118 Silent,001,2022_Dec_01_1533,ProdSingRedoBetween,2021.2.3,59.93069614289097,
,,,,134,0,134,0,,,,,,,,,,,,,,,,,,,,,,990.9368938999978,None,,,,,,,,,,,,,,,,,still,168,135,silent,new,null,989.9102684999998,None,989.9102684999998,None,6,0.3429448999995657,989.9102684999998,None,0.3429448999995657,990.2729042999999,None,990.7896591999997,None,990.7896591999997,None,r,0.11945959999866318,990.7896591999997,None,0.11945959999866318,,,118 Silent,001,2022_Dec_01_1533,ProdSingRedoBetween,2021.2.3,59.93069614289097,
,,,,135,0,135,0,,,,,,,,,,,,,,,,,,,,,,992.5395288,None,,,,,,,,,,,,,,,,,track,39,136,silent,old,blue,991.4526383999982,None,991.4526383999982,None,6,0.3365791999967769,991.4526383999982,None,0.3365791999967769,991.8082039999972,None,992.3216550999969,None,992.3216550999969,None,r,0.1878178000006301,992.3216550999969,None,0.1878178000006301,,,118 Silent,001,2022_Dec_01_1533,ProdSingRedoBetween,2021.2.3,59.93069614289097,
,,,,136,0,136,0,,,,,,,,,,,,,,,,,,,,,,994.1076095999997,None,,,,,,,,,,,,,,,,,blind,93,137,silent,new,null,993.0468723999984,None,993.0468723999984,None,6,0.2543236000019533,993.0468723999984,None,0.2543236000019533,993.3235299999978,None,993.828398499998,None,993.828398499998,None,r,0.2489618999970844,993.828398499998,None,0.2489618999970844,,,118 Silent,001,2022_Dec_01_1533,ProdSingRedoBetween,2021.2.3,59.93069614289097,
,,,,137,0,137,0,,,,,,,,,,,,,,,,,,,,,,995.8084649999983,None,,,,,,,,,,,,,,,,,guide,76,138,silent,old,red,994.6104019999984,None,994.6104019999984,None,6,0.3067981000021973,994.6104019999984,None,0.3067981000021973,994.9418982999996,None,995.4477764000003,None,995.4477764000003,None,r,0.3334589000005508,995.4477764000003,None,0.3334589000005508,,,118 Silent,001,2022_Dec_01_1533,ProdSingRedoBetween,2021.2.3,59.93069614289097,
,,,,138,0,138,0,,,,,,,,,,,,,,,,,,,,,,997.4000428999971,None,,,,,,,,,,,,,,,,,dance,170,139,silent,new,null,996.3107433999976,None,996.3107433999976,None,6,0.31874660000175936,996.3107433999976,None,0.31874660000175936,996.6723893999988,None,997.1810015999981,None,997.1810015999981,None,r,0.19249850000051083,997.1810015999981,None,0.19249850000051083,,,118 Silent,001,2022_Dec_01_1533,ProdSingRedoBetween,2021.2.3,59.93069614289097,
,,,,139,0,139,0,,,,,,,,,,,,,,,,,,,,,,999.0316572999982,None,,,,,,,,,,,,,,,,,incident,174,140,silent,new,null,997.9133313999992,None,997.9133313999992,None,6,0.2679089999983262,997.9133313999992,None,0.2679089999983262,998.214763,None,998.7282102999998,None,998.7282102999998,None,r,0.27706689999831724,998.7282102999998,None,0.27706689999831724,,,118 Silent,001,2022_Dec_01_1533,ProdSingRedoBetween,2021.2.3,59.93069614289097,
,,,,140,0,140,0,,,,,,,,,,,,,,,,,,,,,,1000.6632372999993,None,,,,,,,,,,,,,,,,,season,38,141,silent,old,blue,999.5578741999998,None,999.5578741999998,None,6,0.26339159999770345,999.5578741999998,None,0.26339159999770345,999.8504651999974,None,1000.3669184999999,None,1000.3669184999999,None,r,0.2782831999975315,1000.3669184999999,None,0.2782831999975315,,,118 Silent,001,2022_Dec_01_1533,ProdSingRedoBetween,2021.2.3,59.93069614289097,
,,,,141,0,141,0,,,,,,,,,,,,,,,,,,,,,,1002.3483041999971,None,,,,,,,,,,,,,,,,,title,32,142,silent,old,blue,1001.1715384999989,None,1001.1715384999989,None,6,0.3138030999980401,1001.1715384999989,None,0.3138030999980401,1001.5206988999998,None,1002.0331439000001,None,1002.0331439000001,None,r,0.2839882000007492,1002.0331439000001,None,0.2839882000007492,,,118 Silent,001,2022_Dec_01_1533,ProdSingRedoBetween,2021.2.3,59.93069614289097,
,,,,142,0,142,0,,,,,,,,,,,,,,,,,,,,,,1003.9200921999982,None,,,,,,,,,,,,,,,,,period,20,143,silent,old,yellow,1002.8626874000001,None,1002.8626874000001,None,6,0.3185474999991129,1002.8626874000001,None,0.3185474999991129,1003.2090087999968,None,1003.7266456999969,None,1003.7266456999969,None,r,0.16675889999896754,1003.7266456999969,None,0.16675889999896754,,,118 Silent,001,2022_Dec_01_1533,ProdSingRedoBetween,2021.2.3,59.93069614289097,
,,,,143,0,143,0,,,,,,,,,,,,,,,,,,,,,,1005.568202399998,None,,,,,,,,,,,,,,,,,force,43,144,silent,old,blue,1004.4365918000003,None,1004.4365918000003,None,6,0.3446163999979035,1004.4365918000003,None,0.3446163999979035,1004.802228499997,None,1005.307347599999,None,1005.307347599999,None,r,0.23376350000035018,1005.307347599999,None,0.23376350000035018,,,118 Silent,001,2022_Dec_01_1533,ProdSingRedoBetween,2021.2.3,59.93069614289097,
,,,,144,0,144,0,,,,,,,,,,,,,,,,,,,,,,1007.3199195999987,None,,,,,,,,,,,,,,,,,edition,92,145,silent,new,null,1006.0772047999999,None,1006.0772047999999,None,6,0.4800104999994801,1006.0772047999999,None,0.4800104999994801,1006.5882141000002,None,1007.1043724999981,None,1007.1043724999981,None,r,0.18876209999871207,1007.1043724999981,None,0.18876209999871207,,,118 Silent,001,2022_Dec_01_1533,ProdSingRedoBetween,2021.2.3,59.93069614289097,
,,,,145,0,145,0,,,,,,,,,,,,,,,,,,,,,,1008.9881305999988,None,,,,,,,,,,,,,,,,,property,66,146,silent,old,red,1007.8365447999968,None,1007.8365447999968,None,6,0.44879950000176905,1007.8365447999968,None,0.44879950000176905,1008.3065354999999,None,1008.8215337000001,None,1008.8215337000001,None,r,0.14367940000011004,1008.8215337000001,None,0.14367940000011004,,,118 Silent,001,2022_Dec_01_1533,ProdSingRedoBetween,2021.2.3,59.93069614289097,
,,,,146,0,146,0,,,,,,,,,,,,,,,,,,,,,,1010.5064143999989,None,,,,,,,,,,,,,,,,,novel,129,147,silent,new,null,1009.4979280999978,None,1009.4979280999978,None,6,0.32325589999891235,1009.4979280999978,None,0.32325589999891235,1009.8404077999985,None,1010.3465456999984,None,1010.3465456999984,None,r,0.13863969999874826,1010.3465456999984,None,0.13863969999874826,,,118 Silent,001,2022_Dec_01_1533,ProdSingRedoBetween,2021.2.3,59.93069614289097,
,,,,147,0,147,0,,,,,,,,,,,,,,,,,,,,,,1012.0802856999981,None,,,,,,,,,,,,,,,,,speech,165,148,silent,new,null,1011.0164961999981,None,1011.0164961999981,None,6,0.38879479999741307,1011.0164961999981,None,0.38879479999741307,1011.4272564999992,None,1011.946423399997,None,1011.946423399997,None,r,0.098937400001887,1011.946423399997,None,0.098937400001887,,,118 Silent,001,2022_Dec_01_1533,ProdSingRedoBetween,2021.2.3,59.93069614289097,
,,,,148,0,148,0,,,,,,,,,,,,,,,,,,,,,,1013.7328989999987,None,,,,,,,,,,,,,,,,,signal,134,149,silent,new,null,1012.6082486999985,None,1012.6082486999985,None,6,0.38903840000057244,1012.6082486999985,None,0.38903840000057244,1013.0303322,None,1013.5430123999977,None,1013.5430123999977,None,r,0.16622620000271127,1013.5430123999977,None,0.16622620000271127,,,118 Silent,001,2022_Dec_01_1533,ProdSingRedoBetween,2021.2.3,59.93069614289097,
,,,,149,0,149,0,,,,,,,,,,,,,,,,,,,,,,1015.2122512999995,None,,,,,,,,,,,,,,,,,sunset,2,150,silent,old,yellow,1014.2554863999976,None,1014.2554863999976,None,6,0.2457747999978892,1014.2554863999976,None,0.2457747999978892,1014.5358788999984,None,1015.0441820999986,None,1015.0441820999986,None,r,0.13704510000025039,1015.0441820999986,None,0.13704510000025039,,,118 Silent,001,2022_Dec_01_1533,ProdSingRedoBetween,2021.2.3,59.93069614289097,
,,,,150,0,150,0,,,,,,,,,,,,,,,,,,,,,,1016.7791080999996,None,,,,,,,,,,,,,,,,,crowd,158,151,silent,new,null,1015.7197889999989,None,1015.7197889999989,None,6,0.3253906999998435,1015.7197889999989,None,0.3253906999998435,1016.0630859999983,None,1016.5681062999975,None,1016.5681062999975,None,r,0.18124080000052345,1016.5681062999975,None,0.18124080000052345,,,118 Silent,001,2022_Dec_01_1533,ProdSingRedoBetween,2021.2.3,59.93069614289097,
,,,,151,0,151,0,,,,,,,,,,,,,,,,,,,,,,1018.3503339999988,None,,,,,,,,,,,,,,,,,under,140,152,silent,new,null,1017.2840313999986,None,1017.2840313999986,None,6,0.31329319999713334,1017.2840313999986,None,0.31329319999713334,1017.6183772999975,None,1018.1319871999985,None,1018.1319871999985,None,r,0.19343139999909909,1018.1319871999985,None,0.19343139999909909,,,118 Silent,001,2022_Dec_01_1533,ProdSingRedoBetween,2021.2.3,59.93069614289097,
,,,,152,0,152,0,,,,,,,,,,,,,,,,,,,,,,1019.8824819999973,None,,,,,,,,,,,,,,,,,welcome,146,153,silent,new,null,1018.8724067000003,None,1018.8724067000003,None,6,0.3407595000026049,1018.8724067000003,None,0.3407595000026049,1019.2333093999987,None,1019.7371439999988,None,1019.7371439999988,None,r,0.11610020000080112,1019.7371439999988,None,0.11610020000080112,,,118 Silent,001,2022_Dec_01_1533,ProdSingRedoBetween,2021.2.3,59.93069614289097,
,,,,153,0,153,0,,,,,,,,,,,,,,,,,,,,,,1021.5898295999978,None,,,,,,,,,,,,,,,,,split,167,154,silent,new,null,1020.4011469999969,None,1020.4011469999969,None,6,0.3160451000003377,1020.4011469999969,None,0.3160451000003377,1020.7366604999988,None,1021.2517923999985,None,1021.2517923999985,None,r,0.30555550000281073,1021.2517923999985,None,0.30555550000281073,,,118 Silent,001,2022_Dec_01_1533,ProdSingRedoBetween,2021.2.3,59.93069614289097,
,,,,154,0,154,0,,,,,,,,,,,,,,,,,,,,,,1023.1537863999984,None,,,,,,,,,,,,,,,,,travel,27,155,silent,old,yellow,1022.1162562999998,None,1022.1162562999998,None,6,0.3049672000015562,1022.1162562999998,None,0.3049672000015562,1022.4537920999974,None,1022.9780675999973,None,1022.9780675999973,None,r,0.1552272000008088,1022.9780675999973,None,0.1552272000008088,,,118 Silent,001,2022_Dec_01_1533,ProdSingRedoBetween,2021.2.3,59.93069614289097,
,,,,155,0,155,0,,,,,,,,,,,,,,,,,,,,,,1024.8541020999983,None,,,,,,,,,,,,,,,,,management,122,156,silent,new,null,1023.661543299997,None,1023.661543299997,None,6,0.46367370000007213,1023.661543299997,None,0.46367370000007213,1024.1559334999984,None,1024.6716547999968,None,1024.6716547999968,None,r,0.1655380000011064,1024.6716547999968,None,0.1655380000011064,,,118 Silent,001,2022_Dec_01_1533,ProdSingRedoBetween,2021.2.3,59.93069614289097,
,,,,156,0,156,0,,,,,,,,,,,,,,,,,,,,,,1026.723272299998,None,,,,,,,,,,,,,,,,,month,163,157,silent,new,null,1025.3575447999974,None,1025.3575447999974,None,6,0.519605200002843,1025.3575447999974,None,0.519605200002843,1025.9060215999998,None,1026.410158999999,None,1026.410158999999,None,r,0.28314490000047954,1026.410158999999,None,0.28314490000047954,,,118 Silent,001,2022_Dec_01_1533,ProdSingRedoBetween,2021.2.3,59.93069614289097,
,,,,157,0,157,0,,,,,,,,,,,,,,,,,,,,,,1028.7792499999996,None,,,,,,,,,,,,,,,,,light,64,158,silent,old,red,1027.240677599999,None,1027.240677599999,None,6,0.5885111999996298,1027.240677599999,None,0.5885111999996298,1027.8664145999974,None,1028.3778923999998,None,1028.3778923999998,None,r,0.37941810000120313,1028.3778923999998,None,0.37941810000120313,,,118 Silent,001,2022_Dec_01_1533,ProdSingRedoBetween,2021.2.3,59.93069614289097,
,,,,158,0,158,0,,,,,,,,,,,,,,,,,,,,,,1030.5430971999995,None,,,,,,,,,,,,,,,,,heavy,128,159,silent,new,null,1029.2999221999999,None,1029.2999221999999,None,6,0.5293845000014699,1029.2999221999999,None,0.5293845000014699,1029.8732483999993,None,1030.3795137999987,None,1030.3795137999987,None,r,0.13765000000057626,1030.3795137999987,None,0.13765000000057626,,,118 Silent,001,2022_Dec_01_1533,ProdSingRedoBetween,2021.2.3,59.93069614289097,
,,,,159,0,159,0,,,,,,,,,,,,,,,,,,,,,,1032.4447962999984,None,,,,,,,,,,,,,,,,,comedy,175,160,silent,new,null,1031.0528169999998,None,1031.0528169999998,None,6,0.4883858000030159,1031.0528169999998,None,0.4883858000030159,1031.5636741999988,None,1032.0804186999994,None,1032.0804186999994,None,r,0.34082370000032824,1032.0804186999994,None,0.34082370000032824,,,118 Silent,001,2022_Dec_01_1533,ProdSingRedoBetween,2021.2.3,59.93069614289097,
,,,,160,0,160,0,,,,,,,,,,,,,,,,,,,,,,1034.2844712999977,None,,,,,,,,,,,,,,,,,interior,171,161,silent,new,null,1032.9577334999994,None,1032.9577334999994,None,6,0.4636019999998098,1032.9577334999994,None,0.4636019999998098,1033.4581734999992,None,1033.9681655999993,None,1033.9681655999993,None,r,0.29292390000046,1033.9681655999993,None,0.29292390000046,,,118 Silent,001,2022_Dec_01_1533,ProdSingRedoBetween,2021.2.3,59.93069614289097,
,,,,161,0,161,0,,,,,,,,,,,,,,,,,,,,,,1036.3033254999973,None,,,,,,,,,,,,,,,,,quick,160,162,silent,new,null,1034.7998421999982,None,1034.7998421999982,None,6,0.6134519999977783,1034.7998421999982,None,0.6134519999977783,1035.4425665999988,None,1035.9530151,None,1035.9530151,None,r,0.3164238999997906,1035.9530151,None,0.3164238999997906,,,118 Silent,001,2022_Dec_01_1533,ProdSingRedoBetween,2021.2.3,59.93069614289097,
,,,,162,0,162,0,,,,,,,,,,,,,,,,,,,,,,1038.1005998999972,None,,,,,,,,,,,,,,,,,vision,115,163,silent,new,null,1036.822101499998,None,1036.822101499998,None,6,0.383214900000894,1036.822101499998,None,0.383214900000894,1037.2407606999986,None,1037.7570419999975,None,1037.7570419999975,None,r,0.3281779999997525,1037.7570419999975,None,0.3281779999997525,,,118 Silent,001,2022_Dec_01_1533,ProdSingRedoBetween,2021.2.3,59.93069614289097,
,,,,163,0,163,0,,,,,,,,,,,,,,,,,,,,,,1039.902282799998,None,,,,,,,,,,,,,,,,,position,154,164,silent,new,null,1038.6160612999993,None,1038.6160612999993,None,6,0.43720439999742666,1038.6160612999993,None,0.43720439999742666,1039.0684314999999,None,1039.5742267999995,None,1039.5742267999995,None,r,0.3029751000030956,1039.5742267999995,None,0.3029751000030956,,,118 Silent,001,2022_Dec_01_1533,ProdSingRedoBetween,2021.2.3,59.93069614289097,
,,,,164,0,164,0,,,,,,,,,,,,,,,,,,,,,,1041.4873124999976,None,,,,,,,,,,,,,,,,,expansion,44,165,silent,old,blue,1040.4146876999985,None,1040.4146876999985,None,6,0.4145246000007319,1040.4146876999985,None,0.4145246000007319,1040.8548332999999,None,1041.3612753999987,None,1041.3612753999987,None,r,0.10785029999897233,1041.3612753999987,None,0.10785029999897233,,,118 Silent,001,2022_Dec_01_1533,ProdSingRedoBetween,2021.2.3,59.93069614289097,
,,,,165,0,165,0,,,,,,,,,,,,,,,,,,,,,,1043.0555585999973,None,,,,,,,,,,,,,,,,,strength,90,166,silent,new,null,1042.0062478,None,1042.0062478,None,6,0.3590550999979314,1042.0062478,None,0.3590550999979314,1042.3943543999994,None,1042.9070203999981,None,1042.9070203999981,None,r,0.13017869999748655,1042.9070203999981,None,0.13017869999748655,,,118 Silent,001,2022_Dec_01_1533,ProdSingRedoBetween,2021.2.3,59.93069614289097,
,,,,166,0,166,0,,,,,,,,,,,,,,,,,,,,,,1044.723951099997,None,,,,,,,,,,,,,,,,,appearance,77,167,silent,old,red,1043.5672982999968,None,1043.5672982999968,None,6,0.4379354999982752,1043.5672982999968,None,0.4379354999982752,1044.0248511999998,None,1044.533700699998,None,1044.533700699998,None,r,0.17550439999831724,1044.533700699998,None,0.17550439999831724,,,118 Silent,001,2022_Dec_01_1533,ProdSingRedoBetween,2021.2.3,59.93069614289097,
,,,,167,0,167,0,,,,,,,,,,,,,,,,,,,,,,1046.2422222999994,None,,,,,,,,,,,,,,,,,write,161,168,silent,new,null,1045.2346524999994,None,1045.2346524999994,None,6,0.41848989999925834,1045.2346524999994,None,0.41848989999925834,1045.6771391999973,None,1046.196813999999,None,1046.196813999999,None,r,0.01641350000136299,1046.196813999999,None,0.01641350000136299,,,118 Silent,001,2022_Dec_01_1533,ProdSingRedoBetween,2021.2.3,59.93069614289097,
,,,,168,0,168,0,,,,,,,,,,,,,,,,,,,,,,1047.8938001999995,None,,,,,,,,,,,,,,,,,commercial,103,169,silent,new,null,1046.749470699997,None,1046.749470699997,None,6,0.34387040000001434,1046.749470699997,None,0.34387040000001434,1047.1128838999975,None,1047.6288223999982,None,1047.6288223999982,None,r,0.24839829999837093,1047.6288223999982,None,0.24839829999837093,,,118 Silent,001,2022_Dec_01_1533,ProdSingRedoBetween,2021.2.3,59.93069614289097,
,,,,169,0,169,0,,,,,,,,,,,,,,,,,,,,,,1049.5454505999987,None,,,,,,,,,,,,,,,,,trash,69,170,silent,old,red,1048.4015360999983,None,1048.4015360999983,None,6,0.4596782999979041,1048.4015360999983,None,0.4596782999979041,1048.8844511999996,None,1049.4003612999986,None,1049.4003612999986,None,r,0.1168666999983543,1049.4003612999986,None,0.1168666999983543,,,118 Silent,001,2022_Dec_01_1533,ProdSingRedoBetween,2021.2.3,59.93069614289097,
,,,,170,0,170,0,,,,,,,,,,,,,,,,,,,,,,1051.1301673999988,None,,,,,,,,,,,,,,,,,principal,47,171,silent,old,blue,1050.0623859999978,None,1050.0623859999978,None,6,0.35886570000002393,1050.0623859999978,None,0.35886570000002393,1050.451663099997,None,1050.9684574999992,None,1050.9684574999992,None,r,0.14074199999959092,1050.9684574999992,None,0.14074199999959092,,,118 Silent,001,2022_Dec_01_1533,ProdSingRedoBetween,2021.2.3,59.93069614289097,
,,,,171,0,171,0,,,,,,,,,,,,,,,,,,,,,,1052.6986761999979,None,,,,,,,,,,,,,,,,,household,83,172,silent,old,red,1051.6401503999987,None,1051.6401503999987,None,6,0.341187699999864,1051.6401503999987,None,0.341187699999864,1052.0073833999995,None,1052.525480799999,None,1052.525480799999,None,r,0.15183459999752813,1052.525480799999,None,0.15183459999752813,,,118 Silent,001,2022_Dec_01_1533,ProdSingRedoBetween,2021.2.3,59.93069614289097,
,,,,172,0,172,0,,,,,,,,,,,,,,,,,,,,,,1054.3835045999986,None,,,,,,,,,,,,,,,,,suspect,36,173,silent,old,blue,1053.213338999998,None,1053.213338999998,None,6,0.2637480000012147,1053.213338999998,None,0.2637480000012147,1053.5031557999973,None,1054.0163536,None,1054.0163536,None,r,0.34884239999882993,1054.0163536,None,0.34884239999882993,,,118 Silent,001,2022_Dec_01_1533,ProdSingRedoBetween,2021.2.3,59.93069614289097,
,,,,173,0,173,0,,,,,,,,,,,,,,,,,,,,,,1055.9202874000002,None,,,,,,,,,,,,,,,,,space,33,174,silent,old,blue,1054.9004233999985,None,1054.9004233999985,None,6,0.3607692000005045,1054.9004233999985,None,0.3607692000005045,1055.2877444999976,None,1055.8091475,None,1055.8091475,None,r,0.08404399999926682,1055.8091475,None,0.08404399999926682,,,118 Silent,001,2022_Dec_01_1533,ProdSingRedoBetween,2021.2.3,59.93069614289097,
,,,,174,0,174,0,,,,,,,,,,,,,,,,,,,,,,1057.4892212999985,None,,,,,,,,,,,,,,,,,front,25,175,silent,old,yellow,1056.448107199998,None,1056.448107199998,None,6,0.2933669000012742,1056.448107199998,None,0.2933669000012742,1056.7759471999998,None,1057.286658099998,None,1057.286658099998,None,r,0.17482680000102846,1057.286658099998,None,0.17482680000102846,,,118 Silent,001,2022_Dec_01_1533,ProdSingRedoBetween,2021.2.3,59.93069614289097,
,,,,175,0,175,0,,,,,,,,,,,,,,,,,,,,,,1058.9598903999977,None,,,,,,,,,,,,,,,,,mankind,127,176,silent,new,null,1058.014873,None,1058.014873,None,6,0.24626139999963925,1058.014873,None,0.24626139999963925,1058.288947099998,None,1058.7945265999988,None,1058.7945265999988,None,r,0.13884170000164886,1058.7945265999988,None,0.13884170000164886,,,118 Silent,001,2022_Dec_01_1533,ProdSingRedoBetween,2021.2.3,59.93069614289097,
