StudyLoop.thisRepN,StudyLoop.thisTrialN,StudyLoop.thisN,StudyLoop.thisIndex,TestLoop.thisRepN,TestLoop.thisTrialN,TestLoop.thisN,TestLoop.thisIndex,textCondition.started,textCondition.stopped,keyCondition.keys,keyCondition.rt,keyCondition.started,keyCondition.stopped,Condition,textWelcome.started,textWelcome.stopped,keyWelcome.keys,keyWelcome.rt,keyWelcome.started,keyWelcome.stopped,textAloud.started,textAloud.stopped,textSilent.started,textSilent.stopped,textSing.started,textSing.stopped,conditional_text.started,conditional_text.stopped,textBlank500.started,textBlank500.stopped,study_word,study_num,study_order,study_type,word_color,textStudy.started,textStudy.stopped,keyStudy.keys,keyStudy.started,keyStudy.stopped,textTestInstructions.started,textTestInstructions.stopped,key_resp_3.keys,key_resp_3.rt,key_resp_3.started,key_resp_3.stopped,test_word,test_num,test_order,test_condition,old_new_test,test_word_original_color,textConf.started,textConf.stopped,textConfScale.started,textConfScale.stopped,keyConf.keys,keyConf.rt,keyConf.started,keyConf.stopped,confidence response time,textTestBlank.started,textTestBlank.stopped,textRKN.started,textRKN.stopped,textRKNScale.started,textRKNScale.stopped,keyRKN.keys,keyRKN.rt,keyRKN.started,keyRKN.stopped,rkn response time,textEnd.started,textEnd.stopped,participant,session,date,expName,psychopyVersion,frameRate,
,,,,,,,,21.445372999998654,None,b,2.660169099999621,21.445372999998654,None,,,,,,,,,,,,,,,,,,,,,,,,,,,,,,,,,,,,,,,,,,,,,,,,,,,,,,,,,,,,,,119 Aloud,001,2022_Dec_01_1553,ProdSingRedoBetween,2021.2.3,59.70919235000863,
,,,,,,,,,,,,,,AloudTest,24.14483819999805,None,space,921.128947600002,24.14483819999805,None,,,,,,,,,,,,,,,,,,,,,,,,,,,,,,,,,,,,,,,,,,,,,,,,,,,,,,,119 Aloud,001,2022_Dec_01_1553,ProdSingRedoBetween,2021.2.3,59.70919235000863,
0,0,0,0,,,,,,,,,,,,,,,,,,24.14483819999805,None,24.14483819999805,None,24.14483819999805,None,24.14483819999805,None,947.8117920999975,None,rapid,59,1,aloud,yellow,945.8028825000001,None,None,945.8028825000001,None,,,,,,,,,,,,,,,,,,,,,,,,,,,,,,,,,,,119 Aloud,001,2022_Dec_01_1553,ProdSingRedoBetween,2021.2.3,59.70919235000863,
1,0,1,0,,,,,,,,,,,,,,,,,,,,,,,,,,950.3307937999998,None,narrow,67,2,aloud,red,948.3237114999974,None,None,948.3237114999974,None,,,,,,,,,,,,,,,,,,,,,,,,,,,,,,,,,,,119 Aloud,001,2022_Dec_01_1553,ProdSingRedoBetween,2021.2.3,59.70919235000863,
2,0,2,0,,,,,,,,,,,,,,,,,,,,,,,,,,952.8499255999996,None,author,78,3,aloud,red,950.8432267999997,None,None,950.8432267999997,None,,,,,,,,,,,,,,,,,,,,,,,,,,,,,,,,,,,119 Aloud,001,2022_Dec_01_1553,ProdSingRedoBetween,2021.2.3,59.70919235000863,
3,0,3,0,,,,,,,,,,,,,,,,,,,,,,,,,,955.3692530999979,None,novel,31,4,aloud,blue,953.3568558000006,None,None,953.3568558000006,None,,,,,,,,,,,,,,,,,,,,,,,,,,,,,,,,,,,119 Aloud,001,2022_Dec_01_1553,ProdSingRedoBetween,2021.2.3,59.70919235000863,
4,0,4,0,,,,,,,,,,,,,,,,,,,,,,,,,,957.8717821999999,None,stranger,76,5,aloud,red,955.8727771999984,None,None,955.8727771999984,None,,,,,,,,,,,,,,,,,,,,,,,,,,,,,,,,,,,119 Aloud,001,2022_Dec_01_1553,ProdSingRedoBetween,2021.2.3,59.70919235000863,
5,0,5,0,,,,,,,,,,,,,,,,,,,,,,,,,,960.3740971999978,None,junior,49,6,aloud,blue,958.3750201999974,None,None,958.3750201999974,None,,,,,,,,,,,,,,,,,,,,,,,,,,,,,,,,,,,119 Aloud,001,2022_Dec_01_1553,ProdSingRedoBetween,2021.2.3,59.70919235000863,
6,0,6,0,,,,,,,,,,,,,,,,,,,,,,,,,,962.8935239999992,None,orchestra,42,7,aloud,blue,960.8901038000004,None,None,960.8901038000004,None,,,,,,,,,,,,,,,,,,,,,,,,,,,,,,,,,,,119 Aloud,001,2022_Dec_01_1553,ProdSingRedoBetween,2021.2.3,59.70919235000863,
7,0,7,0,,,,,,,,,,,,,,,,,,,,,,,,,,965.3958631999994,None,space,82,8,aloud,red,963.3938492999987,None,None,963.3938492999987,None,,,,,,,,,,,,,,,,,,,,,,,,,,,,,,,,,,,119 Aloud,001,2022_Dec_01_1553,ProdSingRedoBetween,2021.2.3,59.70919235000863,
8,0,8,0,,,,,,,,,,,,,,,,,,,,,,,,,,967.8985872999983,None,universal,88,9,aloud,red,965.8989211000007,None,None,965.8989211000007,None,,,,,,,,,,,,,,,,,,,,,,,,,,,,,,,,,,,119 Aloud,001,2022_Dec_01_1553,ProdSingRedoBetween,2021.2.3,59.70919235000863,
9,0,9,0,,,,,,,,,,,,,,,,,,,,,,,,,,970.4009368999978,None,income,20,10,aloud,yellow,968.3998771000006,None,None,968.3998771000006,None,,,,,,,,,,,,,,,,,,,,,,,,,,,,,,,,,,,119 Aloud,001,2022_Dec_01_1553,ProdSingRedoBetween,2021.2.3,59.70919235000863,
10,0,10,0,,,,,,,,,,,,,,,,,,,,,,,,,,972.9200483999994,None,produce,68,11,aloud,red,970.9064345999977,None,None,970.9064345999977,None,,,,,,,,,,,,,,,,,,,,,,,,,,,,,,,,,,,119 Aloud,001,2022_Dec_01_1553,ProdSingRedoBetween,2021.2.3,59.70919235000863,
11,0,11,0,,,,,,,,,,,,,,,,,,,,,,,,,,975.4392125999984,None,skill,10,12,aloud,yellow,973.4248086999978,None,None,973.4248086999978,None,,,,,,,,,,,,,,,,,,,,,,,,,,,,,,,,,,,119 Aloud,001,2022_Dec_01_1553,ProdSingRedoBetween,2021.2.3,59.70919235000863,
12,0,12,0,,,,,,,,,,,,,,,,,,,,,,,,,,977.9418186999974,None,spoke,87,13,aloud,red,975.9426377999989,None,None,975.9426377999989,None,,,,,,,,,,,,,,,,,,,,,,,,,,,,,,,,,,,119 Aloud,001,2022_Dec_01_1553,ProdSingRedoBetween,2021.2.3,59.70919235000863,
13,0,13,0,,,,,,,,,,,,,,,,,,,,,,,,,,980.4609519000005,None,estate,79,14,aloud,red,978.4453742000005,None,None,978.4453742000005,None,,,,,,,,,,,,,,,,,,,,,,,,,,,,,,,,,,,119 Aloud,001,2022_Dec_01_1553,ProdSingRedoBetween,2021.2.3,59.70919235000863,
14,0,14,0,,,,,,,,,,,,,,,,,,,,,,,,,,982.9802549999986,None,health,63,15,aloud,red,980.9684266999975,None,None,980.9684266999975,None,,,,,,,,,,,,,,,,,,,,,,,,,,,,,,,,,,,119 Aloud,001,2022_Dec_01_1553,ProdSingRedoBetween,2021.2.3,59.70919235000863,
15,0,15,0,,,,,,,,,,,,,,,,,,,,,,,,,,985.4992469999997,None,block,33,16,aloud,blue,983.4840148999974,None,None,983.4840148999974,None,,,,,,,,,,,,,,,,,,,,,,,,,,,,,,,,,,,119 Aloud,001,2022_Dec_01_1553,ProdSingRedoBetween,2021.2.3,59.70919235000863,
16,0,16,0,,,,,,,,,,,,,,,,,,,,,,,,,,988.0184874999977,None,front,72,17,aloud,red,986.0091194999986,None,None,986.0091194999986,None,,,,,,,,,,,,,,,,,,,,,,,,,,,,,,,,,,,119 Aloud,001,2022_Dec_01_1553,ProdSingRedoBetween,2021.2.3,59.70919235000863,
17,0,17,0,,,,,,,,,,,,,,,,,,,,,,,,,,990.5211449999988,None,report,11,18,aloud,yellow,988.5189681999982,None,None,988.5189681999982,None,,,,,,,,,,,,,,,,,,,,,,,,,,,,,,,,,,,119 Aloud,001,2022_Dec_01_1553,ProdSingRedoBetween,2021.2.3,59.70919235000863,
18,0,18,0,,,,,,,,,,,,,,,,,,,,,,,,,,993.0402519999989,None,pressure,1,19,aloud,yellow,991.0326848000004,None,None,991.0326848000004,None,,,,,,,,,,,,,,,,,,,,,,,,,,,,,,,,,,,119 Aloud,001,2022_Dec_01_1553,ProdSingRedoBetween,2021.2.3,59.70919235000863,
19,0,19,0,,,,,,,,,,,,,,,,,,,,,,,,,,995.5428405999992,None,bitter,7,20,aloud,yellow,993.5406895999986,None,None,993.5406895999986,None,,,,,,,,,,,,,,,,,,,,,,,,,,,,,,,,,,,119 Aloud,001,2022_Dec_01_1553,ProdSingRedoBetween,2021.2.3,59.70919235000863,
20,0,20,0,,,,,,,,,,,,,,,,,,,,,,,,,,998.0451147999993,None,oxygen,28,21,aloud,yellow,996.0454805000008,None,None,996.0454805000008,None,,,,,,,,,,,,,,,,,,,,,,,,,,,,,,,,,,,119 Aloud,001,2022_Dec_01_1553,ProdSingRedoBetween,2021.2.3,59.70919235000863,
21,0,21,0,,,,,,,,,,,,,,,,,,,,,,,,,,1000.5476591999977,None,cover,3,22,aloud,yellow,998.5466959999976,None,None,998.5466959999976,None,,,,,,,,,,,,,,,,,,,,,,,,,,,,,,,,,,,119 Aloud,001,2022_Dec_01_1553,ProdSingRedoBetween,2021.2.3,59.70919235000863,
22,0,22,0,,,,,,,,,,,,,,,,,,,,,,,,,,1003.0501593999979,None,country,47,23,aloud,blue,1001.0495077999985,None,None,1001.0495077999985,None,,,,,,,,,,,,,,,,,,,,,,,,,,,,,,,,,,,119 Aloud,001,2022_Dec_01_1553,ProdSingRedoBetween,2021.2.3,59.70919235000863,
23,0,23,0,,,,,,,,,,,,,,,,,,,,,,,,,,1005.5526806999987,None,light,40,24,aloud,blue,1003.5506910000004,None,None,1003.5506910000004,None,,,,,,,,,,,,,,,,,,,,,,,,,,,,,,,,,,,119 Aloud,001,2022_Dec_01_1553,ProdSingRedoBetween,2021.2.3,59.70919235000863,
24,0,24,0,,,,,,,,,,,,,,,,,,,,,,,,,,1008.0719611999994,None,employment,9,25,aloud,yellow,1006.0646860999987,None,None,1006.0646860999987,None,,,,,,,,,,,,,,,,,,,,,,,,,,,,,,,,,,,119 Aloud,001,2022_Dec_01_1553,ProdSingRedoBetween,2021.2.3,59.70919235000863,
25,0,25,0,,,,,,,,,,,,,,,,,,,,,,,,,,1010.5910678,None,design,44,26,aloud,blue,1008.5769693999973,None,None,1008.5769693999973,None,,,,,,,,,,,,,,,,,,,,,,,,,,,,,,,,,,,119 Aloud,001,2022_Dec_01_1553,ProdSingRedoBetween,2021.2.3,59.70919235000863,
26,0,26,0,,,,,,,,,,,,,,,,,,,,,,,,,,1013.1102355999974,None,rough,70,27,aloud,red,1011.0954184999973,None,None,1011.0954184999973,None,,,,,,,,,,,,,,,,,,,,,,,,,,,,,,,,,,,119 Aloud,001,2022_Dec_01_1553,ProdSingRedoBetween,2021.2.3,59.70919235000863,
27,0,27,0,,,,,,,,,,,,,,,,,,,,,,,,,,1015.6127347000001,None,household,18,28,aloud,yellow,1013.6121311999996,None,None,1013.6121311999996,None,,,,,,,,,,,,,,,,,,,,,,,,,,,,,,,,,,,119 Aloud,001,2022_Dec_01_1553,ProdSingRedoBetween,2021.2.3,59.70919235000863,
28,0,28,0,,,,,,,,,,,,,,,,,,,,,,,,,,1018.1318866000001,None,expansion,23,29,aloud,yellow,1016.1252310999989,None,None,1016.1252310999989,None,,,,,,,,,,,,,,,,,,,,,,,,,,,,,,,,,,,119 Aloud,001,2022_Dec_01_1553,ProdSingRedoBetween,2021.2.3,59.70919235000863,
29,0,29,0,,,,,,,,,,,,,,,,,,,,,,,,,,1020.6343823999996,None,institute,51,30,aloud,blue,1018.6337218999979,None,None,1018.6337218999979,None,,,,,,,,,,,,,,,,,,,,,,,,,,,,,,,,,,,119 Aloud,001,2022_Dec_01_1553,ProdSingRedoBetween,2021.2.3,59.70919235000863,
30,0,30,0,,,,,,,,,,,,,,,,,,,,,,,,,,1023.1537110999998,None,hunger,14,31,aloud,yellow,1021.1472783999998,None,None,1021.1472783999998,None,,,,,,,,,,,,,,,,,,,,,,,,,,,,,,,,,,,119 Aloud,001,2022_Dec_01_1553,ProdSingRedoBetween,2021.2.3,59.70919235000863,
31,0,31,0,,,,,,,,,,,,,,,,,,,,,,,,,,1025.6727537999977,None,split,74,32,aloud,red,1023.6590746999973,None,None,1023.6590746999973,None,,,,,,,,,,,,,,,,,,,,,,,,,,,,,,,,,,,119 Aloud,001,2022_Dec_01_1553,ProdSingRedoBetween,2021.2.3,59.70919235000863,
32,0,32,0,,,,,,,,,,,,,,,,,,,,,,,,,,1028.1919361,None,collection,64,33,aloud,red,1026.1794764999977,None,None,1026.1794764999977,None,,,,,,,,,,,,,,,,,,,,,,,,,,,,,,,,,,,119 Aloud,001,2022_Dec_01_1553,ProdSingRedoBetween,2021.2.3,59.70919235000863,
33,0,33,0,,,,,,,,,,,,,,,,,,,,,,,,,,1030.6945252999976,None,sound,38,34,aloud,blue,1028.6938511000008,None,None,1028.6938511000008,None,,,,,,,,,,,,,,,,,,,,,,,,,,,,,,,,,,,119 Aloud,001,2022_Dec_01_1553,ProdSingRedoBetween,2021.2.3,59.70919235000863,
34,0,34,0,,,,,,,,,,,,,,,,,,,,,,,,,,1033.2137487,None,throw,37,35,aloud,blue,1031.1998944999978,None,None,1031.1998944999978,None,,,,,,,,,,,,,,,,,,,,,,,,,,,,,,,,,,,119 Aloud,001,2022_Dec_01_1553,ProdSingRedoBetween,2021.2.3,59.70919235000863,
35,0,35,0,,,,,,,,,,,,,,,,,,,,,,,,,,1035.7162508000001,None,entrance,48,36,aloud,blue,1033.7157000000007,None,None,1033.7157000000007,None,,,,,,,,,,,,,,,,,,,,,,,,,,,,,,,,,,,119 Aloud,001,2022_Dec_01_1553,ProdSingRedoBetween,2021.2.3,59.70919235000863,
36,0,36,0,,,,,,,,,,,,,,,,,,,,,,,,,,1038.2353798000004,None,territory,27,37,aloud,yellow,1036.2216367,None,None,1036.2216367,None,,,,,,,,,,,,,,,,,,,,,,,,,,,,,,,,,,,119 Aloud,001,2022_Dec_01_1553,ProdSingRedoBetween,2021.2.3,59.70919235000863,
37,0,37,0,,,,,,,,,,,,,,,,,,,,,,,,,,1040.7545594000003,None,chief,12,38,aloud,yellow,1038.7423764999985,None,None,1038.7423764999985,None,,,,,,,,,,,,,,,,,,,,,,,,,,,,,,,,,,,119 Aloud,001,2022_Dec_01_1553,ProdSingRedoBetween,2021.2.3,59.70919235000863,
38,0,38,0,,,,,,,,,,,,,,,,,,,,,,,,,,1043.2737925999973,None,running,13,39,aloud,yellow,1041.2606515999978,None,None,1041.2606515999978,None,,,,,,,,,,,,,,,,,,,,,,,,,,,,,,,,,,,119 Aloud,001,2022_Dec_01_1553,ProdSingRedoBetween,2021.2.3,59.70919235000863,
39,0,39,0,,,,,,,,,,,,,,,,,,,,,,,,,,1045.7761073999973,None,subject,75,40,aloud,red,1043.7742426000004,None,None,1043.7742426000004,None,,,,,,,,,,,,,,,,,,,,,,,,,,,,,,,,,,,119 Aloud,001,2022_Dec_01_1553,ProdSingRedoBetween,2021.2.3,59.70919235000863,
40,0,40,0,,,,,,,,,,,,,,,,,,,,,,,,,,1048.2954673999993,None,south,60,41,aloud,red,1046.2842624000004,None,None,1046.2842624000004,None,,,,,,,,,,,,,,,,,,,,,,,,,,,,,,,,,,,119 Aloud,001,2022_Dec_01_1553,ProdSingRedoBetween,2021.2.3,59.70919235000863,
41,0,41,0,,,,,,,,,,,,,,,,,,,,,,,,,,1050.8144601999993,None,comfort,25,42,aloud,yellow,1048.8000317999977,None,None,1048.8000317999977,None,,,,,,,,,,,,,,,,,,,,,,,,,,,,,,,,,,,119 Aloud,001,2022_Dec_01_1553,ProdSingRedoBetween,2021.2.3,59.70919235000863,
42,0,42,0,,,,,,,,,,,,,,,,,,,,,,,,,,1053.3338292000008,None,emergency,65,43,aloud,red,1051.3233814999985,None,None,1051.3233814999985,None,,,,,,,,,,,,,,,,,,,,,,,,,,,,,,,,,,,119 Aloud,001,2022_Dec_01_1553,ProdSingRedoBetween,2021.2.3,59.70919235000863,
43,0,43,0,,,,,,,,,,,,,,,,,,,,,,,,,,1055.836387299998,None,platform,35,44,aloud,blue,1053.8357939999987,None,None,1053.8357939999987,None,,,,,,,,,,,,,,,,,,,,,,,,,,,,,,,,,,,119 Aloud,001,2022_Dec_01_1553,ProdSingRedoBetween,2021.2.3,59.70919235000863,
44,0,44,0,,,,,,,,,,,,,,,,,,,,,,,,,,1058.3555068999995,None,comedy,34,45,aloud,blue,1056.3419445,None,None,1056.3419445,None,,,,,,,,,,,,,,,,,,,,,,,,,,,,,,,,,,,119 Aloud,001,2022_Dec_01_1553,ProdSingRedoBetween,2021.2.3,59.70919235000863,
45,0,45,0,,,,,,,,,,,,,,,,,,,,,,,,,,1060.874706999999,None,trash,57,46,aloud,blue,1058.8635036999985,None,None,1058.8635036999985,None,,,,,,,,,,,,,,,,,,,,,,,,,,,,,,,,,,,119 Aloud,001,2022_Dec_01_1553,ProdSingRedoBetween,2021.2.3,59.70919235000863,
46,0,46,0,,,,,,,,,,,,,,,,,,,,,,,,,,1063.3773063000008,None,council,62,47,aloud,red,1061.3766571999986,None,None,1061.3766571999986,None,,,,,,,,,,,,,,,,,,,,,,,,,,,,,,,,,,,119 Aloud,001,2022_Dec_01_1553,ProdSingRedoBetween,2021.2.3,59.70919235000863,
47,0,47,0,,,,,,,,,,,,,,,,,,,,,,,,,,1065.8796746000007,None,finance,85,48,aloud,red,1063.8798330999998,None,None,1063.8798330999998,None,,,,,,,,,,,,,,,,,,,,,,,,,,,,,,,,,,,119 Aloud,001,2022_Dec_01_1553,ProdSingRedoBetween,2021.2.3,59.70919235000863,
48,0,48,0,,,,,,,,,,,,,,,,,,,,,,,,,,1068.3821599000003,None,force,26,49,aloud,yellow,1066.382906499999,None,None,1066.382906499999,None,,,,,,,,,,,,,,,,,,,,,,,,,,,,,,,,,,,119 Aloud,001,2022_Dec_01_1553,ProdSingRedoBetween,2021.2.3,59.70919235000863,
49,0,49,0,,,,,,,,,,,,,,,,,,,,,,,,,,1070.884604499999,None,stand,86,50,aloud,red,1068.8850246000002,None,None,1068.8850246000002,None,,,,,,,,,,,,,,,,,,,,,,,,,,,,,,,,,,,119 Aloud,001,2022_Dec_01_1553,ProdSingRedoBetween,2021.2.3,59.70919235000863,
50,0,50,0,,,,,,,,,,,,,,,,,,,,,,,,,,1073.387155299999,None,bright,0,51,aloud,yellow,1071.3856145999998,None,None,1071.3856145999998,None,,,,,,,,,,,,,,,,,,,,,,,,,,,,,,,,,,,119 Aloud,001,2022_Dec_01_1553,ProdSingRedoBetween,2021.2.3,59.70919235000863,
51,0,51,0,,,,,,,,,,,,,,,,,,,,,,,,,,1075.9063542000004,None,personnel,53,52,aloud,blue,1073.8951008000004,None,None,1073.8951008000004,None,,,,,,,,,,,,,,,,,,,,,,,,,,,,,,,,,,,119 Aloud,001,2022_Dec_01_1553,ProdSingRedoBetween,2021.2.3,59.70919235000863,
52,0,52,0,,,,,,,,,,,,,,,,,,,,,,,,,,1078.4255174999998,None,point,80,53,aloud,red,1076.411168999999,None,None,1076.411168999999,None,,,,,,,,,,,,,,,,,,,,,,,,,,,,,,,,,,,119 Aloud,001,2022_Dec_01_1553,ProdSingRedoBetween,2021.2.3,59.70919235000863,
53,0,53,0,,,,,,,,,,,,,,,,,,,,,,,,,,1080.9446678999993,None,childhood,54,54,aloud,blue,1078.9342923000004,None,None,1078.9342923000004,None,,,,,,,,,,,,,,,,,,,,,,,,,,,,,,,,,,,119 Aloud,001,2022_Dec_01_1553,ProdSingRedoBetween,2021.2.3,59.70919235000863,
54,0,54,0,,,,,,,,,,,,,,,,,,,,,,,,,,1083.463981599998,None,question,22,55,aloud,yellow,1081.4531141000007,None,None,1081.4531141000007,None,,,,,,,,,,,,,,,,,,,,,,,,,,,,,,,,,,,119 Aloud,001,2022_Dec_01_1553,ProdSingRedoBetween,2021.2.3,59.70919235000863,
55,0,55,0,,,,,,,,,,,,,,,,,,,,,,,,,,1085.966399099998,None,whole,32,56,aloud,blue,1083.9657827999981,None,None,1083.9657827999981,None,,,,,,,,,,,,,,,,,,,,,,,,,,,,,,,,,,,119 Aloud,001,2022_Dec_01_1553,ProdSingRedoBetween,2021.2.3,59.70919235000863,
56,0,56,0,,,,,,,,,,,,,,,,,,,,,,,,,,1088.4855872000007,None,bicycle,16,57,aloud,yellow,1086.4705503000005,None,None,1086.4705503000005,None,,,,,,,,,,,,,,,,,,,,,,,,,,,,,,,,,,,119 Aloud,001,2022_Dec_01_1553,ProdSingRedoBetween,2021.2.3,59.70919235000863,
57,0,57,0,,,,,,,,,,,,,,,,,,,,,,,,,,1090.9881788999992,None,substance,21,58,aloud,yellow,1088.9880945000004,None,None,1088.9880945000004,None,,,,,,,,,,,,,,,,,,,,,,,,,,,,,,,,,,,119 Aloud,001,2022_Dec_01_1553,ProdSingRedoBetween,2021.2.3,59.70919235000863,
58,0,58,0,,,,,,,,,,,,,,,,,,,,,,,,,,1093.507263899999,None,surprise,43,59,aloud,blue,1091.4942553,None,None,1091.4942553,None,,,,,,,,,,,,,,,,,,,,,,,,,,,,,,,,,,,119 Aloud,001,2022_Dec_01_1553,ProdSingRedoBetween,2021.2.3,59.70919235000863,
59,0,59,0,,,,,,,,,,,,,,,,,,,,,,,,,,1096.0264652999977,None,machinery,4,60,aloud,yellow,1094.0110335999998,None,None,1094.0110335999998,None,,,,,,,,,,,,,,,,,,,,,,,,,,,,,,,,,,,119 Aloud,001,2022_Dec_01_1553,ProdSingRedoBetween,2021.2.3,59.70919235000863,
60,0,60,0,,,,,,,,,,,,,,,,,,,,,,,,,,1098.5456453999977,None,victory,81,61,aloud,red,1096.5314531000004,None,None,1096.5314531000004,None,,,,,,,,,,,,,,,,,,,,,,,,,,,,,,,,,,,119 Aloud,001,2022_Dec_01_1553,ProdSingRedoBetween,2021.2.3,59.70919235000863,
61,0,61,0,,,,,,,,,,,,,,,,,,,,,,,,,,1101.0480562999983,None,management,41,62,aloud,blue,1099.0483222999974,None,None,1099.0483222999974,None,,,,,,,,,,,,,,,,,,,,,,,,,,,,,,,,,,,119 Aloud,001,2022_Dec_01_1553,ProdSingRedoBetween,2021.2.3,59.70919235000863,
62,0,62,0,,,,,,,,,,,,,,,,,,,,,,,,,,1103.567401299999,None,capital,39,63,aloud,blue,1101.5525448000008,None,None,1101.5525448000008,None,,,,,,,,,,,,,,,,,,,,,,,,,,,,,,,,,,,119 Aloud,001,2022_Dec_01_1553,ProdSingRedoBetween,2021.2.3,59.70919235000863,
63,0,63,0,,,,,,,,,,,,,,,,,,,,,,,,,,1106.0865522999993,None,husband,73,64,aloud,red,1104.0723278000005,None,None,1104.0723278000005,None,,,,,,,,,,,,,,,,,,,,,,,,,,,,,,,,,,,119 Aloud,001,2022_Dec_01_1553,ProdSingRedoBetween,2021.2.3,59.70919235000863,
64,0,64,0,,,,,,,,,,,,,,,,,,,,,,,,,,1108.5889693999998,None,breath,89,65,aloud,red,1106.5894961999984,None,None,1106.5894961999984,None,,,,,,,,,,,,,,,,,,,,,,,,,,,,,,,,,,,119 Aloud,001,2022_Dec_01_1553,ProdSingRedoBetween,2021.2.3,59.70919235000863,
65,0,65,0,,,,,,,,,,,,,,,,,,,,,,,,,,1111.0914459999985,None,leader,29,66,aloud,blue,1109.0897587,None,None,1109.0897587,None,,,,,,,,,,,,,,,,,,,,,,,,,,,,,,,,,,,119 Aloud,001,2022_Dec_01_1553,ProdSingRedoBetween,2021.2.3,59.70919235000863,
66,0,66,0,,,,,,,,,,,,,,,,,,,,,,,,,,1113.6106900999985,None,agreement,77,67,aloud,red,1111.595379399998,None,None,1111.595379399998,None,,,,,,,,,,,,,,,,,,,,,,,,,,,,,,,,,,,119 Aloud,001,2022_Dec_01_1553,ProdSingRedoBetween,2021.2.3,59.70919235000863,
67,0,67,0,,,,,,,,,,,,,,,,,,,,,,,,,,1116.1131797999988,None,route,46,68,aloud,blue,1114.1113329,None,None,1114.1113329,None,,,,,,,,,,,,,,,,,,,,,,,,,,,,,,,,,,,119 Aloud,001,2022_Dec_01_1553,ProdSingRedoBetween,2021.2.3,59.70919235000863,
68,0,68,0,,,,,,,,,,,,,,,,,,,,,,,,,,1118.6323835999974,None,dozen,83,69,aloud,red,1116.621114999998,None,None,1116.621114999998,None,,,,,,,,,,,,,,,,,,,,,,,,,,,,,,,,,,,119 Aloud,001,2022_Dec_01_1553,ProdSingRedoBetween,2021.2.3,59.70919235000863,
69,0,69,0,,,,,,,,,,,,,,,,,,,,,,,,,,1121.1349134999982,None,marriage,2,70,aloud,yellow,1119.1329173999984,None,None,1119.1329173999984,None,,,,,,,,,,,,,,,,,,,,,,,,,,,,,,,,,,,119 Aloud,001,2022_Dec_01_1553,ProdSingRedoBetween,2021.2.3,59.70919235000863,
70,0,70,0,,,,,,,,,,,,,,,,,,,,,,,,,,1123.6539414,None,blind,84,71,aloud,red,1121.6403279000006,None,None,1121.6403279000006,None,,,,,,,,,,,,,,,,,,,,,,,,,,,,,,,,,,,119 Aloud,001,2022_Dec_01_1553,ProdSingRedoBetween,2021.2.3,59.70919235000863,
71,0,71,0,,,,,,,,,,,,,,,,,,,,,,,,,,1126.1566598999998,None,grade,17,72,aloud,yellow,1124.1558226999987,None,None,1124.1558226999987,None,,,,,,,,,,,,,,,,,,,,,,,,,,,,,,,,,,,119 Aloud,001,2022_Dec_01_1553,ProdSingRedoBetween,2021.2.3,59.70919235000863,
72,0,72,0,,,,,,,,,,,,,,,,,,,,,,,,,,1128.675883699998,None,quick,30,73,aloud,blue,1126.6621521999987,None,None,1126.6621521999987,None,,,,,,,,,,,,,,,,,,,,,,,,,,,,,,,,,,,119 Aloud,001,2022_Dec_01_1553,ProdSingRedoBetween,2021.2.3,59.70919235000863,
73,0,73,0,,,,,,,,,,,,,,,,,,,,,,,,,,1131.1950813000003,None,military,50,74,aloud,blue,1129.1852586999994,None,None,1129.1852586999994,None,,,,,,,,,,,,,,,,,,,,,,,,,,,,,,,,,,,119 Aloud,001,2022_Dec_01_1553,ProdSingRedoBetween,2021.2.3,59.70919235000863,
74,0,74,0,,,,,,,,,,,,,,,,,,,,,,,,,,1133.697498999998,None,edition,8,75,aloud,yellow,1131.6954258000005,None,None,1131.6954258000005,None,,,,,,,,,,,,,,,,,,,,,,,,,,,,,,,,,,,119 Aloud,001,2022_Dec_01_1553,ProdSingRedoBetween,2021.2.3,59.70919235000863,
75,0,75,0,,,,,,,,,,,,,,,,,,,,,,,,,,1136.2165586999981,None,youth,55,76,aloud,blue,1134.2047125999998,None,None,1134.2047125999998,None,,,,,,,,,,,,,,,,,,,,,,,,,,,,,,,,,,,119 Aloud,001,2022_Dec_01_1553,ProdSingRedoBetween,2021.2.3,59.70919235000863,
76,0,76,0,,,,,,,,,,,,,,,,,,,,,,,,,,1138.7357484999993,None,little,66,77,aloud,red,1136.7235862999987,None,None,1136.7235862999987,None,,,,,,,,,,,,,,,,,,,,,,,,,,,,,,,,,,,119 Aloud,001,2022_Dec_01_1553,ProdSingRedoBetween,2021.2.3,59.70919235000863,
77,0,77,0,,,,,,,,,,,,,,,,,,,,,,,,,,1141.2382629999993,None,enemy,71,78,aloud,red,1139.2369350000008,None,None,1139.2369350000008,None,,,,,,,,,,,,,,,,,,,,,,,,,,,,,,,,,,,119 Aloud,001,2022_Dec_01_1553,ProdSingRedoBetween,2021.2.3,59.70919235000863,
78,0,78,0,,,,,,,,,,,,,,,,,,,,,,,,,,1143.7575132999991,None,passage,56,79,aloud,blue,1141.7421714999982,None,None,1141.7421714999982,None,,,,,,,,,,,,,,,,,,,,,,,,,,,,,,,,,,,119 Aloud,001,2022_Dec_01_1553,ProdSingRedoBetween,2021.2.3,59.70919235000863,
79,0,79,0,,,,,,,,,,,,,,,,,,,,,,,,,,1146.2600349999993,None,safety,69,80,aloud,red,1144.2595715999996,None,None,1144.2595715999996,None,,,,,,,,,,,,,,,,,,,,,,,,,,,,,,,,,,,119 Aloud,001,2022_Dec_01_1553,ProdSingRedoBetween,2021.2.3,59.70919235000863,
80,0,80,0,,,,,,,,,,,,,,,,,,,,,,,,,,1148.7791436000007,None,degree,52,81,aloud,blue,1146.7650082,None,None,1146.7650082,None,,,,,,,,,,,,,,,,,,,,,,,,,,,,,,,,,,,119 Aloud,001,2022_Dec_01_1553,ProdSingRedoBetween,2021.2.3,59.70919235000863,
81,0,81,0,,,,,,,,,,,,,,,,,,,,,,,,,,1151.2817407999974,None,account,15,82,aloud,yellow,1149.2796591000006,None,None,1149.2796591000006,None,,,,,,,,,,,,,,,,,,,,,,,,,,,,,,,,,,,119 Aloud,001,2022_Dec_01_1553,ProdSingRedoBetween,2021.2.3,59.70919235000863,
82,0,82,0,,,,,,,,,,,,,,,,,,,,,,,,,,1153.8008468999979,None,contract,19,83,aloud,yellow,1151.7871033999982,None,None,1151.7871033999982,None,,,,,,,,,,,,,,,,,,,,,,,,,,,,,,,,,,,119 Aloud,001,2022_Dec_01_1553,ProdSingRedoBetween,2021.2.3,59.70919235000863,
83,0,83,0,,,,,,,,,,,,,,,,,,,,,,,,,,1156.3201281999973,None,budget,45,84,aloud,blue,1154.310109099999,None,None,1154.310109099999,None,,,,,,,,,,,,,,,,,,,,,,,,,,,,,,,,,,,119 Aloud,001,2022_Dec_01_1553,ProdSingRedoBetween,2021.2.3,59.70919235000863,
84,0,84,0,,,,,,,,,,,,,,,,,,,,,,,,,,1158.8225299000005,None,resistance,24,85,aloud,yellow,1156.8205338000007,None,None,1156.8205338000007,None,,,,,,,,,,,,,,,,,,,,,,,,,,,,,,,,,,,119 Aloud,001,2022_Dec_01_1553,ProdSingRedoBetween,2021.2.3,59.70919235000863,
85,0,85,0,,,,,,,,,,,,,,,,,,,,,,,,,,1161.3263714999994,None,watch,5,86,aloud,yellow,1159.3256585999989,None,None,1159.3256585999989,None,,,,,,,,,,,,,,,,,,,,,,,,,,,,,,,,,,,119 Aloud,001,2022_Dec_01_1553,ProdSingRedoBetween,2021.2.3,59.70919235000863,
86,0,86,0,,,,,,,,,,,,,,,,,,,,,,,,,,1163.827570999998,None,tough,6,87,aloud,yellow,1161.8255690000005,None,None,1161.8255690000005,None,,,,,,,,,,,,,,,,,,,,,,,,,,,,,,,,,,,119 Aloud,001,2022_Dec_01_1553,ProdSingRedoBetween,2021.2.3,59.70919235000863,
87,0,87,0,,,,,,,,,,,,,,,,,,,,,,,,,,1166.346693399999,None,crime,36,88,aloud,blue,1164.3316938999997,None,None,1164.3316938999997,None,,,,,,,,,,,,,,,,,,,,,,,,,,,,,,,,,,,119 Aloud,001,2022_Dec_01_1553,ProdSingRedoBetween,2021.2.3,59.70919235000863,
88,0,88,0,,,,,,,,,,,,,,,,,,,,,,,,,,1168.8492258999977,None,incident,58,89,aloud,blue,1166.8472879,None,None,1166.8472879,None,,,,,,,,,,,,,,,,,,,,,,,,,,,,,,,,,,,119 Aloud,001,2022_Dec_01_1553,ProdSingRedoBetween,2021.2.3,59.70919235000863,
89,0,89,0,,,,,,,,,,,,,,,,,,,,,,,,,,1171.3684474000002,None,empty,61,90,aloud,red,1169.3562337000003,None,None,1169.3562337000003,None,,,,,,,,,,,,,,,,,,,,,,,,,,,,,,,,,,,119 Aloud,001,2022_Dec_01_1553,ProdSingRedoBetween,2021.2.3,59.70919235000863,
,,,,,,,,,,,,,,,,,,,,,,,,,,,,,,,,,,,,,,,,,1171.869170599999,None,k,179.82094430000143,1171.869170599999,None,,,,,,,,,,,,,,,,,,,,,,,,,,,,,119 Aloud,001,2022_Dec_01_1553,ProdSingRedoBetween,2021.2.3,59.70919235000863,
,,,,0,0,0,0,,,,,,,,,,,,,,,,,,,,,,1367.0978455999975,None,,,,,,,,,,,,,,,,,quarter,122,1,aloud,new,null,1352.2271727000007,None,1352.2271727000007,None,2,11.326808300000266,1352.2271727000007,None,11.326808300000266,1363.5822980999983,None,1364.1004336999977,None,1364.1004336999977,None,f,2.9815178999997443,1364.1004336999977,None,2.9815178999997443,,,119 Aloud,001,2022_Dec_01_1553,ProdSingRedoBetween,2021.2.3,59.70919235000863,
,,,,1,0,1,0,,,,,,,,,,,,,,,,,,,,,,1376.428399299999,None,,,,,,,,,,,,,,,,,force,26,2,aloud,old,yellow,1367.6071741999986,None,1367.6071741999986,None,2,7.178635700001905,1367.6071741999986,None,7.178635700001905,1374.8273550999984,None,1375.3390765000004,None,1375.3390765000004,None,r,1.0549457000015536,1375.3390765000004,None,1.0549457000015536,,,119 Aloud,001,2022_Dec_01_1553,ProdSingRedoBetween,2021.2.3,59.70919235000863,
,,,,2,0,2,0,,,,,,,,,,,,,,,,,,,,,,1383.5197792,None,,,,,,,,,,,,,,,,,permit,108,3,aloud,new,null,1376.9446798999998,None,1376.9446798999998,None,6,4.345295299997815,1376.9446798999998,None,4.345295299997815,1381.3196494999975,None,1381.8318070999994,None,1381.8318070999994,None,r,1.666256100001192,1381.8318070999994,None,1.666256100001192,,,119 Aloud,001,2022_Dec_01_1553,ProdSingRedoBetween,2021.2.3,59.70919235000863,
,,,,3,0,3,0,,,,,,,,,,,,,,,,,,,,,,1387.3009583999992,None,,,,,,,,,,,,,,,,,piece,149,4,aloud,new,null,1384.0460786999975,None,1384.0460786999975,None,5,2.563812799999141,1384.0460786999975,None,2.563812799999141,1386.6368717000005,None,1387.1551722000004,None,1387.1551722000004,None,r,0.12681810000140104,1387.1551722000004,None,0.12681810000140104,,,119 Aloud,001,2022_Dec_01_1553,ProdSingRedoBetween,2021.2.3,59.70919235000863,
,,,,4,0,4,0,,,,,,,,,,,,,,,,,,,,,,1390.9045000000006,None,,,,,,,,,,,,,,,,,passage,56,5,aloud,old,blue,1387.814772499998,None,1387.814772499998,None,4,2.3952903999997943,1387.814772499998,None,2.3952903999997943,1390.2490001999977,None,1390.754110599999,None,1390.754110599999,None,r,0.12786269999924116,1390.754110599999,None,0.12786269999924116,,,119 Aloud,001,2022_Dec_01_1553,ProdSingRedoBetween,2021.2.3,59.70919235000863,
,,,,5,0,5,0,,,,,,,,,,,,,,,,,,,,,,1395.6978443999978,None,,,,,,,,,,,,,,,,,direction,163,6,aloud,new,null,1391.4155434999993,None,1391.4155434999993,None,5,3.6505417000007583,1391.4155434999993,None,3.6505417000007583,1395.0970847999997,None,1395.6166072999986,None,1395.6166072999986,None,r,0.049329800000123214,1395.6166072999986,None,0.049329800000123214,,,119 Aloud,001,2022_Dec_01_1553,ProdSingRedoBetween,2021.2.3,59.70919235000863,
,,,,6,0,6,0,,,,,,,,,,,,,,,,,,,,,,1398.2118015999986,None,,,,,,,,,,,,,,,,,material,130,7,aloud,new,null,1396.2237361999978,None,1396.2237361999978,None,4,0.898365000000922,1396.2237361999978,None,0.898365000000922,1397.1497257999981,None,1397.6700268999994,None,1397.6700268999994,None,f,0.5159383999998681,1397.6700268999994,None,0.5159383999998681,,,119 Aloud,001,2022_Dec_01_1553,ProdSingRedoBetween,2021.2.3,59.70919235000863,
,,,,7,0,7,0,,,,,,,,,,,,,,,,,,,,,,1406.8371025999986,None,,,,,,,,,,,,,,,,,substance,21,8,aloud,old,yellow,1398.7163806999997,None,1398.7163806999997,None,3,3.1495245000005525,1398.7163806999997,None,3.1495245000005525,1401.8891528999993,None,1402.4066581000006,None,1402.4066581000006,None,f,4.403380700001435,1402.4066581000006,None,4.403380700001435,,,119 Aloud,001,2022_Dec_01_1553,ProdSingRedoBetween,2021.2.3,59.70919235000863,
,,,,8,0,8,0,,,,,,,,,,,,,,,,,,,,,,1410.0760635999977,None,,,,,,,,,,,,,,,,,bright,0,9,aloud,old,yellow,1407.3482285999999,None,1407.3482285999999,None,2,1.965806000000157,1407.3482285999999,None,1.965806000000157,1409.3460143999982,None,1409.8567527999985,None,1409.8567527999985,None,f,0.20130929999868385,1409.8567527999985,None,0.20130929999868385,,,119 Aloud,001,2022_Dec_01_1553,ProdSingRedoBetween,2021.2.3,59.70919235000863,
,,,,9,0,9,0,,,,,,,,,,,,,,,,,,,,,,1413.0628275999989,None,,,,,,,,,,,,,,,,,dream,150,10,aloud,new,null,1410.595352299999,None,1410.595352299999,None,5,1.7027599000030023,1410.595352299999,None,1.7027599000030023,1412.3354772999992,None,1412.8485297000007,None,1412.8485297000007,None,r,0.18553310000061174,1412.8485297000007,None,0.18553310000061174,,,119 Aloud,001,2022_Dec_01_1553,ProdSingRedoBetween,2021.2.3,59.70919235000863,
,,,,10,0,10,0,,,,,,,,,,,,,,,,,,,,,,1415.6625514000007,None,,,,,,,,,,,,,,,,,light,40,11,aloud,old,blue,1413.5772479000007,None,1413.5772479000007,None,5,0.8087405000005674,1413.5772479000007,None,0.8087405000005674,1414.4146961999977,None,1414.928589799998,None,1414.928589799998,None,f,0.7053826999981538,1414.928589799998,None,0.7053826999981538,,,119 Aloud,001,2022_Dec_01_1553,ProdSingRedoBetween,2021.2.3,59.70919235000863,
,,,,11,0,11,0,,,,,,,,,,,,,,,,,,,,,,1422.5194405000002,None,,,,,,,,,,,,,,,,,congress,116,12,aloud,new,null,1416.1756327999974,None,1416.1756327999974,None,4,3.9784275999991223,1416.1756327999974,None,3.9784275999991223,1420.1836997999999,None,1420.6929953,None,1420.6929953,None,f,1.796959600000264,1420.6929953,None,1.796959600000264,,,119 Aloud,001,2022_Dec_01_1553,ProdSingRedoBetween,2021.2.3,59.70919235000863,
,,,,12,0,12,0,,,,,,,,,,,,,,,,,,,,,,1426.2064305999993,None,,,,,,,,,,,,,,,,,pressure,1,13,aloud,old,yellow,1423.0273452000001,None,1423.0273452000001,None,5,2.2305787000004784,1423.0273452000001,None,2.2305787000004784,1425.2928536,None,1425.8101336,None,1425.8101336,None,f,0.37584269999933895,1425.8101336,None,0.37584269999933895,,,119 Aloud,001,2022_Dec_01_1553,ProdSingRedoBetween,2021.2.3,59.70919235000863,
,,,,13,0,13,0,,,,,,,,,,,,,,,,,,,,,,1430.5648474000009,None,,,,,,,,,,,,,,,,,problem,170,14,aloud,new,null,1426.7190606000004,None,1426.7190606000004,None,4,3.2268600999996124,1426.7190606000004,None,3.2268600999996124,1429.9798506999978,None,1430.4956146000004,None,1430.4956146000004,None,r,0.04247839999879943,1430.4956146000004,None,0.04247839999879943,,,119 Aloud,001,2022_Dec_01_1553,ProdSingRedoBetween,2021.2.3,59.70919235000863,
,,,,14,0,14,0,,,,,,,,,,,,,,,,,,,,,,1434.000989799999,None,,,,,,,,,,,,,,,,,grade,17,15,aloud,old,yellow,1431.0808037999996,None,1431.0808037999996,None,6,1.7213265000027604,1431.0808037999996,None,1.7213265000027604,1432.8349348999982,None,1433.3470500999974,None,1433.3470500999974,None,r,0.6310198999999557,1433.3470500999974,None,0.6310198999999557,,,119 Aloud,001,2022_Dec_01_1553,ProdSingRedoBetween,2021.2.3,59.70919235000863,
,,,,15,0,15,0,,,,,,,,,,,,,,,,,,,,,,1438.4187187999996,None,,,,,,,,,,,,,,,,,junior,49,16,aloud,old,blue,1434.5206733999985,None,1434.5206733999985,None,3,2.049306000000797,1434.5206733999985,None,2.049306000000797,1436.6011942999976,None,1437.1049964999984,None,1437.1049964999984,None,f,1.2889751999973669,1437.1049964999984,None,1.2889751999973669,,,119 Aloud,001,2022_Dec_01_1553,ProdSingRedoBetween,2021.2.3,59.70919235000863,
,,,,16,0,16,0,,,,,,,,,,,,,,,,,,,,,,1441.1380551999973,None,,,,,,,,,,,,,,,,,display,114,17,aloud,new,null,1438.9325637999973,None,1438.9325637999973,None,4,1.3733676000010746,1438.9325637999973,None,1.3733676000010746,1440.3382851999995,None,1440.8431514000004,None,1440.8431514000004,None,r,0.2709891000013158,1440.8431514000004,None,0.2709891000013158,,,119 Aloud,001,2022_Dec_01_1553,ProdSingRedoBetween,2021.2.3,59.70919235000863,
,,,,17,0,17,0,,,,,,,,,,,,,,,,,,,,,,1443.7739192000008,None,,,,,,,,,,,,,,,,,partner,107,18,aloud,new,null,1441.6501648999983,None,1441.6501648999983,None,5,1.263966000002256,1441.6501648999983,None,1.263966000002256,1442.9485387999994,None,1443.4569601000003,None,1443.4569601000003,None,f,0.2890269999988959,1443.4569601000003,None,0.2890269999988959,,,119 Aloud,001,2022_Dec_01_1553,ProdSingRedoBetween,2021.2.3,59.70919235000863,
,,,,18,0,18,0,,,,,,,,,,,,,,,,,,,,,,1447.4608659999976,None,,,,,,,,,,,,,,,,,tennis,146,19,aloud,new,null,1444.2934048999996,None,1444.2934048999996,None,3,2.5646277999985614,1444.2934048999996,None,2.5646277999985614,1446.8823171999975,None,1447.3967028000006,None,1447.3967028000006,None,f,0.04515309999987949,1447.3967028000006,None,0.04515309999987949,,,119 Aloud,001,2022_Dec_01_1553,ProdSingRedoBetween,2021.2.3,59.70919235000863,
,,,,19,0,19,0,,,,,,,,,,,,,,,,,,,,,,1450.163711199999,None,,,,,,,,,,,,,,,,,dozen,83,20,aloud,old,red,1447.966141099998,None,1447.966141099998,None,6,1.4518313999979,1447.966141099998,None,1.4518313999979,1449.4475184999974,None,1449.9556415999978,None,1449.9556415999978,None,r,0.1823298999988765,1449.9556415999978,None,0.1823298999988765,,,119 Aloud,001,2022_Dec_01_1553,ProdSingRedoBetween,2021.2.3,59.70919235000863,
,,,,20,0,20,0,,,,,,,,,,,,,,,,,,,,,,1454.2514233999973,None,,,,,,,,,,,,,,,,,clean,148,21,aloud,new,null,1450.6737427000007,None,1450.6737427000007,None,5,2.288351999999577,1450.6737427000007,None,2.288351999999577,1452.9921920999986,None,1453.5004279999994,None,1453.5004279999994,None,f,0.7336298000009265,1453.5004279999994,None,0.7336298000009265,,,119 Aloud,001,2022_Dec_01_1553,ProdSingRedoBetween,2021.2.3,59.70919235000863,
,,,,21,0,21,0,,,,,,,,,,,,,,,,,,,,,,1456.5200263000006,None,,,,,,,,,,,,,,,,,election,134,22,aloud,new,null,1454.7635042999973,None,1454.7635042999973,None,4,1.1425558000009914,1454.7635042999973,None,1.1425558000009914,1455.941251799999,None,1456.4565894999978,None,1456.4565894999978,None,f,0.03336120000312803,1456.4565894999978,None,0.03336120000312803,,,119 Aloud,001,2022_Dec_01_1553,ProdSingRedoBetween,2021.2.3,59.70919235000863,
,,,,22,0,22,0,,,,,,,,,,,,,,,,,,,,,,1462.0922270999981,None,,,,,,,,,,,,,,,,,contract,19,23,aloud,old,yellow,1457.0270265,None,1457.0270265,None,5,2.471156499999779,1457.0270265,None,2.471156499999779,1459.5345018000007,None,1460.0412647999983,None,1460.0412647999983,None,f,2.032711299998482,1460.0412647999983,None,2.032711299998482,,,119 Aloud,001,2022_Dec_01_1553,ProdSingRedoBetween,2021.2.3,59.70919235000863,
,,,,23,0,23,0,,,,,,,,,,,,,,,,,,,,,,1465.4286573999998,None,,,,,,,,,,,,,,,,,skill,10,24,aloud,old,yellow,1462.6151260000006,None,1462.6151260000006,None,3,1.2508617999992566,1462.6151260000006,None,1.2508617999992566,1463.8958665999999,None,1464.4169174999988,None,1464.4169174999988,None,f,0.9929658000000927,1464.4169174999988,None,0.9929658000000927,,,119 Aloud,001,2022_Dec_01_1553,ProdSingRedoBetween,2021.2.3,59.70919235000863,
,,,,24,0,24,0,,,,,,,,,,,,,,,,,,,,,,1469.5190936,None,,,,,,,,,,,,,,,,,edition,8,25,aloud,old,yellow,1465.9404122999986,None,1465.9404122999986,None,4,2.445698600000469,1465.9404122999986,None,2.445698600000469,1468.4216802999981,None,1468.9380920999974,None,1468.9380920999974,None,f,0.5519029000024602,1468.9380920999974,None,0.5519029000024602,,,119 Aloud,001,2022_Dec_01_1553,ProdSingRedoBetween,2021.2.3,59.70919235000863,
,,,,25,0,25,0,,,,,,,,,,,,,,,,,,,,,,1476.0228644999988,None,,,,,,,,,,,,,,,,,motion,140,26,aloud,new,null,1470.0432167,None,1470.0432167,None,5,5.118795800000953,1470.0432167,None,5.118795800000953,1475.1905549999974,None,1475.7130935999994,None,1475.7130935999994,None,f,0.28890060000048834,1475.7130935999994,None,0.28890060000048834,,,119 Aloud,001,2022_Dec_01_1553,ProdSingRedoBetween,2021.2.3,59.70919235000863,
,,,,26,0,26,0,,,,,,,,,,,,,,,,,,,,,,1479.1144691000009,None,,,,,,,,,,,,,,,,,payment,95,27,aloud,new,null,1476.5467427999974,None,1476.5467427999974,None,2,1.551306500001374,1476.5467427999974,None,1.551306500001374,1478.1339821999973,None,1478.643675299998,None,1478.643675299998,None,f,0.4467253000002529,1478.643675299998,None,0.4467253000002529,,,119 Aloud,001,2022_Dec_01_1553,ProdSingRedoBetween,2021.2.3,59.70919235000863,
,,,,27,0,27,0,,,,,,,,,,,,,,,,,,,,,,1482.3349944999973,None,,,,,,,,,,,,,,,,,growth,100,28,aloud,new,null,1479.6298291999992,None,1479.6298291999992,None,5,1.7801593000003777,1479.6298291999992,None,1.7801593000003777,1481.4316987999991,None,1481.9521038999992,None,1481.9521038999992,None,r,0.3541521000006469,1481.9521038999992,None,0.3541521000006469,,,119 Aloud,001,2022_Dec_01_1553,ProdSingRedoBetween,2021.2.3,59.70919235000863,
,,,,28,0,28,0,,,,,,,,,,,,,,,,,,,,,,1487.0201333000005,None,,,,,,,,,,,,,,,,,character,155,29,aloud,new,null,1482.849496499999,None,1482.849496499999,None,5,3.552645499999926,1482.849496499999,None,3.552645499999926,1486.4373529999975,None,1486.9505995,None,1486.9505995,None,f,0.04357289999825298,1486.9505995,None,0.04357289999825298,,,119 Aloud,001,2022_Dec_01_1553,ProdSingRedoBetween,2021.2.3,59.70919235000863,
,,,,29,0,29,0,,,,,,,,,,,,,,,,,,,,,,1489.2527091999982,None,,,,,,,,,,,,,,,,,stranger,76,30,aloud,old,red,1487.5521692999973,None,1487.5521692999973,None,5,1.0658038000001397,1487.5521692999973,None,1.0658038000001397,1488.6437779999978,None,1489.1639146999987,None,1489.1639146999987,None,r,0.06208630000037374,1489.1639146999987,None,0.06208630000037374,,,119 Aloud,001,2022_Dec_01_1553,ProdSingRedoBetween,2021.2.3,59.70919235000863,
,,,,30,0,30,0,,,,,,,,,,,,,,,,,,,,,,1492.0722465,None,,,,,,,,,,,,,,,,,republic,111,31,aloud,new,null,1489.7710387000006,None,1489.7710387000006,None,6,1.6390299999984563,1489.7710387000006,None,1.6390299999984563,1491.4414734999991,None,1491.9615640999982,None,1491.9615640999982,None,f,0.0884632999986934,1491.9615640999982,None,0.0884632999986934,,,119 Aloud,001,2022_Dec_01_1553,ProdSingRedoBetween,2021.2.3,59.70919235000863,
,,,,31,0,31,0,,,,,,,,,,,,,,,,,,,,,,1493.8242771000005,None,,,,,,,,,,,,,,,,,personnel,53,32,aloud,old,blue,1492.5785954999992,None,1492.5785954999992,None,5,0.5836326999997254,1492.5785954999992,None,0.5836326999997254,1493.1993999000006,None,1493.7170484999988,None,1493.7170484999988,None,f,0.07696330000180751,1493.7170484999988,None,0.07696330000180751,,,119 Aloud,001,2022_Dec_01_1553,ProdSingRedoBetween,2021.2.3,59.70919235000863,
,,,,32,0,32,0,,,,,,,,,,,,,,,,,,,,,,1496.3430406999978,None,,,,,,,,,,,,,,,,,military,50,33,aloud,old,blue,1494.3301250999975,None,1494.3301250999975,None,4,0.8320146999976714,1494.3301250999975,None,0.8320146999976714,1495.199061899999,None,1495.7093141999976,None,1495.7093141999976,None,f,0.6046965999994427,1495.7093141999976,None,0.6046965999994427,,,119 Aloud,001,2022_Dec_01_1553,ProdSingRedoBetween,2021.2.3,59.70919235000863,
,,,,33,0,33,0,,,,,,,,,,,,,,,,,,,,,,1499.6297661999997,None,,,,,,,,,,,,,,,,,childhood,54,34,aloud,old,blue,1496.8530274999976,None,1496.8530274999976,None,5,2.1810930999999982,1496.8530274999976,None,2.1810930999999982,1499.0680207999976,None,1499.5815101999979,None,1499.5815101999979,None,f,0.02050009999948088,1499.5815101999979,None,0.02050009999948088,,,119 Aloud,001,2022_Dec_01_1553,ProdSingRedoBetween,2021.2.3,59.70919235000863,
,,,,34,0,34,0,,,,,,,,,,,,,,,,,,,,,,1501.9654329000005,None,,,,,,,,,,,,,,,,,produce,68,35,aloud,old,red,1500.1444558000003,None,1500.1444558000003,None,3,1.0175362000009045,1500.1444558000003,None,1.0175362000009045,1501.184493599998,None,1501.7005261999984,None,1501.7005261999984,None,r,0.23742520000087097,1501.7005261999984,None,0.23742520000087097,,,119 Aloud,001,2022_Dec_01_1553,ProdSingRedoBetween,2021.2.3,59.70919235000863,
,,,,35,0,35,0,,,,,,,,,,,,,,,,,,,,,,1506.6877327999973,None,,,,,,,,,,,,,,,,,sight,157,36,aloud,new,null,1502.4774063000004,None,1502.4774063000004,None,5,3.2448108999997203,1502.4774063000004,None,3.2448108999997203,1505.7607934999978,None,1506.2789857999996,None,1506.2789857999996,None,f,0.3790791999999783,1506.2789857999996,None,0.3790791999999783,,,119 Aloud,001,2022_Dec_01_1553,ProdSingRedoBetween,2021.2.3,59.70919235000863,
,,,,36,0,36,0,,,,,,,,,,,,,,,,,,,,,,1509.6064087999985,None,,,,,,,,,,,,,,,,,waste,118,37,aloud,new,null,1507.1965954000007,None,1507.1965954000007,None,6,1.6614670999988448,1507.1965954000007,None,1.6614670999988448,1508.8905551999997,None,1509.4103765,None,1509.4103765,None,r,0.16763750000245636,1509.4103765,None,0.16763750000245636,,,119 Aloud,001,2022_Dec_01_1553,ProdSingRedoBetween,2021.2.3,59.70919235000863,
,,,,37,0,37,0,,,,,,,,,,,,,,,,,,,,,,1511.9102099999982,None,,,,,,,,,,,,,,,,,guard,90,38,aloud,new,null,1510.1110368000009,None,1510.1110368000009,None,3,1.0429182000007131,1510.1110368000009,None,1.0429182000007131,1511.1831985999997,None,1511.6951725,None,1511.6951725,None,f,0.18684030000076746,1511.6951725,None,0.18684030000076746,,,119 Aloud,001,2022_Dec_01_1553,ProdSingRedoBetween,2021.2.3,59.70919235000863,
,,,,38,0,38,0,,,,,,,,,,,,,,,,,,,,,,1516.516754799999,None,,,,,,,,,,,,,,,,,audience,147,39,aloud,new,null,1512.4135410999988,None,1512.4135410999988,None,1,3.404773499998555,1512.4135410999988,None,3.404773499998555,1515.864022499998,None,1516.3735334999983,None,1516.3735334999983,None,n,0.12453409999943688,1516.3735334999983,None,0.12453409999943688,,,119 Aloud,001,2022_Dec_01_1553,ProdSingRedoBetween,2021.2.3,59.70919235000863,
,,,,39,0,39,0,,,,,,,,,,,,,,,,,,,,,,1522.369131899999,None,,,,,,,,,,,,,,,,,murder,121,40,aloud,new,null,1517.0436157999975,None,1517.0436157999975,None,2,3.566437000001315,1517.0436157999975,None,3.566437000001315,1520.6418496999977,None,1521.1521441000004,None,1521.1521441000004,None,f,1.2018611999992572,1521.1521441000004,None,1.2018611999992572,,,119 Aloud,001,2022_Dec_01_1553,ProdSingRedoBetween,2021.2.3,59.70919235000863,
,,,,40,0,40,0,,,,,,,,,,,,,,,,,,,,,,1524.8380991999984,None,,,,,,,,,,,,,,,,,sound,38,41,aloud,old,blue,1522.8730644999996,None,1522.8730644999996,None,3,0.9609504000000015,1522.8730644999996,None,0.9609504000000015,1523.8561300000001,None,1524.3784503999996,None,1524.3784503999996,None,n,0.43966530000034254,1524.3784503999996,None,0.43966530000034254,,,119 Aloud,001,2022_Dec_01_1553,ProdSingRedoBetween,2021.2.3,59.70919235000863,
,,,,41,0,41,0,,,,,,,,,,,,,,,,,,,,,,1527.4909473000007,None,,,,,,,,,,,,,,,,,people,141,42,aloud,new,null,1525.3491006000004,None,1525.3491006000004,None,4,1.2691075000002456,1525.3491006000004,None,1.2691075000002456,1526.6414261999998,None,1527.1451555999993,None,1527.1451555999993,None,n,0.3208639000004041,1527.1451555999993,None,0.3208639000004041,,,119 Aloud,001,2022_Dec_01_1553,ProdSingRedoBetween,2021.2.3,59.70919235000863,
,,,,42,0,42,0,,,,,,,,,,,,,,,,,,,,,,1539.0191663999976,None,,,,,,,,,,,,,,,,,throw,37,43,aloud,old,blue,1528.0047796,None,1528.0047796,None,6,3.9733263999987685,1528.0047796,None,3.9733263999987685,1532.007409599999,None,1532.521016499999,None,1532.521016499999,None,r,6.480970900000102,1532.521016499999,None,6.480970900000102,,,119 Aloud,001,2022_Dec_01_1553,ProdSingRedoBetween,2021.2.3,59.70919235000863,
,,,,43,0,43,0,,,,,,,,,,,,,,,,,,,,,,1541.9221736,None,,,,,,,,,,,,,,,,,comedy,34,44,aloud,old,blue,1539.5329846999994,None,1539.5329846999994,None,6,1.7730400999971607,1539.5329846999994,None,1.7730400999971607,1541.3265319999991,None,1541.8387334,None,1541.8387334,None,r,0.05928430000130902,1541.8387334,None,0.05928430000130902,,,119 Aloud,001,2022_Dec_01_1553,ProdSingRedoBetween,2021.2.3,59.70919235000863,
,,,,44,0,44,0,,,,,,,,,,,,,,,,,,,,,,1544.4412250999994,None,,,,,,,,,,,,,,,,,orchestra,42,45,aloud,old,blue,1542.434527999998,None,1542.434527999998,None,6,1.2714320000013686,1542.434527999998,None,1.2714320000013686,1543.7275431999988,None,1544.2479763999982,None,1544.2479763999982,None,r,0.1779951999997138,1544.2479763999982,None,0.1779951999997138,,,119 Aloud,001,2022_Dec_01_1553,ProdSingRedoBetween,2021.2.3,59.70919235000863,
,,,,45,0,45,0,,,,,,,,,,,,,,,,,,,,,,1548.178385299998,None,,,,,,,,,,,,,,,,,point,80,46,aloud,old,red,1544.9514302999996,None,1544.9514302999996,None,6,2.0186105000029784,1544.9514302999996,None,2.0186105000029784,1546.9967029,None,1547.5126538999975,None,1547.5126538999975,None,f,0.6493203999998514,1547.5126538999975,None,0.6493203999998514,,,119 Aloud,001,2022_Dec_01_1553,ProdSingRedoBetween,2021.2.3,59.70919235000863,
,,,,46,0,46,0,,,,,,,,,,,,,,,,,,,,,,1552.6503214000004,None,,,,,,,,,,,,,,,,,mechanical,124,47,aloud,new,null,1548.6914682999995,None,1548.6914682999995,None,1,2.550617000000784,1548.6914682999995,None,2.550617000000784,1551.2698378999994,None,1551.7830598,None,1551.7830598,None,f,0.8429985999973724,1551.7830598,None,0.8429985999973724,,,119 Aloud,001,2022_Dec_01_1553,ProdSingRedoBetween,2021.2.3,59.70919235000863,
,,,,47,0,47,0,,,,,,,,,,,,,,,,,,,,,,1558.5386445000004,None,,,,,,,,,,,,,,,,,swift,101,48,aloud,new,null,1553.1628003999976,None,1553.1628003999976,None,2,1.5192102000000887,1553.1628003999976,None,1.5192102000000887,1554.7031355,None,1555.2065043000002,None,1555.2065043000002,None,f,3.307522200000676,1555.2065043000002,None,3.307522200000676,,,119 Aloud,001,2022_Dec_01_1553,ProdSingRedoBetween,2021.2.3,59.70919235000863,
,,,,48,0,48,0,,,,,,,,,,,,,,,,,,,,,,1579.0257591000009,None,,,,,,,,,,,,,,,,,brief,164,49,aloud,new,null,1559.0525706000008,None,1559.0525706000008,None,5,18.733497699999134,1559.0525706000008,None,18.733497699999134,1577.811976699999,None,1578.3252881999979,None,1578.3252881999979,None,f,0.676762899998721,1578.3252881999979,None,0.676762899998721,,,119 Aloud,001,2022_Dec_01_1553,ProdSingRedoBetween,2021.2.3,59.70919235000863,
,,,,49,0,49,0,,,,,,,,,,,,,,,,,,,,,,1582.6709607999983,None,,,,,,,,,,,,,,,,,union,129,50,aloud,new,null,1579.5359236000004,None,1579.5359236000004,None,6,2.410059000001638,1579.5359236000004,None,2.410059000001638,1581.9644033999975,None,1582.4828699999998,None,1582.4828699999998,None,r,0.15933819999918342,1582.4828699999998,None,0.15933819999918342,,,119 Aloud,001,2022_Dec_01_1553,ProdSingRedoBetween,2021.2.3,59.70919235000863,
,,,,50,0,50,0,,,,,,,,,,,,,,,,,,,,,,1584.9984972999991,None,,,,,,,,,,,,,,,,,spoke,87,51,aloud,old,red,1583.1896253999985,None,1583.1896253999985,None,5,0.9164211999996041,1583.1896253999985,None,0.9164211999996041,1584.1358794000007,None,1584.6523022999972,None,1584.6523022999972,None,f,0.32571939999979804,1584.6523022999972,None,0.32571939999979804,,,119 Aloud,001,2022_Dec_01_1553,ProdSingRedoBetween,2021.2.3,59.70919235000863,
,,,,51,0,51,0,,,,,,,,,,,,,,,,,,,,,,1588.6870056999978,None,,,,,,,,,,,,,,,,,population,167,52,aloud,new,null,1585.5109836999982,None,1585.5109836999982,None,2,2.2510648999996192,1585.5109836999982,None,2.2510648999996192,1587.786175199999,None,1588.2922617999975,None,1588.2922617999975,None,f,0.365821399998822,1588.2922617999975,None,0.365821399998822,,,119 Aloud,001,2022_Dec_01_1553,ProdSingRedoBetween,2021.2.3,59.70919235000863,
,,,,52,0,52,0,,,,,,,,,,,,,,,,,,,,,,1593.8926253999998,None,,,,,,,,,,,,,,,,,member,159,53,aloud,new,null,1589.2043405999975,None,1589.2043405999975,None,3,3.9657444000004034,1589.2043405999975,None,3.9657444000004034,1593.2122495000003,None,1593.7291248999973,None,1593.7291248999973,None,f,0.13693169999896782,1593.7291248999973,None,0.13693169999896782,,,119 Aloud,001,2022_Dec_01_1553,ProdSingRedoBetween,2021.2.3,59.70919235000863,
,,,,53,0,53,0,,,,,,,,,,,,,,,,,,,,,,1598.9457122999993,None,,,,,,,,,,,,,,,,,surprise,43,54,aloud,old,blue,1594.4183145999996,None,1594.4183145999996,None,4,3.7517583000008017,1594.4183145999996,None,3.7517583000008017,1598.2000721000004,None,1598.7259433,None,1598.7259433,None,f,0.20426810000208206,1598.7259433,None,0.20426810000208206,,,119 Aloud,001,2022_Dec_01_1553,ProdSingRedoBetween,2021.2.3,59.70919235000863,
,,,,54,0,54,0,,,,,,,,,,,,,,,,,,,,,,1603.5667278,None,,,,,,,,,,,,,,,,,breath,89,55,aloud,old,red,1599.459186199998,None,1599.459186199998,None,6,3.2068408000013733,1599.459186199998,None,3.2068408000013733,1602.683353299999,None,1603.1833881999992,None,1603.1833881999992,None,r,0.3547961000003852,1603.1833881999992,None,0.3547961000003852,,,119 Aloud,001,2022_Dec_01_1553,ProdSingRedoBetween,2021.2.3,59.70919235000863,
,,,,55,0,55,0,,,,,,,,,,,,,,,,,,,,,,1608.3926747000005,None,,,,,,,,,,,,,,,,,pretty,103,56,aloud,new,null,1604.0714236999993,None,1604.0714236999993,None,3,3.5307663999992656,1604.0714236999993,None,3.5307663999992656,1607.6266926999997,None,1608.1437796999999,None,1608.1437796999999,None,f,0.21846699999878183,1608.1437796999999,None,0.21846699999878183,,,119 Aloud,001,2022_Dec_01_1553,ProdSingRedoBetween,2021.2.3,59.70919235000863,
,,,,56,0,56,0,,,,,,,,,,,,,,,,,,,,,,1611.626178399998,None,,,,,,,,,,,,,,,,,estate,79,57,aloud,old,red,1608.9238355999987,None,1608.9238355999987,None,6,1.758431300000666,1608.9238355999987,None,1.758431300000666,1610.713040999999,None,1611.2292464999991,None,1611.2292464999991,None,f,0.38082980000035604,1611.2292464999991,None,0.38082980000035604,,,119 Aloud,001,2022_Dec_01_1553,ProdSingRedoBetween,2021.2.3,59.70919235000863,
,,,,57,0,57,0,,,,,,,,,,,,,,,,,,,,,,1615.1974717999983,None,,,,,,,,,,,,,,,,,working,179,58,aloud,new,null,1612.1419695999975,None,1612.1419695999975,None,2,1.7640613000003214,1612.1419695999975,None,1.7640613000003214,1613.9323418999993,None,1614.4510206999985,None,1614.4510206999985,None,f,0.719178200000897,1614.4510206999985,None,0.719178200000897,,,119 Aloud,001,2022_Dec_01_1553,ProdSingRedoBetween,2021.2.3,59.70919235000863,
,,,,58,0,58,0,,,,,,,,,,,,,,,,,,,,,,1618.1997821000004,None,,,,,,,,,,,,,,,,,territory,27,59,aloud,old,yellow,1615.721815099998,None,1615.721815099998,None,6,1.5522434000013163,1615.721815099998,None,1.5522434000013163,1617.3004677999998,None,1617.8224014000007,None,1617.8224014000007,None,r,0.3477904999999737,1617.8224014000007,None,0.3477904999999737,,,119 Aloud,001,2022_Dec_01_1553,ProdSingRedoBetween,2021.2.3,59.70919235000863,
,,,,59,0,59,0,,,,,,,,,,,,,,,,,,,,,,1620.7508054999998,None,,,,,,,,,,,,,,,,,article,128,60,aloud,new,null,1618.7088355999986,None,1618.7088355999986,None,6,1.3973609000022407,1618.7088355999986,None,1.3973609000022407,1620.1435612999994,None,1620.6531078000007,None,1620.6531078000007,None,r,0.0769432000015513,1620.6531078000007,None,0.0769432000015513,,,119 Aloud,001,2022_Dec_01_1553,ProdSingRedoBetween,2021.2.3,59.70919235000863,
,,,,60,0,60,0,,,,,,,,,,,,,,,,,,,,,,1623.4384881999977,None,,,,,,,,,,,,,,,,,oxygen,28,61,aloud,old,yellow,1621.2624520999998,None,1621.2624520999998,None,6,1.251641999999265,1621.2624520999998,None,1.251641999999265,1622.5394987,None,1623.0594281999984,None,1623.0594281999984,None,r,0.358943499999441,1623.0594281999984,None,0.358943499999441,,,119 Aloud,001,2022_Dec_01_1553,ProdSingRedoBetween,2021.2.3,59.70919235000863,
,,,,61,0,61,0,,,,,,,,,,,,,,,,,,,,,,1625.639102699999,None,,,,,,,,,,,,,,,,,block,33,62,aloud,old,blue,1623.9577083999975,None,1623.9577083999975,None,6,1.036264200000005,1623.9577083999975,None,1.036264200000005,1625.024817999998,None,1625.5456147999976,None,1625.5456147999976,None,r,0.0724809000021196,1625.5456147999976,None,0.0724809000021196,,,119 Aloud,001,2022_Dec_01_1553,ProdSingRedoBetween,2021.2.3,59.70919235000863,
,,,,62,0,62,0,,,,,,,,,,,,,,,,,,,,,,1628.542023599999,None,,,,,,,,,,,,,,,,,cover,3,63,aloud,old,yellow,1626.1494314999982,None,1626.1494314999982,None,5,1.3326319999978296,1626.1494314999982,None,1.3326319999978296,1627.5111732000005,None,1628.0249177999976,None,1628.0249177999976,None,f,0.4890672000001359,1628.0249177999976,None,0.4890672000001359,,,119 Aloud,001,2022_Dec_01_1553,ProdSingRedoBetween,2021.2.3,59.70919235000863,
,,,,63,0,63,0,,,,,,,,,,,,,,,,,,,,,,1630.8609025000005,None,,,,,,,,,,,,,,,,,primary,138,64,aloud,new,null,1629.051892899999,None,1629.051892899999,None,4,1.2142973999980313,1629.051892899999,None,1.2142973999980313,1630.3044441999991,None,1630.8140181999988,None,1630.8140181999988,None,r,0.02000950000001467,1630.8140181999988,None,0.02000950000001467,,,119 Aloud,001,2022_Dec_01_1553,ProdSingRedoBetween,2021.2.3,59.70919235000863,
,,,,64,0,64,0,,,,,,,,,,,,,,,,,,,,,,1639.7540171,None,,,,,,,,,,,,,,,,,expansion,23,65,aloud,old,yellow,1631.3716281999987,None,1631.3716281999987,None,5,7.422421400002349,1631.3716281999987,None,7.422421400002349,1638.8231813999992,None,1639.3417824999997,None,1639.3417824999997,None,r,0.3962968000014371,1639.3417824999997,None,0.3962968000014371,,,119 Aloud,001,2022_Dec_01_1553,ProdSingRedoBetween,2021.2.3,59.70919235000863,
,,,,65,0,65,0,,,,,,,,,,,,,,,,,,,,,,1641.6744953999987,None,,,,,,,,,,,,,,,,,raise,158,66,aloud,new,null,1640.2719112999985,None,1640.2719112999985,None,6,0.6902190000000701,1640.2719112999985,None,0.6902190000000701,1640.9937935999988,None,1641.5142885999994,None,1641.5142885999994,None,r,0.1358777999994345,1641.5142885999994,None,0.1358777999994345,,,119 Aloud,001,2022_Dec_01_1553,ProdSingRedoBetween,2021.2.3,59.70919235000863,
,,,,66,0,66,0,,,,,,,,,,,,,,,,,,,,,,1643.3921117999998,None,,,,,,,,,,,,,,,,,hunger,14,67,aloud,old,yellow,1642.1929294000001,None,1642.1929294000001,None,4,0.4331841999992321,1642.1929294000001,None,0.4331841999992321,1642.6560556000004,None,1643.1604306000008,None,1643.1604306000008,None,r,0.2097503000004508,1643.1604306000008,None,0.2097503000004508,,,119 Aloud,001,2022_Dec_01_1553,ProdSingRedoBetween,2021.2.3,59.70919235000863,
,,,,67,0,67,0,,,,,,,,,,,,,,,,,,,,,,1646.9602807999981,None,,,,,,,,,,,,,,,,,master,139,68,aloud,new,null,1643.9158126999973,None,1643.9158126999973,None,5,1.3822925999993458,1643.9158126999973,None,1.3822925999993458,1645.3322362,None,1645.846848199999,None,1645.846848199999,None,f,1.083173800001532,1645.846848199999,None,1.083173800001532,,,119 Aloud,001,2022_Dec_01_1553,ProdSingRedoBetween,2021.2.3,59.70919235000863,
,,,,68,0,68,0,,,,,,,,,,,,,,,,,,,,,,1649.0457754999989,None,,,,,,,,,,,,,,,,,break,154,69,aloud,new,null,1647.4662824000006,None,1647.4662824000006,None,6,0.9358356999982789,1647.4662824000006,None,0.9358356999982789,1648.4316617999975,None,1648.9461287999984,None,1648.9461287999984,None,f,0.07185609999942244,1648.9461287999984,None,0.07185609999942244,,,119 Aloud,001,2022_Dec_01_1553,ProdSingRedoBetween,2021.2.3,59.70919235000863,
,,,,69,0,69,0,,,,,,,,,,,,,,,,,,,,,,1650.9310039999982,None,,,,,,,,,,,,,,,,,sweet,172,70,aloud,new,null,1649.5578987000008,None,1649.5578987000008,None,3,0.7803191000020888,1649.5578987000008,None,0.7803191000020888,1650.374227799999,None,1650.8845550999977,None,1650.8845550999977,None,f,0.029450500001985347,1650.8845550999977,None,0.029450500001985347,,,119 Aloud,001,2022_Dec_01_1553,ProdSingRedoBetween,2021.2.3,59.70919235000863,
,,,,70,0,70,0,,,,,,,,,,,,,,,,,,,,,,1653.4001342999982,None,,,,,,,,,,,,,,,,,order,123,71,aloud,new,null,1651.4409314000004,None,1651.4409314000004,None,4,0.8091271000012057,1651.4409314000004,None,0.8091271000012057,1652.2674315000004,None,1652.7872578999995,None,1652.7872578999995,None,f,0.5828153000002203,1652.7872578999995,None,0.5828153000002203,,,119 Aloud,001,2022_Dec_01_1553,ProdSingRedoBetween,2021.2.3,59.70919235000863,
,,,,71,0,71,0,,,,,,,,,,,,,,,,,,,,,,1655.7191429999984,None,,,,,,,,,,,,,,,,,rough,70,72,aloud,old,red,1653.9165472999994,None,1653.9165472999994,None,5,1.2135305000010703,1653.9165472999994,None,1.2135305000010703,1655.1541767999988,None,1655.6739921999979,None,1655.6739921999979,None,f,0.023993200000404613,1655.6739921999979,None,0.023993200000404613,,,119 Aloud,001,2022_Dec_01_1553,ProdSingRedoBetween,2021.2.3,59.70919235000863,
,,,,72,0,72,0,,,,,,,,,,,,,,,,,,,,,,1658.4719736000006,None,,,,,,,,,,,,,,,,,marriage,2,73,aloud,old,yellow,1656.2348342000005,None,1656.2348342000005,None,6,1.271358499998314,1656.2348342000005,None,1.271358499998314,1657.5457041000009,None,1658.0576959999999,None,1658.0576959999999,None,r,0.3843554999984917,1658.0576959999999,None,0.3843554999984917,,,119 Aloud,001,2022_Dec_01_1553,ProdSingRedoBetween,2021.2.3,59.70919235000863,
,,,,73,0,73,0,,,,,,,,,,,,,,,,,,,,,,1661.7751413999977,None,,,,,,,,,,,,,,,,,recall,168,74,aloud,new,null,1658.979875699999,None,1658.979875699999,None,2,2.038158300001669,1658.979875699999,None,2.038158300001669,1661.0422333999995,None,1661.5460982999975,None,1661.5460982999975,None,f,0.20001159999810625,1661.5460982999975,None,0.20001159999810625,,,119 Aloud,001,2022_Dec_01_1553,ProdSingRedoBetween,2021.2.3,59.70919235000863,
,,,,74,0,74,0,,,,,,,,,,,,,,,,,,,,,,1664.7126537000004,None,,,,,,,,,,,,,,,,,reading,145,75,aloud,new,null,1662.283145999998,None,1662.283145999998,None,1,1.0549164000003657,1662.283145999998,None,1.0549164000003657,1663.3616500999997,None,1663.8648864999996,None,1663.8648864999996,None,n,0.8173620999987179,1663.8648864999996,None,0.8173620999987179,,,119 Aloud,001,2022_Dec_01_1553,ProdSingRedoBetween,2021.2.3,59.70919235000863,
,,,,75,0,75,0,,,,,,,,,,,,,,,,,,,,,,1669.2211954999984,None,,,,,,,,,,,,,,,,,travel,93,76,aloud,new,null,1665.2255227999995,None,1665.2255227999995,None,4,2.736593899997388,1665.2255227999995,None,2.736593899997388,1667.9863244000007,None,1668.5028153999992,None,1668.5028153999992,None,f,0.6915220000009867,1668.5028153999992,None,0.6915220000009867,,,119 Aloud,001,2022_Dec_01_1553,ProdSingRedoBetween,2021.2.3,59.70919235000863,
,,,,76,0,76,0,,,,,,,,,,,,,,,,,,,,,,1671.618400299998,None,,,,,,,,,,,,,,,,,science,132,77,aloud,new,null,1669.7429926000004,None,1669.7429926000004,None,5,1.027069499999925,1669.7429926000004,None,1.027069499999925,1670.8090367000004,None,1671.3285027999991,None,1671.3285027999991,None,f,0.26565910000135773,1671.3285027999991,None,0.26565910000135773,,,119 Aloud,001,2022_Dec_01_1553,ProdSingRedoBetween,2021.2.3,59.70919235000863,
,,,,77,0,77,0,,,,,,,,,,,,,,,,,,,,,,1673.8418348999985,None,,,,,,,,,,,,,,,,,entrance,48,78,aloud,old,blue,1672.1342540999976,None,1672.1342540999976,None,6,1.027891500001715,1672.1342540999976,None,1.027891500001715,1673.1896858,None,1673.7093184999976,None,1673.7093184999976,None,r,0.10897560000012163,1673.7093184999976,None,0.10897560000012163,,,119 Aloud,001,2022_Dec_01_1553,ProdSingRedoBetween,2021.2.3,59.70919235000863,
,,,,78,0,78,0,,,,,,,,,,,,,,,,,,,,,,1675.6890428999977,None,,,,,,,,,,,,,,,,,write,94,79,aloud,new,null,1674.3600511999975,None,1674.3600511999975,None,4,0.7140760000002047,1674.3600511999975,None,0.7140760000002047,1675.1064224000002,None,1675.6111973000006,None,1675.6111973000006,None,f,0.06279619999986608,1675.6111973000006,None,0.06279619999986608,,,119 Aloud,001,2022_Dec_01_1553,ProdSingRedoBetween,2021.2.3,59.70919235000863,
,,,,79,0,79,0,,,,,,,,,,,,,,,,,,,,,,1678.4427311,None,,,,,,,,,,,,,,,,,degree,52,80,aloud,old,blue,1676.198285399998,None,1676.198285399998,None,4,1.331680499999493,1676.198285399998,None,1.331680499999493,1677.5576853999992,None,1678.0620256999973,None,1678.0620256999973,None,f,0.3561431000016455,1678.0620256999973,None,0.3561431000016455,,,119 Aloud,001,2022_Dec_01_1553,ProdSingRedoBetween,2021.2.3,59.70919235000863,
,,,,80,0,80,0,,,,,,,,,,,,,,,,,,,,,,1680.5795603000006,None,,,,,,,,,,,,,,,,,household,18,81,aloud,old,yellow,1678.9528002999978,None,1678.9528002999978,None,4,0.753323900000396,1678.9528002999978,None,0.753323900000396,1679.7322674999996,None,1680.2438255999987,None,1680.2438255999987,None,f,0.3182712000016181,1680.2438255999987,None,0.3182712000016181,,,119 Aloud,001,2022_Dec_01_1553,ProdSingRedoBetween,2021.2.3,59.70919235000863,
,,,,81,0,81,0,,,,,,,,,,,,,,,,,,,,,,1683.129913599998,None,,,,,,,,,,,,,,,,,institute,51,82,aloud,old,blue,1681.1101234999987,None,1681.1101234999987,None,6,1.4519586999995227,1681.1101234999987,None,1.4519586999995227,1682.5798044000003,None,1683.0852114000008,None,1683.0852114000008,None,r,0.02084359999935259,1683.0852114000008,None,0.02084359999935259,,,119 Aloud,001,2022_Dec_01_1553,ProdSingRedoBetween,2021.2.3,59.70919235000863,
,,,,82,0,82,0,,,,,,,,,,,,,,,,,,,,,,1686.5999868,None,,,,,,,,,,,,,,,,,bureau,105,83,aloud,new,null,1683.6368786999992,None,1683.6368786999992,None,4,0.845242599996709,1683.6368786999992,None,0.845242599996709,1684.4988869000008,None,1685.0031877999972,None,1685.0031877999972,None,n,1.5669161999976495,1685.0031877999972,None,1.5669161999976495,,,119 Aloud,001,2022_Dec_01_1553,ProdSingRedoBetween,2021.2.3,59.70919235000863,
,,,,83,0,83,0,,,,,,,,,,,,,,,,,,,,,,1689.4861963000003,None,,,,,,,,,,,,,,,,,history,133,84,aloud,new,null,1687.1094635000009,None,1687.1094635000009,None,4,1.5485165999998571,1687.1094635000009,None,1.5485165999998571,1688.6864019999994,None,1689.1899999999987,None,1689.1899999999987,None,f,0.26807340000232216,1689.1899999999987,None,0.26807340000232216,,,119 Aloud,001,2022_Dec_01_1553,ProdSingRedoBetween,2021.2.3,59.70919235000863,
,,,,84,0,84,0,,,,,,,,,,,,,,,,,,,,,,1692.155580499999,None,,,,,,,,,,,,,,,,,fight,97,85,aloud,new,null,1689.9953400999984,None,1689.9953400999984,None,5,1.3747081000001344,1689.9953400999984,None,1.3747081000001344,1691.3940292000007,None,1691.9050805000006,None,1691.9050805000006,None,f,0.23298150000118767,1691.9050805000006,None,0.23298150000118767,,,119 Aloud,001,2022_Dec_01_1553,ProdSingRedoBetween,2021.2.3,59.70919235000863,
,,,,85,0,85,0,,,,,,,,,,,,,,,,,,,,,,1696.2096108999976,None,,,,,,,,,,,,,,,,,music,127,86,aloud,new,null,1692.6561464000006,None,1692.6561464000006,None,3,2.721950099999958,1692.6561464000006,None,2.721950099999958,1695.4169637999985,None,1695.931048999999,None,1695.931048999999,None,f,0.2550556000023789,1695.931048999999,None,0.2550556000023789,,,119 Aloud,001,2022_Dec_01_1553,ProdSingRedoBetween,2021.2.3,59.70919235000863,
,,,,86,0,86,0,,,,,,,,,,,,,,,,,,,,,,1702.0153935999988,None,,,,,,,,,,,,,,,,,hearing,176,87,aloud,new,null,1696.7167200000004,None,1696.7167200000004,None,2,2.9894428999978118,1696.7167200000004,None,2.9894428999978118,1699.7356218999994,None,1700.2531913999992,None,1700.2531913999992,None,f,1.7408876000008604,1700.2531913999992,None,1.7408876000008604,,,119 Aloud,001,2022_Dec_01_1553,ProdSingRedoBetween,2021.2.3,59.70919235000863,
,,,,87,0,87,0,,,,,,,,,,,,,,,,,,,,,,1704.2510533999994,None,,,,,,,,,,,,,,,,,agency,119,88,aloud,new,null,1702.528970899999,None,1702.528970899999,None,3,0.9851345999995829,1702.528970899999,None,0.9851345999995829,1703.5361049999992,None,1704.055911899999,None,1704.055911899999,None,f,0.17012260000046808,1704.055911899999,None,0.17012260000046808,,,119 Aloud,001,2022_Dec_01_1553,ProdSingRedoBetween,2021.2.3,59.70919235000863,
,,,,88,0,88,0,,,,,,,,,,,,,,,,,,,,,,1710.9135831999993,None,,,,,,,,,,,,,,,,,design,44,89,aloud,old,blue,1704.7634752999984,None,1704.7634752999984,None,4,1.238606200000504,1704.7634752999984,None,1.238606200000504,1706.0259425000004,None,1706.5415243999996,None,1706.5415243999996,None,f,4.348647300001176,1706.5415243999996,None,4.348647300001176,,,119 Aloud,001,2022_Dec_01_1553,ProdSingRedoBetween,2021.2.3,59.70919235000863,
,,,,89,0,89,0,,,,,,,,,,,,,,,,,,,,,,1713.132495599999,None,,,,,,,,,,,,,,,,,leader,29,90,aloud,old,blue,1711.4342328999992,None,1711.4342328999992,None,4,0.7118259000017133,1711.4342328999992,None,0.7118259000017133,1712.1770080999995,None,1712.6894319999992,None,1712.6894319999992,None,f,0.4168476999984705,1712.6894319999992,None,0.4168476999984705,,,119 Aloud,001,2022_Dec_01_1553,ProdSingRedoBetween,2021.2.3,59.70919235000863,
,,,,90,0,90,0,,,,,,,,,,,,,,,,,,,,,,1716.3151536000005,None,,,,,,,,,,,,,,,,,husband,73,91,aloud,old,red,1713.6547747999975,None,1713.6547747999975,None,6,2.0274519000013242,1713.6547747999975,None,2.0274519000013242,1715.7238876999982,None,1716.2394668999987,None,1716.2394668999987,None,r,0.05876139999963925,1716.2394668999987,None,0.05876139999963925,,,119 Aloud,001,2022_Dec_01_1553,ProdSingRedoBetween,2021.2.3,59.70919235000863,
,,,,91,0,91,0,,,,,,,,,,,,,,,,,,,,,,1718.6012993999975,None,,,,,,,,,,,,,,,,,country,47,92,aloud,old,blue,1716.8395309000007,None,1716.8395309000007,None,6,0.8665686999993341,1716.8395309000007,None,0.8665686999993341,1717.7334188999994,None,1718.2517397999982,None,1718.2517397999982,None,r,0.3265788999997312,1718.2517397999982,None,0.3265788999997312,,,119 Aloud,001,2022_Dec_01_1553,ProdSingRedoBetween,2021.2.3,59.70919235000863,
,,,,92,0,92,0,,,,,,,,,,,,,,,,,,,,,,1721.0342571,None,,,,,,,,,,,,,,,,,fashion,178,93,aloud,new,null,1719.1236728999975,None,1719.1236728999975,None,6,1.326450799999293,1719.1236728999975,None,1.326450799999293,1720.4742742999988,None,1720.9935148999975,None,1720.9935148999975,None,r,0.024643199998536147,1720.9935148999975,None,0.024643199998536147,,,119 Aloud,001,2022_Dec_01_1553,ProdSingRedoBetween,2021.2.3,59.70919235000863,
,,,,93,0,93,0,,,,,,,,,,,,,,,,,,,,,,1723.0029520999997,None,,,,,,,,,,,,,,,,,watch,5,94,aloud,old,yellow,1721.5443914999996,None,1721.5443914999996,None,4,0.8736441999972158,1721.5443914999996,None,0.8736441999972158,1722.4371178000001,None,1722.9505819999977,None,1722.9505819999977,None,r,0.027663499997288454,1722.9505819999977,None,0.027663499997288454,,,119 Aloud,001,2022_Dec_01_1553,ProdSingRedoBetween,2021.2.3,59.70919235000863,
,,,,94,0,94,0,,,,,,,,,,,,,,,,,,,,,,1725.7631331999983,None,,,,,,,,,,,,,,,,,question,22,95,aloud,old,yellow,1723.5162415999985,None,1723.5162415999985,None,4,1.1578250999991724,1723.5162415999985,None,1.1578250999991724,1724.7065441999985,None,1725.2268669999976,None,1725.2268669999976,None,f,0.5033758999998099,1725.2268669999976,None,0.5033758999998099,,,119 Aloud,001,2022_Dec_01_1553,ProdSingRedoBetween,2021.2.3,59.70919235000863,
,,,,95,0,95,0,,,,,,,,,,,,,,,,,,,,,,1730.1273589999983,None,,,,,,,,,,,,,,,,,narrow,67,96,aloud,old,red,1726.2890834999998,None,1726.2890834999998,None,4,1.240921900000103,1726.2890834999998,None,1.240921900000103,1727.5580183999991,None,1728.0624433999983,None,1728.0624433999983,None,f,2.0436919999992824,1728.0624433999983,None,2.0436919999992824,,,119 Aloud,001,2022_Dec_01_1553,ProdSingRedoBetween,2021.2.3,59.70919235000863,
,,,,96,0,96,0,,,,,,,,,,,,,,,,,,,,,,1733.1855166999994,None,,,,,,,,,,,,,,,,,novel,31,97,aloud,old,blue,1730.6401783000001,None,1730.6401783000001,None,4,0.4659276999991562,1730.6401783000001,None,0.4659276999991562,1731.1291547,None,1731.6307746999992,None,1731.6307746999992,None,f,1.5314489000011235,1731.6307746999992,None,1.5314489000011235,,,119 Aloud,001,2022_Dec_01_1553,ProdSingRedoBetween,2021.2.3,59.70919235000863,
,,,,97,0,97,0,,,,,,,,,,,,,,,,,,,,,,1735.2653384999976,None,,,,,,,,,,,,,,,,,machinery,4,98,aloud,old,yellow,1733.704944099998,None,1733.704944099998,None,4,0.7851706000001286,1733.704944099998,None,0.7851706000001286,1734.521525799999,None,1735.0358830999976,None,1735.0358830999976,None,f,0.19824849999713479,1735.0358830999976,None,0.19824849999713479,,,119 Aloud,001,2022_Dec_01_1553,ProdSingRedoBetween,2021.2.3,59.70919235000863,
,,,,98,0,98,0,,,,,,,,,,,,,,,,,,,,,,1737.4841885999995,None,,,,,,,,,,,,,,,,,finance,85,99,aloud,old,red,1735.782006999998,None,1735.782006999998,None,5,1.0441443999989133,1735.782006999998,None,1.0441443999989133,1736.856361099999,None,1737.3678785999982,None,1737.3678785999982,None,f,0.09812170000077458,1737.3678785999982,None,0.09812170000077458,,,119 Aloud,001,2022_Dec_01_1553,ProdSingRedoBetween,2021.2.3,59.70919235000863,
,,,,99,0,99,0,,,,,,,,,,,,,,,,,,,,,,1740.1368500999997,None,,,,,,,,,,,,,,,,,chief,12,100,aloud,old,yellow,1737.9848292999995,None,1737.9848292999995,None,6,0.9533130999989226,1737.9848292999995,None,0.9533130999989226,1738.9724094999983,None,1739.4888098999982,None,1739.4888098999982,None,r,0.6253329000028316,1739.4888098999982,None,0.6253329000028316,,,119 Aloud,001,2022_Dec_01_1553,ProdSingRedoBetween,2021.2.3,59.70919235000863,
,,,,100,0,100,0,,,,,,,,,,,,,,,,,,,,,,1741.9552955,None,,,,,,,,,,,,,,,,,victory,81,101,aloud,old,red,1740.6489318999993,None,1740.6489318999993,None,4,0.3932351000003109,1740.6489318999993,None,0.3932351000003109,1741.0745011,None,1741.5962222999988,None,1741.5962222999988,None,r,0.34186509999926784,1741.5962222999988,None,0.34186509999926784,,,119 Aloud,001,2022_Dec_01_1553,ProdSingRedoBetween,2021.2.3,59.70919235000863,
,,,,101,0,101,0,,,,,,,,,,,,,,,,,,,,,,1744.1601831999978,None,,,,,,,,,,,,,,,,,search,92,102,aloud,new,null,1742.4835029999995,None,1742.4835029999995,None,4,0.7505653000007442,1742.4835029999995,None,0.7505653000007442,1743.258074999998,None,1743.7622819999997,None,1743.7622819999997,None,r,0.36796030000186875,1743.7622819999997,None,0.36796030000186875,,,119 Aloud,001,2022_Dec_01_1553,ProdSingRedoBetween,2021.2.3,59.70919235000863,
,,,,102,0,102,0,,,,,,,,,,,,,,,,,,,,,,1747.3774683999982,None,,,,,,,,,,,,,,,,,employment,9,103,aloud,old,yellow,1744.6847849000005,None,1744.6847849000005,None,6,1.7414276000017708,1744.6847849000005,None,1.7414276000017708,1746.4534093999973,None,1746.9625379999998,None,1746.9625379999998,None,r,0.3995458999997936,1746.9625379999998,None,0.3995458999997936,,,119 Aloud,001,2022_Dec_01_1553,ProdSingRedoBetween,2021.2.3,59.70919235000863,
,,,,103,0,103,0,,,,,,,,,,,,,,,,,,,,,,1749.6296712999974,None,,,,,,,,,,,,,,,,,split,74,104,aloud,old,red,1747.889443699998,None,1747.889443699998,None,5,1.0088435999969079,1747.889443699998,None,1.0088435999969079,1748.9291511999982,None,1749.4309121999977,None,1749.4309121999977,None,f,0.1792323999979999,1749.4309121999977,None,0.1792323999979999,,,119 Aloud,001,2022_Dec_01_1553,ProdSingRedoBetween,2021.2.3,59.70919235000863,
,,,,104,0,104,0,,,,,,,,,,,,,,,,,,,,,,1753.433162199999,None,,,,,,,,,,,,,,,,,bicycle,16,105,aloud,old,yellow,1750.1356213,None,1750.1356213,None,4,1.578422299997328,1750.1356213,None,1.578422299997328,1751.7328008000004,None,1752.2344142000002,None,1752.2344142000002,None,f,1.1756270000005316,1752.2344142000002,None,1.1756270000005316,,,119 Aloud,001,2022_Dec_01_1553,ProdSingRedoBetween,2021.2.3,59.70919235000863,
,,,,105,0,105,0,,,,,,,,,,,,,,,,,,,,,,1757.1872163000007,None,,,,,,,,,,,,,,,,,quick,30,106,aloud,old,blue,1753.937353199999,None,1753.937353199999,None,6,2.5688672000032966,1753.937353199999,None,2.5688672000032966,1756.5500460999974,None,1757.0542878999986,None,1757.0542878999986,None,r,0.10783420000007027,1757.0542878999986,None,0.10783420000007027,,,119 Aloud,001,2022_Dec_01_1553,ProdSingRedoBetween,2021.2.3,59.70919235000863,
,,,,106,0,106,0,,,,,,,,,,,,,,,,,,,,,,1759.540594099999,None,,,,,,,,,,,,,,,,,report,11,107,aloud,old,yellow,1757.7044164,None,1757.7044164,None,6,1.0336575000001176,1757.7044164,None,1.0336575000001176,1758.7587697999988,None,1759.2800012999978,None,1759.2800012999978,None,r,0.24211110000032932,1759.2800012999978,None,0.24211110000032932,,,119 Aloud,001,2022_Dec_01_1553,ProdSingRedoBetween,2021.2.3,59.70919235000863,
,,,,107,0,107,0,,,,,,,,,,,,,,,,,,,,,,1764.1996938999982,None,,,,,,,,,,,,,,,,,front,72,108,aloud,old,red,1760.0544962999993,None,1760.0544962999993,None,5,3.051790199999232,1760.0544962999993,None,3.051790199999232,1763.1358242999995,None,1763.6486861999983,None,1763.6486861999983,None,f,0.52158259999851,1763.6486861999983,None,0.52158259999851,,,119 Aloud,001,2022_Dec_01_1553,ProdSingRedoBetween,2021.2.3,59.70919235000863,
,,,,108,0,108,0,,,,,,,,,,,,,,,,,,,,,,1766.429802999999,None,,,,,,,,,,,,,,,,,candidate,162,109,aloud,new,null,1764.7199183999983,None,1764.7199183999983,None,6,1.1221846000007645,1764.7199183999983,None,1.1221846000007645,1765.8651857999976,None,1766.3836583999982,None,1766.3836583999982,None,f,0.01851669999814476,1766.3836583999982,None,0.01851669999814476,,,119 Aloud,001,2022_Dec_01_1553,ProdSingRedoBetween,2021.2.3,59.70919235000863,
,,,,109,0,109,0,,,,,,,,,,,,,,,,,,,,,,1769.095002099999,None,,,,,,,,,,,,,,,,,little,66,110,aloud,old,red,1766.936348799998,None,1766.936348799998,None,5,1.5777223999975831,1766.936348799998,None,1.5777223999975831,1768.5374325999983,None,1769.0587985999991,None,1769.0587985999991,None,f,0.00763580000057118,1769.0587985999991,None,0.00763580000057118,,,119 Aloud,001,2022_Dec_01_1553,ProdSingRedoBetween,2021.2.3,59.70919235000863,
,,,,110,0,110,0,,,,,,,,,,,,,,,,,,,,,,1770.8705341999994,None,,,,,,,,,,,,,,,,,couch,98,111,aloud,new,null,1769.6051737999987,None,1769.6051737999987,None,5,0.6369422999996459,1769.6051737999987,None,0.6369422999996459,1770.2688318,None,1770.7853542999983,None,1770.7853542999983,None,f,0.06480579999697511,1770.7853542999983,None,0.06480579999697511,,,119 Aloud,001,2022_Dec_01_1553,ProdSingRedoBetween,2021.2.3,59.70919235000863,
,,,,111,0,111,0,,,,,,,,,,,,,,,,,,,,,,1773.0084320999995,None,,,,,,,,,,,,,,,,,incident,58,112,aloud,old,blue,1771.3869935000002,None,1771.3869935000002,None,5,0.8872436999990896,1771.3869935000002,None,0.8872436999990896,1772.3066051999995,None,1772.8197569000004,None,1772.8197569000004,None,f,0.15848779999942053,1772.8197569000004,None,0.15848779999942053,,,119 Aloud,001,2022_Dec_01_1553,ProdSingRedoBetween,2021.2.3,59.70919235000863,
,,,,112,0,112,0,,,,,,,,,,,,,,,,,,,,,,1775.4240422000003,None,,,,,,,,,,,,,,,,,stand,86,113,aloud,old,red,1773.5340357999994,None,1773.5340357999994,None,4,1.0041422000031162,1773.5340357999994,None,1.0041422000031162,1774.558161099998,None,1775.0718960999984,None,1775.0718960999984,None,n,0.3303334000011091,1775.0718960999984,None,0.3303334000011091,,,119 Aloud,001,2022_Dec_01_1553,ProdSingRedoBetween,2021.2.3,59.70919235000863,
,,,,113,0,113,0,,,,,,,,,,,,,,,,,,,,,,1778.1086475999982,None,,,,,,,,,,,,,,,,,route,46,114,aloud,old,blue,1775.9444796999996,None,1775.9444796999996,None,6,1.265708299997641,1775.9444796999996,None,1.265708299997641,1777.2486133999992,None,1777.7603466,None,1777.7603466,None,r,0.32181320000017877,1777.7603466,None,0.32181320000017877,,,119 Aloud,001,2022_Dec_01_1553,ProdSingRedoBetween,2021.2.3,59.70919235000863,
,,,,114,0,114,0,,,,,,,,,,,,,,,,,,,,,,1780.4102963000005,None,,,,,,,,,,,,,,,,,safety,69,115,aloud,old,red,1778.6240509999989,None,1778.6240509999989,None,6,1.1300651999990805,1778.6240509999989,None,1.1300651999990805,1779.7825615999973,None,1780.2937844999979,None,1780.2937844999979,None,r,0.10056809999878169,1780.2937844999979,None,0.10056809999878169,,,119 Aloud,001,2022_Dec_01_1553,ProdSingRedoBetween,2021.2.3,59.70919235000863,
,,,,115,0,115,0,,,,,,,,,,,,,,,,,,,,,,1782.5293127999976,None,,,,,,,,,,,,,,,,,beginning,99,116,aloud,new,null,1780.9193496999978,None,1780.9193496999978,None,6,1.0267486000011559,1780.9193496999978,None,1.0267486000011559,1781.9646517,None,1782.4796561999974,None,1782.4796561999974,None,r,0.026470899996638764,1782.4796561999974,None,0.026470899996638764,,,119 Aloud,001,2022_Dec_01_1553,ProdSingRedoBetween,2021.2.3,59.70919235000863,
,,,,116,0,116,0,,,,,,,,,,,,,,,,,,,,,,1785.265322799998,None,,,,,,,,,,,,,,,,,society,113,117,aloud,new,null,1783.0391636999993,None,1783.0391636999993,None,4,1.210973000001104,1783.0391636999993,None,1.210973000001104,1784.2924820000007,None,1784.8000009999996,None,1784.8000009999996,None,f,0.43423880000045756,1784.8000009999996,None,0.43423880000045756,,,119 Aloud,001,2022_Dec_01_1553,ProdSingRedoBetween,2021.2.3,59.70919235000863,
,,,,117,0,117,0,,,,,,,,,,,,,,,,,,,,,,1787.3340653999985,None,,,,,,,,,,,,,,,,,period,174,118,aloud,new,null,1785.7785186,None,1785.7785186,None,5,0.8956340000004275,1785.7785186,None,0.8956340000004275,1786.7089691,None,1787.220379399998,None,1787.220379399998,None,f,0.09375210000143852,1787.220379399998,None,0.09375210000143852,,,119 Aloud,001,2022_Dec_01_1553,ProdSingRedoBetween,2021.2.3,59.70919235000863,
,,,,118,0,118,0,,,,,,,,,,,,,,,,,,,,,,1790.4051803000002,None,,,,,,,,,,,,,,,,,enemy,71,119,aloud,old,red,1787.8364120999977,None,1787.8364120999977,None,5,1.917860199999268,1787.8364120999977,None,1.917860199999268,1789.7788058999977,None,1790.287156899998,None,1790.287156899998,None,f,0.09101150000060443,1790.287156899998,None,0.09101150000060443,,,119 Aloud,001,2022_Dec_01_1553,ProdSingRedoBetween,2021.2.3,59.70919235000863,
,,,,119,0,119,0,,,,,,,,,,,,,,,,,,,,,,1792.7227540999993,None,,,,,,,,,,,,,,,,,listen,142,120,aloud,new,null,1790.9278163999988,None,1790.9278163999988,None,6,0.954547299999831,1790.9278163999988,None,0.954547299999831,1791.9134611000009,None,1792.4223805000001,None,1792.4223805000001,None,r,0.2757290000008652,1792.4223805000001,None,0.2757290000008652,,,119 Aloud,001,2022_Dec_01_1553,ProdSingRedoBetween,2021.2.3,59.70919235000863,
,,,,120,0,120,0,,,,,,,,,,,,,,,,,,,,,,1795.1418611000008,None,,,,,,,,,,,,,,,,,state,156,121,aloud,new,null,1793.2452322999998,None,1793.2452322999998,None,6,1.2048686999987694,1793.2452322999998,None,1.2048686999987694,1794.4767709000007,None,1794.9958850000003,None,1794.9958850000003,None,f,0.11816600000020117,1794.9958850000003,None,0.11816600000020117,,,119 Aloud,001,2022_Dec_01_1553,ProdSingRedoBetween,2021.2.3,59.70919235000863,
,,,,121,0,121,0,,,,,,,,,,,,,,,,,,,,,,1798.5143328999984,None,,,,,,,,,,,,,,,,,resistance,24,122,aloud,old,yellow,1795.6517167999991,None,1795.6517167999991,None,5,1.9822978999982297,1795.6517167999991,None,1.9822978999982297,1797.6654640999986,None,1798.1864421999999,None,1798.1864421999999,None,r,0.29579240000020945,1798.1864421999999,None,0.29579240000020945,,,119 Aloud,001,2022_Dec_01_1553,ProdSingRedoBetween,2021.2.3,59.70919235000863,
,,,,122,0,122,0,,,,,,,,,,,,,,,,,,,,,,1800.7307390999995,None,,,,,,,,,,,,,,,,,agreement,77,123,aloud,old,red,1799.0411585999973,None,1799.0411585999973,None,6,1.0729257999992114,1799.0411585999973,None,1.0729257999992114,1800.135570399998,None,1800.6507139999994,None,1800.6507139999994,None,f,0.0554082999988168,1800.6507139999994,None,0.0554082999988168,,,119 Aloud,001,2022_Dec_01_1553,ProdSingRedoBetween,2021.2.3,59.70919235000863,
,,,,123,0,123,0,,,,,,,,,,,,,,,,,,,,,,1802.8996114000001,None,,,,,,,,,,,,,,,,,blind,84,124,aloud,old,red,1801.2383425000007,None,1801.2383425000007,None,6,0.8357609000013326,1801.2383425000007,None,0.8357609000013326,1802.0998904999979,None,1802.6061287999983,None,1802.6061287999983,None,r,0.2680006999980833,1802.6061287999983,None,0.2680006999980833,,,119 Aloud,001,2022_Dec_01_1553,ProdSingRedoBetween,2021.2.3,59.70919235000863,
,,,,124,0,124,0,,,,,,,,,,,,,,,,,,,,,,1804.8200871000008,None,,,,,,,,,,,,,,,,,capital,39,125,aloud,old,blue,1803.4167914999998,None,1803.4167914999998,None,6,0.4092752000033215,1803.4167914999998,None,0.4092752000033215,1803.8529944999973,None,1804.3791850999987,None,1804.3791850999987,None,r,0.42289309999978286,1804.3791850999987,None,0.42289309999978286,,,119 Aloud,001,2022_Dec_01_1553,ProdSingRedoBetween,2021.2.3,59.70919235000863,
,,,,125,0,125,0,,,,,,,,,,,,,,,,,,,,,,1806.6533533999973,None,,,,,,,,,,,,,,,,,appearance,161,126,aloud,new,null,1805.3384989000006,None,1805.3384989000006,None,6,0.3196524999984831,1805.3384989000006,None,0.3196524999984831,1805.6935685999997,None,1806.2031031999977,None,1806.2031031999977,None,r,0.4310098999994807,1806.2031031999977,None,0.4310098999994807,,,119 Aloud,001,2022_Dec_01_1553,ProdSingRedoBetween,2021.2.3,59.70919235000863,
,,,,126,0,126,0,,,,,,,,,,,,,,,,,,,,,,1808.5552310999992,None,,,,,,,,,,,,,,,,,collection,64,127,aloud,old,red,1807.1681993999991,None,1807.1681993999991,None,5,0.7300310999999056,1807.1681993999991,None,0.7300310999999056,1807.9324816000008,None,1808.4386906,None,1808.4386906,None,f,0.09938059999694815,1808.4386906,None,0.09938059999694815,,,119 Aloud,001,2022_Dec_01_1553,ProdSingRedoBetween,2021.2.3,59.70919235000863,
,,,,127,0,127,0,,,,,,,,,,,,,,,,,,,,,,1811.5121283000008,None,,,,,,,,,,,,,,,,,disease,169,128,aloud,new,null,1809.0639955000006,None,1809.0639955000006,None,5,1.8340066999990086,1809.0639955000006,None,1.8340066999990086,1810.9276556000004,None,1811.449187899998,None,1811.449187899998,None,f,0.03300019999733195,1811.449187899998,None,0.03300019999733195,,,119 Aloud,001,2022_Dec_01_1553,ProdSingRedoBetween,2021.2.3,59.70919235000863,
,,,,128,0,128,0,,,,,,,,,,,,,,,,,,,,,,1814.5778403999975,None,,,,,,,,,,,,,,,,,empty,61,129,aloud,old,red,1812.0325894999987,None,1812.0325894999987,None,4,1.6896116000025359,1812.0325894999987,None,1.6896116000025359,1813.753564999999,None,1814.2653912999995,None,1814.2653912999995,None,r,0.2887765000014042,1814.2653912999995,None,0.2887765000014042,,,119 Aloud,001,2022_Dec_01_1553,ProdSingRedoBetween,2021.2.3,59.70919235000863,
,,,,129,0,129,0,,,,,,,,,,,,,,,,,,,,,,1817.2006082000007,None,,,,,,,,,,,,,,,,,health,63,130,aloud,old,red,1815.0925260999975,None,1815.0925260999975,None,6,1.3018493999989005,1815.0925260999975,None,1.3018493999989005,1816.4276213999983,None,1816.9308757,None,1816.9308757,None,r,0.2392945999999938,1816.9308757,None,0.2392945999999938,,,119 Aloud,001,2022_Dec_01_1553,ProdSingRedoBetween,2021.2.3,59.70919235000863,
,,,,130,0,130,0,,,,,,,,,,,,,,,,,,,,,,1819.1154956999999,None,,,,,,,,,,,,,,,,,citizen,177,131,aloud,new,null,1817.7226168999987,None,1817.7226168999987,None,6,0.7835816000006162,1817.7226168999987,None,0.7835816000006162,1818.5419283999981,None,1819.0521558,None,1819.0521558,None,r,0.038008499999705236,1819.0521558,None,0.038008499999705236,,,119 Aloud,001,2022_Dec_01_1553,ProdSingRedoBetween,2021.2.3,59.70919235000863,
,,,,131,0,131,0,,,,,,,,,,,,,,,,,,,,,,1822.4523904999987,None,,,,,,,,,,,,,,,,,crime,36,132,aloud,old,blue,1819.625537699998,None,1819.625537699998,None,6,2.008644400000776,1819.625537699998,None,2.008644400000776,1821.6602478999994,None,1822.1695913000003,None,1822.1695913000003,None,r,0.26455799999894225,1822.1695913000003,None,0.26455799999894225,,,119 Aloud,001,2022_Dec_01_1553,ProdSingRedoBetween,2021.2.3,59.70919235000863,
,,,,132,0,132,0,,,,,,,,,,,,,,,,,,,,,,1824.7556215000004,None,,,,,,,,,,,,,,,,,school,152,133,aloud,new,null,1822.9654979000006,None,1822.9654979000006,None,6,1.1645888999992167,1822.9654979000006,None,1.1645888999992167,1824.155579899998,None,1824.6591102999992,None,1824.6591102999992,None,r,0.07107620000169845,1824.6591102999992,None,0.07107620000169845,,,119 Aloud,001,2022_Dec_01_1553,ProdSingRedoBetween,2021.2.3,59.70919235000863,
,,,,133,0,133,0,,,,,,,,,,,,,,,,,,,,,,1827.3303801999973,None,,,,,,,,,,,,,,,,,pattern,117,134,aloud,new,null,1825.2754744999984,None,1825.2754744999984,None,6,1.1506203999997524,1825.2754744999984,None,1.1506203999997524,1826.4602784999988,None,1826.980477099998,None,1826.980477099998,None,r,0.3177828000007139,1826.980477099998,None,0.3177828000007139,,,119 Aloud,001,2022_Dec_01_1553,ProdSingRedoBetween,2021.2.3,59.70919235000863,
,,,,134,0,134,0,,,,,,,,,,,,,,,,,,,,,,1829.3826031999997,None,,,,,,,,,,,,,,,,,object,110,135,aloud,new,null,1827.843682499999,None,1827.843682499999,None,6,0.7343180999996548,1827.843682499999,None,0.7343180999996548,1828.6095170000008,None,1829.1121311999996,None,1829.1121311999996,None,r,0.23423230000116746,1829.1121311999996,None,0.23423230000116746,,,119 Aloud,001,2022_Dec_01_1553,ProdSingRedoBetween,2021.2.3,59.70919235000863,
,,,,135,0,135,0,,,,,,,,,,,,,,,,,,,,,,1831.2778722000003,None,,,,,,,,,,,,,,,,,error,160,136,aloud,new,null,1829.9022420000001,None,1829.9022420000001,None,6,0.4679815999988932,1829.9022420000001,None,0.4679815999988932,1830.4028999000002,None,1830.9151266000008,None,1830.9151266000008,None,r,0.3349321999994572,1830.9151266000008,None,0.3349321999994572,,,119 Aloud,001,2022_Dec_01_1553,ProdSingRedoBetween,2021.2.3,59.70919235000863,
,,,,136,0,136,0,,,,,,,,,,,,,,,,,,,,,,1833.5135233,None,,,,,,,,,,,,,,,,,running,13,137,aloud,old,yellow,1831.7871658000004,None,1831.7871658000004,None,6,0.3029423999978462,1831.7871658000004,None,0.3029423999978462,1832.1147132000006,None,1832.633764899998,None,1832.633764899998,None,f,0.8484170000010636,1832.633764899998,None,0.8484170000010636,,,119 Aloud,001,2022_Dec_01_1553,ProdSingRedoBetween,2021.2.3,59.70919235000863,
,,,,137,0,137,0,,,,,,,,,,,,,,,,,,,,,,1835.8824055000005,None,,,,,,,,,,,,,,,,,thing,135,138,aloud,new,null,1834.0198908999992,None,1834.0198908999992,None,4,1.110248099997989,1834.0198908999992,None,1.110248099997989,1835.1512742999985,None,1835.671673599998,None,1835.671673599998,None,f,0.19457570000304258,1835.671673599998,None,0.19457570000304258,,,119 Aloud,001,2022_Dec_01_1553,ProdSingRedoBetween,2021.2.3,59.70919235000863,
,,,,138,0,138,0,,,,,,,,,,,,,,,,,,,,,,1838.8188268999984,None,,,,,,,,,,,,,,,,,income,20,139,aloud,old,yellow,1836.3958131,None,1836.3958131,None,5,0.9904365999973379,1836.3958131,None,0.9904365999973379,1837.4225974,None,1837.9359891999993,None,1837.9359891999993,None,f,0.866135000000213,1837.9359891999993,None,0.866135000000213,,,119 Aloud,001,2022_Dec_01_1553,ProdSingRedoBetween,2021.2.3,59.70919235000863,
,,,,139,0,139,0,,,,,,,,,,,,,,,,,,,,,,1852.1487257000008,None,,,,,,,,,,,,,,,,,account,15,140,aloud,old,yellow,1839.3317988999988,None,1839.3317988999988,None,6,11.038319400002365,1839.3317988999988,None,11.038319400002365,1850.4016917000008,None,1850.9186456999996,None,1850.9186456999996,None,r,1.203507799997169,1850.9186456999996,None,1.203507799997169,,,119 Aloud,001,2022_Dec_01_1553,ProdSingRedoBetween,2021.2.3,59.70919235000863,
,,,,140,0,140,0,,,,,,,,,,,,,,,,,,,,,,1854.4343101999984,None,,,,,,,,,,,,,,,,,platform,35,141,aloud,old,blue,1852.6682746999977,None,1852.6682746999977,None,4,0.8378978000000643,1852.6682746999977,None,0.8378978000000643,1853.5369704999976,None,1854.059722599999,None,1854.059722599999,None,f,0.35043989999758196,1854.059722599999,None,0.35043989999758196,,,119 Aloud,001,2022_Dec_01_1553,ProdSingRedoBetween,2021.2.3,59.70919235000863,
,,,,141,0,141,0,,,,,,,,,,,,,,,,,,,,,,1856.8389672999983,None,,,,,,,,,,,,,,,,,management,41,142,aloud,old,blue,1854.9490374999987,None,1854.9490374999987,None,5,0.9891485000007378,1854.9490374999987,None,0.9891485000007378,1855.9721017999982,None,1856.4931163,None,1856.4931163,None,f,0.31716990000131773,1856.4931163,None,0.31716990000131773,,,119 Aloud,001,2022_Dec_01_1553,ProdSingRedoBetween,2021.2.3,59.70919235000863,
,,,,142,0,142,0,,,,,,,,,,,,,,,,,,,,,,1858.9722355999984,None,,,,,,,,,,,,,,,,,build,126,143,aloud,new,null,1857.3585968999978,None,1857.3585968999978,None,5,0.8275418000011996,1857.3585968999978,None,0.8275418000011996,1858.2045607,None,1858.7086944999974,None,1858.7086944999974,None,f,0.24543629999971017,1858.7086944999974,None,0.24543629999971017,,,119 Aloud,001,2022_Dec_01_1553,ProdSingRedoBetween,2021.2.3,59.70919235000863,
,,,,143,0,143,0,,,,,,,,,,,,,,,,,,,,,,1860.8241173999995,None,,,,,,,,,,,,,,,,,center,175,144,aloud,new,null,1859.4787770000003,None,1859.4787770000003,None,6,0.6355394999991404,1859.4787770000003,None,0.6355394999991404,1860.1489626000002,None,1860.6573372999992,None,1860.6573372999992,None,r,0.1367824999979348,1860.6573372999992,None,0.1367824999979348,,,119 Aloud,001,2022_Dec_01_1553,ProdSingRedoBetween,2021.2.3,59.70919235000863,
,,,,144,0,144,0,,,,,,,,,,,,,,,,,,,,,,1862.597883399998,None,,,,,,,,,,,,,,,,,captain,106,145,aloud,new,null,1861.3285964999995,None,1861.3285964999995,None,5,0.641607199999271,1861.3285964999995,None,0.641607199999271,1861.9979297999998,None,1862.5159385999978,None,1862.5159385999978,None,f,0.054386300002079224,1862.5159385999978,None,0.054386300002079224,,,119 Aloud,001,2022_Dec_01_1553,ProdSingRedoBetween,2021.2.3,59.70919235000863,
,,,,145,0,145,0,,,,,,,,,,,,,,,,,,,,,,1864.7946942999988,None,,,,,,,,,,,,,,,,,rapid,59,146,aloud,old,yellow,1863.1235417999997,None,1863.1235417999997,None,4,0.7185938000002352,1863.1235417999997,None,0.7185938000002352,1863.8643785999993,None,1864.3821933,None,1864.3821933,None,n,0.38801579999926616,1864.3821933,None,0.38801579999926616,,,119 Aloud,001,2022_Dec_01_1553,ProdSingRedoBetween,2021.2.3,59.70919235000863,
,,,,146,0,146,0,,,,,,,,,,,,,,,,,,,,,,1870.7537760999985,None,,,,,,,,,,,,,,,,,broad,131,147,aloud,new,null,1865.3110555999992,None,1865.3110555999992,None,5,2.59513479999805,1865.3110555999992,None,2.59513479999805,1867.9343982999999,None,1868.4574958999983,None,1868.4574958999983,None,f,2.2727782000001753,1868.4574958999983,None,2.2727782000001753,,,119 Aloud,001,2022_Dec_01_1553,ProdSingRedoBetween,2021.2.3,59.70919235000863,
,,,,147,0,147,0,,,,,,,,,,,,,,,,,,,,,,1873.1530889999995,None,,,,,,,,,,,,,,,,,universal,88,148,aloud,old,red,1871.287320299998,None,1871.287320299998,None,6,1.2508213000000978,1871.287320299998,None,1.2508213000000978,1872.5915514999979,None,1873.111677599998,None,1873.111677599998,None,r,0.01844580000033602,1873.111677599998,None,0.01844580000033602,,,119 Aloud,001,2022_Dec_01_1553,ProdSingRedoBetween,2021.2.3,59.70919235000863,
,,,,148,0,148,0,,,,,,,,,,,,,,,,,,,,,,1874.6233753999986,None,,,,,,,,,,,,,,,,,comfort,25,149,aloud,old,yellow,1873.6587129,None,1873.6587129,None,6,0.35145829999964917,1873.6587129,None,0.35145829999964917,1874.0454737,None,1874.562554199998,None,1874.562554199998,None,r,0.031795499999134336,1874.562554199998,None,0.031795499999134336,,,119 Aloud,001,2022_Dec_01_1553,ProdSingRedoBetween,2021.2.3,59.70919235000863,
,,,,149,0,149,0,,,,,,,,,,,,,,,,,,,,,,1876.8931473999983,None,,,,,,,,,,,,,,,,,region,171,150,aloud,new,null,1875.1423710999989,None,1875.1423710999989,None,6,0.23573559999931604,1875.1423710999989,None,0.23573559999931604,1875.4067759999998,None,1875.9091307999988,None,1875.9091307999988,None,f,0.965033600001334,1875.9091307999988,None,0.965033600001334,,,119 Aloud,001,2022_Dec_01_1553,ProdSingRedoBetween,2021.2.3,59.70919235000863,
,,,,150,0,150,0,,,,,,,,,,,,,,,,,,,,,,1878.6948000999982,None,,,,,,,,,,,,,,,,,command,120,151,aloud,new,null,1877.4260661999979,None,1877.4260661999979,None,5,0.6002369999987422,1877.4260661999979,None,0.6002369999987422,1878.0495706999973,None,1878.5596135999986,None,1878.5596135999986,None,r,0.11465779999707593,1878.5596135999986,None,0.11465779999707593,,,119 Aloud,001,2022_Dec_01_1553,ProdSingRedoBetween,2021.2.3,59.70919235000863,
,,,,151,0,151,0,,,,,,,,,,,,,,,,,,,,,,1879.9932786999998,None,,,,,,,,,,,,,,,,,close,102,152,aloud,new,null,1879.2150613999984,None,1879.2150613999984,None,5,0.22705520000090473,1879.2150613999984,None,0.22705520000090473,1879.4606142999983,None,1879.9662177999999,None,1879.9662177999999,None,f,0.011902999998710584,1879.9662177999999,None,0.011902999998710584,,,119 Aloud,001,2022_Dec_01_1553,ProdSingRedoBetween,2021.2.3,59.70919235000863,
,,,,152,0,152,0,,,,,,,,,,,,,,,,,,,,,,1881.2778235000005,None,,,,,,,,,,,,,,,,,crowd,91,153,aloud,new,null,1880.5022185999987,None,1880.5022185999987,None,5,0.11598679999951855,1880.5022185999987,None,0.11598679999951855,1880.6454560999991,None,1881.1491523000004,None,1881.1491523000004,None,f,0.10102270000061253,1881.1491523000004,None,0.10102270000061253,,,119 Aloud,001,2022_Dec_01_1553,ProdSingRedoBetween,2021.2.3,59.70919235000863,
,,,,153,0,153,0,,,,,,,,,,,,,,,,,,,,,,1885.615391899999,None,,,,,,,,,,,,,,,,,straight,96,154,aloud,new,null,1881.7825405999974,None,1881.7825405999974,None,4,1.4517412999994121,1881.7825405999974,None,1.4517412999994121,1883.268060899998,None,1883.7843245999975,None,1883.7843245999975,None,n,1.8098175000013725,1883.7843245999975,None,1.8098175000013725,,,119 Aloud,001,2022_Dec_01_1553,ProdSingRedoBetween,2021.2.3,59.70919235000863,
,,,,154,0,154,0,,,,,,,,,,,,,,,,,,,,,,1889.5695592999982,None,,,,,,,,,,,,,,,,,tough,6,155,aloud,old,yellow,1886.1274709999998,None,1886.1274709999998,None,3,1.0426736000008532,1886.1274709999998,None,1.0426736000008532,1887.2030137000002,None,1887.7205992999989,None,1887.7205992999989,None,f,1.8175637000022107,1887.7205992999989,None,1.8175637000022107,,,119 Aloud,001,2022_Dec_01_1553,ProdSingRedoBetween,2021.2.3,59.70919235000863,
,,,,155,0,155,0,,,,,,,,,,,,,,,,,,,,,,1892.1220877999986,None,,,,,,,,,,,,,,,,,solution,115,156,aloud,new,null,1890.0832717999983,None,1890.0832717999983,None,2,1.182873000001564,1890.0832717999983,None,1.182873000001564,1891.2893549,None,1891.788470899999,None,1891.788470899999,None,f,0.31761419999747886,1891.788470899999,None,0.31761419999747886,,,119 Aloud,001,2022_Dec_01_1553,ProdSingRedoBetween,2021.2.3,59.70919235000863,
,,,,156,0,156,0,,,,,,,,,,,,,,,,,,,,,,1895.1418507999988,None,,,,,,,,,,,,,,,,,guest,125,157,aloud,new,null,1892.6324277999993,None,1892.6324277999993,None,3,0.7539161999993667,1892.6324277999993,None,0.7539161999993667,1893.4207981,None,1893.930359099999,None,1893.930359099999,None,f,1.1917933000004268,1893.930359099999,None,1.1917933000004268,,,119 Aloud,001,2022_Dec_01_1553,ProdSingRedoBetween,2021.2.3,59.70919235000863,
,,,,157,0,157,0,,,,,,,,,,,,,,,,,,,,,,1898.1641065000003,None,,,,,,,,,,,,,,,,,instrument,166,158,aloud,new,null,1895.6549718999995,None,1895.6549718999995,None,3,1.4752623999993375,1895.6549718999995,None,1.4752623999993375,1897.1676393999987,None,1897.6864504999976,None,1897.6864504999976,None,n,0.44376700000066194,1897.6864504999976,None,0.44376700000066194,,,119 Aloud,001,2022_Dec_01_1553,ProdSingRedoBetween,2021.2.3,59.70919235000863,
,,,,158,0,158,0,,,,,,,,,,,,,,,,,,,,,,1900.663990099998,None,,,,,,,,,,,,,,,,,bitter,7,159,aloud,old,yellow,1898.6881280999987,None,1898.6881280999987,None,6,1.3300471999973524,1898.6881280999987,None,1.3300471999973524,1900.046634899998,None,1900.5472277000008,None,1900.5472277000008,None,r,0.09494110000014189,1900.5472277000008,None,0.09494110000014189,,,119 Aloud,001,2022_Dec_01_1553,ProdSingRedoBetween,2021.2.3,59.70919235000863,
,,,,159,0,159,0,,,,,,,,,,,,,,,,,,,,,,1904.8513956999996,None,,,,,,,,,,,,,,,,,budget,45,160,aloud,old,blue,1901.1709503999991,None,1901.1709503999991,None,6,2.8952048999999533,1901.1709503999991,None,2.8952048999999533,1904.0908744999979,None,1904.6011461999988,None,1904.6011461999988,None,r,0.22503219999998691,1904.6011461999988,None,0.22503219999998691,,,119 Aloud,001,2022_Dec_01_1553,ProdSingRedoBetween,2021.2.3,59.70919235000863,
,,,,160,0,160,0,,,,,,,,,,,,,,,,,,,,,,1906.5197738999996,None,,,,,,,,,,,,,,,,,under,104,161,aloud,new,null,1905.360630799998,None,1905.360630799998,None,6,0.5216065000022354,1905.360630799998,None,0.5216065000022354,1905.9071841000004,None,1906.4245650999983,None,1906.4245650999983,None,r,0.07361289999971632,1906.4245650999983,None,0.07361289999971632,,,119 Aloud,001,2022_Dec_01_1553,ProdSingRedoBetween,2021.2.3,59.70919235000863,
,,,,161,0,161,0,,,,,,,,,,,,,,,,,,,,,,1909.4895474999976,None,,,,,,,,,,,,,,,,,beauty,136,162,aloud,new,null,1907.0330929999982,None,1907.0330929999982,None,6,1.321044600001187,1907.0330929999982,None,1.321044600001187,1908.3740313999988,None,1908.8930667999994,None,1908.8930667999994,None,r,0.5810863000006066,1908.8930667999994,None,0.5810863000006066,,,119 Aloud,001,2022_Dec_01_1553,ProdSingRedoBetween,2021.2.3,59.70919235000863,
,,,,162,0,162,0,,,,,,,,,,,,,,,,,,,,,,1922.3689560999992,None,,,,,,,,,,,,,,,,,youth,55,163,aloud,old,blue,1909.9998893999982,None,1909.9998893999982,None,6,0.6424015999982657,1909.9998893999982,None,0.6424015999982657,1910.6829327999985,None,1911.1935625000006,None,1911.1935625000006,None,r,11.144567000003008,1911.1935625000006,None,11.144567000003008,,,119 Aloud,001,2022_Dec_01_1553,ProdSingRedoBetween,2021.2.3,59.70919235000863,
,,,,163,0,163,0,,,,,,,,,,,,,,,,,,,,,,1932.3788705000006,None,,,,,,,,,,,,,,,,,business,173,164,aloud,new,null,1922.8800503999992,None,1922.8800503999992,None,6,7.3140758000008645,1922.8800503999992,None,7.3140758000008645,1930.2099514999973,None,1930.7107631,None,1930.7107631,None,r,1.6514181000020471,1930.7107631,None,1.6514181000020471,,,119 Aloud,001,2022_Dec_01_1553,ProdSingRedoBetween,2021.2.3,59.70919235000863,
,,,,164,0,164,0,,,,,,,,,,,,,,,,,,,,,,1934.8980419,None,,,,,,,,,,,,,,,,,space,82,165,aloud,old,red,1932.886804499998,None,1932.886804499998,None,6,1.1713936000014655,1932.886804499998,None,1.1713936000014655,1934.0845224999975,None,1934.5982642999988,None,1934.5982642999988,None,r,0.2838843000026827,1934.5982642999988,None,0.2838843000026827,,,119 Aloud,001,2022_Dec_01_1553,ProdSingRedoBetween,2021.2.3,59.70919235000863,
,,,,165,0,165,0,,,,,,,,,,,,,,,,,,,,,,1938.6852006000008,None,,,,,,,,,,,,,,,,,principal,137,166,aloud,new,null,1935.3990410000006,None,1935.3990410000006,None,6,2.683022599998367,1935.3990410000006,None,2.683022599998367,1938.1058190000003,None,1938.6185495999998,None,1938.6185495999998,None,f,0.04758959999890067,1938.6185495999998,None,0.04758959999890067,,,119 Aloud,001,2022_Dec_01_1553,ProdSingRedoBetween,2021.2.3,59.70919235000863,
,,,,166,0,166,0,,,,,,,,,,,,,,,,,,,,,,1941.0060875999989,None,,,,,,,,,,,,,,,,,emergency,65,167,aloud,old,red,1939.1856912000003,None,1939.1856912000003,None,6,0.9123274000012316,1939.1856912000003,None,0.9123274000012316,1940.1214813000006,None,1940.6371875999976,None,1940.6371875999976,None,r,0.34098939999967115,1940.6371875999976,None,0.34098939999967115,,,119 Aloud,001,2022_Dec_01_1553,ProdSingRedoBetween,2021.2.3,59.70919235000863,
,,,,167,0,167,0,,,,,,,,,,,,,,,,,,,,,,1944.0905955999988,None,,,,,,,,,,,,,,,,,whole,32,168,aloud,old,blue,1941.521776999998,None,1941.521776999998,None,5,1.7762614999992365,1941.521776999998,None,1.7762614999992365,1943.3230086999974,None,1943.8236856000003,None,1943.8236856000003,None,f,0.24248620000071242,1943.8236856000003,None,0.24248620000071242,,,119 Aloud,001,2022_Dec_01_1553,ProdSingRedoBetween,2021.2.3,59.70919235000863,
,,,,168,0,168,0,,,,,,,,,,,,,,,,,,,,,,1948.7451935999998,None,,,,,,,,,,,,,,,,,council,62,169,aloud,old,red,1944.5910957999986,None,1944.5910957999986,None,4,3.411059900001419,1944.5910957999986,None,3.411059900001419,1948.0279660999986,None,1948.5282425000005,None,1948.5282425000005,None,f,0.19384229999923264,1948.5282425000005,None,0.19384229999923264,,,119 Aloud,001,2022_Dec_01_1553,ProdSingRedoBetween,2021.2.3,59.70919235000863,
,,,,169,0,169,0,,,,,,,,,,,,,,,,,,,,,,1950.9806886999977,None,,,,,,,,,,,,,,,,,style,109,170,aloud,new,null,1949.246044399999,None,1949.246044399999,None,5,0.9321198000034201,1949.246044399999,None,0.9321198000034201,1950.1977439000002,None,1950.6972053999998,None,1950.6972053999998,None,f,0.25693820000014966,1950.6972053999998,None,0.25693820000014966,,,119 Aloud,001,2022_Dec_01_1553,ProdSingRedoBetween,2021.2.3,59.70919235000863,
,,,,170,0,170,0,,,,,,,,,,,,,,,,,,,,,,1952.6680278999993,None,,,,,,,,,,,,,,,,,quiet,151,171,aloud,new,null,1951.482484199998,None,1951.482484199998,None,6,0.37564500000007683,1951.482484199998,None,0.37564500000007683,1951.8836931000005,None,1952.3988032999987,None,1952.3988032999987,None,f,0.2433396000014909,1952.3988032999987,None,0.2433396000014909,,,119 Aloud,001,2022_Dec_01_1553,ProdSingRedoBetween,2021.2.3,59.70919235000863,
,,,,171,0,171,0,,,,,,,,,,,,,,,,,,,,,,1954.0341927000009,None,,,,,,,,,,,,,,,,,power,153,172,aloud,new,null,1953.1843754000001,None,1953.1843754000001,None,5,0.2897435000013502,1953.1843754000001,None,0.2897435000013502,1953.4999551,None,1954.0041864999985,None,1954.0041864999985,None,f,0.014060099998459918,1954.0041864999985,None,0.014060099998459918,,,119 Aloud,001,2022_Dec_01_1553,ProdSingRedoBetween,2021.2.3,59.70919235000863,
,,,,172,0,172,0,,,,,,,,,,,,,,,,,,,,,,1955.6188930999997,None,,,,,,,,,,,,,,,,,south,60,173,aloud,old,red,1954.5479727999991,None,1954.5479727999991,None,6,0.22223890000168467,1954.5479727999991,None,0.22223890000168467,1954.809938899998,None,1955.3202622999997,None,1955.3202622999997,None,f,0.27393990000200574,1955.3202622999997,None,0.27393990000200574,,,119 Aloud,001,2022_Dec_01_1553,ProdSingRedoBetween,2021.2.3,59.70919235000863,
,,,,173,0,173,0,,,,,,,,,,,,,,,,,,,,,,1957.7420667000006,None,,,,,,,,,,,,,,,,,shock,143,174,aloud,new,null,1956.131247199999,None,1956.131247199999,None,5,0.5109790999995312,1956.131247199999,None,0.5109790999995312,1956.6793768999996,None,1957.1900463999991,None,1957.1900463999991,None,n,0.5322665999992751,1957.1900463999991,None,0.5322665999992751,,,119 Aloud,001,2022_Dec_01_1553,ProdSingRedoBetween,2021.2.3,59.70919235000863,
,,,,174,0,174,0,,,,,,,,,,,,,,,,,,,,,,1959.6571933999985,None,,,,,,,,,,,,,,,,,subject,75,175,aloud,old,red,1958.2636334999988,None,1958.2636334999988,None,6,0.8025328000003356,1958.2636334999988,None,0.8025328000003356,1959.0912136999978,None,1959.6117548999973,None,1959.6117548999973,None,f,0.022444900001573842,1959.6117548999973,None,0.022444900001573842,,,119 Aloud,001,2022_Dec_01_1553,ProdSingRedoBetween,2021.2.3,59.70919235000863,
