StudyLoop.thisRepN,StudyLoop.thisTrialN,StudyLoop.thisN,StudyLoop.thisIndex,TestLoop.thisRepN,TestLoop.thisTrialN,TestLoop.thisN,TestLoop.thisIndex,textCondition.started,textCondition.stopped,keyCondition.keys,keyCondition.rt,keyCondition.started,keyCondition.stopped,Condition,textWelcome.started,textWelcome.stopped,keyWelcome.keys,keyWelcome.rt,keyWelcome.started,keyWelcome.stopped,textAloud.started,textAloud.stopped,textSilent.started,textSilent.stopped,textSing.started,textSing.stopped,conditional_text.started,conditional_text.stopped,textBlank500.started,textBlank500.stopped,study_word,study_num,study_order,study_type,word_color,textStudy.started,textStudy.stopped,keyStudy.keys,keyStudy.started,keyStudy.stopped,textTestInstructions.started,textTestInstructions.stopped,key_resp_3.keys,key_resp_3.rt,key_resp_3.started,key_resp_3.stopped,test_word,test_num,test_order,test_condition,old_new_test,test_word_original_color,textConf.started,textConf.stopped,textConfScale.started,textConfScale.stopped,keyConf.keys,keyConf.rt,keyConf.started,keyConf.stopped,confidence response time,textTestBlank.started,textTestBlank.stopped,textRKN.started,textRKN.stopped,textRKNScale.started,textRKNScale.stopped,keyRKN.keys,keyRKN.rt,keyRKN.started,keyRKN.stopped,rkn response time,textEnd.started,textEnd.stopped,participant,session,date,expName,psychopyVersion,frameRate,
,,,,,,,,26.08713649999845,None,c,1.9180218000001332,26.08713649999845,None,,,,,,,,,,,,,,,,,,,,,,,,,,,,,,,,,,,,,,,,,,,,,,,,,,,,,,,,,,,,,,120 Sing,001,2022_Dec_01_1628,ProdSingRedoBetween,2021.2.3,60.049709149371864,
,,,,,,,,,,,,,,SingTest,28.0371312999996,None,space,236.98409369999717,28.0371312999996,None,,,,,,,,,,,,,,,,,,,,,,,,,,,,,,,,,,,,,,,,,,,,,,,,,,,,,,,120 Sing,001,2022_Dec_01_1628,ProdSingRedoBetween,2021.2.3,60.049709149371864,
0,0,0,0,,,,,,,,,,,,,,,,,,28.0371312999996,None,28.0371312999996,None,28.0371312999996,None,28.0371312999996,None,267.5600616999982,None,literature,84,1,sing,red,265.5470595000006,None,None,265.5470595000006,None,,,,,,,,,,,,,,,,,,,,,,,,,,,,,,,,,,,120 Sing,001,2022_Dec_01_1628,ProdSingRedoBetween,2021.2.3,60.049709149371864,
1,0,1,0,,,,,,,,,,,,,,,,,,,,,,,,,,270.07935519999955,None,husband,8,2,sing,yellow,268.07236510000075,None,None,268.07236510000075,None,,,,,,,,,,,,,,,,,,,,,,,,,,,,,,,,,,,120 Sing,001,2022_Dec_01_1628,ProdSingRedoBetween,2021.2.3,60.049709149371864,
2,0,2,0,,,,,,,,,,,,,,,,,,,,,,,,,,272.59842579999895,None,plane,15,3,sing,yellow,270.58990469999844,None,None,270.58990469999844,None,,,,,,,,,,,,,,,,,,,,,,,,,,,,,,,,,,,120 Sing,001,2022_Dec_01_1628,ProdSingRedoBetween,2021.2.3,60.049709149371864,
3,0,3,0,,,,,,,,,,,,,,,,,,,,,,,,,,275.11763879999853,None,council,69,4,sing,red,273.10471529999995,None,None,273.10471529999995,None,,,,,,,,,,,,,,,,,,,,,,,,,,,,,,,,,,,120 Sing,001,2022_Dec_01_1628,ProdSingRedoBetween,2021.2.3,60.049709149371864,
4,0,4,0,,,,,,,,,,,,,,,,,,,,,,,,,,277.62032850000105,None,crime,87,5,sing,red,275.6196108000004,None,None,275.6196108000004,None,,,,,,,,,,,,,,,,,,,,,,,,,,,,,,,,,,,120 Sing,001,2022_Dec_01_1628,ProdSingRedoBetween,2021.2.3,60.049709149371864,
5,0,5,0,,,,,,,,,,,,,,,,,,,,,,,,,,280.1394392000002,None,profession,74,6,sing,red,278.1274720000001,None,None,278.1274720000001,None,,,,,,,,,,,,,,,,,,,,,,,,,,,,,,,,,,,120 Sing,001,2022_Dec_01_1628,ProdSingRedoBetween,2021.2.3,60.049709149371864,
6,0,6,0,,,,,,,,,,,,,,,,,,,,,,,,,,282.6418171999976,None,tough,27,7,sing,yellow,280.63983559999906,None,None,280.63983559999906,None,,,,,,,,,,,,,,,,,,,,,,,,,,,,,,,,,,,120 Sing,001,2022_Dec_01_1628,ProdSingRedoBetween,2021.2.3,60.049709149371864,
7,0,7,0,,,,,,,,,,,,,,,,,,,,,,,,,,285.16114749999906,None,weather,29,8,sing,blue,283.1457894999985,None,None,283.1457894999985,None,,,,,,,,,,,,,,,,,,,,,,,,,,,,,,,,,,,120 Sing,001,2022_Dec_01_1628,ProdSingRedoBetween,2021.2.3,60.049709149371864,
8,0,8,0,,,,,,,,,,,,,,,,,,,,,,,,,,287.663700699999,None,close,11,9,sing,yellow,285.6628849000008,None,None,285.6628849000008,None,,,,,,,,,,,,,,,,,,,,,,,,,,,,,,,,,,,120 Sing,001,2022_Dec_01_1628,ProdSingRedoBetween,2021.2.3,60.049709149371864,
9,0,9,0,,,,,,,,,,,,,,,,,,,,,,,,,,290.1658349999998,None,route,52,10,sing,blue,288.1648291999991,None,None,288.1648291999991,None,,,,,,,,,,,,,,,,,,,,,,,,,,,,,,,,,,,120 Sing,001,2022_Dec_01_1628,ProdSingRedoBetween,2021.2.3,60.049709149371864,
10,0,10,0,,,,,,,,,,,,,,,,,,,,,,,,,,292.6685663999997,None,story,41,11,sing,blue,290.66904969999814,None,None,290.66904969999814,None,,,,,,,,,,,,,,,,,,,,,,,,,,,,,,,,,,,120 Sing,001,2022_Dec_01_1628,ProdSingRedoBetween,2021.2.3,60.049709149371864,
11,0,11,0,,,,,,,,,,,,,,,,,,,,,,,,,,295.1712430999978,None,character,3,12,sing,yellow,293.17176800000016,None,None,293.17176800000016,None,,,,,,,,,,,,,,,,,,,,,,,,,,,,,,,,,,,120 Sing,001,2022_Dec_01_1628,ProdSingRedoBetween,2021.2.3,60.049709149371864,
12,0,12,0,,,,,,,,,,,,,,,,,,,,,,,,,,297.6902545999983,None,personnel,83,13,sing,red,295.676399699998,None,None,295.676399699998,None,,,,,,,,,,,,,,,,,,,,,,,,,,,,,,,,,,,120 Sing,001,2022_Dec_01_1628,ProdSingRedoBetween,2021.2.3,60.049709149371864,
13,0,13,0,,,,,,,,,,,,,,,,,,,,,,,,,,300.19283390000055,None,commercial,65,14,sing,red,298.1908622999981,None,None,298.1908622999981,None,,,,,,,,,,,,,,,,,,,,,,,,,,,,,,,,,,,120 Sing,001,2022_Dec_01_1628,ProdSingRedoBetween,2021.2.3,60.049709149371864,
14,0,14,0,,,,,,,,,,,,,,,,,,,,,,,,,,302.69516379999914,None,silence,4,15,sing,yellow,300.69425390000106,None,None,300.69425390000106,None,,,,,,,,,,,,,,,,,,,,,,,,,,,,,,,,,,,120 Sing,001,2022_Dec_01_1628,ProdSingRedoBetween,2021.2.3,60.049709149371864,
15,0,15,0,,,,,,,,,,,,,,,,,,,,,,,,,,305.19781579999835,None,nation,28,16,sing,yellow,303.1958193999999,None,None,303.1958193999999,None,,,,,,,,,,,,,,,,,,,,,,,,,,,,,,,,,,,120 Sing,001,2022_Dec_01_1628,ProdSingRedoBetween,2021.2.3,60.049709149371864,
16,0,16,0,,,,,,,,,,,,,,,,,,,,,,,,,,307.69993969999996,None,reading,32,17,sing,blue,305.69832549999774,None,None,305.69832549999774,None,,,,,,,,,,,,,,,,,,,,,,,,,,,,,,,,,,,120 Sing,001,2022_Dec_01_1628,ProdSingRedoBetween,2021.2.3,60.049709149371864,
17,0,17,0,,,,,,,,,,,,,,,,,,,,,,,,,,310.21949649999806,None,subject,62,18,sing,red,308.2159735999994,None,None,308.2159735999994,None,,,,,,,,,,,,,,,,,,,,,,,,,,,,,,,,,,,120 Sing,001,2022_Dec_01_1628,ProdSingRedoBetween,2021.2.3,60.049709149371864,
18,0,18,0,,,,,,,,,,,,,,,,,,,,,,,,,,312.7386657999996,None,substance,67,19,sing,red,310.72357980000015,None,None,310.72357980000015,None,,,,,,,,,,,,,,,,,,,,,,,,,,,,,,,,,,,120 Sing,001,2022_Dec_01_1628,ProdSingRedoBetween,2021.2.3,60.049709149371864,
19,0,19,0,,,,,,,,,,,,,,,,,,,,,,,,,,315.24115189999793,None,enemy,86,20,sing,red,313.240227899998,None,None,313.240227899998,None,,,,,,,,,,,,,,,,,,,,,,,,,,,,,,,,,,,120 Sing,001,2022_Dec_01_1628,ProdSingRedoBetween,2021.2.3,60.049709149371864,
20,0,20,0,,,,,,,,,,,,,,,,,,,,,,,,,,317.7436032000005,None,edition,16,21,sing,yellow,315.74171809999825,None,None,315.74171809999825,None,,,,,,,,,,,,,,,,,,,,,,,,,,,,,,,,,,,120 Sing,001,2022_Dec_01_1628,ProdSingRedoBetween,2021.2.3,60.049709149371864,
21,0,21,0,,,,,,,,,,,,,,,,,,,,,,,,,,320.24730179999824,None,mechanical,77,22,sing,red,318.2446450999996,None,None,318.2446450999996,None,,,,,,,,,,,,,,,,,,,,,,,,,,,,,,,,,,,120 Sing,001,2022_Dec_01_1628,ProdSingRedoBetween,2021.2.3,60.049709149371864,
22,0,22,0,,,,,,,,,,,,,,,,,,,,,,,,,,322.7487445000006,None,column,76,23,sing,red,320.7483577999992,None,None,320.7483577999992,None,,,,,,,,,,,,,,,,,,,,,,,,,,,,,,,,,,,120 Sing,001,2022_Dec_01_1628,ProdSingRedoBetween,2021.2.3,60.049709149371864,
23,0,23,0,,,,,,,,,,,,,,,,,,,,,,,,,,325.26792360000036,None,cover,5,24,sing,yellow,323.2653329999994,None,None,323.2653329999994,None,,,,,,,,,,,,,,,,,,,,,,,,,,,,,,,,,,,120 Sing,001,2022_Dec_01_1628,ProdSingRedoBetween,2021.2.3,60.049709149371864,
24,0,24,0,,,,,,,,,,,,,,,,,,,,,,,,,,327.78706769999917,None,instrument,78,25,sing,red,325.7794682999993,None,None,325.7794682999993,None,,,,,,,,,,,,,,,,,,,,,,,,,,,,,,,,,,,120 Sing,001,2022_Dec_01_1628,ProdSingRedoBetween,2021.2.3,60.049709149371864,
25,0,25,0,,,,,,,,,,,,,,,,,,,,,,,,,,330.30618559999857,None,country,26,26,sing,yellow,328.29092110000056,None,None,328.29092110000056,None,,,,,,,,,,,,,,,,,,,,,,,,,,,,,,,,,,,120 Sing,001,2022_Dec_01_1628,ProdSingRedoBetween,2021.2.3,60.049709149371864,
26,0,26,0,,,,,,,,,,,,,,,,,,,,,,,,,,332.80868709999777,None,guide,58,27,sing,blue,330.80805269999837,None,None,330.80805269999837,None,,,,,,,,,,,,,,,,,,,,,,,,,,,,,,,,,,,120 Sing,001,2022_Dec_01_1628,ProdSingRedoBetween,2021.2.3,60.049709149371864,
27,0,27,0,,,,,,,,,,,,,,,,,,,,,,,,,,335.311149000001,None,right,66,28,sing,red,333.30919240000003,None,None,333.30919240000003,None,,,,,,,,,,,,,,,,,,,,,,,,,,,,,,,,,,,120 Sing,001,2022_Dec_01_1628,ProdSingRedoBetween,2021.2.3,60.049709149371864,
28,0,28,0,,,,,,,,,,,,,,,,,,,,,,,,,,337.81370009999955,None,pretty,71,29,sing,red,335.8123429999978,None,None,335.8123429999978,None,,,,,,,,,,,,,,,,,,,,,,,,,,,,,,,,,,,120 Sing,001,2022_Dec_01_1628,ProdSingRedoBetween,2021.2.3,60.049709149371864,
29,0,29,0,,,,,,,,,,,,,,,,,,,,,,,,,,340.31625390000045,None,force,55,30,sing,blue,338.3153764999988,None,None,338.3153764999988,None,,,,,,,,,,,,,,,,,,,,,,,,,,,,,,,,,,,120 Sing,001,2022_Dec_01_1628,ProdSingRedoBetween,2021.2.3,60.049709149371864,
30,0,30,0,,,,,,,,,,,,,,,,,,,,,,,,,,342.8354416000002,None,charter,85,31,sing,red,340.8253217999991,None,None,340.8253217999991,None,,,,,,,,,,,,,,,,,,,,,,,,,,,,,,,,,,,120 Sing,001,2022_Dec_01_1628,ProdSingRedoBetween,2021.2.3,60.049709149371864,
31,0,31,0,,,,,,,,,,,,,,,,,,,,,,,,,,345.3378518999998,None,suggestion,18,32,sing,yellow,343.33636359999946,None,None,343.33636359999946,None,,,,,,,,,,,,,,,,,,,,,,,,,,,,,,,,,,,120 Sing,001,2022_Dec_01_1628,ProdSingRedoBetween,2021.2.3,60.049709149371864,
32,0,32,0,,,,,,,,,,,,,,,,,,,,,,,,,,347.8570054999982,None,front,81,33,sing,red,345.850201199999,None,None,345.850201199999,None,,,,,,,,,,,,,,,,,,,,,,,,,,,,,,,,,,,120 Sing,001,2022_Dec_01_1628,ProdSingRedoBetween,2021.2.3,60.049709149371864,
33,0,33,0,,,,,,,,,,,,,,,,,,,,,,,,,,350.37603350000063,None,turkey,7,34,sing,yellow,348.3623024999979,None,None,348.3623024999979,None,,,,,,,,,,,,,,,,,,,,,,,,,,,,,,,,,,,120 Sing,001,2022_Dec_01_1628,ProdSingRedoBetween,2021.2.3,60.049709149371864,
34,0,34,0,,,,,,,,,,,,,,,,,,,,,,,,,,352.8787908999984,None,service,6,35,sing,yellow,350.8792833000007,None,None,350.8792833000007,None,,,,,,,,,,,,,,,,,,,,,,,,,,,,,,,,,,,120 Sing,001,2022_Dec_01_1628,ProdSingRedoBetween,2021.2.3,60.049709149371864,
35,0,35,0,,,,,,,,,,,,,,,,,,,,,,,,,,355.3812584999978,None,addition,60,36,sing,red,353.38112999999794,None,None,353.38112999999794,None,,,,,,,,,,,,,,,,,,,,,,,,,,,,,,,,,,,120 Sing,001,2022_Dec_01_1628,ProdSingRedoBetween,2021.2.3,60.049709149371864,
36,0,36,0,,,,,,,,,,,,,,,,,,,,,,,,,,357.9004208999977,None,series,37,37,sing,blue,355.8902606999982,None,None,355.8902606999982,None,,,,,,,,,,,,,,,,,,,,,,,,,,,,,,,,,,,120 Sing,001,2022_Dec_01_1628,ProdSingRedoBetween,2021.2.3,60.049709149371864,
37,0,37,0,,,,,,,,,,,,,,,,,,,,,,,,,,360.40293309999834,None,machinery,51,38,sing,blue,358.4019530000005,None,None,358.4019530000005,None,,,,,,,,,,,,,,,,,,,,,,,,,,,,,,,,,,,120 Sing,001,2022_Dec_01_1628,ProdSingRedoBetween,2021.2.3,60.049709149371864,
38,0,38,0,,,,,,,,,,,,,,,,,,,,,,,,,,362.9054701999994,None,drama,57,39,sing,blue,360.9052636999986,None,None,360.9052636999986,None,,,,,,,,,,,,,,,,,,,,,,,,,,,,,,,,,,,120 Sing,001,2022_Dec_01_1628,ProdSingRedoBetween,2021.2.3,60.049709149371864,
39,0,39,0,,,,,,,,,,,,,,,,,,,,,,,,,,365.4246327000001,None,victory,13,40,sing,yellow,363.41142709999986,None,None,363.41142709999986,None,,,,,,,,,,,,,,,,,,,,,,,,,,,,,,,,,,,120 Sing,001,2022_Dec_01_1628,ProdSingRedoBetween,2021.2.3,60.049709149371864,
40,0,40,0,,,,,,,,,,,,,,,,,,,,,,,,,,367.9435432999999,None,people,61,41,sing,red,365.933677099998,None,None,365.933677099998,None,,,,,,,,,,,,,,,,,,,,,,,,,,,,,,,,,,,120 Sing,001,2022_Dec_01_1628,ProdSingRedoBetween,2021.2.3,60.049709149371864,
41,0,41,0,,,,,,,,,,,,,,,,,,,,,,,,,,370.4629795000001,None,principal,43,42,sing,blue,368.4532842999979,None,None,368.4532842999979,None,,,,,,,,,,,,,,,,,,,,,,,,,,,,,,,,,,,120 Sing,001,2022_Dec_01_1628,ProdSingRedoBetween,2021.2.3,60.049709149371864,
42,0,42,0,,,,,,,,,,,,,,,,,,,,,,,,,,372.9822110999994,None,month,49,43,sing,blue,370.9676266999995,None,None,370.9676266999995,None,,,,,,,,,,,,,,,,,,,,,,,,,,,,,,,,,,,120 Sing,001,2022_Dec_01_1628,ProdSingRedoBetween,2021.2.3,60.049709149371864,
43,0,43,0,,,,,,,,,,,,,,,,,,,,,,,,,,375.4847124000007,None,school,0,44,sing,yellow,373.4843421999976,None,None,373.4843421999976,None,,,,,,,,,,,,,,,,,,,,,,,,,,,,,,,,,,,120 Sing,001,2022_Dec_01_1628,ProdSingRedoBetween,2021.2.3,60.049709149371864,
44,0,44,0,,,,,,,,,,,,,,,,,,,,,,,,,,378.0038577999985,None,private,53,45,sing,blue,375.9930138999989,None,None,375.9930138999989,None,,,,,,,,,,,,,,,,,,,,,,,,,,,,,,,,,,,120 Sing,001,2022_Dec_01_1628,ProdSingRedoBetween,2021.2.3,60.049709149371864,
45,0,45,0,,,,,,,,,,,,,,,,,,,,,,,,,,380.52320730000065,None,government,73,46,sing,red,378.51515479999944,None,None,378.51515479999944,None,,,,,,,,,,,,,,,,,,,,,,,,,,,,,,,,,,,120 Sing,001,2022_Dec_01_1628,ProdSingRedoBetween,2021.2.3,60.049709149371864,
46,0,46,0,,,,,,,,,,,,,,,,,,,,,,,,,,383.0422863999993,None,junior,47,47,sing,blue,381.02973779999957,None,None,381.02973779999957,None,,,,,,,,,,,,,,,,,,,,,,,,,,,,,,,,,,,120 Sing,001,2022_Dec_01_1628,ProdSingRedoBetween,2021.2.3,60.049709149371864,
47,0,47,0,,,,,,,,,,,,,,,,,,,,,,,,,,385.5446884000012,None,fashion,89,48,sing,red,383.5445918999976,None,None,383.5445918999976,None,,,,,,,,,,,,,,,,,,,,,,,,,,,,,,,,,,,120 Sing,001,2022_Dec_01_1628,ProdSingRedoBetween,2021.2.3,60.049709149371864,
48,0,48,0,,,,,,,,,,,,,,,,,,,,,,,,,,388.06390289999763,None,notice,30,49,sing,blue,386.05539189999763,None,None,386.05539189999763,None,,,,,,,,,,,,,,,,,,,,,,,,,,,,,,,,,,,120 Sing,001,2022_Dec_01_1628,ProdSingRedoBetween,2021.2.3,60.049709149371864,
49,0,49,0,,,,,,,,,,,,,,,,,,,,,,,,,,390.5664949999991,None,meeting,24,50,sing,yellow,388.56441989999803,None,None,388.56441989999803,None,,,,,,,,,,,,,,,,,,,,,,,,,,,,,,,,,,,120 Sing,001,2022_Dec_01_1628,ProdSingRedoBetween,2021.2.3,60.049709149371864,
50,0,50,0,,,,,,,,,,,,,,,,,,,,,,,,,,393.06900419999874,None,produce,34,51,sing,blue,391.0669885999996,None,None,391.0669885999996,None,,,,,,,,,,,,,,,,,,,,,,,,,,,,,,,,,,,120 Sing,001,2022_Dec_01_1628,ProdSingRedoBetween,2021.2.3,60.049709149371864,
51,0,51,0,,,,,,,,,,,,,,,,,,,,,,,,,,395.5721329000007,None,budget,50,52,sing,blue,393.57180850000077,None,None,393.57180850000077,None,,,,,,,,,,,,,,,,,,,,,,,,,,,,,,,,,,,120 Sing,001,2022_Dec_01_1628,ProdSingRedoBetween,2021.2.3,60.049709149371864,
52,0,52,0,,,,,,,,,,,,,,,,,,,,,,,,,,398.0906619999987,None,harmony,64,53,sing,red,396.0764562000004,None,None,396.0764562000004,None,,,,,,,,,,,,,,,,,,,,,,,,,,,,,,,,,,,120 Sing,001,2022_Dec_01_1628,ProdSingRedoBetween,2021.2.3,60.049709149371864,
53,0,53,0,,,,,,,,,,,,,,,,,,,,,,,,,,400.5931841999991,None,election,31,54,sing,blue,398.5928763000011,None,None,398.5928763000011,None,,,,,,,,,,,,,,,,,,,,,,,,,,,,,,,,,,,120 Sing,001,2022_Dec_01_1628,ProdSingRedoBetween,2021.2.3,60.049709149371864,
54,0,54,0,,,,,,,,,,,,,,,,,,,,,,,,,,403.1124533000002,None,beginning,63,55,sing,red,401.10386319999816,None,None,401.10386319999816,None,,,,,,,,,,,,,,,,,,,,,,,,,,,,,,,,,,,120 Sing,001,2022_Dec_01_1628,ProdSingRedoBetween,2021.2.3,60.049709149371864,
55,0,55,0,,,,,,,,,,,,,,,,,,,,,,,,,,405.61477469999954,None,community,22,56,sing,yellow,403.6142340999977,None,None,403.6142340999977,None,,,,,,,,,,,,,,,,,,,,,,,,,,,,,,,,,,,120 Sing,001,2022_Dec_01_1628,ProdSingRedoBetween,2021.2.3,60.049709149371864,
56,0,56,0,,,,,,,,,,,,,,,,,,,,,,,,,,408.1338909999977,None,novel,20,57,sing,yellow,406.1197065999986,None,None,406.1197065999986,None,,,,,,,,,,,,,,,,,,,,,,,,,,,,,,,,,,,120 Sing,001,2022_Dec_01_1628,ProdSingRedoBetween,2021.2.3,60.049709149371864,
57,0,57,0,,,,,,,,,,,,,,,,,,,,,,,,,,410.6531360000008,None,disease,35,58,sing,blue,408.637802199999,None,None,408.637802199999,None,,,,,,,,,,,,,,,,,,,,,,,,,,,,,,,,,,,120 Sing,001,2022_Dec_01_1628,ProdSingRedoBetween,2021.2.3,60.049709149371864,
58,0,58,0,,,,,,,,,,,,,,,,,,,,,,,,,,413.1556625999983,None,angle,19,59,sing,yellow,411.15371080000114,None,None,411.15371080000114,None,,,,,,,,,,,,,,,,,,,,,,,,,,,,,,,,,,,120 Sing,001,2022_Dec_01_1628,ProdSingRedoBetween,2021.2.3,60.049709149371864,
59,0,59,0,,,,,,,,,,,,,,,,,,,,,,,,,,415.6581535999976,None,impact,38,60,sing,blue,413.6584823999983,None,None,413.6584823999983,None,,,,,,,,,,,,,,,,,,,,,,,,,,,,,,,,,,,120 Sing,001,2022_Dec_01_1628,ProdSingRedoBetween,2021.2.3,60.049709149371864,
60,0,60,0,,,,,,,,,,,,,,,,,,,,,,,,,,418.1606384000006,None,income,82,61,sing,red,416.15968040000007,None,None,416.15968040000007,None,,,,,,,,,,,,,,,,,,,,,,,,,,,,,,,,,,,120 Sing,001,2022_Dec_01_1628,ProdSingRedoBetween,2021.2.3,60.049709149371864,
61,0,61,0,,,,,,,,,,,,,,,,,,,,,,,,,,420.6632059000003,None,emergency,48,62,sing,blue,418.66324990000066,None,None,418.66324990000066,None,,,,,,,,,,,,,,,,,,,,,,,,,,,,,,,,,,,120 Sing,001,2022_Dec_01_1628,ProdSingRedoBetween,2021.2.3,60.049709149371864,
62,0,62,0,,,,,,,,,,,,,,,,,,,,,,,,,,423.1658767000008,None,object,9,63,sing,yellow,421.1666908999978,None,None,421.1666908999978,None,,,,,,,,,,,,,,,,,,,,,,,,,,,,,,,,,,,120 Sing,001,2022_Dec_01_1628,ProdSingRedoBetween,2021.2.3,60.049709149371864,
63,0,63,0,,,,,,,,,,,,,,,,,,,,,,,,,,425.6848887999986,None,century,17,64,sing,yellow,423.67538029999923,None,None,423.67538029999923,None,,,,,,,,,,,,,,,,,,,,,,,,,,,,,,,,,,,120 Sing,001,2022_Dec_01_1628,ProdSingRedoBetween,2021.2.3,60.049709149371864,
64,0,64,0,,,,,,,,,,,,,,,,,,,,,,,,,,428.2038676999982,None,frank,21,65,sing,yellow,426.1978667000003,None,None,426.1978667000003,None,,,,,,,,,,,,,,,,,,,,,,,,,,,,,,,,,,,120 Sing,001,2022_Dec_01_1628,ProdSingRedoBetween,2021.2.3,60.049709149371864,
65,0,65,0,,,,,,,,,,,,,,,,,,,,,,,,,,430.706538800001,None,direction,56,66,sing,blue,428.70451350000076,None,None,428.70451350000076,None,,,,,,,,,,,,,,,,,,,,,,,,,,,,,,,,,,,120 Sing,001,2022_Dec_01_1628,ProdSingRedoBetween,2021.2.3,60.049709149371864,
66,0,66,0,,,,,,,,,,,,,,,,,,,,,,,,,,433.22577380000075,None,detective,39,67,sing,blue,431.21039459999884,None,None,431.21039459999884,None,,,,,,,,,,,,,,,,,,,,,,,,,,,,,,,,,,,120 Sing,001,2022_Dec_01_1628,ProdSingRedoBetween,2021.2.3,60.049709149371864,
67,0,67,0,,,,,,,,,,,,,,,,,,,,,,,,,,435.7449357999976,None,primary,23,68,sing,yellow,433.73073179999847,None,None,433.73073179999847,None,,,,,,,,,,,,,,,,,,,,,,,,,,,,,,,,,,,120 Sing,001,2022_Dec_01_1628,ProdSingRedoBetween,2021.2.3,60.049709149371864,
68,0,68,0,,,,,,,,,,,,,,,,,,,,,,,,,,438.2475726999983,None,sleep,75,69,sing,red,436.2454341999983,None,None,436.2454341999983,None,,,,,,,,,,,,,,,,,,,,,,,,,,,,,,,,,,,120 Sing,001,2022_Dec_01_1628,ProdSingRedoBetween,2021.2.3,60.049709149371864,
69,0,69,0,,,,,,,,,,,,,,,,,,,,,,,,,,440.7499714999976,None,running,36,70,sing,blue,438.7497326999983,None,None,438.7497326999983,None,,,,,,,,,,,,,,,,,,,,,,,,,,,,,,,,,,,120 Sing,001,2022_Dec_01_1628,ProdSingRedoBetween,2021.2.3,60.049709149371864,
70,0,70,0,,,,,,,,,,,,,,,,,,,,,,,,,,443.26919540000017,None,heavy,25,71,sing,yellow,441.2563897,None,None,441.2563897,None,,,,,,,,,,,,,,,,,,,,,,,,,,,,,,,,,,,120 Sing,001,2022_Dec_01_1628,ProdSingRedoBetween,2021.2.3,60.049709149371864,
71,0,71,0,,,,,,,,,,,,,,,,,,,,,,,,,,445.77168750000055,None,brilliant,59,72,sing,yellow,443.77068130000043,None,None,443.77068130000043,None,,,,,,,,,,,,,,,,,,,,,,,,,,,,,,,,,,,120 Sing,001,2022_Dec_01_1628,ProdSingRedoBetween,2021.2.3,60.049709149371864,
72,0,72,0,,,,,,,,,,,,,,,,,,,,,,,,,,448.2909155999987,None,patient,70,73,sing,red,446.27751499999795,None,None,446.27751499999795,None,,,,,,,,,,,,,,,,,,,,,,,,,,,,,,,,,,,120 Sing,001,2022_Dec_01_1628,ProdSingRedoBetween,2021.2.3,60.049709149371864,
73,0,73,0,,,,,,,,,,,,,,,,,,,,,,,,,,450.8099325000003,None,platform,79,74,sing,red,448.79602349999914,None,None,448.79602349999914,None,,,,,,,,,,,,,,,,,,,,,,,,,,,,,,,,,,,120 Sing,001,2022_Dec_01_1628,ProdSingRedoBetween,2021.2.3,60.049709149371864,
74,0,74,0,,,,,,,,,,,,,,,,,,,,,,,,,,453.3124852000001,None,captain,33,75,sing,blue,451.31162960000074,None,None,451.31162960000074,None,,,,,,,,,,,,,,,,,,,,,,,,,,,,,,,,,,,120 Sing,001,2022_Dec_01_1628,ProdSingRedoBetween,2021.2.3,60.049709149371864,
75,0,75,0,,,,,,,,,,,,,,,,,,,,,,,,,,455.8149178999993,None,background,72,76,sing,red,453.81522539999787,None,None,453.81522539999787,None,,,,,,,,,,,,,,,,,,,,,,,,,,,,,,,,,,,120 Sing,001,2022_Dec_01_1628,ProdSingRedoBetween,2021.2.3,60.049709149371864,
76,0,76,0,,,,,,,,,,,,,,,,,,,,,,,,,,458.3341388999979,None,society,42,77,sing,blue,456.3266139999978,None,None,456.3266139999978,None,,,,,,,,,,,,,,,,,,,,,,,,,,,,,,,,,,,120 Sing,001,2022_Dec_01_1628,ProdSingRedoBetween,2021.2.3,60.049709149371864,
77,0,77,0,,,,,,,,,,,,,,,,,,,,,,,,,,460.85334069999953,None,quiet,54,78,sing,blue,458.84941179999805,None,None,458.84941179999805,None,,,,,,,,,,,,,,,,,,,,,,,,,,,,,,,,,,,120 Sing,001,2022_Dec_01_1628,ProdSingRedoBetween,2021.2.3,60.049709149371864,
78,0,78,0,,,,,,,,,,,,,,,,,,,,,,,,,,463.3559767000006,None,waste,14,79,sing,yellow,461.35382319999917,None,None,461.35382319999917,None,,,,,,,,,,,,,,,,,,,,,,,,,,,,,,,,,,,120 Sing,001,2022_Dec_01_1628,ProdSingRedoBetween,2021.2.3,60.049709149371864,
79,0,79,0,,,,,,,,,,,,,,,,,,,,,,,,,,465.87498699999924,None,ground,1,80,sing,yellow,463.8625968999986,None,None,463.8625968999986,None,,,,,,,,,,,,,,,,,,,,,,,,,,,,,,,,,,,120 Sing,001,2022_Dec_01_1628,ProdSingRedoBetween,2021.2.3,60.049709149371864,
80,0,80,0,,,,,,,,,,,,,,,,,,,,,,,,,,468.377367699999,None,carry,88,81,sing,red,466.37730159999774,None,None,466.37730159999774,None,,,,,,,,,,,,,,,,,,,,,,,,,,,,,,,,,,,120 Sing,001,2022_Dec_01_1628,ProdSingRedoBetween,2021.2.3,60.049709149371864,
81,0,81,0,,,,,,,,,,,,,,,,,,,,,,,,,,470.89670079999996,None,article,40,82,sing,blue,468.88202399999864,None,None,468.88202399999864,None,,,,,,,,,,,,,,,,,,,,,,,,,,,,,,,,,,,120 Sing,001,2022_Dec_01_1628,ProdSingRedoBetween,2021.2.3,60.049709149371864,
82,0,82,0,,,,,,,,,,,,,,,,,,,,,,,,,,473.4158537000003,None,review,44,83,sing,blue,471.4011107000006,None,None,471.4011107000006,None,,,,,,,,,,,,,,,,,,,,,,,,,,,,,,,,,,,120 Sing,001,2022_Dec_01_1628,ProdSingRedoBetween,2021.2.3,60.049709149371864,
83,0,83,0,,,,,,,,,,,,,,,,,,,,,,,,,,475.9351315999993,None,height,2,84,sing,yellow,473.9257074999987,None,None,473.9257074999987,None,,,,,,,,,,,,,,,,,,,,,,,,,,,,,,,,,,,120 Sing,001,2022_Dec_01_1628,ProdSingRedoBetween,2021.2.3,60.049709149371864,
84,0,84,0,,,,,,,,,,,,,,,,,,,,,,,,,,478.4376881999997,None,session,45,85,sing,blue,476.43763860000035,None,None,476.43763860000035,None,,,,,,,,,,,,,,,,,,,,,,,,,,,,,,,,,,,120 Sing,001,2022_Dec_01_1628,ProdSingRedoBetween,2021.2.3,60.049709149371864,
85,0,85,0,,,,,,,,,,,,,,,,,,,,,,,,,,480.94014590000006,None,phrase,68,86,sing,red,478.9411423999991,None,None,478.9411423999991,None,,,,,,,,,,,,,,,,,,,,,,,,,,,,,,,,,,,120 Sing,001,2022_Dec_01_1628,ProdSingRedoBetween,2021.2.3,60.049709149371864,
86,0,86,0,,,,,,,,,,,,,,,,,,,,,,,,,,483.4594051999993,None,drink,80,87,sing,red,481.4460633999988,None,None,481.4460633999988,None,,,,,,,,,,,,,,,,,,,,,,,,,,,,,,,,,,,120 Sing,001,2022_Dec_01_1628,ProdSingRedoBetween,2021.2.3,60.049709149371864,
87,0,87,0,,,,,,,,,,,,,,,,,,,,,,,,,,485.9784576999991,None,break,10,88,sing,yellow,483.9716292999983,None,None,483.9716292999983,None,,,,,,,,,,,,,,,,,,,,,,,,,,,,,,,,,,,120 Sing,001,2022_Dec_01_1628,ProdSingRedoBetween,2021.2.3,60.049709149371864,
88,0,88,0,,,,,,,,,,,,,,,,,,,,,,,,,,488.48065589999896,None,piece,12,89,sing,yellow,486.4808258999983,None,None,486.4808258999983,None,,,,,,,,,,,,,,,,,,,,,,,,,,,,,,,,,,,120 Sing,001,2022_Dec_01_1628,ProdSingRedoBetween,2021.2.3,60.049709149371864,
89,0,89,0,,,,,,,,,,,,,,,,,,,,,,,,,,491.0000942000006,None,number,46,90,sing,blue,488.9935512999982,None,None,488.9935512999982,None,,,,,,,,,,,,,,,,,,,,,,,,,,,,,,,,,,,120 Sing,001,2022_Dec_01_1628,ProdSingRedoBetween,2021.2.3,60.049709149371864,
,,,,,,,,,,,,,,,,,,,,,,,,,,,,,,,,,,,,,,,,,491.5009227999981,None,k,186.02462800000285,491.5009227999981,None,,,,,,,,,,,,,,,,,,,,,,,,,,,,,120 Sing,001,2022_Dec_01_1628,ProdSingRedoBetween,2021.2.3,60.049709149371864,
,,,,0,0,0,0,,,,,,,,,,,,,,,,,,,,,,687.0025084999979,None,,,,,,,,,,,,,,,,,turkey,7,1,sing,old,yellow,678.0724851999985,None,678.0724851999985,None,6,4.988741699999082,678.0724851999985,None,4.988741699999082,683.0936528999991,None,683.6091238000008,None,683.6091238000008,None,r,3.356301700001495,683.6091238000008,None,3.356301700001495,,,120 Sing,001,2022_Dec_01_1628,ProdSingRedoBetween,2021.2.3,60.049709149371864,
,,,,1,0,1,0,,,,,,,,,,,,,,,,,,,,,,700.794588599998,None,,,,,,,,,,,,,,,,,sweet,128,2,sing,new,null,687.5295322999991,None,687.5295322999991,None,1,9.16390390000015,687.5295322999991,None,9.16390390000015,696.7289094000007,None,697.2428570000011,None,697.2428570000011,None,f,3.5225055999981123,697.2428570000011,None,3.5225055999981123,,,120 Sing,001,2022_Dec_01_1628,ProdSingRedoBetween,2021.2.3,60.049709149371864,
,,,,2,0,2,0,,,,,,,,,,,,,,,,,,,,,,709.4517492999985,None,,,,,,,,,,,,,,,,,travel,142,3,sing,new,null,701.3057107999994,None,701.3057107999994,None,2,5.987674300002254,701.3057107999994,None,5.987674300002254,707.3236244,None,707.8335049999987,None,707.8335049999987,None,f,1.5878525000007357,707.8335049999987,None,1.5878525000007357,,,120 Sing,001,2022_Dec_01_1628,ProdSingRedoBetween,2021.2.3,60.049709149371864,
,,,,3,0,3,0,,,,,,,,,,,,,,,,,,,,,,718.4941696999995,None,,,,,,,,,,,,,,,,,front,81,4,sing,old,red,709.9525050999982,None,709.9525050999982,None,2,4.0130495999983395,709.9525050999982,None,4.0130495999983395,713.9968969000001,None,714.5074122999977,None,714.5074122999977,None,f,3.9619504000002053,714.5074122999977,None,3.9619504000002053,,,120 Sing,001,2022_Dec_01_1628,ProdSingRedoBetween,2021.2.3,60.049709149371864,
,,,,4,0,4,0,,,,,,,,,,,,,,,,,,,,,,723.3658118999992,None,,,,,,,,,,,,,,,,,colonel,133,5,sing,new,null,719.0038918999999,None,719.0038918999999,None,1,2.073612799998955,719.0038918999999,None,2.073612799998955,721.1048038000008,None,721.6140510000005,None,721.6140510000005,None,n,1.7353374999984226,721.6140510000005,None,1.7353374999984226,,,120 Sing,001,2022_Dec_01_1628,ProdSingRedoBetween,2021.2.3,60.049709149371864,
,,,,5,0,5,0,,,,,,,,,,,,,,,,,,,,,,727.8867033999995,None,,,,,,,,,,,,,,,,,brilliant,59,6,sing,old,yellow,723.8665388000009,None,723.8665388000009,None,1,2.2270113000013225,723.8665388000009,None,2.2270113000013225,726.1199027000002,None,726.630182500001,None,726.630182500001,None,n,1.2391594000000623,726.630182500001,None,1.2391594000000623,,,120 Sing,001,2022_Dec_01_1628,ProdSingRedoBetween,2021.2.3,60.049709149371864,
,,,,6,0,6,0,,,,,,,,,,,,,,,,,,,,,,732.0243644000002,None,,,,,,,,,,,,,,,,,pattern,122,7,sing,new,null,728.396086599998,None,728.396086599998,None,1,2.145279499996832,728.396086599998,None,2.145279499996832,730.5576011999983,None,731.0567392000012,None,731.0567392000012,None,n,0.9486324999998033,731.0567392000012,None,0.9486324999998033,,,120 Sing,001,2022_Dec_01_1628,ProdSingRedoBetween,2021.2.3,60.049709149371864,
,,,,7,0,7,0,,,,,,,,,,,,,,,,,,,,,,736.4788449999978,None,,,,,,,,,,,,,,,,,disease,35,8,sing,old,blue,732.5432106000007,None,732.5432106000007,None,6,2.0701641000014206,732.5432106000007,None,2.0701641000014206,734.6446303999983,None,735.1440450000009,None,735.1440450000009,None,r,1.3093097999990277,735.1440450000009,None,1.3093097999990277,,,120 Sing,001,2022_Dec_01_1628,ProdSingRedoBetween,2021.2.3,60.049709149371864,
,,,,8,0,8,0,,,,,,,,,,,,,,,,,,,,,,740.4035057000001,None,,,,,,,,,,,,,,,,,produce,34,9,sing,old,blue,736.9835954000009,None,736.9835954000009,None,6,2.069905899999867,736.9835954000009,None,2.069905899999867,739.0836208000001,None,739.5988551999981,None,739.5988551999981,None,r,0.7748132000015175,739.5988551999981,None,0.7748132000015175,,,120 Sing,001,2022_Dec_01_1628,ProdSingRedoBetween,2021.2.3,60.049709149371864,
,,,,9,0,9,0,,,,,,,,,,,,,,,,,,,,,,743.9041832000003,None,,,,,,,,,,,,,,,,,tough,27,10,sing,old,yellow,740.9296826999998,None,740.9296826999998,None,6,1.387604100000317,740.9296826999998,None,1.387604100000317,742.3358404999999,None,742.8470534999979,None,742.8470534999979,None,r,1.0305669999979727,742.8470534999979,None,1.0305669999979727,,,120 Sing,001,2022_Dec_01_1628,ProdSingRedoBetween,2021.2.3,60.049709149371864,
,,,,10,0,10,0,,,,,,,,,,,,,,,,,,,,,,747.5398476000009,None,,,,,,,,,,,,,,,,,suggestion,18,11,sing,old,yellow,744.419922000001,None,744.419922000001,None,6,1.5694578000002366,744.419922000001,None,1.5694578000002366,746.0086506000007,None,746.5409350000009,None,746.5409350000009,None,r,0.9764065999988816,746.5409350000009,None,0.9764065999988816,,,120 Sing,001,2022_Dec_01_1628,ProdSingRedoBetween,2021.2.3,60.049709149371864,
,,,,11,0,11,0,,,,,,,,,,,,,,,,,,,,,,752.3446937999979,None,,,,,,,,,,,,,,,,,worker,114,12,sing,new,null,748.0524138000001,None,748.0524138000001,None,2,2.4650140999983705,748.0524138000001,None,2.4650140999983705,750.5507976999979,None,751.0608372999995,None,751.0608372999995,None,f,1.2644696999996086,751.0608372999995,None,1.2644696999996086,,,120 Sing,001,2022_Dec_01_1628,ProdSingRedoBetween,2021.2.3,60.049709149371864,
,,,,12,0,12,0,,,,,,,,,,,,,,,,,,,,,,756.9158471999981,None,,,,,,,,,,,,,,,,,symbol,125,13,sing,new,null,752.8523206999998,None,752.8523206999998,None,3,2.5610114999981306,752.8523206999998,None,2.5610114999981306,755.4346312999987,None,755.9537167999988,None,755.9537167999988,None,f,0.93964380000034,755.9537167999988,None,0.93964380000034,,,120 Sing,001,2022_Dec_01_1628,ProdSingRedoBetween,2021.2.3,60.049709149371864,
,,,,13,0,13,0,,,,,,,,,,,,,,,,,,,,,,761.5114261999988,None,,,,,,,,,,,,,,,,,mechanical,77,14,sing,old,red,757.4327087999991,None,757.4327087999991,None,1,2.148733499998343,757.4327087999991,None,2.148733499998343,759.6032588999988,None,760.1061327999996,None,760.1061327999996,None,n,1.371426599998813,760.1061327999996,None,1.371426599998813,,,120 Sing,001,2022_Dec_01_1628,ProdSingRedoBetween,2021.2.3,60.049709149371864,
,,,,14,0,14,0,,,,,,,,,,,,,,,,,,,,,,766.1415340999993,None,,,,,,,,,,,,,,,,,personnel,83,15,sing,old,red,762.0289301999983,None,762.0289301999983,None,6,1.80043470000237,762.0289301999983,None,1.80043470000237,763.8620076000007,None,764.3736003999984,None,764.3736003999984,None,r,1.7518110999990313,764.3736003999984,None,1.7518110999990313,,,120 Sing,001,2022_Dec_01_1628,ProdSingRedoBetween,2021.2.3,60.049709149371864,
,,,,15,0,15,0,,,,,,,,,,,,,,,,,,,,,,770.931261400001,None,,,,,,,,,,,,,,,,,exchange,132,16,sing,new,null,766.6586991000004,None,766.6586991000004,None,1,2.626741400003084,766.6586991000004,None,2.626741400003084,769.3175273999987,None,769.8288871000004,None,769.8288871000004,None,f,1.0725597000018752,769.8288871000004,None,1.0725597000018752,,,120 Sing,001,2022_Dec_01_1628,ProdSingRedoBetween,2021.2.3,60.049709149371864,
,,,,16,0,16,0,,,,,,,,,,,,,,,,,,,,,,775.6846541999985,None,,,,,,,,,,,,,,,,,short,135,17,sing,new,null,771.44254,None,771.44254,None,1,2.042874799997662,771.44254,None,2.042874799997662,773.5225305999993,None,774.0331196999978,None,774.0331196999978,None,n,1.6362177999981213,774.0331196999978,None,1.6362177999981213,,,120 Sing,001,2022_Dec_01_1628,ProdSingRedoBetween,2021.2.3,60.049709149371864,
,,,,17,0,17,0,,,,,,,,,,,,,,,,,,,,,,783.5428379000004,None,,,,,,,,,,,,,,,,,collection,130,18,sing,new,null,776.1976075999992,None,776.1976075999992,None,3,2.335755300002347,776.1976075999992,None,2.335755300002347,778.5545524000008,None,779.0592284999984,None,779.0592284999984,None,f,4.466168700000708,779.0592284999984,None,4.466168700000708,,,120 Sing,001,2022_Dec_01_1628,ProdSingRedoBetween,2021.2.3,60.049709149371864,
,,,,18,0,18,0,,,,,,,,,,,,,,,,,,,,,,787.246243499998,None,,,,,,,,,,,,,,,,,height,2,19,sing,old,yellow,784.0516287999999,None,784.0516287999999,None,6,1.6977583999978378,784.0516287999999,None,1.6977583999978378,785.7780676000002,None,786.2851042000002,None,786.2851042000002,None,r,0.9362541999980749,786.2851042000002,None,0.9362541999980749,,,120 Sing,001,2022_Dec_01_1628,ProdSingRedoBetween,2021.2.3,60.049709149371864,
,,,,19,0,19,0,,,,,,,,,,,,,,,,,,,,,,794.0210588000009,None,,,,,,,,,,,,,,,,,election,31,20,sing,old,blue,787.7556605999998,None,787.7556605999998,None,6,1.4897383000025002,787.7556605999998,None,1.4897383000025002,789.2668410999977,None,789.781891300001,None,789.781891300001,None,f,4.207559800001036,789.781891300001,None,4.207559800001036,,,120 Sing,001,2022_Dec_01_1628,ProdSingRedoBetween,2021.2.3,60.049709149371864,
,,,,20,0,20,0,,,,,,,,,,,,,,,,,,,,,,796.9067977999985,None,,,,,,,,,,,,,,,,,angle,19,21,sing,old,yellow,794.5350876999983,None,794.5350876999983,None,6,1.4142616000026464,794.5350876999983,None,1.4142616000026464,795.9732894999979,None,796.4904820999982,None,796.4904820999982,None,r,0.39494550000017625,796.4904820999982,None,0.39494550000017625,,,120 Sing,001,2022_Dec_01_1628,ProdSingRedoBetween,2021.2.3,60.049709149371864,
,,,,21,0,21,0,,,,,,,,,,,,,,,,,,,,,,802.4324243999981,None,,,,,,,,,,,,,,,,,level,115,22,sing,new,null,797.4228913999978,None,797.4228913999978,None,5,3.5747513999995135,797.4228913999978,None,3.5747513999995135,801.0347689000009,None,801.5491517999981,None,801.5491517999981,None,f,0.8563952000004065,801.5491517999981,None,0.8563952000004065,,,120 Sing,001,2022_Dec_01_1628,ProdSingRedoBetween,2021.2.3,60.049709149371864,
,,,,22,0,22,0,,,,,,,,,,,,,,,,,,,,,,805.7647422000009,None,,,,,,,,,,,,,,,,,dispute,179,23,sing,new,null,802.9569028999977,None,802.9569028999977,None,6,1.5204908999985491,802.9569028999977,None,1.5204908999985491,804.500157399998,None,805.0189991000007,None,805.0189991000007,None,r,0.7143955999999889,805.0189991000007,None,0.7143955999999889,,,120 Sing,001,2022_Dec_01_1628,ProdSingRedoBetween,2021.2.3,60.049709149371864,
,,,,23,0,23,0,,,,,,,,,,,,,,,,,,,,,,809.5033164999986,None,,,,,,,,,,,,,,,,,quick,99,24,sing,new,null,806.2691751999992,None,806.2691751999992,None,3,1.6721878999996989,806.2691751999992,None,1.6721878999996989,807.9699451999986,None,808.4897094000007,None,808.4897094000007,None,f,0.9878650999999081,808.4897094000007,None,0.9878650999999081,,,120 Sing,001,2022_Dec_01_1628,ProdSingRedoBetween,2021.2.3,60.049709149371864,
,,,,24,0,24,0,,,,,,,,,,,,,,,,,,,,,,812.604900899998,None,,,,,,,,,,,,,,,,,appearance,161,25,sing,new,null,810.0231654999989,None,810.0231654999989,None,6,1.302209600002243,810.0231654999989,None,1.302209600002243,811.3563131999981,None,811.8749175000012,None,811.8749175000012,None,r,0.6985002000001259,811.8749175000012,None,0.6985002000001259,,,120 Sing,001,2022_Dec_01_1628,ProdSingRedoBetween,2021.2.3,60.049709149371864,
,,,,25,0,25,0,,,,,,,,,,,,,,,,,,,,,,816.6266877999988,None,,,,,,,,,,,,,,,,,captain,33,26,sing,old,blue,813.1132493999976,None,813.1132493999976,None,6,2.2204357000009622,813.1132493999976,None,2.2204357000009622,815.3677280000011,None,815.8749433999983,None,815.8749433999983,None,r,0.730495300002076,815.8749433999983,None,0.730495300002076,,,120 Sing,001,2022_Dec_01_1628,ProdSingRedoBetween,2021.2.3,60.049709149371864,
,,,,26,0,26,0,,,,,,,,,,,,,,,,,,,,,,819.2448112999991,None,,,,,,,,,,,,,,,,,drama,57,27,sing,old,blue,817.138299899998,None,817.138299899998,None,6,1.107126099999732,817.138299899998,None,1.107126099999732,818.2634087999977,None,818.7801610999995,None,818.7801610999995,None,r,0.4493520999967586,818.7801610999995,None,0.4493520999967586,,,120 Sing,001,2022_Dec_01_1628,ProdSingRedoBetween,2021.2.3,60.049709149371864,
,,,,27,0,27,0,,,,,,,,,,,,,,,,,,,,,,822.1310358999981,None,,,,,,,,,,,,,,,,,subject,62,28,sing,old,red,819.7655773000006,None,819.7655773000006,None,6,1.1758831000006467,819.7655773000006,None,1.1758831000006467,820.9749918999987,None,821.4847485999999,None,821.4847485999999,None,r,0.6246687999991991,821.4847485999999,None,0.6246687999991991,,,120 Sing,001,2022_Dec_01_1628,ProdSingRedoBetween,2021.2.3,60.049709149371864,
,,,,28,0,28,0,,,,,,,,,,,,,,,,,,,,,,827.2528175000007,None,,,,,,,,,,,,,,,,,charter,85,29,sing,old,red,822.6381641999978,None,822.6381641999978,None,4,3.21526939999967,822.6381641999978,None,3.21526939999967,825.8848061999997,None,826.3896094999982,None,826.3896094999982,None,f,0.8398768000006385,826.3896094999982,None,0.8398768000006385,,,120 Sing,001,2022_Dec_01_1628,ProdSingRedoBetween,2021.2.3,60.049709149371864,
,,,,29,0,29,0,,,,,,,,,,,,,,,,,,,,,,831.9430451000007,None,,,,,,,,,,,,,,,,,minor,126,30,sing,new,null,827.7609677,None,827.7609677,None,3,1.5404669999988982,827.7609677,None,1.5404669999988982,829.3270341999996,None,829.8403030000009,None,829.8403030000009,None,n,2.0692218000003777,829.8403030000009,None,2.0692218000003777,,,120 Sing,001,2022_Dec_01_1628,ProdSingRedoBetween,2021.2.3,60.049709149371864,
,,,,30,0,30,0,,,,,,,,,,,,,,,,,,,,,,839.815443200001,None,,,,,,,,,,,,,,,,,incident,120,31,sing,new,null,832.4679442999986,None,832.4679442999986,None,2,5.657449299997097,832.4679442999986,None,5.657449299997097,838.1470273999985,None,838.6528018999998,None,838.6528018999998,None,f,1.1446308000013232,838.6528018999998,None,1.1446308000013232,,,120 Sing,001,2022_Dec_01_1628,ProdSingRedoBetween,2021.2.3,60.049709149371864,
,,,,31,0,31,0,,,,,,,,,,,,,,,,,,,,,,844.1698656999979,None,,,,,,,,,,,,,,,,,problem,178,32,sing,new,null,840.3256880999979,None,840.3256880999979,None,6,2.415653600000951,840.3256880999979,None,2.415653600000951,842.7690648999996,None,843.2691349999986,None,843.2691349999986,None,r,0.8802427999980864,843.2691349999986,None,0.8802427999980864,,,120 Sing,001,2022_Dec_01_1628,ProdSingRedoBetween,2021.2.3,60.049709149371864,
,,,,32,0,32,0,,,,,,,,,,,,,,,,,,,,,,848.1905554000004,None,,,,,,,,,,,,,,,,,second,110,33,sing,new,null,844.6702155999992,None,844.6702155999992,None,4,1.7592002999990655,844.6702155999992,None,1.7592002999990655,846.4579640000011,None,846.9843354000004,None,846.9843354000004,None,n,1.189029200002551,846.9843354000004,None,1.189029200002551,,,120 Sing,001,2022_Dec_01_1628,ProdSingRedoBetween,2021.2.3,60.049709149371864,
,,,,33,0,33,0,,,,,,,,,,,,,,,,,,,,,,852.6449222999981,None,,,,,,,,,,,,,,,,,appeal,134,34,sing,new,null,848.6910151000011,None,848.6910151000011,None,1,2.8824330999996164,848.6910151000011,None,2.8824330999996164,851.5953898999978,None,852.0945991000008,None,852.0945991000008,None,n,0.5270200000013574,852.0945991000008,None,0.5270200000013574,,,120 Sing,001,2022_Dec_01_1628,ProdSingRedoBetween,2021.2.3,60.049709149371864,
,,,,34,0,34,0,,,,,,,,,,,,,,,,,,,,,,862.5055705999985,None,,,,,,,,,,,,,,,,,close,11,35,sing,old,yellow,853.1586695000005,None,853.1586695000005,None,6,6.974950300002092,853.1586695000005,None,6.974950300002092,860.1624678000007,None,860.6695510999998,None,860.6695510999998,None,r,1.815828300001158,860.6695510999998,None,1.815828300001158,,,120 Sing,001,2022_Dec_01_1628,ProdSingRedoBetween,2021.2.3,60.049709149371864,
,,,,35,0,35,0,,,,,,,,,,,,,,,,,,,,,,865.7914024999991,None,,,,,,,,,,,,,,,,,executive,91,36,sing,new,null,863.0063534000001,None,863.0063534000001,None,6,1.43899170000077,863.0063534000001,None,1.43899170000077,864.476496299998,None,864.990714399999,None,864.990714399999,None,r,0.7826943000000028,864.990714399999,None,0.7826943000000028,,,120 Sing,001,2022_Dec_01_1628,ProdSingRedoBetween,2021.2.3,60.049709149371864,
,,,,36,0,36,0,,,,,,,,,,,,,,,,,,,,,,871.7857936,None,,,,,,,,,,,,,,,,,error,107,37,sing,new,null,866.3068547000003,None,866.3068547000003,None,1,2.170740300000034,866.3068547000003,None,2.170740300000034,868.5084485000007,None,869.0139167999987,None,869.0139167999987,None,f,2.7358502999995835,869.0139167999987,None,2.7358502999995835,,,120 Sing,001,2022_Dec_01_1628,ProdSingRedoBetween,2021.2.3,60.049709149371864,
,,,,37,0,37,0,,,,,,,,,,,,,,,,,,,,,,881.8574502999982,None,,,,,,,,,,,,,,,,,individual,102,38,sing,new,null,872.3040512999978,None,872.3040512999978,None,1,7.973387300000468,872.3040512999978,None,7.973387300000468,880.3079221000007,None,880.8264916999979,None,880.8264916999979,None,f,1.0109974999977567,880.8264916999979,None,1.0109974999977567,,,120 Sing,001,2022_Dec_01_1628,ProdSingRedoBetween,2021.2.3,60.049709149371864,
,,,,38,0,38,0,,,,,,,,,,,,,,,,,,,,,,886.1780934999988,None,,,,,,,,,,,,,,,,,candidate,100,39,sing,new,null,882.3582045000003,None,882.3582045000003,None,1,1.9431761000014376,882.3582045000003,None,1.9431761000014376,884.3290349999988,None,884.8437325999985,None,884.8437325999985,None,f,1.3135956000005535,884.8437325999985,None,1.3135956000005535,,,120 Sing,001,2022_Dec_01_1628,ProdSingRedoBetween,2021.2.3,60.049709149371864,
,,,,39,0,39,0,,,,,,,,,,,,,,,,,,,,,,889.8652383999979,None,,,,,,,,,,,,,,,,,write,123,40,sing,new,null,886.6788720000004,None,886.6788720000004,None,6,2.238460299999133,886.6788720000004,None,2.238460299999133,888.9531248999992,None,889.4652084000008,None,889.4652084000008,None,r,0.38023750000138534,889.4652084000008,None,0.38023750000138534,,,120 Sing,001,2022_Dec_01_1628,ProdSingRedoBetween,2021.2.3,60.049709149371864,
,,,,40,0,40,0,,,,,,,,,,,,,,,,,,,,,,892.4847296999978,None,,,,,,,,,,,,,,,,,society,42,41,sing,old,blue,890.3659512999984,None,890.3659512999984,None,6,1.0633629000003566,890.3659512999984,None,1.0633629000003566,891.4502967999979,None,891.9508132999981,None,891.9508132999981,None,r,0.510664800000086,891.9508132999981,None,0.510664800000086,,,120 Sing,001,2022_Dec_01_1628,ProdSingRedoBetween,2021.2.3,60.049709149371864,
,,,,41,0,41,0,,,,,,,,,,,,,,,,,,,,,,899.0087686000006,None,,,,,,,,,,,,,,,,,owner,111,42,sing,new,null,892.9855303000004,None,892.9855303000004,None,5,3.795784100002493,892.9855303000004,None,3.795784100002493,896.8099518999989,None,897.3229291999996,None,897.3229291999996,None,f,1.6584446000015305,897.3229291999996,None,1.6584446000015305,,,120 Sing,001,2022_Dec_01_1628,ProdSingRedoBetween,2021.2.3,60.049709149371864,
,,,,42,0,42,0,,,,,,,,,,,,,,,,,,,,,,902.2621789000004,None,,,,,,,,,,,,,,,,,commercial,65,43,sing,old,red,899.5138975000009,None,899.5138975000009,None,6,1.475713600000745,899.5138975000009,None,1.475713600000745,901.0185603999998,None,901.5271986000007,None,901.5271986000007,None,r,0.7105774999981804,901.5271986000007,None,0.7105774999981804,,,120 Sing,001,2022_Dec_01_1628,ProdSingRedoBetween,2021.2.3,60.049709149371864,
,,,,43,0,43,0,,,,,,,,,,,,,,,,,,,,,,906.3831131000006,None,,,,,,,,,,,,,,,,,phrase,68,44,sing,old,red,902.7650823000004,None,902.7650823000004,None,3,2.2164062000010745,902.7650823000004,None,2.2164062000010745,905.0002746999999,None,905.5145955000007,None,905.5145955000007,None,f,0.8510256999979902,905.5145955000007,None,0.8510256999979902,,,120 Sing,001,2022_Dec_01_1628,ProdSingRedoBetween,2021.2.3,60.049709149371864,
,,,,44,0,44,0,,,,,,,,,,,,,,,,,,,,,,916.4586292999993,None,,,,,,,,,,,,,,,,,death,105,45,sing,new,null,906.8955378999999,None,906.8955378999999,None,1,2.1579357000009622,906.8955378999999,None,2.1579357000009622,909.0911586000002,None,909.6040525999997,None,909.6040525999997,None,n,6.825391300000774,909.6040525999997,None,6.825391300000774,,,120 Sing,001,2022_Dec_01_1628,ProdSingRedoBetween,2021.2.3,60.049709149371864,
,,,,45,0,45,0,,,,,,,,,,,,,,,,,,,,,,919.4279074999977,None,,,,,,,,,,,,,,,,,series,37,46,sing,old,blue,916.9671813999994,None,916.9671813999994,None,6,1.5343579000000318,916.9671813999994,None,1.5343579000000318,918.5307699000005,None,919.0460324999985,None,919.0460324999985,None,r,0.35947030000170344,919.0460324999985,None,0.35947030000170344,,,120 Sing,001,2022_Dec_01_1628,ProdSingRedoBetween,2021.2.3,60.049709149371864,
,,,,46,0,46,0,,,,,,,,,,,,,,,,,,,,,,922.0018310999985,None,,,,,,,,,,,,,,,,,pretty,71,47,sing,old,red,919.9439643999976,None,919.9439643999976,None,6,1.0775085000022955,919.9439643999976,None,1.0775085000022955,921.0513094999988,None,921.5689170000005,None,921.5689170000005,None,r,0.41266039999754867,921.5689170000005,None,0.41266039999754867,,,120 Sing,001,2022_Dec_01_1628,ProdSingRedoBetween,2021.2.3,60.049709149371864,
,,,,47,0,47,0,,,,,,,,,,,,,,,,,,,,,,925.4843381999999,None,,,,,,,,,,,,,,,,,damage,127,48,sing,new,null,922.518305499998,None,922.518305499998,None,5,2.1190483999998833,922.518305499998,None,2.1190483999998833,924.6666592000001,None,925.1711350000005,None,925.1711350000005,None,r,0.2982956000014383,925.1711350000005,None,0.2982956000014383,,,120 Sing,001,2022_Dec_01_1628,ProdSingRedoBetween,2021.2.3,60.049709149371864,
,,,,48,0,48,0,,,,,,,,,,,,,,,,,,,,,,927.9702728999982,None,,,,,,,,,,,,,,,,,quiet,54,49,sing,old,blue,925.9975516999984,None,925.9975516999984,None,6,1.0638852000010957,925.9975516999984,None,1.0638852000010957,927.0874866999984,None,927.5916723999981,None,927.5916723999981,None,r,0.3497741999999562,927.5916723999981,None,0.3497741999999562,,,120 Sing,001,2022_Dec_01_1628,ProdSingRedoBetween,2021.2.3,60.049709149371864,
,,,,49,0,49,0,,,,,,,,,,,,,,,,,,,,,,933.2753244999985,None,,,,,,,,,,,,,,,,,engineer,108,50,sing,new,null,928.4706829999996,None,928.4706829999996,None,2,2.3348102000018116,928.4706829999996,None,2.3348102000018116,930.8296613999992,None,931.3445747999976,None,931.3445747999976,None,f,1.9009440000008908,931.3445747999976,None,1.9009440000008908,,,120 Sing,001,2022_Dec_01_1628,ProdSingRedoBetween,2021.2.3,60.049709149371864,
,,,,50,0,50,0,,,,,,,,,,,,,,,,,,,,,,938.148891599998,None,,,,,,,,,,,,,,,,,childhood,157,51,sing,new,null,933.7892289999982,None,933.7892289999982,None,1,1.4802478999990853,933.7892289999982,None,1.4802478999990853,935.3013394000009,None,935.815226499999,None,935.815226499999,None,f,2.3102756000007503,935.815226499999,None,2.3102756000007503,,,120 Sing,001,2022_Dec_01_1628,ProdSingRedoBetween,2021.2.3,60.049709149371864,
,,,,51,0,51,0,,,,,,,,,,,,,,,,,,,,,,941.5503888999992,None,,,,,,,,,,,,,,,,,notice,30,52,sing,old,blue,938.6763382999998,None,938.6763382999998,None,6,1.8012677000006079,938.6763382999998,None,1.8012677000006079,940.5113361000003,None,941.0179725999988,None,941.0179725999988,None,r,0.5154264000011608,941.0179725999988,None,0.5154264000011608,,,120 Sing,001,2022_Dec_01_1628,ProdSingRedoBetween,2021.2.3,60.049709149371864,
,,,,52,0,52,0,,,,,,,,,,,,,,,,,,,,,,949.2747469999995,None,,,,,,,,,,,,,,,,,machinery,51,53,sing,old,blue,942.0626095000007,None,942.0626095000007,None,1,4.038826700001664,942.0626095000007,None,4.038826700001664,946.1251740000007,None,946.6415243999982,None,946.6415243999982,None,f,2.611920999999711,946.6415243999982,None,2.611920999999711,,,120 Sing,001,2022_Dec_01_1628,ProdSingRedoBetween,2021.2.3,60.049709149371864,
,,,,53,0,53,0,,,,,,,,,,,,,,,,,,,,,,952.0106544000009,None,,,,,,,,,,,,,,,,,private,53,54,sing,old,blue,949.7887623999995,None,949.7887623999995,None,6,1.2247611000020697,949.7887623999995,None,1.2247611000020697,951.054692499998,None,951.5605184999986,None,951.5605184999986,None,r,0.42897809999703895,951.5605184999986,None,0.42897809999703895,,,120 Sing,001,2022_Dec_01_1628,ProdSingRedoBetween,2021.2.3,60.049709149371864,
,,,,54,0,54,0,,,,,,,,,,,,,,,,,,,,,,956.3652060999993,None,,,,,,,,,,,,,,,,,color,163,55,sing,new,null,952.5125857999992,None,952.5125857999992,None,6,1.9327878999974928,952.5125857999992,None,1.9327878999974928,954.465684499999,None,954.9828044999995,None,954.9828044999995,None,r,1.3586413999983051,954.9828044999995,None,1.3586413999983051,,,120 Sing,001,2022_Dec_01_1628,ProdSingRedoBetween,2021.2.3,60.049709149371864,
,,,,55,0,55,0,,,,,,,,,,,,,,,,,,,,,,959.3693017999976,None,,,,,,,,,,,,,,,,,route,52,56,sing,old,blue,956.8726031999977,None,956.8726031999977,None,6,1.540724799997406,956.8726031999977,None,1.540724799997406,958.4358819000008,None,958.9566521999986,None,958.9566521999986,None,r,0.38488069999948493,958.9566521999986,None,0.38488069999948493,,,120 Sing,001,2022_Dec_01_1628,ProdSingRedoBetween,2021.2.3,60.049709149371864,
,,,,56,0,56,0,,,,,,,,,,,,,,,,,,,,,,962.8550146999987,None,,,,,,,,,,,,,,,,,waste,14,57,sing,old,yellow,959.8812094999994,None,959.8812094999994,None,6,2.0603111000018544,959.8812094999994,None,2.0603111000018544,961.9768031999993,None,962.4909703999983,None,962.4909703999983,None,r,0.3385128999980225,962.4909703999983,None,0.3385128999980225,,,120 Sing,001,2022_Dec_01_1628,ProdSingRedoBetween,2021.2.3,60.049709149371864,
,,,,57,0,57,0,,,,,,,,,,,,,,,,,,,,,,965.2573327999999,None,,,,,,,,,,,,,,,,,primary,23,58,sing,old,yellow,963.3579050000008,None,963.3579050000008,None,6,0.999395499999082,963.3579050000008,None,0.999395499999082,964.3813994000011,None,964.8905894999989,None,964.8905894999989,None,r,0.3468377999997756,964.8905894999989,None,0.3468377999997756,,,120 Sing,001,2022_Dec_01_1628,ProdSingRedoBetween,2021.2.3,60.049709149371864,
,,,,58,0,58,0,,,,,,,,,,,,,,,,,,,,,,970.6624129000011,None,,,,,,,,,,,,,,,,,report,93,59,sing,new,null,965.7607223999985,None,965.7607223999985,None,5,3.8206083000004583,965.7607223999985,None,3.8206083000004583,969.6144937999998,None,970.1292666000008,None,970.1292666000008,None,r,0.5161926000000676,970.1292666000008,None,0.5161926000000676,,,120 Sing,001,2022_Dec_01_1628,ProdSingRedoBetween,2021.2.3,60.049709149371864,
,,,,59,0,59,0,,,,,,,,,,,,,,,,,,,,,,978.3538128,None,,,,,,,,,,,,,,,,,fellow,124,60,sing,new,null,971.1640512999984,None,971.1640512999984,None,1,2.1292901000015263,971.1640512999984,None,2.1292901000015263,973.3202579999997,None,973.8329764000009,None,973.8329764000009,None,n,4.492382299999008,973.8329764000009,None,4.492382299999008,,,120 Sing,001,2022_Dec_01_1628,ProdSingRedoBetween,2021.2.3,60.049709149371864,
,,,,60,0,60,0,,,,,,,,,,,,,,,,,,,,,,983.8428554999991,None,,,,,,,,,,,,,,,,,husband,8,61,sing,old,yellow,978.8544211000008,None,978.8544211000008,None,6,3.8709280000002764,978.8544211000008,None,3.8709280000002764,982.7436339999986,None,983.2587941999991,None,983.2587941999991,None,r,0.5626526999985799,983.2587941999991,None,0.5626526999985799,,,120 Sing,001,2022_Dec_01_1628,ProdSingRedoBetween,2021.2.3,60.049709149371864,
,,,,61,0,61,0,,,,,,,,,,,,,,,,,,,,,,986.7622931000005,None,,,,,,,,,,,,,,,,,silence,4,62,sing,old,yellow,984.3466654000003,None,984.3466654000003,None,6,1.2348319000011543,984.3466654000003,None,1.2348319000011543,985.6170310999987,None,986.1283879000002,None,986.1283879000002,None,r,0.604949000000488,986.1283879000002,None,0.604949000000488,,,120 Sing,001,2022_Dec_01_1628,ProdSingRedoBetween,2021.2.3,60.049709149371864,
,,,,62,0,62,0,,,,,,,,,,,,,,,,,,,,,,991.2500359000005,None,,,,,,,,,,,,,,,,,vision,160,63,sing,new,null,987.2648453000002,None,987.2648453000002,None,4,1.724499799998739,987.2648453000002,None,1.724499799998739,989.0183254000003,None,989.5317849999992,None,989.5317849999992,None,f,1.6895617000009224,989.5317849999992,None,1.6895617000009224,,,120 Sing,001,2022_Dec_01_1628,ProdSingRedoBetween,2021.2.3,60.049709149371864,
,,,,63,0,63,0,,,,,,,,,,,,,,,,,,,,,,995.270469799998,None,,,,,,,,,,,,,,,,,platform,79,64,sing,old,red,991.7505335999995,None,991.7505335999995,None,6,2.6148236999979417,991.7505335999995,None,2.6148236999979417,994.3896008999982,None,994.9040619999978,None,994.9040619999978,None,r,0.3494812999997521,994.9040619999978,None,0.3494812999997521,,,120 Sing,001,2022_Dec_01_1628,ProdSingRedoBetween,2021.2.3,60.049709149371864,
,,,,64,0,64,0,,,,,,,,,,,,,,,,,,,,,,997.8400335999977,None,,,,,,,,,,,,,,,,,emergency,48,65,sing,old,blue,995.7714855999984,None,995.7714855999984,None,6,1.1940217000010307,995.7714855999984,None,1.1940217000010307,996.9907725999983,None,997.5065868999991,None,997.5065868999991,None,r,0.31477340000128606,997.5065868999991,None,0.31477340000128606,,,120 Sing,001,2022_Dec_01_1628,ProdSingRedoBetween,2021.2.3,60.049709149371864,
,,,,65,0,65,0,,,,,,,,,,,,,,,,,,,,,,1002.2609114000006,None,,,,,,,,,,,,,,,,,shear,143,66,sing,new,null,998.3410289999993,None,998.3410289999993,None,2,2.408354799998051,998.3410289999993,None,2.408354799998051,1000.7790824000003,None,1001.303770999999,None,1001.303770999999,None,f,0.925596900000528,1001.303770999999,None,0.925596900000528,,,120 Sing,001,2022_Dec_01_1628,ProdSingRedoBetween,2021.2.3,60.049709149371864,
,,,,66,0,66,0,,,,,,,,,,,,,,,,,,,,,,1006.331482900001,None,,,,,,,,,,,,,,,,,match,141,67,sing,new,null,1002.7618633999991,None,1002.7618633999991,None,2,2.0515553999975964,1002.7618633999991,None,2.0515553999975964,1004.8355673999977,None,1005.3471165999981,None,1005.3471165999981,None,f,0.9542565000010654,1005.3471165999981,None,0.9542565000010654,,,120 Sing,001,2022_Dec_01_1628,ProdSingRedoBetween,2021.2.3,60.049709149371864,
,,,,67,0,67,0,,,,,,,,,,,,,,,,,,,,,,1010.9067987999988,None,,,,,,,,,,,,,,,,,growth,106,68,sing,new,null,1006.835626,None,1006.835626,None,6,3.097753099998954,1006.835626,None,3.097753099998954,1009.9586338000008,None,1010.4693310000002,None,1010.4693310000002,None,r,0.41626669999823207,1010.4693310000002,None,0.41626669999823207,,,120 Sing,001,2022_Dec_01_1628,ProdSingRedoBetween,2021.2.3,60.049709149371864,
,,,,68,0,68,0,,,,,,,,,,,,,,,,,,,,,,1015.543475800001,None,,,,,,,,,,,,,,,,,voice,177,69,sing,new,null,1011.4232155999998,None,1011.4232155999998,None,5,3.0301777999993647,1011.4232155999998,None,3.0301777999993647,1014.4832194999981,None,1014.9902779000004,None,1014.9902779000004,None,r,0.5350826000030793,1014.9902779000004,None,0.5350826000030793,,,120 Sing,001,2022_Dec_01_1628,ProdSingRedoBetween,2021.2.3,60.049709149371864,
,,,,69,0,69,0,,,,,,,,,,,,,,,,,,,,,,1018.4770585999977,None,,,,,,,,,,,,,,,,,order,165,70,sing,new,null,1016.0590568000007,None,1016.0590568000007,None,6,1.5222992000017257,1016.0590568000007,None,1.5222992000017257,1017.6157453999986,None,1018.1267866999988,None,1018.1267866999988,None,r,0.3346382000017911,1018.1267866999988,None,0.3346382000017911,,,120 Sing,001,2022_Dec_01_1628,ProdSingRedoBetween,2021.2.3,60.049709149371864,
,,,,70,0,70,0,,,,,,,,,,,,,,,,,,,,,,1021.6970632999983,None,,,,,,,,,,,,,,,,,right,66,71,sing,old,red,1018.9776084000005,None,1018.9776084000005,None,6,1.8679086000011011,1018.9776084000005,None,1.8679086000011011,1020.8631084000008,None,1021.363416199998,None,1021.363416199998,None,r,0.3140557999977318,1021.363416199998,None,0.3140557999977318,,,120 Sing,001,2022_Dec_01_1628,ProdSingRedoBetween,2021.2.3,60.049709149371864,
,,,,71,0,71,0,,,,,,,,,,,,,,,,,,,,,,1027.8699209999977,None,,,,,,,,,,,,,,,,,council,69,72,sing,old,red,1022.1975734000007,None,1022.1975734000007,None,3,2.2159130000000005,1022.1975734000007,None,2.2159130000000005,1024.4337216999993,None,1024.9336282000004,None,1024.9336282000004,None,f,2.9118495999973675,1024.9336282000004,None,2.9118495999973675,,,120 Sing,001,2022_Dec_01_1628,ProdSingRedoBetween,2021.2.3,60.049709149371864,
,,,,72,0,72,0,,,,,,,,,,,,,,,,,,,,,,1031.2566313999996,None,,,,,,,,,,,,,,,,,story,41,73,sing,old,blue,1028.3703683999993,None,1028.3703683999993,None,6,1.9710012000032293,1028.3703683999993,None,1.9710012000032293,1030.3748358999983,None,1030.8898053999983,None,1030.8898053999983,None,r,0.3477664000020013,1030.8898053999983,None,0.3477664000020013,,,120 Sing,001,2022_Dec_01_1628,ProdSingRedoBetween,2021.2.3,60.049709149371864,
,,,,73,0,73,0,,,,,,,,,,,,,,,,,,,,,,1035.5608838999979,None,,,,,,,,,,,,,,,,,mankind,164,74,sing,new,null,1031.7571764999993,None,1031.7571764999993,None,1,1.2961995000005118,1031.7571764999993,None,1.2961995000005118,1033.0749552999987,None,1033.575520399998,None,1033.575520399998,None,f,1.9658692000011797,1033.575520399998,None,1.9658692000011797,,,120 Sing,001,2022_Dec_01_1628,ProdSingRedoBetween,2021.2.3,60.049709149371864,
,,,,74,0,74,0,,,,,,,,,,,,,,,,,,,,,,1042.5344269999987,None,,,,,,,,,,,,,,,,,running,36,75,sing,old,blue,1036.0613855999982,None,1036.0613855999982,None,4,5.023962800001755,1036.0613855999982,None,5.023962800001755,1041.1164634999986,None,1041.6167927999995,None,1041.6167927999995,None,r,0.8925493000024289,1041.6167927999995,None,0.8925493000024289,,,120 Sing,001,2022_Dec_01_1628,ProdSingRedoBetween,2021.2.3,60.049709149371864,
,,,,75,0,75,0,,,,,,,,,,,,,,,,,,,,,,1044.9201323999987,None,,,,,,,,,,,,,,,,,community,22,76,sing,old,yellow,1043.0350394999987,None,1043.0350394999987,None,6,1.0344072000007145,1043.0350394999987,None,1.0344072000007145,1044.086063499999,None,1044.5866129999995,None,1044.5866129999995,None,r,0.3149234000011347,1044.5866129999995,None,0.3149234000011347,,,120 Sing,001,2022_Dec_01_1628,ProdSingRedoBetween,2021.2.3,60.049709149371864,
,,,,76,0,76,0,,,,,,,,,,,,,,,,,,,,,,1052.511178599998,None,,,,,,,,,,,,,,,,,beginning,63,77,sing,old,red,1045.4209641999987,None,1045.4209641999987,None,3,4.4324759999981325,1045.4209641999987,None,4.4324759999981325,1049.875874999998,None,1050.3804130999997,None,1050.3804130999997,None,f,2.1130661999995937,1050.3804130999997,None,2.1130661999995937,,,120 Sing,001,2022_Dec_01_1628,ProdSingRedoBetween,2021.2.3,60.049709149371864,
,,,,77,0,77,0,,,,,,,,,,,,,,,,,,,,,,1057.1828633000005,None,,,,,,,,,,,,,,,,,session,45,78,sing,old,blue,1053.0211006999998,None,1053.0211006999998,None,1,2.0724345999988145,1053.0211006999998,None,2.0724345999988145,1055.1181728999982,None,1055.6440503999984,None,1055.6440503999984,None,f,1.5214955000010377,1055.6440503999984,None,1.5214955000010377,,,120 Sing,001,2022_Dec_01_1628,ProdSingRedoBetween,2021.2.3,60.049709149371864,
,,,,78,0,78,0,,,,,,,,,,,,,,,,,,,,,,1064.7233850999983,None,,,,,,,,,,,,,,,,,surprise,97,79,sing,new,null,1057.7028627,None,1057.7028627,None,1,3.030772199999774,1057.7028627,None,3.030772199999774,1060.7598770000004,None,1061.270174199999,None,1061.270174199999,None,f,3.431330600000365,1061.270174199999,None,3.431330600000365,,,120 Sing,001,2022_Dec_01_1628,ProdSingRedoBetween,2021.2.3,60.049709149371864,
,,,,79,0,79,0,,,,,,,,,,,,,,,,,,,,,,1071.546983600001,None,,,,,,,,,,,,,,,,,edition,16,80,sing,old,yellow,1065.2342276999989,None,1065.2342276999989,None,2,3.8353415000019595,1065.2342276999989,None,3.8353415000019595,1069.0955329999997,None,1069.6010413000004,None,1069.6010413000004,None,f,1.9244462999995449,1069.6010413000004,None,1.9244462999995449,,,120 Sing,001,2022_Dec_01_1628,ProdSingRedoBetween,2021.2.3,60.049709149371864,
,,,,80,0,80,0,,,,,,,,,,,,,,,,,,,,,,1075.2840379000008,None,,,,,,,,,,,,,,,,,fashion,89,81,sing,old,red,1072.0585004999994,None,1072.0585004999994,None,2,1.562920700001996,1072.0585004999994,None,1.562920700001996,1073.6501850999994,None,1074.1566561,None,1074.1566561,None,f,1.1048417999991216,1074.1566561,None,1.1048417999991216,,,120 Sing,001,2022_Dec_01_1628,ProdSingRedoBetween,2021.2.3,60.049709149371864,
,,,,81,0,81,0,,,,,,,,,,,,,,,,,,,,,,1083.1586591999985,None,,,,,,,,,,,,,,,,,generation,104,82,sing,new,null,1075.7927882000004,None,1075.7927882000004,None,2,5.788758299997426,1075.7927882000004,None,5.788758299997426,1081.608251900001,None,1082.1115562999985,None,1082.1115562999985,None,f,1.0298970000003465,1082.1115562999985,None,1.0298970000003465,,,120 Sing,001,2022_Dec_01_1628,ProdSingRedoBetween,2021.2.3,60.049709149371864,
,,,,82,0,82,0,,,,,,,,,,,,,,,,,,,,,,1090.7195909000002,None,,,,,,,,,,,,,,,,,chief,146,83,sing,new,null,1083.6692163000007,None,1083.6692163000007,None,1,5.97637400000167,1083.6692163000007,None,5.97637400000167,1089.6903390999978,None,1090.2027928999996,None,1090.2027928999996,None,f,0.48284810000041034,1090.2027928999996,None,0.48284810000041034,,,120 Sing,001,2022_Dec_01_1628,ProdSingRedoBetween,2021.2.3,60.049709149371864,
,,,,83,0,83,0,,,,,,,,,,,,,,,,,,,,,,1096.3718542999995,None,,,,,,,,,,,,,,,,,break,10,84,sing,old,yellow,1091.2350821,None,1091.2350821,None,2,2.6025561000024027,1091.2350821,None,2.6025561000024027,1093.8726839999981,None,1094.3939702999996,None,1094.3939702999996,None,f,1.9555612000003748,1094.3939702999996,None,1.9555612000003748,,,120 Sing,001,2022_Dec_01_1628,ProdSingRedoBetween,2021.2.3,60.049709149371864,
,,,,84,0,84,0,,,,,,,,,,,,,,,,,,,,,,1100.9097436999982,None,,,,,,,,,,,,,,,,,nation,28,85,sing,old,yellow,1096.881257699999,None,1096.881257699999,None,6,3.1882766999988235,1096.881257699999,None,3.1882766999988235,1100.0919179000011,None,1100.595023599999,None,1100.595023599999,None,r,0.2904813999994076,1100.595023599999,None,0.2904813999994076,,,120 Sing,001,2022_Dec_01_1628,ProdSingRedoBetween,2021.2.3,60.049709149371864,
,,,,85,0,85,0,,,,,,,,,,,,,,,,,,,,,,1106.465305900001,None,,,,,,,,,,,,,,,,,crime,87,86,sing,old,red,1101.4173388999989,None,1101.4173388999989,None,4,3.1484279000032984,1101.4173388999989,None,3.1484279000032984,1104.6019737999995,None,1105.117304299998,None,1105.117304299998,None,f,1.320179399997869,1105.117304299998,None,1.320179399997869,,,120 Sing,001,2022_Dec_01_1628,ProdSingRedoBetween,2021.2.3,60.049709149371864,
,,,,86,0,86,0,,,,,,,,,,,,,,,,,,,,,,1113.0385392999997,None,,,,,,,,,,,,,,,,,people,61,87,sing,old,red,1106.976045200001,None,1106.976045200001,None,1,3.0854823000008764,1106.976045200001,None,3.0854823000008764,1110.086681599998,None,1110.5922288000002,None,1110.5922288000002,None,n,2.429284699999698,1110.5922288000002,None,2.429284699999698,,,120 Sing,001,2022_Dec_01_1628,ProdSingRedoBetween,2021.2.3,60.049709149371864,
,,,,87,0,87,0,,,,,,,,,,,,,,,,,,,,,,1119.5115614999995,None,,,,,,,,,,,,,,,,,track,140,88,sing,new,null,1113.5522433999977,None,1113.5522433999977,None,1,3.037272400000802,1113.5522433999977,None,3.037272400000802,1116.6105763999985,None,1117.1276767999989,None,1117.1276767999989,None,f,2.3578768000006676,1117.1276767999989,None,2.3578768000006676,,,120 Sing,001,2022_Dec_01_1628,ProdSingRedoBetween,2021.2.3,60.049709149371864,
,,,,88,0,88,0,,,,,,,,,,,,,,,,,,,,,,1122.2832638,None,,,,,,,,,,,,,,,,,management,148,89,sing,new,null,1120.0204697000008,None,1120.0204697000008,None,6,1.4092247000007774,1120.0204697000008,None,1.4092247000007774,1121.4538476999987,None,1121.9644120000012,None,1121.9644120000012,None,r,0.289242099999683,1121.9644120000012,None,0.289242099999683,,,120 Sing,001,2022_Dec_01_1628,ProdSingRedoBetween,2021.2.3,60.049709149371864,
,,,,89,0,89,0,,,,,,,,,,,,,,,,,,,,,,1124.7001830000008,None,,,,,,,,,,,,,,,,,benefit,173,90,sing,new,null,1122.8051142000004,None,1122.8051142000004,None,6,1.2643886000005296,1122.8051142000004,None,1.2643886000005296,1124.1007471999983,None,1124.6051264999987,None,1124.6051264999987,None,r,0.07246459999805666,1124.6051264999987,None,0.07246459999805666,,,120 Sing,001,2022_Dec_01_1628,ProdSingRedoBetween,2021.2.3,60.049709149371864,
,,,,90,0,90,0,,,,,,,,,,,,,,,,,,,,,,1130.5162548999979,None,,,,,,,,,,,,,,,,,question,109,91,sing,new,null,1125.218620399999,None,1125.218620399999,None,5,3.6108368999994127,1125.218620399999,None,3.6108368999994127,1128.8582317,None,1129.3716749999985,None,1129.3716749999985,None,f,1.1139326000011351,1129.3716749999985,None,1.1139326000011351,,,120 Sing,001,2022_Dec_01_1628,ProdSingRedoBetween,2021.2.3,60.049709149371864,
,,,,91,0,91,0,,,,,,,,,,,,,,,,,,,,,,1134.9270819999983,None,,,,,,,,,,,,,,,,,opening,129,92,sing,new,null,1131.0336825999984,None,1131.0336825999984,None,1,2.5079096000008576,1131.0336825999984,None,2.5079096000008576,1133.5594096999994,None,1134.066017000001,None,1134.066017000001,None,f,0.8355482000006305,1134.066017000001,None,0.8355482000006305,,,120 Sing,001,2022_Dec_01_1628,ProdSingRedoBetween,2021.2.3,60.049709149371864,
,,,,92,0,92,0,,,,,,,,,,,,,,,,,,,,,,1142.0674025000008,None,,,,,,,,,,,,,,,,,number,46,93,sing,old,blue,1135.4284320999977,None,1135.4284320999977,None,6,5.545273700001417,1135.4284320999977,None,5.545273700001417,1141.0149133999985,None,1141.5189718000001,None,1141.5189718000001,None,r,0.5185018000011041,1141.5189718000001,None,0.5185018000011041,,,120 Sing,001,2022_Dec_01_1628,ProdSingRedoBetween,2021.2.3,60.049709149371864,
,,,,93,0,93,0,,,,,,,,,,,,,,,,,,,,,,1145.3205424000007,None,,,,,,,,,,,,,,,,,carry,88,94,sing,old,red,1142.5729241000008,None,1142.5729241000008,None,1,1.7525758999981917,1142.5729241000008,None,1.7525758999981917,1144.3540904000001,None,1144.8587372000002,None,1144.8587372000002,None,f,0.4348470000004454,1144.8587372000002,None,0.4348470000004454,,,120 Sing,001,2022_Dec_01_1628,ProdSingRedoBetween,2021.2.3,60.049709149371864,
,,,,94,0,94,0,,,,,,,,,,,,,,,,,,,,,,1150.5593604999995,None,,,,,,,,,,,,,,,,,harmony,64,95,sing,old,red,1145.8420348,None,1145.8420348,None,6,3.0514488000007987,1145.8420348,None,3.0514488000007987,1148.9253931999992,None,1149.4340967999997,None,1149.4340967999997,None,r,1.0994565000000875,1149.4340967999997,None,1.0994565000000875,,,120 Sing,001,2022_Dec_01_1628,ProdSingRedoBetween,2021.2.3,60.049709149371864,
,,,,95,0,95,0,,,,,,,,,,,,,,,,,,,,,,1155.8645273000002,None,,,,,,,,,,,,,,,,,addition,60,96,sing,old,red,1151.0746517999978,None,1151.0746517999978,None,1,1.3789021999982651,1151.0746517999978,None,1.3789021999982651,1152.4836311,None,1152.9952004000006,None,1152.9952004000006,None,f,2.8423030999983894,1152.9952004000006,None,2.8423030999983894,,,120 Sing,001,2022_Dec_01_1628,ProdSingRedoBetween,2021.2.3,60.049709149371864,
,,,,96,0,96,0,,,,,,,,,,,,,,,,,,,,,,1159.4014792999988,None,,,,,,,,,,,,,,,,,plane,15,97,sing,old,yellow,1156.3747741000006,None,1156.3747741000006,None,6,1.438892999998643,1156.3747741000006,None,1.438892999998643,1157.8380402000003,None,1158.3534832999976,None,1158.3534832999976,None,r,1.028087599999708,1158.3534832999976,None,1.028087599999708,,,120 Sing,001,2022_Dec_01_1628,ProdSingRedoBetween,2021.2.3,60.049709149371864,
,,,,97,0,97,0,,,,,,,,,,,,,,,,,,,,,,1163.9619893999989,None,,,,,,,,,,,,,,,,,length,171,98,sing,new,null,1159.9136480999987,None,1159.9136480999987,None,1,2.0439050999993924,1159.9136480999987,None,2.0439050999993924,1161.9924976000002,None,1162.504668999998,None,1162.504668999998,None,f,1.429070899997896,1162.504668999998,None,1.429070899997896,,,120 Sing,001,2022_Dec_01_1628,ProdSingRedoBetween,2021.2.3,60.049709149371864,
,,,,98,0,98,0,,,,,,,,,,,,,,,,,,,,,,1169.861910399999,None,,,,,,,,,,,,,,,,,thing,158,99,sing,new,null,1164.4794460000012,None,1164.4794460000012,None,1,1.7421318999986397,1164.4794460000012,None,1.7421318999986397,1166.243781000001,None,1166.7597279000001,None,1166.7597279000001,None,f,3.0857295999994676,1166.7597279000001,None,3.0857295999994676,,,120 Sing,001,2022_Dec_01_1628,ProdSingRedoBetween,2021.2.3,60.049709149371864,
,,,,99,0,99,0,,,,,,,,,,,,,,,,,,,,,,1175.6343890999997,None,,,,,,,,,,,,,,,,,force,55,100,sing,old,blue,1170.3741061,None,1170.3741061,None,2,2.175464199997805,1170.3741061,None,2.175464199997805,1172.5694073999985,None,1173.0883790000007,None,1173.0883790000007,None,f,2.517167800000607,1173.0883790000007,None,2.517167800000607,,,120 Sing,001,2022_Dec_01_1628,ProdSingRedoBetween,2021.2.3,60.049709149371864,
,,,,100,0,100,0,,,,,,,,,,,,,,,,,,,,,,1179.588399799999,None,,,,,,,,,,,,,,,,,narrow,162,101,sing,new,null,1176.1455203000005,None,1176.1455203000005,None,5,2.340030299998034,1176.1455203000005,None,2.340030299998034,1178.5075367999998,None,1179.023793100001,None,1179.023793100001,None,r,0.5337519999993674,1179.023793100001,None,0.5337519999993674,,,120 Sing,001,2022_Dec_01_1628,ProdSingRedoBetween,2021.2.3,60.049709149371864,
,,,,101,0,101,0,,,,,,,,,,,,,,,,,,,,,,1184.8101669999996,None,,,,,,,,,,,,,,,,,century,17,102,sing,old,yellow,1180.0986094,None,1180.0986094,None,6,2.6748764000003575,1180.0986094,None,2.6748764000003575,1182.792628299998,None,1183.298958700001,None,1183.298958700001,None,r,1.4906064999995579,1183.298958700001,None,1.4906064999995579,,,120 Sing,001,2022_Dec_01_1628,ProdSingRedoBetween,2021.2.3,60.049709149371864,
,,,,102,0,102,0,,,,,,,,,,,,,,,,,,,,,,1188.6472539999995,None,,,,,,,,,,,,,,,,,group,98,103,sing,new,null,1185.3227702000004,None,1185.3227702000004,None,2,1.762715400000161,1185.3227702000004,None,1.762715400000161,1187.1147583999991,None,1187.6356386000007,None,1187.6356386000007,None,f,0.9940014999992854,1187.6356386000007,None,0.9940014999992854,,,120 Sing,001,2022_Dec_01_1628,ProdSingRedoBetween,2021.2.3,60.049709149371864,
,,,,103,0,103,0,,,,,,,,,,,,,,,,,,,,,,1192.3010480999983,None,,,,,,,,,,,,,,,,,literature,84,104,sing,old,red,1189.1646006999981,None,1189.1646006999981,None,6,1.8010572999992291,1189.1646006999981,None,1.8010572999992291,1190.986402399998,None,1191.5002380999977,None,1191.5002380999977,None,r,0.7853221000004851,1191.5002380999977,None,0.7853221000004851,,,120 Sing,001,2022_Dec_01_1628,ProdSingRedoBetween,2021.2.3,60.049709149371864,
,,,,104,0,104,0,,,,,,,,,,,,,,,,,,,,,,1197.7404070999983,None,,,,,,,,,,,,,,,,,comfort,112,105,sing,new,null,1192.8148174999988,None,1192.8148174999988,None,2,2.0467319000017596,1192.8148174999988,None,2.0467319000017596,1194.8903714000007,None,1195.4069037000008,None,1195.4069037000008,None,f,2.3027366000023903,1195.4069037000008,None,2.3027366000023903,,,120 Sing,001,2022_Dec_01_1628,ProdSingRedoBetween,2021.2.3,60.049709149371864,
,,,,105,0,105,0,,,,,,,,,,,,,,,,,,,,,,1201.3610147,None,,,,,,,,,,,,,,,,,month,49,106,sing,old,blue,1198.2535162999993,None,1198.2535162999993,None,1,1.5360899999977846,1198.2535162999993,None,1.5360899999977846,1199.8226388000003,None,1200.3280433,None,1200.3280433,None,f,1.01345229999788,1200.3280433,None,1.01345229999788,,,120 Sing,001,2022_Dec_01_1628,ProdSingRedoBetween,2021.2.3,60.049709149371864,
,,,,106,0,106,0,,,,,,,,,,,,,,,,,,,,,,1205.6657195999978,None,,,,,,,,,,,,,,,,,beauty,168,107,sing,new,null,1201.8652481999998,None,1201.8652481999998,None,1,2.20450720000008,1201.8652481999998,None,2.20450720000008,1204.1060431000005,None,1204.613943299999,None,1204.613943299999,None,f,1.0237493999993603,1204.613943299999,None,1.0237493999993603,,,120 Sing,001,2022_Dec_01_1628,ProdSingRedoBetween,2021.2.3,60.049709149371864,
,,,,107,0,107,0,,,,,,,,,,,,,,,,,,,,,,1209.6684256000008,None,,,,,,,,,,,,,,,,,welcome,96,108,sing,new,null,1206.1759525999987,None,1206.1759525999987,None,2,1.6458387000020593,1206.1759525999987,None,1.6458387000020593,1207.8572612999997,None,1208.369415699999,None,1208.369415699999,None,f,1.2761601999991399,1208.369415699999,None,1.2761601999991399,,,120 Sing,001,2022_Dec_01_1628,ProdSingRedoBetween,2021.2.3,60.049709149371864,
,,,,108,0,108,0,,,,,,,,,,,,,,,,,,,,,,1213.6724319999994,None,,,,,,,,,,,,,,,,,interview,169,109,sing,new,null,1210.1815650999997,None,1210.1815650999997,None,5,2.031978800001525,1210.1815650999997,None,2.031978800001525,1212.2417552000006,None,1212.7644733999987,None,1212.7644733999987,None,f,0.8892100999983086,1212.7644733999987,None,0.8892100999983086,,,120 Sing,001,2022_Dec_01_1628,ProdSingRedoBetween,2021.2.3,60.049709149371864,
,,,,109,0,109,0,,,,,,,,,,,,,,,,,,,,,,1217.9444256999996,None,,,,,,,,,,,,,,,,,evidence,137,110,sing,new,null,1214.177169300001,None,1214.177169300001,None,6,3.060402899998735,1214.177169300001,None,3.060402899998735,1217.2623133999987,None,1217.7844972999992,None,1217.7844972999992,None,r,0.13316399999894202,1217.7844972999992,None,0.13316399999894202,,,120 Sing,001,2022_Dec_01_1628,ProdSingRedoBetween,2021.2.3,60.049709149371864,
,,,,110,0,110,0,,,,,,,,,,,,,,,,,,,,,,1225.3171191000001,None,,,,,,,,,,,,,,,,,distance,156,111,sing,new,null,1218.4630523999986,None,1218.4630523999986,None,3,4.9744393000000855,1218.4630523999986,None,4.9744393000000855,1223.468209999999,None,1223.982742799999,None,1223.982742799999,None,f,1.3186910999975225,1223.982742799999,None,1.3186910999975225,,,120 Sing,001,2022_Dec_01_1628,ProdSingRedoBetween,2021.2.3,60.049709149371864,
,,,,111,0,111,0,,,,,,,,,,,,,,,,,,,,,,1229.855341399998,None,,,,,,,,,,,,,,,,,frank,21,112,sing,old,yellow,1225.8184228999999,None,1225.8184228999999,None,6,2.2431638999987626,1225.8184228999999,None,2.2431638999987626,1228.0922060999983,None,1228.610679999998,None,1228.610679999998,None,r,1.2187875999989046,1228.610679999998,None,1.2187875999989046,,,120 Sing,001,2022_Dec_01_1628,ProdSingRedoBetween,2021.2.3,60.049709149371864,
,,,,112,0,112,0,,,,,,,,,,,,,,,,,,,,,,1234.6265741999996,None,,,,,,,,,,,,,,,,,substance,67,113,sing,old,red,1230.367695099998,None,1230.367695099998,None,6,3.173853500000405,1230.367695099998,None,3.173853500000405,1233.5621852000004,None,1234.079256500001,None,1234.079256500001,None,r,0.5263751999991655,1234.079256500001,None,0.5263751999991655,,,120 Sing,001,2022_Dec_01_1628,ProdSingRedoBetween,2021.2.3,60.049709149371864,
,,,,113,0,113,0,,,,,,,,,,,,,,,,,,,,,,1237.2791360999981,None,,,,,,,,,,,,,,,,,article,40,114,sing,old,blue,1235.1323508999994,None,1235.1323508999994,None,6,1.2332163999999466,1235.1323508999994,None,1.2332163999999466,1236.395520099999,None,1236.8973845,None,1236.8973845,None,r,0.36412769999878947,1236.8973845,None,0.36412769999878947,,,120 Sing,001,2022_Dec_01_1628,ProdSingRedoBetween,2021.2.3,60.049709149371864,
,,,,114,0,114,0,,,,,,,,,,,,,,,,,,,,,,1241.7005084999983,None,,,,,,,,,,,,,,,,,measure,153,115,sing,new,null,1237.7866847000005,None,1237.7866847000005,None,4,2.3548847999991267,1237.7866847000005,None,2.3548847999991267,1240.1686059999993,None,1240.6915264999989,None,1240.6915264999989,None,f,0.993993700001738,1240.6915264999989,None,0.993993700001738,,,120 Sing,001,2022_Dec_01_1628,ProdSingRedoBetween,2021.2.3,60.049709149371864,
,,,,115,0,115,0,,,,,,,,,,,,,,,,,,,,,,1245.7877891999997,None,,,,,,,,,,,,,,,,,conference,159,116,sing,new,null,1242.2079273999989,None,1242.2079273999989,None,4,2.2216664999978093,1242.2079273999989,None,2.2216664999978093,1244.4561665,None,1244.9744864999993,None,1244.9744864999993,None,f,0.7911158999995678,1244.9744864999993,None,0.7911158999995678,,,120 Sing,001,2022_Dec_01_1628,ProdSingRedoBetween,2021.2.3,60.049709149371864,
,,,,116,0,116,0,,,,,,,,,,,,,,,,,,,,,,1250.5926663999999,None,,,,,,,,,,,,,,,,,reach,147,117,sing,new,null,1246.2982697999978,None,1246.2982697999978,None,3,2.66737799999828,1246.2982697999978,None,2.66737799999828,1248.9967168000003,None,1249.513865599998,None,1249.513865599998,None,f,1.0598406000026444,1249.513865599998,None,1.0598406000026444,,,120 Sing,001,2022_Dec_01_1628,ProdSingRedoBetween,2021.2.3,60.049709149371864,
,,,,117,0,117,0,,,,,,,,,,,,,,,,,,,,,,1254.0318540999979,None,,,,,,,,,,,,,,,,,column,76,118,sing,old,red,1251.108269299999,None,1251.108269299999,None,6,1.9452887999977975,1251.108269299999,None,1.9452887999977975,1253.0810439999987,None,1253.5957436999997,None,1253.5957436999997,None,r,0.4178916000018944,1253.5957436999997,None,0.4178916000018944,,,120 Sing,001,2022_Dec_01_1628,ProdSingRedoBetween,2021.2.3,60.049709149371864,
,,,,118,0,118,0,,,,,,,,,,,,,,,,,,,,,,1260.6524467999989,None,,,,,,,,,,,,,,,,,background,72,119,sing,old,red,1254.552545399998,None,1254.552545399998,None,2,3.9170009000008577,1254.552545399998,None,3.9170009000008577,1258.502472600001,None,1259.0252255999985,None,1259.0252255999985,None,f,1.5962237999992794,1259.0252255999985,None,1.5962237999992794,,,120 Sing,001,2022_Dec_01_1628,ProdSingRedoBetween,2021.2.3,60.049709149371864,
,,,,119,0,119,0,,,,,,,,,,,,,,,,,,,,,,1263.6556224999986,None,,,,,,,,,,,,,,,,,union,176,120,sing,new,null,1261.1622289999978,None,1261.1622289999978,None,6,1.467362499999581,1261.1622289999978,None,1.467362499999581,1262.655835999998,None,1263.1609398,None,1263.1609398,None,f,0.468655900000158,1263.1609398,None,0.468655900000158,,,120 Sing,001,2022_Dec_01_1628,ProdSingRedoBetween,2021.2.3,60.049709149371864,
,,,,120,0,120,0,,,,,,,,,,,,,,,,,,,,,,1266.6753728000003,None,,,,,,,,,,,,,,,,,testimony,151,121,sing,new,null,1264.1647650999985,None,1264.1647650999985,None,6,1.4568404000019655,1264.1647650999985,None,1.4568404000019655,1265.6439843000007,None,1266.1641907000012,None,1266.1641907000012,None,f,0.4894008000010217,1266.1641907000012,None,0.4894008000010217,,,120 Sing,001,2022_Dec_01_1628,ProdSingRedoBetween,2021.2.3,60.049709149371864,
,,,,121,0,121,0,,,,,,,,,,,,,,,,,,,,,,1271.5810714,None,,,,,,,,,,,,,,,,,reading,32,122,sing,old,blue,1267.192858399998,None,1267.192858399998,None,6,3.5250106000021333,1267.192858399998,None,3.5250106000021333,1270.752418199998,None,1271.2710584999986,None,1271.2710584999986,None,r,0.2785961000008683,1271.2710584999986,None,0.2785961000008683,,,120 Sing,001,2022_Dec_01_1628,ProdSingRedoBetween,2021.2.3,60.049709149371864,
,,,,122,0,122,0,,,,,,,,,,,,,,,,,,,,,,1280.8729232000005,None,,,,,,,,,,,,,,,,,victory,13,123,sing,old,yellow,1272.0872552,None,1272.0872552,None,2,7.222414199997729,1272.0872552,None,7.222414199997729,1279.341654699998,None,1279.8594602000012,None,1279.8594602000012,None,f,0.986094799998682,1279.8594602000012,None,0.986094799998682,,,120 Sing,001,2022_Dec_01_1628,ProdSingRedoBetween,2021.2.3,60.049709149371864,
,,,,123,0,123,0,,,,,,,,,,,,,,,,,,,,,,1287.8474166999986,None,,,,,,,,,,,,,,,,,bright,101,124,sing,new,null,1281.3838985000002,None,1281.3838985000002,None,1,3.96575379999922,1281.3838985000002,None,3.96575379999922,1285.3818255000006,None,1285.8946818000004,None,1285.8946818000004,None,f,1.9350382999982685,1285.8946818000004,None,1.9350382999982685,,,120 Sing,001,2022_Dec_01_1628,ProdSingRedoBetween,2021.2.3,60.049709149371864,
,,,,124,0,124,0,,,,,,,,,,,,,,,,,,,,,,1294.9867704999997,None,,,,,,,,,,,,,,,,,comedy,116,125,sing,new,null,1288.3542963,None,1288.3542963,None,2,4.243387000002258,1288.3542963,None,4.243387000002258,1292.6178183999982,None,1293.1246924999978,None,1293.1246924999978,None,f,1.8409309999988182,1293.1246924999978,None,1.8409309999988182,,,120 Sing,001,2022_Dec_01_1628,ProdSingRedoBetween,2021.2.3,60.049709149371864,
,,,,125,0,125,0,,,,,,,,,,,,,,,,,,,,,,1297.8064238000006,None,,,,,,,,,,,,,,,,,direction,56,126,sing,old,blue,1295.5024355999994,None,1295.5024355999994,None,2,1.3832513999986986,1295.5024355999994,None,1.3832513999986986,1296.9138832999997,None,1297.422817999999,None,1297.422817999999,None,f,0.35879879999993136,1297.422817999999,None,0.35879879999993136,,,120 Sing,001,2022_Dec_01_1628,ProdSingRedoBetween,2021.2.3,60.049709149371864,
,,,,126,0,126,0,,,,,,,,,,,,,,,,,,,,,,1301.9606682999984,None,,,,,,,,,,,,,,,,,drink,80,127,sing,old,red,1298.3168834999997,None,1298.3168834999997,None,6,2.728806799997983,1298.3168834999997,None,2.728806799997983,1301.0847754999995,None,1301.5956079999996,None,1301.5956079999996,None,r,0.3461040000001958,1301.5956079999996,None,0.3461040000001958,,,120 Sing,001,2022_Dec_01_1628,ProdSingRedoBetween,2021.2.3,60.049709149371864,
,,,,127,0,127,0,,,,,,,,,,,,,,,,,,,,,,1307.4518935999986,None,,,,,,,,,,,,,,,,,goose,139,128,sing,new,null,1302.4639215999996,None,1302.4639215999996,None,1,1.757740900000499,1302.4639215999996,None,1.757740900000499,1304.2512414999983,None,1304.7645550999987,None,1304.7645550999987,None,f,2.6651550000024145,1304.7645550999987,None,2.6651550000024145,,,120 Sing,001,2022_Dec_01_1628,ProdSingRedoBetween,2021.2.3,60.049709149371864,
,,,,128,0,128,0,,,,,,,,,,,,,,,,,,,,,,1311.6702999000008,None,,,,,,,,,,,,,,,,,piece,12,129,sing,old,yellow,1307.978828700001,None,1307.978828700001,None,6,1.6588387999981933,1307.978828700001,None,1.6588387999981933,1309.674385800001,None,1310.1854177999994,None,1310.1854177999994,None,r,1.4681208000001789,1310.1854177999994,None,1.4681208000001789,,,120 Sing,001,2022_Dec_01_1628,ProdSingRedoBetween,2021.2.3,60.049709149371864,
,,,,129,0,129,0,,,,,,,,,,,,,,,,,,,,,,1318.0112260999995,None,,,,,,,,,,,,,,,,,weather,29,130,sing,old,blue,1312.173904700001,None,1312.173904700001,None,1,3.807691900001373,1312.173904700001,None,3.807691900001373,1316.0093755999987,None,1316.5133365000002,None,1316.5133365000002,None,f,1.4763586999979452,1316.5133365000002,None,1.4763586999979452,,,120 Sing,001,2022_Dec_01_1628,ProdSingRedoBetween,2021.2.3,60.049709149371864,
,,,,130,0,130,0,,,,,,,,,,,,,,,,,,,,,,1329.237941700001,None,,,,,,,,,,,,,,,,,income,82,131,sing,old,red,1318.5136056999982,None,1318.5136056999982,None,3,8.748505499999737,1318.5136056999982,None,8.748505499999737,1327.2962583000008,None,1327.8030352999995,None,1327.8030352999995,None,f,1.4106107999978121,1327.8030352999995,None,1.4106107999978121,,,120 Sing,001,2022_Dec_01_1628,ProdSingRedoBetween,2021.2.3,60.049709149371864,
,,,,131,0,131,0,,,,,,,,,,,,,,,,,,,,,,1332.1407641999976,None,,,,,,,,,,,,,,,,,junior,47,132,sing,old,blue,1329.7491850000006,None,1329.7491850000006,None,6,1.4324139000018477,1329.7491850000006,None,1.4324139000018477,1331.2143064999982,None,1331.723915399998,None,1331.723915399998,None,r,0.3937040999990131,1331.723915399998,None,0.3937040999990131,,,120 Sing,001,2022_Dec_01_1628,ProdSingRedoBetween,2021.2.3,60.049709149371864,
,,,,132,0,132,0,,,,,,,,,,,,,,,,,,,,,,1343.6022740000008,None,,,,,,,,,,,,,,,,,discussion,155,133,sing,new,null,1332.6412099000008,None,1332.6412099000008,None,4,7.044565099997271,1332.6412099000008,None,7.044565099997271,1339.723277099998,None,1340.2372714000012,None,1340.2372714000012,None,f,3.3443551000018488,1340.2372714000012,None,3.3443551000018488,,,120 Sing,001,2022_Dec_01_1628,ProdSingRedoBetween,2021.2.3,60.049709149371864,
,,,,133,0,133,0,,,,,,,,,,,,,,,,,,,,,,1348.141141199998,None,,,,,,,,,,,,,,,,,principal,43,134,sing,old,blue,1344.113803100001,None,1344.113803100001,None,2,1.8198446999995213,1344.113803100001,None,1.8198446999995213,1345.9568166999998,None,1346.4761478,None,1346.4761478,None,f,1.6415106000022206,1346.4761478,None,1.6415106000022206,,,120 Sing,001,2022_Dec_01_1628,ProdSingRedoBetween,2021.2.3,60.049709149371864,
,,,,134,0,134,0,,,,,,,,,,,,,,,,,,,,,,1353.6289419999994,None,,,,,,,,,,,,,,,,,object,9,135,sing,old,yellow,1348.6504464999998,None,1348.6504464999998,None,2,2.595044899997447,1348.6504464999998,None,2.595044899997447,1351.2820298000006,None,1351.797246099999,None,1351.797246099999,None,f,1.816366899998684,1351.797246099999,None,1.816366899998684,,,120 Sing,001,2022_Dec_01_1628,ProdSingRedoBetween,2021.2.3,60.049709149371864,
,,,,135,0,135,0,,,,,,,,,,,,,,,,,,,,,,1360.8547579000005,None,,,,,,,,,,,,,,,,,stand,138,136,sing,new,null,1354.137881300001,None,1354.137881300001,None,3,4.75573280000026,1354.137881300001,None,4.75573280000026,1358.9198042999997,None,1359.4347933999998,None,1359.4347933999998,None,f,1.394891899999493,1359.4347933999998,None,1.394891899999493,,,120 Sing,001,2022_Dec_01_1628,ProdSingRedoBetween,2021.2.3,60.049709149371864,
,,,,136,0,136,0,,,,,,,,,,,,,,,,,,,,,,1363.975739999998,None,,,,,,,,,,,,,,,,,detective,39,137,sing,old,blue,1361.385119300001,None,1361.385119300001,None,6,1.7246204999973997,1361.385119300001,None,1.7246204999973997,1363.1456709999984,None,1363.6651497999992,None,1363.6651497999992,None,r,0.2845281999980216,1363.6651497999992,None,0.2845281999980216,,,120 Sing,001,2022_Dec_01_1628,ProdSingRedoBetween,2021.2.3,60.049709149371864,
,,,,137,0,137,0,,,,,,,,,,,,,,,,,,,,,,1376.6047996999987,None,,,,,,,,,,,,,,,,,sleep,75,138,sing,old,red,1364.5062208999989,None,1364.5062208999989,None,6,10.27533129999938,1364.5062208999989,None,10.27533129999938,1374.8107246,None,1375.318800099998,None,1375.318800099998,None,r,1.2547635000009905,1375.318800099998,None,1.2547635000009905,,,120 Sing,001,2022_Dec_01_1628,ProdSingRedoBetween,2021.2.3,60.049709149371864,
,,,,138,0,138,0,,,,,,,,,,,,,,,,,,,,,,1379.254603999998,None,,,,,,,,,,,,,,,,,service,6,139,sing,old,yellow,1377.1236973999985,None,1377.1236973999985,None,6,1.0977820000007341,1377.1236973999985,None,1.0977820000007341,1378.2539367999998,None,1378.753827299999,None,1378.753827299999,None,r,0.47584769999957643,1378.753827299999,None,0.47584769999957643,,,120 Sing,001,2022_Dec_01_1628,ProdSingRedoBetween,2021.2.3,60.049709149371864,
,,,,139,0,139,0,,,,,,,,,,,,,,,,,,,,,,1384.009298099998,None,,,,,,,,,,,,,,,,,congress,92,140,sing,new,null,1379.765067799999,None,1379.765067799999,None,2,2.376584699999512,1379.765067799999,None,2.376584699999512,1382.1608559999986,None,1382.6824491999978,None,1382.6824491999978,None,f,1.2991462999998475,1382.6824491999978,None,1.2991462999998475,,,120 Sing,001,2022_Dec_01_1628,ProdSingRedoBetween,2021.2.3,60.049709149371864,
,,,,140,0,140,0,,,,,,,,,,,,,,,,,,,,,,1387.8204318999997,None,,,,,,,,,,,,,,,,,division,118,141,sing,new,null,1384.528500100001,None,1384.528500100001,None,2,2.1731130000007397,1384.528500100001,None,2.1731130000007397,1386.7303699000004,None,1387.2521826999982,None,1387.2521826999982,None,f,0.5376121000008425,1387.2521826999982,None,0.5376121000008425,,,120 Sing,001,2022_Dec_01_1628,ProdSingRedoBetween,2021.2.3,60.049709149371864,
,,,,141,0,141,0,,,,,,,,,,,,,,,,,,,,,,1391.5000231999984,None,,,,,,,,,,,,,,,,,author,152,142,sing,new,null,1388.3383030999976,None,1388.3383030999976,None,2,1.6833001999984845,1388.3383030999976,None,1.6833001999984845,1390.050065200001,None,1390.5558659999988,None,1390.5558659999988,None,f,0.9138404000004812,1390.5558659999988,None,0.9138404000004812,,,120 Sing,001,2022_Dec_01_1628,ProdSingRedoBetween,2021.2.3,60.049709149371864,
,,,,142,0,142,0,,,,,,,,,,,,,,,,,,,,,,1399.7917138999983,None,,,,,,,,,,,,,,,,,country,26,143,sing,old,yellow,1392.0150802999997,None,1392.0150802999997,None,2,4.750578099999984,1392.0150802999997,None,4.750578099999984,1396.7918046999985,None,1397.306040399999,None,1397.306040399999,None,n,2.46755199999825,1397.306040399999,None,2.46755199999825,,,120 Sing,001,2022_Dec_01_1628,ProdSingRedoBetween,2021.2.3,60.049709149371864,
,,,,143,0,143,0,,,,,,,,,,,,,,,,,,,,,,1413.589377100001,None,,,,,,,,,,,,,,,,,leader,174,144,sing,new,null,1400.3028706999976,None,1400.3028706999976,None,2,11.39881289999903,1400.3028706999976,None,11.39881289999903,1411.7219544,None,1412.2396317999992,None,1412.2396317999992,None,f,1.31809179999982,1412.2396317999992,None,1.31809179999982,,,120 Sing,001,2022_Dec_01_1628,ProdSingRedoBetween,2021.2.3,60.049709149371864,
,,,,144,0,144,0,,,,,,,,,,,,,,,,,,,,,,1420.6459877999987,None,,,,,,,,,,,,,,,,,center,175,145,sing,new,null,1414.1025472000001,None,1414.1025472000001,None,2,4.7510945000030915,1414.1025472000001,None,4.7510945000030915,1418.8791696999979,None,1419.3999627000012,None,1419.3999627000012,None,f,1.2297027999993588,1419.3999627000012,None,1.2297027999993588,,,120 Sing,001,2022_Dec_01_1628,ProdSingRedoBetween,2021.2.3,60.049709149371864,
,,,,145,0,145,0,,,,,,,,,,,,,,,,,,,,,,1432.6743571000006,None,,,,,,,,,,,,,,,,,heavy,25,146,sing,old,yellow,1421.1540480000003,None,1421.1540480000003,None,1,6.587801699999545,1421.1540480000003,None,6.587801699999545,1427.7866035000006,None,1428.2868318,None,1428.2868318,None,f,4.358705700000428,1428.2868318,None,4.358705700000428,,,120 Sing,001,2022_Dec_01_1628,ProdSingRedoBetween,2021.2.3,60.049709149371864,
,,,,146,0,146,0,,,,,,,,,,,,,,,,,,,,,,1438.9162107999982,None,,,,,,,,,,,,,,,,,master,90,147,sing,new,null,1433.1866861999988,None,1433.1866861999988,None,1,2.61100439999791,1433.1866861999988,None,2.61100439999791,1435.8288930999988,None,1436.3348645000005,None,1436.3348645000005,None,n,2.5588634999985516,1436.3348645000005,None,2.5588634999985516,,,120 Sing,001,2022_Dec_01_1628,ProdSingRedoBetween,2021.2.3,60.049709149371864,
,,,,147,0,147,0,,,,,,,,,,,,,,,,,,,,,,1444.8369682000011,None,,,,,,,,,,,,,,,,,clean,166,148,sing,new,null,1439.4453429999994,None,1439.4453429999994,None,2,3.600314100000105,1439.4453429999994,None,3.600314100000105,1443.0704635000002,None,1443.5930298999992,None,1443.5930298999992,None,f,1.2286254999999073,1443.5930298999992,None,1.2286254999999073,,,120 Sing,001,2022_Dec_01_1628,ProdSingRedoBetween,2021.2.3,60.049709149371864,
,,,,148,0,148,0,,,,,,,,,,,,,,,,,,,,,,1448.3955769999993,None,,,,,,,,,,,,,,,,,territory,170,149,sing,new,null,1445.3420736999979,None,1445.3420736999979,None,2,1.5355583000018669,1445.3420736999979,None,1.5355583000018669,1446.9086074999977,None,1447.4228418999992,None,1447.4228418999992,None,f,0.942949200001749,1447.4228418999992,None,0.942949200001749,,,120 Sing,001,2022_Dec_01_1628,ProdSingRedoBetween,2021.2.3,60.049709149371864,
,,,,149,0,149,0,,,,,,,,,,,,,,,,,,,,,,1451.9660517999982,None,,,,,,,,,,,,,,,,,profession,74,150,sing,old,red,1448.9184996000004,None,1448.9184996000004,None,2,2.0233068999987154,1448.9184996000004,None,2.0233068999987154,1450.9759207999996,None,1451.4769409,None,1451.4769409,None,f,0.4650188000014168,1451.4769409,None,0.4650188000014168,,,120 Sing,001,2022_Dec_01_1628,ProdSingRedoBetween,2021.2.3,60.049709149371864,
,,,,150,0,150,0,,,,,,,,,,,,,,,,,,,,,,1455.4807091000002,None,,,,,,,,,,,,,,,,,degree,149,151,sing,new,null,1452.484075299999,None,1452.484075299999,None,1,1.913737899998523,1452.484075299999,None,1.913737899998523,1454.423862399999,None,1454.9346349999978,None,1454.9346349999978,None,f,0.5190822000004118,1454.9346349999978,None,0.5190822000004118,,,120 Sing,001,2022_Dec_01_1628,ProdSingRedoBetween,2021.2.3,60.049709149371864,
,,,,151,0,151,0,,,,,,,,,,,,,,,,,,,,,,1467.394226100001,None,,,,,,,,,,,,,,,,,crisis,136,152,sing,new,null,1455.9848598999997,None,1455.9848598999997,None,1,9.228950200002146,1455.9848598999997,None,9.228950200002146,1465.2502531999999,None,1465.7628828999987,None,1465.7628828999987,None,f,1.610875099999248,1465.7628828999987,None,1.610875099999248,,,120 Sing,001,2022_Dec_01_1628,ProdSingRedoBetween,2021.2.3,60.049709149371864,
,,,,152,0,152,0,,,,,,,,,,,,,,,,,,,,,,1474.6330961999993,None,,,,,,,,,,,,,,,,,stranger,117,153,sing,new,null,1467.9278267000009,None,1467.9278267000009,None,1,1.8298680000007153,1467.9278267000009,None,1.8298680000007153,1469.7815444000007,None,1470.3013695000009,None,1470.3013695000009,None,n,4.304237399999693,1470.3013695000009,None,4.304237399999693,,,120 Sing,001,2022_Dec_01_1628,ProdSingRedoBetween,2021.2.3,60.049709149371864,
,,,,153,0,153,0,,,,,,,,,,,,,,,,,,,,,,1492.2346450999976,None,,,,,,,,,,,,,,,,,school,0,154,sing,old,yellow,1475.1470773,None,1475.1470773,None,1,13.474688099999184,1475.1470773,None,13.474688099999184,1488.6553810999976,None,1489.1643822999977,None,1489.1643822999977,None,r,3.041343400000187,1489.1643822999977,None,3.041343400000187,,,120 Sing,001,2022_Dec_01_1628,ProdSingRedoBetween,2021.2.3,60.049709149371864,
,,,,154,0,154,0,,,,,,,,,,,,,,,,,,,,,,1502.7613510999981,None,,,,,,,,,,,,,,,,,review,44,155,sing,old,blue,1492.750828199998,None,1492.750828199998,None,6,8.694960900000297,1492.750828199998,None,8.694960900000297,1501.483077099998,None,1501.9937997999987,None,1501.9937997999987,None,r,0.7398085999993782,1501.9937997999987,None,0.7398085999993782,,,120 Sing,001,2022_Dec_01_1628,ProdSingRedoBetween,2021.2.3,60.049709149371864,
,,,,155,0,155,0,,,,,,,,,,,,,,,,,,,,,,1508.183778999999,None,,,,,,,,,,,,,,,,,history,95,156,sing,new,null,1503.2703212999986,None,1503.2703212999986,None,1,2.5994713000000047,1503.2703212999986,None,2.5994713000000047,1505.904400299998,None,1506.4245865000012,None,1506.4245865000012,None,f,1.741208800001914,1506.4245865000012,None,1.741208800001914,,,120 Sing,001,2022_Dec_01_1628,ProdSingRedoBetween,2021.2.3,60.049709149371864,
,,,,156,0,156,0,,,,,,,,,,,,,,,,,,,,,,1512.3218565999996,None,,,,,,,,,,,,,,,,,patient,70,157,sing,old,red,1508.694679199998,None,1508.694679199998,None,6,2.311163900001702,1508.694679199998,None,2.311163900001702,1511.0467477999991,None,1511.5619652999994,None,1511.5619652999994,None,r,0.7397892999979376,1511.5619652999994,None,0.7397892999979376,,,120 Sing,001,2022_Dec_01_1628,ProdSingRedoBetween,2021.2.3,60.049709149371864,
,,,,157,0,157,0,,,,,,,,,,,,,,,,,,,,,,1516.1262399999978,None,,,,,,,,,,,,,,,,,novel,20,158,sing,old,yellow,1512.8244913999988,None,1512.8244913999988,None,1,1.2371811999983038,1512.8244913999988,None,1.2371811999983038,1514.090337900001,None,1514.5953154999988,None,1514.5953154999988,None,f,1.51446869999927,1514.5953154999988,None,1.51446869999927,,,120 Sing,001,2022_Dec_01_1628,ProdSingRedoBetween,2021.2.3,60.049709149371864,
,,,,158,0,158,0,,,,,,,,,,,,,,,,,,,,,,1521.1296554,None,,,,,,,,,,,,,,,,,ground,1,159,sing,old,yellow,1516.644702499998,None,1516.644702499998,None,6,3.5211822999990545,1516.644702499998,None,3.5211822999990545,1520.2043752999998,None,1520.7127191,None,1520.7127191,None,r,0.3889856999994663,1520.7127191,None,0.3889856999994663,,,120 Sing,001,2022_Dec_01_1628,ProdSingRedoBetween,2021.2.3,60.049709149371864,
,,,,159,0,159,0,,,,,,,,,,,,,,,,,,,,,,1527.0189537000006,None,,,,,,,,,,,,,,,,,range,119,160,sing,new,null,1521.6412889999992,None,1521.6412889999992,None,1,1.5004447999999684,1521.6412889999992,None,1.5004447999999684,1523.1683430999983,None,1523.6927475999983,None,1523.6927475999983,None,f,3.3049446000004536,1523.6927475999983,None,3.3049446000004536,,,120 Sing,001,2022_Dec_01_1628,ProdSingRedoBetween,2021.2.3,60.049709149371864,
,,,,160,0,160,0,,,,,,,,,,,,,,,,,,,,,,1531.823451199998,None,,,,,,,,,,,,,,,,,strain,94,161,sing,new,null,1527.5294194999988,None,1527.5294194999988,None,1,1.844240099999297,1527.5294194999988,None,1.844240099999297,1529.4056936999987,None,1529.9099594,None,1529.9099594,None,f,1.8877327000009245,1529.9099594,None,1.8877327000009245,,,120 Sing,001,2022_Dec_01_1628,ProdSingRedoBetween,2021.2.3,60.049709149371864,
,,,,161,0,161,0,,,,,,,,,,,,,,,,,,,,,,1536.3781896,None,,,,,,,,,,,,,,,,,budget,50,162,sing,old,blue,1532.3335167999976,None,1532.3335167999976,None,6,1.5205682000014349,1532.3335167999976,None,1.5205682000014349,1533.8870117000006,None,1534.3987455999995,None,1534.3987455999995,None,r,1.9589423999968858,1534.3987455999995,None,1.9589423999968858,,,120 Sing,001,2022_Dec_01_1628,ProdSingRedoBetween,2021.2.3,60.049709149371864,
,,,,162,0,162,0,,,,,,,,,,,,,,,,,,,,,,1541.6363190999982,None,,,,,,,,,,,,,,,,,cover,5,163,sing,old,yellow,1536.8888664000006,None,1536.8888664000006,None,1,1.5648621000000276,1536.8888664000006,None,1.5648621000000276,1538.485446499999,None,1539.0075761999979,None,1539.0075761999979,None,f,2.598249200000282,1539.0075761999979,None,2.598249200000282,,,120 Sing,001,2022_Dec_01_1628,ProdSingRedoBetween,2021.2.3,60.049709149371864,
,,,,163,0,163,0,,,,,,,,,,,,,,,,,,,,,,1545.2718313000005,None,,,,,,,,,,,,,,,,,staff,131,164,sing,new,null,1542.1573865999999,None,1542.1573865999999,None,1,1.5682993000009446,1542.1573865999999,None,1.5682993000009446,1543.7550826000006,None,1544.276406699999,None,1544.276406699999,None,f,0.9693112000022666,1544.276406699999,None,0.9693112000022666,,,120 Sing,001,2022_Dec_01_1628,ProdSingRedoBetween,2021.2.3,60.049709149371864,
,,,,164,0,164,0,,,,,,,,,,,,,,,,,,,,,,1549.8583548999995,None,,,,,,,,,,,,,,,,,instrument,78,165,sing,old,red,1545.7755924999983,None,1545.7755924999983,None,6,1.5981991000007838,1545.7755924999983,None,1.5981991000007838,1547.3966708999978,None,1547.9125017999977,None,1547.9125017999977,None,r,1.917231499999616,1547.9125017999977,None,1.917231499999616,,,120 Sing,001,2022_Dec_01_1628,ProdSingRedoBetween,2021.2.3,60.049709149371864,
,,,,165,0,165,0,,,,,,,,,,,,,,,,,,,,,,1564.7897195000005,None,,,,,,,,,,,,,,,,,government,73,166,sing,old,red,1550.3718511999978,None,1550.3718511999978,None,1,5.177938900000299,1550.3718511999978,None,5.177938900000299,1555.5875349999988,None,1556.1039687000011,None,1556.1039687000011,None,f,8.669763100002456,1556.1039687000011,None,8.669763100002456,,,120 Sing,001,2022_Dec_01_1628,ProdSingRedoBetween,2021.2.3,60.049709149371864,
,,,,166,0,166,0,,,,,,,,,,,,,,,,,,,,,,1570.545696000001,None,,,,,,,,,,,,,,,,,gesture,121,167,sing,new,null,1565.302276899998,None,1565.302276899998,None,1,2.3356142999982694,1565.302276899998,None,2.3356142999982694,1567.672103599998,None,1568.1818252000012,None,1568.1818252000012,None,f,2.3439006000007794,1568.1818252000012,None,2.3439006000007794,,,120 Sing,001,2022_Dec_01_1628,ProdSingRedoBetween,2021.2.3,60.049709149371864,
,,,,167,0,167,0,,,,,,,,,,,,,,,,,,,,,,1579.8432498000002,None,,,,,,,,,,,,,,,,,material,154,168,sing,new,null,1571.0462265999995,None,1571.0462265999995,None,6,6.03150370000003,1571.0462265999995,None,6.03150370000003,1577.1040235,None,1577.6224107999988,None,1577.6224107999988,None,f,2.191369799998938,1577.6224107999988,None,2.191369799998938,,,120 Sing,001,2022_Dec_01_1628,ProdSingRedoBetween,2021.2.3,60.049709149371864,
,,,,168,0,168,0,,,,,,,,,,,,,,,,,,,,,,1584.593112800001,None,,,,,,,,,,,,,,,,,passage,113,169,sing,new,null,1580.3689668999978,None,1580.3689668999978,None,1,2.052759900001547,1580.3689668999978,None,2.052759900001547,1582.4428836000006,None,1582.9635068999996,None,1582.9635068999996,None,n,1.610248999997566,1582.9635068999996,None,1.610248999997566,,,120 Sing,001,2022_Dec_01_1628,ProdSingRedoBetween,2021.2.3,60.049709149371864,
,,,,169,0,169,0,,,,,,,,,,,,,,,,,,,,,,1587.9167768999978,None,,,,,,,,,,,,,,,,,enemy,86,170,sing,old,red,1585.1066085999992,None,1585.1066085999992,None,6,1.4111570999994,1585.1066085999992,None,1.4111570999994,1586.5516891999978,None,1587.0634043999999,None,1587.0634043999999,None,r,0.8223967000012635,1587.0634043999999,None,0.8223967000012635,,,120 Sing,001,2022_Dec_01_1628,ProdSingRedoBetween,2021.2.3,60.049709149371864,
,,,,170,0,170,0,,,,,,,,,,,,,,,,,,,,,,1591.9216592999983,None,,,,,,,,,,,,,,,,,meeting,24,171,sing,old,yellow,1588.432456399998,None,1588.432456399998,None,6,2.4533727999987605,1588.432456399998,None,2.4533727999987605,1590.9237539999995,None,1591.4334464999993,None,1591.4334464999993,None,r,0.4523631000010937,1591.4334464999993,None,0.4523631000010937,,,120 Sing,001,2022_Dec_01_1628,ProdSingRedoBetween,2021.2.3,60.049709149371864,
,,,,171,0,171,0,,,,,,,,,,,,,,,,,,,,,,1597.4099437000004,None,,,,,,,,,,,,,,,,,safety,167,172,sing,new,null,1592.434247199999,None,1592.434247199999,None,1,1.3875052000003052,1592.434247199999,None,1.3875052000003052,1593.8533270999978,None,1594.3574429,None,1594.3574429,None,f,3.0324733999987075,1594.3574429,None,3.0324733999987075,,,120 Sing,001,2022_Dec_01_1628,ProdSingRedoBetween,2021.2.3,60.049709149371864,
,,,,172,0,172,0,,,,,,,,,,,,,,,,,,,,,,1606.6985041000007,None,,,,,,,,,,,,,,,,,character,3,173,sing,old,yellow,1597.9295421999996,None,1597.9295421999996,None,1,6.948273599999084,1597.9295421999996,None,6.948273599999084,1604.8978621999995,None,1605.4019115999981,None,1605.4019115999981,None,f,1.2678243999980623,1605.4019115999981,None,1.2678243999980623,,,120 Sing,001,2022_Dec_01_1628,ProdSingRedoBetween,2021.2.3,60.049709149371864,
,,,,173,0,173,0,,,,,,,,,,,,,,,,,,,,,,1610.051836300001,None,,,,,,,,,,,,,,,,,impact,38,174,sing,old,blue,1607.2139575,None,1607.2139575,None,6,1.487789500002691,1607.2139575,None,1.487789500002691,1608.7191639000011,None,1609.2344649000006,None,1609.2344649000006,None,r,0.7873137999995379,1609.2344649000006,None,0.7873137999995379,,,120 Sing,001,2022_Dec_01_1628,ProdSingRedoBetween,2021.2.3,60.049709149371864,
,,,,174,0,174,0,,,,,,,,,,,,,,,,,,,,,,1614.4615405000004,None,,,,,,,,,,,,,,,,,concern,172,175,sing,new,null,1610.563134699998,None,1610.563134699998,None,6,2.714490599999408,1610.563134699998,None,2.714490599999408,1613.3079689000006,None,1613.8281161999985,None,1613.8281161999985,None,r,0.6097068000017316,1613.8281161999985,None,0.6097068000017316,,,120 Sing,001,2022_Dec_01_1628,ProdSingRedoBetween,2021.2.3,60.049709149371864,
,,,,175,0,175,0,,,,,,,,,,,,,,,,,,,,,,1633.5286730000007,None,,,,,,,,,,,,,,,,,strength,145,176,sing,new,null,1614.9827985999982,None,1614.9827985999982,None,4,3.2070891999974265,1614.9827985999982,None,3.2070891999974265,1618.2204507999995,None,1618.732143000001,None,1618.732143000001,None,f,14.762163300001703,1618.732143000001,None,14.762163300001703,,,120 Sing,001,2022_Dec_01_1628,ProdSingRedoBetween,2021.2.3,60.049709149371864,
,,,,176,0,176,0,,,,,,,,,,,,,,,,,,,,,,1651.7487937999977,None,,,,,,,,,,,,,,,,,smooth,103,177,sing,new,null,1634.049572699998,None,1634.049572699998,None,3,15.668227400001342,1634.049572699998,None,15.668227400001342,1649.747252699999,None,1650.263526300001,None,1650.263526300001,None,f,1.4623492999999144,1650.263526300001,None,1.4623492999999144,,,120 Sing,001,2022_Dec_01_1628,ProdSingRedoBetween,2021.2.3,60.049709149371864,
,,,,177,0,177,0,,,,,,,,,,,,,,,,,,,,,,1655.2470200999996,None,,,,,,,,,,,,,,,,,search,150,178,sing,new,null,1652.2772738999993,None,1652.2772738999993,None,2,1.6084168999987014,1652.2772738999993,None,1.6084168999987014,1653.9136541999978,None,1654.4189372,None,1654.4189372,None,f,0.8108208999983617,1654.4189372,None,0.8108208999983617,,,120 Sing,001,2022_Dec_01_1628,ProdSingRedoBetween,2021.2.3,60.049709149371864,
