StudyLoop.thisRepN,StudyLoop.thisTrialN,StudyLoop.thisN,StudyLoop.thisIndex,TestLoop.thisRepN,TestLoop.thisTrialN,TestLoop.thisN,TestLoop.thisIndex,textCondition.started,textCondition.stopped,keyCondition.keys,keyCondition.rt,keyCondition.started,keyCondition.stopped,Condition,textWelcome.started,textWelcome.stopped,keyWelcome.keys,keyWelcome.rt,keyWelcome.started,keyWelcome.stopped,textAloud.started,textAloud.stopped,textSilent.started,textSilent.stopped,textSing.started,textSing.stopped,conditional_text.started,conditional_text.stopped,textBlank500.started,textBlank500.stopped,study_word,study_num,study_order,study_type,word_color,textStudy.started,textStudy.stopped,keyStudy.keys,keyStudy.started,keyStudy.stopped,textTestInstructions.started,textTestInstructions.stopped,key_resp_3.keys,key_resp_3.rt,key_resp_3.started,key_resp_3.stopped,test_word,test_num,test_order,test_condition,old_new_test,test_word_original_color,textConf.started,textConf.stopped,textConfScale.started,textConfScale.stopped,keyConf.keys,keyConf.rt,keyConf.started,keyConf.stopped,confidence response time,textTestBlank.started,textTestBlank.stopped,textRKN.started,textRKN.stopped,textRKNScale.started,textRKNScale.stopped,keyRKN.keys,keyRKN.rt,keyRKN.started,keyRKN.stopped,rkn response time,textEnd.started,textEnd.stopped,participant,session,date,expName,psychopyVersion,frameRate,
,,,,,,,,31.08327630000349,None,a,4.98093720000179,31.08327630000349,None,,,,,,,,,,,,,,,,,,,,,,,,,,,,,,,,,,,,,,,,,,,,,,,,,,,,,,,,,,,,,,121 Silent,001,2022_Dec_01_1659,ProdSingRedoBetween,2021.2.3,59.963614079834464,
,,,,,,,,,,,,,,SilentTest,36.11100680000163,None,space,258.7214690999972,36.11100680000163,None,,,,,,,,,,,,,,,,,,,,,,,,,,,,,,,,,,,,,,,,,,,,,,,,,,,,,,,121 Silent,001,2022_Dec_01_1659,ProdSingRedoBetween,2021.2.3,59.963614079834464,
0,0,0,0,,,,,,,,,,,,,,,,,,36.11100680000163,None,36.11100680000163,None,36.11100680000163,None,36.11100680000163,None,297.381736000003,None,clear,56,1,silent,blue,295.37313690000155,None,None,295.37313690000155,None,,,,,,,,,,,,,,,,,,,,,,,,,,,,,,,,,,,121 Silent,001,2022_Dec_01_1659,ProdSingRedoBetween,2021.2.3,59.963614079834464,
1,0,1,0,,,,,,,,,,,,,,,,,,,,,,,,,,299.9007627000028,None,skill,63,2,silent,red,297.9014347000011,None,None,297.9014347000011,None,,,,,,,,,,,,,,,,,,,,,,,,,,,,,,,,,,,121 Silent,001,2022_Dec_01_1659,ProdSingRedoBetween,2021.2.3,59.963614079834464,
2,0,2,0,,,,,,,,,,,,,,,,,,,,,,,,,,302.41989210000247,None,brilliant,18,3,silent,yellow,300.4098842000021,None,None,300.4098842000021,None,,,,,,,,,,,,,,,,,,,,,,,,,,,,,,,,,,,121 Silent,001,2022_Dec_01_1659,ProdSingRedoBetween,2021.2.3,59.963614079834464,
3,0,3,0,,,,,,,,,,,,,,,,,,,,,,,,,,304.92257560000144,None,route,52,4,silent,blue,302.92050500000187,None,None,302.92050500000187,None,,,,,,,,,,,,,,,,,,,,,,,,,,,,,,,,,,,121 Silent,001,2022_Dec_01_1659,ProdSingRedoBetween,2021.2.3,59.963614079834464,
4,0,4,0,,,,,,,,,,,,,,,,,,,,,,,,,,307.44170040000245,None,agency,86,5,silent,red,305.4261723000018,None,None,305.4261723000018,None,,,,,,,,,,,,,,,,,,,,,,,,,,,,,,,,,,,121 Silent,001,2022_Dec_01_1659,ProdSingRedoBetween,2021.2.3,59.963614079834464,
5,0,5,0,,,,,,,,,,,,,,,,,,,,,,,,,,309.96083900000303,None,object,82,6,silent,red,307.95183570000154,None,None,307.95183570000154,None,,,,,,,,,,,,,,,,,,,,,,,,,,,,,,,,,,,121 Silent,001,2022_Dec_01_1659,ProdSingRedoBetween,2021.2.3,59.963614079834464,
6,0,6,0,,,,,,,,,,,,,,,,,,,,,,,,,,312.4635292000021,None,commercial,68,7,silent,red,310.4613707000026,None,None,310.4613707000026,None,,,,,,,,,,,,,,,,,,,,,,,,,,,,,,,,,,,121 Silent,001,2022_Dec_01_1659,ProdSingRedoBetween,2021.2.3,59.963614079834464,
7,0,7,0,,,,,,,,,,,,,,,,,,,,,,,,,,314.9826165000013,None,second,70,8,silent,red,312.97717510000075,None,None,312.97717510000075,None,,,,,,,,,,,,,,,,,,,,,,,,,,,,,,,,,,,121 Silent,001,2022_Dec_01_1659,ProdSingRedoBetween,2021.2.3,59.963614079834464,
8,0,8,0,,,,,,,,,,,,,,,,,,,,,,,,,,317.484895900001,None,close,62,9,silent,red,315.48346970000057,None,None,315.48346970000057,None,,,,,,,,,,,,,,,,,,,,,,,,,,,,,,,,,,,121 Silent,001,2022_Dec_01_1659,ProdSingRedoBetween,2021.2.3,59.963614079834464,
9,0,9,0,,,,,,,,,,,,,,,,,,,,,,,,,,319.9876269000015,None,audience,24,10,silent,yellow,317.98759990000326,None,None,317.98759990000326,None,,,,,,,,,,,,,,,,,,,,,,,,,,,,,,,,,,,121 Silent,001,2022_Dec_01_1659,ProdSingRedoBetween,2021.2.3,59.963614079834464,
10,0,10,0,,,,,,,,,,,,,,,,,,,,,,,,,,322.4897748000003,None,finish,77,11,silent,red,320.4903583000014,None,None,320.4903583000014,None,,,,,,,,,,,,,,,,,,,,,,,,,,,,,,,,,,,121 Silent,001,2022_Dec_01_1659,ProdSingRedoBetween,2021.2.3,59.963614079834464,
11,0,11,0,,,,,,,,,,,,,,,,,,,,,,,,,,325.0092777000027,None,tennis,4,12,silent,yellow,322.9988789000017,None,None,322.9988789000017,None,,,,,,,,,,,,,,,,,,,,,,,,,,,,,,,,,,,121 Silent,001,2022_Dec_01_1659,ProdSingRedoBetween,2021.2.3,59.963614079834464,
12,0,12,0,,,,,,,,,,,,,,,,,,,,,,,,,,327.5121781000016,None,husband,28,13,silent,yellow,325.5111900000011,None,None,325.5111900000011,None,,,,,,,,,,,,,,,,,,,,,,,,,,,,,,,,,,,121 Silent,001,2022_Dec_01_1659,ProdSingRedoBetween,2021.2.3,59.963614079834464,
13,0,13,0,,,,,,,,,,,,,,,,,,,,,,,,,,330.0309804000026,None,trend,21,14,silent,yellow,328.0166296000025,None,None,328.0166296000025,None,,,,,,,,,,,,,,,,,,,,,,,,,,,,,,,,,,,121 Silent,001,2022_Dec_01_1659,ProdSingRedoBetween,2021.2.3,59.963614079834464,
14,0,14,0,,,,,,,,,,,,,,,,,,,,,,,,,,332.549788100001,None,graduate,1,15,silent,yellow,330.5374838000025,None,None,330.5374838000025,None,,,,,,,,,,,,,,,,,,,,,,,,,,,,,,,,,,,121 Silent,001,2022_Dec_01_1659,ProdSingRedoBetween,2021.2.3,59.963614079834464,
15,0,15,0,,,,,,,,,,,,,,,,,,,,,,,,,,335.054481500003,None,count,64,16,silent,red,333.0506091000025,None,None,333.0506091000025,None,,,,,,,,,,,,,,,,,,,,,,,,,,,,,,,,,,,121 Silent,001,2022_Dec_01_1659,ProdSingRedoBetween,2021.2.3,59.963614079834464,
16,0,16,0,,,,,,,,,,,,,,,,,,,,,,,,,,337.5883554000029,None,expansion,69,17,silent,red,335.58853760000056,None,None,335.58853760000056,None,,,,,,,,,,,,,,,,,,,,,,,,,,,,,,,,,,,121 Silent,001,2022_Dec_01_1659,ProdSingRedoBetween,2021.2.3,59.963614079834464,
17,0,17,0,,,,,,,,,,,,,,,,,,,,,,,,,,340.0909780000002,None,measure,49,18,silent,blue,338.0888380000033,None,None,338.0888380000033,None,,,,,,,,,,,,,,,,,,,,,,,,,,,,,,,,,,,121 Silent,001,2022_Dec_01_1659,ProdSingRedoBetween,2021.2.3,59.963614079834464,
18,0,18,0,,,,,,,,,,,,,,,,,,,,,,,,,,342.6101759000012,None,position,46,19,silent,blue,340.59530860000086,None,None,340.59530860000086,None,,,,,,,,,,,,,,,,,,,,,,,,,,,,,,,,,,,121 Silent,001,2022_Dec_01_1659,ProdSingRedoBetween,2021.2.3,59.963614079834464,
19,0,19,0,,,,,,,,,,,,,,,,,,,,,,,,,,345.1127105000014,None,science,43,20,silent,blue,343.11197540000285,None,None,343.11197540000285,None,,,,,,,,,,,,,,,,,,,,,,,,,,,,,,,,,,,121 Silent,001,2022_Dec_01_1659,ProdSingRedoBetween,2021.2.3,59.963614079834464,
20,0,20,0,,,,,,,,,,,,,,,,,,,,,,,,,,347.6315914000006,None,piece,54,21,silent,blue,345.61665410000205,None,None,345.61665410000205,None,,,,,,,,,,,,,,,,,,,,,,,,,,,,,,,,,,,121 Silent,001,2022_Dec_01_1659,ProdSingRedoBetween,2021.2.3,59.963614079834464,
21,0,21,0,,,,,,,,,,,,,,,,,,,,,,,,,,350.15119400000185,None,foundation,13,22,silent,yellow,348.14318210000056,None,None,348.14318210000056,None,,,,,,,,,,,,,,,,,,,,,,,,,,,,,,,,,,,121 Silent,001,2022_Dec_01_1659,ProdSingRedoBetween,2021.2.3,59.963614079834464,
22,0,22,0,,,,,,,,,,,,,,,,,,,,,,,,,,352.67026100000294,None,scene,73,23,silent,red,350.6569853000001,None,None,350.6569853000001,None,,,,,,,,,,,,,,,,,,,,,,,,,,,,,,,,,,,121 Silent,001,2022_Dec_01_1659,ProdSingRedoBetween,2021.2.3,59.963614079834464,
23,0,23,0,,,,,,,,,,,,,,,,,,,,,,,,,,355.1727079000011,None,community,76,24,silent,red,353.1707821000018,None,None,353.1707821000018,None,,,,,,,,,,,,,,,,,,,,,,,,,,,,,,,,,,,121 Silent,001,2022_Dec_01_1659,ProdSingRedoBetween,2021.2.3,59.963614079834464,
24,0,24,0,,,,,,,,,,,,,,,,,,,,,,,,,,357.6752596000006,None,under,84,25,silent,red,355.67362250000224,None,None,355.67362250000224,None,,,,,,,,,,,,,,,,,,,,,,,,,,,,,,,,,,,121 Silent,001,2022_Dec_01_1659,ProdSingRedoBetween,2021.2.3,59.963614079834464,
25,0,25,0,,,,,,,,,,,,,,,,,,,,,,,,,,360.19457930000135,None,patient,78,26,silent,red,358.18687740000314,None,None,358.18687740000314,None,,,,,,,,,,,,,,,,,,,,,,,,,,,,,,,,,,,121 Silent,001,2022_Dec_01_1659,ProdSingRedoBetween,2021.2.3,59.963614079834464,
26,0,26,0,,,,,,,,,,,,,,,,,,,,,,,,,,362.71354410000276,None,cover,7,27,silent,yellow,360.70094790000076,None,None,360.70094790000076,None,,,,,,,,,,,,,,,,,,,,,,,,,,,,,,,,,,,121 Silent,001,2022_Dec_01_1659,ProdSingRedoBetween,2021.2.3,59.963614079834464,
27,0,27,0,,,,,,,,,,,,,,,,,,,,,,,,,,365.2327996000022,None,household,50,28,silent,blue,363.21767770000224,None,None,363.21767770000224,None,,,,,,,,,,,,,,,,,,,,,,,,,,,,,,,,,,,121 Silent,001,2022_Dec_01_1659,ProdSingRedoBetween,2021.2.3,59.963614079834464,
28,0,28,0,,,,,,,,,,,,,,,,,,,,,,,,,,367.7520463000001,None,mayor,25,29,silent,yellow,365.73659450000196,None,None,365.73659450000196,None,,,,,,,,,,,,,,,,,,,,,,,,,,,,,,,,,,,121 Silent,001,2022_Dec_01_1659,ProdSingRedoBetween,2021.2.3,59.963614079834464,
29,0,29,0,,,,,,,,,,,,,,,,,,,,,,,,,,370.2544349000018,None,level,20,30,silent,yellow,368.2524293000024,None,None,368.2524293000024,None,,,,,,,,,,,,,,,,,,,,,,,,,,,,,,,,,,,121 Silent,001,2022_Dec_01_1659,ProdSingRedoBetween,2021.2.3,59.963614079834464,
30,0,30,0,,,,,,,,,,,,,,,,,,,,,,,,,,372.75707260000127,None,treatment,11,31,silent,yellow,370.75644600000305,None,None,370.75644600000305,None,,,,,,,,,,,,,,,,,,,,,,,,,,,,,,,,,,,121 Silent,001,2022_Dec_01_1659,ProdSingRedoBetween,2021.2.3,59.963614079834464,
31,0,31,0,,,,,,,,,,,,,,,,,,,,,,,,,,375.2593939000035,None,phrase,2,32,silent,yellow,373.2587205000018,None,None,373.2587205000018,None,,,,,,,,,,,,,,,,,,,,,,,,,,,,,,,,,,,121 Silent,001,2022_Dec_01_1659,ProdSingRedoBetween,2021.2.3,59.963614079834464,
32,0,32,0,,,,,,,,,,,,,,,,,,,,,,,,,,377.77877400000216,None,shock,71,33,silent,red,375.7756733000024,None,None,375.7756733000024,None,,,,,,,,,,,,,,,,,,,,,,,,,,,,,,,,,,,121 Silent,001,2022_Dec_01_1659,ProdSingRedoBetween,2021.2.3,59.963614079834464,
33,0,33,0,,,,,,,,,,,,,,,,,,,,,,,,,,380.28130240000246,None,quick,42,34,silent,blue,378.28150310000274,None,None,378.28150310000274,None,,,,,,,,,,,,,,,,,,,,,,,,,,,,,,,,,,,121 Silent,001,2022_Dec_01_1659,ProdSingRedoBetween,2021.2.3,59.963614079834464,
34,0,34,0,,,,,,,,,,,,,,,,,,,,,,,,,,382.8003321000033,None,bucket,79,35,silent,red,380.7873249000004,None,None,380.7873249000004,None,,,,,,,,,,,,,,,,,,,,,,,,,,,,,,,,,,,121 Silent,001,2022_Dec_01_1659,ProdSingRedoBetween,2021.2.3,59.963614079834464,
35,0,35,0,,,,,,,,,,,,,,,,,,,,,,,,,,385.31947560000117,None,interview,80,36,silent,red,383.31068900000173,None,None,383.31068900000173,None,,,,,,,,,,,,,,,,,,,,,,,,,,,,,,,,,,,121 Silent,001,2022_Dec_01_1659,ProdSingRedoBetween,2021.2.3,59.963614079834464,
36,0,36,0,,,,,,,,,,,,,,,,,,,,,,,,,,387.82202170000164,None,split,0,37,silent,yellow,385.8218295000006,None,None,385.8218295000006,None,,,,,,,,,,,,,,,,,,,,,,,,,,,,,,,,,,,121 Silent,001,2022_Dec_01_1659,ProdSingRedoBetween,2021.2.3,59.963614079834464,
37,0,37,0,,,,,,,,,,,,,,,,,,,,,,,,,,390.34117440000045,None,tragedy,59,38,silent,yellow,388.3270039000017,None,None,388.3270039000017,None,,,,,,,,,,,,,,,,,,,,,,,,,,,,,,,,,,,121 Silent,001,2022_Dec_01_1659,ProdSingRedoBetween,2021.2.3,59.963614079834464,
38,0,38,0,,,,,,,,,,,,,,,,,,,,,,,,,,392.8603856000009,None,weight,15,39,silent,yellow,390.84915380000166,None,None,390.84915380000166,None,,,,,,,,,,,,,,,,,,,,,,,,,,,,,,,,,,,121 Silent,001,2022_Dec_01_1659,ProdSingRedoBetween,2021.2.3,59.963614079834464,
39,0,39,0,,,,,,,,,,,,,,,,,,,,,,,,,,395.3630914000023,None,chief,32,40,silent,blue,393.3624843000034,None,None,393.3624843000034,None,,,,,,,,,,,,,,,,,,,,,,,,,,,,,,,,,,,121 Silent,001,2022_Dec_01_1659,ProdSingRedoBetween,2021.2.3,59.963614079834464,
40,0,40,0,,,,,,,,,,,,,,,,,,,,,,,,,,397.865428000001,None,interior,41,41,silent,blue,395.8651118000016,None,None,395.8651118000016,None,,,,,,,,,,,,,,,,,,,,,,,,,,,,,,,,,,,121 Silent,001,2022_Dec_01_1659,ProdSingRedoBetween,2021.2.3,59.963614079834464,
41,0,41,0,,,,,,,,,,,,,,,,,,,,,,,,,,400.38469910000276,None,business,66,42,silent,red,398.37757200000124,None,None,398.37757200000124,None,,,,,,,,,,,,,,,,,,,,,,,,,,,,,,,,,,,121 Silent,001,2022_Dec_01_1659,ProdSingRedoBetween,2021.2.3,59.963614079834464,
42,0,42,0,,,,,,,,,,,,,,,,,,,,,,,,,,402.9037161000015,None,express,38,43,silent,blue,400.8925543000005,None,None,400.8925543000005,None,,,,,,,,,,,,,,,,,,,,,,,,,,,,,,,,,,,121 Silent,001,2022_Dec_01_1659,ProdSingRedoBetween,2021.2.3,59.963614079834464,
43,0,43,0,,,,,,,,,,,,,,,,,,,,,,,,,,405.4063481000012,None,minor,23,44,silent,yellow,403.40720740000324,None,None,403.40720740000324,None,,,,,,,,,,,,,,,,,,,,,,,,,,,,,,,,,,,121 Silent,001,2022_Dec_01_1659,ProdSingRedoBetween,2021.2.3,59.963614079834464,
44,0,44,0,,,,,,,,,,,,,,,,,,,,,,,,,,407.90878800000064,None,agreement,47,45,silent,blue,405.9086747000001,None,None,405.9086747000001,None,,,,,,,,,,,,,,,,,,,,,,,,,,,,,,,,,,,121 Silent,001,2022_Dec_01_1659,ProdSingRedoBetween,2021.2.3,59.963614079834464,
45,0,45,0,,,,,,,,,,,,,,,,,,,,,,,,,,410.42798010000115,None,curve,26,46,silent,yellow,408.4141311000021,None,None,408.4141311000021,None,,,,,,,,,,,,,,,,,,,,,,,,,,,,,,,,,,,121 Silent,001,2022_Dec_01_1659,ProdSingRedoBetween,2021.2.3,59.963614079834464,
46,0,46,0,,,,,,,,,,,,,,,,,,,,,,,,,,412.9471211000018,None,month,12,47,silent,yellow,410.9338566000006,None,None,410.9338566000006,None,,,,,,,,,,,,,,,,,,,,,,,,,,,,,,,,,,,121 Silent,001,2022_Dec_01_1659,ProdSingRedoBetween,2021.2.3,59.963614079834464,
47,0,47,0,,,,,,,,,,,,,,,,,,,,,,,,,,415.4497986000024,None,store,74,48,silent,red,413.4476324000025,None,None,413.4476324000025,None,,,,,,,,,,,,,,,,,,,,,,,,,,,,,,,,,,,121 Silent,001,2022_Dec_01_1659,ProdSingRedoBetween,2021.2.3,59.963614079834464,
48,0,48,0,,,,,,,,,,,,,,,,,,,,,,,,,,417.96890180000264,None,material,33,49,silent,blue,415.9588700000022,None,None,415.9588700000022,None,,,,,,,,,,,,,,,,,,,,,,,,,,,,,,,,,,,121 Silent,001,2022_Dec_01_1659,ProdSingRedoBetween,2021.2.3,59.963614079834464,
49,0,49,0,,,,,,,,,,,,,,,,,,,,,,,,,,420.4879632000011,None,generation,27,50,silent,yellow,418.47334610000325,None,None,418.47334610000325,None,,,,,,,,,,,,,,,,,,,,,,,,,,,,,,,,,,,121 Silent,001,2022_Dec_01_1659,ProdSingRedoBetween,2021.2.3,59.963614079834464,
50,0,50,0,,,,,,,,,,,,,,,,,,,,,,,,,,422.99050870000065,None,whole,87,51,silent,red,420.99025480000273,None,None,420.99025480000273,None,,,,,,,,,,,,,,,,,,,,,,,,,,,,,,,,,,,121 Silent,001,2022_Dec_01_1659,ProdSingRedoBetween,2021.2.3,59.963614079834464,
51,0,51,0,,,,,,,,,,,,,,,,,,,,,,,,,,425.5097385000008,None,bicycle,14,52,silent,yellow,423.4945676000025,None,None,423.4945676000025,None,,,,,,,,,,,,,,,,,,,,,,,,,,,,,,,,,,,121 Silent,001,2022_Dec_01_1659,ProdSingRedoBetween,2021.2.3,59.963614079834464,
52,0,52,0,,,,,,,,,,,,,,,,,,,,,,,,,,428.01236750000317,None,revolution,34,53,silent,blue,426.01289590000306,None,None,426.01289590000306,None,,,,,,,,,,,,,,,,,,,,,,,,,,,,,,,,,,,121 Silent,001,2022_Dec_01_1659,ProdSingRedoBetween,2021.2.3,59.963614079834464,
53,0,53,0,,,,,,,,,,,,,,,,,,,,,,,,,,430.51468490000116,None,vision,22,54,silent,yellow,428.5124320000032,None,None,428.5124320000032,None,,,,,,,,,,,,,,,,,,,,,,,,,,,,,,,,,,,121 Silent,001,2022_Dec_01_1659,ProdSingRedoBetween,2021.2.3,59.963614079834464,
54,0,54,0,,,,,,,,,,,,,,,,,,,,,,,,,,433.03376330000174,None,service,31,55,silent,blue,431.02236630000334,None,None,431.02236630000334,None,,,,,,,,,,,,,,,,,,,,,,,,,,,,,,,,,,,121 Silent,001,2022_Dec_01_1659,ProdSingRedoBetween,2021.2.3,59.963614079834464,
55,0,55,0,,,,,,,,,,,,,,,,,,,,,,,,,,435.553035500001,None,estate,44,56,silent,blue,433.5446834000031,None,None,433.5446834000031,None,,,,,,,,,,,,,,,,,,,,,,,,,,,,,,,,,,,121 Silent,001,2022_Dec_01_1659,ProdSingRedoBetween,2021.2.3,59.963614079834464,
56,0,56,0,,,,,,,,,,,,,,,,,,,,,,,,,,438.072197700003,None,military,5,57,silent,yellow,436.0568103000005,None,None,436.0568103000005,None,,,,,,,,,,,,,,,,,,,,,,,,,,,,,,,,,,,121 Silent,001,2022_Dec_01_1659,ProdSingRedoBetween,2021.2.3,59.963614079834464,
57,0,57,0,,,,,,,,,,,,,,,,,,,,,,,,,,440.57448990000194,None,block,81,58,silent,red,438.5741603000024,None,None,438.5741603000024,None,,,,,,,,,,,,,,,,,,,,,,,,,,,,,,,,,,,121 Silent,001,2022_Dec_01_1659,ProdSingRedoBetween,2021.2.3,59.963614079834464,
58,0,58,0,,,,,,,,,,,,,,,,,,,,,,,,,,443.07739830000355,None,people,40,59,silent,blue,441.07730800000354,None,None,441.07730800000354,None,,,,,,,,,,,,,,,,,,,,,,,,,,,,,,,,,,,121 Silent,001,2022_Dec_01_1659,ProdSingRedoBetween,2021.2.3,59.963614079834464,
59,0,59,0,,,,,,,,,,,,,,,,,,,,,,,,,,445.5966327000024,None,working,61,60,silent,red,443.585233400001,None,None,443.585233400001,None,,,,,,,,,,,,,,,,,,,,,,,,,,,,,,,,,,,121 Silent,001,2022_Dec_01_1659,ProdSingRedoBetween,2021.2.3,59.963614079834464,
60,0,60,0,,,,,,,,,,,,,,,,,,,,,,,,,,448.11572870000236,None,worker,3,61,silent,yellow,446.1011270000017,None,None,446.1011270000017,None,,,,,,,,,,,,,,,,,,,,,,,,,,,,,,,,,,,121 Silent,001,2022_Dec_01_1659,ProdSingRedoBetween,2021.2.3,59.963614079834464,
61,0,61,0,,,,,,,,,,,,,,,,,,,,,,,,,,450.6348173000006,None,drove,72,62,silent,red,448.62350420000075,None,None,448.62350420000075,None,,,,,,,,,,,,,,,,,,,,,,,,,,,,,,,,,,,121 Silent,001,2022_Dec_01_1659,ProdSingRedoBetween,2021.2.3,59.963614079834464,
62,0,62,0,,,,,,,,,,,,,,,,,,,,,,,,,,453.1372588000013,None,testimony,53,63,silent,blue,451.13529290000224,None,None,451.13529290000224,None,,,,,,,,,,,,,,,,,,,,,,,,,,,,,,,,,,,121 Silent,001,2022_Dec_01_1659,ProdSingRedoBetween,2021.2.3,59.963614079834464,
63,0,63,0,,,,,,,,,,,,,,,,,,,,,,,,,,455.6564812000033,None,short,57,64,silent,blue,453.6461517000025,None,None,453.6461517000025,None,,,,,,,,,,,,,,,,,,,,,,,,,,,,,,,,,,,121 Silent,001,2022_Dec_01_1659,ProdSingRedoBetween,2021.2.3,59.963614079834464,
64,0,64,0,,,,,,,,,,,,,,,,,,,,,,,,,,458.17565540000214,None,machinery,10,65,silent,yellow,456.1602398000032,None,None,456.1602398000032,None,,,,,,,,,,,,,,,,,,,,,,,,,,,,,,,,,,,121 Silent,001,2022_Dec_01_1659,ProdSingRedoBetween,2021.2.3,59.963614079834464,
65,0,65,0,,,,,,,,,,,,,,,,,,,,,,,,,,460.67815990000236,None,poetry,65,66,silent,red,458.67597990000286,None,None,458.67597990000286,None,,,,,,,,,,,,,,,,,,,,,,,,,,,,,,,,,,,121 Silent,001,2022_Dec_01_1659,ProdSingRedoBetween,2021.2.3,59.963614079834464,
66,0,66,0,,,,,,,,,,,,,,,,,,,,,,,,,,463.197411000001,None,south,88,67,silent,red,461.18352550000054,None,None,461.18352550000054,None,,,,,,,,,,,,,,,,,,,,,,,,,,,,,,,,,,,121 Silent,001,2022_Dec_01_1659,ProdSingRedoBetween,2021.2.3,59.963614079834464,
67,0,67,0,,,,,,,,,,,,,,,,,,,,,,,,,,465.71649900000193,None,surface,37,68,silent,blue,463.70261830000163,None,None,463.70261830000163,None,,,,,,,,,,,,,,,,,,,,,,,,,,,,,,,,,,,121 Silent,001,2022_Dec_01_1659,ProdSingRedoBetween,2021.2.3,59.963614079834464,
68,0,68,0,,,,,,,,,,,,,,,,,,,,,,,,,,468.21918800000276,None,escape,75,69,silent,red,466.2189556000012,None,None,466.2189556000012,None,,,,,,,,,,,,,,,,,,,,,,,,,,,,,,,,,,,121 Silent,001,2022_Dec_01_1659,ProdSingRedoBetween,2021.2.3,59.963614079834464,
69,0,69,0,,,,,,,,,,,,,,,,,,,,,,,,,,470.73820550000164,None,gesture,55,70,silent,blue,468.72909230000005,None,None,468.72909230000005,None,,,,,,,,,,,,,,,,,,,,,,,,,,,,,,,,,,,121 Silent,001,2022_Dec_01_1659,ProdSingRedoBetween,2021.2.3,59.963614079834464,
70,0,70,0,,,,,,,,,,,,,,,,,,,,,,,,,,473.257443100003,None,search,39,71,silent,blue,471.2470576000014,None,None,471.2470576000014,None,,,,,,,,,,,,,,,,,,,,,,,,,,,,,,,,,,,121 Silent,001,2022_Dec_01_1659,ProdSingRedoBetween,2021.2.3,59.963614079834464,
71,0,71,0,,,,,,,,,,,,,,,,,,,,,,,,,,475.7765567000024,None,column,60,72,silent,red,473.7669209000014,None,None,473.7669209000014,None,,,,,,,,,,,,,,,,,,,,,,,,,,,,,,,,,,,121 Silent,001,2022_Dec_01_1659,ProdSingRedoBetween,2021.2.3,59.963614079834464,
72,0,72,0,,,,,,,,,,,,,,,,,,,,,,,,,,478.2791096000001,None,meeting,17,73,silent,yellow,476.2779922000009,None,None,476.2779922000009,None,,,,,,,,,,,,,,,,,,,,,,,,,,,,,,,,,,,121 Silent,001,2022_Dec_01_1659,ProdSingRedoBetween,2021.2.3,59.963614079834464,
73,0,73,0,,,,,,,,,,,,,,,,,,,,,,,,,,480.7816332000002,None,industry,30,74,silent,blue,478.78223210000215,None,None,478.78223210000215,None,,,,,,,,,,,,,,,,,,,,,,,,,,,,,,,,,,,121 Silent,001,2022_Dec_01_1659,ProdSingRedoBetween,2021.2.3,59.963614079834464,
74,0,74,0,,,,,,,,,,,,,,,,,,,,,,,,,,483.28399620000346,None,benefit,89,75,silent,red,481.28309790000276,None,None,481.28309790000276,None,,,,,,,,,,,,,,,,,,,,,,,,,,,,,,,,,,,121 Silent,001,2022_Dec_01_1659,ProdSingRedoBetween,2021.2.3,59.963614079834464,
75,0,75,0,,,,,,,,,,,,,,,,,,,,,,,,,,485.8033127000017,None,profession,48,76,silent,blue,483.7912650000035,None,None,483.7912650000035,None,,,,,,,,,,,,,,,,,,,,,,,,,,,,,,,,,,,121 Silent,001,2022_Dec_01_1659,ProdSingRedoBetween,2021.2.3,59.963614079834464,
76,0,76,0,,,,,,,,,,,,,,,,,,,,,,,,,,488.3057639000035,None,staff,36,77,silent,blue,486.30512140000064,None,None,486.30512140000064,None,,,,,,,,,,,,,,,,,,,,,,,,,,,,,,,,,,,121 Silent,001,2022_Dec_01_1659,ProdSingRedoBetween,2021.2.3,59.963614079834464,
77,0,77,0,,,,,,,,,,,,,,,,,,,,,,,,,,490.80838380000205,None,relation,19,78,silent,yellow,488.80688740000187,None,None,488.80688740000187,None,,,,,,,,,,,,,,,,,,,,,,,,,,,,,,,,,,,121 Silent,001,2022_Dec_01_1659,ProdSingRedoBetween,2021.2.3,59.963614079834464,
78,0,78,0,,,,,,,,,,,,,,,,,,,,,,,,,,493.32759310000256,None,minute,6,79,silent,yellow,491.31585880000057,None,None,491.31585880000057,None,,,,,,,,,,,,,,,,,,,,,,,,,,,,,,,,,,,121 Silent,001,2022_Dec_01_1659,ProdSingRedoBetween,2021.2.3,59.963614079834464,
79,0,79,0,,,,,,,,,,,,,,,,,,,,,,,,,,495.84669940000094,None,order,9,80,silent,yellow,493.8333803000023,None,None,493.8333803000023,None,,,,,,,,,,,,,,,,,,,,,,,,,,,,,,,,,,,121 Silent,001,2022_Dec_01_1659,ProdSingRedoBetween,2021.2.3,59.963614079834464,
80,0,80,0,,,,,,,,,,,,,,,,,,,,,,,,,,498.3491428000016,None,bright,83,81,silent,red,496.3471973000014,None,None,496.3471973000014,None,,,,,,,,,,,,,,,,,,,,,,,,,,,,,,,,,,,121 Silent,001,2022_Dec_01_1659,ProdSingRedoBetween,2021.2.3,59.963614079834464,
81,0,81,0,,,,,,,,,,,,,,,,,,,,,,,,,,500.8516266000006,None,plane,29,82,silent,blue,498.8507989000027,None,None,498.8507989000027,None,,,,,,,,,,,,,,,,,,,,,,,,,,,,,,,,,,,121 Silent,001,2022_Dec_01_1659,ProdSingRedoBetween,2021.2.3,59.963614079834464,
82,0,82,0,,,,,,,,,,,,,,,,,,,,,,,,,,503.3541682000032,None,blind,45,83,silent,blue,501.3521851000005,None,None,501.3521851000005,None,,,,,,,,,,,,,,,,,,,,,,,,,,,,,,,,,,,121 Silent,001,2022_Dec_01_1659,ProdSingRedoBetween,2021.2.3,59.963614079834464,
83,0,83,0,,,,,,,,,,,,,,,,,,,,,,,,,,505.8567796000025,None,hunger,85,84,silent,red,503.85701680000057,None,None,503.85701680000057,None,,,,,,,,,,,,,,,,,,,,,,,,,,,,,,,,,,,121 Silent,001,2022_Dec_01_1659,ProdSingRedoBetween,2021.2.3,59.963614079834464,
84,0,84,0,,,,,,,,,,,,,,,,,,,,,,,,,,508.3592814000003,None,guest,35,85,silent,blue,506.35713300000134,None,None,506.35713300000134,None,,,,,,,,,,,,,,,,,,,,,,,,,,,,,,,,,,,121 Silent,001,2022_Dec_01_1659,ProdSingRedoBetween,2021.2.3,59.963614079834464,
85,0,85,0,,,,,,,,,,,,,,,,,,,,,,,,,,510.87846440000067,None,thick,51,86,silent,blue,508.8649774000005,None,None,508.8649774000005,None,,,,,,,,,,,,,,,,,,,,,,,,,,,,,,,,,,,121 Silent,001,2022_Dec_01_1659,ProdSingRedoBetween,2021.2.3,59.963614079834464,
86,0,86,0,,,,,,,,,,,,,,,,,,,,,,,,,,513.3808263000028,None,figure,58,87,silent,blue,511.38074880000204,None,None,511.38074880000204,None,,,,,,,,,,,,,,,,,,,,,,,,,,,,,,,,,,,121 Silent,001,2022_Dec_01_1659,ProdSingRedoBetween,2021.2.3,59.963614079834464,
87,0,87,0,,,,,,,,,,,,,,,,,,,,,,,,,,515.9000215000015,None,master,67,88,silent,red,513.8867189000011,None,None,513.8867189000011,None,,,,,,,,,,,,,,,,,,,,,,,,,,,,,,,,,,,121 Silent,001,2022_Dec_01_1659,ProdSingRedoBetween,2021.2.3,59.963614079834464,
88,0,88,0,,,,,,,,,,,,,,,,,,,,,,,,,,518.4192561000018,None,watch,16,89,silent,yellow,516.4035664000003,None,None,516.4035664000003,None,,,,,,,,,,,,,,,,,,,,,,,,,,,,,,,,,,,121 Silent,001,2022_Dec_01_1659,ProdSingRedoBetween,2021.2.3,59.963614079834464,
89,0,89,0,,,,,,,,,,,,,,,,,,,,,,,,,,520.9216768000006,None,range,8,90,silent,yellow,518.9194193000003,None,None,518.9194193000003,None,,,,,,,,,,,,,,,,,,,,,,,,,,,,,,,,,,,121 Silent,001,2022_Dec_01_1659,ProdSingRedoBetween,2021.2.3,59.963614079834464,
,,,,,,,,,,,,,,,,,,,,,,,,,,,,,,,,,,,,,,,,,521.4224044000002,None,k,174.98643810000067,521.4224044000002,None,,,,,,,,,,,,,,,,,,,,,,,,,,,,,121 Silent,001,2022_Dec_01_1659,ProdSingRedoBetween,2021.2.3,59.963614079834464,
,,,,0,0,0,0,,,,,,,,,,,,,,,,,,,,,,709.3933823000007,None,,,,,,,,,,,,,,,,,interview,80,1,silent,old,red,696.9531226000036,None,696.9531226000036,None,1,7.9595994999981485,696.9531226000036,None,7.9595994999981485,704.9513933000017,None,705.4620185000022,None,705.4620185000022,None,n,3.914620700001251,705.4620185000022,None,3.914620700001251,,,121 Silent,001,2022_Dec_01_1659,ProdSingRedoBetween,2021.2.3,59.963614079834464,
,,,,1,0,1,0,,,,,,,,,,,,,,,,,,,,,,717.3680528000004,None,,,,,,,,,,,,,,,,,running,163,2,silent,new,null,709.8967202000022,None,709.8967202000022,None,1,3.3198766999994405,709.8967202000022,None,3.3198766999994405,713.249563100002,None,713.7645844000035,None,713.7645844000035,None,n,3.5880856000003405,713.7645844000035,None,3.5880856000003405,,,121 Silent,001,2022_Dec_01_1659,ProdSingRedoBetween,2021.2.3,59.963614079834464,
,,,,2,0,2,0,,,,,,,,,,,,,,,,,,,,,,723.5271135000003,None,,,,,,,,,,,,,,,,,individual,149,3,silent,new,null,717.8774349000014,None,717.8774349000014,None,4,3.3551955000002636,717.8774349000014,None,3.3551955000002636,721.2592153000005,None,721.7809718000026,None,721.7809718000026,None,r,1.7236718000021938,721.7809718000026,None,1.7236718000021938,,,121 Silent,001,2022_Dec_01_1659,ProdSingRedoBetween,2021.2.3,59.963614079834464,
,,,,3,0,3,0,,,,,,,,,,,,,,,,,,,,,,731.7324143000005,None,,,,,,,,,,,,,,,,,youth,109,4,silent,new,null,724.0454680000003,None,724.0454680000003,None,2,4.76313559999835,724.0454680000003,None,4.76313559999835,728.8319373000013,None,729.3508764000035,None,729.3508764000035,None,f,2.3617174999999406,729.3508764000035,None,2.3617174999999406,,,121 Silent,001,2022_Dec_01_1659,ProdSingRedoBetween,2021.2.3,59.963614079834464,
,,,,4,0,4,0,,,,,,,,,,,,,,,,,,,,,,748.1179205000008,None,,,,,,,,,,,,,,,,,interior,41,5,silent,old,blue,732.2416486000002,None,732.2416486000002,None,4,6.559023500001786,732.2416486000002,None,6.559023500001786,738.8291537000005,None,739.3474007000004,None,739.3474007000004,None,r,8.749458800000866,739.3474007000004,None,8.749458800000866,,,121 Silent,001,2022_Dec_01_1659,ProdSingRedoBetween,2021.2.3,59.963614079834464,
,,,,5,0,5,0,,,,,,,,,,,,,,,,,,,,,,759.9139670000004,None,,,,,,,,,,,,,,,,,profession,48,6,silent,old,blue,748.644141300003,None,748.644141300003,None,1,9.044473100002506,748.644141300003,None,9.044473100002506,757.7131655000012,None,758.2352824000009,None,758.2352824000009,None,f,1.645475900000747,758.2352824000009,None,1.645475900000747,,,121 Silent,001,2022_Dec_01_1659,ProdSingRedoBetween,2021.2.3,59.963614079834464,
,,,,6,0,6,0,,,,,,,,,,,,,,,,,,,,,,772.3418874000017,None,,,,,,,,,,,,,,,,,angle,114,7,silent,new,null,760.4358697000025,None,760.4358697000025,None,3,7.452836599997681,760.4358697000025,None,7.452836599997681,767.9240291000024,None,768.4357785000029,None,768.4357785000029,None,f,3.8850234000019555,768.4357785000029,None,3.8850234000019555,,,121 Silent,001,2022_Dec_01_1659,ProdSingRedoBetween,2021.2.3,59.963614079834464,
,,,,7,0,7,0,,,,,,,,,,,,,,,,,,,,,,781.6990372,None,,,,,,,,,,,,,,,,,stand,178,8,silent,new,null,772.8650764000013,None,772.8650764000013,None,4,4.887499700002081,772.8650764000013,None,4.887499700002081,777.7816028000016,None,778.2956869000009,None,778.2956869000009,None,f,3.3850027000007685,778.2956869000009,None,3.3850027000007685,,,121 Silent,001,2022_Dec_01_1659,ProdSingRedoBetween,2021.2.3,59.963614079834464,
,,,,8,0,8,0,,,,,,,,,,,,,,,,,,,,,,787.4727501000016,None,,,,,,,,,,,,,,,,,write,176,9,silent,new,null,782.2095864000003,None,782.2095864000003,None,5,3.255040399999416,782.2095864000003,None,3.255040399999416,785.4877070000002,None,785.9915557000022,None,785.9915557000022,None,f,1.4491345999995247,785.9915557000022,None,1.4491345999995247,,,121 Silent,001,2022_Dec_01_1659,ProdSingRedoBetween,2021.2.3,59.963614079834464,
,,,,9,0,9,0,,,,,,,,,,,,,,,,,,,,,,795.1169768000036,None,,,,,,,,,,,,,,,,,direction,97,10,silent,new,null,787.9784921000028,None,787.9784921000028,None,4,3.1421506000006048,787.9784921000028,None,3.1421506000006048,791.144430100001,None,791.6629710000016,None,791.6629710000016,None,f,3.4176637999989907,791.6629710000016,None,3.4176637999989907,,,121 Silent,001,2022_Dec_01_1659,ProdSingRedoBetween,2021.2.3,59.963614079834464,
,,,,10,0,10,0,,,,,,,,,,,,,,,,,,,,,,802.6532979000003,None,,,,,,,,,,,,,,,,,industry,30,11,silent,old,blue,795.6382521000014,None,795.6382521000014,None,4,4.74667639999825,795.6382521000014,None,4.74667639999825,800.4140324000036,None,800.9244655000002,None,800.9244655000002,None,r,1.7001782000006642,800.9244655000002,None,1.7001782000006642,,,121 Silent,001,2022_Dec_01_1659,ProdSingRedoBetween,2021.2.3,59.963614079834464,
,,,,11,0,11,0,,,,,,,,,,,,,,,,,,,,,,807.9772047000006,None,,,,,,,,,,,,,,,,,break,158,12,silent,new,null,803.163432100002,None,803.163432100002,None,2,2.1251803999984986,803.163432100002,None,2.1251803999984986,805.3094907000013,None,805.825255900003,None,805.825255900003,None,n,2.127442400000291,805.825255900003,None,2.127442400000291,,,121 Silent,001,2022_Dec_01_1659,ProdSingRedoBetween,2021.2.3,59.963614079834464,
,,,,12,0,12,0,,,,,,,,,,,,,,,,,,,,,,811.8139650000012,None,,,,,,,,,,,,,,,,,master,67,13,silent,old,red,808.5006427000008,None,808.5006427000008,None,1,1.7000665000014124,808.5006427000008,None,1.7000665000014124,810.2332970000025,None,810.7490763000023,None,810.7490763000023,None,n,1.0436703999985184,810.7490763000023,None,1.0436703999985184,,,121 Silent,001,2022_Dec_01_1659,ProdSingRedoBetween,2021.2.3,59.963614079834464,
,,,,13,0,13,0,,,,,,,,,,,,,,,,,,,,,,818.3533155000005,None,,,,,,,,,,,,,,,,,short,57,14,silent,old,blue,812.3303458000009,None,812.3303458000009,None,3,3.9103065000017523,812.3303458000009,None,3.9103065000017523,816.2727208000033,None,816.7841257,None,816.7841257,None,f,1.5445283999979438,816.7841257,None,1.5445283999979438,,,121 Silent,001,2022_Dec_01_1659,ProdSingRedoBetween,2021.2.3,59.963614079834464,
,,,,14,0,14,0,,,,,,,,,,,,,,,,,,,,,,823.0234095000014,None,,,,,,,,,,,,,,,,,graduate,1,15,silent,old,yellow,818.8554470000017,None,818.8554470000017,None,2,1.857388299999002,818.8554470000017,None,1.857388299999002,820.7487642000015,None,821.258708100002,None,821.258708100002,None,r,1.7419816000001447,821.258708100002,None,1.7419816000001447,,,121 Silent,001,2022_Dec_01_1659,ProdSingRedoBetween,2021.2.3,59.963614079834464,
,,,,15,0,15,0,,,,,,,,,,,,,,,,,,,,,,827.9972381000007,None,,,,,,,,,,,,,,,,,property,177,16,silent,new,null,823.5437902000012,None,823.5437902000012,None,5,3.2009992000021157,823.5437902000012,None,3.2009992000021157,826.7690968000024,None,827.2858236000029,None,827.2858236000029,None,f,0.6909306000015931,827.2858236000029,None,0.6909306000015931,,,121 Silent,001,2022_Dec_01_1659,ProdSingRedoBetween,2021.2.3,59.963614079834464,
,,,,16,0,16,0,,,,,,,,,,,,,,,,,,,,,,832.905266400001,None,,,,,,,,,,,,,,,,,society,93,17,silent,new,null,828.5237281000009,None,828.5237281000009,None,4,2.3891815000024508,828.5237281000009,None,2.3891815000024508,830.9387840000018,None,831.4500655000011,None,831.4500655000011,None,f,1.4227936999996018,831.4500655000011,None,1.4227936999996018,,,121 Silent,001,2022_Dec_01_1659,ProdSingRedoBetween,2021.2.3,59.963614079834464,
,,,,17,0,17,0,,,,,,,,,,,,,,,,,,,,,,838.1230656000007,None,,,,,,,,,,,,,,,,,nature,134,18,silent,new,null,833.4243483000027,None,833.4243483000027,None,4,2.9926770999991277,833.4243483000027,None,2.9926770999991277,836.4493144000007,None,836.9633345000002,None,836.9633345000002,None,f,1.13343569999779,836.9633345000002,None,1.13343569999779,,,121 Silent,001,2022_Dec_01_1659,ProdSingRedoBetween,2021.2.3,59.963614079834464,
,,,,18,0,18,0,,,,,,,,,,,,,,,,,,,,,,843.6499340000009,None,,,,,,,,,,,,,,,,,watch,16,19,silent,old,yellow,838.6334736000026,None,838.6334736000026,None,4,2.7191849000009825,838.6334736000026,None,2.7191849000009825,841.3786088000015,None,841.8975772000013,None,841.8975772000013,None,f,1.719272699996509,841.8975772000013,None,1.719272699996509,,,121 Silent,001,2022_Dec_01_1659,ProdSingRedoBetween,2021.2.3,59.963614079834464,
,,,,19,0,19,0,,,,,,,,,,,,,,,,,,,,,,848.2154468000008,None,,,,,,,,,,,,,,,,,object,82,20,silent,old,red,844.1723908000022,None,844.1723908000022,None,6,2.3963656000014453,844.1723908000022,None,2.3963656000014453,846.6025286000004,None,847.1152226000013,None,847.1152226000013,None,r,1.0854437999987567,847.1152226000013,None,1.0854437999987567,,,121 Silent,001,2022_Dec_01_1659,ProdSingRedoBetween,2021.2.3,59.963614079834464,
,,,,20,0,20,0,,,,,,,,,,,,,,,,,,,,,,855.4726392000011,None,,,,,,,,,,,,,,,,,thick,51,21,silent,old,blue,848.7253469000025,None,848.7253469000025,None,1,1.7392643999992288,848.7253469000025,None,1.7392643999992288,850.4860909000017,None,850.9928369000008,None,850.9928369000008,None,n,4.455782400000317,850.9928369000008,None,4.455782400000317,,,121 Silent,001,2022_Dec_01_1659,ProdSingRedoBetween,2021.2.3,59.963614079834464,
,,,,21,0,21,0,,,,,,,,,,,,,,,,,,,,,,859.8771052000011,None,,,,,,,,,,,,,,,,,community,76,22,silent,old,red,855.9832368000025,None,855.9832368000025,None,5,2.281441899998754,855.9832368000025,None,2.281441899998754,858.2957621000023,None,858.8137511000023,None,858.8137511000023,None,f,1.0349219999989145,858.8137511000023,None,1.0349219999989145,,,121 Silent,001,2022_Dec_01_1659,ProdSingRedoBetween,2021.2.3,59.963614079834464,
,,,,22,0,22,0,,,,,,,,,,,,,,,,,,,,,,864.2668981000024,None,,,,,,,,,,,,,,,,,device,120,23,silent,new,null,860.3883121000035,None,860.3883121000035,None,2,1.9802965000017139,860.3883121000035,None,1.9802965000017139,862.3991097000035,None,862.9193983000005,None,862.9193983000005,None,n,1.321411299999454,862.9193983000005,None,1.321411299999454,,,121 Silent,001,2022_Dec_01_1659,ProdSingRedoBetween,2021.2.3,59.963614079834464,
,,,,23,0,23,0,,,,,,,,,,,,,,,,,,,,,,871.3218093000032,None,,,,,,,,,,,,,,,,,poetry,65,24,silent,old,red,864.7851507000014,None,864.7851507000014,None,4,3.7595403000013903,864.7851507000014,None,3.7595403000013903,868.5740678000002,None,869.0971156000014,None,869.0971156000014,None,f,2.199545199997374,869.0971156000014,None,2.199545199997374,,,121 Silent,001,2022_Dec_01_1659,ProdSingRedoBetween,2021.2.3,59.963614079834464,
,,,,24,0,24,0,,,,,,,,,,,,,,,,,,,,,,876.3444159000028,None,,,,,,,,,,,,,,,,,order,9,25,silent,old,yellow,871.8337124000027,None,871.8337124000027,None,5,1.8791008999978658,871.8337124000027,None,1.8791008999978658,873.7463172000025,None,874.2583193000028,None,874.2583193000028,None,f,2.0623865999987174,874.2583193000028,None,2.0623865999987174,,,121 Silent,001,2022_Dec_01_1659,ProdSingRedoBetween,2021.2.3,59.963614079834464,
,,,,25,0,25,0,,,,,,,,,,,,,,,,,,,,,,879.8670660000025,None,,,,,,,,,,,,,,,,,bicycle,14,26,silent,old,yellow,876.867262900003,None,876.867262900003,None,1,1.5734145999995235,876.867262900003,None,1.5734145999995235,878.4656071000027,None,878.9857556000024,None,878.9857556000024,None,n,0.8629867999989074,878.9857556000024,None,0.8629867999989074,,,121 Silent,001,2022_Dec_01_1659,ProdSingRedoBetween,2021.2.3,59.963614079834464,
,,,,26,0,26,0,,,,,,,,,,,,,,,,,,,,,,884.0345614000034,None,,,,,,,,,,,,,,,,,plane,29,27,silent,old,blue,880.3996355000018,None,880.3996355000018,None,2,1.6492293999981484,880.3996355000018,None,1.6492293999981484,882.0786018000035,None,882.5875620000006,None,882.5875620000006,None,f,1.4291850000008708,882.5875620000006,None,1.4291850000008708,,,121 Silent,001,2022_Dec_01_1659,ProdSingRedoBetween,2021.2.3,59.963614079834464,
,,,,27,0,27,0,,,,,,,,,,,,,,,,,,,,,,889.5735094000011,None,,,,,,,,,,,,,,,,,ground,164,28,silent,new,null,884.5463996000035,None,884.5463996000035,None,3,3.4944926999996824,884.5463996000035,None,3.4944926999996824,888.0765116000002,None,888.5940610000034,None,888.5940610000034,None,f,0.9585973000030208,888.5940610000034,None,0.9585973000030208,,,121 Silent,001,2022_Dec_01_1659,ProdSingRedoBetween,2021.2.3,59.963614079834464,
,,,,28,0,28,0,,,,,,,,,,,,,,,,,,,,,,892.6931437000021,None,,,,,,,,,,,,,,,,,under,84,29,silent,old,red,890.0814681000011,None,890.0814681000011,None,3,1.7671614000028057,890.0814681000011,None,1.7671614000028057,891.8765017000005,None,892.3797156,None,892.3797156,None,f,0.29298779999953695,892.3797156,None,0.29298779999953695,,,121 Silent,001,2022_Dec_01_1659,ProdSingRedoBetween,2021.2.3,59.963614079834464,
,,,,29,0,29,0,,,,,,,,,,,,,,,,,,,,,,897.3979031000017,None,,,,,,,,,,,,,,,,,committee,147,30,silent,new,null,893.2058751000004,None,893.2058751000004,None,2,3.2667705999992904,893.2058751000004,None,3.2667705999992904,896.497197800003,None,897.0031250000029,None,897.0031250000029,None,f,0.37350700000024517,897.0031250000029,None,0.37350700000024517,,,121 Silent,001,2022_Dec_01_1659,ProdSingRedoBetween,2021.2.3,59.963614079834464,
,,,,30,0,30,0,,,,,,,,,,,,,,,,,,,,,,902.5572874000027,None,,,,,,,,,,,,,,,,,court,119,31,silent,new,null,897.9081620000034,None,897.9081620000034,None,4,1.7244406999998318,897.9081620000034,None,1.7244406999998318,899.6548614000021,None,900.1696702000008,None,900.1696702000008,None,f,2.3590904000011506,900.1696702000008,None,2.3590904000011506,,,121 Silent,001,2022_Dec_01_1659,ProdSingRedoBetween,2021.2.3,59.963614079834464,
,,,,31,0,31,0,,,,,,,,,,,,,,,,,,,,,,908.5090128000011,None,,,,,,,,,,,,,,,,,problem,157,32,silent,new,null,903.0793198000028,None,903.0793198000028,None,6,1.9614201999975194,903.0793198000028,None,1.9614201999975194,905.0587895000026,None,905.5744760000016,None,905.5744760000016,None,r,2.9062340000018594,905.5744760000016,None,2.9062340000018594,,,121 Silent,001,2022_Dec_01_1659,ProdSingRedoBetween,2021.2.3,59.963614079834464,
,,,,32,0,32,0,,,,,,,,,,,,,,,,,,,,,,912.6464766000026,None,,,,,,,,,,,,,,,,,fashion,143,33,silent,new,null,909.0231800000001,None,909.0231800000001,None,1,1.4016353000006347,909.0231800000001,None,1.4016353000006347,910.4559429000001,None,910.9653697000031,None,910.9653697000031,None,n,1.6593007000010402,910.9653697000031,None,1.6593007000010402,,,121 Silent,001,2022_Dec_01_1659,ProdSingRedoBetween,2021.2.3,59.963614079834464,
,,,,33,0,33,0,,,,,,,,,,,,,,,,,,,,,,920.3889676000035,None,,,,,,,,,,,,,,,,,notice,129,34,silent,new,null,913.1566696000009,None,913.1566696000009,None,3,4.988009200002125,913.1566696000009,None,4.988009200002125,918.170818300001,None,918.6900051000011,None,918.6900051000011,None,f,1.670682100000704,918.6900051000011,None,1.670682100000704,,,121 Silent,001,2022_Dec_01_1659,ProdSingRedoBetween,2021.2.3,59.963614079834464,
,,,,34,0,34,0,,,,,,,,,,,,,,,,,,,,,,927.6800404000023,None,,,,,,,,,,,,,,,,,solution,115,35,silent,new,null,920.9043998000016,None,920.9043998000016,None,3,4.928263900001184,920.9043998000016,None,4.928263900001184,925.8606663000028,None,926.3641755000026,None,926.3641755000026,None,f,1.2925558000024466,926.3641755000026,None,1.2925558000024466,,,121 Silent,001,2022_Dec_01_1659,ProdSingRedoBetween,2021.2.3,59.963614079834464,
,,,,35,0,35,0,,,,,,,,,,,,,,,,,,,,,,931.1159121000019,None,,,,,,,,,,,,,,,,,meeting,17,36,silent,old,yellow,928.2051613000003,None,928.2051613000003,None,4,1.5955692999996245,928.2051613000003,None,1.5955692999996245,929.8319786000029,None,930.3415079000006,None,930.3415079000006,None,f,0.7472246999968775,930.3415079000006,None,0.7472246999968775,,,121 Silent,001,2022_Dec_01_1659,ProdSingRedoBetween,2021.2.3,59.963614079834464,
,,,,36,0,36,0,,,,,,,,,,,,,,,,,,,,,,935.8864180000019,None,,,,,,,,,,,,,,,,,estate,44,37,silent,old,blue,931.6212143000012,None,931.6212143000012,None,3,3.059782799999084,931.6212143000012,None,3.059782799999084,934.7062432000021,None,935.2223615000003,None,935.2223615000003,None,f,0.6342926999968768,935.2223615000003,None,0.6342926999968768,,,121 Silent,001,2022_Dec_01_1659,ProdSingRedoBetween,2021.2.3,59.963614079834464,
,,,,37,0,37,0,,,,,,,,,,,,,,,,,,,,,,939.3402663000015,None,,,,,,,,,,,,,,,,,heavy,136,38,silent,new,null,936.4102719000002,None,936.4102719000002,None,2,2.086539100000664,936.4102719000002,None,2.086539100000664,938.5301469000005,None,939.0440973000004,None,939.0440973000004,None,f,0.2685944999975618,939.0440973000004,None,0.2685944999975618,,,121 Silent,001,2022_Dec_01_1659,ProdSingRedoBetween,2021.2.3,59.963614079834464,
,,,,38,0,38,0,,,,,,,,,,,,,,,,,,,,,,942.4429307000028,None,,,,,,,,,,,,,,,,,audience,24,39,silent,old,yellow,939.8550374000006,None,939.8550374000006,None,5,1.7217601999982435,939.8550374000006,None,1.7217601999982435,941.610053700002,None,942.1094008,None,942.1094008,None,f,0.30721940000148606,942.1094008,None,0.30721940000148606,,,121 Silent,001,2022_Dec_01_1659,ProdSingRedoBetween,2021.2.3,59.963614079834464,
,,,,39,0,39,0,,,,,,,,,,,,,,,,,,,,,,949.8837590000003,None,,,,,,,,,,,,,,,,,comfort,91,40,silent,new,null,942.9537308000035,None,942.9537308000035,None,1,3.711135000001377,942.9537308000035,None,3.711135000001377,946.6938597000008,None,947.2020659000009,None,947.2020659000009,None,n,2.6627388000015344,947.2020659000009,None,2.6627388000015344,,,121 Silent,001,2022_Dec_01_1659,ProdSingRedoBetween,2021.2.3,59.963614079834464,
,,,,40,0,40,0,,,,,,,,,,,,,,,,,,,,,,953.2410845000013,None,,,,,,,,,,,,,,,,,primary,168,41,silent,new,null,950.4039334000008,None,950.4039334000008,None,1,1.8687520999992557,950.4039334000008,None,1.8687520999992557,952.3056606000027,None,952.8243962000015,None,952.8243962000015,None,n,0.39244680000047083,952.8243962000015,None,0.39244680000047083,,,121 Silent,001,2022_Dec_01_1659,ProdSingRedoBetween,2021.2.3,59.963614079834464,
,,,,41,0,41,0,,,,,,,,,,,,,,,,,,,,,,959.1610656000012,None,,,,,,,,,,,,,,,,,mechanical,107,42,silent,new,null,953.7616278000023,None,953.7616278000023,None,4,2.943114699999569,953.7616278000023,None,2.943114699999569,956.7261560000006,None,957.2505893000016,None,957.2505893000016,None,f,1.8861888000028557,957.2505893000016,None,1.8861888000028557,,,121 Silent,001,2022_Dec_01_1659,ProdSingRedoBetween,2021.2.3,59.963614079834464,
,,,,42,0,42,0,,,,,,,,,,,,,,,,,,,,,,965.3155675000016,None,,,,,,,,,,,,,,,,,finish,77,43,silent,old,red,959.665336500002,None,959.665336500002,None,4,4.759458299999096,959.665336500002,None,4.759458299999096,964.4616002000002,None,964.9724356000006,None,964.9724356000006,None,f,0.3243406000001414,964.9724356000006,None,0.3243406000001414,,,121 Silent,001,2022_Dec_01_1659,ProdSingRedoBetween,2021.2.3,59.963614079834464,
,,,,43,0,43,0,,,,,,,,,,,,,,,,,,,,,,969.2697816000036,None,,,,,,,,,,,,,,,,,scene,73,44,silent,old,red,965.8342591,None,965.8342591,None,4,2.5903992999992624,965.8342591,None,2.5903992999992624,968.4535514000017,None,968.9600326000036,None,968.9600326000036,None,f,0.2807021000007808,968.9600326000036,None,0.2807021000007808,,,121 Silent,001,2022_Dec_01_1659,ProdSingRedoBetween,2021.2.3,59.963614079834464,
,,,,44,0,44,0,,,,,,,,,,,,,,,,,,,,,,972.9566011000024,None,,,,,,,,,,,,,,,,,minor,23,45,silent,old,yellow,969.7812224000008,None,969.7812224000008,None,1,1.6596905999977025,969.7812224000008,None,1.6596905999977025,971.4804300000033,None,971.9890428000035,None,971.9890428000035,None,n,0.9476942000001145,971.9890428000035,None,0.9476942000001145,,,121 Silent,001,2022_Dec_01_1659,ProdSingRedoBetween,2021.2.3,59.963614079834464,
,,,,45,0,45,0,,,,,,,,,,,,,,,,,,,,,,977.6114812000014,None,,,,,,,,,,,,,,,,,express,38,46,silent,old,blue,973.4669766000006,None,973.4669766000006,None,3,2.493712899999082,973.4669766000006,None,2.493712899999082,975.978172500003,None,976.4945278000014,None,976.4945278000014,None,n,1.0902048999996623,976.4945278000014,None,1.0902048999996623,,,121 Silent,001,2022_Dec_01_1659,ProdSingRedoBetween,2021.2.3,59.963614079834464,
,,,,46,0,46,0,,,,,,,,,,,,,,,,,,,,,,981.6822008000017,None,,,,,,,,,,,,,,,,,build,96,47,silent,new,null,978.1197928000001,None,978.1197928000001,None,5,1.7930596000005607,978.1197928000001,None,1.7930596000005607,979.9361944000011,None,980.4500302000015,None,980.4500302000015,None,f,1.2146401999998488,980.4500302000015,None,1.2146401999998488,,,121 Silent,001,2022_Dec_01_1659,ProdSingRedoBetween,2021.2.3,59.963614079834464,
,,,,47,0,47,0,,,,,,,,,,,,,,,,,,,,,,985.8709820000004,None,,,,,,,,,,,,,,,,,quick,42,48,silent,old,blue,982.1923272000022,None,982.1923272000022,None,6,2.3603848999991897,982.1923272000022,None,2.3603848999991897,984.5716190000021,None,985.0856781000002,None,985.0856781000002,None,r,0.7551383999998507,985.0856781000002,None,0.7551383999998507,,,121 Silent,001,2022_Dec_01_1659,ProdSingRedoBetween,2021.2.3,59.963614079834464,
,,,,48,0,48,0,,,,,,,,,,,,,,,,,,,,,,990.7411992000016,None,,,,,,,,,,,,,,,,,whole,87,49,silent,old,red,986.384713200001,None,986.384713200001,None,4,2.27196190000177,986.384713200001,None,2.27196190000177,988.6787914000015,None,989.1928959000034,None,989.1928959000034,None,f,1.5278073999979824,989.1928959000034,None,1.5278073999979824,,,121 Silent,001,2022_Dec_01_1659,ProdSingRedoBetween,2021.2.3,59.963614079834464,
,,,,49,0,49,0,,,,,,,,,,,,,,,,,,,,,,994.3282291000032,None,,,,,,,,,,,,,,,,,route,52,50,silent,old,blue,991.2498580000029,None,991.2498580000029,None,4,2.0469054999994114,991.2498580000029,None,2.0469054999994114,993.3337677000018,None,993.8468122000013,None,993.8468122000013,None,f,0.4500771999992139,993.8468122000013,None,0.4500771999992139,,,121 Silent,001,2022_Dec_01_1659,ProdSingRedoBetween,2021.2.3,59.963614079834464,
,,,,50,0,50,0,,,,,,,,,,,,,,,,,,,,,,997.6314419000009,None,,,,,,,,,,,,,,,,,goose,167,51,silent,new,null,994.8321445000001,None,994.8321445000001,None,2,1.296674000001076,994.8321445000001,None,1.296674000001076,996.1516346000026,None,996.6754512000007,None,996.6754512000007,None,n,0.9333215000006021,996.6754512000007,None,0.9333215000006021,,,121 Silent,001,2022_Dec_01_1659,ProdSingRedoBetween,2021.2.3,59.963614079834464,
,,,,51,0,51,0,,,,,,,,,,,,,,,,,,,,,,1005.9740213000005,None,,,,,,,,,,,,,,,,,vision,22,52,silent,old,yellow,998.1372477000004,None,998.1372477000004,None,5,6.367412700001296,998.1372477000004,None,6.367412700001296,1004.5240651000022,None,1005.047311600003,None,1005.047311600003,None,f,0.8977498999993259,1005.047311600003,None,0.8977498999993259,,,121 Silent,001,2022_Dec_01_1659,ProdSingRedoBetween,2021.2.3,59.963614079834464,
,,,,52,0,52,0,,,,,,,,,,,,,,,,,,,,,,1010.1458280000006,None,,,,,,,,,,,,,,,,,brief,152,53,silent,new,null,1006.4917572000013,None,1006.4917572000013,None,3,2.652917700001126,1006.4917572000013,None,2.652917700001126,1009.1630269000016,None,1009.6820809000019,None,1009.6820809000019,None,f,0.43070629999783705,1009.6820809000019,None,0.43070629999783705,,,121 Silent,001,2022_Dec_01_1659,ProdSingRedoBetween,2021.2.3,59.963614079834464,
,,,,53,0,53,0,,,,,,,,,,,,,,,,,,,,,,1022.0559163000034,None,,,,,,,,,,,,,,,,,center,139,54,silent,new,null,1010.6674359000026,None,1010.6674359000026,None,2,9.677181000002747,1010.6674359000026,None,9.677181000002747,1020.3726073000034,None,1020.889502500002,None,1020.889502500002,None,f,1.1432896000005712,1020.889502500002,None,1.1432896000005712,,,121 Silent,001,2022_Dec_01_1659,ProdSingRedoBetween,2021.2.3,59.963614079834464,
,,,,54,0,54,0,,,,,,,,,,,,,,,,,,,,,,1025.8596770000004,None,,,,,,,,,,,,,,,,,block,81,55,silent,old,red,1022.5751863000005,None,1022.5751863000005,None,6,2.20953659999941,1022.5751863000005,None,2.20953659999941,1024.810052300003,None,1025.3153930000008,None,1025.3153930000008,None,r,0.5172581000006176,1025.3153930000008,None,0.5172581000006176,,,121 Silent,001,2022_Dec_01_1659,ProdSingRedoBetween,2021.2.3,59.963614079834464,
,,,,55,0,55,0,,,,,,,,,,,,,,,,,,,,,,1029.5851275000023,None,,,,,,,,,,,,,,,,,military,5,56,silent,old,yellow,1026.3747324000033,None,1026.3747324000033,None,2,1.6660330000013346,1026.3747324000033,None,1.6660330000013346,1028.0671035000014,None,1028.5864532000014,None,1028.5864532000014,None,f,0.9744032999988121,1028.5864532000014,None,0.9744032999988121,,,121 Silent,001,2022_Dec_01_1659,ProdSingRedoBetween,2021.2.3,59.963614079834464,
,,,,56,0,56,0,,,,,,,,,,,,,,,,,,,,,,1035.071968700002,None,,,,,,,,,,,,,,,,,department,151,57,silent,new,null,1030.1090283000012,None,1030.1090283000012,None,4,4.035704499998246,1030.1090283000012,None,4.035704499998246,1034.1693613000025,None,1034.671009900001,None,1034.671009900001,None,f,0.37787350000144215,1034.671009900001,None,0.37787350000144215,,,121 Silent,001,2022_Dec_01_1659,ProdSingRedoBetween,2021.2.3,59.963614079834464,
,,,,57,0,57,0,,,,,,,,,,,,,,,,,,,,,,1038.2387082000023,None,,,,,,,,,,,,,,,,,detective,104,58,silent,new,null,1035.5931350000028,None,1035.5931350000028,None,1,1.2319516999996267,1035.5931350000028,None,1.2319516999996267,1036.8628123000017,None,1037.3710933000002,None,1037.3710933000002,None,n,0.845643900000141,1037.3710933000002,None,0.845643900000141,,,121 Silent,001,2022_Dec_01_1659,ProdSingRedoBetween,2021.2.3,59.963614079834464,
,,,,58,0,58,0,,,,,,,,,,,,,,,,,,,,,,1042.061379400002,None,,,,,,,,,,,,,,,,,south,88,59,silent,old,red,1038.7493240000003,None,1038.7493240000003,None,1,2.1394551000012143,1038.7493240000003,None,2.1394551000012143,1040.9129302000001,None,1041.4253125000032,None,1041.4253125000032,None,n,0.6153708000019833,1041.4253125000032,None,0.6153708000019833,,,121 Silent,001,2022_Dec_01_1659,ProdSingRedoBetween,2021.2.3,59.963614079834464,
,,,,59,0,59,0,,,,,,,,,,,,,,,,,,,,,,1047.481218500001,None,,,,,,,,,,,,,,,,,mayor,25,60,silent,old,yellow,1042.5895372000014,None,1042.5895372000014,None,2,3.3715144999987388,1042.5895372000014,None,3.3715144999987388,1045.9836093000013,None,1046.4974339,None,1046.4974339,None,f,0.9593679000026896,1046.4974339,None,0.9593679000026896,,,121 Silent,001,2022_Dec_01_1659,ProdSingRedoBetween,2021.2.3,59.963614079834464,
,,,,60,0,60,0,,,,,,,,,,,,,,,,,,,,,,1050.4902585000018,None,,,,,,,,,,,,,,,,,raise,113,61,silent,new,null,1047.985488000002,None,1047.985488000002,None,1,1.335400899999513,1047.985488000002,None,1.335400899999513,1049.3543831000025,None,1049.8678369000008,None,1049.8678369000008,None,n,0.5971073000000615,1049.8678369000008,None,0.5971073000000615,,,121 Silent,001,2022_Dec_01_1659,ProdSingRedoBetween,2021.2.3,59.963614079834464,
,,,,61,0,61,0,,,,,,,,,,,,,,,,,,,,,,1056.5235888000025,None,,,,,,,,,,,,,,,,,dance,102,62,silent,new,null,1051.009532400003,None,1051.009532400003,None,3,2.8872169999995094,1051.009532400003,None,2.8872169999995094,1053.9222818000017,None,1054.4260295000022,None,1054.4260295000022,None,f,2.070721500000218,1054.4260295000022,None,2.070721500000218,,,121 Silent,001,2022_Dec_01_1659,ProdSingRedoBetween,2021.2.3,59.963614079834464,
,,,,62,0,62,0,,,,,,,,,,,,,,,,,,,,,,1060.9613467000017,None,,,,,,,,,,,,,,,,,accident,110,63,silent,new,null,1057.0396087000008,None,1057.0396087000008,None,2,1.5211775999996462,1057.0396087000008,None,1.5211775999996462,1058.5951961000028,None,1059.1096650000036,None,1059.1096650000036,None,f,1.8351235000009183,1059.1096650000036,None,1.8351235000009183,,,121 Silent,001,2022_Dec_01_1659,ProdSingRedoBetween,2021.2.3,59.963614079834464,
,,,,63,0,63,0,,,,,,,,,,,,,,,,,,,,,,1065.9060234000026,None,,,,,,,,,,,,,,,,,music,130,64,silent,new,null,1061.4755197000013,None,1061.4755197000013,None,4,2.621408800001518,1061.4755197000013,None,2.621408800001518,1064.1264342000031,None,1064.6382943000026,None,1064.6382943000026,None,f,1.2346263999970688,1064.6382943000026,None,1.2346263999970688,,,121 Silent,001,2022_Dec_01_1659,ProdSingRedoBetween,2021.2.3,59.963614079834464,
,,,,64,0,64,0,,,,,,,,,,,,,,,,,,,,,,1081.565326400003,None,,,,,,,,,,,,,,,,,blind,45,65,silent,old,blue,1066.4239093000033,None,1066.4239093000033,None,3,13.432951000002504,1066.4239093000033,None,13.432951000002504,1079.8899697000015,None,1080.397346200003,None,1080.397346200003,None,f,1.1474234000015713,1080.397346200003,None,1.1474234000015713,,,121 Silent,001,2022_Dec_01_1659,ProdSingRedoBetween,2021.2.3,59.963614079834464,
,,,,65,0,65,0,,,,,,,,,,,,,,,,,,,,,,1087.1877037000013,None,,,,,,,,,,,,,,,,,shock,71,66,silent,old,red,1082.0779535000001,None,1082.0779535000001,None,5,2.9789642000032472,1082.0779535000001,None,2.9789642000032472,1085.0931247000008,None,1085.6079481000015,None,1085.6079481000015,None,f,1.5609053999978642,1085.6079481000015,None,1.5609053999978642,,,121 Silent,001,2022_Dec_01_1659,ProdSingRedoBetween,2021.2.3,59.963614079834464,
,,,,66,0,66,0,,,,,,,,,,,,,,,,,,,,,,1091.947834300001,None,,,,,,,,,,,,,,,,,tough,108,67,silent,new,null,1087.7003723000016,None,1087.7003723000016,None,2,2.580397300000186,1087.7003723000016,None,2.580397300000186,1090.309348900002,None,1090.825659000002,None,1090.825659000002,None,n,1.087250699998549,1090.825659000002,None,1.087250699998549,,,121 Silent,001,2022_Dec_01_1659,ProdSingRedoBetween,2021.2.3,59.963614079834464,
,,,,67,0,67,0,,,,,,,,,,,,,,,,,,,,,,1097.3977479000023,None,,,,,,,,,,,,,,,,,working,61,68,silent,old,red,1092.4749300000003,None,1092.4749300000003,None,5,1.853831700002047,1092.4749300000003,None,1.853831700002047,1094.3537044000004,None,1094.8670144000025,None,1094.8670144000025,None,f,2.5018075999978464,1094.8670144000025,None,2.5018075999978464,,,121 Silent,001,2022_Dec_01_1659,ProdSingRedoBetween,2021.2.3,59.963614079834464,
,,,,68,0,68,0,,,,,,,,,,,,,,,,,,,,,,1104.0932570000004,None,,,,,,,,,,,,,,,,,business,66,69,silent,old,red,1097.909169300001,None,1097.909169300001,None,5,4.907707499998651,1097.909169300001,None,4.907707499998651,1102.8458649000022,None,1103.3570094000024,None,1103.3570094000024,None,f,0.6998299000006227,1103.3570094000024,None,0.6998299000006227,,,121 Silent,001,2022_Dec_01_1659,ProdSingRedoBetween,2021.2.3,59.963614079834464,
,,,,69,0,69,0,,,,,,,,,,,,,,,,,,,,,,1107.0240860000013,None,,,,,,,,,,,,,,,,,height,169,70,silent,new,null,1104.6134260000035,None,1104.6134260000035,None,1,1.283307400000922,1104.6134260000035,None,1.283307400000922,1105.9240798000028,None,1106.4290931000032,None,1106.4290931000032,None,n,0.5637324999988778,1106.4290931000032,None,0.5637324999988778,,,121 Silent,001,2022_Dec_01_1659,ProdSingRedoBetween,2021.2.3,59.963614079834464,
,,,,70,0,70,0,,,,,,,,,,,,,,,,,,,,,,1111.0617324000013,None,,,,,,,,,,,,,,,,,level,20,71,silent,old,yellow,1107.5370030000013,None,1107.5370030000013,None,2,1.5198338000009244,1107.5370030000013,None,1.5198338000009244,1109.0811708,None,1109.5985433000023,None,1109.5985433000023,None,n,1.4422799000021769,1109.5985433000023,None,1.4422799000021769,,,121 Silent,001,2022_Dec_01_1659,ProdSingRedoBetween,2021.2.3,59.963614079834464,
,,,,71,0,71,0,,,,,,,,,,,,,,,,,,,,,,1117.4678558000014,None,,,,,,,,,,,,,,,,,cousin,166,72,silent,new,null,1111.5651143000032,None,1111.5651143000032,None,2,3.947653999999602,1111.5651143000032,None,3.947653999999602,1115.5340826000029,None,1116.0331932000008,None,1116.0331932000008,None,f,1.4075828000022739,1116.0331932000008,None,1.4075828000022739,,,121 Silent,001,2022_Dec_01_1659,ProdSingRedoBetween,2021.2.3,59.963614079834464,
,,,,72,0,72,0,,,,,,,,,,,,,,,,,,,,,,1121.306115000003,None,,,,,,,,,,,,,,,,,debate,103,73,silent,new,null,1117.9780756,None,1117.9780756,None,3,1.7347669000009773,1117.9780756,None,1.7347669000009773,1119.7402219000032,None,1120.2550936000007,None,1120.2550936000007,None,n,1.025755200000276,1120.2550936000007,None,1.025755200000276,,,121 Silent,001,2022_Dec_01_1659,ProdSingRedoBetween,2021.2.3,59.963614079834464,
,,,,73,0,73,0,,,,,,,,,,,,,,,,,,,,,,1124.6104027000001,None,,,,,,,,,,,,,,,,,gesture,55,74,silent,old,blue,1121.8179778000012,None,1121.8179778000012,None,1,1.5270622999996704,1121.8179778000012,None,1.5270622999996704,1123.384581600003,None,1123.9027057000021,None,1123.9027057000021,None,n,0.682111400001304,1123.9027057000021,None,0.682111400001304,,,121 Silent,001,2022_Dec_01_1659,ProdSingRedoBetween,2021.2.3,59.963614079834464,
,,,,74,0,74,0,,,,,,,,,,,,,,,,,,,,,,1128.8626001000011,None,,,,,,,,,,,,,,,,,article,175,75,silent,new,null,1125.1258753000002,None,1125.1258753000002,None,4,2.2989673000010953,1125.1258753000002,None,2.2989673000010953,1127.4477675000016,None,1127.9652623000002,None,1127.9652623000002,None,f,0.8755366000004869,1127.9652623000002,None,0.8755366000004869,,,121 Silent,001,2022_Dec_01_1659,ProdSingRedoBetween,2021.2.3,59.963614079834464,
,,,,75,0,75,0,,,,,,,,,,,,,,,,,,,,,,1133.483863100002,None,,,,,,,,,,,,,,,,,appearance,171,76,silent,new,null,1129.3728154000019,None,1129.3728154000019,None,4,3.0600018999975873,1129.3728154000019,None,3.0600018999975873,1132.4510584000018,None,1132.9564555000034,None,1132.9564555000034,None,f,0.5083745000010822,1132.9564555000034,None,0.5083745000010822,,,121 Silent,001,2022_Dec_01_1659,ProdSingRedoBetween,2021.2.3,59.963614079834464,
,,,,76,0,76,0,,,,,,,,,,,,,,,,,,,,,,1137.040879600001,None,,,,,,,,,,,,,,,,,machinery,10,77,silent,old,yellow,1133.9915451000015,None,1133.9915451000015,None,6,2.241358700001001,1133.9915451000015,None,2.241358700001001,1136.2618826000034,None,1136.7742638000018,None,1136.7742638000018,None,f,0.2346335000002,1136.7742638000018,None,0.2346335000002,,,121 Silent,001,2022_Dec_01_1659,ProdSingRedoBetween,2021.2.3,59.963614079834464,
,,,,77,0,77,0,,,,,,,,,,,,,,,,,,,,,,1144.7115570000024,None,,,,,,,,,,,,,,,,,still,98,78,silent,new,null,1137.5633310000012,None,1137.5633310000012,None,4,5.461505899998883,1137.5633310000012,None,5.461505899998883,1143.0441498,None,1143.5580290000034,None,1143.5580290000034,None,f,1.1308835000018007,1143.5580290000034,None,1.1308835000018007,,,121 Silent,001,2022_Dec_01_1659,ProdSingRedoBetween,2021.2.3,59.963614079834464,
,,,,78,0,78,0,,,,,,,,,,,,,,,,,,,,,,1148.850248900002,None,,,,,,,,,,,,,,,,,place,124,79,silent,new,null,1145.2160078000015,None,1145.2160078000015,None,3,1.8328250000013213,1145.2160078000015,None,1.8328250000013213,1147.0641406000032,None,1147.5650402000028,None,1147.5650402000028,None,n,1.2597879999993893,1147.5650402000028,None,1.2597879999993893,,,121 Silent,001,2022_Dec_01_1659,ProdSingRedoBetween,2021.2.3,59.963614079834464,
,,,,79,0,79,0,,,,,,,,,,,,,,,,,,,,,,1153.0549444000026,None,,,,,,,,,,,,,,,,,evidence,133,80,silent,new,null,1149.3621325000022,None,1149.3621325000022,None,1,2.342750399999204,1149.3621325000022,None,2.342750399999204,1151.7438548000027,None,1152.257428500001,None,1152.257428500001,None,n,0.7592452999997477,1152.257428500001,None,0.7592452999997477,,,121 Silent,001,2022_Dec_01_1659,ProdSingRedoBetween,2021.2.3,59.963614079834464,
,,,,80,0,80,0,,,,,,,,,,,,,,,,,,,,,,1158.5306778000013,None,,,,,,,,,,,,,,,,,surface,37,81,silent,old,blue,1153.5693561000007,None,1153.5693561000007,None,3,2.1834589000027336,1153.5693561000007,None,2.1834589000027336,1155.7781152000025,None,1156.2975818000014,None,1156.2975818000014,None,f,2.2074471000014455,1156.2975818000014,None,2.2074471000014455,,,121 Silent,001,2022_Dec_01_1659,ProdSingRedoBetween,2021.2.3,59.963614079834464,
,,,,81,0,81,0,,,,,,,,,,,,,,,,,,,,,,1164.3981164000033,None,,,,,,,,,,,,,,,,,people,40,82,silent,old,blue,1159.0535404000002,None,1159.0535404000002,None,6,3.459378999999899,1159.0535404000002,None,3.459378999999899,1162.5369802000023,None,1163.0554176000005,None,1163.0554176000005,None,r,1.313389200000529,1163.0554176000005,None,1.313389200000529,,,121 Silent,001,2022_Dec_01_1659,ProdSingRedoBetween,2021.2.3,59.963614079834464,
,,,,82,0,82,0,,,,,,,,,,,,,,,,,,,,,,1171.0380169000018,None,,,,,,,,,,,,,,,,,bright,83,83,silent,old,red,1164.9080507000035,None,1164.9080507000035,None,3,3.252759999999398,1164.9080507000035,None,3.252759999999398,1168.1917569000034,None,1168.7047335000025,None,1168.7047335000025,None,n,2.312113500000123,1168.7047335000025,None,2.312113500000123,,,121 Silent,001,2022_Dec_01_1659,ProdSingRedoBetween,2021.2.3,59.963614079834464,
,,,,83,0,83,0,,,,,,,,,,,,,,,,,,,,,,1178.2786160000032,None,,,,,,,,,,,,,,,,,capital,148,84,silent,new,null,1171.5529337000007,None,1171.5529337000007,None,4,3.9279553000014857,1171.5529337000007,None,3.9279553000014857,1175.5163822000031,None,1176.0350362000027,None,1176.0350362000027,None,n,2.213846900001954,1176.0350362000027,None,2.213846900001954,,,121 Silent,001,2022_Dec_01_1659,ProdSingRedoBetween,2021.2.3,59.963614079834464,
,,,,84,0,84,0,,,,,,,,,,,,,,,,,,,,,,1185.7359397,None,,,,,,,,,,,,,,,,,range,8,85,silent,old,yellow,1178.7882817000027,None,1178.7882817000027,None,4,2.3084722999992664,1178.7882817000027,None,2.3084722999992664,1181.1166324000005,None,1181.6354215000028,None,1181.6354215000028,None,f,4.085389199997735,1181.6354215000028,None,4.085389199997735,,,121 Silent,001,2022_Dec_01_1659,ProdSingRedoBetween,2021.2.3,59.963614079834464,
,,,,85,0,85,0,,,,,,,,,,,,,,,,,,,,,,1196.3970737000018,None,,,,,,,,,,,,,,,,,education,154,86,silent,new,null,1186.2384244000023,None,1186.2384244000023,None,4,6.986724700000195,1186.2384244000023,None,6.986724700000195,1193.250061300001,None,1193.7676039000035,None,1193.7676039000035,None,f,2.6092064999975264,1193.7676039000035,None,2.6092064999975264,,,121 Silent,001,2022_Dec_01_1659,ProdSingRedoBetween,2021.2.3,59.963614079834464,
,,,,86,0,86,0,,,,,,,,,,,,,,,,,,,,,,1201.3683868000007,None,,,,,,,,,,,,,,,,,agreement,47,87,silent,old,blue,1196.9053660000027,None,1196.9053660000027,None,3,3.3114762000004703,1196.9053660000027,None,3.3114762000004703,1200.2386755000007,None,1200.7511497000014,None,1200.7511497000014,None,f,0.5936483000004955,1200.7511497000014,None,0.5936483000004955,,,121 Silent,001,2022_Dec_01_1659,ProdSingRedoBetween,2021.2.3,59.963614079834464,
,,,,87,0,87,0,,,,,,,,,,,,,,,,,,,,,,1204.2045706000026,None,,,,,,,,,,,,,,,,,tragedy,59,88,silent,old,yellow,1201.8785773000018,None,1201.8785773000018,None,1,1.274221400002716,1201.8785773000018,None,1.274221400002716,1203.1716872000034,None,1203.6767112000016,None,1203.6767112000016,None,n,0.5000331000010192,1203.6767112000016,None,0.5000331000010192,,,121 Silent,001,2022_Dec_01_1659,ProdSingRedoBetween,2021.2.3,59.963614079834464,
,,,,88,0,88,0,,,,,,,,,,,,,,,,,,,,,,1210.3646738000025,None,,,,,,,,,,,,,,,,,cover,7,89,silent,old,yellow,1204.712389100001,None,1204.712389100001,None,5,4.192432799998642,1204.712389100001,None,4.192432799998642,1208.9270357000023,None,1209.4310761000015,None,1209.4310761000015,None,f,0.9138514000005671,1209.4310761000015,None,0.9138514000005671,,,121 Silent,001,2022_Dec_01_1659,ProdSingRedoBetween,2021.2.3,59.963614079834464,
,,,,89,0,89,0,,,,,,,,,,,,,,,,,,,,,,1214.0143214000018,None,,,,,,,,,,,,,,,,,weight,15,90,silent,old,yellow,1210.884746900003,None,1210.884746900003,None,2,1.7161649000008765,1210.884746900003,None,1.7161649000008765,1212.6339025000016,None,1213.1469356000016,None,1213.1469356000016,None,f,0.8458632000001671,1213.1469356000016,None,0.8458632000001671,,,121 Silent,001,2022_Dec_01_1659,ProdSingRedoBetween,2021.2.3,59.963614079834464,
,,,,90,0,90,0,,,,,,,,,,,,,,,,,,,,,,1217.8375381000005,None,,,,,,,,,,,,,,,,,executive,90,91,silent,new,null,1214.5274347000013,None,1214.5274347000013,None,5,2.185516399997141,1214.5274347000013,None,2.185516399997141,1216.7436522000025,None,1217.2584808000029,None,1217.2584808000029,None,f,0.5584908000018913,1217.2584808000029,None,0.5584908000018913,,,121 Silent,001,2022_Dec_01_1659,ProdSingRedoBetween,2021.2.3,59.963614079834464,
,,,,91,0,91,0,,,,,,,,,,,,,,,,,,,,,,1221.4898427000007,None,,,,,,,,,,,,,,,,,agency,86,92,silent,old,red,1218.3636790000019,None,1218.3636790000019,None,5,1.9171778999989328,1218.3636790000019,None,1.9171778999989328,1220.3092770000003,None,1220.8288359000035,None,1220.8288359000035,None,f,0.6360309000010602,1220.8288359000035,None,0.6360309000010602,,,121 Silent,001,2022_Dec_01_1659,ProdSingRedoBetween,2021.2.3,59.963614079834464,
,,,,92,0,92,0,,,,,,,,,,,,,,,,,,,,,,1225.0114417000004,None,,,,,,,,,,,,,,,,,straight,153,93,silent,new,null,1222.000985300001,None,1222.000985300001,None,1,2.055792200000724,1222.000985300001,None,2.055792200000724,1224.0794701000013,None,1224.5973481,None,1224.5973481,None,n,0.39542140000048676,1224.5973481,None,0.39542140000048676,,,121 Silent,001,2022_Dec_01_1659,ProdSingRedoBetween,2021.2.3,59.963614079834464,
,,,,93,0,93,0,,,,,,,,,,,,,,,,,,,,,,1230.2651569000009,None,,,,,,,,,,,,,,,,,close,62,94,silent,old,red,1225.5373986000013,None,1225.5373986000013,None,5,2.959418899998127,1225.5373986000013,None,2.959418899998127,1228.5171092000019,None,1229.0294824000011,None,1229.0294824000011,None,f,1.2114110000002256,1229.0294824000011,None,1.2114110000002256,,,121 Silent,001,2022_Dec_01_1659,ProdSingRedoBetween,2021.2.3,59.963614079834464,
,,,,94,0,94,0,,,,,,,,,,,,,,,,,,,,,,1237.6880495000005,None,,,,,,,,,,,,,,,,,second,70,95,silent,old,red,1230.7769990000015,None,1230.7769990000015,None,6,5.879812800001673,1230.7769990000015,None,5.879812800001673,1236.687129500002,None,1237.191580900002,None,1237.191580900002,None,r,0.48123060000216356,1237.191580900002,None,0.48123060000216356,,,121 Silent,001,2022_Dec_01_1659,ProdSingRedoBetween,2021.2.3,59.963614079834464,
,,,,95,0,95,0,,,,,,,,,,,,,,,,,,,,,,1241.7087403000005,None,,,,,,,,,,,,,,,,,literature,92,96,silent,new,null,1238.195748500002,None,1238.195748500002,None,1,1.4690953000026639,1238.195748500002,None,1.4690953000026639,1239.691844500001,None,1240.1988403000032,None,1240.1988403000032,None,n,1.4900455999995756,1240.1988403000032,None,1.4900455999995756,,,121 Silent,001,2022_Dec_01_1659,ProdSingRedoBetween,2021.2.3,59.963614079834464,
,,,,96,0,96,0,,,,,,,,,,,,,,,,,,,,,,1247.4164119000015,None,,,,,,,,,,,,,,,,,novel,118,97,silent,new,null,1242.2254904000001,None,1242.2254904000001,None,2,2.647324400000798,1242.2254904000001,None,2.647324400000798,1244.8974420000013,None,1245.4154263000019,None,1245.4154263000019,None,n,1.9695041999984824,1245.4154263000019,None,1.9695041999984824,,,121 Silent,001,2022_Dec_01_1659,ProdSingRedoBetween,2021.2.3,59.963614079834464,
,,,,97,0,97,0,,,,,,,,,,,,,,,,,,,,,,1251.909396500003,None,,,,,,,,,,,,,,,,,rapid,112,98,silent,new,null,1247.9379463000005,None,1247.9379463000005,None,2,2.1829447999989497,1247.9379463000005,None,2.1829447999989497,1250.1548899000009,None,1250.6691430000028,None,1250.6691430000028,None,n,1.2037110999990546,1250.6691430000028,None,1.2037110999990546,,,121 Silent,001,2022_Dec_01_1659,ProdSingRedoBetween,2021.2.3,59.963614079834464,
,,,,98,0,98,0,,,,,,,,,,,,,,,,,,,,,,1256.8430173000015,None,,,,,,,,,,,,,,,,,question,127,99,silent,new,null,1252.426774200001,None,1252.426774200001,None,5,2.1661546000032104,1252.426774200001,None,2.1661546000032104,1254.629917000002,None,1255.1433019000033,None,1255.1433019000033,None,f,1.6816212000012456,1255.1433019000033,None,1.6816212000012456,,,121 Silent,001,2022_Dec_01_1659,ProdSingRedoBetween,2021.2.3,59.963614079834464,
,,,,99,0,99,0,,,,,,,,,,,,,,,,,,,,,,1261.878857900003,None,,,,,,,,,,,,,,,,,carry,165,100,silent,new,null,1257.367688000002,None,1257.367688000002,None,3,2.6650747999992745,1257.367688000002,None,2.6650747999992745,1260.0624906000012,None,1260.5829772000034,None,1260.5829772000034,None,n,1.2658602999981667,1260.5829772000034,None,1.2658602999981667,,,121 Silent,001,2022_Dec_01_1659,ProdSingRedoBetween,2021.2.3,59.963614079834464,
,,,,100,0,100,0,,,,,,,,,,,,,,,,,,,,,,1267.3229103000012,None,,,,,,,,,,,,,,,,,drove,72,101,silent,old,red,1262.3944789000016,None,1262.3944789000016,None,5,2.726400100000319,1262.3944789000016,None,2.726400100000319,1265.1532961000012,None,1265.6694008000013,None,1265.6694008000013,None,f,1.627619799997774,1265.6694008000013,None,1.627619799997774,,,121 Silent,001,2022_Dec_01_1659,ProdSingRedoBetween,2021.2.3,59.963614079834464,
,,,,101,0,101,0,,,,,,,,,,,,,,,,,,,,,,1272.173052500002,None,,,,,,,,,,,,,,,,,citizen,132,102,silent,new,null,1267.8503672000006,None,1267.8503672000006,None,3,2.1505689000005077,1267.8503672000006,None,2.1505689000005077,1270.0318875000012,None,1270.5448308000014,None,1270.5448308000014,None,f,1.6080255000015313,1270.5448308000014,None,1.6080255000015313,,,121 Silent,001,2022_Dec_01_1659,ProdSingRedoBetween,2021.2.3,59.963614079834464,
,,,,102,0,102,0,,,,,,,,,,,,,,,,,,,,,,1279.8148050000018,None,,,,,,,,,,,,,,,,,guest,35,103,silent,old,blue,1272.685339300002,None,1272.685339300002,None,3,5.179668400000082,1272.685339300002,None,5.179668400000082,1277.8960320000006,None,1278.4057606000024,None,1278.4057606000024,None,f,1.3791224999986298,1278.4057606000024,None,1.3791224999986298,,,121 Silent,001,2022_Dec_01_1659,ProdSingRedoBetween,2021.2.3,59.963614079834464,
,,,,103,0,103,0,,,,,,,,,,,,,,,,,,,,,,1286.390224400002,None,,,,,,,,,,,,,,,,,clear,56,104,silent,old,blue,1280.3264049000027,None,1280.3264049000027,None,1,1.9704358999988472,1280.3264049000027,None,1.9704358999988472,1282.3168280000027,None,1282.8207939000022,None,1282.8207939000022,None,r,3.5402336999977706,1282.8207939000022,None,3.5402336999977706,,,121 Silent,001,2022_Dec_01_1659,ProdSingRedoBetween,2021.2.3,59.963614079834464,
,,,,104,0,104,0,,,,,,,,,,,,,,,,,,,,,,1294.5291127000019,None,,,,,,,,,,,,,,,,,charter,117,105,silent,new,null,1286.9132071000022,None,1286.9132071000022,None,6,6.799724000000424,1286.9132071000022,None,6.799724000000424,1293.7469145000032,None,1294.261451100003,None,1294.261451100003,None,r,0.24353640000117593,1294.261451100003,None,0.24353640000117593,,,121 Silent,001,2022_Dec_01_1659,ProdSingRedoBetween,2021.2.3,59.963614079834464,
,,,,105,0,105,0,,,,,,,,,,,,,,,,,,,,,,1300.5842372000006,None,,,,,,,,,,,,,,,,,welcome,100,106,silent,new,null,1295.0318991000022,None,1295.0318991000022,None,4,3.472983200001181,1295.0318991000022,None,3.472983200001181,1298.5370601000031,None,1299.054436100003,None,1299.054436100003,None,f,1.514370199998666,1299.054436100003,None,1.514370199998666,,,121 Silent,001,2022_Dec_01_1659,ProdSingRedoBetween,2021.2.3,59.963614079834464,
,,,,106,0,106,0,,,,,,,,,,,,,,,,,,,,,,1305.3056157000028,None,,,,,,,,,,,,,,,,,instrument,146,107,silent,new,null,1301.095065700003,None,1301.095065700003,None,2,1.7298348000003898,1301.095065700003,None,1.7298348000003898,1302.8552501000013,None,1303.3749431000033,None,1303.3749431000033,None,n,1.9138955000016722,1303.3749431000033,None,1.9138955000016722,,,121 Silent,001,2022_Dec_01_1659,ProdSingRedoBetween,2021.2.3,59.963614079834464,
,,,,107,0,107,0,,,,,,,,,,,,,,,,,,,,,,1310.2272448000003,None,,,,,,,,,,,,,,,,,recall,145,108,silent,new,null,1305.8126635000008,None,1305.8126635000008,None,3,2.56423150000046,1305.8126635000008,None,2.56423150000046,1308.3947496,None,1308.9190557000002,None,1308.9190557000002,None,f,1.2818021000020963,1308.9190557000002,None,1.2818021000020963,,,121 Silent,001,2022_Dec_01_1659,ProdSingRedoBetween,2021.2.3,59.963614079834464,
,,,,108,0,108,0,,,,,,,,,,,,,,,,,,,,,,1314.1845595000013,None,,,,,,,,,,,,,,,,,private,94,109,silent,new,null,1310.7451910000018,None,1310.7451910000018,None,5,2.111639800001285,1310.7451910000018,None,2.111639800001285,1312.8872319000002,None,1313.4038770000006,None,1313.4038770000006,None,f,0.7492053000023589,1313.4038770000006,None,0.7492053000023589,,,121 Silent,001,2022_Dec_01_1659,ProdSingRedoBetween,2021.2.3,59.963614079834464,
,,,,109,0,109,0,,,,,,,,,,,,,,,,,,,,,,1317.7180303000023,None,,,,,,,,,,,,,,,,,expansion,69,110,silent,old,red,1314.7086474000025,None,1314.7086474000025,None,6,2.140415400001075,1314.7086474000025,None,2.140415400001075,1316.8784073000024,None,1317.3915715000003,None,1317.3915715000003,None,r,0.297381200001837,1317.3915715000003,None,0.297381200001837,,,121 Silent,001,2022_Dec_01_1659,ProdSingRedoBetween,2021.2.3,59.963614079834464,
,,,,110,0,110,0,,,,,,,,,,,,,,,,,,,,,,1323.2913262000002,None,,,,,,,,,,,,,,,,,hunger,85,111,silent,old,red,1318.225617600001,None,1318.225617600001,None,3,2.8794243999982427,1318.225617600001,None,2.8794243999982427,1321.1293859000034,None,1321.6404244000005,None,1321.6404244000005,None,f,1.6244183999988309,1321.6404244000005,None,1.6244183999988309,,,121 Silent,001,2022_Dec_01_1659,ProdSingRedoBetween,2021.2.3,59.963614079834464,
,,,,111,0,111,0,,,,,,,,,,,,,,,,,,,,,,1329.6466,None,,,,,,,,,,,,,,,,,staff,36,112,silent,old,blue,1323.8056622000004,None,1323.8056622000004,None,4,3.8831971999970847,1323.8056622000004,None,3.8831971999970847,1327.7135553000007,None,1328.2327011000016,None,1328.2327011000016,None,r,1.384205499998643,1328.2327011000016,None,1.384205499998643,,,121 Silent,001,2022_Dec_01_1659,ProdSingRedoBetween,2021.2.3,59.963614079834464,
,,,,112,0,112,0,,,,,,,,,,,,,,,,,,,,,,1333.650689500002,None,,,,,,,,,,,,,,,,,minute,6,113,silent,old,yellow,1330.1611709000026,None,1330.1611709000026,None,2,1.527802699998574,1330.1611709000026,None,1.527802699998574,1331.7229895000019,None,1332.2363721000002,None,1332.2363721000002,None,f,1.3885958999999275,1332.2363721000002,None,1.3885958999999275,,,121 Silent,001,2022_Dec_01_1659,ProdSingRedoBetween,2021.2.3,59.963614079834464,
,,,,113,0,113,0,,,,,,,,,,,,,,,,,,,,,,1338.3386033000024,None,,,,,,,,,,,,,,,,,emergency,137,114,silent,new,null,1334.1543198000036,None,1334.1543198000036,None,1,2.0385623000001942,1334.1543198000036,None,2.0385623000001942,1336.2260336000036,None,1336.7435036000024,None,1336.7435036000024,None,n,1.577285800001846,1336.7435036000024,None,1.577285800001846,,,121 Silent,001,2022_Dec_01_1659,ProdSingRedoBetween,2021.2.3,59.963614079834464,
,,,,114,0,114,0,,,,,,,,,,,,,,,,,,,,,,1349.3329157000007,None,,,,,,,,,,,,,,,,,material,33,115,silent,old,blue,1338.8481862000008,None,1338.8481862000008,None,4,9.136750599998777,1338.8481862000008,None,9.136750599998777,1348.0175593000022,None,1348.5345826000012,None,1348.5345826000012,None,f,0.7702922000025865,1348.5345826000012,None,0.7702922000025865,,,121 Silent,001,2022_Dec_01_1659,ProdSingRedoBetween,2021.2.3,59.963614079834464,
,,,,115,0,115,0,,,,,,,,,,,,,,,,,,,,,,1353.1534895000004,None,,,,,,,,,,,,,,,,,bureau,95,116,silent,new,null,1349.841014900001,None,1349.841014900001,None,1,1.6000518000000739,1349.841014900001,None,1.6000518000000739,1351.4736323000034,None,1351.985697,None,1351.985697,None,n,1.1511608000000706,1351.985697,None,1.1511608000000706,,,121 Silent,001,2022_Dec_01_1659,ProdSingRedoBetween,2021.2.3,59.963614079834464,
,,,,116,0,116,0,,,,,,,,,,,,,,,,,,,,,,1358.2583204000002,None,,,,,,,,,,,,,,,,,testimony,53,117,silent,old,blue,1353.657940600002,None,1353.657940600002,None,6,3.3432303000008687,1353.657940600002,None,3.3432303000008687,1357.0324256000022,None,1357.5412192000003,None,1357.5412192000003,None,r,0.6916029999993043,1357.5412192000003,None,0.6916029999993043,,,121 Silent,001,2022_Dec_01_1659,ProdSingRedoBetween,2021.2.3,59.963614079834464,
,,,,117,0,117,0,,,,,,,,,,,,,,,,,,,,,,1361.148767900002,None,,,,,,,,,,,,,,,,,sweet,141,118,silent,new,null,1358.7776061000004,None,1358.7776061000004,None,2,1.3512843000025896,1358.7776061000004,None,1.3512843000025896,1360.1458853000004,None,1360.665217200003,None,1360.665217200003,None,f,0.4637505999999121,1360.665217200003,None,0.4637505999999121,,,121 Silent,001,2022_Dec_01_1659,ProdSingRedoBetween,2021.2.3,59.963614079834464,
,,,,118,0,118,0,,,,,,,,,,,,,,,,,,,,,,1366.299973600002,None,,,,,,,,,,,,,,,,,principal,135,119,silent,new,null,1361.6725338000033,None,1361.6725338000033,None,3,1.9284890000017185,1361.6725338000033,None,1.9284890000017185,1363.641767600002,None,1364.1520313,None,1364.1520313,None,f,2.12080799999967,1364.1520313,None,2.12080799999967,,,121 Silent,001,2022_Dec_01_1659,ProdSingRedoBetween,2021.2.3,59.963614079834464,
,,,,119,0,119,0,,,,,,,,,,,,,,,,,,,,,,1371.6719557000033,None,,,,,,,,,,,,,,,,,congress,179,120,silent,new,null,1366.8187147000026,None,1366.8187147000026,None,2,3.0621604999978445,1366.8187147000026,None,3.0621604999978445,1369.9047477000022,None,1370.4041481000022,None,1370.4041481000022,None,n,1.2447728000006464,1370.4041481000022,None,1.2447728000006464,,,121 Silent,001,2022_Dec_01_1659,ProdSingRedoBetween,2021.2.3,59.963614079834464,
,,,,120,0,120,0,,,,,,,,,,,,,,,,,,,,,,1376.6602712000022,None,,,,,,,,,,,,,,,,,pattern,142,121,silent,new,null,1372.1837589000024,None,1372.1837589000024,None,6,1.9211527000006754,1372.1837589000024,None,1.9211527000006754,1374.1286273000005,None,1374.6416867000007,None,1374.6416867000007,None,r,1.9992536999998265,1374.6416867000007,None,1.9992536999998265,,,121 Silent,001,2022_Dec_01_1659,ProdSingRedoBetween,2021.2.3,59.963614079834464,
,,,,121,0,121,0,,,,,,,,,,,,,,,,,,,,,,1379.9161362000013,None,,,,,,,,,,,,,,,,,income,122,122,silent,new,null,1377.1751970000005,None,1377.1751970000005,None,2,1.6018225000007078,1377.1751970000005,None,1.6018225000007078,1378.8001272000001,None,1379.3227880000013,None,1379.3227880000013,None,f,0.5741701000006287,1379.3227880000013,None,0.5741701000006287,,,121 Silent,001,2022_Dec_01_1659,ProdSingRedoBetween,2021.2.3,59.963614079834464,
,,,,122,0,122,0,,,,,,,,,,,,,,,,,,,,,,1384.4200440000022,None,,,,,,,,,,,,,,,,,brilliant,18,123,silent,old,yellow,1380.4368273,None,1380.4368273,None,6,2.028137200002675,1380.4368273,None,2.028137200002675,1382.4866628000018,None,1383.0023583000002,None,1383.0023583000002,None,r,1.3908219000004465,1383.0023583000002,None,1.3908219000004465,,,121 Silent,001,2022_Dec_01_1659,ProdSingRedoBetween,2021.2.3,59.963614079834464,
,,,,123,0,123,0,,,,,,,,,,,,,,,,,,,,,,1390.0569075000021,None,,,,,,,,,,,,,,,,,member,138,124,silent,new,null,1384.9396601000008,None,1384.9396601000008,None,4,1.8132828000016161,1384.9396601000008,None,1.8132828000016161,1386.7701196000016,None,1387.2710350000016,None,1387.2710350000016,None,n,2.769782399998803,1387.2710350000016,None,2.769782399998803,,,121 Silent,001,2022_Dec_01_1659,ProdSingRedoBetween,2021.2.3,59.963614079834464,
,,,,124,0,124,0,,,,,,,,,,,,,,,,,,,,,,1394.9284873000033,None,,,,,,,,,,,,,,,,,course,105,125,silent,new,null,1390.5688823000019,None,1390.5688823000019,None,4,1.879930200000672,1390.5688823000019,None,1.879930200000672,1392.4779899000023,None,1392.993387800001,None,1392.993387800001,None,f,1.9114921000000322,1392.993387800001,None,1.9114921000000322,,,121 Silent,001,2022_Dec_01_1659,ProdSingRedoBetween,2021.2.3,59.963614079834464,
,,,,125,0,125,0,,,,,,,,,,,,,,,,,,,,,,1400.0709158000027,None,,,,,,,,,,,,,,,,,service,31,126,silent,old,blue,1395.4443586000016,None,1395.4443586000016,None,3,1.5006624000016018,1395.4443586000016,None,1.5006624000016018,1396.9658557000002,None,1397.4868943000001,None,1397.4868943000001,None,n,2.5621869000024162,1397.4868943000001,None,2.5621869000024162,,,121 Silent,001,2022_Dec_01_1659,ProdSingRedoBetween,2021.2.3,59.963614079834464,
,,,,126,0,126,0,,,,,,,,,,,,,,,,,,,,,,1404.9718718000004,None,,,,,,,,,,,,,,,,,measure,49,127,silent,old,blue,1400.5972979000035,None,1400.5972979000035,None,4,2.4117882999998983,1400.5972979000035,None,2.4117882999998983,1403.0442444,None,1403.5570600000028,None,1403.5570600000028,None,f,1.3959893000028387,1403.5570600000028,None,1.3959893000028387,,,121 Silent,001,2022_Dec_01_1659,ProdSingRedoBetween,2021.2.3,59.963614079834464,
,,,,127,0,127,0,,,,,,,,,,,,,,,,,,,,,,1408.1917451000008,None,,,,,,,,,,,,,,,,,curve,26,128,silent,old,yellow,1405.491705700002,None,1405.491705700002,None,3,1.5971660999966844,1405.491705700002,None,1.5971660999966844,1407.1124002000033,None,1407.6264556000024,None,1407.6264556000024,None,f,0.5424972000000707,1407.6264556000024,None,0.5424972000000707,,,121 Silent,001,2022_Dec_01_1659,ProdSingRedoBetween,2021.2.3,59.963614079834464,
,,,,128,0,128,0,,,,,,,,,,,,,,,,,,,,,,1411.795442300001,None,,,,,,,,,,,,,,,,,escape,75,129,silent,old,red,1408.706191100002,None,1408.706191100002,None,4,2.086797399999341,1408.706191100002,None,2.086797399999341,1410.8220870000005,None,1411.3303818000022,None,1411.3303818000022,None,f,0.438461500001722,1411.3303818000022,None,0.438461500001722,,,121 Silent,001,2022_Dec_01_1659,ProdSingRedoBetween,2021.2.3,59.963614079834464,
,,,,129,0,129,0,,,,,,,,,,,,,,,,,,,,,,1415.232284900001,None,,,,,,,,,,,,,,,,,position,46,130,silent,old,blue,1412.3051368000015,None,1412.3051368000015,None,3,1.599774399997841,1412.3051368000015,None,1.599774399997841,1413.9329707000034,None,1414.4534520000016,None,1414.4534520000016,None,f,0.7634471999990637,1414.4534520000016,None,0.7634471999990637,,,121 Silent,001,2022_Dec_01_1659,ProdSingRedoBetween,2021.2.3,59.963614079834464,
,,,,130,0,130,0,,,,,,,,,,,,,,,,,,,,,,1421.5053557000028,None,,,,,,,,,,,,,,,,,contract,159,131,silent,new,null,1415.7398409000016,None,1415.7398409000016,None,6,3.661145199999737,1415.7398409000016,None,3.661145199999737,1419.4205133000032,None,1419.9260006000004,None,1419.9260006000004,None,r,1.5549724999982573,1419.9260006000004,None,1.5549724999982573,,,121 Silent,001,2022_Dec_01_1659,ProdSingRedoBetween,2021.2.3,59.963614079834464,
,,,,131,0,131,0,,,,,,,,,,,,,,,,,,,,,,1425.1921653000027,None,,,,,,,,,,,,,,,,,birth,116,132,silent,new,null,1422.0177885000012,None,1422.0177885000012,None,2,1.7592323999997461,1422.0177885000012,None,1.7592323999997461,1423.8165549000005,None,1424.3320168000027,None,1424.3320168000027,None,n,0.8289063000011083,1424.3320168000027,None,0.8289063000011083,,,121 Silent,001,2022_Dec_01_1659,ProdSingRedoBetween,2021.2.3,59.963614079834464,
,,,,132,0,132,0,,,,,,,,,,,,,,,,,,,,,,1432.0677381000023,None,,,,,,,,,,,,,,,,,trend,21,133,silent,old,yellow,1425.7021946000023,None,1425.7021946000023,None,4,4.394824099999823,1425.7021946000023,None,4.394824099999823,1430.1216366000008,None,1430.6372692000004,None,1430.6372692000004,None,f,1.4036674000017229,1430.6372692000004,None,1.4036674000017229,,,121 Silent,001,2022_Dec_01_1659,ProdSingRedoBetween,2021.2.3,59.963614079834464,
,,,,133,0,133,0,,,,,,,,,,,,,,,,,,,,,,1435.2871876000027,None,,,,,,,,,,,,,,,,,skill,63,134,silent,old,red,1432.589687900003,None,1432.589687900003,None,5,1.747532699999283,1432.589687900003,None,1.747532699999283,1434.3796452000024,None,1434.890431300002,None,1434.890431300002,None,f,0.37465720000182046,1434.890431300002,None,0.37465720000182046,,,121 Silent,001,2022_Dec_01_1659,ProdSingRedoBetween,2021.2.3,59.963614079834464,
,,,,134,0,134,0,,,,,,,,,,,,,,,,,,,,,,1438.905825400001,None,,,,,,,,,,,,,,,,,budget,155,135,silent,new,null,1435.8007861000006,None,1435.8007861000006,None,3,2.2320943999984593,1435.8007861000006,None,2.2320943999984593,1438.0555168000028,None,1438.5591499000002,None,1438.5591499000002,None,f,0.32973519999723067,1438.5591499000002,None,0.32973519999723067,,,121 Silent,001,2022_Dec_01_1659,ProdSingRedoBetween,2021.2.3,59.963614079834464,
,,,,135,0,135,0,,,,,,,,,,,,,,,,,,,,,,1443.8610298000021,None,,,,,,,,,,,,,,,,,color,160,136,silent,new,null,1439.4204210000025,None,1439.4204210000025,None,6,3.5804951999998593,1439.4204210000025,None,3.5804951999998593,1443.0283447000002,None,1443.5506921000015,None,1443.5506921000015,None,r,0.2902800000010757,1443.5506921000015,None,0.2902800000010757,,,121 Silent,001,2022_Dec_01_1659,ProdSingRedoBetween,2021.2.3,59.963614079834464,
,,,,136,0,136,0,,,,,,,,,,,,,,,,,,,,,,1448.1160599000032,None,,,,,,,,,,,,,,,,,revolution,34,137,silent,old,blue,1444.366584000003,None,1444.366584000003,None,3,1.8983387000007497,1444.366584000003,None,1.8983387000007497,1446.2820572000019,None,1446.797190600002,None,1446.797190600002,None,n,1.2997007999983907,1446.797190600002,None,1.2997007999983907,,,121 Silent,001,2022_Dec_01_1659,ProdSingRedoBetween,2021.2.3,59.963614079834464,
,,,,137,0,137,0,,,,,,,,,,,,,,,,,,,,,,1451.668543900003,None,,,,,,,,,,,,,,,,,commercial,68,138,silent,old,red,1448.6207222000012,None,1448.6207222000012,None,6,2.100276000001031,1448.6207222000012,None,2.100276000001031,1450.7551123000012,None,1451.2722579,None,1451.2722579,None,r,0.36866250000093714,1451.2722579,None,0.36866250000093714,,,121 Silent,001,2022_Dec_01_1659,ProdSingRedoBetween,2021.2.3,59.963614079834464,
,,,,138,0,138,0,,,,,,,,,,,,,,,,,,,,,,1455.9312878000019,None,,,,,,,,,,,,,,,,,title,144,139,silent,new,null,1452.173083200003,None,1452.173083200003,None,2,1.6998819000000367,1452.173083200003,None,1.6998819000000367,1453.9089208000005,None,1454.4214250000005,None,1454.4214250000005,None,n,1.475898499997129,1454.4214250000005,None,1.475898499997129,,,121 Silent,001,2022_Dec_01_1659,ProdSingRedoBetween,2021.2.3,59.963614079834464,
,,,,139,0,139,0,,,,,,,,,,,,,,,,,,,,,,1459.1927454000033,None,,,,,,,,,,,,,,,,,piece,54,140,silent,old,blue,1456.4604937000004,None,1456.4604937000004,None,6,1.8684126999978616,1456.4604937000004,None,1.8684126999978616,1458.3606403000013,None,1458.8798191000024,None,1458.8798191000024,None,r,0.28906500000084634,1458.8798191000024,None,0.28906500000084634,,,121 Silent,001,2022_Dec_01_1659,ProdSingRedoBetween,2021.2.3,59.963614079834464,
,,,,140,0,140,0,,,,,,,,,,,,,,,,,,,,,,1462.614751600002,None,,,,,,,,,,,,,,,,,generation,27,141,silent,old,yellow,1459.701393000003,None,1459.701393000003,None,4,1.747773999999481,1459.701393000003,None,1.747773999999481,1461.489172200003,None,1461.9982378000022,None,1461.9982378000022,None,f,0.5868403999993461,1461.9982378000022,None,0.5868403999993461,,,121 Silent,001,2022_Dec_01_1659,ProdSingRedoBetween,2021.2.3,59.963614079834464,
,,,,141,0,141,0,,,,,,,,,,,,,,,,,,,,,,1467.2229633000024,None,,,,,,,,,,,,,,,,,rough,128,142,silent,new,null,1463.1372054000021,None,1463.1372054000021,None,5,2.503770200000872,1463.1372054000021,None,2.503770200000872,1465.6691381000019,None,1466.1877032000011,None,1466.1877032000011,None,f,1.0053053999981785,1466.1877032000011,None,1.0053053999981785,,,121 Silent,001,2022_Dec_01_1659,ProdSingRedoBetween,2021.2.3,59.963614079834464,
,,,,142,0,142,0,,,,,,,,,,,,,,,,,,,,,,1475.7760134000018,None,,,,,,,,,,,,,,,,,search,39,143,silent,old,blue,1467.747076800002,None,1467.747076800002,None,4,5.693812599998637,1467.747076800002,None,5.693812599998637,1473.460745100001,None,1473.9764374000006,None,1473.9764374000006,None,n,1.768519400000514,1473.9764374000006,None,1.768519400000514,,,121 Silent,001,2022_Dec_01_1659,ProdSingRedoBetween,2021.2.3,59.963614079834464,
,,,,143,0,143,0,,,,,,,,,,,,,,,,,,,,,,1483.6375204000033,None,,,,,,,,,,,,,,,,,foundation,13,144,silent,old,yellow,1476.2820550000033,None,1476.2820550000033,None,5,3.5189900000004855,1476.2820550000033,None,3.5189900000004855,1479.8347051000019,None,1480.3480603000025,None,1480.3480603000025,None,r,3.269193500000256,1480.3480603000025,None,3.269193500000256,,,121 Silent,001,2022_Dec_01_1659,ProdSingRedoBetween,2021.2.3,59.963614079834464,
,,,,144,0,144,0,,,,,,,,,,,,,,,,,,,,,,1488.4914343000019,None,,,,,,,,,,,,,,,,,figure,58,145,silent,old,blue,1484.1561585000018,None,1484.1561585000018,None,3,2.044859000001452,1484.1561585000018,None,2.044859000001452,1486.2209583000003,None,1486.730960500001,None,1486.730960500001,None,f,1.742055499998969,1486.730960500001,None,1.742055499998969,,,121 Silent,001,2022_Dec_01_1659,ProdSingRedoBetween,2021.2.3,59.963614079834464,
,,,,145,0,145,0,,,,,,,,,,,,,,,,,,,,,,1495.5790749000007,None,,,,,,,,,,,,,,,,,patient,78,146,silent,old,red,1489.0142694000024,None,1489.0142694000024,None,6,5.7707464000013715,1489.0142694000024,None,5.7707464000013715,1494.8186273000028,None,1495.3337293000004,None,1495.3337293000004,None,r,0.2271513000014238,1495.3337293000004,None,0.2271513000014238,,,121 Silent,001,2022_Dec_01_1659,ProdSingRedoBetween,2021.2.3,59.963614079834464,
,,,,146,0,146,0,,,,,,,,,,,,,,,,,,,,,,1498.7322733,None,,,,,,,,,,,,,,,,,murder,125,147,silent,new,null,1496.088561200002,None,1496.088561200002,None,1,1.7205462999991141,1496.088561200002,None,1.7205462999991141,1497.8396094000018,None,1498.348829800001,None,1498.348829800001,None,n,0.35601820000010775,1498.348829800001,None,0.35601820000010775,,,121 Silent,001,2022_Dec_01_1659,ProdSingRedoBetween,2021.2.3,59.963614079834464,
,,,,147,0,147,0,,,,,,,,,,,,,,,,,,,,,,1502.2691045000029,None,,,,,,,,,,,,,,,,,pressure,131,148,silent,new,null,1499.2429548,None,1499.2429548,None,6,1.7022956000000704,1499.2429548,None,1.7022956000000704,1500.9764615000022,None,1501.4864640000014,None,1501.4864640000014,None,r,0.7624894000000495,1501.4864640000014,None,0.7624894000000495,,,121 Silent,001,2022_Dec_01_1659,ProdSingRedoBetween,2021.2.3,59.963614079834464,
,,,,148,0,148,0,,,,,,,,,,,,,,,,,,,,,,1506.043554900003,None,,,,,,,,,,,,,,,,,character,121,149,silent,new,null,1502.786580400003,None,1502.786580400003,None,3,1.6146472000000358,1502.786580400003,None,1.6146472000000358,1504.4338555000031,None,1504.9452936000016,None,1504.9452936000016,None,f,1.0637452000009944,1504.9452936000016,None,1.0637452000009944,,,121 Silent,001,2022_Dec_01_1659,ProdSingRedoBetween,2021.2.3,59.963614079834464,
,,,,149,0,149,0,,,,,,,,,,,,,,,,,,,,,,1508.9964769000035,None,,,,,,,,,,,,,,,,,husband,28,150,silent,old,yellow,1506.5686157000018,None,1506.5686157000018,None,1,1.3284278999999515,1506.5686157000018,None,1.3284278999999515,1507.9359416000007,None,1508.4420616000025,None,1508.4420616000025,None,n,0.5349096999998437,1508.4420616000025,None,0.5349096999998437,,,121 Silent,001,2022_Dec_01_1659,ProdSingRedoBetween,2021.2.3,59.963614079834464,
,,,,150,0,150,0,,,,,,,,,,,,,,,,,,,,,,1512.112477900002,None,,,,,,,,,,,,,,,,,bucket,79,151,silent,old,red,1509.5169078000035,None,1509.5169078000035,None,3,1.6362447000028624,1509.5169078000035,None,1.6362447000028624,1511.189988000002,None,1511.699077600002,None,1511.699077600002,None,n,0.3898518999994849,1511.699077600002,None,0.3898518999994849,,,121 Silent,001,2022_Dec_01_1659,ProdSingRedoBetween,2021.2.3,59.963614079834464,
,,,,151,0,151,0,,,,,,,,,,,,,,,,,,,,,,1518.685535200002,None,,,,,,,,,,,,,,,,,phrase,2,152,silent,old,yellow,1512.6235043000015,None,1512.6235043000015,None,5,5.225524000001315,1512.6235043000015,None,5.225524000001315,1517.8739283000032,None,1518.3898391000002,None,1518.3898391000002,None,r,0.2751157999991847,1518.3898391000002,None,0.2751157999991847,,,121 Silent,001,2022_Dec_01_1659,ProdSingRedoBetween,2021.2.3,59.963614079834464,
,,,,152,0,152,0,,,,,,,,,,,,,,,,,,,,,,1522.4891504000007,None,,,,,,,,,,,,,,,,,crisis,162,153,silent,new,null,1519.1905446000019,None,1519.1905446000019,None,6,2.5704999000008684,1519.1905446000019,None,2.5704999000008684,1521.7973711000013,None,1522.3084684000023,None,1522.3084684000023,None,r,0.15646940000078757,1522.3084684000023,None,0.15646940000078757,,,121 Silent,001,2022_Dec_01_1659,ProdSingRedoBetween,2021.2.3,59.963614079834464,
,,,,153,0,153,0,,,,,,,,,,,,,,,,,,,,,,1526.1108456000002,None,,,,,,,,,,,,,,,,,beginning,140,154,silent,new,null,1523.0001867000028,None,1523.0001867000028,None,4,1.9928653999995731,1523.0001867000028,None,1.9928653999995731,1525.0152927000017,None,1525.5279078000021,None,1525.5279078000021,None,f,0.5531549000006635,1525.5279078000021,None,0.5531549000006635,,,121 Silent,001,2022_Dec_01_1659,ProdSingRedoBetween,2021.2.3,59.963614079834464,
,,,,154,0,154,0,,,,,,,,,,,,,,,,,,,,,,1529.1460541000015,None,,,,,,,,,,,,,,,,,mankind,150,155,silent,new,null,1526.6170329000015,None,1526.6170329000015,None,1,1.4719246000022395,1526.6170329000015,None,1.4719246000022395,1528.1136331000016,None,1528.628623200002,None,1528.628623200002,None,n,0.4923138999984076,1528.628623200002,None,0.4923138999984076,,,121 Silent,001,2022_Dec_01_1659,ProdSingRedoBetween,2021.2.3,59.963614079834464,
,,,,155,0,155,0,,,,,,,,,,,,,,,,,,,,,,1537.1387061000023,None,,,,,,,,,,,,,,,,,science,43,156,silent,old,blue,1529.6572394000032,None,1529.6572394000032,None,3,2.1517095000017434,1529.6572394000032,None,2.1517095000017434,1531.834351700003,None,1532.3529949000003,None,1532.3529949000003,None,n,4.760013099999924,1532.3529949000003,None,4.760013099999924,,,121 Silent,001,2022_Dec_01_1659,ProdSingRedoBetween,2021.2.3,59.963614079834464,
,,,,156,0,156,0,,,,,,,,,,,,,,,,,,,,,,1546.4333254000012,None,,,,,,,,,,,,,,,,,crime,99,157,silent,new,null,1537.6411688000007,None,1537.6411688000007,None,4,4.767881200001284,1537.6411688000007,None,4.767881200001284,1542.436031600002,None,1542.9461759000005,None,1542.9461759000005,None,f,3.455070699998032,1542.9461759000005,None,3.455070699998032,,,121 Silent,001,2022_Dec_01_1659,ProdSingRedoBetween,2021.2.3,59.963614079834464,
,,,,157,0,157,0,,,,,,,,,,,,,,,,,,,,,,1551.104451700001,None,,,,,,,,,,,,,,,,,column,60,158,silent,old,red,1546.9518554000024,None,1546.9518554000024,None,3,2.201097299999674,1546.9518554000024,None,2.201097299999674,1549.182756600003,None,1549.6876751000018,None,1549.6876751000018,None,f,1.3854921000020113,1549.6876751000018,None,1.3854921000020113,,,121 Silent,001,2022_Dec_01_1659,ProdSingRedoBetween,2021.2.3,59.963614079834464,
,,,,158,0,158,0,,,,,,,,,,,,,,,,,,,,,,1554.114288300003,None,,,,,,,,,,,,,,,,,worker,3,159,silent,old,yellow,1551.6290474000016,None,1551.6290474000016,None,5,1.5798648000018147,1551.6290474000016,None,1.5798648000018147,1553.2382750000033,None,1553.7694784000014,None,1553.7694784000014,None,f,0.31972959999984596,1553.7694784000014,None,0.31972959999984596,,,121 Silent,001,2022_Dec_01_1659,ProdSingRedoBetween,2021.2.3,59.963614079834464,
,,,,159,0,159,0,,,,,,,,,,,,,,,,,,,,,,1557.0118397000006,None,,,,,,,,,,,,,,,,,tennis,4,160,silent,old,yellow,1554.6309427000015,None,1554.6309427000015,None,3,1.5940329000004567,1554.6309427000015,None,1.5940329000004567,1556.257543300002,None,1556.7649714000036,None,1556.7649714000036,None,f,0.21211509999920963,1556.7649714000036,None,0.21211509999920963,,,121 Silent,001,2022_Dec_01_1659,ProdSingRedoBetween,2021.2.3,59.963614079834464,
,,,,160,0,160,0,,,,,,,,,,,,,,,,,,,,,,1560.7140556000013,None,,,,,,,,,,,,,,,,,stranger,156,161,silent,new,null,1557.544288600002,None,1557.544288600002,None,4,2.5446574999987206,1557.544288600002,None,2.5446574999987206,1560.1116231000015,None,1560.6163731000015,None,1560.6163731000015,None,f,0.07274179999876651,1560.6163731000015,None,0.07274179999876651,,,121 Silent,001,2022_Dec_01_1659,ProdSingRedoBetween,2021.2.3,59.963614079834464,
,,,,161,0,161,0,,,,,,,,,,,,,,,,,,,,,,1564.8666605000035,None,,,,,,,,,,,,,,,,,treatment,11,162,silent,old,yellow,1561.2320271000026,None,1561.2320271000026,None,5,2.456948099999863,1561.2320271000026,None,2.456948099999863,1563.7139106000031,None,1564.2144620000036,None,1564.2144620000036,None,f,0.6344657000008738,1564.2144620000036,None,0.6344657000008738,,,121 Silent,001,2022_Dec_01_1659,ProdSingRedoBetween,2021.2.3,59.963614079834464,
,,,,162,0,162,0,,,,,,,,,,,,,,,,,,,,,,1567.672977600003,None,,,,,,,,,,,,,,,,,benefit,89,163,silent,old,red,1565.3811154000032,None,1565.3811154000032,None,4,1.4198032000022067,1565.3811154000032,None,1.4198032000022067,1566.8205399000035,None,1567.3437940000003,None,1567.3437940000003,None,f,0.3056171999996877,1567.3437940000003,None,0.3056171999996877,,,121 Silent,001,2022_Dec_01_1659,ProdSingRedoBetween,2021.2.3,59.963614079834464,
,,,,163,0,163,0,,,,,,,,,,,,,,,,,,,,,,1570.904415500001,None,,,,,,,,,,,,,,,,,store,74,164,silent,old,red,1568.1911442000019,None,1568.1911442000019,None,6,2.0420550999988336,1568.1911442000019,None,2.0420550999988336,1570.2616662,None,1570.7755946000034,None,1570.7755946000034,None,r,0.09743119999984629,1570.7755946000034,None,0.09743119999984629,,,121 Silent,001,2022_Dec_01_1659,ProdSingRedoBetween,2021.2.3,59.963614079834464,
,,,,164,0,164,0,,,,,,,,,,,,,,,,,,,,,,1574.6414514000026,None,,,,,,,,,,,,,,,,,couch,174,165,silent,new,null,1571.4178635000026,None,1571.4178635000026,None,6,2.6389979000014137,1571.4178635000026,None,2.6389979000014137,1574.076432400001,None,1574.593864100003,None,1574.593864100003,None,f,0.023114200001145946,1574.593864100003,None,0.023114200001145946,,,121 Silent,001,2022_Dec_01_1659,ProdSingRedoBetween,2021.2.3,59.963614079834464,
,,,,165,0,165,0,,,,,,,,,,,,,,,,,,,,,,1578.5337015000005,None,,,,,,,,,,,,,,,,,weather,173,166,silent,new,null,1575.1527075000013,None,1575.1527075000013,None,3,1.6082502999997814,1575.1527075000013,None,1.6082502999997814,1576.7786237,None,1577.2990212000004,None,1577.2990212000004,None,n,1.2061969000023964,1577.2990212000004,None,1.2061969000023964,,,121 Silent,001,2022_Dec_01_1659,ProdSingRedoBetween,2021.2.3,59.963614079834464,
,,,,166,0,166,0,,,,,,,,,,,,,,,,,,,,,,1581.7839817000022,None,,,,,,,,,,,,,,,,,pancakes,111,167,silent,new,null,1579.0556141000015,None,1579.0556141000015,None,1,1.5614841999995406,1579.0556141000015,None,1.5614841999995406,1580.6613915000016,None,1581.1757542000014,None,1581.1757542000014,None,n,0.5773827999983041,1581.1757542000014,None,0.5773827999983041,,,121 Silent,001,2022_Dec_01_1659,ProdSingRedoBetween,2021.2.3,59.963614079834464,
,,,,167,0,167,0,,,,,,,,,,,,,,,,,,,,,,1585.1520444000016,None,,,,,,,,,,,,,,,,,public,106,168,silent,new,null,1582.3109797000034,None,1582.3109797000034,None,2,1.4500803999981144,1582.3109797000034,None,1.4500803999981144,1583.793089900002,None,1584.3081999000024,None,1584.3081999000024,None,n,0.8209189000008337,1584.3081999000024,None,0.8209189000008337,,,121 Silent,001,2022_Dec_01_1659,ProdSingRedoBetween,2021.2.3,59.963614079834464,
,,,,168,0,168,0,,,,,,,,,,,,,,,,,,,,,,1590.6073961000002,None,,,,,,,,,,,,,,,,,throw,170,169,silent,new,null,1585.6591269000019,None,1585.6591269000019,None,5,2.6780472000027657,1585.6591269000019,None,2.6780472000027657,1588.3736981000002,None,1588.8967120000016,None,1588.8967120000016,None,r,1.6882719000022917,1588.8967120000016,None,1.6882719000022917,,,121 Silent,001,2022_Dec_01_1659,ProdSingRedoBetween,2021.2.3,59.963614079834464,
,,,,169,0,169,0,,,,,,,,,,,,,,,,,,,,,,1594.779158100002,None,,,,,,,,,,,,,,,,,review,161,170,silent,new,null,1591.1302015,None,1591.1302015,None,3,1.7107790000009118,1591.1302015,None,1.7107790000009118,1592.8617197000021,None,1593.3847112000003,None,1593.3847112000003,None,f,1.3763972999986436,1593.3847112000003,None,1.3763972999986436,,,121 Silent,001,2022_Dec_01_1659,ProdSingRedoBetween,2021.2.3,59.963614079834464,
,,,,170,0,170,0,,,,,,,,,,,,,,,,,,,,,,1604.5214298000028,None,,,,,,,,,,,,,,,,,thing,126,171,silent,new,null,1595.2902813,None,1595.2902813,None,4,6.9987507999976515,1595.2902813,None,6.9987507999976515,1602.321724100002,None,1602.8418359000025,None,1602.8418359000025,None,f,1.6551985000005516,1602.8418359000025,None,1.6551985000005516,,,121 Silent,001,2022_Dec_01_1659,ProdSingRedoBetween,2021.2.3,59.963614079834464,
,,,,171,0,171,0,,,,,,,,,,,,,,,,,,,,,,1609.5764391000012,None,,,,,,,,,,,,,,,,,relation,19,172,silent,old,yellow,1605.0259755000006,None,1605.0259755000006,None,2,2.5432261999994807,1605.0259755000006,None,2.5432261999994807,1607.6022413000028,None,1608.1131326000032,None,1608.1131326000032,None,n,1.4398457999996026,1608.1131326000032,None,1.4398457999996026,,,121 Silent,001,2022_Dec_01_1659,ProdSingRedoBetween,2021.2.3,59.963614079834464,
,,,,172,0,172,0,,,,,,,,,,,,,,,,,,,,,,1612.579479400003,None,,,,,,,,,,,,,,,,,quarter,101,173,silent,new,null,1610.0916942000003,None,1610.0916942000003,None,1,1.5972930999996606,1610.0916942000003,None,1.5972930999996606,1611.7191012000003,None,1612.2317438000027,None,1612.2317438000027,None,n,0.3213184000014735,1612.2317438000027,None,0.3213184000014735,,,121 Silent,001,2022_Dec_01_1659,ProdSingRedoBetween,2021.2.3,59.963614079834464,
,,,,173,0,173,0,,,,,,,,,,,,,,,,,,,,,,1616.5333240000036,None,,,,,,,,,,,,,,,,,split,0,174,silent,old,yellow,1613.0915614000005,None,1613.0915614000005,None,2,2.5253851000015857,1613.0915614000005,None,2.5253851000015857,1615.6339172000007,None,1616.1392962000027,None,1616.1392962000027,None,n,0.3657486999982211,1616.1392962000027,None,0.3657486999982211,,,121 Silent,001,2022_Dec_01_1659,ProdSingRedoBetween,2021.2.3,59.963614079834464,
