StudyLoop.thisRepN,StudyLoop.thisTrialN,StudyLoop.thisN,StudyLoop.thisIndex,TestLoop.thisRepN,TestLoop.thisTrialN,TestLoop.thisN,TestLoop.thisIndex,textCondition.started,textCondition.stopped,keyCondition.keys,keyCondition.rt,keyCondition.started,keyCondition.stopped,Condition,textWelcome.started,textWelcome.stopped,keyWelcome.keys,keyWelcome.rt,keyWelcome.started,keyWelcome.stopped,textAloud.started,textAloud.stopped,textSilent.started,textSilent.stopped,textSing.started,textSing.stopped,conditional_text.started,conditional_text.stopped,textBlank500.started,textBlank500.stopped,study_word,study_num,study_order,study_type,word_color,textStudy.started,textStudy.stopped,keyStudy.keys,keyStudy.started,keyStudy.stopped,keyStudy.rt,textTestInstructions.started,textTestInstructions.stopped,key_resp_3.keys,key_resp_3.rt,key_resp_3.started,key_resp_3.stopped,test_word,test_num,test_order,test_condition,old_new_test,test_word_original_color,textConf.started,textConf.stopped,textConfScale.started,textConfScale.stopped,keyConf.keys,keyConf.rt,keyConf.started,keyConf.stopped,confidence response time,textTestBlank.started,textTestBlank.stopped,textRKN.started,textRKN.stopped,textRKNScale.started,textRKNScale.stopped,keyRKN.keys,keyRKN.rt,keyRKN.started,keyRKN.stopped,rkn response time,textEnd.started,textEnd.stopped,participant,session,date,expName,psychopyVersion,frameRate,
,,,,,,,,20.12480869999854,None,b,5.435941200001253,20.12480869999854,None,,,,,,,,,,,,,,,,,,,,,,,,,,,,,,,,,,,,,,,,,,,,,,,,,,,,,,,,,,,,,,,122,001,2022_Dec_01_1732,ProdSingRedoBetween,2021.2.3,59.94043119902105,
,,,,,,,,,,,,,,AloudTest,25.616610299999593,None,space,347.46442430000025,25.616610299999593,None,,,,,,,,,,,,,,,,,,,,,,,,,,,,,,,,,,,,,,,,,,,,,,,,,,,,,,,,122,001,2022_Dec_01_1732,ProdSingRedoBetween,2021.2.3,59.94043119902105,
0,0,0,0,,,,,,,,,,,,,,,,,,25.616610299999593,None,25.616610299999593,None,25.616610299999593,None,25.616610299999593,None,375.62316649999775,None,guard,40,1,aloud,blue,373.6108701999983,None,None,373.6108701999983,None,,,,,,,,,,,,,,,,,,,,,,,,,,,,,,,,,,,,122,001,2022_Dec_01_1732,ProdSingRedoBetween,2021.2.3,59.94043119902105,
1,0,1,0,,,,,,,,,,,,,,,,,,,,,,,,,,378.1258381999978,None,finish,2,2,aloud,yellow,376.1263207999982,None,space,376.1263207999982,None,0.8348353000001225,,,,,,,,,,,,,,,,,,,,,,,,,,,,,,,,,,,122,001,2022_Dec_01_1732,ProdSingRedoBetween,2021.2.3,59.94043119902105,
2,0,2,0,,,,,,,,,,,,,,,,,,,,,,,,,,380.6448440999993,None,committee,54,3,aloud,blue,378.63416470000084,None,space,378.63416470000084,None,1.2551545999995142,,,,,,,,,,,,,,,,,,,,,,,,,,,,,,,,,,,122,001,2022_Dec_01_1732,ProdSingRedoBetween,2021.2.3,59.94043119902105,
3,0,3,0,,,,,,,,,,,,,,,,,,,,,,,,,,383.14756599999964,None,general,86,4,aloud,red,381.14533329999904,None,None,381.14533329999904,None,,,,,,,,,,,,,,,,,,,,,,,,,,,,,,,,,,,,122,001,2022_Dec_01_1732,ProdSingRedoBetween,2021.2.3,59.94043119902105,
4,0,4,0,,,,,,,,,,,,,,,,,,,,,,,,,,385.649987599998,None,blind,29,5,aloud,blue,383.6491532,None,None,383.6491532,None,,,,,,,,,,,,,,,,,,,,,,,,,,,,,,,,,,,,122,001,2022_Dec_01_1732,ProdSingRedoBetween,2021.2.3,59.94043119902105,
5,0,5,0,,,,,,,,,,,,,,,,,,,,,,,,,,388.16918670000086,None,sunset,38,6,aloud,blue,386.15386020000005,None,None,386.15386020000005,None,,,,,,,,,,,,,,,,,,,,,,,,,,,,,,,,,,,,122,001,2022_Dec_01_1732,ProdSingRedoBetween,2021.2.3,59.94043119902105,
6,0,6,0,,,,,,,,,,,,,,,,,,,,,,,,,,390.68835949999993,None,childhood,75,7,aloud,red,388.67907919999925,None,None,388.67907919999925,None,,,,,,,,,,,,,,,,,,,,,,,,,,,,,,,,,,,,122,001,2022_Dec_01_1732,ProdSingRedoBetween,2021.2.3,59.94043119902105,
7,0,7,0,,,,,,,,,,,,,,,,,,,,,,,,,,393.2072896999998,None,gesture,42,8,aloud,blue,391.19905359999757,None,None,391.19905359999757,None,,,,,,,,,,,,,,,,,,,,,,,,,,,,,,,,,,,,122,001,2022_Dec_01_1732,ProdSingRedoBetween,2021.2.3,59.94043119902105,
8,0,8,0,,,,,,,,,,,,,,,,,,,,,,,,,,395.71009720000075,None,household,52,9,aloud,blue,393.7093103999978,None,None,393.7093103999978,None,,,,,,,,,,,,,,,,,,,,,,,,,,,,,,,,,,,,122,001,2022_Dec_01_1732,ProdSingRedoBetween,2021.2.3,59.94043119902105,
9,0,9,0,,,,,,,,,,,,,,,,,,,,,,,,,,398.21261009999944,None,period,77,10,aloud,red,396.2128221999992,None,None,396.2128221999992,None,,,,,,,,,,,,,,,,,,,,,,,,,,,,,,,,,,,,122,001,2022_Dec_01_1732,ProdSingRedoBetween,2021.2.3,59.94043119902105,
10,0,10,0,,,,,,,,,,,,,,,,,,,,,,,,,,400.71506039999804,None,history,71,11,aloud,red,398.7156185999993,None,None,398.7156185999993,None,,,,,,,,,,,,,,,,,,,,,,,,,,,,,,,,,,,,122,001,2022_Dec_01_1732,ProdSingRedoBetween,2021.2.3,59.94043119902105,
11,0,11,0,,,,,,,,,,,,,,,,,,,,,,,,,,403.2175525999992,None,murder,68,12,aloud,red,401.2162983999988,None,None,401.2162983999988,None,,,,,,,,,,,,,,,,,,,,,,,,,,,,,,,,,,,,122,001,2022_Dec_01_1732,ProdSingRedoBetween,2021.2.3,59.94043119902105,
12,0,12,0,,,,,,,,,,,,,,,,,,,,,,,,,,405.73676390000037,None,detective,5,13,aloud,yellow,403.72442220000084,None,None,403.72442220000084,None,,,,,,,,,,,,,,,,,,,,,,,,,,,,,,,,,,,,122,001,2022_Dec_01_1732,ProdSingRedoBetween,2021.2.3,59.94043119902105,
13,0,13,0,,,,,,,,,,,,,,,,,,,,,,,,,,408.23936409999806,None,build,72,14,aloud,red,406.2369269999981,None,None,406.2369269999981,None,,,,,,,,,,,,,,,,,,,,,,,,,,,,,,,,,,,,122,001,2022_Dec_01_1732,ProdSingRedoBetween,2021.2.3,59.94043119902105,
14,0,14,0,,,,,,,,,,,,,,,,,,,,,,,,,,410.75840529999914,None,congress,44,15,aloud,blue,408.7489156999982,None,None,408.7489156999982,None,,,,,,,,,,,,,,,,,,,,,,,,,,,,,,,,,,,,122,001,2022_Dec_01_1732,ProdSingRedoBetween,2021.2.3,59.94043119902105,
15,0,15,0,,,,,,,,,,,,,,,,,,,,,,,,,,413.2610461999975,None,escape,84,16,aloud,red,411.25894889999836,None,None,411.25894889999836,None,,,,,,,,,,,,,,,,,,,,,,,,,,,,,,,,,,,,122,001,2022_Dec_01_1732,ProdSingRedoBetween,2021.2.3,59.94043119902105,
16,0,16,0,,,,,,,,,,,,,,,,,,,,,,,,,,415.7634395999994,None,problem,61,17,aloud,red,413.76427390000026,None,None,413.76427390000026,None,,,,,,,,,,,,,,,,,,,,,,,,,,,,,,,,,,,,122,001,2022_Dec_01_1732,ProdSingRedoBetween,2021.2.3,59.94043119902105,
17,0,17,0,,,,,,,,,,,,,,,,,,,,,,,,,,418.28271139999924,None,track,53,18,aloud,blue,416.2684401000006,None,None,416.2684401000006,None,,,,,,,,,,,,,,,,,,,,,,,,,,,,,,,,,,,,122,001,2022_Dec_01_1732,ProdSingRedoBetween,2021.2.3,59.94043119902105,
18,0,18,0,,,,,,,,,,,,,,,,,,,,,,,,,,420.8018943999996,None,primary,39,19,aloud,blue,418.78667779999887,None,None,418.78667779999887,None,,,,,,,,,,,,,,,,,,,,,,,,,,,,,,,,,,,,122,001,2022_Dec_01_1732,ProdSingRedoBetween,2021.2.3,59.94043119902105,
19,0,19,0,,,,,,,,,,,,,,,,,,,,,,,,,,423.3043394999986,None,trend,51,20,aloud,blue,421.3036175999987,None,None,421.3036175999987,None,,,,,,,,,,,,,,,,,,,,,,,,,,,,,,,,,,,,122,001,2022_Dec_01_1732,ProdSingRedoBetween,2021.2.3,59.94043119902105,
20,0,20,0,,,,,,,,,,,,,,,,,,,,,,,,,,425.82353769999827,None,quantity,6,21,aloud,yellow,423.8124554999995,None,None,423.8124554999995,None,,,,,,,,,,,,,,,,,,,,,,,,,,,,,,,,,,,,122,001,2022_Dec_01_1732,ProdSingRedoBetween,2021.2.3,59.94043119902105,
21,0,21,0,,,,,,,,,,,,,,,,,,,,,,,,,,428.32599539999865,None,heavy,76,22,aloud,red,426.32695239999885,None,None,426.32695239999885,None,,,,,,,,,,,,,,,,,,,,,,,,,,,,,,,,,,,,122,001,2022_Dec_01_1732,ProdSingRedoBetween,2021.2.3,59.94043119902105,
22,0,22,0,,,,,,,,,,,,,,,,,,,,,,,,,,430.84522079999806,None,figure,79,23,aloud,red,428.83219370000006,None,None,428.83219370000006,None,,,,,,,,,,,,,,,,,,,,,,,,,,,,,,,,,,,,122,001,2022_Dec_01_1732,ProdSingRedoBetween,2021.2.3,59.94043119902105,
23,0,23,0,,,,,,,,,,,,,,,,,,,,,,,,,,433.34772109999903,None,pretty,59,24,aloud,yellow,431.34752260000096,None,None,431.34752260000096,None,,,,,,,,,,,,,,,,,,,,,,,,,,,,,,,,,,,,122,001,2022_Dec_01_1732,ProdSingRedoBetween,2021.2.3,59.94043119902105,
24,0,24,0,,,,,,,,,,,,,,,,,,,,,,,,,,435.8501615999994,None,generation,37,25,aloud,blue,433.84868559999813,None,None,433.84868559999813,None,,,,,,,,,,,,,,,,,,,,,,,,,,,,,,,,,,,,122,001,2022_Dec_01_1732,ProdSingRedoBetween,2021.2.3,59.94043119902105,
25,0,25,0,,,,,,,,,,,,,,,,,,,,,,,,,,438.3693923999999,None,health,27,26,aloud,yellow,436.3588786,None,None,436.3588786,None,,,,,,,,,,,,,,,,,,,,,,,,,,,,,,,,,,,,122,001,2022_Dec_01_1732,ProdSingRedoBetween,2021.2.3,59.94043119902105,
26,0,26,0,,,,,,,,,,,,,,,,,,,,,,,,,,440.8719115999993,None,appeal,9,27,aloud,yellow,438.8716623,None,None,438.8716623,None,,,,,,,,,,,,,,,,,,,,,,,,,,,,,,,,,,,,122,001,2022_Dec_01_1732,ProdSingRedoBetween,2021.2.3,59.94043119902105,
27,0,27,0,,,,,,,,,,,,,,,,,,,,,,,,,,443.39104379999844,None,bucket,0,28,aloud,yellow,441.384764800001,None,None,441.384764800001,None,,,,,,,,,,,,,,,,,,,,,,,,,,,,,,,,,,,,122,001,2022_Dec_01_1732,ProdSingRedoBetween,2021.2.3,59.94043119902105,
28,0,28,0,,,,,,,,,,,,,,,,,,,,,,,,,,445.8936415999997,None,taste,17,29,aloud,yellow,443.89279499999975,None,None,443.89279499999975,None,,,,,,,,,,,,,,,,,,,,,,,,,,,,,,,,,,,,122,001,2022_Dec_01_1732,ProdSingRedoBetween,2021.2.3,59.94043119902105,
29,0,29,0,,,,,,,,,,,,,,,,,,,,,,,,,,448.41274859999976,None,addition,69,30,aloud,red,446.3984988000011,None,None,446.3984988000011,None,,,,,,,,,,,,,,,,,,,,,,,,,,,,,,,,,,,,122,001,2022_Dec_01_1732,ProdSingRedoBetween,2021.2.3,59.94043119902105,
30,0,30,0,,,,,,,,,,,,,,,,,,,,,,,,,,450.9152276999994,None,weight,43,31,aloud,blue,448.91356449999876,None,None,448.91356449999876,None,,,,,,,,,,,,,,,,,,,,,,,,,,,,,,,,,,,,122,001,2022_Dec_01_1732,ProdSingRedoBetween,2021.2.3,59.94043119902105,
31,0,31,0,,,,,,,,,,,,,,,,,,,,,,,,,,453.41776799999934,None,career,85,32,aloud,red,451.41646299999775,None,None,451.41646299999775,None,,,,,,,,,,,,,,,,,,,,,,,,,,,,,,,,,,,,122,001,2022_Dec_01_1732,ProdSingRedoBetween,2021.2.3,59.94043119902105,
32,0,32,0,,,,,,,,,,,,,,,,,,,,,,,,,,455.9370095999984,None,universal,62,33,aloud,red,453.9290336999984,None,None,453.9290336999984,None,,,,,,,,,,,,,,,,,,,,,,,,,,,,,,,,,,,,122,001,2022_Dec_01_1732,ProdSingRedoBetween,2021.2.3,59.94043119902105,
33,0,33,0,,,,,,,,,,,,,,,,,,,,,,,,,,458.4560598999997,None,master,30,34,aloud,blue,456.44183949999933,None,None,456.44183949999933,None,,,,,,,,,,,,,,,,,,,,,,,,,,,,,,,,,,,,122,001,2022_Dec_01_1732,ProdSingRedoBetween,2021.2.3,59.94043119902105,
34,0,34,0,,,,,,,,,,,,,,,,,,,,,,,,,,460.95855609999853,None,question,31,35,aloud,blue,458.95733299999847,None,None,458.95733299999847,None,,,,,,,,,,,,,,,,,,,,,,,,,,,,,,,,,,,,122,001,2022_Dec_01_1732,ProdSingRedoBetween,2021.2.3,59.94043119902105,
35,0,35,0,,,,,,,,,,,,,,,,,,,,,,,,,,463.4612061000007,None,charter,65,36,aloud,red,461.4616165000007,None,None,461.4616165000007,None,,,,,,,,,,,,,,,,,,,,,,,,,,,,,,,,,,,,122,001,2022_Dec_01_1732,ProdSingRedoBetween,2021.2.3,59.94043119902105,
36,0,36,0,,,,,,,,,,,,,,,,,,,,,,,,,,465.9802662000002,None,travel,80,37,aloud,red,463.9656952999976,None,None,463.9656952999976,None,,,,,,,,,,,,,,,,,,,,,,,,,,,,,,,,,,,,122,001,2022_Dec_01_1732,ProdSingRedoBetween,2021.2.3,59.94043119902105,
37,0,37,0,,,,,,,,,,,,,,,,,,,,,,,,,,468.4995844999976,None,personnel,12,38,aloud,yellow,466.49268609999854,None,None,466.49268609999854,None,,,,,,,,,,,,,,,,,,,,,,,,,,,,,,,,,,,,122,001,2022_Dec_01_1732,ProdSingRedoBetween,2021.2.3,59.94043119902105,
38,0,38,0,,,,,,,,,,,,,,,,,,,,,,,,,,471.0020154999984,None,clear,19,39,aloud,yellow,468.99970929999836,None,None,468.99970929999836,None,,,,,,,,,,,,,,,,,,,,,,,,,,,,,,,,,,,,122,001,2022_Dec_01_1732,ProdSingRedoBetween,2021.2.3,59.94043119902105,
39,0,39,0,,,,,,,,,,,,,,,,,,,,,,,,,,473.50451039999825,None,welcome,63,40,aloud,red,471.5053568000003,None,None,471.5053568000003,None,,,,,,,,,,,,,,,,,,,,,,,,,,,,,,,,,,,,122,001,2022_Dec_01_1732,ProdSingRedoBetween,2021.2.3,59.94043119902105,
40,0,40,0,,,,,,,,,,,,,,,,,,,,,,,,,,476.02366149999943,None,present,47,41,aloud,blue,474.01309599999877,None,None,474.01309599999877,None,,,,,,,,,,,,,,,,,,,,,,,,,,,,,,,,,,,,122,001,2022_Dec_01_1732,ProdSingRedoBetween,2021.2.3,59.94043119902105,
41,0,41,0,,,,,,,,,,,,,,,,,,,,,,,,,,478.5428594999976,None,character,34,42,aloud,blue,476.5275804999983,None,None,476.5275804999983,None,,,,,,,,,,,,,,,,,,,,,,,,,,,,,,,,,,,,122,001,2022_Dec_01_1732,ProdSingRedoBetween,2021.2.3,59.94043119902105,
42,0,42,0,,,,,,,,,,,,,,,,,,,,,,,,,,481.04533639999863,None,salary,87,43,aloud,red,479.04548760000034,None,None,479.04548760000034,None,,,,,,,,,,,,,,,,,,,,,,,,,,,,,,,,,,,,122,001,2022_Dec_01_1732,ProdSingRedoBetween,2021.2.3,59.94043119902105,
43,0,43,0,,,,,,,,,,,,,,,,,,,,,,,,,,483.56451390000075,None,trail,70,44,aloud,red,481.5537723999987,None,None,481.5537723999987,None,,,,,,,,,,,,,,,,,,,,,,,,,,,,,,,,,,,,122,001,2022_Dec_01_1732,ProdSingRedoBetween,2021.2.3,59.94043119902105,
44,0,44,0,,,,,,,,,,,,,,,,,,,,,,,,,,486.0670480999979,None,debate,1,45,aloud,yellow,484.0650069000003,None,None,484.0650069000003,None,,,,,,,,,,,,,,,,,,,,,,,,,,,,,,,,,,,,122,001,2022_Dec_01_1732,ProdSingRedoBetween,2021.2.3,59.94043119902105,
45,0,45,0,,,,,,,,,,,,,,,,,,,,,,,,,,488.56970229999934,None,literature,73,46,aloud,red,486.5694115999977,None,None,486.5694115999977,None,,,,,,,,,,,,,,,,,,,,,,,,,,,,,,,,,,,,122,001,2022_Dec_01_1732,ProdSingRedoBetween,2021.2.3,59.94043119902105,
46,0,46,0,,,,,,,,,,,,,,,,,,,,,,,,,,491.0886724000011,None,sleep,56,47,aloud,blue,489.08119459999944,None,None,489.08119459999944,None,,,,,,,,,,,,,,,,,,,,,,,,,,,,,,,,,,,,122,001,2022_Dec_01_1732,ProdSingRedoBetween,2021.2.3,59.94043119902105,
47,0,47,0,,,,,,,,,,,,,,,,,,,,,,,,,,493.5912107999975,None,background,10,48,aloud,yellow,491.5893546999978,None,None,491.5893546999978,None,,,,,,,,,,,,,,,,,,,,,,,,,,,,,,,,,,,,122,001,2022_Dec_01_1732,ProdSingRedoBetween,2021.2.3,59.94043119902105,
48,0,48,0,,,,,,,,,,,,,,,,,,,,,,,,,,496.09368449999965,None,guide,23,49,aloud,yellow,494.0922724000011,None,None,494.0922724000011,None,,,,,,,,,,,,,,,,,,,,,,,,,,,,,,,,,,,,122,001,2022_Dec_01_1732,ProdSingRedoBetween,2021.2.3,59.94043119902105,
49,0,49,0,,,,,,,,,,,,,,,,,,,,,,,,,,498.59632710000005,None,accident,78,50,aloud,red,496.59634949999963,None,None,496.59634949999963,None,,,,,,,,,,,,,,,,,,,,,,,,,,,,,,,,,,,,122,001,2022_Dec_01_1732,ProdSingRedoBetween,2021.2.3,59.94043119902105,
50,0,50,0,,,,,,,,,,,,,,,,,,,,,,,,,,501.11541059999945,None,plane,13,51,aloud,yellow,499.10141680000015,None,None,499.10141680000015,None,,,,,,,,,,,,,,,,,,,,,,,,,,,,,,,,,,,,122,001,2022_Dec_01_1732,ProdSingRedoBetween,2021.2.3,59.94043119902105,
51,0,51,0,,,,,,,,,,,,,,,,,,,,,,,,,,503.61791119999907,None,nation,46,52,aloud,blue,501.61731599999985,None,None,501.61731599999985,None,,,,,,,,,,,,,,,,,,,,,,,,,,,,,,,,,,,,122,001,2022_Dec_01_1732,ProdSingRedoBetween,2021.2.3,59.94043119902105,
52,0,52,0,,,,,,,,,,,,,,,,,,,,,,,,,,506.1203827999998,None,finance,21,53,aloud,yellow,504.1204746000003,None,None,504.1204746000003,None,,,,,,,,,,,,,,,,,,,,,,,,,,,,,,,,,,,,122,001,2022_Dec_01_1732,ProdSingRedoBetween,2021.2.3,59.94043119902105,
53,0,53,0,,,,,,,,,,,,,,,,,,,,,,,,,,508.6230078999979,None,material,16,54,aloud,yellow,506.6210403999976,None,None,506.6210403999976,None,,,,,,,,,,,,,,,,,,,,,,,,,,,,,,,,,,,,122,001,2022_Dec_01_1732,ProdSingRedoBetween,2021.2.3,59.94043119902105,
54,0,54,0,,,,,,,,,,,,,,,,,,,,,,,,,,511.1253915999987,None,shape,57,55,aloud,blue,509.1234363000003,None,None,509.1234363000003,None,,,,,,,,,,,,,,,,,,,,,,,,,,,,,,,,,,,,122,001,2022_Dec_01_1732,ProdSingRedoBetween,2021.2.3,59.94043119902105,
55,0,55,0,,,,,,,,,,,,,,,,,,,,,,,,,,513.6280554999976,None,discussion,74,56,aloud,red,511.62750640000013,None,None,511.62750640000013,None,,,,,,,,,,,,,,,,,,,,,,,,,,,,,,,,,,,,122,001,2022_Dec_01_1732,ProdSingRedoBetween,2021.2.3,59.94043119902105,
56,0,56,0,,,,,,,,,,,,,,,,,,,,,,,,,,516.1303784999982,None,prime,66,57,aloud,red,514.129780299998,None,None,514.129780299998,None,,,,,,,,,,,,,,,,,,,,,,,,,,,,,,,,,,,,122,001,2022_Dec_01_1732,ProdSingRedoBetween,2021.2.3,59.94043119902105,
57,0,57,0,,,,,,,,,,,,,,,,,,,,,,,,,,518.6329246999994,None,straight,25,58,aloud,yellow,516.6332015999978,None,None,516.6332015999978,None,,,,,,,,,,,,,,,,,,,,,,,,,,,,,,,,,,,,122,001,2022_Dec_01_1732,ProdSingRedoBetween,2021.2.3,59.94043119902105,
58,0,58,0,,,,,,,,,,,,,,,,,,,,,,,,,,521.1354047999994,None,guest,22,59,aloud,yellow,519.134481000001,None,None,519.134481000001,None,,,,,,,,,,,,,,,,,,,,,,,,,,,,,,,,,,,,122,001,2022_Dec_01_1732,ProdSingRedoBetween,2021.2.3,59.94043119902105,
59,0,59,0,,,,,,,,,,,,,,,,,,,,,,,,,,523.6379602999987,None,edition,60,60,aloud,red,521.6364699000005,None,None,521.6364699000005,None,,,,,,,,,,,,,,,,,,,,,,,,,,,,,,,,,,,,122,001,2022_Dec_01_1732,ProdSingRedoBetween,2021.2.3,59.94043119902105,
60,0,60,0,,,,,,,,,,,,,,,,,,,,,,,,,,526.1404005999975,None,bureau,33,61,aloud,blue,524.1390289999981,None,None,524.1390289999981,None,,,,,,,,,,,,,,,,,,,,,,,,,,,,,,,,,,,,122,001,2022_Dec_01_1732,ProdSingRedoBetween,2021.2.3,59.94043119902105,
61,0,61,0,,,,,,,,,,,,,,,,,,,,,,,,,,528.6597129000002,None,incident,26,62,aloud,yellow,526.6452997999986,None,None,526.6452997999986,None,,,,,,,,,,,,,,,,,,,,,,,,,,,,,,,,,,,,122,001,2022_Dec_01_1732,ProdSingRedoBetween,2021.2.3,59.94043119902105,
62,0,62,0,,,,,,,,,,,,,,,,,,,,,,,,,,531.1787824999992,None,attack,14,63,aloud,yellow,529.1662634999993,None,None,529.1662634999993,None,,,,,,,,,,,,,,,,,,,,,,,,,,,,,,,,,,,,122,001,2022_Dec_01_1732,ProdSingRedoBetween,2021.2.3,59.94043119902105,
63,0,63,0,,,,,,,,,,,,,,,,,,,,,,,,,,533.6979585000008,None,skill,55,64,aloud,blue,531.6839952999981,None,None,531.6839952999981,None,,,,,,,,,,,,,,,,,,,,,,,,,,,,,,,,,,,,122,001,2022_Dec_01_1732,ProdSingRedoBetween,2021.2.3,59.94043119902105,
64,0,64,0,,,,,,,,,,,,,,,,,,,,,,,,,,536.2171113000004,None,tragedy,24,65,aloud,yellow,534.2105229999979,None,None,534.2105229999979,None,,,,,,,,,,,,,,,,,,,,,,,,,,,,,,,,,,,,122,001,2022_Dec_01_1732,ProdSingRedoBetween,2021.2.3,59.94043119902105,
65,0,65,0,,,,,,,,,,,,,,,,,,,,,,,,,,538.7360789999984,None,executive,32,66,aloud,blue,536.7343427999986,None,None,536.7343427999986,None,,,,,,,,,,,,,,,,,,,,,,,,,,,,,,,,,,,,122,001,2022_Dec_01_1732,ProdSingRedoBetween,2021.2.3,59.94043119902105,
66,0,66,0,,,,,,,,,,,,,,,,,,,,,,,,,,541.2388334999996,None,stand,81,67,aloud,red,539.2368533999979,None,None,539.2368533999979,None,,,,,,,,,,,,,,,,,,,,,,,,,,,,,,,,,,,,122,001,2022_Dec_01_1732,ProdSingRedoBetween,2021.2.3,59.94043119902105,
67,0,67,0,,,,,,,,,,,,,,,,,,,,,,,,,,543.758021499998,None,display,7,68,aloud,yellow,541.7455446999993,None,None,541.7455446999993,None,,,,,,,,,,,,,,,,,,,,,,,,,,,,,,,,,,,,122,001,2022_Dec_01_1732,ProdSingRedoBetween,2021.2.3,59.94043119902105,
68,0,68,0,,,,,,,,,,,,,,,,,,,,,,,,,,546.2772261999999,None,dozen,36,69,aloud,blue,544.2683307000007,None,None,544.2683307000007,None,,,,,,,,,,,,,,,,,,,,,,,,,,,,,,,,,,,,122,001,2022_Dec_01_1732,ProdSingRedoBetween,2021.2.3,59.94043119902105,
69,0,69,0,,,,,,,,,,,,,,,,,,,,,,,,,,548.7797656000002,None,growth,41,70,aloud,blue,546.7807766999977,None,None,546.7807766999977,None,,,,,,,,,,,,,,,,,,,,,,,,,,,,,,,,,,,,122,001,2022_Dec_01_1732,ProdSingRedoBetween,2021.2.3,59.94043119902105,
70,0,70,0,,,,,,,,,,,,,,,,,,,,,,,,,,551.2989135999997,None,poetry,3,71,aloud,yellow,549.2908871,None,None,549.2908871,None,,,,,,,,,,,,,,,,,,,,,,,,,,,,,,,,,,,,122,001,2022_Dec_01_1732,ProdSingRedoBetween,2021.2.3,59.94043119902105,
71,0,71,0,,,,,,,,,,,,,,,,,,,,,,,,,,553.8013609000009,None,territory,64,72,aloud,red,551.7994388000006,None,None,551.7994388000006,None,,,,,,,,,,,,,,,,,,,,,,,,,,,,,,,,,,,,122,001,2022_Dec_01_1732,ProdSingRedoBetween,2021.2.3,59.94043119902105,
72,0,72,0,,,,,,,,,,,,,,,,,,,,,,,,,,556.3039153999998,None,order,58,73,aloud,blue,554.3020552999988,None,None,554.3020552999988,None,,,,,,,,,,,,,,,,,,,,,,,,,,,,,,,,,,,,122,001,2022_Dec_01_1732,ProdSingRedoBetween,2021.2.3,59.94043119902105,
73,0,73,0,,,,,,,,,,,,,,,,,,,,,,,,,,558.8065209999986,None,rural,67,74,aloud,red,556.8065643000009,None,None,556.8065643000009,None,,,,,,,,,,,,,,,,,,,,,,,,,,,,,,,,,,,,122,001,2022_Dec_01_1732,ProdSingRedoBetween,2021.2.3,59.94043119902105,
74,0,74,0,,,,,,,,,,,,,,,,,,,,,,,,,,561.3089407000007,None,direction,50,75,aloud,blue,559.3098138999994,None,None,559.3098138999994,None,,,,,,,,,,,,,,,,,,,,,,,,,,,,,,,,,,,,122,001,2022_Dec_01_1732,ProdSingRedoBetween,2021.2.3,59.94043119902105,
75,0,75,0,,,,,,,,,,,,,,,,,,,,,,,,,,563.8279379999985,None,range,11,76,aloud,yellow,561.8128961000002,None,None,561.8128961000002,None,,,,,,,,,,,,,,,,,,,,,,,,,,,,,,,,,,,,122,001,2022_Dec_01_1732,ProdSingRedoBetween,2021.2.3,59.94043119902105,
76,0,76,0,,,,,,,,,,,,,,,,,,,,,,,,,,566.3306217999998,None,light,45,77,aloud,blue,564.3286473000007,None,None,564.3286473000007,None,,,,,,,,,,,,,,,,,,,,,,,,,,,,,,,,,,,,122,001,2022_Dec_01_1732,ProdSingRedoBetween,2021.2.3,59.94043119902105,
77,0,77,0,,,,,,,,,,,,,,,,,,,,,,,,,,568.8351101999979,None,south,28,78,aloud,yellow,566.8319492999981,None,None,566.8319492999981,None,,,,,,,,,,,,,,,,,,,,,,,,,,,,,,,,,,,,122,001,2022_Dec_01_1732,ProdSingRedoBetween,2021.2.3,59.94043119902105,
78,0,78,0,,,,,,,,,,,,,,,,,,,,,,,,,,571.368994299999,None,trash,83,79,aloud,red,569.3590803000006,None,None,569.3590803000006,None,,,,,,,,,,,,,,,,,,,,,,,,,,,,,,,,,,,,122,001,2022_Dec_01_1732,ProdSingRedoBetween,2021.2.3,59.94043119902105,
79,0,79,0,,,,,,,,,,,,,,,,,,,,,,,,,,573.8714332999989,None,brilliant,48,80,aloud,blue,571.8695148999977,None,None,571.8695148999977,None,,,,,,,,,,,,,,,,,,,,,,,,,,,,,,,,,,,,122,001,2022_Dec_01_1732,ProdSingRedoBetween,2021.2.3,59.94043119902105,
80,0,80,0,,,,,,,,,,,,,,,,,,,,,,,,,,576.3908157000005,None,citizen,15,81,aloud,yellow,574.3820730000007,None,None,574.3820730000007,None,,,,,,,,,,,,,,,,,,,,,,,,,,,,,,,,,,,,122,001,2022_Dec_01_1732,ProdSingRedoBetween,2021.2.3,59.94043119902105,
81,0,81,0,,,,,,,,,,,,,,,,,,,,,,,,,,578.8931900999996,None,music,49,82,aloud,blue,576.8912878999981,None,None,576.8912878999981,None,,,,,,,,,,,,,,,,,,,,,,,,,,,,,,,,,,,,122,001,2022_Dec_01_1732,ProdSingRedoBetween,2021.2.3,59.94043119902105,
82,0,82,0,,,,,,,,,,,,,,,,,,,,,,,,,,581.4125294000005,None,broke,35,83,aloud,blue,579.4006408999994,None,None,579.4006408999994,None,,,,,,,,,,,,,,,,,,,,,,,,,,,,,,,,,,,,122,001,2022_Dec_01_1732,ProdSingRedoBetween,2021.2.3,59.94043119902105,
83,0,83,0,,,,,,,,,,,,,,,,,,,,,,,,,,583.9148937999998,None,cousin,88,84,aloud,red,581.9137339999979,None,None,581.9137339999979,None,,,,,,,,,,,,,,,,,,,,,,,,,,,,,,,,,,,,122,001,2022_Dec_01_1732,ProdSingRedoBetween,2021.2.3,59.94043119902105,
84,0,84,0,,,,,,,,,,,,,,,,,,,,,,,,,,586.4340578999982,None,quiet,4,85,aloud,yellow,584.4225296000004,None,None,584.4225296000004,None,,,,,,,,,,,,,,,,,,,,,,,,,,,,,,,,,,,,122,001,2022_Dec_01_1732,ProdSingRedoBetween,2021.2.3,59.94043119902105,
85,0,85,0,,,,,,,,,,,,,,,,,,,,,,,,,,588.9532703999976,None,bitter,8,86,aloud,yellow,586.9439456,None,None,586.9439456,None,,,,,,,,,,,,,,,,,,,,,,,,,,,,,,,,,,,,122,001,2022_Dec_01_1732,ProdSingRedoBetween,2021.2.3,59.94043119902105,
86,0,86,0,,,,,,,,,,,,,,,,,,,,,,,,,,591.4557357999984,None,store,20,87,aloud,yellow,589.4566702000011,None,None,589.4566702000011,None,,,,,,,,,,,,,,,,,,,,,,,,,,,,,,,,,,,,122,001,2022_Dec_01_1732,ProdSingRedoBetween,2021.2.3,59.94043119902105,
87,0,87,0,,,,,,,,,,,,,,,,,,,,,,,,,,593.9582363000009,None,route,82,88,aloud,red,591.9580901000008,None,None,591.9580901000008,None,,,,,,,,,,,,,,,,,,,,,,,,,,,,,,,,,,,,122,001,2022_Dec_01_1732,ProdSingRedoBetween,2021.2.3,59.94043119902105,
88,0,88,0,,,,,,,,,,,,,,,,,,,,,,,,,,596.4790300999994,None,atmosphere,18,89,aloud,yellow,594.4657110999979,None,None,594.4657110999979,None,,,,,,,,,,,,,,,,,,,,,,,,,,,,,,,,,,,,122,001,2022_Dec_01_1732,ProdSingRedoBetween,2021.2.3,59.94043119902105,
89,0,89,0,,,,,,,,,,,,,,,,,,,,,,,,,,598.9799285000008,None,little,89,90,aloud,red,596.9805386999979,None,None,596.9805386999979,None,,,,,,,,,,,,,,,,,,,,,,,,,,,,,,,,,,,,122,001,2022_Dec_01_1732,ProdSingRedoBetween,2021.2.3,59.94043119902105,
,,,,,,,,,,,,,,,,,,,,,,,,,,,,,,,,,,,,,,,,,,599.4806691999984,None,k,198.04856149999978,599.4806691999984,None,,,,,,,,,,,,,,,,,,,,,,,,,,,,,122,001,2022_Dec_01_1732,ProdSingRedoBetween,2021.2.3,59.94043119902105,
,,,,0,0,0,0,,,,,,,,,,,,,,,,,,,,,,820.8101654999991,None,,,,,,,,,,,,,,,,,,testimony,168,1,aloud,new,null,798.0471066999999,None,798.0471066999999,None,4,17.33021219999864,798.0471066999999,None,17.33021219999864,815.4009800999993,None,815.9251255999989,None,815.9251255999989,None,r,4.860141099998145,815.9251255999989,None,4.860141099998145,,,122,001,2022_Dec_01_1732,ProdSingRedoBetween,2021.2.3,59.94043119902105,
,,,,1,0,1,0,,,,,,,,,,,,,,,,,,,,,,831.8149343999976,None,,,,,,,,,,,,,,,,,,month,125,2,aloud,new,null,821.3230345000011,None,821.3230345000011,None,5,8.646244500003377,821.3230345000011,None,8.646244500003377,830.0010684999979,None,830.5131990000009,None,830.5131990000009,None,f,1.272133099999337,830.5131990000009,None,1.272133099999337,,,122,001,2022_Dec_01_1732,ProdSingRedoBetween,2021.2.3,59.94043119902105,
,,,,2,0,2,0,,,,,,,,,,,,,,,,,,,,,,838.6360303000001,None,,,,,,,,,,,,,,,,,,period,77,3,aloud,old,red,832.3342620000003,None,832.3342620000003,None,6,4.194965700000466,832.3342620000003,None,4.194965700000466,836.5547091999979,None,837.0733108999993,None,837.0733108999993,None,r,1.53582649999953,837.0733108999993,None,1.53582649999953,,,122,001,2022_Dec_01_1732,ProdSingRedoBetween,2021.2.3,59.94043119902105,
,,,,3,0,3,0,,,,,,,,,,,,,,,,,,,,,,844.9423089999982,None,,,,,,,,,,,,,,,,,,light,45,4,aloud,old,blue,839.1446754999997,None,839.1446754999997,None,4,4.256483700002718,839.1446754999997,None,4.256483700002718,843.4252656999997,None,843.9291505000001,None,843.9291505000001,None,f,0.9921739000019443,843.9291505000001,None,0.9921739000019443,,,122,001,2022_Dec_01_1732,ProdSingRedoBetween,2021.2.3,59.94043119902105,
,,,,4,0,4,0,,,,,,,,,,,,,,,,,,,,,,849.0965493000003,None,,,,,,,,,,,,,,,,,,brilliant,48,5,aloud,old,blue,845.4518726999995,None,845.4518726999995,None,4,2.261436299999332,845.4518726999995,None,2.261436299999332,847.7381423999977,None,848.2455900999994,None,848.2455900999994,None,f,0.8275804000004428,848.2455900999994,None,0.8275804000004428,,,122,001,2022_Dec_01_1732,ProdSingRedoBetween,2021.2.3,59.94043119902105,
,,,,5,0,5,0,,,,,,,,,,,,,,,,,,,,,,853.1173288999998,None,,,,,,,,,,,,,,,,,,guest,22,6,aloud,old,yellow,849.607130299999,None,849.607130299999,None,5,1.714068600002065,849.607130299999,None,1.714068600002065,851.3523921999986,None,851.8727250999982,None,851.8727250999982,None,r,1.2164680999994744,851.8727250999982,None,1.2164680999994744,,,122,001,2022_Dec_01_1732,ProdSingRedoBetween,2021.2.3,59.94043119902105,
,,,,6,0,6,0,,,,,,,,,,,,,,,,,,,,,,860.1616548999991,None,,,,,,,,,,,,,,,,,,order,58,7,aloud,old,blue,853.6202812999982,None,853.6202812999982,None,3,4.860947599998326,853.6202812999982,None,4.860947599998326,858.5056198999991,None,859.0108490999992,None,859.0108490999992,None,f,1.1264917999978934,859.0108490999992,None,1.1264917999978934,,,122,001,2022_Dec_01_1732,ProdSingRedoBetween,2021.2.3,59.94043119902105,
,,,,7,0,7,0,,,,,,,,,,,,,,,,,,,,,,864.8288553999992,None,,,,,,,,,,,,,,,,,,owner,145,8,aloud,new,null,860.6867669999992,None,860.6867669999992,None,3,1.8344972999984748,860.6867669999992,None,1.8344972999984748,862.5510585999982,None,863.0730000000003,None,863.0730000000003,None,f,1.72831270000097,863.0730000000003,None,1.72831270000097,,,122,001,2022_Dec_01_1732,ProdSingRedoBetween,2021.2.3,59.94043119902105,
,,,,8,0,8,0,,,,,,,,,,,,,,,,,,,,,,869.6425997000006,None,,,,,,,,,,,,,,,,,,incident,26,9,aloud,old,yellow,865.3414015999988,None,865.3414015999988,None,4,3.3317066000017803,865.3414015999988,None,3.3317066000017803,868.7004041,None,869.2036913000011,None,869.2036913000011,None,r,0.4058965000003809,869.2036913000011,None,0.4058965000003809,,,122,001,2022_Dec_01_1732,ProdSingRedoBetween,2021.2.3,59.94043119902105,
,,,,9,0,9,0,,,,,,,,,,,,,,,,,,,,,,873.3742692999986,None,,,,,,,,,,,,,,,,,,display,7,10,aloud,old,yellow,870.1509422999989,None,870.1509422999989,None,5,2.330245699999068,870.1509422999989,None,2.330245699999068,872.5046624999995,None,873.0100543999979,None,873.0100543999979,None,r,0.3353395999984059,873.0100543999979,None,0.3353395999984059,,,122,001,2022_Dec_01_1732,ProdSingRedoBetween,2021.2.3,59.94043119902105,
,,,,10,0,10,0,,,,,,,,,,,,,,,,,,,,,,877.8585597999991,None,,,,,,,,,,,,,,,,,,benefit,174,11,aloud,new,null,873.8929854999988,None,873.8929854999988,None,3,2.76425559999916,873.8929854999988,None,2.76425559999916,876.6821573999987,None,877.1949653000011,None,877.1949653000011,None,f,0.6462085999992269,877.1949653000011,None,0.6462085999992269,,,122,001,2022_Dec_01_1732,ProdSingRedoBetween,2021.2.3,59.94043119902105,
,,,,11,0,11,0,,,,,,,,,,,,,,,,,,,,,,881.1810627999985,None,,,,,,,,,,,,,,,,,,sleep,56,12,aloud,old,blue,878.3707809000007,None,878.3707809000007,None,6,1.854705899997498,878.3707809000007,None,1.854705899997498,880.2582187000007,None,880.7660408999982,None,880.7660408999982,None,r,0.3873251999975764,880.7660408999982,None,0.3873251999975764,,,122,001,2022_Dec_01_1732,ProdSingRedoBetween,2021.2.3,59.94043119902105,
,,,,12,0,12,0,,,,,,,,,,,,,,,,,,,,,,887.4514614,None,,,,,,,,,,,,,,,,,,rapid,99,13,aloud,new,null,881.7024265,None,881.7024265,None,2,2.2509599000004528,881.7024265,None,2.2509599000004528,883.9880430999983,None,884.5071102000002,None,884.5071102000002,None,n,2.926109299998643,884.5071102000002,None,2.926109299998643,,,122,001,2022_Dec_01_1732,ProdSingRedoBetween,2021.2.3,59.94043119902105,
,,,,13,0,13,0,,,,,,,,,,,,,,,,,,,,,,890.9226024999989,None,,,,,,,,,,,,,,,,,,rural,67,14,aloud,old,red,887.9633844999989,None,887.9633844999989,None,6,1.5256735000002664,887.9633844999989,None,1.5256735000002664,889.523513600001,None,890.0391319000009,None,890.0391319000009,None,r,0.8581464999988384,890.0391319000009,None,0.8581464999988384,,,122,001,2022_Dec_01_1732,ProdSingRedoBetween,2021.2.3,59.94043119902105,
,,,,14,0,14,0,,,,,,,,,,,,,,,,,,,,,,894.1093321999979,None,,,,,,,,,,,,,,,,,,atmosphere,18,15,aloud,old,yellow,891.4385968999995,None,891.4385968999995,None,6,1.5227018000005046,891.4385968999995,None,1.5227018000005046,892.993882499999,None,893.5174894999982,None,893.5174894999982,None,r,0.5637898000022687,893.5174894999982,None,0.5637898000022687,,,122,001,2022_Dec_01_1732,ProdSingRedoBetween,2021.2.3,59.94043119902105,
,,,,15,0,15,0,,,,,,,,,,,,,,,,,,,,,,897.3113660999988,None,,,,,,,,,,,,,,,,,,mechanical,100,16,aloud,new,null,894.6194563999998,None,894.6194563999998,None,4,1.797947999999451,894.6194563999998,None,1.797947999999451,896.4447173000008,None,896.9485425999992,None,896.9485425999992,None,r,0.33272479999868665,896.9485425999992,None,0.33272479999868665,,,122,001,2022_Dec_01_1732,ProdSingRedoBetween,2021.2.3,59.94043119902105,
,,,,16,0,16,0,,,,,,,,,,,,,,,,,,,,,,901.0650631999997,None,,,,,,,,,,,,,,,,,,range,11,17,aloud,old,yellow,897.8259603000006,None,897.8259603000006,None,3,2.1512905999989016,897.8259603000006,None,2.1512905999989016,900.0021679999991,None,900.5180302000008,None,900.5180302000008,None,f,0.5311982000021089,900.5180302000008,None,0.5311982000021089,,,122,001,2022_Dec_01_1732,ProdSingRedoBetween,2021.2.3,59.94043119902105,
,,,,17,0,17,0,,,,,,,,,,,,,,,,,,,,,,905.6363042999983,None,,,,,,,,,,,,,,,,,,addition,69,18,aloud,old,red,901.5687730999998,None,901.5687730999998,None,5,3.192445399999997,901.5687730999998,None,3.192445399999997,904.7864950000003,None,905.2918988999991,None,905.2918988999991,None,r,0.3173200999990513,905.2918988999991,None,0.3173200999990513,,,122,001,2022_Dec_01_1732,ProdSingRedoBetween,2021.2.3,59.94043119902105,
,,,,18,0,18,0,,,,,,,,,,,,,,,,,,,,,,909.9907492999992,None,,,,,,,,,,,,,,,,,,citizen,15,19,aloud,old,yellow,906.1528264999979,None,906.1528264999979,None,5,2.0085866000008537,906.1528264999979,None,2.0085866000008537,908.1957944999995,None,908.7112142999977,None,908.7112142999977,None,r,1.2579673000000184,908.7112142999977,None,1.2579673000000184,,,122,001,2022_Dec_01_1732,ProdSingRedoBetween,2021.2.3,59.94043119902105,
,,,,19,0,19,0,,,,,,,,,,,,,,,,,,,,,,915.3624629000005,None,,,,,,,,,,,,,,,,,,quiet,4,20,aloud,old,yellow,910.5130499999977,None,910.5130499999977,None,6,3.9123082000005525,910.5130499999977,None,3.9123082000005525,914.4569913999985,None,914.9691886,None,914.9691886,None,r,0.3760030999983428,914.9691886,None,0.3760030999983428,,,122,001,2022_Dec_01_1732,ProdSingRedoBetween,2021.2.3,59.94043119902105,
,,,,20,0,20,0,,,,,,,,,,,,,,,,,,,,,,918.1012259999989,None,,,,,,,,,,,,,,,,,,plane,13,21,aloud,old,yellow,915.8703076999991,None,915.8703076999991,None,6,1.2909146000019973,915.8703076999991,None,1.2909146000019973,917.1826717000004,None,917.6887336,None,917.6887336,None,r,0.3846339999981865,917.6887336,None,0.3846339999981865,,,122,001,2022_Dec_01_1732,ProdSingRedoBetween,2021.2.3,59.94043119902105,
,,,,21,0,21,0,,,,,,,,,,,,,,,,,,,,,,922.1362336999991,None,,,,,,,,,,,,,,,,,,heavy,76,22,aloud,old,red,918.6266950999998,None,918.6266950999998,None,3,2.566685400001006,918.6266950999998,None,2.566685400001006,921.231665299998,None,921.7384251000003,None,921.7384251000003,None,f,0.3747852000014973,921.7384251000003,None,0.3747852000014973,,,122,001,2022_Dec_01_1732,ProdSingRedoBetween,2021.2.3,59.94043119902105,
,,,,22,0,22,0,,,,,,,,,,,,,,,,,,,,,,925.4395303999991,None,,,,,,,,,,,,,,,,,,weight,43,23,aloud,old,blue,922.6462934999981,None,922.6462934999981,None,3,1.682878299998265,922.6462934999981,None,1.682878299998265,924.3564283999985,None,924.8617287999987,None,924.8617287999987,None,f,0.5554930999969656,924.8617287999987,None,0.5554930999969656,,,122,001,2022_Dec_01_1732,ProdSingRedoBetween,2021.2.3,59.94043119902105,
,,,,23,0,23,0,,,,,,,,,,,,,,,,,,,,,,930.3448571000008,None,,,,,,,,,,,,,,,,,,quantity,6,24,aloud,old,yellow,925.9529388999981,None,925.9529388999981,None,4,3.4562622999983432,925.9529388999981,None,3.4562622999983432,929.4311792000008,None,929.9470665000008,None,929.9470665000008,None,r,0.36620309999852907,929.9470665000008,None,0.36620309999852907,,,122,001,2022_Dec_01_1732,ProdSingRedoBetween,2021.2.3,59.94043119902105,
,,,,24,0,24,0,,,,,,,,,,,,,,,,,,,,,,937.2740956999987,None,,,,,,,,,,,,,,,,,,mankind,137,25,aloud,new,null,930.8594091999985,None,930.8594091999985,None,1,3.2378026000005775,930.8594091999985,None,3.2378026000005775,934.1183806000008,None,934.6389197999997,None,934.6389197999997,None,n,2.6023363000022073,934.6389197999997,None,2.6023363000022073,,,122,001,2022_Dec_01_1732,ProdSingRedoBetween,2021.2.3,59.94043119902105,
,,,,25,0,25,0,,,,,,,,,,,,,,,,,,,,,,941.4054168000002,None,,,,,,,,,,,,,,,,,,breath,134,26,aloud,new,null,937.7904374999998,None,937.7904374999998,None,2,1.754756800000905,937.7904374999998,None,1.754756800000905,939.5739850999998,None,940.0896128999993,None,940.0896128999993,None,n,1.2876773999996658,940.0896128999993,None,1.2876773999996658,,,122,001,2022_Dec_01_1732,ProdSingRedoBetween,2021.2.3,59.94043119902105,
,,,,26,0,26,0,,,,,,,,,,,,,,,,,,,,,,947.4293003999992,None,,,,,,,,,,,,,,,,,,problem,61,27,aloud,old,red,941.9169809999985,None,941.9169809999985,None,2,3.788297099999909,941.9169809999985,None,3.788297099999909,945.7298841999982,None,946.2536256999992,None,946.2536256999992,None,n,1.155715799999598,946.2536256999992,None,1.155715799999598,,,122,001,2022_Dec_01_1732,ProdSingRedoBetween,2021.2.3,59.94043119902105,
,,,,27,0,27,0,,,,,,,,,,,,,,,,,,,,,,951.4547705999976,None,,,,,,,,,,,,,,,,,,instrument,141,28,aloud,new,null,947.9427700999986,None,947.9427700999986,None,4,2.5785725000023376,947.9427700999986,None,2.5785725000023376,950.5547480999994,None,951.0697385999993,None,951.0697385999993,None,f,0.3556983000016771,951.0697385999993,None,0.3556983000016771,,,122,001,2022_Dec_01_1732,ProdSingRedoBetween,2021.2.3,59.94043119902105,
,,,,28,0,28,0,,,,,,,,,,,,,,,,,,,,,,955.9866422999985,None,,,,,,,,,,,,,,,,,,population,135,29,aloud,new,null,951.9754556000007,None,951.9754556000007,None,3,3.11391740000181,951.9754556000007,None,3.11391740000181,955.1304763000007,None,955.6390763999989,None,955.6390763999989,None,f,0.3301446000004944,955.6390763999989,None,0.3301446000004944,,,122,001,2022_Dec_01_1732,ProdSingRedoBetween,2021.2.3,59.94043119902105,
,,,,29,0,29,0,,,,,,,,,,,,,,,,,,,,,,959.409180300001,None,,,,,,,,,,,,,,,,,,poetry,3,30,aloud,old,yellow,956.4982660999995,None,956.4982660999995,None,6,2.0471386999997776,956.4982660999995,None,2.0471386999997776,958.5869254999998,None,959.0898835000007,None,959.0898835000007,None,r,0.2955188000014459,959.0898835000007,None,0.2955188000014459,,,122,001,2022_Dec_01_1732,ProdSingRedoBetween,2021.2.3,59.94043119902105,
,,,,30,0,30,0,,,,,,,,,,,,,,,,,,,,,,965.4794089999996,None,,,,,,,,,,,,,,,,,,present,47,31,aloud,old,blue,959.9287930999999,None,959.9287930999999,None,3,4.648425899998983,959.9287930999999,None,4.648425899998983,964.5970448000007,None,965.1165168999978,None,965.1165168999978,None,f,0.3327114999992773,965.1165168999978,None,0.3327114999992773,,,122,001,2022_Dec_01_1732,ProdSingRedoBetween,2021.2.3,59.94043119902105,
,,,,31,0,31,0,,,,,,,,,,,,,,,,,,,,,,971.1574751999979,None,,,,,,,,,,,,,,,,,,account,117,32,aloud,new,null,965.9817121999986,None,965.9817121999986,None,2,2.9396038000013505,965.9817121999986,None,2.9396038000013505,968.9527883999981,None,969.4715907999998,None,969.4715907999998,None,n,1.6577298999982304,969.4715907999998,None,1.6577298999982304,,,122,001,2022_Dec_01_1732,ProdSingRedoBetween,2021.2.3,59.94043119902105,
,,,,32,0,32,0,,,,,,,,,,,,,,,,,,,,,,974.5081820999985,None,,,,,,,,,,,,,,,,,,column,112,33,aloud,new,null,971.6894183999975,None,971.6894183999975,None,1,1.4718657000012172,971.6894183999975,None,1.4718657000012172,973.1916339999989,None,973.7092056000001,None,973.7092056000001,None,n,0.7722438000018883,973.7092056000001,None,0.7722438000018883,,,122,001,2022_Dec_01_1732,ProdSingRedoBetween,2021.2.3,59.94043119902105,
,,,,33,0,33,0,,,,,,,,,,,,,,,,,,,,,,978.8762473999996,None,,,,,,,,,,,,,,,,,,universal,62,34,aloud,old,red,975.0317251999986,None,975.0317251999986,None,5,2.929641200000333,975.0317251999986,None,2.929641200000333,978.0039485999987,None,978.512522699999,None,978.512522699999,None,r,0.3448141000008036,978.512522699999,None,0.3448141000008036,,,122,001,2022_Dec_01_1732,ProdSingRedoBetween,2021.2.3,59.94043119902105,
,,,,34,0,34,0,,,,,,,,,,,,,,,,,,,,,,983.7855380000001,None,,,,,,,,,,,,,,,,,,edition,60,35,aloud,old,red,979.3841900000007,None,979.3841900000007,None,4,3.337059000001318,979.3841900000007,None,3.337059000001318,982.7526505999995,None,983.2640944999985,None,983.2640944999985,None,f,0.4972352000004321,983.2640944999985,None,0.4972352000004321,,,122,001,2022_Dec_01_1732,ProdSingRedoBetween,2021.2.3,59.94043119902105,
,,,,35,0,35,0,,,,,,,,,,,,,,,,,,,,,,991.039347599999,None,,,,,,,,,,,,,,,,,,travel,80,36,aloud,old,red,984.3013022999985,None,984.3013022999985,None,3,2.1959421999999904,984.3013022999985,None,2.1959421999999904,986.5189977000009,None,987.0215614000008,None,987.0215614000008,None,n,3.987849200002529,987.0215614000008,None,3.987849200002529,,,122,001,2022_Dec_01_1732,ProdSingRedoBetween,2021.2.3,59.94043119902105,
,,,,36,0,36,0,,,,,,,,,,,,,,,,,,,,,,999.3483123999977,None,,,,,,,,,,,,,,,,,,trend,51,37,aloud,old,blue,991.5527206999977,None,991.5527206999977,None,3,4.95249049999984,991.5527206999977,None,4.95249049999984,996.5283426999995,None,997.0311211999979,None,997.0311211999979,None,f,2.298266699999658,997.0311211999979,None,2.298266699999658,,,122,001,2022_Dec_01_1732,ProdSingRedoBetween,2021.2.3,59.94043119902105,
,,,,37,0,37,0,,,,,,,,,,,,,,,,,,,,,,1002.4496914999982,None,,,,,,,,,,,,,,,,,,health,27,38,aloud,old,yellow,999.8698718999985,None,999.8698718999985,None,6,1.7793735999985074,999.8698718999985,None,1.7793735999985074,1001.6656560999982,None,1002.1680828999997,None,1002.1680828999997,None,r,0.25716820000161533,1002.1680828999997,None,0.25716820000161533,,,122,001,2022_Dec_01_1732,ProdSingRedoBetween,2021.2.3,59.94043119902105,
,,,,38,0,38,0,,,,,,,,,,,,,,,,,,,,,,1005.4703726000007,None,,,,,,,,,,,,,,,,,,couch,136,39,aloud,new,null,1002.9582740000005,None,1002.9582740000005,None,1,1.539058300000761,1002.9582740000005,None,1.539058300000761,1004.526284399999,None,1005.0362377999991,None,1005.0362377999991,None,n,0.4130516000004718,1005.0362377999991,None,0.4130516000004718,,,122,001,2022_Dec_01_1732,ProdSingRedoBetween,2021.2.3,59.94043119902105,
,,,,39,0,39,0,,,,,,,,,,,,,,,,,,,,,,1010.5245608999976,None,,,,,,,,,,,,,,,,,,minor,161,40,aloud,new,null,1005.9715352999992,None,1005.9715352999992,None,2,3.565788399999292,1005.9715352999992,None,3.565788399999292,1009.5569217000011,None,1010.0573569000007,None,1010.0573569000007,None,n,0.43986170000061975,1010.0573569000007,None,0.43986170000061975,,,122,001,2022_Dec_01_1732,ProdSingRedoBetween,2021.2.3,59.94043119902105,
,,,,40,0,40,0,,,,,,,,,,,,,,,,,,,,,,1014.4809083,None,,,,,,,,,,,,,,,,,,silence,138,41,aloud,new,null,1011.0385080999986,None,1011.0385080999986,None,2,2.506741299999703,1011.0385080999986,None,2.506741299999703,1013.5657333999989,None,1014.0883018999994,None,1014.0883018999994,None,n,0.3609802999999374,1014.0883018999994,None,0.3609802999999374,,,122,001,2022_Dec_01_1732,ProdSingRedoBetween,2021.2.3,59.94043119902105,
,,,,41,0,41,0,,,,,,,,,,,,,,,,,,,,,,1019.2681147000003,None,,,,,,,,,,,,,,,,,,beginning,91,42,aloud,new,null,1015.0057396999982,None,1015.0057396999982,None,2,2.8996652999994694,1015.0057396999982,None,2.8996652999994694,1017.9402239999981,None,1018.4546854,None,1018.4546854,None,n,0.7946440000014263,1018.4546854,None,0.7946440000014263,,,122,001,2022_Dec_01_1732,ProdSingRedoBetween,2021.2.3,59.94043119902105,
,,,,42,0,42,0,,,,,,,,,,,,,,,,,,,,,,1025.2893101000009,None,,,,,,,,,,,,,,,,,,century,95,43,aloud,new,null,1019.7749698999978,None,1019.7749698999978,None,2,4.602338299999246,1019.7749698999978,None,4.602338299999246,1024.4163449000007,None,1024.9299425999998,None,1024.9299425999998,None,n,0.3431868999978178,1024.9299425999998,None,0.3431868999978178,,,122,001,2022_Dec_01_1732,ProdSingRedoBetween,2021.2.3,59.94043119902105,
,,,,43,0,43,0,,,,,,,,,,,,,,,,,,,,,,1029.6937221999979,None,,,,,,,,,,,,,,,,,,society,153,44,aloud,new,null,1025.799099699998,None,1025.799099699998,None,4,2.9381205000026966,1025.799099699998,None,2.9381205000026966,1028.7608647999987,None,1029.265391500001,None,1029.265391500001,None,f,0.407897299999604,1029.265391500001,None,0.407897299999604,,,122,001,2022_Dec_01_1732,ProdSingRedoBetween,2021.2.3,59.94043119902105,
,,,,44,0,44,0,,,,,,,,,,,,,,,,,,,,,,1033.0469984999982,None,,,,,,,,,,,,,,,,,,comfort,111,45,aloud,new,null,1030.2015705999984,None,1030.2015705999984,None,3,2.0238053999964905,1030.2015705999984,None,2.0238053999964905,1032.2548552999979,None,1032.7644843999988,None,1032.7644843999988,None,f,0.2527937999984715,1032.7644843999988,None,0.2527937999984715,,,122,001,2022_Dec_01_1732,ProdSingRedoBetween,2021.2.3,59.94043119902105,
,,,,45,0,45,0,,,,,,,,,,,,,,,,,,,,,,1037.4699359000006,None,,,,,,,,,,,,,,,,,,congress,44,46,aloud,old,blue,1033.5575252999988,None,1033.5575252999988,None,6,3.0918055000001914,1033.5575252999988,None,3.0918055000001914,1036.6708246999988,None,1037.1846110999977,None,1037.1846110999977,None,r,0.26477950000116834,1037.1846110999977,None,0.26477950000116834,,,122,001,2022_Dec_01_1732,ProdSingRedoBetween,2021.2.3,59.94043119902105,
,,,,46,0,46,0,,,,,,,,,,,,,,,,,,,,,,1042.0236321000011,None,,,,,,,,,,,,,,,,,,carry,101,47,aloud,new,null,1037.9882762999987,None,1037.9882762999987,None,3,2.5888838000028045,1037.9882762999987,None,2.5888838000028045,1040.606854900001,None,1041.1218850000005,None,1041.1218850000005,None,f,0.8795050999979139,1041.1218850000005,None,0.8795050999979139,,,122,001,2022_Dec_01_1732,ProdSingRedoBetween,2021.2.3,59.94043119902105,
,,,,47,0,47,0,,,,,,,,,,,,,,,,,,,,,,1045.0475239000007,None,,,,,,,,,,,,,,,,,,guide,23,48,aloud,old,yellow,1042.5358820000001,None,1042.5358820000001,None,4,1.6974483999983931,1042.5358820000001,None,1.6974483999983931,1044.261281799998,None,1044.775519499999,None,1044.775519499999,None,f,0.24203850000048988,1044.775519499999,None,0.24203850000048988,,,122,001,2022_Dec_01_1732,ProdSingRedoBetween,2021.2.3,59.94043119902105,
,,,,48,0,48,0,,,,,,,,,,,,,,,,,,,,,,1049.3965141000008,None,,,,,,,,,,,,,,,,,,taste,17,49,aloud,old,yellow,1045.5666629000007,None,1045.5666629000007,None,5,2.914733299996442,1045.5666629000007,None,2.914733299996442,1048.5206240999978,None,1049.0340533999988,None,1049.0340533999988,None,r,0.3351769999972021,1049.0340533999988,None,0.3351769999972021,,,122,001,2022_Dec_01_1732,ProdSingRedoBetween,2021.2.3,59.94043119902105,
,,,,49,0,49,0,,,,,,,,,,,,,,,,,,,,,,1052.416324400001,None,,,,,,,,,,,,,,,,,,guard,40,50,aloud,old,blue,1049.8973724999996,None,1049.8973724999996,None,4,1.6240285000021686,1049.8973724999996,None,1.6240285000021686,1051.555906900001,None,1052.0710776999986,None,1052.0710776999986,None,r,0.32221650000064983,1052.0710776999986,None,0.32221650000064983,,,122,001,2022_Dec_01_1732,ProdSingRedoBetween,2021.2.3,59.94043119902105,
,,,,50,0,50,0,,,,,,,,,,,,,,,,,,,,,,1057.756833299998,None,,,,,,,,,,,,,,,,,,match,159,51,aloud,new,null,1052.9242304,None,1052.9242304,None,2,4.013191599999118,1052.9242304,None,4.013191599999118,1056.9599837999995,None,1057.4765602000007,None,1057.4765602000007,None,n,0.2608397000003606,1057.4765602000007,None,0.2608397000003606,,,122,001,2022_Dec_01_1732,ProdSingRedoBetween,2021.2.3,59.94043119902105,
,,,,51,0,51,0,,,,,,,,,,,,,,,,,,,,,,1063.8943550000004,None,,,,,,,,,,,,,,,,,,broke,35,52,aloud,old,blue,1058.2768582999997,None,1058.2768582999997,None,6,4.956433999999717,1058.2768582999997,None,4.956433999999717,1063.2661743999997,None,1063.7859236999975,None,1063.7859236999975,None,r,0.07952490000025136,1063.7859236999975,None,0.07952490000025136,,,122,001,2022_Dec_01_1732,ProdSingRedoBetween,2021.2.3,59.94043119902105,
,,,,52,0,52,0,,,,,,,,,,,,,,,,,,,,,,1067.331343599999,None,,,,,,,,,,,,,,,,,,resistance,116,53,aloud,new,null,1064.4045674000008,None,1064.4045674000008,None,3,2.236761899999692,1064.4045674000008,None,2.236761899999692,1066.6721350999978,None,1067.1874323999982,None,1067.1874323999982,None,f,0.12580950000119628,1067.1874323999982,None,0.12580950000119628,,,122,001,2022_Dec_01_1732,ProdSingRedoBetween,2021.2.3,59.94043119902105,
,,,,53,0,53,0,,,,,,,,,,,,,,,,,,,,,,1071.743239899999,None,,,,,,,,,,,,,,,,,,question,31,54,aloud,old,blue,1067.8397264999985,None,1067.8397264999985,None,2,2.9777575000007346,1067.8397264999985,None,2.9777575000007346,1070.8496971999994,None,1071.3572686999978,None,1071.3572686999978,None,n,0.34815339999840944,1071.3572686999978,None,0.34815339999840944,,,122,001,2022_Dec_01_1732,ProdSingRedoBetween,2021.2.3,59.94043119902105,
,,,,54,0,54,0,,,,,,,,,,,,,,,,,,,,,,1074.721925599999,None,,,,,,,,,,,,,,,,,,industry,131,55,aloud,new,null,1072.262542299999,None,1072.262542299999,None,3,1.6988968000005116,1072.262542299999,None,1.6988968000005116,1074.0003431999976,None,1074.5068366999985,None,1074.5068366999985,None,f,0.19842419999986305,1074.5068366999985,None,0.19842419999986305,,,122,001,2022_Dec_01_1732,ProdSingRedoBetween,2021.2.3,59.94043119902105,
,,,,55,0,55,0,,,,,,,,,,,,,,,,,,,,,,1083.6840335999987,None,,,,,,,,,,,,,,,,,,growth,41,56,aloud,old,blue,1075.2321508999994,None,1075.2321508999994,None,5,6.809281699999701,1075.2321508999994,None,6.809281699999701,1082.0728820000004,None,1082.5823117,None,1082.5823117,None,f,1.0748410999985936,1082.5823117,None,1.0748410999985936,,,122,001,2022_Dec_01_1732,ProdSingRedoBetween,2021.2.3,59.94043119902105,
,,,,56,0,56,0,,,,,,,,,,,,,,,,,,,,,,1087.5197386,None,,,,,,,,,,,,,,,,,,primary,39,57,aloud,old,blue,1084.2068555999977,None,1084.2068555999977,None,4,2.674512199999299,1084.2068555999977,None,2.674512199999299,1086.9087884,None,1087.4181382999996,None,1087.4181382999996,None,f,0.07933760000014445,1087.4181382999996,None,0.07933760000014445,,,122,001,2022_Dec_01_1732,ProdSingRedoBetween,2021.2.3,59.94043119902105,
,,,,57,0,57,0,,,,,,,,,,,,,,,,,,,,,,1092.156382199999,None,,,,,,,,,,,,,,,,,,youth,154,58,aloud,new,null,1088.0394319000006,None,1088.0394319000006,None,3,3.4899466000024404,1088.0394319000006,None,3.4899466000024404,1091.561733399998,None,1092.0728796000003,None,1092.0728796000003,None,f,0.06450789999871631,1092.0728796000003,None,0.06450789999871631,,,122,001,2022_Dec_01_1732,ProdSingRedoBetween,2021.2.3,59.94043119902105,
,,,,58,0,58,0,,,,,,,,,,,,,,,,,,,,,,1097.3778435999993,None,,,,,,,,,,,,,,,,,,general,86,59,aloud,old,red,1092.6617895999989,None,1092.6617895999989,None,2,3.9475564999993367,1092.6617895999989,None,3.9475564999993367,1096.6324638000006,None,1097.151721899998,None,1097.151721899998,None,n,0.20963269999992917,1097.151721899998,None,0.20963269999992917,,,122,001,2022_Dec_01_1732,ProdSingRedoBetween,2021.2.3,59.94043119902105,
,,,,59,0,59,0,,,,,,,,,,,,,,,,,,,,,,1100.4320845000002,None,,,,,,,,,,,,,,,,,,little,89,60,aloud,old,red,1097.8900704999978,None,1097.8900704999978,None,6,1.695241999997961,1097.8900704999978,None,1.695241999997961,1099.6149549000002,None,1100.1274613999994,None,1100.1274613999994,None,r,0.2738935000015772,1100.1274613999994,None,0.2738935000015772,,,122,001,2022_Dec_01_1732,ProdSingRedoBetween,2021.2.3,59.94043119902105,
,,,,60,0,60,0,,,,,,,,,,,,,,,,,,,,,,1105.2859310999993,None,,,,,,,,,,,,,,,,,,express,113,61,aloud,new,null,1100.9316342999991,None,1100.9316342999991,None,2,3.4779080000007525,1100.9316342999991,None,3.4779080000007525,1104.4412018000003,None,1104.9604911999995,None,1104.9604911999995,None,n,0.29683789999762666,1104.9604911999995,None,0.29683789999762666,,,122,001,2022_Dec_01_1732,ProdSingRedoBetween,2021.2.3,59.94043119902105,
,,,,61,0,61,0,,,,,,,,,,,,,,,,,,,,,,1108.3721612000008,None,,,,,,,,,,,,,,,,,,track,53,62,aloud,old,blue,1105.8013988999992,None,1105.8013988999992,None,3,1.8318945999999414,1105.8013988999992,None,1.8318945999999414,1107.656994500001,None,1108.1760273,None,1108.1760273,None,f,0.17742160000125295,1108.1760273,None,0.17742160000125295,,,122,001,2022_Dec_01_1732,ProdSingRedoBetween,2021.2.3,59.94043119902105,
,,,,62,0,62,0,,,,,,,,,,,,,,,,,,,,,,1118.7993112999975,None,,,,,,,,,,,,,,,,,,dozen,36,63,aloud,old,blue,1108.8730231000009,None,1108.8730231000009,None,2,8.544307000000117,1108.8730231000009,None,8.544307000000117,1117.452486099999,None,1117.9737548999983,None,1117.9737548999983,None,n,0.8035431999996945,1117.9737548999983,None,0.8035431999996945,,,122,001,2022_Dec_01_1732,ProdSingRedoBetween,2021.2.3,59.94043119902105,
,,,,63,0,63,0,,,,,,,,,,,,,,,,,,,,,,1124.4558658999995,None,,,,,,,,,,,,,,,,,,direction,50,64,aloud,old,blue,1119.3068664999992,None,1119.3068664999992,None,2,4.350416399996902,1119.3068664999992,None,4.350416399996902,1123.688463399998,None,1124.1955976999998,None,1124.1955976999998,None,n,0.23770780000268132,1124.1955976999998,None,0.23770780000268132,,,122,001,2022_Dec_01_1732,ProdSingRedoBetween,2021.2.3,59.94043119902105,
,,,,64,0,64,0,,,,,,,,,,,,,,,,,,,,,,1130.4107444,None,,,,,,,,,,,,,,,,,,debate,1,65,aloud,old,yellow,1124.959604399999,None,1124.959604399999,None,3,4.569599400001607,1124.959604399999,None,4.569599400001607,1129.560126100001,None,1130.0663749999985,None,1130.0663749999985,None,f,0.3189081999989867,1130.0663749999985,None,0.3189081999989867,,,122,001,2022_Dec_01_1732,ProdSingRedoBetween,2021.2.3,59.94043119902105,
,,,,65,0,65,0,,,,,,,,,,,,,,,,,,,,,,1139.1230756000004,None,,,,,,,,,,,,,,,,,,stranger,114,66,aloud,new,null,1130.9188751000002,None,1130.9188751000002,None,2,3.7304590999992797,1130.9188751000002,None,3.7304590999992797,1134.6686055999999,None,1135.186136299999,None,1135.186136299999,None,n,3.90326080000159,1135.186136299999,None,3.90326080000159,,,122,001,2022_Dec_01_1732,ProdSingRedoBetween,2021.2.3,59.94043119902105,
,,,,66,0,66,0,,,,,,,,,,,,,,,,,,,,,,1147.1777425,None,,,,,,,,,,,,,,,,,,employment,169,67,aloud,new,null,1139.6487400999977,None,1139.6487400999977,None,2,2.688794900001085,1139.6487400999977,None,2.688794900001085,1142.3765161999982,None,1142.8973449000005,None,1142.8973449000005,None,n,4.25594590000037,1142.8973449000005,None,4.25594590000037,,,122,001,2022_Dec_01_1732,ProdSingRedoBetween,2021.2.3,59.94043119902105,
,,,,67,0,67,0,,,,,,,,,,,,,,,,,,,,,,1151.2318330999988,None,,,,,,,,,,,,,,,,,,finance,21,68,aloud,old,yellow,1147.687696500001,None,1147.687696500001,None,2,2.32965730000069,1147.687696500001,None,2.32965730000069,1150.048401,None,1150.5546093999983,None,1150.5546093999983,None,f,0.6546839000002365,1150.5546093999983,None,0.6546839000002365,,,122,001,2022_Dec_01_1732,ProdSingRedoBetween,2021.2.3,59.94043119902105,
,,,,68,0,68,0,,,,,,,,,,,,,,,,,,,,,,1155.2381332999976,None,,,,,,,,,,,,,,,,,,region,152,69,aloud,new,null,1151.7401991000006,None,1151.7401991000006,None,2,2.4051541999979236,1151.7401991000006,None,2.4051541999979236,1154.1711775000003,None,1154.6953985,None,1154.6953985,None,f,0.5140190000020084,1154.6953985,None,0.5140190000020084,,,122,001,2022_Dec_01_1732,ProdSingRedoBetween,2021.2.3,59.94043119902105,
,,,,69,0,69,0,,,,,,,,,,,,,,,,,,,,,,1159.7622396000006,None,,,,,,,,,,,,,,,,,,blind,29,70,aloud,old,blue,1155.7688215999988,None,1155.7688215999988,None,6,2.936707799999567,1155.7688215999988,None,2.936707799999567,1158.7298666999995,None,1159.2476408000002,None,1159.2476408000002,None,r,0.48176450000028126,1159.2476408000002,None,0.48176450000028126,,,122,001,2022_Dec_01_1732,ProdSingRedoBetween,2021.2.3,59.94043119902105,
,,,,70,0,70,0,,,,,,,,,,,,,,,,,,,,,,1163.2938323999988,None,,,,,,,,,,,,,,,,,,drama,115,71,aloud,new,null,1160.2849475000003,None,1160.2849475000003,None,2,2.2763297999990755,1160.2849475000003,None,2.2763297999990755,1162.5930670999987,None,1163.099515599999,None,1163.099515599999,None,f,0.17396139999982552,1163.099515599999,None,0.17396139999982552,,,122,001,2022_Dec_01_1732,ProdSingRedoBetween,2021.2.3,59.94043119902105,
,,,,71,0,71,0,,,,,,,,,,,,,,,,,,,,,,1167.0640267999988,None,,,,,,,,,,,,,,,,,,force,92,72,aloud,new,null,1163.8047215000006,None,1163.8047215000006,None,1,1.7646399000004749,1163.8047215000006,None,1.7646399000004749,1165.6040149,None,1166.1192837999988,None,1166.1192837999988,None,n,0.9141882000003534,1166.1192837999988,None,0.9141882000003534,,,122,001,2022_Dec_01_1732,ProdSingRedoBetween,2021.2.3,59.94043119902105,
,,,,72,0,72,0,,,,,,,,,,,,,,,,,,,,,,1172.2861181999979,None,,,,,,,,,,,,,,,,,,short,149,73,aloud,new,null,1167.572106399999,None,1167.572106399999,None,3,4.07727259999956,1167.572106399999,None,4.07727259999956,1171.6724658999992,None,1172.186151400001,None,1172.186151400001,None,f,0.0712392000023101,1172.186151400001,None,0.0712392000023101,,,122,001,2022_Dec_01_1732,ProdSingRedoBetween,2021.2.3,59.94043119902105,
,,,,73,0,73,0,,,,,,,,,,,,,,,,,,,,,,1177.1085658999982,None,,,,,,,,,,,,,,,,,,angle,130,74,aloud,new,null,1172.7980141999979,None,1172.7980141999979,None,1,1.9555182000003697,1172.7980141999979,None,1.9555182000003697,1174.778362099998,None,1175.2958981999982,None,1175.2958981999982,None,n,1.7855034999993222,1175.2958981999982,None,1.7855034999993222,,,122,001,2022_Dec_01_1732,ProdSingRedoBetween,2021.2.3,59.94043119902105,
,,,,74,0,74,0,,,,,,,,,,,,,,,,,,,,,,1185.2991598000008,None,,,,,,,,,,,,,,,,,,store,20,75,aloud,old,yellow,1177.6180891000004,None,1177.6180891000004,None,2,6.647108999997727,1177.6180891000004,None,6.647108999997727,1184.282054700001,None,1184.7873153,None,1184.7873153,None,f,0.4940059000000474,1184.7873153,None,0.4940059000000474,,,122,001,2022_Dec_01_1732,ProdSingRedoBetween,2021.2.3,59.94043119902105,
,,,,75,0,75,0,,,,,,,,,,,,,,,,,,,,,,1188.6691793999998,None,,,,,,,,,,,,,,,,,,discussion,74,76,aloud,old,red,1185.8154376999992,None,1185.8154376999992,None,4,1.9379742999990412,1185.8154376999992,None,1.9379742999990412,1187.7735514999986,None,1188.2913706,None,1188.2913706,None,f,0.34991699999955017,1188.2913706,None,0.34991699999955017,,,122,001,2022_Dec_01_1732,ProdSingRedoBetween,2021.2.3,59.94043119902105,
,,,,76,0,76,0,,,,,,,,,,,,,,,,,,,,,,1191.655483800001,None,,,,,,,,,,,,,,,,,,cousin,88,77,aloud,old,red,1189.1752712999987,None,1189.1752712999987,None,6,1.7382371999992756,1189.1752712999987,None,1.7382371999992756,1190.9461613999993,None,1191.4554413000005,None,1191.4554413000005,None,r,0.1778924000027473,1191.4554413000005,None,0.1778924000027473,,,122,001,2022_Dec_01_1732,ProdSingRedoBetween,2021.2.3,59.94043119902105,
,,,,77,0,77,0,,,,,,,,,,,,,,,,,,,,,,1194.2603582999982,None,,,,,,,,,,,,,,,,,,trash,83,78,aloud,old,red,1192.1599027999982,None,1192.1599027999982,None,6,1.249465599998075,1192.1599027999982,None,1.249465599998075,1193.440853,None,1193.9457225000006,None,1193.9457225000006,None,r,0.2877504999996745,1193.9457225000006,None,0.2877504999996745,,,122,001,2022_Dec_01_1732,ProdSingRedoBetween,2021.2.3,59.94043119902105,
,,,,78,0,78,0,,,,,,,,,,,,,,,,,,,,,,1197.9785821999976,None,,,,,,,,,,,,,,,,,,community,177,79,aloud,new,null,1194.7819549999986,None,1194.7819549999986,None,3,2.3233761999981652,1194.7819549999986,None,2.3233761999981652,1197.128595099999,None,1197.631891500001,None,1197.631891500001,None,f,0.3214327999994566,1197.631891500001,None,0.3214327999994566,,,122,001,2022_Dec_01_1732,ProdSingRedoBetween,2021.2.3,59.94043119902105,
,,,,79,0,79,0,,,,,,,,,,,,,,,,,,,,,,1201.4350940999975,None,,,,,,,,,,,,,,,,,,career,85,80,aloud,old,red,1198.479006999998,None,1198.479006999998,None,2,1.7942968000024848,1198.479006999998,None,1.7942968000024848,1200.3001361999995,None,1200.8153525999987,None,1200.8153525999987,None,f,0.5941157999986899,1200.8153525999987,None,0.5941157999986899,,,122,001,2022_Dec_01_1732,ProdSingRedoBetween,2021.2.3,59.94043119902105,
,,,,80,0,80,0,,,,,,,,,,,,,,,,,,,,,,1204.5351248999978,None,,,,,,,,,,,,,,,,,,defeat,150,81,aloud,new,null,1201.953600500001,None,1201.953600500001,None,1,1.6717543999984628,1201.953600500001,None,1.6717543999984628,1203.6540573999991,None,1204.1678752000007,None,1204.1678752000007,None,n,0.34545819999766536,1204.1678752000007,None,0.34545819999766536,,,122,001,2022_Dec_01_1732,ProdSingRedoBetween,2021.2.3,59.94043119902105,
,,,,81,0,81,0,,,,,,,,,,,,,,,,,,,,,,1208.3403756999978,None,,,,,,,,,,,,,,,,,,weather,110,82,aloud,new,null,1205.0482314,None,1205.0482314,None,2,2.5453402000021015,1205.0482314,None,2.5453402000021015,1207.6284391000008,None,1208.1403441000002,None,1208.1403441000002,None,f,0.1810713000013493,1208.1403441000002,None,0.1810713000013493,,,122,001,2022_Dec_01_1732,ProdSingRedoBetween,2021.2.3,59.94043119902105,
,,,,82,0,82,0,,,,,,,,,,,,,,,,,,,,,,1211.8588036,None,,,,,,,,,,,,,,,,,,expansion,165,83,aloud,new,null,1208.8583856999976,None,1208.8583856999976,None,2,1.5989107999994303,1208.8583856999976,None,1.5989107999994303,1210.4766826999985,None,1210.9972554999986,None,1210.9972554999986,None,f,0.8440732000017306,1210.9972554999986,None,0.8440732000017306,,,122,001,2022_Dec_01_1732,ProdSingRedoBetween,2021.2.3,59.94043119902105,
,,,,83,0,83,0,,,,,,,,,,,,,,,,,,,,,,1215.516668799999,None,,,,,,,,,,,,,,,,,,cover,142,84,aloud,new,null,1212.3705606000003,None,1212.3705606000003,None,1,1.750863199999003,1212.3705606000003,None,1.750863199999003,1214.1522530000002,None,1214.665565899999,None,1214.665565899999,None,n,0.8238908999992418,1214.665565899999,None,0.8238908999992418,,,122,001,2022_Dec_01_1732,ProdSingRedoBetween,2021.2.3,59.94043119902105,
,,,,84,0,84,0,,,,,,,,,,,,,,,,,,,,,,1218.8827748000003,None,,,,,,,,,,,,,,,,,,captain,97,85,aloud,new,null,1216.0482187999987,None,1216.0482187999987,None,1,1.8571657000029518,1216.0482187999987,None,1.8571657000029518,1217.9388307000008,None,1218.4498509000005,None,1218.4498509000005,None,n,0.40756709999914165,1218.4498509000005,None,0.40756709999914165,,,122,001,2022_Dec_01_1732,ProdSingRedoBetween,2021.2.3,59.94043119902105,
,,,,85,0,85,0,,,,,,,,,,,,,,,,,,,,,,1224.0711073999992,None,,,,,,,,,,,,,,,,,,education,170,86,aloud,new,null,1219.387586500001,None,1219.387586500001,None,1,2.845742400000745,1219.387586500001,None,2.845742400000745,1222.2539307999978,None,1222.757651699998,None,1222.757651699998,None,n,1.2916821999970125,1222.757651699998,None,1.2916821999970125,,,122,001,2022_Dec_01_1732,ProdSingRedoBetween,2021.2.3,59.94043119902105,
,,,,86,0,86,0,,,,,,,,,,,,,,,,,,,,,,1227.5436627999989,None,,,,,,,,,,,,,,,,,,murder,68,87,aloud,old,red,1224.583133600001,None,1224.583133600001,None,6,1.6743207999970764,1224.583133600001,None,1.6743207999970764,1226.2798922000002,None,1226.7934997999982,None,1226.7934997999982,None,r,0.7278938999988895,1226.7934997999982,None,0.7278938999988895,,,122,001,2022_Dec_01_1732,ProdSingRedoBetween,2021.2.3,59.94043119902105,
,,,,87,0,87,0,,,,,,,,,,,,,,,,,,,,,,1234.7319685000002,None,,,,,,,,,,,,,,,,,,sunset,38,88,aloud,old,blue,1228.0752895000005,None,1228.0752895000005,None,4,5.750167900001543,1228.0752895000005,None,5.750167900001543,1233.8609168000003,None,1234.3655144000004,None,1234.3655144000004,None,f,0.33978750000096625,1234.3655144000004,None,0.33978750000096625,,,122,001,2022_Dec_01_1732,ProdSingRedoBetween,2021.2.3,59.94043119902105,
,,,,88,0,88,0,,,,,,,,,,,,,,,,,,,,,,1238.5190545999976,None,,,,,,,,,,,,,,,,,,group,163,89,aloud,new,null,1235.2465211999988,None,1235.2465211999988,None,3,2.371047399999952,1235.2465211999988,None,2.371047399999952,1237.6456902999998,None,1238.1553967,None,1238.1553967,None,f,0.3340265000006184,1238.1553967,None,0.3340265000006184,,,122,001,2022_Dec_01_1732,ProdSingRedoBetween,2021.2.3,59.94043119902105,
,,,,89,0,89,0,,,,,,,,,,,,,,,,,,,,,,1244.2109815000003,None,,,,,,,,,,,,,,,,,,character,34,90,aloud,old,blue,1239.031012299998,None,1239.031012299998,None,6,4.402544799999305,1239.031012299998,None,4.402544799999305,1243.468404799998,None,1243.9758669000003,None,1243.9758669000003,None,r,0.2096185999980662,1243.9758669000003,None,0.2096185999980662,,,122,001,2022_Dec_01_1732,ProdSingRedoBetween,2021.2.3,59.94043119902105,
,,,,90,0,90,0,,,,,,,,,,,,,,,,,,,,,,1247.4112624000009,None,,,,,,,,,,,,,,,,,,spoke,139,91,aloud,new,null,1244.7330594999985,None,1244.7330594999985,None,3,1.8443445000011707,1244.7330594999985,None,1.8443445000011707,1246.5954015999996,None,1247.111237099998,None,1247.111237099998,None,f,0.28215780000027735,1247.111237099998,None,0.28215780000027735,,,122,001,2022_Dec_01_1732,ProdSingRedoBetween,2021.2.3,59.94043119902105,
,,,,91,0,91,0,,,,,,,,,,,,,,,,,,,,,,1250.6831238999985,None,,,,,,,,,,,,,,,,,,broad,106,92,aloud,new,null,1247.9169905999988,None,1247.9169905999988,None,1,1.6044524000026286,1247.9169905999988,None,1.6044524000026286,1249.5612499999988,None,1250.070986300001,None,1250.070986300001,None,n,0.5944128000010096,1250.070986300001,None,0.5944128000010096,,,122,001,2022_Dec_01_1732,ProdSingRedoBetween,2021.2.3,59.94043119902105,
,,,,92,0,92,0,,,,,,,,,,,,,,,,,,,,,,1255.5526934000009,None,,,,,,,,,,,,,,,,,,center,122,93,aloud,new,null,1251.2033862999997,None,1251.2033862999997,None,3,3.3900156000017887,1251.2033862999997,None,3.3900156000017887,1254.6237774,None,1255.1357332000007,None,1255.1357332000007,None,f,0.3936360000006971,1255.1357332000007,None,0.3936360000006971,,,122,001,2022_Dec_01_1732,ProdSingRedoBetween,2021.2.3,59.94043119902105,
,,,,93,0,93,0,,,,,,,,,,,,,,,,,,,,,,1259.1563760999998,None,,,,,,,,,,,,,,,,,,stand,81,94,aloud,old,red,1256.0675330999984,None,1256.0675330999984,None,5,2.3019223000010243,1256.0675330999984,None,2.3019223000010243,1258.4057633000011,None,1258.9099924000002,None,1258.9099924000002,None,r,0.21932600000218372,1258.9099924000002,None,0.21932600000218372,,,122,001,2022_Dec_01_1732,ProdSingRedoBetween,2021.2.3,59.94043119902105,
,,,,94,0,94,0,,,,,,,,,,,,,,,,,,,,,,1262.5764476000004,None,,,,,,,,,,,,,,,,,,solution,160,95,aloud,new,null,1259.6671141999977,None,1259.6671141999977,None,3,1.9821444999979576,1259.6671141999977,None,1.9821444999979576,1261.6770183000008,None,1262.183012999998,None,1262.183012999998,None,f,0.37039110000114306,1262.183012999998,None,0.37039110000114306,,,122,001,2022_Dec_01_1732,ProdSingRedoBetween,2021.2.3,59.94043119902105,
,,,,95,0,95,0,,,,,,,,,,,,,,,,,,,,,,1266.8139797000003,None,,,,,,,,,,,,,,,,,,orchestra,123,96,aloud,new,null,1263.0928276999985,None,1263.0928276999985,None,2,2.5406776999989233,1263.0928276999985,None,2.5406776999989233,1265.6699757999995,None,1266.1801818999993,None,1266.1801818999993,None,n,0.6052449999988312,1266.1801818999993,None,0.6052449999988312,,,122,001,2022_Dec_01_1732,ProdSingRedoBetween,2021.2.3,59.94043119902105,
,,,,96,0,96,0,,,,,,,,,,,,,,,,,,,,,,1270.8512927999982,None,,,,,,,,,,,,,,,,,,profession,173,97,aloud,new,null,1267.3259319999997,None,1267.3259319999997,None,1,2.619455600000947,1267.3259319999997,None,2.619455600000947,1269.9694584999997,None,1270.4922208999997,None,1270.4922208999997,None,n,0.3331709000012779,1270.4922208999997,None,0.3331709000012779,,,122,001,2022_Dec_01_1732,ProdSingRedoBetween,2021.2.3,59.94043119902105,
,,,,97,0,97,0,,,,,,,,,,,,,,,,,,,,,,1275.391477199999,None,,,,,,,,,,,,,,,,,,literature,73,98,aloud,old,red,1271.352417099999,None,1271.352417099999,None,2,3.225028499997279,1271.352417099999,None,3.225028499997279,1274.6104379999997,None,1275.1224674000005,None,1275.1224674000005,None,f,0.24708349999855272,1275.1224674000005,None,0.24708349999855272,,,122,001,2022_Dec_01_1732,ProdSingRedoBetween,2021.2.3,59.94043119902105,
,,,,98,0,98,0,,,,,,,,,,,,,,,,,,,,,,1279.610063199998,None,,,,,,,,,,,,,,,,,,gesture,42,99,aloud,old,blue,1275.9187905,None,1275.9187905,None,3,2.8906788999993296,1275.9187905,None,2.8906788999993296,1278.8374932000006,None,1279.3467528,None,1279.3467528,None,f,0.246691300002567,1279.3467528,None,0.246691300002567,,,122,001,2022_Dec_01_1732,ProdSingRedoBetween,2021.2.3,59.94043119902105,
,,,,99,0,99,0,,,,,,,,,,,,,,,,,,,,,,1283.797584,None,,,,,,,,,,,,,,,,,,member,133,100,aloud,new,null,1280.1133324000002,None,1280.1133324000002,None,2,2.831975199998851,1280.1133324000002,None,2.831975199998851,1282.9632257999983,None,1283.4736914999994,None,1283.4736914999994,None,n,0.29573309999977937,1283.4736914999994,None,0.29573309999977937,,,122,001,2022_Dec_01_1732,ProdSingRedoBetween,2021.2.3,59.94043119902105,
,,,,100,0,100,0,,,,,,,,,,,,,,,,,,,,,,1288.0206615999996,None,,,,,,,,,,,,,,,,,,pretty,59,101,aloud,old,yellow,1284.3117409000006,None,1284.3117409000006,None,6,1.9535935999992944,1284.3117409000006,None,1.9535935999992944,1286.2902362999994,None,1286.8066056999996,None,1286.8066056999996,None,r,1.1947944999992615,1286.8066056999996,None,1.1947944999992615,,,122,001,2022_Dec_01_1732,ProdSingRedoBetween,2021.2.3,59.94043119902105,
,,,,101,0,101,0,,,,,,,,,,,,,,,,,,,,,,1293.3070794999985,None,,,,,,,,,,,,,,,,,,welcome,63,102,aloud,old,red,1288.5388249999996,None,1288.5388249999996,None,4,3.7425776999989466,1288.5388249999996,None,3.7425776999989466,1292.311235199999,None,1292.8260521999982,None,1292.8260521999982,None,f,0.4632967999968969,1292.8260521999982,None,0.4632967999968969,,,122,001,2022_Dec_01_1732,ProdSingRedoBetween,2021.2.3,59.94043119902105,
,,,,102,0,102,0,,,,,,,,,,,,,,,,,,,,,,1296.2965584999984,None,,,,,,,,,,,,,,,,,,attack,14,103,aloud,old,yellow,1293.8103468000008,None,1293.8103468000008,None,6,1.3030969999999797,1293.8103468000008,None,1.3030969999999797,1295.1458491999983,None,1295.6679597000002,None,1295.6679597000002,None,r,0.6054946999975073,1295.6679597000002,None,0.6054946999975073,,,122,001,2022_Dec_01_1732,ProdSingRedoBetween,2021.2.3,59.94043119902105,
,,,,103,0,103,0,,,,,,,,,,,,,,,,,,,,,,1299.2630626999999,None,,,,,,,,,,,,,,,,,,route,82,104,aloud,old,red,1296.8190593,None,1296.8190593,None,6,1.6064260000021022,1296.8190593,None,1.6064260000021022,1298.4500886999995,None,1298.9629157999989,None,1298.9629157999989,None,r,0.27852420000272105,1298.9629157999989,None,0.27852420000272105,,,122,001,2022_Dec_01_1732,ProdSingRedoBetween,2021.2.3,59.94043119902105,
,,,,104,0,104,0,,,,,,,,,,,,,,,,,,,,,,1302.2339608000002,None,,,,,,,,,,,,,,,,,,accident,78,105,aloud,old,red,1299.775735799998,None,1299.775735799998,None,6,1.4097246000019368,1299.775735799998,None,1.4097246000019368,1301.2212058000005,None,1301.7324642999993,None,1301.7324642999993,None,r,0.46901860000070883,1301.7324642999993,None,0.46901860000070883,,,122,001,2022_Dec_01_1732,ProdSingRedoBetween,2021.2.3,59.94043119902105,
,,,,105,0,105,0,,,,,,,,,,,,,,,,,,,,,,1306.9040559999994,None,,,,,,,,,,,,,,,,,,bucket,0,106,aloud,old,yellow,1302.739230700001,None,1302.739230700001,None,3,3.2542390000016894,1302.739230700001,None,3.2542390000016894,1306.0339041999978,None,1306.537879200001,None,1306.537879200001,None,f,0.3356296999991173,1306.537879200001,None,0.3356296999991173,,,122,001,2022_Dec_01_1732,ProdSingRedoBetween,2021.2.3,59.94043119902105,
,,,,106,0,106,0,,,,,,,,,,,,,,,,,,,,,,1311.2127030999982,None,,,,,,,,,,,,,,,,,,smooth,147,107,aloud,new,null,1307.4199907000002,None,1307.4199907000002,None,1,2.6294253999985813,1307.4199907000002,None,2.6294253999985813,1310.0791882999983,None,1310.5950477999977,None,1310.5950477999977,None,n,0.5905434000014793,1310.5950477999977,None,0.5905434000014793,,,122,001,2022_Dec_01_1732,ProdSingRedoBetween,2021.2.3,59.94043119902105,
,,,,107,0,107,0,,,,,,,,,,,,,,,,,,,,,,1314.6127495,None,,,,,,,,,,,,,,,,,,material,16,108,aloud,old,yellow,1311.7354837999992,None,1311.7354837999992,None,2,2.0099570999991556,1311.7354837999992,None,2.0099570999991556,1313.765596199999,None,1314.2782361999998,None,1314.2782361999998,None,n,0.30722469999818713,1314.2782361999998,None,0.30722469999818713,,,122,001,2022_Dec_01_1732,ProdSingRedoBetween,2021.2.3,59.94043119902105,
,,,,108,0,108,0,,,,,,,,,,,,,,,,,,,,,,1318.7992712999985,None,,,,,,,,,,,,,,,,,,clear,19,109,aloud,old,yellow,1315.116245199999,None,1315.116245199999,None,3,2.8452832000002672,1315.116245199999,None,2.8452832000002672,1317.9915213999993,None,1318.5009229999996,None,1318.5009229999996,None,f,0.2685071000014432,1318.5009229999996,None,0.2685071000014432,,,122,001,2022_Dec_01_1732,ProdSingRedoBetween,2021.2.3,59.94043119902105,
,,,,109,0,109,0,,,,,,,,,,,,,,,,,,,,,,1322.420463800001,None,,,,,,,,,,,,,,,,,,generation,37,110,aloud,old,blue,1319.3062900999976,None,1319.3062900999976,None,5,2.2711115999991307,1319.3062900999976,None,2.2711115999991307,1321.6066318999983,None,1322.128664699998,None,1322.128664699998,None,r,0.26481739999871934,1322.128664699998,None,0.26481739999871934,,,122,001,2022_Dec_01_1732,ProdSingRedoBetween,2021.2.3,59.94043119902105,
,,,,110,0,110,0,,,,,,,,,,,,,,,,,,,,,,1325.022134499999,None,,,,,,,,,,,,,,,,,,fight,143,111,aloud,new,null,1322.933567600001,None,1322.933567600001,None,6,1.2438991999988502,1322.933567600001,None,1.2438991999988502,1324.2160818999982,None,1324.7216695999996,None,1324.7216695999996,None,r,0.27973779999956605,1324.7216695999996,None,0.27973779999956605,,,122,001,2022_Dec_01_1732,ProdSingRedoBetween,2021.2.3,59.94043119902105,
,,,,111,0,111,0,,,,,,,,,,,,,,,,,,,,,,1329.4600396999995,None,,,,,,,,,,,,,,,,,,skill,55,112,aloud,old,blue,1325.5277741999998,None,1325.5277741999998,None,4,3.161705200000142,1325.5277741999998,None,3.161705200000142,1328.721652100001,None,1329.229443600001,None,1329.229443600001,None,r,0.21186149999994086,1329.229443600001,None,0.21186149999994086,,,122,001,2022_Dec_01_1732,ProdSingRedoBetween,2021.2.3,59.94043119902105,
,,,,112,0,112,0,,,,,,,,,,,,,,,,,,,,,,1333.2135815000001,None,,,,,,,,,,,,,,,,,,story,103,113,aloud,new,null,1329.9613977000008,None,1329.9613977000008,None,3,2.3359765999994124,1329.9613977000008,None,2.3359765999994124,1332.3140697999988,None,1332.8133338000007,None,1332.8133338000007,None,f,0.37208950000058394,1332.8133338000007,None,0.37208950000058394,,,122,001,2022_Dec_01_1732,ProdSingRedoBetween,2021.2.3,59.94043119902105,
,,,,113,0,113,0,,,,,,,,,,,,,,,,,,,,,,1339.6540679999998,None,,,,,,,,,,,,,,,,,,height,127,114,aloud,new,null,1333.719000699999,None,1333.719000699999,None,2,4.658378600001015,1333.719000699999,None,4.658378600001015,1338.4021794,None,1338.9106189999984,None,1338.9106189999984,None,f,0.7148350999996183,1338.9106189999984,None,0.7148350999996183,,,122,001,2022_Dec_01_1732,ProdSingRedoBetween,2021.2.3,59.94043119902105,
,,,,114,0,114,0,,,,,,,,,,,,,,,,,,,,,,1342.8400120000006,None,,,,,,,,,,,,,,,,,,crowd,96,115,aloud,new,null,1340.1681637000002,None,1340.1681637000002,None,2,1.721170799999527,1340.1681637000002,None,1.721170799999527,1341.9075907999977,None,1342.428029499999,None,1342.428029499999,None,n,0.3894122999990941,1342.428029499999,None,0.3894122999990941,,,122,001,2022_Dec_01_1732,ProdSingRedoBetween,2021.2.3,59.94043119902105,
,,,,115,0,115,0,,,,,,,,,,,,,,,,,,,,,,1345.4925785999985,None,,,,,,,,,,,,,,,,,,under,171,116,aloud,new,null,1343.3425079000008,None,1343.3425079000008,None,1,1.2829100000017206,1343.3425079000008,None,1.2829100000017206,1344.6463194999997,None,1345.162146999999,None,1345.162146999999,None,n,0.30317610000201967,1345.162146999999,None,0.30317610000201967,,,122,001,2022_Dec_01_1732,ProdSingRedoBetween,2021.2.3,59.94043119902105,
,,,,116,0,116,0,,,,,,,,,,,,,,,,,,,,,,1350.182198800001,None,,,,,,,,,,,,,,,,,,childhood,75,117,aloud,old,red,1346.0019312000004,None,1346.0019312000004,None,3,3.4395146000024397,1346.0019312000004,None,3.4395146000024397,1349.466749299998,None,1349.9806203000007,None,1349.9806203000007,None,f,0.17282109999723616,1349.9806203000007,None,0.17282109999723616,,,122,001,2022_Dec_01_1732,ProdSingRedoBetween,2021.2.3,59.94043119902105,
,,,,117,0,117,0,,,,,,,,,,,,,,,,,,,,,,1354.6183333000008,None,,,,,,,,,,,,,,,,,,company,164,118,aloud,new,null,1350.7011063999998,None,1350.7011063999998,None,2,3.1722694000018237,1350.7011063999998,None,3.1722694000018237,1353.9025165999992,None,1354.4078249999984,None,1354.4078249999984,None,f,0.19351330000063172,1354.4078249999984,None,0.19351330000063172,,,122,001,2022_Dec_01_1732,ProdSingRedoBetween,2021.2.3,59.94043119902105,
,,,,118,0,118,0,,,,,,,,,,,,,,,,,,,,,,1357.8381706,None,,,,,,,,,,,,,,,,,,quarter,121,119,aloud,new,null,1355.1298234999995,None,1355.1298234999995,None,1,1.9355539999996836,1355.1298234999995,None,1.9355539999996836,1357.0890225000003,None,1357.5930859,None,1357.5930859,None,n,0.2243811000007554,1357.5930859,None,0.2243811000007554,,,122,001,2022_Dec_01_1732,ProdSingRedoBetween,2021.2.3,59.94043119902105,
,,,,119,0,119,0,,,,,,,,,,,,,,,,,,,,,,1363.1101879999987,None,,,,,,,,,,,,,,,,,,length,93,120,aloud,new,null,1358.3471576999982,None,1358.3471576999982,None,1,3.254362100000435,1358.3471576999982,None,3.254362100000435,1361.6343282999987,None,1362.1427619999995,None,1362.1427619999995,None,n,0.9466707999999926,1362.1427619999995,None,0.9466707999999926,,,122,001,2022_Dec_01_1732,ProdSingRedoBetween,2021.2.3,59.94043119902105,
,,,,120,0,120,0,,,,,,,,,,,,,,,,,,,,,,1366.9974389999988,None,,,,,,,,,,,,,,,,,,title,107,121,aloud,new,null,1363.618811299999,None,1363.618811299999,None,1,1.8707181999998284,1363.618811299999,None,1.8707181999998284,1365.5250166999976,None,1366.0314971000007,None,1366.0314971000007,None,n,0.9459464999999909,1366.0314971000007,None,0.9459464999999909,,,122,001,2022_Dec_01_1732,ProdSingRedoBetween,2021.2.3,59.94043119902105,
,,,,121,0,121,0,,,,,,,,,,,,,,,,,,,,,,1371.6854667999978,None,,,,,,,,,,,,,,,,,,safety,179,122,aloud,new,null,1367.5041715000007,None,1367.5041715000007,None,2,3.369392799999332,1367.5041715000007,None,3.369392799999332,1370.9118013000007,None,1371.4218247999997,None,1371.4218247999997,None,f,0.23558849999972153,1371.4218247999997,None,0.23558849999972153,,,122,001,2022_Dec_01_1732,ProdSingRedoBetween,2021.2.3,59.94043119902105,
,,,,122,0,122,0,,,,,,,,,,,,,,,,,,,,,,1375.6754755000002,None,,,,,,,,,,,,,,,,,,charter,65,123,aloud,old,red,1372.1956764999995,None,1372.1956764999995,None,1,2.661918300000252,1372.1956764999995,None,2.661918300000252,1374.8966674000003,None,1375.4065091999983,None,1375.4065091999983,None,n,0.25106330000198795,1375.4065091999983,None,0.25106330000198795,,,122,001,2022_Dec_01_1732,ProdSingRedoBetween,2021.2.3,59.94043119902105,
,,,,123,0,123,0,,,,,,,,,,,,,,,,,,,,,,1379.0614977999976,None,,,,,,,,,,,,,,,,,,second,126,124,aloud,new,null,1376.1983736000002,None,1376.1983736000002,None,1,1.9230391999990388,1376.1983736000002,None,1.9230391999990388,1378.1434680999992,None,1378.648361200001,None,1378.648361200001,None,n,0.39306980000037584,1378.648361200001,None,0.39306980000037584,,,122,001,2022_Dec_01_1732,ProdSingRedoBetween,2021.2.3,59.94043119902105,
,,,,124,0,124,0,,,,,,,,,,,,,,,,,,,,,,1382.7131456999996,None,,,,,,,,,,,,,,,,,,surprise,120,125,aloud,new,null,1379.577800799998,None,1379.577800799998,None,2,1.463628500001505,1379.577800799998,None,1.463628500001505,1381.0686169,None,1381.588070599999,None,1381.588070599999,None,n,1.101329999997688,1381.588070599999,None,1.101329999997688,,,122,001,2022_Dec_01_1732,ProdSingRedoBetween,2021.2.3,59.94043119902105,
,,,,125,0,125,0,,,,,,,,,,,,,,,,,,,,,,1386.399934000001,None,,,,,,,,,,,,,,,,,,music,49,126,aloud,old,blue,1383.2209588999976,None,1383.2209588999976,None,4,2.3484000000025844,1383.2209588999976,None,2.3484000000025844,1385.6057297999978,None,1386.122320800001,None,1386.122320800001,None,r,0.2551410999985819,1386.122320800001,None,0.2551410999985819,,,122,001,2022_Dec_01_1732,ProdSingRedoBetween,2021.2.3,59.94043119902105,
,,,,126,0,126,0,,,,,,,,,,,,,,,,,,,,,,1390.6396817999994,None,,,,,,,,,,,,,,,,,,personnel,12,127,aloud,old,yellow,1386.9110502000003,None,1386.9110502000003,None,6,2.834608199998911,1386.9110502000003,None,2.834608199998911,1389.7787647999976,None,1390.2922928999978,None,1390.2922928999978,None,r,0.32516250000117,1390.2922928999978,None,0.32516250000117,,,122,001,2022_Dec_01_1732,ProdSingRedoBetween,2021.2.3,59.94043119902105,
,,,,127,0,127,0,,,,,,,,,,,,,,,,,,,,,,1393.8281800000004,None,,,,,,,,,,,,,,,,,,shear,166,128,aloud,new,null,1391.1620832000008,None,1391.1620832000008,None,3,1.8473392000014428,1391.1620832000008,None,1.8473392000014428,1393.0432312999983,None,1393.5644864999995,None,1393.5644864999995,None,f,0.2290261999987706,1393.5644864999995,None,0.2290261999987706,,,122,001,2022_Dec_01_1732,ProdSingRedoBetween,2021.2.3,59.94043119902105,
,,,,128,0,128,0,,,,,,,,,,,,,,,,,,,,,,1398.1619026999979,None,,,,,,,,,,,,,,,,,,scene,94,129,aloud,new,null,1394.3521221999981,None,1394.3521221999981,None,2,2.1293622000011965,1394.3521221999981,None,2.1293622000011965,1396.5135865999982,None,1397.0387310999977,None,1397.0387310999977,None,f,1.1068218000000343,1397.0387310999977,None,1.1068218000000343,,,122,001,2022_Dec_01_1732,ProdSingRedoBetween,2021.2.3,59.94043119902105,
,,,,129,0,129,0,,,,,,,,,,,,,,,,,,,,,,1403.2670529999996,None,,,,,,,,,,,,,,,,,,appeal,9,130,aloud,old,yellow,1398.6732807999979,None,1398.6732807999979,None,4,3.6641430000017863,1398.6732807999979,None,3.6641430000017863,1402.3672499999993,None,1402.869808299998,None,1402.869808299998,None,r,0.3716174000001047,1402.869808299998,None,0.3716174000001047,,,122,001,2022_Dec_01_1732,ProdSingRedoBetween,2021.2.3,59.94043119902105,
,,,,130,0,130,0,,,,,,,,,,,,,,,,,,,,,,1408.6389161000006,None,,,,,,,,,,,,,,,,,,escape,84,131,aloud,old,red,1403.773773500001,None,1403.773773500001,None,2,4.0918430000019725,1403.773773500001,None,4.0918430000019725,1407.9076972000003,None,1408.4222604999995,None,1408.4222604999995,None,f,0.18721720000030473,1408.4222604999995,None,0.18721720000030473,,,122,001,2022_Dec_01_1732,ProdSingRedoBetween,2021.2.3,59.94043119902105,
,,,,131,0,131,0,,,,,,,,,,,,,,,,,,,,,,1411.8088609000006,None,,,,,,,,,,,,,,,,,,dance,132,132,aloud,new,null,1409.1491429999987,None,1409.1491429999987,None,1,1.8603671999990183,1409.1491429999987,None,1.8603671999990183,1411.0333939999982,None,1411.5494130999978,None,1411.5494130999978,None,n,0.23612059999868507,1411.5494130999978,None,0.23612059999868507,,,122,001,2022_Dec_01_1732,ProdSingRedoBetween,2021.2.3,59.94043119902105,
,,,,132,0,132,0,,,,,,,,,,,,,,,,,,,,,,1415.8643324000004,None,,,,,,,,,,,,,,,,,,prime,66,133,aloud,old,red,1412.3192605000004,None,1412.3192605000004,None,2,2.690215500002523,1412.3192605000004,None,2.690215500002523,1415.0380570999987,None,1415.5520846,None,1415.5520846,None,f,0.2893345999982557,1415.5520846,None,0.2893345999982557,,,122,001,2022_Dec_01_1732,ProdSingRedoBetween,2021.2.3,59.94043119902105,
,,,,133,0,133,0,,,,,,,,,,,,,,,,,,,,,,1420.0339012000004,None,,,,,,,,,,,,,,,,,,figure,79,134,aloud,old,red,1416.3685957999987,None,1416.3685957999987,None,3,2.8089946000000054,1416.3685957999987,None,2.8089946000000054,1419.2035199999991,None,1419.7181329999985,None,1419.7181329999985,None,f,0.2993328000011388,1419.7181329999985,None,0.2993328000011388,,,122,001,2022_Dec_01_1732,ProdSingRedoBetween,2021.2.3,59.94043119902105,
,,,,134,0,134,0,,,,,,,,,,,,,,,,,,,,,,1424.6393016000002,None,,,,,,,,,,,,,,,,,,salary,87,135,aloud,old,red,1420.5380775999984,None,1420.5380775999984,None,2,3.215457600002992,1420.5380775999984,None,3.215457600002992,1423.776333599999,None,1424.2886050999987,None,1424.2886050999987,None,f,0.3209922000023653,1424.2886050999987,None,0.3209922000023653,,,122,001,2022_Dec_01_1732,ProdSingRedoBetween,2021.2.3,59.94043119902105,
,,,,135,0,135,0,,,,,,,,,,,,,,,,,,,,,,1428.9593461000004,None,,,,,,,,,,,,,,,,,,clean,104,136,aloud,new,null,1425.1421126999994,None,1425.1421126999994,None,2,2.2274137000022165,1425.1421126999994,None,2.2274137000022165,1427.3993321999988,None,1427.9114158000011,None,1427.9114158000011,None,f,1.0180242999995244,1427.9114158000011,None,1.0180242999995244,,,122,001,2022_Dec_01_1732,ProdSingRedoBetween,2021.2.3,59.94043119902105,
,,,,136,0,136,0,,,,,,,,,,,,,,,,,,,,,,1431.6145596999995,None,,,,,,,,,,,,,,,,,,grade,118,137,aloud,new,null,1429.4720468999985,None,1429.4720468999985,None,1,1.3213342999988527,1429.4720468999985,None,1.3213342999988527,1430.8129829999998,None,1431.3323276999981,None,1431.3323276999981,None,n,0.2531395000005432,1431.3323276999981,None,0.2531395000005432,,,122,001,2022_Dec_01_1732,ProdSingRedoBetween,2021.2.3,59.94043119902105,
,,,,137,0,137,0,,,,,,,,,,,,,,,,,,,,,,1434.3154703,None,,,,,,,,,,,,,,,,,,author,128,138,aloud,new,null,1432.1374327999984,None,1432.1374327999984,None,1,1.391943700000411,1432.1374327999984,None,1.391943700000411,1433.5490787999988,None,1434.064557900001,None,1434.064557900001,None,n,0.22500229999786825,1434.064557900001,None,0.22500229999786825,,,122,001,2022_Dec_01_1732,ProdSingRedoBetween,2021.2.3,59.94043119902105,
,,,,138,0,138,0,,,,,,,,,,,,,,,,,,,,,,1439.0194091999983,None,,,,,,,,,,,,,,,,,,answer,102,139,aloud,new,null,1434.8330705000008,None,1434.8330705000008,None,2,2.9283832000000984,1434.8330705000008,None,2.9283832000000984,1437.7981806999996,None,1438.3139654999977,None,1438.3139654999977,None,f,0.6794929999996384,1438.3139654999977,None,0.6794929999996384,,,122,001,2022_Dec_01_1732,ProdSingRedoBetween,2021.2.3,59.94043119902105,
,,,,139,0,139,0,,,,,,,,,,,,,,,,,,,,,,1443.5073491000003,None,,,,,,,,,,,,,,,,,,executive,32,140,aloud,old,blue,1439.5284506999997,None,1439.5284506999997,None,6,3.360926699999254,1439.5284506999997,None,3.360926699999254,1442.9080018999994,None,1443.414690499998,None,1443.414690499998,None,r,0.0667859999994107,1443.414690499998,None,0.0667859999994107,,,122,001,2022_Dec_01_1732,ProdSingRedoBetween,2021.2.3,59.94043119902105,
,,,,140,0,140,0,,,,,,,,,,,,,,,,,,,,,,1445.9929755999983,None,,,,,,,,,,,,,,,,,,bitter,8,141,aloud,old,yellow,1444.0172977000002,None,1444.0172977000002,None,6,1.144010200001503,1444.0172977000002,None,1.144010200001503,1445.1976078999978,None,1445.7143767999987,None,1445.7143767999987,None,r,0.2631450999979279,1445.7143767999987,None,0.2631450999979279,,,122,001,2022_Dec_01_1732,ProdSingRedoBetween,2021.2.3,59.94043119902105,
,,,,141,0,141,0,,,,,,,,,,,,,,,,,,,,,,1449.246293100001,None,,,,,,,,,,,,,,,,,,opening,178,142,aloud,new,null,1446.5117049,None,1446.5117049,None,1,1.8738488000017242,1446.5117049,None,1.8738488000017242,1448.4206864999978,None,1448.929243999999,None,1448.929243999999,None,n,0.28819669999938924,1448.929243999999,None,0.28819669999938924,,,122,001,2022_Dec_01_1732,ProdSingRedoBetween,2021.2.3,59.94043119902105,
,,,,142,0,142,0,,,,,,,,,,,,,,,,,,,,,,1452.652428999998,None,,,,,,,,,,,,,,,,,,tragedy,24,143,aloud,old,yellow,1449.7586837999988,None,1449.7586837999988,None,1,2.0268661999980395,1449.7586837999988,None,2.0268661999980395,1451.8230981999986,None,1452.335771099999,None,1452.335771099999,None,n,0.2897283999991487,1452.335771099999,None,0.2897283999991487,,,122,001,2022_Dec_01_1732,ProdSingRedoBetween,2021.2.3,59.94043119902105,
,,,,143,0,143,0,,,,,,,,,,,,,,,,,,,,,,1456.3200963999989,None,,,,,,,,,,,,,,,,,,bureau,33,144,aloud,old,blue,1453.1717769999996,None,1453.1717769999996,None,6,2.3578024999987974,1453.1717769999996,None,2.3578024999987974,1455.562611999998,None,1456.0713510999994,None,1456.0713510999994,None,r,0.22607109999808017,1456.0713510999994,None,0.22607109999808017,,,122,001,2022_Dec_01_1732,ProdSingRedoBetween,2021.2.3,59.94043119902105,
,,,,144,0,144,0,,,,,,,,,,,,,,,,,,,,,,1459.7597685,None,,,,,,,,,,,,,,,,,,committee,54,145,aloud,old,blue,1456.831323899998,None,1456.831323899998,None,5,2.010167399999773,1456.831323899998,None,2.010167399999773,1458.877445099999,None,1459.3953645000001,None,1459.3953645000001,None,r,0.34229090000008,1459.3953645000001,None,0.34229090000008,,,122,001,2022_Dec_01_1732,ProdSingRedoBetween,2021.2.3,59.94043119902105,
,,,,145,0,145,0,,,,,,,,,,,,,,,,,,,,,,1464.2629701000005,None,,,,,,,,,,,,,,,,,,business,129,146,aloud,new,null,1460.290441199999,None,1460.290441199999,None,2,3.038873000001331,1460.290441199999,None,3.038873000001331,1463.3625137999989,None,1463.8817603999996,None,1463.8817603999996,None,f,0.3516256999973848,1463.8817603999996,None,0.3516256999973848,,,122,001,2022_Dec_01_1732,ProdSingRedoBetween,2021.2.3,59.94043119902105,
,,,,146,0,146,0,,,,,,,,,,,,,,,,,,,,,,1469.1327452000005,None,,,,,,,,,,,,,,,,,,finish,2,147,aloud,old,yellow,1464.783099799999,None,1464.783099799999,None,2,3.3864950999995926,1464.783099799999,None,3.3864950999995926,1468.203618399999,None,1468.7225838999984,None,1468.7225838999984,None,f,0.38285690000338946,1468.7225838999984,None,0.38285690000338946,,,122,001,2022_Dec_01_1732,ProdSingRedoBetween,2021.2.3,59.94043119902105,
,,,,147,0,147,0,,,,,,,,,,,,,,,,,,,,,,1473.1202124999982,None,,,,,,,,,,,,,,,,,,household,52,148,aloud,old,blue,1469.6424184999996,None,1469.6424184999996,None,4,2.7109469000024546,1469.6424184999996,None,2.7109469000024546,1472.3728308999998,None,1472.8908167000009,None,1472.8908167000009,None,r,0.19860410000183037,1472.8908167000009,None,0.19860410000183037,,,122,001,2022_Dec_01_1732,ProdSingRedoBetween,2021.2.3,59.94043119902105,
,,,,148,0,148,0,,,,,,,,,,,,,,,,,,,,,,1476.6237382,None,,,,,,,,,,,,,,,,,,novel,151,149,aloud,new,null,1473.6357716999992,None,1473.6357716999992,None,2,1.925650699999096,1473.6357716999992,None,1.925650699999096,1475.5957617999993,None,1476.1092055000008,None,1476.1092055000008,None,n,0.4922376999966218,1476.1092055000008,None,0.4922376999966218,,,122,001,2022_Dec_01_1732,ProdSingRedoBetween,2021.2.3,59.94043119902105,
,,,,149,0,149,0,,,,,,,,,,,,,,,,,,,,,,1480.7954649999992,None,,,,,,,,,,,,,,,,,,provision,172,150,aloud,new,null,1477.1403237999984,None,1477.1403237999984,None,1,1.7013378000010562,1477.1403237999984,None,1.7013378000010562,1478.8729003000008,None,1479.3904169999987,None,1479.3904169999987,None,n,1.3790152999972634,1479.3904169999987,None,1.3790152999972634,,,122,001,2022_Dec_01_1732,ProdSingRedoBetween,2021.2.3,59.94043119902105,
,,,,150,0,150,0,,,,,,,,,,,,,,,,,,,,,,1484.5487914000005,None,,,,,,,,,,,,,,,,,,history,71,151,aloud,old,red,1481.3015512999991,None,1481.3015512999991,None,6,2.459872199997335,1481.3015512999991,None,2.459872199997335,1483.782561699998,None,1484.3039222999978,None,1484.3039222999978,None,r,0.21753410000019358,1484.3039222999978,None,0.21753410000019358,,,122,001,2022_Dec_01_1732,ProdSingRedoBetween,2021.2.3,59.94043119902105,
,,,,151,0,151,0,,,,,,,,,,,,,,,,,,,,,,1487.2010155999997,None,,,,,,,,,,,,,,,,,,south,28,152,aloud,old,yellow,1485.0642125999984,None,1485.0642125999984,None,6,1.281316099997639,1485.0642125999984,None,1.281316099997639,1486.372484899999,None,1486.888962099998,None,1486.888962099998,None,r,0.2965041999996174,1486.888962099998,None,0.2965041999996174,,,122,001,2022_Dec_01_1732,ProdSingRedoBetween,2021.2.3,59.94043119902105,
,,,,152,0,152,0,,,,,,,,,,,,,,,,,,,,,,1490.6238790999996,None,,,,,,,,,,,,,,,,,,turkey,155,153,aloud,new,null,1487.7130171999997,None,1487.7130171999997,None,1,2.0405291999995825,1487.7130171999997,None,2.0405291999995825,1489.7742013999996,None,1490.2942918000008,None,1490.2942918000008,None,n,0.3073588999977801,1490.2942918000008,None,0.3073588999977801,,,122,001,2022_Dec_01_1732,ProdSingRedoBetween,2021.2.3,59.94043119902105,
,,,,153,0,153,0,,,,,,,,,,,,,,,,,,,,,,1495.7928643999985,None,,,,,,,,,,,,,,,,,,phrase,148,154,aloud,new,null,1491.1446013999994,None,1491.1446013999994,None,1,1.9288587000010011,1491.1446013999994,None,1.9288587000010011,1493.1007056999988,None,1493.6118263999997,None,1493.6118263999997,None,n,2.149694700001419,1493.6118263999997,None,2.149694700001419,,,122,001,2022_Dec_01_1732,ProdSingRedoBetween,2021.2.3,59.94043119902105,
,,,,154,0,154,0,,,,,,,,,,,,,,,,,,,,,,1499.0961767000008,None,,,,,,,,,,,,,,,,,,trail,70,155,aloud,old,red,1496.3114631999997,None,1496.3114631999997,None,2,1.7621366000021226,1496.3114631999997,None,1.7621366000021226,1498.1047212999983,None,1498.6139803000005,None,1498.6139803000005,None,f,0.45150769999963813,1498.6139803000005,None,0.45150769999963813,,,122,001,2022_Dec_01_1732,ProdSingRedoBetween,2021.2.3,59.94043119902105,
,,,,155,0,155,0,,,,,,,,,,,,,,,,,,,,,,1503.5171865000011,None,,,,,,,,,,,,,,,,,,master,30,156,aloud,old,blue,1499.6088703999994,None,1499.6088703999994,None,2,3.104688100000203,1499.6088703999994,None,3.104688100000203,1502.7492500000008,None,1503.2526639999996,None,1503.2526639999996,None,f,0.24479000000064843,1503.2526639999996,None,0.24479000000064843,,,122,001,2022_Dec_01_1732,ProdSingRedoBetween,2021.2.3,59.94043119902105,
,,,,156,0,156,0,,,,,,,,,,,,,,,,,,,,,,1508.2243337,None,,,,,,,,,,,,,,,,,,theme,124,157,aloud,new,null,1504.0266745000008,None,1504.0266745000008,None,2,3.1827838999997766,1504.0266745000008,None,3.1827838999997766,1507.2376807,None,1507.7418049999978,None,1507.7418049999978,None,f,0.4518943000002764,1507.7418049999978,None,0.4518943000002764,,,122,001,2022_Dec_01_1732,ProdSingRedoBetween,2021.2.3,59.94043119902105,
,,,,157,0,157,0,,,,,,,,,,,,,,,,,,,,,,1513.9779598999994,None,,,,,,,,,,,,,,,,,,death,146,158,aloud,new,null,1508.7533239999975,None,1508.7533239999975,None,3,3.9601895000014338,1508.7533239999975,None,3.9601895000014338,1512.7457240000003,None,1513.2642209999976,None,1513.2642209999976,None,f,0.6972969000016747,1513.2642209999976,None,0.6972969000016747,,,122,001,2022_Dec_01_1732,ProdSingRedoBetween,2021.2.3,59.94043119902105,
,,,,158,0,158,0,,,,,,,,,,,,,,,,,,,,,,1516.8639423999994,None,,,,,,,,,,,,,,,,,,dispute,167,159,aloud,new,null,1514.4933481999979,None,1514.4933481999979,None,1,1.420041500001389,1514.4933481999979,None,1.420041500001389,1515.9416438999979,None,1516.4524935000009,None,1516.4524935000009,None,n,0.38096349999977974,1516.4524935000009,None,0.38096349999977974,,,122,001,2022_Dec_01_1732,ProdSingRedoBetween,2021.2.3,59.94043119902105,
,,,,159,0,159,0,,,,,,,,,,,,,,,,,,,,,,1520.435434799998,None,,,,,,,,,,,,,,,,,,space,140,160,aloud,new,null,1517.3728989999981,None,1517.3728989999981,None,1,1.6845876999977918,1517.3728989999981,None,1.6845876999977918,1519.0870061999995,None,1519.6086364000003,None,1519.6086364000003,None,n,0.8007972999985213,1519.6086364000003,None,0.8007972999985213,,,122,001,2022_Dec_01_1732,ProdSingRedoBetween,2021.2.3,59.94043119902105,
,,,,160,0,160,0,,,,,,,,,,,,,,,,,,,,,,1523.704041099998,None,,,,,,,,,,,,,,,,,,enemy,144,161,aloud,new,null,1520.9456453999992,None,1520.9456453999992,None,1,1.487879399999656,1520.9456453999992,None,1.487879399999656,1522.4576787000005,None,1522.9743423,None,1522.9743423,None,n,0.7070911000009801,1522.9743423,None,0.7070911000009801,,,122,001,2022_Dec_01_1732,ProdSingRedoBetween,2021.2.3,59.94043119902105,
,,,,161,0,161,0,,,,,,,,,,,,,,,,,,,,,,1526.7745399999985,None,,,,,,,,,,,,,,,,,,still,90,162,aloud,new,null,1524.2131946000009,None,1524.2131946000009,None,3,1.74846730000354,1524.2131946000009,None,1.74846730000354,1525.9985782000003,None,1526.5108527000011,None,1526.5108527000011,None,f,0.23495700000057695,1526.5108527000011,None,0.23495700000057695,,,122,001,2022_Dec_01_1732,ProdSingRedoBetween,2021.2.3,59.94043119902105,
,,,,162,0,162,0,,,,,,,,,,,,,,,,,,,,,,1530.5122004000004,None,,,,,,,,,,,,,,,,,,passage,158,163,aloud,new,null,1527.2912212999981,None,1527.2912212999981,None,1,1.8623393999987456,1527.2912212999981,None,1.8623393999987456,1529.1852607,None,1529.7020357000001,None,1529.7020357000001,None,n,0.7794971000002988,1529.7020357000001,None,0.7794971000002988,,,122,001,2022_Dec_01_1732,ProdSingRedoBetween,2021.2.3,59.94043119902105,
,,,,163,0,163,0,,,,,,,,,,,,,,,,,,,,,,1533.0133564999996,None,,,,,,,,,,,,,,,,,,impact,105,164,aloud,new,null,1531.0169223999983,None,1531.0169223999983,None,1,1.1847132999973837,1531.0169223999983,None,1.1847132999973837,1532.2392545000002,None,1532.7502606999988,None,1532.7502606999988,None,n,0.23515279999992345,1532.7502606999988,None,0.23515279999992345,,,122,001,2022_Dec_01_1732,ProdSingRedoBetween,2021.2.3,59.94043119902105,
,,,,164,0,164,0,,,,,,,,,,,,,,,,,,,,,,1536.5001126999996,None,,,,,,,,,,,,,,,,,,sweet,176,165,aloud,new,null,1533.5241590000005,None,1533.5241590000005,None,2,2.2373604999993404,1533.5241590000005,None,2.2373604999993404,1535.786739700001,None,1536.3047752999992,None,1536.3047752999992,None,f,0.16874070000267238,1536.3047752999992,None,0.16874070000267238,,,122,001,2022_Dec_01_1732,ProdSingRedoBetween,2021.2.3,59.94043119902105,
,,,,165,0,165,0,,,,,,,,,,,,,,,,,,,,,,1540.6709917000007,None,,,,,,,,,,,,,,,,,,straight,25,166,aloud,old,yellow,1537.0065828000006,None,1537.0065828000006,None,2,2.730848299997888,1537.0065828000006,None,2.730848299997888,1539.755616999999,None,1540.2721042999983,None,1540.2721042999983,None,f,0.3773865000002843,1540.2721042999983,None,0.3773865000002843,,,122,001,2022_Dec_01_1732,ProdSingRedoBetween,2021.2.3,59.94043119902105,
,,,,166,0,166,0,,,,,,,,,,,,,,,,,,,,,,1544.2579229000003,None,,,,,,,,,,,,,,,,,,public,162,167,aloud,new,null,1541.1812804,None,1541.1812804,None,1,1.588335599997663,1541.1812804,None,1.588335599997663,1542.8016934000007,None,1543.306886399998,None,1543.306886399998,None,n,0.9346876000017801,1543.306886399998,None,0.9346876000017801,,,122,001,2022_Dec_01_1732,ProdSingRedoBetween,2021.2.3,59.94043119902105,
,,,,167,0,167,0,,,,,,,,,,,,,,,,,,,,,,1549.0142713999994,None,,,,,,,,,,,,,,,,,,territory,64,168,aloud,old,red,1544.7693577999999,None,1544.7693577999999,None,6,3.5601601999987906,1544.7693577999999,None,3.5601601999987906,1548.350383099998,None,1548.8627109000008,None,1548.8627109000008,None,r,0.13103210000190302,1548.8627109000008,None,0.13103210000190302,,,122,001,2022_Dec_01_1732,ProdSingRedoBetween,2021.2.3,59.94043119902105,
,,,,168,0,168,0,,,,,,,,,,,,,,,,,,,,,,1553.4882294999989,None,,,,,,,,,,,,,,,,,,empty,175,169,aloud,new,null,1549.5352582999985,None,1549.5352582999985,None,4,3.1063967999980377,1549.5352582999985,None,3.1063967999980377,1552.6757070999993,None,1553.1854467999983,None,1553.1854467999983,None,r,0.27994480000052135,1553.1854467999983,None,0.27994480000052135,,,122,001,2022_Dec_01_1732,ProdSingRedoBetween,2021.2.3,59.94043119902105,
,,,,169,0,169,0,,,,,,,,,,,,,,,,,,,,,,1557.7381194000009,None,,,,,,,,,,,,,,,,,,meeting,108,170,aloud,new,null,1554.0154693000004,None,1554.0154693000004,None,2,2.9541162999994413,1554.0154693000004,None,2.9541162999994413,1556.9905686999991,None,1557.5045704000004,None,1557.5045704000004,None,f,0.20906489999833866,1557.5045704000004,None,0.20906489999833866,,,122,001,2022_Dec_01_1732,ProdSingRedoBetween,2021.2.3,59.94043119902105,
,,,,170,0,170,0,,,,,,,,,,,,,,,,,,,,,,1562.7097639999993,None,,,,,,,,,,,,,,,,,,level,98,171,aloud,new,null,1558.2471637999988,None,1558.2471637999988,None,3,3.778653099998337,1558.2471637999988,None,3.778653099998337,1562.0502124999985,None,1562.5596583000006,None,1562.5596583000006,None,f,0.12191349999920931,1562.5596583000006,None,0.12191349999920931,,,122,001,2022_Dec_01_1732,ProdSingRedoBetween,2021.2.3,59.94043119902105,
,,,,171,0,171,0,,,,,,,,,,,,,,,,,,,,,,1566.5970185999977,None,,,,,,,,,,,,,,,,,,detective,5,172,aloud,old,yellow,1563.219606999999,None,1563.219606999999,None,2,2.5737912000004144,1563.219606999999,None,2.5737912000004144,1565.8133880999994,None,1566.321284900001,None,1566.321284900001,None,f,0.2562565000007453,1566.321284900001,None,0.2562565000007453,,,122,001,2022_Dec_01_1732,ProdSingRedoBetween,2021.2.3,59.94043119902105,
,,,,172,0,172,0,,,,,,,,,,,,,,,,,,,,,,1571.9735136999989,None,,,,,,,,,,,,,,,,,,build,72,173,aloud,old,red,1567.101513900001,None,1567.101513900001,None,4,4.052192399998603,1567.101513900001,None,4.052192399998603,1571.1924813999976,None,1571.7027400000006,None,1571.7027400000006,None,f,0.24293590000161203,1571.7027400000006,None,0.24293590000161203,,,122,001,2022_Dec_01_1732,ProdSingRedoBetween,2021.2.3,59.94043119902105,
,,,,173,0,173,0,,,,,,,,,,,,,,,,,,,,,,1575.8741850999977,None,,,,,,,,,,,,,,,,,,dream,157,174,aloud,new,null,1572.4934288000004,None,1572.4934288000004,None,2,2.444327000001067,1572.4934288000004,None,2.444327000001067,1574.9647311000008,None,1575.4801597000005,None,1575.4801597000005,None,f,0.36937530000068364,1575.4801597000005,None,0.36937530000068364,,,122,001,2022_Dec_01_1732,ProdSingRedoBetween,2021.2.3,59.94043119902105,
,,,,174,0,174,0,,,,,,,,,,,,,,,,,,,,,,1579.2782855999976,None,,,,,,,,,,,,,,,,,,shape,57,175,aloud,old,blue,1576.386626399999,None,1576.386626399999,None,6,2.022843800001283,1576.386626399999,None,2.022843800001283,1578.4296058,None,1578.9502154000002,None,1578.9502154000002,None,r,0.30744920000142884,1578.9502154000002,None,0.30744920000142884,,,122,001,2022_Dec_01_1732,ProdSingRedoBetween,2021.2.3,59.94043119902105,
,,,,175,0,175,0,,,,,,,,,,,,,,,,,,,,,,1584.0808777999991,None,,,,,,,,,,,,,,,,,,nation,46,176,aloud,old,blue,1579.804224899999,None,1579.804224899999,None,4,3.5652445999985503,1579.804224899999,None,3.5652445999985503,1583.3970229000006,None,1583.8976072999976,None,1583.8976072999976,None,f,0.1597475000016857,1583.8976072999976,None,0.1597475000016857,,,122,001,2022_Dec_01_1732,ProdSingRedoBetween,2021.2.3,59.94043119902105,
,,,,176,0,176,0,,,,,,,,,,,,,,,,,,,,,,1589.6199108,None,,,,,,,,,,,,,,,,,,hunger,109,177,aloud,new,null,1584.5957047999982,None,1584.5957047999982,None,3,4.3819667999996454,1584.5957047999982,None,4.3819667999996454,1589.0119264999994,None,1589.5219145999981,None,1589.5219145999981,None,f,0.07162070000049425,1589.5219145999981,None,0.07162070000049425,,,122,001,2022_Dec_01_1732,ProdSingRedoBetween,2021.2.3,59.94043119902105,
,,,,177,0,177,0,,,,,,,,,,,,,,,,,,,,,,1593.573934199998,None,,,,,,,,,,,,,,,,,,production,119,178,aloud,new,null,1590.1361980000001,None,1590.1361980000001,None,2,2.561351600001217,1590.1361980000001,None,2.561351600001217,1592.7299778999986,None,1593.2420762000002,None,1593.2420762000002,None,f,0.30346929999723216,1593.2420762000002,None,0.30346929999723216,,,122,001,2022_Dec_01_1732,ProdSingRedoBetween,2021.2.3,59.94043119902105,
,,,,178,0,178,0,,,,,,,,,,,,,,,,,,,,,,1596.8104084999977,None,,,,,,,,,,,,,,,,,,block,156,179,aloud,new,null,1594.081850300001,None,1594.081850300001,None,1,1.9039068999991287,1594.081850300001,None,1.9039068999991287,1596.0209692999997,None,1596.5288470999985,None,1596.5288470999985,None,n,0.26461099999869475,1596.5288470999985,None,0.26461099999869475,,,122,001,2022_Dec_01_1732,ProdSingRedoBetween,2021.2.3,59.94043119902105,
