StudyLoop.thisRepN,StudyLoop.thisTrialN,StudyLoop.thisN,StudyLoop.thisIndex,TestLoop.thisRepN,TestLoop.thisTrialN,TestLoop.thisN,TestLoop.thisIndex,textCondition.started,textCondition.stopped,keyCondition.keys,keyCondition.rt,keyCondition.started,keyCondition.stopped,Condition,textWelcome.started,textWelcome.stopped,keyWelcome.keys,keyWelcome.rt,keyWelcome.started,keyWelcome.stopped,textAloud.started,textAloud.stopped,textSilent.started,textSilent.stopped,textSing.started,textSing.stopped,conditional_text.started,conditional_text.stopped,textBlank500.started,textBlank500.stopped,study_word,study_num,study_order,study_type,word_color,textStudy.started,textStudy.stopped,keyStudy.keys,keyStudy.started,keyStudy.stopped,textTestInstructions.started,textTestInstructions.stopped,key_resp_3.keys,key_resp_3.rt,key_resp_3.started,key_resp_3.stopped,test_word,test_num,test_order,test_condition,old_new_test,test_word_original_color,textConf.started,textConf.stopped,textConfScale.started,textConfScale.stopped,keyConf.keys,keyConf.rt,keyConf.started,keyConf.stopped,confidence response time,textTestBlank.started,textTestBlank.stopped,textRKN.started,textRKN.stopped,textRKNScale.started,textRKNScale.stopped,keyRKN.keys,keyRKN.rt,keyRKN.started,keyRKN.stopped,rkn response time,textEnd.started,textEnd.stopped,participant,session,date,expName,psychopyVersion,frameRate
,,,,,,,,20.3657075,None,c,34.5510531,20.3657075,None,,,,,,,,,,,,,,,,,,,,,,,,,,,,,,,,,,,,,,,,,,,,,,,,,,,,,,,,,,,,,,Dec02Sing3,123,2022_Dec_02_1529,ProdSingRedoBetween,2021.2.3,59.92082063
,,,,,,,,,,,,,,SingTest,54.9838794,None,space,6.8925396,54.9838794,None,,,,,,,,,,,,,,,,,,,,,,,,,,,,,,,,,,,,,,,,,,,,,,,,,,,,,,,Dec02Sing3,123,2022_Dec_02_1529,ProdSingRedoBetween,2021.2.3,59.92082063
0,0,0,0,,,,,,,,,,,,,,,,,,54.9838794,None,54.9838794,None,54.9838794,None,54.9838794,None,64.4407452,None,cross,9,1,sing,yellow,62.4351652,None,None,62.4351652,None,,,,,,,,,,,,,,,,,,,,,,,,,,,,,,,,,,,Dec02Sing3,123,2022_Dec_02_1529,ProdSingRedoBetween,2021.2.3,59.92082063
1,0,1,0,,,,,,,,,,,,,,,,,,,,,,,,,,66.9574998,None,direction,10,2,sing,yellow,64.9442509,None,None,64.9442509,None,,,,,,,,,,,,,,,,,,,,,,,,,,,,,,,,,,,Dec02Sing3,123,2022_Dec_02_1529,ProdSingRedoBetween,2021.2.3,59.92082063
2,0,2,0,,,,,,,,,,,,,,,,,,,,,,,,,,69.4601336,None,weather,68,3,sing,red,67.4608822,None,None,67.4608822,None,,,,,,,,,,,,,,,,,,,,,,,,,,,,,,,,,,,Dec02Sing3,123,2022_Dec_02_1529,ProdSingRedoBetween,2021.2.3,59.92082063
3,0,3,0,,,,,,,,,,,,,,,,,,,,,,,,,,71.9792711,None,poetry,30,4,sing,blue,69.9669995,None,None,69.9669995,None,,,,,,,,,,,,,,,,,,,,,,,,,,,,,,,,,,,Dec02Sing3,123,2022_Dec_02_1529,ProdSingRedoBetween,2021.2.3,59.92082063
4,0,4,0,,,,,,,,,,,,,,,,,,,,,,,,,,74.4984457,None,platform,34,5,sing,blue,72.4883801,None,None,72.4883801,None,,,,,,,,,,,,,,,,,,,,,,,,,,,,,,,,,,,Dec02Sing3,123,2022_Dec_02_1529,ProdSingRedoBetween,2021.2.3,59.92082063
5,0,5,0,,,,,,,,,,,,,,,,,,,,,,,,,,77.0175739,None,second,69,6,sing,red,75.0025233,None,None,75.0025233,None,,,,,,,,,,,,,,,,,,,,,,,,,,,,,,,,,,,Dec02Sing3,123,2022_Dec_02_1529,ProdSingRedoBetween,2021.2.3,59.92082063
6,0,6,0,,,,,,,,,,,,,,,,,,,,,,,,,,79.5367884,None,subject,51,7,sing,blue,77.5236172,None,None,77.5236172,None,,,,,,,,,,,,,,,,,,,,,,,,,,,,,,,,,,,Dec02Sing3,123,2022_Dec_02_1529,ProdSingRedoBetween,2021.2.3,59.92082063
7,0,7,0,,,,,,,,,,,,,,,,,,,,,,,,,,82.0559856,None,property,23,8,sing,yellow,80.0477736,None,None,80.0477736,None,,,,,,,,,,,,,,,,,,,,,,,,,,,,,,,,,,,Dec02Sing3,123,2022_Dec_02_1529,ProdSingRedoBetween,2021.2.3,59.92082063
8,0,8,0,,,,,,,,,,,,,,,,,,,,,,,,,,84.5584941,None,color,6,9,sing,yellow,82.5562806,None,None,82.5562806,None,,,,,,,,,,,,,,,,,,,,,,,,,,,,,,,,,,,Dec02Sing3,123,2022_Dec_02_1529,ProdSingRedoBetween,2021.2.3,59.92082063
9,0,9,0,,,,,,,,,,,,,,,,,,,,,,,,,,87.0775149,None,crowd,72,10,sing,red,85.0618262,None,None,85.0618262,None,,,,,,,,,,,,,,,,,,,,,,,,,,,,,,,,,,,Dec02Sing3,123,2022_Dec_02_1529,ProdSingRedoBetween,2021.2.3,59.92082063
10,0,10,0,,,,,,,,,,,,,,,,,,,,,,,,,,89.5968299,None,quantity,61,11,sing,red,87.5869797,None,None,87.5869797,None,,,,,,,,,,,,,,,,,,,,,,,,,,,,,,,,,,,Dec02Sing3,123,2022_Dec_02_1529,ProdSingRedoBetween,2021.2.3,59.92082063
11,0,11,0,,,,,,,,,,,,,,,,,,,,,,,,,,92.0995287,None,point,12,12,sing,yellow,90.0848101,None,None,90.0848101,None,,,,,,,,,,,,,,,,,,,,,,,,,,,,,,,,,,,Dec02Sing3,123,2022_Dec_02_1529,ProdSingRedoBetween,2021.2.3,59.92082063
12,0,12,0,,,,,,,,,,,,,,,,,,,,,,,,,,94.6017935,None,swift,74,13,sing,red,92.6028172,None,None,92.6028172,None,,,,,,,,,,,,,,,,,,,,,,,,,,,,,,,,,,,Dec02Sing3,123,2022_Dec_02_1529,ProdSingRedoBetween,2021.2.3,59.92082063
13,0,13,0,,,,,,,,,,,,,,,,,,,,,,,,,,97.1208629,None,question,58,14,sing,blue,95.1061684,None,None,95.1061684,None,,,,,,,,,,,,,,,,,,,,,,,,,,,,,,,,,,,Dec02Sing3,123,2022_Dec_02_1529,ProdSingRedoBetween,2021.2.3,59.92082063
14,0,14,0,,,,,,,,,,,,,,,,,,,,,,,,,,99.6235547,None,candidate,53,15,sing,blue,97.6215727,None,None,97.6215727,None,,,,,,,,,,,,,,,,,,,,,,,,,,,,,,,,,,,Dec02Sing3,123,2022_Dec_02_1529,ProdSingRedoBetween,2021.2.3,59.92082063
15,0,15,0,,,,,,,,,,,,,,,,,,,,,,,,,,102.1427414,None,impact,1,16,sing,yellow,100.1283203,None,None,100.1283203,None,,,,,,,,,,,,,,,,,,,,,,,,,,,,,,,,,,,Dec02Sing3,123,2022_Dec_02_1529,ProdSingRedoBetween,2021.2.3,59.92082063
16,0,16,0,,,,,,,,,,,,,,,,,,,,,,,,,,104.6620177,None,report,66,17,sing,red,102.6465156,None,None,102.6465156,None,,,,,,,,,,,,,,,,,,,,,,,,,,,,,,,,,,,Dec02Sing3,123,2022_Dec_02_1529,ProdSingRedoBetween,2021.2.3,59.92082063
17,0,17,0,,,,,,,,,,,,,,,,,,,,,,,,,,107.1644411,None,character,84,18,sing,red,105.1633893,None,None,105.1633893,None,,,,,,,,,,,,,,,,,,,,,,,,,,,,,,,,,,,Dec02Sing3,123,2022_Dec_02_1529,ProdSingRedoBetween,2021.2.3,59.92082063
18,0,18,0,,,,,,,,,,,,,,,,,,,,,,,,,,109.6832361,None,drama,32,19,sing,blue,107.6699844,None,None,107.6699844,None,,,,,,,,,,,,,,,,,,,,,,,,,,,,,,,,,,,Dec02Sing3,123,2022_Dec_02_1529,ProdSingRedoBetween,2021.2.3,59.92082063
19,0,19,0,,,,,,,,,,,,,,,,,,,,,,,,,,112.2029043,None,throw,26,20,sing,yellow,110.1909441,None,None,110.1909441,None,,,,,,,,,,,,,,,,,,,,,,,,,,,,,,,,,,,Dec02Sing3,123,2022_Dec_02_1529,ProdSingRedoBetween,2021.2.3,59.92082063
20,0,20,0,,,,,,,,,,,,,,,,,,,,,,,,,,114.7219126,None,novel,42,21,sing,blue,112.715532,None,None,112.715532,None,,,,,,,,,,,,,,,,,,,,,,,,,,,,,,,,,,,Dec02Sing3,123,2022_Dec_02_1529,ProdSingRedoBetween,2021.2.3,59.92082063
21,0,21,0,,,,,,,,,,,,,,,,,,,,,,,,,,117.2244994,None,device,75,22,sing,red,115.2237081,None,None,115.2237081,None,,,,,,,,,,,,,,,,,,,,,,,,,,,,,,,,,,,Dec02Sing3,123,2022_Dec_02_1529,ProdSingRedoBetween,2021.2.3,59.92082063
22,0,22,0,,,,,,,,,,,,,,,,,,,,,,,,,,119.7269525,None,light,17,23,sing,yellow,117.7256728,None,None,117.7256728,None,,,,,,,,,,,,,,,,,,,,,,,,,,,,,,,,,,,Dec02Sing3,123,2022_Dec_02_1529,ProdSingRedoBetween,2021.2.3,59.92082063
23,0,23,0,,,,,,,,,,,,,,,,,,,,,,,,,,122.2295621,None,meeting,63,24,sing,red,120.2278639,None,None,120.2278639,None,,,,,,,,,,,,,,,,,,,,,,,,,,,,,,,,,,,Dec02Sing3,123,2022_Dec_02_1529,ProdSingRedoBetween,2021.2.3,59.92082063
24,0,24,0,,,,,,,,,,,,,,,,,,,,,,,,,,124.7486309,None,front,77,25,sing,red,122.7400403,None,None,122.7400403,None,,,,,,,,,,,,,,,,,,,,,,,,,,,,,,,,,,,Dec02Sing3,123,2022_Dec_02_1529,ProdSingRedoBetween,2021.2.3,59.92082063
25,0,25,0,,,,,,,,,,,,,,,,,,,,,,,,,,127.2511687,None,scale,16,26,sing,yellow,125.2489258,None,None,125.2489258,None,,,,,,,,,,,,,,,,,,,,,,,,,,,,,,,,,,,Dec02Sing3,123,2022_Dec_02_1529,ProdSingRedoBetween,2021.2.3,59.92082063
26,0,26,0,,,,,,,,,,,,,,,,,,,,,,,,,,129.7703138,None,evidence,14,27,sing,yellow,127.7557662,None,None,127.7557662,None,,,,,,,,,,,,,,,,,,,,,,,,,,,,,,,,,,,Dec02Sing3,123,2022_Dec_02_1529,ProdSingRedoBetween,2021.2.3,59.92082063
27,0,27,0,,,,,,,,,,,,,,,,,,,,,,,,,,132.2727883,None,recall,39,28,sing,blue,130.270821,None,None,130.270821,None,,,,,,,,,,,,,,,,,,,,,,,,,,,,,,,,,,,Dec02Sing3,123,2022_Dec_02_1529,ProdSingRedoBetween,2021.2.3,59.92082063
28,0,28,0,,,,,,,,,,,,,,,,,,,,,,,,,,134.7752594,None,carry,4,29,sing,yellow,132.7743079,None,None,132.7743079,None,,,,,,,,,,,,,,,,,,,,,,,,,,,,,,,,,,,Dec02Sing3,123,2022_Dec_02_1529,ProdSingRedoBetween,2021.2.3,59.92082063
29,0,29,0,,,,,,,,,,,,,,,,,,,,,,,,,,137.2945913,None,partner,37,30,sing,blue,135.2844042,None,None,135.2844042,None,,,,,,,,,,,,,,,,,,,,,,,,,,,,,,,,,,,Dec02Sing3,123,2022_Dec_02_1529,ProdSingRedoBetween,2021.2.3,59.92082063
30,0,30,0,,,,,,,,,,,,,,,,,,,,,,,,,,139.7970269,None,collection,54,31,sing,blue,137.7960997,None,None,137.7960997,None,,,,,,,,,,,,,,,,,,,,,,,,,,,,,,,,,,,Dec02Sing3,123,2022_Dec_02_1529,ProdSingRedoBetween,2021.2.3,59.92082063
31,0,31,0,,,,,,,,,,,,,,,,,,,,,,,,,,142.2995573,None,payment,0,32,sing,yellow,140.2982251,None,None,140.2982251,None,,,,,,,,,,,,,,,,,,,,,,,,,,,,,,,,,,,Dec02Sing3,123,2022_Dec_02_1529,ProdSingRedoBetween,2021.2.3,59.92082063
32,0,32,0,,,,,,,,,,,,,,,,,,,,,,,,,,144.8186709,None,pressure,8,33,sing,yellow,142.8056346,None,None,142.8056346,None,,,,,,,,,,,,,,,,,,,,,,,,,,,,,,,,,,,Dec02Sing3,123,2022_Dec_02_1529,ProdSingRedoBetween,2021.2.3,59.92082063
33,0,33,0,,,,,,,,,,,,,,,,,,,,,,,,,,147.3212065,None,pretty,24,34,sing,yellow,145.3203175,None,None,145.3203175,None,,,,,,,,,,,,,,,,,,,,,,,,,,,,,,,,,,,Dec02Sing3,123,2022_Dec_02_1529,ProdSingRedoBetween,2021.2.3,59.92082063
34,0,34,0,,,,,,,,,,,,,,,,,,,,,,,,,,149.823914,None,court,21,35,sing,yellow,147.8224184,None,None,147.8224184,None,,,,,,,,,,,,,,,,,,,,,,,,,,,,,,,,,,,Dec02Sing3,123,2022_Dec_02_1529,ProdSingRedoBetween,2021.2.3,59.92082063
35,0,35,0,,,,,,,,,,,,,,,,,,,,,,,,,,152.3262309,None,theme,71,36,sing,red,150.3259176,None,None,150.3259176,None,,,,,,,,,,,,,,,,,,,,,,,,,,,,,,,,,,,Dec02Sing3,123,2022_Dec_02_1529,ProdSingRedoBetween,2021.2.3,59.92082063
36,0,36,0,,,,,,,,,,,,,,,,,,,,,,,,,,154.8287311,None,research,50,37,sing,blue,152.8291799,None,None,152.8291799,None,,,,,,,,,,,,,,,,,,,,,,,,,,,,,,,,,,,Dec02Sing3,123,2022_Dec_02_1529,ProdSingRedoBetween,2021.2.3,59.92082063
37,0,37,0,,,,,,,,,,,,,,,,,,,,,,,,,,157.3476625,None,short,55,38,sing,blue,155.3350858,None,None,155.3350858,None,,,,,,,,,,,,,,,,,,,,,,,,,,,,,,,,,,,Dec02Sing3,123,2022_Dec_02_1529,ProdSingRedoBetween,2021.2.3,59.92082063
38,0,38,0,,,,,,,,,,,,,,,,,,,,,,,,,,159.8671275,None,pancakes,67,39,sing,red,157.8543962,None,None,157.8543962,None,,,,,,,,,,,,,,,,,,,,,,,,,,,,,,,,,,,Dec02Sing3,123,2022_Dec_02_1529,ProdSingRedoBetween,2021.2.3,59.92082063
39,0,39,0,,,,,,,,,,,,,,,,,,,,,,,,,,162.3696526,None,author,43,40,sing,blue,160.36919,None,None,160.36919,None,,,,,,,,,,,,,,,,,,,,,,,,,,,,,,,,,,,Dec02Sing3,123,2022_Dec_02_1529,ProdSingRedoBetween,2021.2.3,59.92082063
40,0,40,0,,,,,,,,,,,,,,,,,,,,,,,,,,164.8721443,None,bitter,35,41,sing,blue,162.8730364,None,None,162.8730364,None,,,,,,,,,,,,,,,,,,,,,,,,,,,,,,,,,,,Dec02Sing3,123,2022_Dec_02_1529,ProdSingRedoBetween,2021.2.3,59.92082063
41,0,41,0,,,,,,,,,,,,,,,,,,,,,,,,,,167.3913851,None,straight,11,42,sing,yellow,165.3793774,None,None,165.3793774,None,,,,,,,,,,,,,,,,,,,,,,,,,,,,,,,,,,,Dec02Sing3,123,2022_Dec_02_1529,ProdSingRedoBetween,2021.2.3,59.92082063
42,0,42,0,,,,,,,,,,,,,,,,,,,,,,,,,,169.9103124,None,owner,80,43,sing,red,167.8973464,None,None,167.8973464,None,,,,,,,,,,,,,,,,,,,,,,,,,,,,,,,,,,,Dec02Sing3,123,2022_Dec_02_1529,ProdSingRedoBetween,2021.2.3,59.92082063
43,0,43,0,,,,,,,,,,,,,,,,,,,,,,,,,,172.4296556,None,incident,82,44,sing,red,170.4144983,None,None,170.4144983,None,,,,,,,,,,,,,,,,,,,,,,,,,,,,,,,,,,,Dec02Sing3,123,2022_Dec_02_1529,ProdSingRedoBetween,2021.2.3,59.92082063
44,0,44,0,,,,,,,,,,,,,,,,,,,,,,,,,,174.9321307,None,universal,78,45,sing,red,172.9326115,None,None,172.9326115,None,,,,,,,,,,,,,,,,,,,,,,,,,,,,,,,,,,,Dec02Sing3,123,2022_Dec_02_1529,ProdSingRedoBetween,2021.2.3,59.92082063
45,0,45,0,,,,,,,,,,,,,,,,,,,,,,,,,,177.4513151,None,scene,57,46,sing,blue,175.4403156,None,None,175.4403156,None,,,,,,,,,,,,,,,,,,,,,,,,,,,,,,,,,,,Dec02Sing3,123,2022_Dec_02_1529,ProdSingRedoBetween,2021.2.3,59.92082063
46,0,46,0,,,,,,,,,,,,,,,,,,,,,,,,,,179.9538455,None,number,41,47,sing,blue,177.9518133,None,None,177.9518133,None,,,,,,,,,,,,,,,,,,,,,,,,,,,,,,,,,,,Dec02Sing3,123,2022_Dec_02_1529,ProdSingRedoBetween,2021.2.3,59.92082063
47,0,47,0,,,,,,,,,,,,,,,,,,,,,,,,,,182.4562724,None,enemy,87,48,sing,red,180.4559452,None,None,180.4559452,None,,,,,,,,,,,,,,,,,,,,,,,,,,,,,,,,,,,Dec02Sing3,123,2022_Dec_02_1529,ProdSingRedoBetween,2021.2.3,59.92082063
48,0,48,0,,,,,,,,,,,,,,,,,,,,,,,,,,184.9601602,None,audience,15,49,sing,yellow,182.9571162,None,None,182.9571162,None,,,,,,,,,,,,,,,,,,,,,,,,,,,,,,,,,,,Dec02Sing3,123,2022_Dec_02_1529,ProdSingRedoBetween,2021.2.3,59.92082063
49,0,49,0,,,,,,,,,,,,,,,,,,,,,,,,,,187.4613243,None,graduate,36,50,sing,blue,185.4595784,None,None,185.4595784,None,,,,,,,,,,,,,,,,,,,,,,,,,,,,,,,,,,,Dec02Sing3,123,2022_Dec_02_1529,ProdSingRedoBetween,2021.2.3,59.92082063
50,0,50,0,,,,,,,,,,,,,,,,,,,,,,,,,,189.963806,None,series,40,51,sing,blue,187.963694,None,None,187.963694,None,,,,,,,,,,,,,,,,,,,,,,,,,,,,,,,,,,,Dec02Sing3,123,2022_Dec_02_1529,ProdSingRedoBetween,2021.2.3,59.92082063
51,0,51,0,,,,,,,,,,,,,,,,,,,,,,,,,,192.4675907,None,fashion,25,52,sing,yellow,190.4662965,None,None,190.4662965,None,,,,,,,,,,,,,,,,,,,,,,,,,,,,,,,,,,,Dec02Sing3,123,2022_Dec_02_1529,ProdSingRedoBetween,2021.2.3,59.92082063
52,0,52,0,,,,,,,,,,,,,,,,,,,,,,,,,,194.9690229,None,commercial,76,53,sing,red,192.9697272,None,None,192.9697272,None,,,,,,,,,,,,,,,,,,,,,,,,,,,,,,,,,,,Dec02Sing3,123,2022_Dec_02_1529,ProdSingRedoBetween,2021.2.3,59.92082063
53,0,53,0,,,,,,,,,,,,,,,,,,,,,,,,,,197.4878052,None,range,3,54,sing,yellow,195.4746294,None,None,195.4746294,None,,,,,,,,,,,,,,,,,,,,,,,,,,,,,,,,,,,Dec02Sing3,123,2022_Dec_02_1529,ProdSingRedoBetween,2021.2.3,59.92082063
54,0,54,0,,,,,,,,,,,,,,,,,,,,,,,,,,200.0071708,None,dance,56,55,sing,blue,197.9915352,None,None,197.9915352,None,,,,,,,,,,,,,,,,,,,,,,,,,,,,,,,,,,,Dec02Sing3,123,2022_Dec_02_1529,ProdSingRedoBetween,2021.2.3,59.92082063
55,0,55,0,,,,,,,,,,,,,,,,,,,,,,,,,,202.509675,None,government,28,56,sing,yellow,200.5074963,None,None,200.5074963,None,,,,,,,,,,,,,,,,,,,,,,,,,,,,,,,,,,,Dec02Sing3,123,2022_Dec_02_1529,ProdSingRedoBetween,2021.2.3,59.92082063
56,0,56,0,,,,,,,,,,,,,,,,,,,,,,,,,,205.0288717,None,service,19,57,sing,yellow,203.0153248,None,None,203.0153248,None,,,,,,,,,,,,,,,,,,,,,,,,,,,,,,,,,,,Dec02Sing3,123,2022_Dec_02_1529,ProdSingRedoBetween,2021.2.3,59.92082063
57,0,57,0,,,,,,,,,,,,,,,,,,,,,,,,,,207.531397,None,write,47,58,sing,blue,205.5309849,None,None,205.5309849,None,,,,,,,,,,,,,,,,,,,,,,,,,,,,,,,,,,,Dec02Sing3,123,2022_Dec_02_1529,ProdSingRedoBetween,2021.2.3,59.92082063
58,0,58,0,,,,,,,,,,,,,,,,,,,,,,,,,,210.0505679,None,science,27,59,sing,yellow,208.0351186,None,None,208.0351186,None,,,,,,,,,,,,,,,,,,,,,,,,,,,,,,,,,,,Dec02Sing3,123,2022_Dec_02_1529,ProdSingRedoBetween,2021.2.3,59.92082063
59,0,59,0,,,,,,,,,,,,,,,,,,,,,,,,,,212.5530896,None,personnel,44,60,sing,blue,210.5533451,None,None,210.5533451,None,,,,,,,,,,,,,,,,,,,,,,,,,,,,,,,,,,,Dec02Sing3,123,2022_Dec_02_1529,ProdSingRedoBetween,2021.2.3,59.92082063
60,0,60,0,,,,,,,,,,,,,,,,,,,,,,,,,,215.0555621,None,listen,81,61,sing,red,213.0565462,None,None,213.0565462,None,,,,,,,,,,,,,,,,,,,,,,,,,,,,,,,,,,,Dec02Sing3,123,2022_Dec_02_1529,ProdSingRedoBetween,2021.2.3,59.92082063
61,0,61,0,,,,,,,,,,,,,,,,,,,,,,,,,,217.5580554,None,military,86,62,sing,red,215.5587324,None,None,215.5587324,None,,,,,,,,,,,,,,,,,,,,,,,,,,,,,,,,,,,Dec02Sing3,123,2022_Dec_02_1529,ProdSingRedoBetween,2021.2.3,59.92082063
62,0,62,0,,,,,,,,,,,,,,,,,,,,,,,,,,220.0772743,None,degree,52,63,sing,blue,218.0645216,None,None,218.0645216,None,,,,,,,,,,,,,,,,,,,,,,,,,,,,,,,,,,,Dec02Sing3,123,2022_Dec_02_1529,ProdSingRedoBetween,2021.2.3,59.92082063
63,0,63,0,,,,,,,,,,,,,,,,,,,,,,,,,,222.5798686,None,finish,5,64,sing,yellow,220.5800033,None,None,220.5800033,None,,,,,,,,,,,,,,,,,,,,,,,,,,,,,,,,,,,Dec02Sing3,123,2022_Dec_02_1529,ProdSingRedoBetween,2021.2.3,59.92082063
64,0,64,0,,,,,,,,,,,,,,,,,,,,,,,,,,225.0990457,None,mechanical,49,65,sing,blue,223.0849422,None,None,223.0849422,None,,,,,,,,,,,,,,,,,,,,,,,,,,,,,,,,,,,Dec02Sing3,123,2022_Dec_02_1529,ProdSingRedoBetween,2021.2.3,59.92082063
65,0,65,0,,,,,,,,,,,,,,,,,,,,,,,,,,227.601396,None,drove,62,66,sing,red,225.6000998,None,None,225.6000998,None,,,,,,,,,,,,,,,,,,,,,,,,,,,,,,,,,,,Dec02Sing3,123,2022_Dec_02_1529,ProdSingRedoBetween,2021.2.3,59.92082063
66,0,66,0,,,,,,,,,,,,,,,,,,,,,,,,,,230.1037411,None,health,38,67,sing,blue,228.1037308,None,None,228.1037308,None,,,,,,,,,,,,,,,,,,,,,,,,,,,,,,,,,,,Dec02Sing3,123,2022_Dec_02_1529,ProdSingRedoBetween,2021.2.3,59.92082063
67,0,67,0,,,,,,,,,,,,,,,,,,,,,,,,,,232.6232523,None,goose,60,68,sing,red,230.6108165,None,None,230.6108165,None,,,,,,,,,,,,,,,,,,,,,,,,,,,,,,,,,,,Dec02Sing3,123,2022_Dec_02_1529,ProdSingRedoBetween,2021.2.3,59.92082063
68,0,68,0,,,,,,,,,,,,,,,,,,,,,,,,,,235.1257208,None,region,22,69,sing,yellow,233.1236091,None,None,233.1236091,None,,,,,,,,,,,,,,,,,,,,,,,,,,,,,,,,,,,Dec02Sing3,123,2022_Dec_02_1529,ProdSingRedoBetween,2021.2.3,59.92082063
69,0,69,0,,,,,,,,,,,,,,,,,,,,,,,,,,237.628186,None,touch,85,70,sing,red,235.6268363,None,None,235.6268363,None,,,,,,,,,,,,,,,,,,,,,,,,,,,,,,,,,,,Dec02Sing3,123,2022_Dec_02_1529,ProdSingRedoBetween,2021.2.3,59.92082063
70,0,70,0,,,,,,,,,,,,,,,,,,,,,,,,,,240.1473692,None,majority,7,71,sing,yellow,238.132004,None,None,238.132004,None,,,,,,,,,,,,,,,,,,,,,,,,,,,,,,,,,,,Dec02Sing3,123,2022_Dec_02_1529,ProdSingRedoBetween,2021.2.3,59.92082063
71,0,71,0,,,,,,,,,,,,,,,,,,,,,,,,,,242.6666738,None,committee,20,72,sing,yellow,240.6512372,None,None,240.6512372,None,,,,,,,,,,,,,,,,,,,,,,,,,,,,,,,,,,,Dec02Sing3,123,2022_Dec_02_1529,ProdSingRedoBetween,2021.2.3,59.92082063
72,0,72,0,,,,,,,,,,,,,,,,,,,,,,,,,,245.1690035,None,problem,45,73,sing,blue,243.1669992,None,None,243.1669992,None,,,,,,,,,,,,,,,,,,,,,,,,,,,,,,,,,,,Dec02Sing3,123,2022_Dec_02_1529,ProdSingRedoBetween,2021.2.3,59.92082063
73,0,73,0,,,,,,,,,,,,,,,,,,,,,,,,,,247.671586,None,route,83,74,sing,red,245.671396,None,None,245.671396,None,,,,,,,,,,,,,,,,,,,,,,,,,,,,,,,,,,,Dec02Sing3,123,2022_Dec_02_1529,ProdSingRedoBetween,2021.2.3,59.92082063
74,0,74,0,,,,,,,,,,,,,,,,,,,,,,,,,,250.1906828,None,career,29,75,sing,blue,248.1758948,None,None,248.1758948,None,,,,,,,,,,,,,,,,,,,,,,,,,,,,,,,,,,,Dec02Sing3,123,2022_Dec_02_1529,ProdSingRedoBetween,2021.2.3,59.92082063
75,0,75,0,,,,,,,,,,,,,,,,,,,,,,,,,,252.6933534,None,staff,64,76,sing,red,250.6912546,None,None,250.6912546,None,,,,,,,,,,,,,,,,,,,,,,,,,,,,,,,,,,,Dec02Sing3,123,2022_Dec_02_1529,ProdSingRedoBetween,2021.2.3,59.92082063
76,0,76,0,,,,,,,,,,,,,,,,,,,,,,,,,,255.2122854,None,position,59,77,sing,yellow,253.1967736,None,None,253.1967736,None,,,,,,,,,,,,,,,,,,,,,,,,,,,,,,,,,,,Dec02Sing3,123,2022_Dec_02_1529,ProdSingRedoBetween,2021.2.3,59.92082063
77,0,77,0,,,,,,,,,,,,,,,,,,,,,,,,,,257.7315037,None,space,89,78,sing,red,255.7194562,None,None,255.7194562,None,,,,,,,,,,,,,,,,,,,,,,,,,,,,,,,,,,,Dec02Sing3,123,2022_Dec_02_1529,ProdSingRedoBetween,2021.2.3,59.92082063
78,0,78,0,,,,,,,,,,,,,,,,,,,,,,,,,,260.2339817,None,taste,46,79,sing,blue,258.2348041,None,None,258.2348041,None,,,,,,,,,,,,,,,,,,,,,,,,,,,,,,,,,,,Dec02Sing3,123,2022_Dec_02_1529,ProdSingRedoBetween,2021.2.3,59.92082063
79,0,79,0,,,,,,,,,,,,,,,,,,,,,,,,,,262.7532109,None,history,48,80,sing,blue,260.7446216,None,None,260.7446216,None,,,,,,,,,,,,,,,,,,,,,,,,,,,,,,,,,,,Dec02Sing3,123,2022_Dec_02_1529,ProdSingRedoBetween,2021.2.3,59.92082063
80,0,80,0,,,,,,,,,,,,,,,,,,,,,,,,,,265.2724006,None,surprise,13,81,sing,yellow,263.262803,None,None,263.262803,None,,,,,,,,,,,,,,,,,,,,,,,,,,,,,,,,,,,Dec02Sing3,123,2022_Dec_02_1529,ProdSingRedoBetween,2021.2.3,59.92082063
81,0,81,0,,,,,,,,,,,,,,,,,,,,,,,,,,267.7748863,None,hunger,33,82,sing,blue,265.7729321,None,None,265.7729321,None,,,,,,,,,,,,,,,,,,,,,,,,,,,,,,,,,,,Dec02Sing3,123,2022_Dec_02_1529,ProdSingRedoBetween,2021.2.3,59.92082063
82,0,82,0,,,,,,,,,,,,,,,,,,,,,,,,,,270.2774275,None,youth,73,83,sing,red,268.2766024,None,None,268.2766024,None,,,,,,,,,,,,,,,,,,,,,,,,,,,,,,,,,,,Dec02Sing3,123,2022_Dec_02_1529,ProdSingRedoBetween,2021.2.3,59.92082063
83,0,83,0,,,,,,,,,,,,,,,,,,,,,,,,,,272.7966036,None,travel,79,84,sing,red,270.7897693,None,None,270.7897693,None,,,,,,,,,,,,,,,,,,,,,,,,,,,,,,,,,,,Dec02Sing3,123,2022_Dec_02_1529,ProdSingRedoBetween,2021.2.3,59.92082063
84,0,84,0,,,,,,,,,,,,,,,,,,,,,,,,,,275.2991604,None,nation,65,85,sing,red,273.2971852,None,None,273.2971852,None,,,,,,,,,,,,,,,,,,,,,,,,,,,,,,,,,,,Dec02Sing3,123,2022_Dec_02_1529,ProdSingRedoBetween,2021.2.3,59.92082063
85,0,85,0,,,,,,,,,,,,,,,,,,,,,,,,,,277.8016379,None,charter,31,86,sing,blue,275.800299,None,None,275.800299,None,,,,,,,,,,,,,,,,,,,,,,,,,,,,,,,,,,,Dec02Sing3,123,2022_Dec_02_1529,ProdSingRedoBetween,2021.2.3,59.92082063
86,0,86,0,,,,,,,,,,,,,,,,,,,,,,,,,,280.3040766,None,watch,2,87,sing,yellow,278.3043816,None,None,278.3043816,None,,,,,,,,,,,,,,,,,,,,,,,,,,,,,,,,,,,Dec02Sing3,123,2022_Dec_02_1529,ProdSingRedoBetween,2021.2.3,59.92082063
87,0,87,0,,,,,,,,,,,,,,,,,,,,,,,,,,282.8066167,None,thick,18,88,sing,yellow,280.8058539,None,None,280.8058539,None,,,,,,,,,,,,,,,,,,,,,,,,,,,,,,,,,,,Dec02Sing3,123,2022_Dec_02_1529,ProdSingRedoBetween,2021.2.3,59.92082063
88,0,88,0,,,,,,,,,,,,,,,,,,,,,,,,,,285.3092307,None,mankind,88,89,sing,red,283.3093496,None,None,283.3093496,None,,,,,,,,,,,,,,,,,,,,,,,,,,,,,,,,,,,Dec02Sing3,123,2022_Dec_02_1529,ProdSingRedoBetween,2021.2.3,59.92082063
89,0,89,0,,,,,,,,,,,,,,,,,,,,,,,,,,287.8283484,None,phrase,70,90,sing,red,285.8146086,None,None,285.8146086,None,,,,,,,,,,,,,,,,,,,,,,,,,,,,,,,,,,,Dec02Sing3,123,2022_Dec_02_1529,ProdSingRedoBetween,2021.2.3,59.92082063
,,,,,,,,,,,,,,,,,,,,,,,,,,,,,,,,,,,,,,,,,288.328965,None,k,71.7876533,288.328965,None,,,,,,,,,,,,,,,,,,,,,,,,,,,,,Dec02Sing3,123,2022_Dec_02_1529,ProdSingRedoBetween,2021.2.3,59.92082063
,,,,0,0,0,0,,,,,,,,,,,,,,,,,,,,,,368.8423986,None,,,,,,,,,,,,,,,,,fashion,25,1,sing,old,yellow,360.6521654,None,360.6521654,None,2,4.680492,360.6521654,None,4.680492,365.360884,None,365.882626,None,365.882626,None,f,2.9299566,365.882626,None,2.9299566,,,Dec02Sing3,123,2022_Dec_02_1529,ProdSingRedoBetween,2021.2.3,59.92082063
,,,,1,0,1,0,,,,,,,,,,,,,,,,,,,,,,378.2525174,None,,,,,,,,,,,,,,,,,company,133,2,sing,new,null,369.3433281,None,369.3433281,None,6,5.8212184,369.3433281,None,5.8212184,375.1820279,None,375.6828061,None,375.6828061,None,f,2.5378649,375.6828061,None,2.5378649,,,Dec02Sing3,123,2022_Dec_02_1529,ProdSingRedoBetween,2021.2.3,59.92082063
,,,,2,0,2,0,,,,,,,,,,,,,,,,,,,,,,384.4414735,None,,,,,,,,,,,,,,,,,drove,62,3,sing,old,red,378.7614342,None,378.7614342,None,6,3.9151574,378.7614342,None,3.9151574,382.7107793,None,383.2237929,None,383.2237929,None,f,1.1968162,383.2237929,None,1.1968162,,,Dec02Sing3,123,2022_Dec_02_1529,ProdSingRedoBetween,2021.2.3,59.92082063
,,,,3,0,3,0,,,,,,,,,,,,,,,,,,,,,,389.7467255,None,,,,,,,,,,,,,,,,,enemy,87,4,sing,old,red,384.9542921,None,384.9542921,None,5,3.5225094,384.9542921,None,3.5225094,388.5016508,None,389.0179645,None,389.0179645,None,f,0.6987254,389.0179645,None,0.6987254,,,Dec02Sing3,123,2022_Dec_02_1529,ProdSingRedoBetween,2021.2.3,59.92082063
,,,,4,0,4,0,,,,,,,,,,,,,,,,,,,,,,394.1207745,None,,,,,,,,,,,,,,,,,audience,15,5,sing,old,yellow,390.259926,None,390.259926,None,5,2.024856,390.259926,None,2.024856,392.3251305,None,392.8333885,None,392.8333885,None,f,1.2594219,392.8333885,None,1.2594219,,,Dec02Sing3,123,2022_Dec_02_1529,ProdSingRedoBetween,2021.2.3,59.92082063
,,,,5,0,5,0,,,,,,,,,,,,,,,,,,,,,,402.6971045,None,,,,,,,,,,,,,,,,,atmosphere,106,6,sing,new,null,394.6426811,None,394.6426811,None,2,2.114156,394.6426811,None,2.114156,396.7952087,None,397.3073983,None,397.3073983,None,n,5.3694389,397.3073983,None,5.3694389,,,Dec02Sing3,123,2022_Dec_02_1529,ProdSingRedoBetween,2021.2.3,59.92082063
,,,,6,0,6,0,,,,,,,,,,,,,,,,,,,,,,411.3850634,None,,,,,,,,,,,,,,,,,crowd,72,7,sing,old,red,403.2327935,None,403.2327935,None,3,4.8680213,403.2327935,None,4.8680213,408.1393311,None,408.6525716,None,408.6525716,None,f,2.7120556,408.6525716,None,2.7120556,,,Dec02Sing3,123,2022_Dec_02_1529,ProdSingRedoBetween,2021.2.3,59.92082063
,,,,7,0,7,0,,,,,,,,,,,,,,,,,,,,,,416.8572541,None,,,,,,,,,,,,,,,,,thick,18,8,sing,old,yellow,411.9009653,None,411.9009653,None,6,3.4158595,411.9009653,None,3.4158595,415.3470375,None,415.8607311,None,415.8607311,None,r,0.975901,415.8607311,None,0.975901,,,Dec02Sing3,123,2022_Dec_02_1529,ProdSingRedoBetween,2021.2.3,59.92082063
,,,,8,0,8,0,,,,,,,,,,,,,,,,,,,,,,422.6294973,None,,,,,,,,,,,,,,,,,government,28,9,sing,old,yellow,417.3669786,None,417.3669786,None,1,2.6696704,417.3669786,None,2.6696704,420.0639119,None,420.5880966,None,420.5880966,None,n,2.0245299,420.5880966,None,2.0245299,,,Dec02Sing3,123,2022_Dec_02_1529,ProdSingRedoBetween,2021.2.3,59.92082063
,,,,9,0,9,0,,,,,,,,,,,,,,,,,,,,,,428.9526081,None,,,,,,,,,,,,,,,,,straight,11,10,sing,old,yellow,423.1335464,None,423.1335464,None,3,3.8551868,423.1335464,None,3.8551868,427.0229489,None,427.5348168,None,427.5348168,None,f,1.3978803,427.5348168,None,1.3978803,,,Dec02Sing3,123,2022_Dec_02_1529,ProdSingRedoBetween,2021.2.3,59.92082063
,,,,10,0,10,0,,,,,,,,,,,,,,,,,,,,,,440.3340693,None,,,,,,,,,,,,,,,,,problem,45,11,sing,old,blue,429.471807,None,429.471807,None,4,6.2208726,429.471807,None,6.2208726,435.7140288,None,436.2318482,None,436.2318482,None,f,4.0768831,436.2318482,None,4.0768831,,,Dec02Sing3,123,2022_Dec_02_1529,ProdSingRedoBetween,2021.2.3,59.92082063
,,,,11,0,11,0,,,,,,,,,,,,,,,,,,,,,,446.7870549,None,,,,,,,,,,,,,,,,,majority,7,12,sing,old,yellow,440.8537558,None,440.8537558,None,4,4.4949431,440.8537558,None,4.4949431,445.3797669,None,445.8928787,None,445.8928787,None,f,0.8637836,445.8928787,None,0.8637836,,,Dec02Sing3,123,2022_Dec_02_1529,ProdSingRedoBetween,2021.2.3,59.92082063
,,,,12,0,12,0,,,,,,,,,,,,,,,,,,,,,,451.5753167,None,,,,,,,,,,,,,,,,,gesture,96,13,sing,new,null,447.3032927,None,447.3032927,None,2,2.5333833,447.3032927,None,2.5333833,449.8641995,None,450.3770159,None,450.3770159,None,n,1.1796453,450.3770159,None,1.1796453,,,Dec02Sing3,123,2022_Dec_02_1529,ProdSingRedoBetween,2021.2.3,59.92082063
,,,,13,0,13,0,,,,,,,,,,,,,,,,,,,,,,456.9177284,None,,,,,,,,,,,,,,,,,health,38,14,sing,old,blue,452.0812751,None,452.0812751,None,4,3.3394801,452.0812751,None,3.3394801,455.4521477,None,455.9690588,None,455.9690588,None,f,0.9238627,455.9690588,None,0.9238627,,,Dec02Sing3,123,2022_Dec_02_1529,ProdSingRedoBetween,2021.2.3,59.92082063
,,,,14,0,14,0,,,,,,,,,,,,,,,,,,,,,,461.7863511,None,,,,,,,,,,,,,,,,,broke,128,15,sing,new,null,457.4419763,None,457.4419763,None,2,2.4986697,457.4419763,None,2.4986697,459.971375,None,460.4880644,None,460.4880644,None,n,1.276621,460.4880644,None,1.276621,,,Dec02Sing3,123,2022_Dec_02_1529,ProdSingRedoBetween,2021.2.3,59.92082063
,,,,15,0,15,0,,,,,,,,,,,,,,,,,,,,,,467.9250129,None,,,,,,,,,,,,,,,,,dance,56,16,sing,old,blue,462.2951156,None,462.2951156,None,4,2.9895504,462.2951156,None,2.9895504,465.3064601,None,465.8101173,None,465.8101173,None,n,2.0986237,465.8101173,None,2.0986237,,,Dec02Sing3,123,2022_Dec_02_1529,ProdSingRedoBetween,2021.2.3,59.92082063
,,,,16,0,16,0,,,,,,,,,,,,,,,,,,,,,,474.731732,None,,,,,,,,,,,,,,,,,production,175,17,sing,new,null,468.4346601,None,468.4346601,None,2,4.1461575,468.4346601,None,4.1461575,472.6024677,None,473.1135844,None,473.1135844,None,n,1.5871584,473.1135844,None,1.5871584,,,Dec02Sing3,123,2022_Dec_02_1529,ProdSingRedoBetween,2021.2.3,59.92082063
,,,,17,0,17,0,,,,,,,,,,,,,,,,,,,,,,478.3888851,None,,,,,,,,,,,,,,,,,addition,102,18,sing,new,null,475.2439053,None,475.2439053,None,2,1.9046944,475.2439053,None,1.9046944,477.1699222,None,477.6871518,None,477.6871518,None,n,0.6697023,477.6871518,None,0.6697023,,,Dec02Sing3,123,2022_Dec_02_1529,ProdSingRedoBetween,2021.2.3,59.92082063
,,,,18,0,18,0,,,,,,,,,,,,,,,,,,,,,,481.0380132,None,,,,,,,,,,,,,,,,,research,50,19,sing,old,blue,478.9096934,None,478.9096934,None,2,1.2709898,478.9096934,None,1.2709898,480.2051144,None,480.7108656,None,480.7108656,None,n,0.3018197,480.7108656,None,0.3018197,,,Dec02Sing3,123,2022_Dec_02_1529,ProdSingRedoBetween,2021.2.3,59.92082063
,,,,19,0,19,0,,,,,,,,,,,,,,,,,,,,,,484.3460164,None,,,,,,,,,,,,,,,,,degree,52,20,sing,old,blue,481.5446911,None,481.5446911,None,2,1.9081349,481.5446911,None,1.9081349,483.4825164,None,483.9989068,None,483.9989068,None,n,0.3176437,483.9989068,None,0.3176437,,,Dec02Sing3,123,2022_Dec_02_1529,ProdSingRedoBetween,2021.2.3,59.92082063
,,,,20,0,20,0,,,,,,,,,,,,,,,,,,,,,,486.7611896,None,,,,,,,,,,,,,,,,,raise,130,21,sing,new,null,484.8739043,None,484.8739043,None,2,1.0827762,484.8739043,None,1.0827762,485.9775139,None,486.476924,None,486.476924,None,n,0.263776,486.476924,None,0.263776,,,Dec02Sing3,123,2022_Dec_02_1529,ProdSingRedoBetween,2021.2.3,59.92082063
,,,,21,0,21,0,,,,,,,,,,,,,,,,,,,,,,489.346312,None,,,,,,,,,,,,,,,,,rural,167,22,sing,new,null,487.2726815,None,487.2726815,None,2,1.1320408,487.2726815,None,1.1320408,488.4341845,None,488.9460655,None,488.9460655,None,n,0.3786396,488.9460655,None,0.3786396,,,Dec02Sing3,123,2022_Dec_02_1529,ProdSingRedoBetween,2021.2.3,59.92082063
,,,,22,0,22,0,,,,,,,,,,,,,,,,,,,,,,492.1324354,None,,,,,,,,,,,,,,,,,author,43,23,sing,old,blue,489.8560758,None,489.8560758,None,2,1.4926985,489.8560758,None,1.4926985,491.3708885,None,491.8866913,None,491.8866913,None,n,0.2299854,491.8866913,None,0.2299854,,,Dec02Sing3,123,2022_Dec_02_1529,ProdSingRedoBetween,2021.2.3,59.92082063
,,,,23,0,23,0,,,,,,,,,,,,,,,,,,,,,,495.5037702,None,,,,,,,,,,,,,,,,,listen,81,24,sing,old,red,492.6450495,None,492.6450495,None,2,2.0396075,492.6450495,None,2.0396075,494.7049787,None,495.2287259,None,495.2287259,None,n,0.2560193,495.2287259,None,0.2560193,,,Dec02Sing3,123,2022_Dec_02_1529,ProdSingRedoBetween,2021.2.3,59.92082063
,,,,24,0,24,0,,,,,,,,,,,,,,,,,,,,,,500.2071995,None,,,,,,,,,,,,,,,,,hunger,33,25,sing,old,blue,496.0070953,None,496.0070953,None,4,3.2618676,496.0070953,None,3.2618676,499.3016306,None,499.8097923,None,499.8097923,None,f,0.3708932,499.8097923,None,0.3708932,,,Dec02Sing3,123,2022_Dec_02_1529,ProdSingRedoBetween,2021.2.3,59.92082063
,,,,25,0,25,0,,,,,,,,,,,,,,,,,,,,,,503.8942051,None,,,,,,,,,,,,,,,,,command,137,26,sing,new,null,500.7125432,None,500.7125432,None,2,1.5481211,500.7125432,None,1.5481211,502.2768893,None,502.7790961,None,502.7790961,None,n,1.0896076,502.7790961,None,1.0896076,,,Dec02Sing3,123,2022_Dec_02_1529,ProdSingRedoBetween,2021.2.3,59.92082063
,,,,26,0,26,0,,,,,,,,,,,,,,,,,,,,,,506.3637432,None,,,,,,,,,,,,,,,,,range,3,27,sing,old,yellow,504.4072054,None,504.4072054,None,2,1.2055541,504.4072054,None,1.2055541,505.6352446,None,506.1465785,None,506.1465785,None,n,0.1941701,506.1465785,None,0.1941701,,,Dec02Sing3,123,2022_Dec_02_1529,ProdSingRedoBetween,2021.2.3,59.92082063
,,,,27,0,27,0,,,,,,,,,,,,,,,,,,,,,,508.6522761,None,,,,,,,,,,,,,,,,,couch,112,28,sing,new,null,506.8655623,None,506.8655623,None,2,1.0752411,506.8655623,None,1.0752411,507.9694646,None,508.4903962,None,508.4903962,None,n,0.138481,508.4903962,None,0.138481,,,Dec02Sing3,123,2022_Dec_02_1529,ProdSingRedoBetween,2021.2.3,59.92082063
,,,,28,0,28,0,,,,,,,,,,,,,,,,,,,,,,512.6529498,None,,,,,,,,,,,,,,,,,payment,0,29,sing,old,yellow,509.1701639,None,509.1701639,None,4,2.6587595,509.1701639,None,2.6587595,511.8646602,None,512.3725837,None,512.3725837,None,f,0.2640603,512.3725837,None,0.2640603,,,Dec02Sing3,123,2022_Dec_02_1529,ProdSingRedoBetween,2021.2.3,59.92082063
,,,,29,0,29,0,,,,,,,,,,,,,,,,,,,,,,516.0409047,None,,,,,,,,,,,,,,,,,member,138,30,sing,new,null,513.1696632,None,513.1696632,None,2,2.2030787,513.1696632,None,2.2030787,515.3948941,None,515.9063164,None,515.9063164,None,n,0.1145246,515.9063164,None,0.1145246,,,Dec02Sing3,123,2022_Dec_02_1529,ProdSingRedoBetween,2021.2.3,59.92082063
,,,,30,0,30,0,,,,,,,,,,,,,,,,,,,,,,518.3939383,None,,,,,,,,,,,,,,,,,equipment,154,31,sing,new,null,516.5461795,None,516.5461795,None,2,1.1624511,516.5461795,None,1.1624511,517.7262485,None,518.2305881,None,518.2305881,None,n,0.1423734,518.2305881,None,0.1423734,,,Dec02Sing3,123,2022_Dec_02_1529,ProdSingRedoBetween,2021.2.3,59.92082063
,,,,31,0,31,0,,,,,,,,,,,,,,,,,,,,,,520.4774688,None,,,,,,,,,,,,,,,,,carry,4,32,sing,old,yellow,518.9259389,None,518.9259389,None,2,0.8707912,518.9259389,None,0.8707912,519.8300208,None,520.3491455,None,520.3491455,None,n,0.1115104,520.3491455,None,0.1115104,,,Dec02Sing3,123,2022_Dec_02_1529,ProdSingRedoBetween,2021.2.3,59.92082063
,,,,32,0,32,0,,,,,,,,,,,,,,,,,,,,,,525.1338466,None,,,,,,,,,,,,,,,,,youth,73,33,sing,old,red,520.9875623,None,520.9875623,None,4,3.0331246,520.9875623,None,3.0331246,524.0508654,None,524.5698642,None,524.5698642,None,f,0.5468885,524.5698642,None,0.5468885,,,Dec02Sing3,123,2022_Dec_02_1529,ProdSingRedoBetween,2021.2.3,59.92082063
,,,,33,0,33,0,,,,,,,,,,,,,,,,,,,,,,528.0373048,None,,,,,,,,,,,,,,,,,universal,78,34,sing,old,red,525.6678347,None,525.6678347,None,2,1.4728077,525.6678347,None,1.4728077,527.1686573,None,527.674214,None,527.674214,None,n,0.3306149,527.674214,None,0.3306149,,,Dec02Sing3,123,2022_Dec_02_1529,ProdSingRedoBetween,2021.2.3,59.92082063
,,,,34,0,34,0,,,,,,,,,,,,,,,,,,,,,,531.5214771,None,,,,,,,,,,,,,,,,,dispute,149,35,sing,new,null,528.5594339,None,528.5594339,None,2,2.3412729,528.5594339,None,2.3412729,530.9226736,None,531.4382588,None,531.4382588,None,n,0.0543598,531.4382588,None,0.0543598,,,Dec02Sing3,123,2022_Dec_02_1529,ProdSingRedoBetween,2021.2.3,59.92082063
,,,,35,0,35,0,,,,,,,,,,,,,,,,,,,,,,533.713266,None,,,,,,,,,,,,,,,,,stand,120,36,sing,new,null,532.0319912,None,532.0319912,None,2,1.0529193,532.0319912,None,1.0529193,533.1153528,None,533.6287775,None,533.6287775,None,n,0.0640335,533.6287775,None,0.0640335,,,Dec02Sing3,123,2022_Dec_02_1529,ProdSingRedoBetween,2021.2.3,59.92082063
,,,,36,0,36,0,,,,,,,,,,,,,,,,,,,,,,535.9260072,None,,,,,,,,,,,,,,,,,master,104,37,sing,new,null,534.2363915,None,534.2363915,None,2,0.9763865,534.2363915,None,0.9763865,535.2511893,None,535.7625432,None,535.7625432,None,n,0.1381226,535.7625432,None,0.1381226,,,Dec02Sing3,123,2022_Dec_02_1529,ProdSingRedoBetween,2021.2.3,59.92082063
,,,,37,0,37,0,,,,,,,,,,,,,,,,,,,,,,538.1141222,None,,,,,,,,,,,,,,,,,clear,113,38,sing,new,null,536.442033,None,536.442033,None,2,0.9866513,536.442033,None,0.9866513,537.4442641,None,537.9494447,None,537.9494447,None,n,0.1352943,537.9494447,None,0.1352943,,,Dec02Sing3,123,2022_Dec_02_1529,ProdSingRedoBetween,2021.2.3,59.92082063
,,,,38,0,38,0,,,,,,,,,,,,,,,,,,,,,,540.3972273,None,,,,,,,,,,,,,,,,,drama,32,39,sing,old,blue,538.6427773,None,538.6427773,None,2,1.1779605,538.6427773,None,1.1779605,539.8477742,None,540.3502076,None,540.3502076,None,n,0.022526,540.3502076,None,0.022526,,,Dec02Sing3,123,2022_Dec_02_1529,ProdSingRedoBetween,2021.2.3,59.92082063
,,,,39,0,39,0,,,,,,,,,,,,,,,,,,,,,,542.8346034,None,,,,,,,,,,,,,,,,,trial,146,40,sing,new,null,540.9094277,None,540.9094277,None,2,1.3273805,540.9094277,None,1.3273805,542.2687792,None,542.7867925,None,542.7867925,None,n,0.018144,542.7867925,None,0.018144,,,Dec02Sing3,123,2022_Dec_02_1529,ProdSingRedoBetween,2021.2.3,59.92082063
,,,,40,0,40,0,,,,,,,,,,,,,,,,,,,,,,545.1521553,None,,,,,,,,,,,,,,,,,salary,145,41,sing,new,null,543.3400233,None,543.3400233,None,2,1.2326837,543.3400233,None,1.2326837,544.6022834,None,545.1025975,None,545.1025975,None,n,0.030131,545.1025975,None,0.030131,,,Dec02Sing3,123,2022_Dec_02_1529,ProdSingRedoBetween,2021.2.3,59.92082063
,,,,41,0,41,0,,,,,,,,,,,,,,,,,,,,,,547.905419,None,,,,,,,,,,,,,,,,,marriage,124,42,sing,new,null,545.662664,None,545.662664,None,2,1.6700354,545.662664,None,1.6700354,547.3572639,None,547.8717992,None,547.8717992,None,n,0.0049364,547.8717992,None,0.0049364,,,Dec02Sing3,123,2022_Dec_02_1529,ProdSingRedoBetween,2021.2.3,59.92082063
,,,,42,0,42,0,,,,,,,,,,,,,,,,,,,,,,553.5615339,None,,,,,,,,,,,,,,,,,color,6,43,sing,old,yellow,548.4230629,None,548.4230629,None,4,2.9016433,548.4230629,None,2.9016433,551.3449389,None,551.8687756,None,551.8687756,None,f,1.6640229,551.8687756,None,1.6640229,,,Dec02Sing3,123,2022_Dec_02_1529,ProdSingRedoBetween,2021.2.3,59.92082063
,,,,43,0,43,0,,,,,,,,,,,,,,,,,,,,,,557.4335744,None,,,,,,,,,,,,,,,,,weather,68,44,sing,old,red,554.0657933,None,554.0657933,None,2,2.6510032,554.0657933,None,2.6510032,556.761562,None,557.2698012,None,557.2698012,None,n,0.1349303,557.2698012,None,0.1349303,,,Dec02Sing3,123,2022_Dec_02_1529,ProdSingRedoBetween,2021.2.3,59.92082063
,,,,44,0,44,0,,,,,,,,,,,,,,,,,,,,,,561.8716735,None,,,,,,,,,,,,,,,,,interior,169,45,sing,new,null,557.9534011,None,557.9534011,None,2,3.3232957,557.9534011,None,3.3232957,561.3033508,None,561.8244747,None,561.8244747,None,n,0.0202516,561.8244747,None,0.0202516,,,Dec02Sing3,123,2022_Dec_02_1529,ProdSingRedoBetween,2021.2.3,59.92082063
,,,,45,0,45,0,,,,,,,,,,,,,,,,,,,,,,566.8737415,None,,,,,,,,,,,,,,,,,service,19,46,sing,old,yellow,562.4026363,None,562.4026363,None,4,2.5061043,562.4026363,None,2.5061043,564.9433247,None,565.4613885,None,565.4613885,None,f,1.3914701,565.4613885,None,1.3914701,,,Dec02Sing3,123,2022_Dec_02_1529,ProdSingRedoBetween,2021.2.3,59.92082063
,,,,46,0,46,0,,,,,,,,,,,,,,,,,,,,,,570.2271583,None,,,,,,,,,,,,,,,,,escape,90,47,sing,new,null,567.3800994,None,567.3800994,None,2,2.080709,567.3800994,None,2.080709,569.4804881,None,569.9987843,None,569.9987843,None,n,0.2059137,569.9987843,None,0.2059137,,,Dec02Sing3,123,2022_Dec_02_1529,ProdSingRedoBetween,2021.2.3,59.92082063
,,,,47,0,47,0,,,,,,,,,,,,,,,,,,,,,,575.2154817,None,,,,,,,,,,,,,,,,,finish,5,48,sing,old,yellow,570.7376888,None,570.7376888,None,4,3.3870272,570.7376888,None,3.3870272,574.1486247,None,574.6527918,None,574.6527918,None,f,0.5358786,574.6527918,None,0.5358786,,,Dec02Sing3,123,2022_Dec_02_1529,ProdSingRedoBetween,2021.2.3,59.92082063
,,,,48,0,48,0,,,,,,,,,,,,,,,,,,,,,,577.5511513,None,,,,,,,,,,,,,,,,,revolution,139,49,sing,new,null,575.7238609,None,575.7238609,None,2,1.2248564,575.7238609,None,1.2248564,576.9722487,None,577.488319,None,577.488319,None,n,0.0363643,577.488319,None,0.0363643,,,Dec02Sing3,123,2022_Dec_02_1529,ProdSingRedoBetween,2021.2.3,59.92082063
,,,,49,0,49,0,,,,,,,,,,,,,,,,,,,,,,579.5196279,None,,,,,,,,,,,,,,,,,citizen,92,50,sing,new,null,578.0648719,None,578.0648719,None,2,0.8839592,578.0648719,None,0.8839592,578.9777184,None,579.4912529,None,579.4912529,None,n,0.0096201,579.4912529,None,0.0096201,,,Dec02Sing3,123,2022_Dec_02_1529,ProdSingRedoBetween,2021.2.3,59.92082063
,,,,50,0,50,0,,,,,,,,,,,,,,,,,,,,,,581.5218037,None,,,,,,,,,,,,,,,,,platform,34,51,sing,old,blue,580.0304891,None,580.0304891,None,2,0.9182103,580.0304891,None,0.9182103,580.9724616,None,581.478999,None,581.478999,None,n,0.0136948,581.478999,None,0.0136948,,,Dec02Sing3,123,2022_Dec_02_1529,ProdSingRedoBetween,2021.2.3,59.92082063
,,,,51,0,51,0,,,,,,,,,,,,,,,,,,,,,,583.6915036,None,,,,,,,,,,,,,,,,,title,91,52,sing,new,null,582.0356055,None,582.0356055,None,2,1.0252232,582.0356055,None,1.0252232,583.1027979,None,583.6111893,None,583.6111893,None,n,0.0496402,583.6111893,None,0.0496402,,,Dec02Sing3,123,2022_Dec_02_1529,ProdSingRedoBetween,2021.2.3,59.92082063
,,,,52,0,52,0,,,,,,,,,,,,,,,,,,,,,,585.9262283,None,,,,,,,,,,,,,,,,,discussion,121,53,sing,new,null,584.195724,None,584.195724,None,2,1.065062,584.195724,None,1.065062,585.2842988,None,585.7982364,None,585.7982364,None,n,0.1024273,585.7982364,None,0.1024273,,,Dec02Sing3,123,2022_Dec_02_1529,ProdSingRedoBetween,2021.2.3,59.92082063
,,,,53,0,53,0,,,,,,,,,,,,,,,,,,,,,,589.897909,None,,,,,,,,,,,,,,,,,swift,74,54,sing,old,red,586.4371137,None,586.4371137,None,4,1.7196038,586.4371137,None,1.7196038,588.1814058,None,588.7038112,None,588.7038112,None,f,1.1650192,588.7038112,None,1.1650192,,,Dec02Sing3,123,2022_Dec_02_1529,ProdSingRedoBetween,2021.2.3,59.92082063
,,,,54,0,54,0,,,,,,,,,,,,,,,,,,,,,,592.4532479,None,,,,,,,,,,,,,,,,,write,47,55,sing,old,blue,590.4024831,None,590.4024831,None,2,1.3141174,590.4024831,None,1.3141174,591.7546437,None,592.2659742,None,592.2659742,None,n,0.1628706,592.2659742,None,0.1628706,,,Dec02Sing3,123,2022_Dec_02_1529,ProdSingRedoBetween,2021.2.3,59.92082063
,,,,55,0,55,0,,,,,,,,,,,,,,,,,,,,,,596.3890309,None,,,,,,,,,,,,,,,,,surface,109,56,sing,new,null,592.9706255,None,592.9706255,None,2,1.3941484,592.9706255,None,1.3941484,594.3892787,None,594.902298,None,594.902298,None,n,1.4627676,594.902298,None,1.4627676,,,Dec02Sing3,123,2022_Dec_02_1529,ProdSingRedoBetween,2021.2.3,59.92082063
,,,,56,0,56,0,,,,,,,,,,,,,,,,,,,,,,598.9438029,None,,,,,,,,,,,,,,,,,goose,60,57,sing,old,red,596.9093976,None,596.9093976,None,2,1.4074181,596.9093976,None,1.4074181,598.3464009,None,598.8557314,None,598.8557314,None,n,0.0610838,598.8557314,None,0.0610838,,,Dec02Sing3,123,2022_Dec_02_1529,ProdSingRedoBetween,2021.2.3,59.92082063
,,,,57,0,57,0,,,,,,,,,,,,,,,,,,,,,,602.1925225,None,,,,,,,,,,,,,,,,,childhood,161,58,sing,new,null,599.4607195,None,599.4607195,None,2,1.6801467,599.4607195,None,1.6801467,601.1629567,None,601.6799616,None,601.6799616,None,n,0.4846931,601.6799616,None,0.4846931,,,Dec02Sing3,123,2022_Dec_02_1529,ProdSingRedoBetween,2021.2.3,59.92082063
,,,,58,0,58,0,,,,,,,,,,,,,,,,,,,,,,607.1806802,None,,,,,,,,,,,,,,,,,quiet,117,59,sing,new,null,602.7007809,None,602.7007809,None,2,2.327931,602.7007809,None,2.327931,605.0488377,None,605.5701194,None,605.5701194,None,n,1.5866909,605.5701194,None,1.5866909,,,Dec02Sing3,123,2022_Dec_02_1529,ProdSingRedoBetween,2021.2.3,59.92082063
,,,,59,0,59,0,,,,,,,,,,,,,,,,,,,,,,611.2736347,None,,,,,,,,,,,,,,,,,meeting,63,60,sing,old,red,607.6960838,None,607.6960838,None,2,2.9806861,607.6960838,None,2.9806861,610.7069261,None,611.2256755,None,611.2256755,None,n,0.0113496,611.2256755,None,0.0113496,,,Dec02Sing3,123,2022_Dec_02_1529,ProdSingRedoBetween,2021.2.3,59.92082063
,,,,60,0,60,0,,,,,,,,,,,,,,,,,,,,,,616.6736145,None,,,,,,,,,,,,,,,,,cross,9,61,sing,old,yellow,611.7890855,None,611.7890855,None,2,4.2235747,611.7890855,None,4.2235747,616.0394011,None,616.5444761,None,616.5444761,None,n,0.100266,616.5444761,None,0.100266,,,Dec02Sing3,123,2022_Dec_02_1529,ProdSingRedoBetween,2021.2.3,59.92082063
,,,,61,0,61,0,,,,,,,,,,,,,,,,,,,,,,621.9146819,None,,,,,,,,,,,,,,,,,message,136,62,sing,new,null,617.1803556,None,617.1803556,None,4,2.8485623,617.1803556,None,2.8485623,620.0684468,None,620.577421,None,620.577421,None,f,1.3074566,620.577421,None,1.3074566,,,Dec02Sing3,123,2022_Dec_02_1529,ProdSingRedoBetween,2021.2.3,59.92082063
,,,,62,0,62,0,,,,,,,,,,,,,,,,,,,,,,627.4343824,None,,,,,,,,,,,,,,,,,owner,80,63,sing,old,red,622.4352892,None,622.4352892,None,4,3.2576153,622.4352892,None,3.2576153,625.7281474,None,626.2359539,None,626.2359539,None,f,1.1767768,626.2359539,None,1.1767768,,,Dec02Sing3,123,2022_Dec_02_1529,ProdSingRedoBetween,2021.2.3,59.92082063
,,,,63,0,63,0,,,,,,,,,,,,,,,,,,,,,,631.7087068,None,,,,,,,,,,,,,,,,,impact,1,64,sing,old,yellow,627.9496878,None,627.9496878,None,2,2.5670643,627.9496878,None,2.5670643,630.5425906,None,631.0596343,None,631.0596343,None,n,0.6172926,631.0596343,None,0.6172926,,,Dec02Sing3,123,2022_Dec_02_1529,ProdSingRedoBetween,2021.2.3,59.92082063
,,,,64,0,64,0,,,,,,,,,,,,,,,,,,,,,,637.093823,None,,,,,,,,,,,,,,,,,subject,51,65,sing,old,blue,632.2315741,None,632.2315741,None,4,3.3333158,632.2315741,None,3.3333158,635.5998208,None,636.113732,None,636.113732,None,f,0.9629806,636.113732,None,0.9629806,,,Dec02Sing3,123,2022_Dec_02_1529,ProdSingRedoBetween,2021.2.3,59.92082063
,,,,65,0,65,0,,,,,,,,,,,,,,,,,,,,,,639.8022668,None,,,,,,,,,,,,,,,,,character,84,66,sing,old,red,637.5974185,None,637.5974185,None,2,1.5835325,637.5974185,None,1.5835325,639.2020514,None,639.7183003,None,639.7183003,None,n,0.0547428,639.7183003,None,0.0547428,,,Dec02Sing3,123,2022_Dec_02_1529,ProdSingRedoBetween,2021.2.3,59.92082063
,,,,66,0,66,0,,,,,,,,,,,,,,,,,,,,,,642.8672372,None,,,,,,,,,,,,,,,,,beauty,105,67,sing,new,null,640.3234844,None,640.3234844,None,2,1.9133261,640.3234844,None,1.9133261,642.2668285,None,642.7708304,None,642.7708304,None,n,0.0659896,642.7708304,None,0.0659896,,,Dec02Sing3,123,2022_Dec_02_1529,ProdSingRedoBetween,2021.2.3,59.92082063
,,,,67,0,67,0,,,,,,,,,,,,,,,,,,,,,,646.4366684,None,,,,,,,,,,,,,,,,,property,23,68,sing,old,yellow,643.3713558,None,643.3713558,None,2,1.5454928,643.3713558,None,1.5454928,644.9423509,None,645.4524939,None,645.4524939,None,n,0.9602471,645.4524939,None,0.9602471,,,Dec02Sing3,123,2022_Dec_02_1529,ProdSingRedoBetween,2021.2.3,59.92082063
,,,,68,0,68,0,,,,,,,,,,,,,,,,,,,,,,656.8303659,None,,,,,,,,,,,,,,,,,scene,57,69,sing,old,blue,646.9456303,None,646.9456303,None,2,8.7231269,646.9456303,None,8.7231269,655.6989571,None,656.2178373,None,656.2178373,None,n,0.5870537,656.2178373,None,0.5870537,,,Dec02Sing3,123,2022_Dec_02_1529,ProdSingRedoBetween,2021.2.3,59.92082063
,,,,69,0,69,0,,,,,,,,,,,,,,,,,,,,,,659.9001274,None,,,,,,,,,,,,,,,,,pressure,8,70,sing,old,yellow,657.3460246,None,657.3460246,None,2,1.2188173,657.3460246,None,1.2188173,658.597549,None,659.1043354,None,659.1043354,None,n,0.7644042,659.1043354,None,0.7644042,,,Dec02Sing3,123,2022_Dec_02_1529,ProdSingRedoBetween,2021.2.3,59.92082063
,,,,70,0,70,0,,,,,,,,,,,,,,,,,,,,,,664.3045369,None,,,,,,,,,,,,,,,,,bright,166,71,sing,new,null,660.4073532,None,660.4073532,None,2,3.1654304,660.4073532,None,3.1654304,663.6062215,None,664.123835,None,664.123835,None,n,0.1528437,664.123835,None,0.1528437,,,Dec02Sing3,123,2022_Dec_02_1529,ProdSingRedoBetween,2021.2.3,59.92082063
,,,,71,0,71,0,,,,,,,,,,,,,,,,,,,,,,668.792389,None,,,,,,,,,,,,,,,,,device,75,72,sing,old,red,664.8165059,None,664.8165059,None,4,2.5642089,664.8165059,None,2.5642089,667.4088098,None,667.9125886,None,667.9125886,None,f,0.8601513,667.9125886,None,0.8601513,,,Dec02Sing3,123,2022_Dec_02_1529,ProdSingRedoBetween,2021.2.3,59.92082063
,,,,72,0,72,0,,,,,,,,,,,,,,,,,,,,,,674.1643905,None,,,,,,,,,,,,,,,,,finance,143,73,sing,new,null,669.3029448,None,669.3029448,None,2,3.1018493,669.3029448,None,3.1018493,672.4332902,None,672.9492909,None,672.9492909,None,n,1.1914975,672.9492909,None,1.1914975,,,Dec02Sing3,123,2022_Dec_02_1529,ProdSingRedoBetween,2021.2.3,59.92082063
,,,,73,0,73,0,,,,,,,,,,,,,,,,,,,,,,676.8337321,None,,,,,,,,,,,,,,,,,suggestion,151,74,sing,new,null,674.6790079,None,674.6790079,None,2,1.3977943,674.6790079,None,1.3977943,676.1062596,None,676.6230167,None,676.6230167,None,n,0.1818172,676.6230167,None,0.1818172,,,Dec02Sing3,123,2022_Dec_02_1529,ProdSingRedoBetween,2021.2.3,59.92082063
,,,,74,0,74,0,,,,,,,,,,,,,,,,,,,,,,679.3362168,None,,,,,,,,,,,,,,,,,welcome,140,75,sing,new,null,677.346044,None,677.346044,None,2,1.1306921,677.346044,None,1.1306921,678.5041622,None,679.0251791,None,679.0251791,None,n,0.2915925,679.0251791,None,0.2915925,,,Dec02Sing3,123,2022_Dec_02_1529,ProdSingRedoBetween,2021.2.3,59.92082063
,,,,75,0,75,0,,,,,,,,,,,,,,,,,,,,,,681.638564,None,,,,,,,,,,,,,,,,,guard,153,76,sing,new,null,679.8488624,None,679.8488624,None,2,1.0838967,679.8488624,None,1.0838967,680.954241,None,681.4595956,None,681.4595956,None,n,0.1531871,681.4595956,None,0.1531871,,,Dec02Sing3,123,2022_Dec_02_1529,ProdSingRedoBetween,2021.2.3,59.92082063
,,,,76,0,76,0,,,,,,,,,,,,,,,,,,,,,,685.7613585,None,,,,,,,,,,,,,,,,,career,29,77,sing,old,blue,682.158047,None,682.158047,None,4,2.6309982,682.158047,None,2.6309982,684.8182307,None,685.3255164,None,685.3255164,None,f,0.4074745,685.3255164,None,0.4074745,,,Dec02Sing3,123,2022_Dec_02_1529,ProdSingRedoBetween,2021.2.3,59.92082063
,,,,77,0,77,0,,,,,,,,,,,,,,,,,,,,,,688.3364152,None,,,,,,,,,,,,,,,,,phrase,70,78,sing,old,red,686.2809751,None,686.2809751,None,2,1.0117828,686.2809751,None,1.0117828,687.3147404,None,687.8283482,None,687.8283482,None,n,0.480555,687.8283482,None,0.480555,,,Dec02Sing3,123,2022_Dec_02_1529,ProdSingRedoBetween,2021.2.3,59.92082063
,,,,78,0,78,0,,,,,,,,,,,,,,,,,,,,,,690.8162899,None,,,,,,,,,,,,,,,,,voice,93,79,sing,new,null,688.8526521,None,688.8526521,None,2,1.2721519,688.8526521,None,1.2721519,690.1507428,None,690.6750018,None,690.6750018,None,n,0.1138481,690.6750018,None,0.1138481,,,Dec02Sing3,123,2022_Dec_02_1529,ProdSingRedoBetween,2021.2.3,59.92082063
,,,,79,0,79,0,,,,,,,,,,,,,,,,,,,,,,693.2168087,None,,,,,,,,,,,,,,,,,brilliant,157,80,sing,new,null,691.3348852,None,691.3348852,None,2,1.0938873,691.3348852,None,1.0938873,692.4501698,None,692.9536229,None,692.9536229,None,n,0.2431653,692.9536229,None,0.2431653,,,Dec02Sing3,123,2022_Dec_02_1529,ProdSingRedoBetween,2021.2.3,59.92082063
,,,,80,0,80,0,,,,,,,,,,,,,,,,,,,,,,698.6054698,None,,,,,,,,,,,,,,,,,pretty,24,81,sing,old,yellow,693.7257799,None,693.7257799,None,4,2.8469877,693.7257799,None,2.8469877,696.6033477,None,697.1059358,None,697.1059358,None,f,1.4748603,697.1059358,None,1.4748603,,,Dec02Sing3,123,2022_Dec_02_1529,ProdSingRedoBetween,2021.2.3,59.92082063
,,,,81,0,81,0,,,,,,,,,,,,,,,,,,,,,,701.2598036,None,,,,,,,,,,,,,,,,,colonel,131,82,sing,new,null,699.1145928,None,699.1145928,None,2,1.490161,699.1145928,None,1.490161,700.6239532,None,701.1297292,None,701.1297292,None,n,0.1070602,701.1297292,None,0.1070602,,,Dec02Sing3,123,2022_Dec_02_1529,ProdSingRedoBetween,2021.2.3,59.92082063
,,,,82,0,82,0,,,,,,,,,,,,,,,,,,,,,,706.4356632,None,,,,,,,,,,,,,,,,,commercial,76,83,sing,old,red,701.7722373,None,701.7722373,None,4,3.288665,701.7722373,None,3.288665,705.085233,None,705.6008253,None,705.6008253,None,f,0.8119943,705.6008253,None,0.8119943,,,Dec02Sing3,123,2022_Dec_02_1529,ProdSingRedoBetween,2021.2.3,59.92082063
,,,,83,0,83,0,,,,,,,,,,,,,,,,,,,,,,710.0337214,None,,,,,,,,,,,,,,,,,touch,85,84,sing,old,red,706.9507574,None,706.9507574,None,2,1.4299636,706.9507574,None,1.4299636,708.3995968,None,708.8992213,None,708.8992213,None,n,1.1136365,708.8992213,None,1.1136365,,,Dec02Sing3,123,2022_Dec_02_1529,ProdSingRedoBetween,2021.2.3,59.92082063
,,,,84,0,84,0,,,,,,,,,,,,,,,,,,,,,,712.5027832,None,,,,,,,,,,,,,,,,,pancakes,67,85,sing,old,red,710.5393069,None,710.5393069,None,2,1.2495914,710.5393069,None,1.2495914,711.8289495,None,712.3360149,None,712.3360149,None,n,0.1487183,712.3360149,None,0.1487183,,,Dec02Sing3,123,2022_Dec_02_1529,ProdSingRedoBetween,2021.2.3,59.92082063
,,,,85,0,85,0,,,,,,,,,,,,,,,,,,,,,,714.6573505,None,,,,,,,,,,,,,,,,,angle,110,86,sing,new,null,713.016949,None,713.016949,None,2,1.0357938,713.016949,None,1.0357938,714.0740819,None,714.5917852,None,714.5917852,None,n,0.03715,714.5917852,None,0.03715,,,Dec02Sing3,123,2022_Dec_02_1529,ProdSingRedoBetween,2021.2.3,59.92082063
,,,,86,0,86,0,,,,,,,,,,,,,,,,,,,,,,717.5418996,None,,,,,,,,,,,,,,,,,throw,26,87,sing,old,yellow,715.1858042,None,715.1858042,None,2,1.0512626,715.1858042,None,1.0512626,716.2685743,None,716.7753117,None,716.7753117,None,n,0.7417772,716.7753117,None,0.7417772,,,Dec02Sing3,123,2022_Dec_02_1529,ProdSingRedoBetween,2021.2.3,59.92082063
,,,,87,0,87,0,,,,,,,,,,,,,,,,,,,,,,720.4272266,None,,,,,,,,,,,,,,,,,principal,94,88,sing,new,null,718.0460389,None,718.0460389,None,2,1.5186325,718.0460389,None,1.5186325,719.594104,None,720.0987259,None,720.0987259,None,n,0.2980295,720.0987259,None,0.2980295,,,Dec02Sing3,123,2022_Dec_02_1529,ProdSingRedoBetween,2021.2.3,59.92082063
,,,,88,0,88,0,,,,,,,,,,,,,,,,,,,,,,722.8796589,None,,,,,,,,,,,,,,,,,region,22,89,sing,old,yellow,720.9468889,None,720.9468889,None,2,1.1139955,720.9468889,None,1.1139955,722.0876411,None,722.5962644,None,722.5962644,None,n,0.2565959,722.5962644,None,0.2565959,,,Dec02Sing3,123,2022_Dec_02_1529,ProdSingRedoBetween,2021.2.3,59.92082063
,,,,89,0,89,0,,,,,,,,,,,,,,,,,,,,,,725.3155053,None,,,,,,,,,,,,,,,,,second,69,90,sing,old,red,723.3894531,None,723.3894531,None,2,1.0873491,723.3894531,None,1.0873491,724.5013369,None,725.0199536,None,725.0199536,None,n,0.2648208,725.0199536,None,0.2648208,,,Dec02Sing3,123,2022_Dec_02_1529,ProdSingRedoBetween,2021.2.3,59.92082063
,,,,90,0,90,0,,,,,,,,,,,,,,,,,,,,,,727.4703053,None,,,,,,,,,,,,,,,,,pattern,107,91,sing,new,null,725.8310902,None,725.8310902,None,2,0.9576012,725.8310902,None,0.9576012,726.8211741,None,727.3412553,None,727.3412553,None,n,0.103628,727.3412553,None,0.103628,,,Dec02Sing3,123,2022_Dec_02_1529,ProdSingRedoBetween,2021.2.3,59.92082063
,,,,91,0,91,0,,,,,,,,,,,,,,,,,,,,,,730.3872348,None,,,,,,,,,,,,,,,,,detective,135,92,sing,new,null,727.9915714,None,727.9915714,None,2,1.3733216,727.9915714,None,1.3733216,729.3947592,None,729.9035038,None,729.9035038,None,n,0.4613246,729.9035038,None,0.4613246,,,Dec02Sing3,123,2022_Dec_02_1529,ProdSingRedoBetween,2021.2.3,59.92082063
,,,,92,0,92,0,,,,,,,,,,,,,,,,,,,,,,734.6248049,None,,,,,,,,,,,,,,,,,candidate,53,93,sing,old,blue,730.9026557,None,730.9026557,None,2,2.1422741,730.9026557,None,2.1422741,733.0783417,None,733.5906413,None,733.5906413,None,n,1.0141712,733.5906413,None,1.0141712,,,Dec02Sing3,123,2022_Dec_02_1529,ProdSingRedoBetween,2021.2.3,59.92082063
,,,,93,0,93,0,,,,,,,,,,,,,,,,,,,,,,738.3285554,None,,,,,,,,,,,,,,,,,strain,176,94,sing,new,null,735.1417541,None,735.1417541,None,2,2.4550713,735.1417541,None,2.4550713,737.6314294,None,738.1448524,None,738.1448524,None,n,0.1558599,738.1448524,None,0.1558599,,,Dec02Sing3,123,2022_Dec_02_1529,ProdSingRedoBetween,2021.2.3,59.92082063
,,,,94,0,94,0,,,,,,,,,,,,,,,,,,,,,,741.5168558,None,,,,,,,,,,,,,,,,,recall,39,95,sing,old,blue,738.8408405,None,738.8408405,None,2,1.8359472,738.8408405,None,1.8359472,740.699813,None,741.2208543,None,741.2208543,None,n,0.271977,741.2208543,None,0.271977,,,Dec02Sing3,123,2022_Dec_02_1529,ProdSingRedoBetween,2021.2.3,59.92082063
,,,,95,0,95,0,,,,,,,,,,,,,,,,,,,,,,746.2211759,None,,,,,,,,,,,,,,,,,watch,2,96,sing,old,yellow,742.0463852,None,742.0463852,None,4,2.4864806,742.0463852,None,2.4864806,744.5585873,None,745.0701721,None,745.0701721,None,f,1.1186022,745.0701721,None,1.1186022,,,Dec02Sing3,123,2022_Dec_02_1529,ProdSingRedoBetween,2021.2.3,59.92082063
,,,,96,0,96,0,,,,,,,,,,,,,,,,,,,,,,750.3430568,None,,,,,,,,,,,,,,,,,committee,20,97,sing,old,yellow,746.7327247,None,746.7327247,None,4,1.9682306,746.7327247,None,1.9682306,748.7322206,None,749.2395228,None,749.2395228,None,f,1.0774991,749.2395228,None,1.0774991,,,Dec02Sing3,123,2022_Dec_02_1529,ProdSingRedoBetween,2021.2.3,59.92082063
,,,,97,0,97,0,,,,,,,,,,,,,,,,,,,,,,753.660562,None,,,,,,,,,,,,,,,,,theme,71,98,sing,old,red,750.8672728,None,750.8672728,None,2,1.8256502,750.8672728,None,1.8256502,752.7185318,None,753.2300266,None,753.2300266,None,n,0.4067657,753.2300266,None,0.4067657,,,Dec02Sing3,123,2022_Dec_02_1529,ProdSingRedoBetween,2021.2.3,59.92082063
,,,,98,0,98,0,,,,,,,,,,,,,,,,,,,,,,756.6823172,None,,,,,,,,,,,,,,,,,point,12,99,sing,old,yellow,754.1730245,None,754.1730245,None,2,1.7038858,754.1730245,None,1.7038858,755.9022448,None,756.4141373,None,756.4141373,None,n,0.2387641,756.4141373,None,0.2387641,,,Dec02Sing3,123,2022_Dec_02_1529,ProdSingRedoBetween,2021.2.3,59.92082063
,,,,99,0,99,0,,,,,,,,,,,,,,,,,,,,,,760.033535,None,,,,,,,,,,,,,,,,,novel,42,100,sing,old,blue,757.2035431,None,757.2035431,None,2,1.6092476,757.2035431,None,1.6092476,758.833553,None,759.337749,None,759.337749,None,n,0.6750572,759.337749,None,0.6750572,,,Dec02Sing3,123,2022_Dec_02_1529,ProdSingRedoBetween,2021.2.3,59.92082063
,,,,100,0,100,0,,,,,,,,,,,,,,,,,,,,,,763.4870016,None,,,,,,,,,,,,,,,,,afternoon,122,101,sing,new,null,760.5480735,None,760.5480735,None,2,2.0808461,760.5480735,None,2.0808461,762.6640684,None,763.1701101,None,763.1701101,None,n,0.2908419,763.1701101,None,0.2908419,,,Dec02Sing3,123,2022_Dec_02_1529,ProdSingRedoBetween,2021.2.3,59.92082063
,,,,101,0,101,0,,,,,,,,,,,,,,,,,,,,,,766.7235095,None,,,,,,,,,,,,,,,,,mankind,88,102,sing,old,red,763.9906558,None,763.9906558,None,4,2.1342683,763.9906558,None,2.1342683,766.16088,None,766.6736052,None,766.6736052,None,f,0.0192177,766.6736052,None,0.0192177,,,Dec02Sing3,123,2022_Dec_02_1529,ProdSingRedoBetween,2021.2.3,59.92082063
,,,,102,0,102,0,,,,,,,,,,,,,,,,,,,,,,769.2270408,None,,,,,,,,,,,,,,,,,skill,170,103,sing,new,null,767.2275646,None,767.2275646,None,2,1.3051794,767.2275646,None,1.3051794,768.5602213,None,769.068483,None,769.068483,None,n,0.1287135,769.068483,None,0.1287135,,,Dec02Sing3,123,2022_Dec_02_1529,ProdSingRedoBetween,2021.2.3,59.92082063
,,,,103,0,103,0,,,,,,,,,,,,,,,,,,,,,,771.6468704,None,,,,,,,,,,,,,,,,,education,147,104,sing,new,null,769.7299611,None,769.7299611,None,2,1.2829245,769.7299611,None,1.2829245,771.0367503,None,771.5490593,None,771.5490593,None,n,0.0717838,771.5490593,None,0.0717838,,,Dec02Sing3,123,2022_Dec_02_1529,ProdSingRedoBetween,2021.2.3,59.92082063
,,,,104,0,104,0,,,,,,,,,,,,,,,,,,,,,,774.3644876,None,,,,,,,,,,,,,,,,,broad,97,105,sing,new,null,772.186123,None,772.186123,None,2,1.2026759,772.186123,None,1.2026759,773.4145131,None,773.916602,None,773.916602,None,n,0.4321706,773.916602,None,0.4321706,,,Dec02Sing3,123,2022_Dec_02_1529,ProdSingRedoBetween,2021.2.3,59.92082063
,,,,105,0,105,0,,,,,,,,,,,,,,,,,,,,,,778.251616,None,,,,,,,,,,,,,,,,,military,86,106,sing,old,red,774.8796739,None,774.8796739,None,4,1.7651112,774.8796739,None,1.7651112,776.6704048,None,777.1994451,None,777.1994451,None,r,1.0213779,777.1994451,None,1.0213779,,,Dec02Sing3,123,2022_Dec_02_1529,ProdSingRedoBetween,2021.2.3,59.92082063
,,,,106,0,106,0,,,,,,,,,,,,,,,,,,,,,,784.3745781,None,,,,,,,,,,,,,,,,,notice,108,107,sing,new,null,778.7594701,None,778.7594701,None,4,3.5493198,778.7594701,None,3.5493198,782.3391704,None,782.8435954,None,782.8435954,None,f,1.5133142,782.8435954,None,1.5133142,,,Dec02Sing3,123,2022_Dec_02_1529,ProdSingRedoBetween,2021.2.3,59.92082063
,,,,107,0,107,0,,,,,,,,,,,,,,,,,,,,,,788.8457386,None,,,,,,,,,,,,,,,,,store,132,108,sing,new,null,784.8861416,None,784.8861416,None,2,2.1666697,784.8861416,None,2.1666697,787.0844321,None,787.5977658,None,787.5977658,None,n,1.2230274,787.5977658,None,1.2230274,,,Dec02Sing3,123,2022_Dec_02_1529,ProdSingRedoBetween,2021.2.3,59.92082063
,,,,108,0,108,0,,,,,,,,,,,,,,,,,,,,,,792.3993564,None,,,,,,,,,,,,,,,,,mechanical,49,109,sing,old,blue,789.3619376,None,789.3619376,None,6,2.0667257,789.3619376,None,2.0667257,791.4535429,None,791.9655365,None,791.9655365,None,r,0.4071892,791.9655365,None,0.4071892,,,Dec02Sing3,123,2022_Dec_02_1529,ProdSingRedoBetween,2021.2.3,59.92082063
,,,,109,0,109,0,,,,,,,,,,,,,,,,,,,,,,796.2696938,None,,,,,,,,,,,,,,,,,question,58,110,sing,old,blue,792.9079936,None,792.9079936,None,4,1.9368097,792.9079936,None,1.9368097,794.8716142,None,795.3916817,None,795.3916817,None,f,0.8610784,795.3916817,None,0.8610784,,,Dec02Sing3,123,2022_Dec_02_1529,ProdSingRedoBetween,2021.2.3,59.92082063
,,,,110,0,110,0,,,,,,,,,,,,,,,,,,,,,,799.6731399,None,,,,,,,,,,,,,,,,,household,125,111,sing,new,null,796.7809867,None,796.7809867,None,4,2.160112,796.7809867,None,2.160112,798.9822762,None,799.4939197,None,799.4939197,None,f,0.1588817,799.4939197,None,0.1588817,,,Dec02Sing3,123,2022_Dec_02_1529,ProdSingRedoBetween,2021.2.3,59.92082063
,,,,111,0,111,0,,,,,,,,,,,,,,,,,,,,,,802.2316697,None,,,,,,,,,,,,,,,,,count,126,112,sing,new,null,800.1811505,None,800.1811505,None,2,1.3276468,800.1811505,None,1.3276468,801.531933,None,802.0434286,None,802.0434286,None,n,0.1615115,802.0434286,None,0.1615115,,,Dec02Sing3,123,2022_Dec_02_1529,ProdSingRedoBetween,2021.2.3,59.92082063
,,,,112,0,112,0,,,,,,,,,,,,,,,,,,,,,,809.2026498,None,,,,,,,,,,,,,,,,,growth,123,113,sing,new,null,802.7575787,None,802.7575787,None,3,4.1032268,802.7575787,None,4.1032268,806.8837229,None,807.4065734,None,807.4065734,None,n,1.7663968,807.4065734,None,1.7663968,,,Dec02Sing3,123,2022_Dec_02_1529,ProdSingRedoBetween,2021.2.3,59.92082063
,,,,113,0,113,0,,,,,,,,,,,,,,,,,,,,,,813.6716296,None,,,,,,,,,,,,,,,,,clean,148,114,sing,new,null,809.7246805,None,809.7246805,None,3,3.0083705,809.7246805,None,3.0083705,812.761274,None,813.2746237,None,813.2746237,None,n,0.378168,813.2746237,None,0.378168,,,Dec02Sing3,123,2022_Dec_02_1529,ProdSingRedoBetween,2021.2.3,59.92082063
,,,,114,0,114,0,,,,,,,,,,,,,,,,,,,,,,816.8736712,None,,,,,,,,,,,,,,,,,report,66,115,sing,old,red,814.1876242,None,814.1876242,None,3,1.6813602,814.1876242,None,1.6813602,815.8961844,None,816.4092247,None,816.4092247,None,n,0.443516,816.4092247,None,0.443516,,,Dec02Sing3,123,2022_Dec_02_1529,ProdSingRedoBetween,2021.2.3,59.92082063
,,,,115,0,115,0,,,,,,,,,,,,,,,,,,,,,,820.1436759,None,,,,,,,,,,,,,,,,,space,89,116,sing,old,red,817.3839646,None,817.3839646,None,3,2.0368853,817.3839646,None,2.0368853,819.4509178,None,819.9662267,None,819.9662267,None,n,0.1586778,819.9662267,None,0.1586778,,,Dec02Sing3,123,2022_Dec_02_1529,ProdSingRedoBetween,2021.2.3,59.92082063
,,,,116,0,116,0,,,,,,,,,,,,,,,,,,,,,,824.5312417,None,,,,,,,,,,,,,,,,,patient,100,117,sing,new,null,820.6498145,None,820.6498145,None,3,3.1149886,820.6498145,None,3.1149886,823.7849052,None,824.2986981,None,824.2986981,None,n,0.2101306,824.2986981,None,0.2101306,,,Dec02Sing3,123,2022_Dec_02_1529,ProdSingRedoBetween,2021.2.3,59.92082063
,,,,117,0,117,0,,,,,,,,,,,,,,,,,,,,,,827.6020549,None,,,,,,,,,,,,,,,,,order,116,118,sing,new,null,825.0378539,None,825.0378539,None,3,1.8789068,825.0378539,None,1.8789068,826.9365534,None,827.4520884,None,827.4520884,None,n,0.128771,827.4520884,None,0.128771,,,Dec02Sing3,123,2022_Dec_02_1529,ProdSingRedoBetween,2021.2.3,59.92082063
,,,,118,0,118,0,,,,,,,,,,,,,,,,,,,,,,830.0882106,None,,,,,,,,,,,,,,,,,group,118,119,sing,new,null,828.1120416,None,828.1120416,None,3,1.2770637,828.1120416,None,1.2770637,829.4294055,None,829.9436652,None,829.9436652,None,n,0.1252849,829.9436652,None,0.1252849,,,Dec02Sing3,123,2022_Dec_02_1529,ProdSingRedoBetween,2021.2.3,59.92082063
,,,,119,0,119,0,,,,,,,,,,,,,,,,,,,,,,833.5571386,None,,,,,,,,,,,,,,,,,bitter,35,120,sing,old,blue,830.5961179,None,830.5961179,None,3,2.1526057,830.5961179,None,2.1526057,832.7726341,None,833.2784018,None,833.2784018,None,n,0.2545649,833.2784018,None,0.2545649,,,Dec02Sing3,123,2022_Dec_02_1529,ProdSingRedoBetween,2021.2.3,59.92082063
,,,,120,0,120,0,,,,,,,,,,,,,,,,,,,,,,837.3942546,None,,,,,,,,,,,,,,,,,scale,16,121,sing,old,yellow,834.0685737,None,834.0685737,None,3,2.6962959,834.0685737,None,2.6962959,836.7969338,None,837.318508,None,837.318508,None,n,0.0463649,837.318508,None,0.0463649,,,Dec02Sing3,123,2022_Dec_02_1529,ProdSingRedoBetween,2021.2.3,59.92082063
,,,,121,0,121,0,,,,,,,,,,,,,,,,,,,,,,842.5000628,None,,,,,,,,,,,,,,,,,balance,129,122,sing,new,null,837.9018551,None,837.9018551,None,4,3.6393123,837.9018551,None,3.6393123,841.5757815,None,842.0889843,None,842.0889843,None,f,0.3800346,842.0889843,None,0.3800346,,,Dec02Sing3,123,2022_Dec_02_1529,ProdSingRedoBetween,2021.2.3,59.92082063
,,,,122,0,122,0,,,,,,,,,,,,,,,,,,,,,,845.3020386,None,,,,,,,,,,,,,,,,,individual,150,123,sing,new,null,843.0111128,None,843.0111128,None,3,1.6417249,843.0111128,None,1.6417249,844.6728214,None,845.1907789,None,845.1907789,None,n,0.085993,845.1907789,None,0.085993,,,Dec02Sing3,123,2022_Dec_02_1529,ProdSingRedoBetween,2021.2.3,59.92082063
,,,,123,0,123,0,,,,,,,,,,,,,,,,,,,,,,848.1716277,None,,,,,,,,,,,,,,,,,travel,79,124,sing,old,red,845.8110493,None,845.8110493,None,3,1.7937035,845.8110493,None,1.7937035,847.6241178,None,848.1448134,None,848.1448134,None,n,0.0040949,848.1448134,None,0.0040949,,,Dec02Sing3,123,2022_Dec_02_1529,ProdSingRedoBetween,2021.2.3,59.92082063
,,,,124,0,124,0,,,,,,,,,,,,,,,,,,,,,,850.7908872,None,,,,,,,,,,,,,,,,,cousin,144,125,sing,new,null,848.6814909,None,848.6814909,None,3,1.515267,848.6814909,None,1.515267,850.2247045,None,850.7281006,None,850.7281006,None,n,0.0368725,850.7281006,None,0.0368725,,,Dec02Sing3,123,2022_Dec_02_1529,ProdSingRedoBetween,2021.2.3,59.92082063
,,,,125,0,125,0,,,,,,,,,,,,,,,,,,,,,,853.7938391,None,,,,,,,,,,,,,,,,,executive,115,126,sing,new,null,851.3058706,None,851.3058706,None,3,1.8111228,851.3058706,None,1.8111228,853.1589111,None,853.6604623,None,853.6604623,None,n,0.1123704,853.6604623,None,0.1123704,,,Dec02Sing3,123,2022_Dec_02_1529,ProdSingRedoBetween,2021.2.3,59.92082063
,,,,126,0,126,0,,,,,,,,,,,,,,,,,,,,,,856.0495505,None,,,,,,,,,,,,,,,,,charter,31,127,sing,old,blue,854.3032359,None,854.3032359,None,3,1.0616428,854.3032359,None,1.0616428,855.3996531,None,855.9139857,None,855.9139857,None,n,0.107003,855.9139857,None,0.107003,,,Dec02Sing3,123,2022_Dec_02_1529,ProdSingRedoBetween,2021.2.3,59.92082063
,,,,127,0,127,0,,,,,,,,,,,,,,,,,,,,,,859.249417,None,,,,,,,,,,,,,,,,,sleep,162,128,sing,new,null,856.5762158,None,856.5762158,None,4,2.0445872,856.5762158,None,2.0445872,858.6500427,None,859.1545235,None,859.1545235,None,f,0.0663224,859.1545235,None,0.0663224,,,Dec02Sing3,123,2022_Dec_02_1529,ProdSingRedoBetween,2021.2.3,59.92082063
,,,,128,0,128,0,,,,,,,,,,,,,,,,,,,,,,862.6709223,None,,,,,,,,,,,,,,,,,science,27,129,sing,old,yellow,859.7604366,None,859.7604366,None,2,1.828402,859.7604366,None,1.828402,861.6194445,None,862.1253936,None,862.1253936,None,n,0.5275245,862.1253936,None,0.5275245,,,Dec02Sing3,123,2022_Dec_02_1529,ProdSingRedoBetween,2021.2.3,59.92082063
,,,,129,0,129,0,,,,,,,,,,,,,,,,,,,,,,866.6231691,None,,,,,,,,,,,,,,,,,court,21,130,sing,old,yellow,863.1743903,None,863.1743903,None,3,2.2386271,863.1743903,None,2.2386271,865.4503322,None,865.9561962,None,865.9561962,None,n,0.6405705,865.9561962,None,0.6405705,,,Dec02Sing3,123,2022_Dec_02_1529,ProdSingRedoBetween,2021.2.3,59.92082063
,,,,130,0,130,0,,,,,,,,,,,,,,,,,,,,,,869.9157067,None,,,,,,,,,,,,,,,,,general,172,131,sing,new,null,867.1356618,None,867.1356618,None,4,2.1731972,867.1356618,None,2.1731972,869.3295509,None,869.8433232,None,869.8433232,None,f,0.04962,869.8433232,None,0.04962,,,Dec02Sing3,123,2022_Dec_02_1529,ProdSingRedoBetween,2021.2.3,59.92082063
,,,,131,0,131,0,,,,,,,,,,,,,,,,,,,,,,873.3680735,None,,,,,,,,,,,,,,,,,front,77,132,sing,old,red,870.4357693,None,870.4357693,None,2,1.2812665,870.4357693,None,1.2812665,871.7582474,None,872.2670554,None,872.2670554,None,n,1.0660512,872.2670554,None,1.0660512,,,Dec02Sing3,123,2022_Dec_02_1529,ProdSingRedoBetween,2021.2.3,59.92082063
,,,,132,0,132,0,,,,,,,,,,,,,,,,,,,,,,878.9877832,None,,,,,,,,,,,,,,,,,speech,119,133,sing,new,null,873.8830037,None,873.8830037,None,3,3.3378216,873.8830037,None,3.3378216,877.2516602,None,877.7510553,None,877.7510553,None,n,1.213937,877.7510553,None,1.213937,,,Dec02Sing3,123,2022_Dec_02_1529,ProdSingRedoBetween,2021.2.3,59.92082063
,,,,133,0,133,0,,,,,,,,,,,,,,,,,,,,,,882.8729419,None,,,,,,,,,,,,,,,,,style,127,134,sing,new,null,879.5029664,None,879.5029664,None,2,1.5098719,879.5029664,None,1.5098719,881.0375797,None,881.5445897,None,881.5445897,None,n,1.300259,881.5445897,None,1.300259,,,Dec02Sing3,123,2022_Dec_02_1529,ProdSingRedoBetween,2021.2.3,59.92082063
,,,,134,0,134,0,,,,,,,,,,,,,,,,,,,,,,886.393101,None,,,,,,,,,,,,,,,,,evidence,14,135,sing,old,yellow,883.3813777,None,883.3813777,None,4,1.911519,883.3813777,None,1.911519,885.3159484,None,885.8318076,None,885.8318076,None,f,0.533161,885.8318076,None,0.533161,,,Dec02Sing3,123,2022_Dec_02_1529,ProdSingRedoBetween,2021.2.3,59.92082063
,,,,135,0,135,0,,,,,,,,,,,,,,,,,,,,,,893.3000532,None,,,,,,,,,,,,,,,,,agreement,168,136,sing,new,null,886.8973701,None,886.8973701,None,3,3.2514523,886.8973701,None,3.2514523,890.1635865,None,890.6716155,None,890.6716155,None,n,2.597388,890.6716155,None,2.597388,,,Dec02Sing3,123,2022_Dec_02_1529,ProdSingRedoBetween,2021.2.3,59.92082063
,,,,136,0,136,0,,,,,,,,,,,,,,,,,,,,,,896.3364885,None,,,,,,,,,,,,,,,,,provision,174,137,sing,new,null,893.810195,None,893.810195,None,2,1.8269211,893.810195,None,1.8269211,895.6652615,None,896.171294,None,896.171294,None,n,0.1374754,896.171294,None,0.1374754,,,Dec02Sing3,123,2022_Dec_02_1529,ProdSingRedoBetween,2021.2.3,59.92082063
,,,,137,0,137,0,,,,,,,,,,,,,,,,,,,,,,900.0904843,None,,,,,,,,,,,,,,,,,minute,142,138,sing,new,null,896.8447686,None,896.8447686,None,4,1.9681617,896.8447686,None,1.9681617,898.8432123,None,899.3563006,None,899.3563006,None,f,0.7126342,899.3563006,None,0.7126342,,,Dec02Sing3,123,2022_Dec_02_1529,ProdSingRedoBetween,2021.2.3,59.92082063
,,,,138,0,138,0,,,,,,,,,,,,,,,,,,,,,,902.6427209,None,,,,,,,,,,,,,,,,,reading,98,139,sing,new,null,900.5968281,None,900.5968281,None,2,1.2960231,900.5968281,None,1.2960231,901.9107512,None,902.4259376,None,902.4259376,None,n,0.1949178,902.4259376,None,0.1949178,,,Dec02Sing3,123,2022_Dec_02_1529,ProdSingRedoBetween,2021.2.3,59.92082063
,,,,139,0,139,0,,,,,,,,,,,,,,,,,,,,,,906.8803114,None,,,,,,,,,,,,,,,,,series,40,140,sing,old,blue,903.1535401,None,903.1535401,None,2,1.9793055,903.1535401,None,1.9793055,905.1639594,None,905.6812002,None,905.6812002,None,n,1.1716251,905.6812002,None,1.1716251,,,Dec02Sing3,123,2022_Dec_02_1529,ProdSingRedoBetween,2021.2.3,59.92082063
,,,,140,0,140,0,,,,,,,,,,,,,,,,,,,,,,910.3669289,None,,,,,,,,,,,,,,,,,staff,64,141,sing,old,red,907.3901128,None,907.3901128,None,4,1.7907746,907.3901128,None,1.7907746,909.2031309,None,909.7165576,None,909.7165576,None,f,0.632389,909.7165576,None,0.632389,,,Dec02Sing3,123,2022_Dec_02_1529,ProdSingRedoBetween,2021.2.3,59.92082063
,,,,141,0,141,0,,,,,,,,,,,,,,,,,,,,,,914.2376516,None,,,,,,,,,,,,,,,,,management,179,142,sing,new,null,910.8799923,None,910.8799923,None,2,1.7729148,910.8799923,None,1.7729148,912.6693025,None,913.1747863,None,913.1747863,None,n,1.0460152,913.1747863,None,1.0460152,,,Dec02Sing3,123,2022_Dec_02_1529,ProdSingRedoBetween,2021.2.3,59.92082063
,,,,142,0,142,0,,,,,,,,,,,,,,,,,,,,,,917.7269343,None,,,,,,,,,,,,,,,,,level,165,143,sing,new,null,914.7414146,None,914.7414146,None,2,2.2794732,914.7414146,None,2.2794732,917.0449833,None,917.5698963,None,917.5698963,None,n,0.139211,917.5698963,None,0.139211,,,Dec02Sing3,123,2022_Dec_02_1529,ProdSingRedoBetween,2021.2.3,59.92082063
,,,,143,0,143,0,,,,,,,,,,,,,,,,,,,,,,920.0601757,None,,,,,,,,,,,,,,,,,conference,141,144,sing,new,null,918.2456997,None,918.2456997,None,2,1.1990665,918.2456997,None,1.1990665,919.4655323,None,919.9809242,None,919.9809242,None,n,0.0639253,919.9809242,None,0.0639253,,,Dec02Sing3,123,2022_Dec_02_1529,ProdSingRedoBetween,2021.2.3,59.92082063
,,,,144,0,144,0,,,,,,,,,,,,,,,,,,,,,,925.7733655,None,,,,,,,,,,,,,,,,,ground,101,145,sing,new,null,920.5682787,None,920.5682787,None,4,3.4446001,920.5682787,None,3.4446001,924.0353147,None,924.5515338,None,924.5515338,None,f,1.189488,924.5515338,None,1.189488,,,Dec02Sing3,123,2022_Dec_02_1529,ProdSingRedoBetween,2021.2.3,59.92082063
,,,,145,0,145,0,,,,,,,,,,,,,,,,,,,,,,930.8876305,None,,,,,,,,,,,,,,,,,material,134,146,sing,new,null,926.2917687,None,926.2917687,None,4,2.0091041,926.2917687,None,2.0091041,928.3238476,None,928.8408112,None,928.8408112,None,f,2.0280517,928.8408112,None,2.0280517,,,Dec02Sing3,123,2022_Dec_02_1529,ProdSingRedoBetween,2021.2.3,59.92082063
,,,,146,0,146,0,,,,,,,,,,,,,,,,,,,,,,933.5741411,None,,,,,,,,,,,,,,,,,generation,103,147,sing,new,null,931.39634,None,931.39634,None,2,1.4726803,931.39634,None,1.4726803,932.8959013,None,933.4068929,None,933.4068929,None,n,0.1419884,933.4068929,None,0.1419884,,,Dec02Sing3,123,2022_Dec_02_1529,ProdSingRedoBetween,2021.2.3,59.92082063
,,,,147,0,147,0,,,,,,,,,,,,,,,,,,,,,,936.0102683,None,,,,,,,,,,,,,,,,,season,99,148,sing,new,null,934.0848724,None,934.0848724,None,2,1.2241061,934.0848724,None,1.2241061,935.3305822,None,935.8453387,None,935.8453387,None,n,0.1436436,935.8453387,None,0.1436436,,,Dec02Sing3,123,2022_Dec_02_1529,ProdSingRedoBetween,2021.2.3,59.92082063
,,,,148,0,148,0,,,,,,,,,,,,,,,,,,,,,,938.4299751,None,,,,,,,,,,,,,,,,,dozen,163,149,sing,new,null,936.5238809,None,936.5238809,None,2,1.2250658,936.5238809,None,1.2250658,937.7800924,None,938.3035166,None,938.3035166,None,n,0.1014462,938.3035166,None,0.1014462,,,Dec02Sing3,123,2022_Dec_02_1529,ProdSingRedoBetween,2021.2.3,59.92082063
,,,,149,0,149,0,,,,,,,,,,,,,,,,,,,,,,942.6897138,None,,,,,,,,,,,,,,,,,personnel,44,150,sing,old,blue,938.9517576,None,938.9517576,None,4,2.2050849,938.9517576,None,2.2050849,941.1825114,None,941.6854604,None,941.6854604,None,f,0.9675463,941.6854604,None,0.9675463,,,Dec02Sing3,123,2022_Dec_02_1529,ProdSingRedoBetween,2021.2.3,59.92082063
,,,,150,0,150,0,,,,,,,,,,,,,,,,,,,,,,946.3364669,None,,,,,,,,,,,,,,,,,partner,37,151,sing,old,blue,943.2111522,None,943.2111522,None,4,1.9537069,943.2111522,None,1.9537069,945.1881174,None,945.7083913,None,945.7083913,None,f,0.6084845,945.7083913,None,0.6084845,,,Dec02Sing3,123,2022_Dec_02_1529,ProdSingRedoBetween,2021.2.3,59.92082063
,,,,151,0,151,0,,,,,,,,,,,,,,,,,,,,,,948.6718947,None,,,,,,,,,,,,,,,,,still,114,152,sing,new,null,946.8464537,None,946.8464537,None,2,1.2545302,946.8464537,None,1.2545302,948.133403,None,948.6467153,None,948.6467153,None,n,0.0062313,948.6467153,None,0.0062313,,,Dec02Sing3,123,2022_Dec_02_1529,ProdSingRedoBetween,2021.2.3,59.92082063
,,,,152,0,152,0,,,,,,,,,,,,,,,,,,,,,,950.8575608,None,,,,,,,,,,,,,,,,,reach,173,153,sing,new,null,949.1798199,None,949.1798199,None,2,1.0810457,949.1798199,None,1.0810457,950.2903634,None,950.7954723,None,950.7954723,None,n,0.0334533,950.7954723,None,0.0334533,,,Dec02Sing3,123,2022_Dec_02_1529,ProdSingRedoBetween,2021.2.3,59.92082063
,,,,153,0,153,0,,,,,,,,,,,,,,,,,,,,,,954.0442214,None,,,,,,,,,,,,,,,,,taste,46,154,sing,old,blue,951.3616562,None,951.3616562,None,4,1.555201,951.3616562,None,1.555201,952.9484864,None,953.4626521,None,953.4626521,None,f,0.5582989,953.4626521,None,0.5582989,,,Dec02Sing3,123,2022_Dec_02_1529,ProdSingRedoBetween,2021.2.3,59.92082063
,,,,154,0,154,0,,,,,,,,,,,,,,,,,,,,,,959.4495503,None,,,,,,,,,,,,,,,,,route,83,155,sing,old,red,954.5584489,None,954.5584489,None,2,2.3344851,954.5584489,None,2.3344851,956.9167691,None,957.4309817,None,957.4309817,None,n,1.9899083,957.4309817,None,1.9899083,,,Dec02Sing3,123,2022_Dec_02_1529,ProdSingRedoBetween,2021.2.3,59.92082063
,,,,155,0,155,0,,,,,,,,,,,,,,,,,,,,,,962.6399115,None,,,,,,,,,,,,,,,,,stranger,111,156,sing,new,null,959.9582127,None,959.9582127,None,2,1.9828165,959.9582127,None,1.9828165,961.9777491,None,962.4935809,None,962.4935809,None,n,0.1112996,962.4935809,None,0.1112996,,,Dec02Sing3,123,2022_Dec_02_1529,ProdSingRedoBetween,2021.2.3,59.92082063
,,,,156,0,156,0,,,,,,,,,,,,,,,,,,,,,,965.0384076,None,,,,,,,,,,,,,,,,,sound,178,157,sing,new,null,963.1595053,None,963.1595053,None,2,1.2613063,963.1595053,None,1.2613063,964.440897,None,964.9562261,None,964.9562261,None,n,0.0646244,964.9562261,None,0.0646244,,,Dec02Sing3,123,2022_Dec_02_1529,ProdSingRedoBetween,2021.2.3,59.92082063
,,,,157,0,157,0,,,,,,,,,,,,,,,,,,,,,,967.4249427,None,,,,,,,,,,,,,,,,,minor,152,158,sing,new,null,965.5464567,None,965.5464567,None,2,1.1704087,965.5464567,None,1.1704087,966.7428295,None,967.2625452,None,967.2625452,None,n,0.1343765,967.2625452,None,0.1343765,,,Dec02Sing3,123,2022_Dec_02_1529,ProdSingRedoBetween,2021.2.3,59.92082063
,,,,158,0,158,0,,,,,,,,,,,,,,,,,,,,,,971.012831,None,,,,,,,,,,,,,,,,,direction,10,159,sing,old,yellow,967.9285303,None,967.9285303,None,2,1.2443717,967.9285303,None,1.2443717,969.1947339,None,969.7107983,None,969.7107983,None,n,1.2782792,969.7107983,None,1.2782792,,,Dec02Sing3,123,2022_Dec_02_1529,ProdSingRedoBetween,2021.2.3,59.92082063
,,,,159,0,159,0,,,,,,,,,,,,,,,,,,,,,,973.6975023,None,,,,,,,,,,,,,,,,,short,55,160,sing,old,blue,971.5323532,None,971.5323532,None,2,1.5366481,971.5323532,None,1.5366481,973.1022954,None,973.6177115,None,973.6177115,None,n,0.0591549,973.6177115,None,0.0591549,,,Dec02Sing3,123,2022_Dec_02_1529,ProdSingRedoBetween,2021.2.3,59.92082063
,,,,160,0,160,0,,,,,,,,,,,,,,,,,,,,,,978.2191293,None,,,,,,,,,,,,,,,,,surprise,13,161,sing,old,yellow,974.2114462,None,974.2114462,None,5,3.1454683,974.2114462,None,3.1454683,977.3907911,None,977.9041062,None,977.9041062,None,f,0.2848689,977.9041062,None,0.2848689,,,Dec02Sing3,123,2022_Dec_02_1529,ProdSingRedoBetween,2021.2.3,59.92082063
,,,,161,0,161,0,,,,,,,,,,,,,,,,,,,,,,981.1554308,None,,,,,,,,,,,,,,,,,society,95,162,sing,new,null,978.7243359,None,978.7243359,None,2,1.5124967,978.7243359,None,1.5124967,980.2541806,None,980.7559075,None,980.7559075,None,n,0.3690714,980.7559075,None,0.3690714,,,Dec02Sing3,123,2022_Dec_02_1529,ProdSingRedoBetween,2021.2.3,59.92082063
,,,,162,0,162,0,,,,,,,,,,,,,,,,,,,,,,983.4901807,None,,,,,,,,,,,,,,,,,literature,164,163,sing,new,null,981.6590194,None,981.6590194,None,2,1.1779554,981.6590194,None,1.1779554,982.8630987,None,983.3766013,None,983.3766013,None,n,0.0923092,983.3766013,None,0.0923092,,,Dec02Sing3,123,2022_Dec_02_1529,ProdSingRedoBetween,2021.2.3,59.92082063
,,,,163,0,163,0,,,,,,,,,,,,,,,,,,,,,,987.0601906,None,,,,,,,,,,,,,,,,,position,59,164,sing,old,yellow,983.9926096,None,983.9926096,None,2,1.5402996,983.9926096,None,1.5402996,985.5632529,None,986.076228,None,986.076228,None,n,0.9608941,986.076228,None,0.9608941,,,Dec02Sing3,123,2022_Dec_02_1529,ProdSingRedoBetween,2021.2.3,59.92082063
,,,,164,0,164,0,,,,,,,,,,,,,,,,,,,,,,989.3624955,None,,,,,,,,,,,,,,,,,collection,54,165,sing,old,blue,987.572745,None,987.572745,None,2,1.1442133,987.572745,None,1.1442133,988.7483783,None,989.2694094,None,989.2694094,None,n,0.0635298,989.2694094,None,0.0635298,,,Dec02Sing3,123,2022_Dec_02_1529,ProdSingRedoBetween,2021.2.3,59.92082063
,,,,165,0,165,0,,,,,,,,,,,,,,,,,,,,,,991.5149794,None,,,,,,,,,,,,,,,,,nation,65,166,sing,old,red,989.8663396,None,989.8663396,None,2,1.066551,989.8663396,None,1.066551,990.9486873,None,991.4517405,None,991.4517405,None,n,0.0331225,991.4517405,None,0.0331225,,,Dec02Sing3,123,2022_Dec_02_1529,ProdSingRedoBetween,2021.2.3,59.92082063
,,,,166,0,166,0,,,,,,,,,,,,,,,,,,,,,,993.7170569,None,,,,,,,,,,,,,,,,,quantity,61,167,sing,old,red,992.0245912,None,992.0245912,None,2,1.0523907,992.0245912,None,1.0523907,993.112263,None,993.6199899,None,993.6199899,None,n,0.0729162,993.6199899,None,0.0729162,,,Dec02Sing3,123,2022_Dec_02_1529,ProdSingRedoBetween,2021.2.3,59.92082063
,,,,167,0,167,0,,,,,,,,,,,,,,,,,,,,,,995.8523772,None,,,,,,,,,,,,,,,,,orchestra,171,168,sing,new,null,994.225932,None,994.225932,None,2,1.0030943,994.225932,None,1.0030943,995.2631898,None,995.7792318,None,995.7792318,None,n,0.049737,995.7792318,None,0.049737,,,Dec02Sing3,123,2022_Dec_02_1529,ProdSingRedoBetween,2021.2.3,59.92082063
,,,,168,0,168,0,,,,,,,,,,,,,,,,,,,,,,998.9220733,None,,,,,,,,,,,,,,,,,light,17,169,sing,old,yellow,996.3544664,None,996.3544664,None,2,0.9704945,996.3544664,None,0.9704945,997.3569343,None,997.8798451,None,997.8798451,None,n,1.013112,997.8798451,None,1.013112,,,Dec02Sing3,123,2022_Dec_02_1529,ProdSingRedoBetween,2021.2.3,59.92082063
,,,,169,0,169,0,,,,,,,,,,,,,,,,,,,,,,1002.875997,None,,,,,,,,,,,,,,,,,school,156,170,sing,new,null,999.4291455,None,999.4291455,None,4,2.0797456,999.4291455,None,2.0797456,1001.529658,None,1002.042228,None,1002.042228,None,f,0.8187272,1002.042228,None,0.8187272,,,Dec02Sing3,123,2022_Dec_02_1529,ProdSingRedoBetween,2021.2.3,59.92082063
,,,,170,0,170,0,,,,,,,,,,,,,,,,,,,,,,1005.145145,None,,,,,,,,,,,,,,,,,emergency,160,171,sing,new,null,1003.379803,None,1003.379803,None,2,1.1611138,1003.379803,None,1.1611138,1004.561259,None,1005.066922,None,1005.066922,None,n,0.0579602,1005.066922,None,0.0579602,,,Dec02Sing3,123,2022_Dec_02_1529,ProdSingRedoBetween,2021.2.3,59.92082063
,,,,171,0,171,0,,,,,,,,,,,,,,,,,,,,,,1008.584056,None,,,,,,,,,,,,,,,,,poetry,30,172,sing,old,blue,1005.655257,None,1005.655257,None,5,2.2137495,1005.655257,None,2.2137495,1007.901192,None,1008.415233,None,1008.415233,None,f,0.1417004,1008.415233,None,0.1417004,,,Dec02Sing3,123,2022_Dec_02_1529,ProdSingRedoBetween,2021.2.3,59.92082063
,,,,172,0,172,0,,,,,,,,,,,,,,,,,,,,,,1011.019128,None,,,,,,,,,,,,,,,,,number,41,173,sing,old,blue,1009.108287,None,1009.108287,None,2,1.3206419,1009.108287,None,1.3206419,1010.452245,None,1010.967817,None,1010.967817,None,n,0.0291695,1010.967817,None,0.0291695,,,Dec02Sing3,123,2022_Dec_02_1529,ProdSingRedoBetween,2021.2.3,59.92082063
,,,,173,0,173,0,,,,,,,,,,,,,,,,,,,,,,1014.721183,None,,,,,,,,,,,,,,,,,country,159,174,sing,new,null,1011.523663,None,1011.523663,None,4,1.93713,1011.523663,None,1.93713,1013.488628,None,1014.011897,None,1014.011897,None,f,0.6890172,1014.011897,None,0.6890172,,,Dec02Sing3,123,2022_Dec_02_1529,ProdSingRedoBetween,2021.2.3,59.92082063
,,,,174,0,174,0,,,,,,,,,,,,,,,,,,,,,,1019.912472,None,,,,,,,,,,,,,,,,,tough,158,175,sing,new,null,1015.233926,None,1015.233926,None,2,2.6350581,1015.233926,None,2.6350581,1017.892209,None,1018.395837,None,1018.395837,None,n,1.4972761,1018.395837,None,1.4972761,,,Dec02Sing3,123,2022_Dec_02_1529,ProdSingRedoBetween,2021.2.3,59.92082063
,,,,175,0,175,0,,,,,,,,,,,,,,,,,,,,,,1022.262288,None,,,,,,,,,,,,,,,,,debate,155,176,sing,new,null,1020.430475,None,1020.430475,None,2,1.1186199,1020.430475,None,1.1186199,1021.585256,None,1022.104527,None,1022.104527,None,n,0.1403755,1022.104527,None,0.1403755,,,Dec02Sing3,123,2022_Dec_02_1529,ProdSingRedoBetween,2021.2.3,59.92082063
,,,,176,0,176,0,,,,,,,,,,,,,,,,,,,,,,1025.633267,None,,,,,,,,,,,,,,,,,incident,82,177,sing,old,red,1022.777076,None,1022.777076,None,5,1.8278661,1022.777076,None,1.8278661,1024.635078,None,1025.153199,None,1025.153199,None,f,0.4517794,1025.153199,None,0.4517794,,,Dec02Sing3,123,2022_Dec_02_1529,ProdSingRedoBetween,2021.2.3,59.92082063
,,,,177,0,177,0,,,,,,,,,,,,,,,,,,,,,,1029.070648,None,,,,,,,,,,,,,,,,,junior,177,178,sing,new,null,1026.149855,None,1026.149855,None,2,2.0952396,1026.149855,None,2.0952396,1028.275919,None,1028.797668,None,1028.797668,None,n,0.2553478,1028.797668,None,0.2553478,,,Dec02Sing3,123,2022_Dec_02_1529,ProdSingRedoBetween,2021.2.3,59.92082063
,,,,178,0,178,0,,,,,,,,,,,,,,,,,,,,,,1031.50575,None,,,,,,,,,,,,,,,,,graduate,36,179,sing,old,blue,1029.578133,None,1029.578133,None,2,1.2188159,1029.578133,None,1.2188159,1030.825129,None,1031.344537,None,1031.344537,None,n,0.1404045,1031.344537,None,0.1404045,,,Dec02Sing3,123,2022_Dec_02_1529,ProdSingRedoBetween,2021.2.3,59.92082063
,,,,179,0,179,0,,,,,,,,,,,,,,,,,,,,,,1035.642449,None,,,,,,,,,,,,,,,,,history,48,180,sing,old,blue,1032.018805,None,1032.018805,None,6,2.7380937,1032.018805,None,2.7380937,1034.778287,None,1035.30045,None,1035.30045,None,r,0.3204886,1035.30045,None,0.3204886,,,Dec02Sing3,123,2022_Dec_02_1529,ProdSingRedoBetween,2021.2.3,59.92082063
,,,,,,,,,,,,,,,,,,,,,,,,,,,,,,,,,,,,,,,,,,,,,,,,,,,,,,,,,,,,,,,,,,,,,,,,,1036.143389,None,,,,,,
