StudyLoop.thisRepN,StudyLoop.thisTrialN,StudyLoop.thisN,StudyLoop.thisIndex,TestLoop.thisRepN,TestLoop.thisTrialN,TestLoop.thisN,TestLoop.thisIndex,textCondition.started,textCondition.stopped,keyCondition.keys,keyCondition.rt,keyCondition.started,keyCondition.stopped,Condition,textWelcome.started,textWelcome.stopped,keyWelcome.keys,keyWelcome.rt,keyWelcome.started,keyWelcome.stopped,textAloud.started,textAloud.stopped,textSilent.started,textSilent.stopped,textSing.started,textSing.stopped,conditional_text.started,conditional_text.stopped,textBlank500.started,textBlank500.stopped,study_word,study_num,study_order,study_type,word_color,textStudy.started,textStudy.stopped,keyStudy.keys,keyStudy.started,keyStudy.stopped,textTestInstructions.started,textTestInstructions.stopped,key_resp_3.keys,key_resp_3.rt,key_resp_3.started,key_resp_3.stopped,test_word,test_num,test_order,test_condition,old_new_test,test_word_original_color,textConf.started,textConf.stopped,textConfScale.started,textConfScale.stopped,keyConf.keys,keyConf.rt,keyConf.started,keyConf.stopped,confidence response time,textTestBlank.started,textTestBlank.stopped,textRKN.started,textRKN.stopped,textRKNScale.started,textRKNScale.stopped,keyRKN.keys,keyRKN.rt,keyRKN.started,keyRKN.stopped,rkn response time,textEnd.started,textEnd.stopped,participant,session,date,expName,psychopyVersion,frameRate
,,,,,,,,28.5407739,None,a,144.1251189,28.5407739,None,,,,,,,,,,,,,,,,,,,,,,,,,,,,,,,,,,,,,,,,,,,,,,,,,,,,,,,,,,,,,,Dec02Silent3,124,2022_Dec_02_1549,ProdSingRedoBetween,2021.2.3,59.92110787
,,,,,,,,,,,,,,SilentTest,172.7125266,None,space,7.7052145,172.7125266,None,,,,,,,,,,,,,,,,,,,,,,,,,,,,,,,,,,,,,,,,,,,,,,,,,,,,,,,Dec02Silent3,124,2022_Dec_02_1549,ProdSingRedoBetween,2021.2.3,59.92110787
0,0,0,0,,,,,,,,,,,,,,,,,,172.7125266,None,172.7125266,None,172.7125266,None,172.7125266,None,182.9668042,None,passage,49,1,silent,blue,180.9522806,None,None,180.9522806,None,,,,,,,,,,,,,,,,,,,,,,,,,,,,,,,,,,,Dec02Silent3,124,2022_Dec_02_1549,ProdSingRedoBetween,2021.2.3,59.92110787
1,0,1,0,,,,,,,,,,,,,,,,,,,,,,,,,,185.4860103,None,victory,66,2,silent,red,183.477317,None,None,183.477317,None,,,,,,,,,,,,,,,,,,,,,,,,,,,,,,,,,,,Dec02Silent3,124,2022_Dec_02_1549,ProdSingRedoBetween,2021.2.3,59.92110787
2,0,2,0,,,,,,,,,,,,,,,,,,,,,,,,,,187.9885022,None,cover,57,3,silent,blue,185.9893361,None,None,185.9893361,None,,,,,,,,,,,,,,,,,,,,,,,,,,,,,,,,,,,Dec02Silent3,124,2022_Dec_02_1549,ProdSingRedoBetween,2021.2.3,59.92110787
3,0,3,0,,,,,,,,,,,,,,,,,,,,,,,,,,190.4910122,None,angle,0,4,silent,yellow,188.4890077,None,None,188.4890077,None,,,,,,,,,,,,,,,,,,,,,,,,,,,,,,,,,,,Dec02Silent3,124,2022_Dec_02_1549,ProdSingRedoBetween,2021.2.3,59.92110787
4,0,4,0,,,,,,,,,,,,,,,,,,,,,,,,,,192.9935224,None,state,84,5,silent,red,190.993214,None,None,190.993214,None,,,,,,,,,,,,,,,,,,,,,,,,,,,,,,,,,,,Dec02Silent3,124,2022_Dec_02_1549,ProdSingRedoBetween,2021.2.3,59.92110787
5,0,5,0,,,,,,,,,,,,,,,,,,,,,,,,,,195.5127106,None,incident,28,6,silent,yellow,193.4979884,None,None,193.4979884,None,,,,,,,,,,,,,,,,,,,,,,,,,,,,,,,,,,,Dec02Silent3,124,2022_Dec_02_1549,ProdSingRedoBetween,2021.2.3,59.92110787
6,0,6,0,,,,,,,,,,,,,,,,,,,,,,,,,,198.0151787,None,addition,74,7,silent,red,196.013179,None,None,196.013179,None,,,,,,,,,,,,,,,,,,,,,,,,,,,,,,,,,,,Dec02Silent3,124,2022_Dec_02_1549,ProdSingRedoBetween,2021.2.3,59.92110787
7,0,7,0,,,,,,,,,,,,,,,,,,,,,,,,,,200.5176825,None,rapid,83,8,silent,red,198.5174593,None,None,198.5174593,None,,,,,,,,,,,,,,,,,,,,,,,,,,,,,,,,,,,Dec02Silent3,124,2022_Dec_02_1549,ProdSingRedoBetween,2021.2.3,59.92110787
8,0,8,0,,,,,,,,,,,,,,,,,,,,,,,,,,203.020177,None,income,47,9,silent,blue,201.0181466,None,None,201.0181466,None,,,,,,,,,,,,,,,,,,,,,,,,,,,,,,,,,,,Dec02Silent3,124,2022_Dec_02_1549,ProdSingRedoBetween,2021.2.3,59.92110787
9,0,9,0,,,,,,,,,,,,,,,,,,,,,,,,,,205.5394129,None,guide,9,10,silent,yellow,203.5284344,None,None,203.5284344,None,,,,,,,,,,,,,,,,,,,,,,,,,,,,,,,,,,,Dec02Silent3,124,2022_Dec_02_1549,ProdSingRedoBetween,2021.2.3,59.92110787
10,0,10,0,,,,,,,,,,,,,,,,,,,,,,,,,,208.0586378,None,property,72,11,silent,red,206.050211,None,None,206.050211,None,,,,,,,,,,,,,,,,,,,,,,,,,,,,,,,,,,,Dec02Silent3,124,2022_Dec_02_1549,ProdSingRedoBetween,2021.2.3,59.92110787
11,0,11,0,,,,,,,,,,,,,,,,,,,,,,,,,,210.5611032,None,murder,81,12,silent,red,208.5613208,None,None,208.5613208,None,,,,,,,,,,,,,,,,,,,,,,,,,,,,,,,,,,,Dec02Silent3,124,2022_Dec_02_1549,ProdSingRedoBetween,2021.2.3,59.92110787
12,0,12,0,,,,,,,,,,,,,,,,,,,,,,,,,,213.0802024,None,damage,56,13,silent,blue,211.0675613,None,None,211.0675613,None,,,,,,,,,,,,,,,,,,,,,,,,,,,,,,,,,,,Dec02Silent3,124,2022_Dec_02_1549,ProdSingRedoBetween,2021.2.3,59.92110787
13,0,13,0,,,,,,,,,,,,,,,,,,,,,,,,,,215.5995328,None,search,29,14,silent,blue,213.5848183,None,None,213.5848183,None,,,,,,,,,,,,,,,,,,,,,,,,,,,,,,,,,,,Dec02Silent3,124,2022_Dec_02_1549,ProdSingRedoBetween,2021.2.3,59.92110787
14,0,14,0,,,,,,,,,,,,,,,,,,,,,,,,,,218.1186462,None,junior,3,15,silent,yellow,216.1069352,None,None,216.1069352,None,,,,,,,,,,,,,,,,,,,,,,,,,,,,,,,,,,,Dec02Silent3,124,2022_Dec_02_1549,ProdSingRedoBetween,2021.2.3,59.92110787
15,0,15,0,,,,,,,,,,,,,,,,,,,,,,,,,,220.6212331,None,benefit,65,16,silent,red,218.619066,None,None,218.619066,None,,,,,,,,,,,,,,,,,,,,,,,,,,,,,,,,,,,Dec02Silent3,124,2022_Dec_02_1549,ProdSingRedoBetween,2021.2.3,59.92110787
16,0,16,0,,,,,,,,,,,,,,,,,,,,,,,,,,223.1236711,None,clear,31,17,silent,blue,221.1244846,None,None,221.1244846,None,,,,,,,,,,,,,,,,,,,,,,,,,,,,,,,,,,,Dec02Silent3,124,2022_Dec_02_1549,ProdSingRedoBetween,2021.2.3,59.92110787
17,0,17,0,,,,,,,,,,,,,,,,,,,,,,,,,,225.6261272,None,entrance,15,18,silent,yellow,223.6241254,None,None,223.6241254,None,,,,,,,,,,,,,,,,,,,,,,,,,,,,,,,,,,,Dec02Silent3,124,2022_Dec_02_1549,ProdSingRedoBetween,2021.2.3,59.92110787
18,0,18,0,,,,,,,,,,,,,,,,,,,,,,,,,,228.1287238,None,owner,35,19,silent,blue,226.1295155,None,None,226.1295155,None,,,,,,,,,,,,,,,,,,,,,,,,,,,,,,,,,,,Dec02Silent3,124,2022_Dec_02_1549,ProdSingRedoBetween,2021.2.3,59.92110787
19,0,19,0,,,,,,,,,,,,,,,,,,,,,,,,,,230.6477723,None,break,45,20,silent,blue,228.6386069,None,None,228.6386069,None,,,,,,,,,,,,,,,,,,,,,,,,,,,,,,,,,,,Dec02Silent3,124,2022_Dec_02_1549,ProdSingRedoBetween,2021.2.3,59.92110787
20,0,20,0,,,,,,,,,,,,,,,,,,,,,,,,,,233.1503256,None,election,43,21,silent,blue,231.1482972,None,None,231.1482972,None,,,,,,,,,,,,,,,,,,,,,,,,,,,,,,,,,,,Dec02Silent3,124,2022_Dec_02_1549,ProdSingRedoBetween,2021.2.3,59.92110787
21,0,21,0,,,,,,,,,,,,,,,,,,,,,,,,,,235.6695751,None,month,19,22,silent,yellow,233.6541954,None,None,233.6541954,None,,,,,,,,,,,,,,,,,,,,,,,,,,,,,,,,,,,Dec02Silent3,124,2022_Dec_02_1549,ProdSingRedoBetween,2021.2.3,59.92110787
22,0,22,0,,,,,,,,,,,,,,,,,,,,,,,,,,238.1720268,None,write,78,23,silent,red,236.171765,None,None,236.171765,None,,,,,,,,,,,,,,,,,,,,,,,,,,,,,,,,,,,Dec02Silent3,124,2022_Dec_02_1549,ProdSingRedoBetween,2021.2.3,59.92110787
23,0,23,0,,,,,,,,,,,,,,,,,,,,,,,,,,240.6911242,None,close,17,24,silent,yellow,238.6780066,None,None,238.6780066,None,,,,,,,,,,,,,,,,,,,,,,,,,,,,,,,,,,,Dec02Silent3,124,2022_Dec_02_1549,ProdSingRedoBetween,2021.2.3,59.92110787
24,0,24,0,,,,,,,,,,,,,,,,,,,,,,,,,,243.1936994,None,sight,5,25,silent,yellow,241.1927809,None,None,241.1927809,None,,,,,,,,,,,,,,,,,,,,,,,,,,,,,,,,,,,Dec02Silent3,124,2022_Dec_02_1549,ProdSingRedoBetween,2021.2.3,59.92110787
25,0,25,0,,,,,,,,,,,,,,,,,,,,,,,,,,245.6962218,None,brilliant,2,26,silent,yellow,243.6963075,None,None,243.6963075,None,,,,,,,,,,,,,,,,,,,,,,,,,,,,,,,,,,,Dec02Silent3,124,2022_Dec_02_1549,ProdSingRedoBetween,2021.2.3,59.92110787
26,0,26,0,,,,,,,,,,,,,,,,,,,,,,,,,,248.1986392,None,order,16,27,silent,yellow,246.19746,None,None,246.19746,None,,,,,,,,,,,,,,,,,,,,,,,,,,,,,,,,,,,Dec02Silent3,124,2022_Dec_02_1549,ProdSingRedoBetween,2021.2.3,59.92110787
27,0,27,0,,,,,,,,,,,,,,,,,,,,,,,,,,250.7011271,None,hearing,37,28,silent,blue,248.6997377,None,None,248.6997377,None,,,,,,,,,,,,,,,,,,,,,,,,,,,,,,,,,,,Dec02Silent3,124,2022_Dec_02_1549,ProdSingRedoBetween,2021.2.3,59.92110787
28,0,28,0,,,,,,,,,,,,,,,,,,,,,,,,,,253.2036187,None,block,63,29,silent,red,251.2027701,None,None,251.2027701,None,,,,,,,,,,,,,,,,,,,,,,,,,,,,,,,,,,,Dec02Silent3,124,2022_Dec_02_1549,ProdSingRedoBetween,2021.2.3,59.92110787
29,0,29,0,,,,,,,,,,,,,,,,,,,,,,,,,,255.7061442,None,candidate,20,30,silent,yellow,253.704804,None,None,253.704804,None,,,,,,,,,,,,,,,,,,,,,,,,,,,,,,,,,,,Dec02Silent3,124,2022_Dec_02_1549,ProdSingRedoBetween,2021.2.3,59.92110787
30,0,30,0,,,,,,,,,,,,,,,,,,,,,,,,,,258.2251417,None,whole,33,31,silent,blue,256.2130194,None,None,256.2130194,None,,,,,,,,,,,,,,,,,,,,,,,,,,,,,,,,,,,Dec02Silent3,124,2022_Dec_02_1549,ProdSingRedoBetween,2021.2.3,59.92110787
31,0,31,0,,,,,,,,,,,,,,,,,,,,,,,,,,260.7445009,None,native,54,32,silent,blue,258.7358871,None,None,258.7358871,None,,,,,,,,,,,,,,,,,,,,,,,,,,,,,,,,,,,Dec02Silent3,124,2022_Dec_02_1549,ProdSingRedoBetween,2021.2.3,59.92110787
32,0,32,0,,,,,,,,,,,,,,,,,,,,,,,,,,263.2470902,None,suspect,24,33,silent,yellow,261.2448072,None,None,261.2448072,None,,,,,,,,,,,,,,,,,,,,,,,,,,,,,,,,,,,Dec02Silent3,124,2022_Dec_02_1549,ProdSingRedoBetween,2021.2.3,59.92110787
33,0,33,0,,,,,,,,,,,,,,,,,,,,,,,,,,265.7495831,None,rural,21,34,silent,yellow,263.7475902,None,None,263.7475902,None,,,,,,,,,,,,,,,,,,,,,,,,,,,,,,,,,,,Dec02Silent3,124,2022_Dec_02_1549,ProdSingRedoBetween,2021.2.3,59.92110787
34,0,34,0,,,,,,,,,,,,,,,,,,,,,,,,,,268.2521837,None,poetry,39,35,silent,blue,266.2500245,None,None,266.2500245,None,,,,,,,,,,,,,,,,,,,,,,,,,,,,,,,,,,,Dec02Silent3,124,2022_Dec_02_1549,ProdSingRedoBetween,2021.2.3,59.92110787
35,0,35,0,,,,,,,,,,,,,,,,,,,,,,,,,,270.7712192,None,sweet,1,36,silent,yellow,268.7558895,None,None,268.7558895,None,,,,,,,,,,,,,,,,,,,,,,,,,,,,,,,,,,,Dec02Silent3,124,2022_Dec_02_1549,ProdSingRedoBetween,2021.2.3,59.92110787
36,0,36,0,,,,,,,,,,,,,,,,,,,,,,,,,,273.2905232,None,population,40,37,silent,blue,271.2824613,None,None,271.2824613,None,,,,,,,,,,,,,,,,,,,,,,,,,,,,,,,,,,,Dec02Silent3,124,2022_Dec_02_1549,ProdSingRedoBetween,2021.2.3,59.92110787
37,0,37,0,,,,,,,,,,,,,,,,,,,,,,,,,,275.792637,None,edition,60,38,silent,red,273.7909023,None,None,273.7909023,None,,,,,,,,,,,,,,,,,,,,,,,,,,,,,,,,,,,Dec02Silent3,124,2022_Dec_02_1549,ProdSingRedoBetween,2021.2.3,59.92110787
38,0,38,0,,,,,,,,,,,,,,,,,,,,,,,,,,278.3121889,None,ground,80,39,silent,red,276.2991621,None,None,276.2991621,None,,,,,,,,,,,,,,,,,,,,,,,,,,,,,,,,,,,Dec02Silent3,124,2022_Dec_02_1549,ProdSingRedoBetween,2021.2.3,59.92110787
39,0,39,0,,,,,,,,,,,,,,,,,,,,,,,,,,280.8312532,None,heavy,18,40,silent,yellow,278.8251435,None,None,278.8251435,None,,,,,,,,,,,,,,,,,,,,,,,,,,,,,,,,,,,Dec02Silent3,124,2022_Dec_02_1549,ProdSingRedoBetween,2021.2.3,59.92110787
40,0,40,0,,,,,,,,,,,,,,,,,,,,,,,,,,283.3338445,None,graduate,64,41,silent,red,281.3317923,None,None,281.3317923,None,,,,,,,,,,,,,,,,,,,,,,,,,,,,,,,,,,,Dec02Silent3,124,2022_Dec_02_1549,ProdSingRedoBetween,2021.2.3,59.92110787
41,0,41,0,,,,,,,,,,,,,,,,,,,,,,,,,,285.85302,None,science,87,42,silent,red,283.8432026,None,None,283.8432026,None,,,,,,,,,,,,,,,,,,,,,,,,,,,,,,,,,,,Dec02Silent3,124,2022_Dec_02_1549,ProdSingRedoBetween,2021.2.3,59.92110787
42,0,42,0,,,,,,,,,,,,,,,,,,,,,,,,,,288.3722019,None,general,53,43,silent,blue,286.3569241,None,None,286.3569241,None,,,,,,,,,,,,,,,,,,,,,,,,,,,,,,,,,,,Dec02Silent3,124,2022_Dec_02_1549,ProdSingRedoBetween,2021.2.3,59.92110787
43,0,43,0,,,,,,,,,,,,,,,,,,,,,,,,,,290.8914095,None,drove,51,44,silent,blue,288.8794473,None,None,288.8794473,None,,,,,,,,,,,,,,,,,,,,,,,,,,,,,,,,,,,Dec02Silent3,124,2022_Dec_02_1549,ProdSingRedoBetween,2021.2.3,59.92110787
44,0,44,0,,,,,,,,,,,,,,,,,,,,,,,,,,293.4106468,None,trend,52,45,silent,blue,291.3984331,None,None,291.3984331,None,,,,,,,,,,,,,,,,,,,,,,,,,,,,,,,,,,,Dec02Silent3,124,2022_Dec_02_1549,ProdSingRedoBetween,2021.2.3,59.92110787
45,0,45,0,,,,,,,,,,,,,,,,,,,,,,,,,,295.9298646,None,private,8,46,silent,yellow,293.9241689,None,None,293.9241689,None,,,,,,,,,,,,,,,,,,,,,,,,,,,,,,,,,,,Dec02Silent3,124,2022_Dec_02_1549,ProdSingRedoBetween,2021.2.3,59.92110787
46,0,46,0,,,,,,,,,,,,,,,,,,,,,,,,,,298.4331771,None,error,26,47,silent,yellow,296.4313972,None,None,296.4313972,None,,,,,,,,,,,,,,,,,,,,,,,,,,,,,,,,,,,Dec02Silent3,124,2022_Dec_02_1549,ProdSingRedoBetween,2021.2.3,59.92110787
47,0,47,0,,,,,,,,,,,,,,,,,,,,,,,,,,300.9514362,None,capital,41,48,silent,blue,298.9386702,None,None,298.9386702,None,,,,,,,,,,,,,,,,,,,,,,,,,,,,,,,,,,,Dec02Silent3,124,2022_Dec_02_1549,ProdSingRedoBetween,2021.2.3,59.92110787
48,0,48,0,,,,,,,,,,,,,,,,,,,,,,,,,,303.4538954,None,weather,46,49,silent,blue,301.4533219,None,None,301.4533219,None,,,,,,,,,,,,,,,,,,,,,,,,,,,,,,,,,,,Dec02Silent3,124,2022_Dec_02_1549,ProdSingRedoBetween,2021.2.3,59.92110787
49,0,49,0,,,,,,,,,,,,,,,,,,,,,,,,,,305.9564029,None,scale,38,50,silent,blue,303.9555109,None,None,303.9555109,None,,,,,,,,,,,,,,,,,,,,,,,,,,,,,,,,,,,Dec02Silent3,124,2022_Dec_02_1549,ProdSingRedoBetween,2021.2.3,59.92110787
50,0,50,0,,,,,,,,,,,,,,,,,,,,,,,,,,308.4589708,None,touch,12,51,silent,yellow,306.459958,None,None,306.459958,None,,,,,,,,,,,,,,,,,,,,,,,,,,,,,,,,,,,Dec02Silent3,124,2022_Dec_02_1549,ProdSingRedoBetween,2021.2.3,59.92110787
51,0,51,0,,,,,,,,,,,,,,,,,,,,,,,,,,310.978114,None,prime,23,52,silent,yellow,308.9675867,None,None,308.9675867,None,,,,,,,,,,,,,,,,,,,,,,,,,,,,,,,,,,,Dec02Silent3,124,2022_Dec_02_1549,ProdSingRedoBetween,2021.2.3,59.92110787
52,0,52,0,,,,,,,,,,,,,,,,,,,,,,,,,,313.4807078,None,blind,25,53,silent,yellow,311.4814255,None,None,311.4814255,None,,,,,,,,,,,,,,,,,,,,,,,,,,,,,,,,,,,Dec02Silent3,124,2022_Dec_02_1549,ProdSingRedoBetween,2021.2.3,59.92110787
53,0,53,0,,,,,,,,,,,,,,,,,,,,,,,,,,315.9831275,None,clean,32,54,silent,blue,313.9839713,None,None,313.9839713,None,,,,,,,,,,,,,,,,,,,,,,,,,,,,,,,,,,,Dec02Silent3,124,2022_Dec_02_1549,ProdSingRedoBetween,2021.2.3,59.92110787
54,0,54,0,,,,,,,,,,,,,,,,,,,,,,,,,,318.4856768,None,command,14,55,silent,yellow,316.4865871,None,None,316.4865871,None,,,,,,,,,,,,,,,,,,,,,,,,,,,,,,,,,,,Dec02Silent3,124,2022_Dec_02_1549,ProdSingRedoBetween,2021.2.3,59.92110787
55,0,55,0,,,,,,,,,,,,,,,,,,,,,,,,,,321.0047917,None,company,67,56,silent,red,318.9919861,None,None,318.9919861,None,,,,,,,,,,,,,,,,,,,,,,,,,,,,,,,,,,,Dec02Silent3,124,2022_Dec_02_1549,ProdSingRedoBetween,2021.2.3,59.92110787
56,0,56,0,,,,,,,,,,,,,,,,,,,,,,,,,,323.523962,None,committee,79,57,silent,red,321.5089294,None,None,321.5089294,None,,,,,,,,,,,,,,,,,,,,,,,,,,,,,,,,,,,Dec02Silent3,124,2022_Dec_02_1549,ProdSingRedoBetween,2021.2.3,59.92110787
57,0,57,0,,,,,,,,,,,,,,,,,,,,,,,,,,326.0264291,None,volume,44,58,silent,blue,324.0244531,None,None,324.0244531,None,,,,,,,,,,,,,,,,,,,,,,,,,,,,,,,,,,,Dec02Silent3,124,2022_Dec_02_1549,ProdSingRedoBetween,2021.2.3,59.92110787
58,0,58,0,,,,,,,,,,,,,,,,,,,,,,,,,,328.5455768,None,range,7,59,silent,yellow,326.5313448,None,None,326.5313448,None,,,,,,,,,,,,,,,,,,,,,,,,,,,,,,,,,,,Dec02Silent3,124,2022_Dec_02_1549,ProdSingRedoBetween,2021.2.3,59.92110787
59,0,59,0,,,,,,,,,,,,,,,,,,,,,,,,,,331.0480826,None,store,77,60,silent,red,329.0461366,None,None,329.0461366,None,,,,,,,,,,,,,,,,,,,,,,,,,,,,,,,,,,,Dec02Silent3,124,2022_Dec_02_1549,ProdSingRedoBetween,2021.2.3,59.92110787
60,0,60,0,,,,,,,,,,,,,,,,,,,,,,,,,,333.5673528,None,sound,68,61,silent,red,331.5537371,None,None,331.5537371,None,,,,,,,,,,,,,,,,,,,,,,,,,,,,,,,,,,,Dec02Silent3,124,2022_Dec_02_1549,ProdSingRedoBetween,2021.2.3,59.92110787
61,0,61,0,,,,,,,,,,,,,,,,,,,,,,,,,,336.0864705,None,listen,10,62,silent,yellow,334.0727353,None,None,334.0727353,None,,,,,,,,,,,,,,,,,,,,,,,,,,,,,,,,,,,Dec02Silent3,124,2022_Dec_02_1549,ProdSingRedoBetween,2021.2.3,59.92110787
62,0,62,0,,,,,,,,,,,,,,,,,,,,,,,,,,338.5890437,None,degree,71,63,silent,red,336.5869733,None,None,336.5869733,None,,,,,,,,,,,,,,,,,,,,,,,,,,,,,,,,,,,Dec02Silent3,124,2022_Dec_02_1549,ProdSingRedoBetween,2021.2.3,59.92110787
63,0,63,0,,,,,,,,,,,,,,,,,,,,,,,,,,341.108214,None,department,6,64,silent,yellow,339.0931768,None,None,339.0931768,None,,,,,,,,,,,,,,,,,,,,,,,,,,,,,,,,,,,Dec02Silent3,124,2022_Dec_02_1549,ProdSingRedoBetween,2021.2.3,59.92110787
64,0,64,0,,,,,,,,,,,,,,,,,,,,,,,,,,343.6274443,None,service,11,65,silent,yellow,341.6146976,None,None,341.6146976,None,,,,,,,,,,,,,,,,,,,,,,,,,,,,,,,,,,,Dec02Silent3,124,2022_Dec_02_1549,ProdSingRedoBetween,2021.2.3,59.92110787
65,0,65,0,,,,,,,,,,,,,,,,,,,,,,,,,,346.1298952,None,novel,85,66,silent,red,344.1290226,None,None,344.1290226,None,,,,,,,,,,,,,,,,,,,,,,,,,,,,,,,,,,,Dec02Silent3,124,2022_Dec_02_1549,ProdSingRedoBetween,2021.2.3,59.92110787
66,0,66,0,,,,,,,,,,,,,,,,,,,,,,,,,,348.6489923,None,career,62,67,silent,red,346.6334374,None,None,346.6334374,None,,,,,,,,,,,,,,,,,,,,,,,,,,,,,,,,,,,Dec02Silent3,124,2022_Dec_02_1549,ProdSingRedoBetween,2021.2.3,59.92110787
67,0,67,0,,,,,,,,,,,,,,,,,,,,,,,,,,351.1516475,None,court,30,68,silent,blue,349.151633,None,None,349.151633,None,,,,,,,,,,,,,,,,,,,,,,,,,,,,,,,,,,,Dec02Silent3,124,2022_Dec_02_1549,ProdSingRedoBetween,2021.2.3,59.92110787
68,0,68,0,,,,,,,,,,,,,,,,,,,,,,,,,,353.6707458,None,travel,59,69,silent,yellow,351.6588746,None,None,351.6588746,None,,,,,,,,,,,,,,,,,,,,,,,,,,,,,,,,,,,Dec02Silent3,124,2022_Dec_02_1549,ProdSingRedoBetween,2021.2.3,59.92110787
69,0,69,0,,,,,,,,,,,,,,,,,,,,,,,,,,356.173224,None,health,61,70,silent,red,354.1712259,None,None,354.1712259,None,,,,,,,,,,,,,,,,,,,,,,,,,,,,,,,,,,,Dec02Silent3,124,2022_Dec_02_1549,ProdSingRedoBetween,2021.2.3,59.92110787
70,0,70,0,,,,,,,,,,,,,,,,,,,,,,,,,,358.6758282,None,engineer,50,71,silent,blue,356.6737303,None,None,356.6737303,None,,,,,,,,,,,,,,,,,,,,,,,,,,,,,,,,,,,Dec02Silent3,124,2022_Dec_02_1549,ProdSingRedoBetween,2021.2.3,59.92110787
71,0,71,0,,,,,,,,,,,,,,,,,,,,,,,,,,361.1948754,None,testimony,36,72,silent,blue,359.1822911,None,None,359.1822911,None,,,,,,,,,,,,,,,,,,,,,,,,,,,,,,,,,,,Dec02Silent3,124,2022_Dec_02_1549,ProdSingRedoBetween,2021.2.3,59.92110787
72,0,72,0,,,,,,,,,,,,,,,,,,,,,,,,,,363.714085,None,defeat,34,73,silent,blue,361.7024487,None,None,361.7024487,None,,,,,,,,,,,,,,,,,,,,,,,,,,,,,,,,,,,Dec02Silent3,124,2022_Dec_02_1549,ProdSingRedoBetween,2021.2.3,59.92110787
73,0,73,0,,,,,,,,,,,,,,,,,,,,,,,,,,366.2166073,None,union,69,74,silent,red,364.2146073,None,None,364.2146073,None,,,,,,,,,,,,,,,,,,,,,,,,,,,,,,,,,,,Dec02Silent3,124,2022_Dec_02_1549,ProdSingRedoBetween,2021.2.3,59.92110787
74,0,74,0,,,,,,,,,,,,,,,,,,,,,,,,,,368.7190718,None,expansion,76,75,silent,red,366.7185945,None,None,366.7185945,None,,,,,,,,,,,,,,,,,,,,,,,,,,,,,,,,,,,Dec02Silent3,124,2022_Dec_02_1549,ProdSingRedoBetween,2021.2.3,59.92110787
75,0,75,0,,,,,,,,,,,,,,,,,,,,,,,,,,371.2383649,None,balance,48,76,silent,blue,369.2272362,None,None,369.2272362,None,,,,,,,,,,,,,,,,,,,,,,,,,,,,,,,,,,,Dec02Silent3,124,2022_Dec_02_1549,ProdSingRedoBetween,2021.2.3,59.92110787
76,0,76,0,,,,,,,,,,,,,,,,,,,,,,,,,,373.7575941,None,payment,73,77,silent,red,371.7435552,None,None,371.7435552,None,,,,,,,,,,,,,,,,,,,,,,,,,,,,,,,,,,,Dec02Silent3,124,2022_Dec_02_1549,ProdSingRedoBetween,2021.2.3,59.92110787
77,0,77,0,,,,,,,,,,,,,,,,,,,,,,,,,,376.2600414,None,provision,55,78,silent,blue,374.2605466,None,None,374.2605466,None,,,,,,,,,,,,,,,,,,,,,,,,,,,,,,,,,,,Dec02Silent3,124,2022_Dec_02_1549,ProdSingRedoBetween,2021.2.3,59.92110787
78,0,78,0,,,,,,,,,,,,,,,,,,,,,,,,,,378.7791673,None,figure,22,79,silent,yellow,376.7685153,None,None,376.7685153,None,,,,,,,,,,,,,,,,,,,,,,,,,,,,,,,,,,,Dec02Silent3,124,2022_Dec_02_1549,ProdSingRedoBetween,2021.2.3,59.92110787
79,0,79,0,,,,,,,,,,,,,,,,,,,,,,,,,,381.2816334,None,public,88,80,silent,red,379.2796509,None,None,379.2796509,None,,,,,,,,,,,,,,,,,,,,,,,,,,,,,,,,,,,Dec02Silent3,124,2022_Dec_02_1549,ProdSingRedoBetween,2021.2.3,59.92110787
80,0,80,0,,,,,,,,,,,,,,,,,,,,,,,,,,383.7842049,None,appearance,86,81,silent,red,381.783948,None,None,381.783948,None,,,,,,,,,,,,,,,,,,,,,,,,,,,,,,,,,,,Dec02Silent3,124,2022_Dec_02_1549,ProdSingRedoBetween,2021.2.3,59.92110787
81,0,81,0,,,,,,,,,,,,,,,,,,,,,,,,,,386.3033354,None,shear,82,82,silent,red,384.2939876,None,None,384.2939876,None,,,,,,,,,,,,,,,,,,,,,,,,,,,,,,,,,,,Dec02Silent3,124,2022_Dec_02_1549,ProdSingRedoBetween,2021.2.3,59.92110787
82,0,82,0,,,,,,,,,,,,,,,,,,,,,,,,,,388.8225068,None,history,27,83,silent,yellow,386.8197584,None,None,386.8197584,None,,,,,,,,,,,,,,,,,,,,,,,,,,,,,,,,,,,Dec02Silent3,124,2022_Dec_02_1549,ProdSingRedoBetween,2021.2.3,59.92110787
83,0,83,0,,,,,,,,,,,,,,,,,,,,,,,,,,391.3417561,None,level,70,84,silent,red,389.3324616,None,None,389.3324616,None,,,,,,,,,,,,,,,,,,,,,,,,,,,,,,,,,,,Dec02Silent3,124,2022_Dec_02_1549,ProdSingRedoBetween,2021.2.3,59.92110787
84,0,84,0,,,,,,,,,,,,,,,,,,,,,,,,,,393.8609608,None,split,42,85,silent,blue,391.84887,None,None,391.84887,None,,,,,,,,,,,,,,,,,,,,,,,,,,,,,,,,,,,Dec02Silent3,124,2022_Dec_02_1549,ProdSingRedoBetween,2021.2.3,59.92110787
85,0,85,0,,,,,,,,,,,,,,,,,,,,,,,,,,396.3635213,None,relation,58,86,silent,blue,394.3615767,None,None,394.3615767,None,,,,,,,,,,,,,,,,,,,,,,,,,,,,,,,,,,,Dec02Silent3,124,2022_Dec_02_1549,ProdSingRedoBetween,2021.2.3,59.92110787
86,0,86,0,,,,,,,,,,,,,,,,,,,,,,,,,,398.8825468,None,charter,89,87,silent,red,396.8709045,None,None,396.8709045,None,,,,,,,,,,,,,,,,,,,,,,,,,,,,,,,,,,,Dec02Silent3,124,2022_Dec_02_1549,ProdSingRedoBetween,2021.2.3,59.92110787
87,0,87,0,,,,,,,,,,,,,,,,,,,,,,,,,,401.401912,None,subject,4,88,silent,yellow,399.3898941,None,None,399.3898941,None,,,,,,,,,,,,,,,,,,,,,,,,,,,,,,,,,,,Dec02Silent3,124,2022_Dec_02_1549,ProdSingRedoBetween,2021.2.3,59.92110787
88,0,88,0,,,,,,,,,,,,,,,,,,,,,,,,,,403.9210027,None,still,13,89,silent,yellow,401.9053874,None,None,401.9053874,None,,,,,,,,,,,,,,,,,,,,,,,,,,,,,,,,,,,Dec02Silent3,124,2022_Dec_02_1549,ProdSingRedoBetween,2021.2.3,59.92110787
89,0,89,0,,,,,,,,,,,,,,,,,,,,,,,,,,406.423529,None,short,75,90,silent,red,404.4241683,None,None,404.4241683,None,,,,,,,,,,,,,,,,,,,,,,,,,,,,,,,,,,,Dec02Silent3,124,2022_Dec_02_1549,ProdSingRedoBetween,2021.2.3,59.92110787
,,,,,,,,,,,,,,,,,,,,,,,,,,,,,,,,,,,,,,,,,406.9243373,None,k,61.3419567,406.9243373,None,,,,,,,,,,,,,,,,,,,,,,,,,,,,,Dec02Silent3,124,2022_Dec_02_1549,ProdSingRedoBetween,2021.2.3,59.92110787
,,,,0,0,0,0,,,,,,,,,,,,,,,,,,,,,,480.3352932,None,,,,,,,,,,,,,,,,,contract,90,1,silent,new,null,468.8055477,None,468.8055477,None,2,6.8684324,468.8055477,None,6.8684324,475.6981437,None,476.2162802,None,476.2162802,None,r,4.097801,476.2162802,None,4.097801,,,Dec02Silent3,124,2022_Dec_02_1549,ProdSingRedoBetween,2021.2.3,59.92110787
,,,,1,0,1,0,,,,,,,,,,,,,,,,,,,,,,485.4023694,None,,,,,,,,,,,,,,,,,owner,35,2,silent,old,blue,480.8639639,None,480.8639639,None,4,3.0420049,480.8639639,None,3.0420049,483.9387132,None,484.4560562,None,484.4560562,None,f,0.9298929,484.4560562,None,0.9298929,,,Dec02Silent3,124,2022_Dec_02_1549,ProdSingRedoBetween,2021.2.3,59.92110787
,,,,2,0,2,0,,,,,,,,,,,,,,,,,,,,,,490.3737971,None,,,,,,,,,,,,,,,,,subject,4,3,silent,old,yellow,485.9138758,None,485.9138758,None,1,1.9040585,485.9138758,None,1.9040585,487.8445385,None,488.3661167,None,488.3661167,None,n,1.987847,488.3661167,None,1.987847,,,Dec02Silent3,124,2022_Dec_02_1549,ProdSingRedoBetween,2021.2.3,59.92110787
,,,,3,0,3,0,,,,,,,,,,,,,,,,,,,,,,495.5972152,None,,,,,,,,,,,,,,,,,nature,175,4,silent,new,null,490.8777292,None,490.8777292,None,6,2.6362051,490.8777292,None,2.6362051,493.5480709,None,494.0611264,None,494.0611264,None,r,1.5167424,494.0611264,None,1.5167424,,,Dec02Silent3,124,2022_Dec_02_1549,ProdSingRedoBetween,2021.2.3,59.92110787
,,,,4,0,4,0,,,,,,,,,,,,,,,,,,,,,,501.0847002,None,,,,,,,,,,,,,,,,,grade,120,5,silent,new,null,496.1051419,None,496.1051419,None,1,3.248958,496.1051419,None,3.248958,499.3869651,None,499.9079662,None,499.9079662,None,n,1.1579553,499.9079662,None,1.1579553,,,Dec02Silent3,124,2022_Dec_02_1549,ProdSingRedoBetween,2021.2.3,59.92110787
,,,,5,0,5,0,,,,,,,,,,,,,,,,,,,,,,506.523371,None,,,,,,,,,,,,,,,,,career,62,6,silent,old,red,501.5938182,None,501.5938182,None,4,2.7842389,501.5938182,None,2.7842389,504.4171337,None,504.9248787,None,504.9248787,None,f,1.5810557,504.9248787,None,1.5810557,,,Dec02Silent3,124,2022_Dec_02_1549,ProdSingRedoBetween,2021.2.3,59.92110787
,,,,6,0,6,0,,,,,,,,,,,,,,,,,,,,,,510.2962421,None,,,,,,,,,,,,,,,,,expansion,76,7,silent,old,red,507.0271632,None,507.0271632,None,1,1.4628428,507.0271632,None,1.4628428,508.5147796,None,509.0260919,None,509.0260919,None,n,1.2400302,509.0260919,None,1.2400302,,,Dec02Silent3,124,2022_Dec_02_1549,ProdSingRedoBetween,2021.2.3,59.92110787
,,,,7,0,7,0,,,,,,,,,,,,,,,,,,,,,,513.8994758,None,,,,,,,,,,,,,,,,,company,67,8,silent,old,red,510.8200291,None,510.8200291,None,6,1.5740184,510.8200291,None,1.5740184,512.420126,None,512.9336198,None,512.9336198,None,r,0.948361,512.9336198,None,0.948361,,,Dec02Silent3,124,2022_Dec_02_1549,ProdSingRedoBetween,2021.2.3,59.92110787
,,,,8,0,8,0,,,,,,,,,,,,,,,,,,,,,,517.7680831,None,,,,,,,,,,,,,,,,,material,115,9,silent,new,null,514.4170637,None,514.4170637,None,1,1.4008923,514.4170637,None,1.4008923,515.8393534,None,516.350049,None,516.350049,None,n,1.3958512,516.350049,None,1.3958512,,,Dec02Silent3,124,2022_Dec_02_1549,ProdSingRedoBetween,2021.2.3,59.92110787
,,,,9,0,9,0,,,,,,,,,,,,,,,,,,,,,,522.9899827,None,,,,,,,,,,,,,,,,,guide,9,10,silent,old,yellow,518.2762344,None,518.2762344,None,2,2.085791,518.2762344,None,2.085791,520.3905212,None,520.9105908,None,520.9105908,None,n,2.0513665,520.9105908,None,2.0513665,,,Dec02Silent3,124,2022_Dec_02_1549,ProdSingRedoBetween,2021.2.3,59.92110787
,,,,10,0,10,0,,,,,,,,,,,,,,,,,,,,,,527.3442001,None,,,,,,,,,,,,,,,,,union,69,11,silent,old,red,523.5007361,None,523.5007361,None,5,2.1172455,523.5007361,None,2.1172455,525.6475771,None,526.1634513,None,526.1634513,None,f,1.1585133,526.1634513,None,1.1585133,,,Dec02Silent3,124,2022_Dec_02_1549,ProdSingRedoBetween,2021.2.3,59.92110787
,,,,11,0,11,0,,,,,,,,,,,,,,,,,,,,,,532.3827043,None,,,,,,,,,,,,,,,,,produce,141,12,silent,new,null,527.8475222,None,527.8475222,None,2,2.7943879,527.8475222,None,2.7943879,530.6655573,None,531.1733355,None,531.1733355,None,n,1.1885817,531.1733355,None,1.1885817,,,Dec02Silent3,124,2022_Dec_02_1549,ProdSingRedoBetween,2021.2.3,59.92110787
,,,,12,0,12,0,,,,,,,,,,,,,,,,,,,,,,535.8720138,None,,,,,,,,,,,,,,,,,novel,85,13,silent,old,red,532.8914188,None,532.8914188,None,1,1.4065304,532.8914188,None,1.4065304,534.3219412,None,534.8351917,None,534.8351917,None,n,1.0067611,534.8351917,None,1.0067611,,,Dec02Silent3,124,2022_Dec_02_1549,ProdSingRedoBetween,2021.2.3,59.92110787
,,,,13,0,13,0,,,,,,,,,,,,,,,,,,,,,,539.5064612,None,,,,,,,,,,,,,,,,,thick,95,14,silent,new,null,536.3968443,None,536.3968443,None,1,1.4053637,536.3968443,None,1.4053637,537.8335854,None,538.3437371,None,538.3437371,None,n,1.1381823,538.3437371,None,1.1381823,,,Dec02Silent3,124,2022_Dec_02_1549,ProdSingRedoBetween,2021.2.3,59.92110787
,,,,14,0,14,0,,,,,,,,,,,,,,,,,,,,,,543.5437971,None,,,,,,,,,,,,,,,,,blind,25,15,silent,old,yellow,540.0170097,None,540.0170097,None,3,1.8248248,540.0170097,None,1.8248248,541.8606782,None,542.377654,None,542.377654,None,f,1.1362061,542.377654,None,1.1362061,,,Dec02Silent3,124,2022_Dec_02_1549,ProdSingRedoBetween,2021.2.3,59.92110787
,,,,15,0,15,0,,,,,,,,,,,,,,,,,,,,,,547.2141473,None,,,,,,,,,,,,,,,,,clean,32,16,silent,old,blue,544.0529926,None,544.0529926,None,2,1.7488878,544.0529926,None,1.7488878,545.8309739,None,546.3361388,None,546.3361388,None,f,0.8498383,546.3361388,None,0.8498383,,,Dec02Silent3,124,2022_Dec_02_1549,ProdSingRedoBetween,2021.2.3,59.92110787
,,,,16,0,16,0,,,,,,,,,,,,,,,,,,,,,,551.9853847,None,,,,,,,,,,,,,,,,,short,75,17,silent,old,red,547.7169859,None,547.7169859,None,4,2.5730861,547.7169859,None,2.5730861,550.3271003,None,550.8390066,None,550.8390066,None,f,1.130924,550.8390066,None,1.130924,,,Dec02Silent3,124,2022_Dec_02_1549,ProdSingRedoBetween,2021.2.3,59.92110787
,,,,17,0,17,0,,,,,,,,,,,,,,,,,,,,,,556.5902068,None,,,,,,,,,,,,,,,,,degree,71,18,silent,old,red,552.4953303,None,552.4953303,None,5,2.9148086,552.4953303,None,2.9148086,555.4464608,None,555.9599705,None,555.9599705,None,f,0.6019576,555.9599705,None,0.6019576,,,Dec02Silent3,124,2022_Dec_02_1549,ProdSingRedoBetween,2021.2.3,59.92110787
,,,,18,0,18,0,,,,,,,,,,,,,,,,,,,,,,560.0269204,None,,,,,,,,,,,,,,,,,problem,162,19,silent,new,null,557.1010566,None,557.1010566,None,2,1.3968669,557.1010566,None,1.3968669,558.5286629,None,559.0427911,None,559.0427911,None,n,0.9671465,559.0427911,None,0.9671465,,,Dec02Silent3,124,2022_Dec_02_1549,ProdSingRedoBetween,2021.2.3,59.92110787
,,,,19,0,19,0,,,,,,,,,,,,,,,,,,,,,,564.8208166,None,,,,,,,,,,,,,,,,,harmony,154,20,silent,new,null,560.5435036,None,560.5435036,None,2,2.5147327,560.5435036,None,2.5147327,563.0935998,None,563.6014589,None,563.6014589,None,n,1.1926602,563.6014589,None,1.1926602,,,Dec02Silent3,124,2022_Dec_02_1549,ProdSingRedoBetween,2021.2.3,59.92110787
,,,,20,0,20,0,,,,,,,,,,,,,,,,,,,,,,568.685373,None,,,,,,,,,,,,,,,,,search,29,21,silent,old,blue,565.3440964,None,565.3440964,None,5,1.8261076,565.3440964,None,1.8261076,567.2084939,None,567.7201957,None,567.7201957,None,f,0.9456176,567.7201957,None,0.9456176,,,Dec02Silent3,124,2022_Dec_02_1549,ProdSingRedoBetween,2021.2.3,59.92110787
,,,,21,0,21,0,,,,,,,,,,,,,,,,,,,,,,572.4226427,None,,,,,,,,,,,,,,,,,point,143,22,silent,new,null,569.2034917,None,569.2034917,None,2,1.3986154,569.2034917,None,1.3986154,570.6281228,None,571.1438797,None,571.1438797,None,n,1.2500547,571.1438797,None,1.2500547,,,Dec02Silent3,124,2022_Dec_02_1549,ProdSingRedoBetween,2021.2.3,59.92110787
,,,,22,0,22,0,,,,,,,,,,,,,,,,,,,,,,577.56537,None,,,,,,,,,,,,,,,,,command,14,23,silent,old,yellow,572.9334899,None,572.9334899,None,4,2.3727425,572.9334899,None,2.3727425,575.3353542,None,575.8465893,None,575.8465893,None,f,1.699448,575.8465893,None,1.699448,,,Dec02Silent3,124,2022_Dec_02_1549,ProdSingRedoBetween,2021.2.3,59.92110787
,,,,23,0,23,0,,,,,,,,,,,,,,,,,,,,,,582.849736,None,,,,,,,,,,,,,,,,,provision,55,24,silent,old,blue,578.0922108,None,578.0922108,None,6,3.2297206,578.0922108,None,3.2297206,581.3514876,None,581.880132,None,581.880132,None,r,0.9538247,581.880132,None,0.9538247,,,Dec02Silent3,124,2022_Dec_02_1549,ProdSingRedoBetween,2021.2.3,59.92110787
,,,,24,0,24,0,,,,,,,,,,,,,,,,,,,,,,586.4033071,None,,,,,,,,,,,,,,,,,threat,104,25,silent,new,null,583.3574585,None,583.3574585,None,6,1.5644836,583.3574585,None,1.5644836,584.9548619,None,585.4760262,None,585.4760262,None,r,0.9098986,585.4760262,None,0.9098986,,,Dec02Silent3,124,2022_Dec_02_1549,ProdSingRedoBetween,2021.2.3,59.92110787
,,,,25,0,25,0,,,,,,,,,,,,,,,,,,,,,,590.9745077,None,,,,,,,,,,,,,,,,,suspect,24,26,silent,old,yellow,586.9130729,None,586.9130729,None,2,2.4809594,586.9130729,None,2.4809594,589.4239878,None,589.9347383,None,589.9347383,None,n,1.0192537,589.9347383,None,1.0192537,,,Dec02Silent3,124,2022_Dec_02_1549,ProdSingRedoBetween,2021.2.3,59.92110787
,,,,26,0,26,0,,,,,,,,,,,,,,,,,,,,,,594.3484308,None,,,,,,,,,,,,,,,,,trash,179,27,silent,new,null,591.4783699,None,591.4783699,None,1,1.611657,591.4783699,None,1.611657,593.1166028,None,593.6300385,None,593.6300385,None,n,0.6919488,593.6300385,None,0.6919488,,,Dec02Silent3,124,2022_Dec_02_1549,ProdSingRedoBetween,2021.2.3,59.92110787
,,,,27,0,27,0,,,,,,,,,,,,,,,,,,,,,,597.5644629,None,,,,,,,,,,,,,,,,,community,172,28,silent,new,null,594.8688693,None,594.8688693,None,2,1.453238,594.8688693,None,1.453238,596.360682,None,596.8688692,None,596.8688692,None,n,0.6769917,596.8688692,None,0.6769917,,,Dec02Silent3,124,2022_Dec_02_1549,ProdSingRedoBetween,2021.2.3,59.92110787
,,,,28,0,28,0,,,,,,,,,,,,,,,,,,,,,,600.8844445,None,,,,,,,,,,,,,,,,,split,42,29,silent,old,blue,598.0734483,None,598.0734483,None,3,1.5365548,598.0734483,None,1.5365548,599.6367215,None,600.1552137,None,600.1552137,None,n,0.7106608,600.1552137,None,0.7106608,,,Dec02Silent3,124,2022_Dec_02_1549,ProdSingRedoBetween,2021.2.3,59.92110787
,,,,29,0,29,0,,,,,,,,,,,,,,,,,,,,,,606.1895127,None,,,,,,,,,,,,,,,,,accident,156,30,silent,new,null,601.4014466,None,601.4014466,None,6,3.7444218,601.4014466,None,3.7444218,605.1738985,None,605.6894384,None,605.6894384,None,r,0.4805419,605.6894384,None,0.4805419,,,Dec02Silent3,124,2022_Dec_02_1549,ProdSingRedoBetween,2021.2.3,59.92110787
,,,,30,0,30,0,,,,,,,,,,,,,,,,,,,,,,609.2944929,None,,,,,,,,,,,,,,,,,charter,89,31,silent,old,red,606.7088832,None,606.7088832,None,5,1.4611311,606.7088832,None,1.4611311,608.1971203,None,608.7119421,None,608.7119421,None,r,0.5621527,608.7119421,None,0.5621527,,,Dec02Silent3,124,2022_Dec_02_1549,ProdSingRedoBetween,2021.2.3,59.92110787
,,,,31,0,31,0,,,,,,,,,,,,,,,,,,,,,,612.1157118,None,,,,,,,,,,,,,,,,,session,151,32,silent,new,null,609.8146493,None,609.8146493,None,2,1.2992758,609.8146493,None,1.2992758,611.145302,None,611.6452994,None,611.6452994,None,n,0.4368705,611.6452994,None,0.4368705,,,Dec02Silent3,124,2022_Dec_02_1549,ProdSingRedoBetween,2021.2.3,59.92110787
,,,,32,0,32,0,,,,,,,,,,,,,,,,,,,,,,614.9317948,None,,,,,,,,,,,,,,,,,business,122,33,silent,new,null,612.6365142,None,612.6365142,None,2,1.277411,612.6365142,None,1.277411,613.9345664,None,614.4480792,None,614.4480792,None,n,0.4658988,614.4480792,None,0.4658988,,,Dec02Silent3,124,2022_Dec_02_1549,ProdSingRedoBetween,2021.2.3,59.92110787
,,,,33,0,33,0,,,,,,,,,,,,,,,,,,,,,,617.8848416,None,,,,,,,,,,,,,,,,,relation,58,34,silent,old,blue,615.4441411,None,615.4441411,None,2,1.5897765,615.4441411,None,1.5897765,617.0527661,None,617.5736818,None,617.5736818,None,n,0.2923939,617.5736818,None,0.2923939,,,Dec02Silent3,124,2022_Dec_02_1549,ProdSingRedoBetween,2021.2.3,59.92110787
,,,,34,0,34,0,,,,,,,,,,,,,,,,,,,,,,621.738624,None,,,,,,,,,,,,,,,,,growth,129,35,silent,new,null,618.4016912,None,618.4016912,None,5,2.0962855,618.4016912,None,2.0962855,620.52571,None,621.0409984,None,621.0409984,None,f,0.6809423,621.0409984,None,0.6809423,,,Dec02Silent3,124,2022_Dec_02_1549,ProdSingRedoBetween,2021.2.3,59.92110787
,,,,35,0,35,0,,,,,,,,,,,,,,,,,,,,,,624.925112,None,,,,,,,,,,,,,,,,,music,170,36,silent,new,null,622.2484206,None,622.2484206,None,6,1.7935178,622.2484206,None,1.7935178,624.0588835,None,624.5627893,None,624.5627893,None,r,0.3351002,624.5627893,None,0.3351002,,,Dec02Silent3,124,2022_Dec_02_1549,ProdSingRedoBetween,2021.2.3,59.92110787
,,,,36,0,36,0,,,,,,,,,,,,,,,,,,,,,,628.5955212,None,,,,,,,,,,,,,,,,,still,13,37,silent,old,yellow,625.4329962,None,625.4329962,None,2,1.6969349,625.4329962,None,1.6969349,627.1605246,None,627.6688688,None,627.6688688,None,n,0.9090304,627.6688688,None,0.9090304,,,Dec02Silent3,124,2022_Dec_02_1549,ProdSingRedoBetween,2021.2.3,59.92110787
,,,,37,0,37,0,,,,,,,,,,,,,,,,,,,,,,632.0174536,None,,,,,,,,,,,,,,,,,title,99,38,silent,new,null,629.0958671,None,629.0958671,None,4,1.7062047,629.0958671,None,1.7062047,630.8327997,None,631.352133,None,631.352133,None,f,0.6419046,631.352133,None,0.6419046,,,Dec02Silent3,124,2022_Dec_02_1549,ProdSingRedoBetween,2021.2.3,59.92110787
,,,,38,0,38,0,,,,,,,,,,,,,,,,,,,,,,636.0196127,None,,,,,,,,,,,,,,,,,course,176,39,silent,new,null,632.5437341,None,632.5437341,None,6,2.6102282,632.5437341,None,2.6102282,635.1686567,None,635.6735605,None,635.6735605,None,r,0.3283463,635.6735605,None,0.3283463,,,Dec02Silent3,124,2022_Dec_02_1549,ProdSingRedoBetween,2021.2.3,59.92110787
,,,,39,0,39,0,,,,,,,,,,,,,,,,,,,,,,638.9237228,None,,,,,,,,,,,,,,,,,comedy,105,40,silent,new,null,636.5288861,None,636.5288861,None,1,1.4412436,636.5288861,None,1.4412436,637.9998421,None,638.5132361,None,638.5132361,None,n,0.3847466,638.5132361,None,0.3847466,,,Dec02Silent3,124,2022_Dec_02_1549,ProdSingRedoBetween,2021.2.3,59.92110787
,,,,40,0,40,0,,,,,,,,,,,,,,,,,,,,,,642.2090876,None,,,,,,,,,,,,,,,,,background,152,41,silent,new,null,639.4383258,None,639.4383258,None,6,1.9478264,639.4383258,None,1.9478264,641.4158771,None,641.9286519,None,641.9286519,None,r,0.2494133,641.9286519,None,0.2494133,,,Dec02Silent3,124,2022_Dec_02_1549,ProdSingRedoBetween,2021.2.3,59.92110787
,,,,41,0,41,0,,,,,,,,,,,,,,,,,,,,,,644.9971875,None,,,,,,,,,,,,,,,,,listen,10,42,silent,old,yellow,642.7232096,None,642.7232096,None,6,1.4627851,642.7232096,None,1.4627851,644.2136678,None,644.741625,None,644.741625,None,r,0.2363381,644.741625,None,0.2363381,,,Dec02Silent3,124,2022_Dec_02_1549,ProdSingRedoBetween,2021.2.3,59.92110787
,,,,42,0,42,0,,,,,,,,,,,,,,,,,,,,,,648.3653072,None,,,,,,,,,,,,,,,,,profession,132,43,silent,new,null,645.5196643,None,645.5196643,None,2,1.434461,645.5196643,None,1.434461,646.9922428,None,647.4986533,None,647.4986533,None,n,0.8473057,647.4986533,None,0.8473057,,,Dec02Silent3,124,2022_Dec_02_1549,ProdSingRedoBetween,2021.2.3,59.92110787
,,,,43,0,43,0,,,,,,,,,,,,,,,,,,,,,,652.5032894,None,,,,,,,,,,,,,,,,,candidate,20,44,silent,old,yellow,648.8771422,None,648.8771422,None,6,2.5248729,648.8771422,None,2.5248729,651.4234118,None,651.9425913,None,651.9425913,None,r,0.5314254,651.9425913,None,0.5314254,,,Dec02Silent3,124,2022_Dec_02_1549,ProdSingRedoBetween,2021.2.3,59.92110787
,,,,44,0,44,0,,,,,,,,,,,,,,,,,,,,,,655.7223395,None,,,,,,,,,,,,,,,,,alert,159,45,silent,new,null,653.0127508,None,653.0127508,None,3,1.5332277,653.0127508,None,1.5332277,654.5724293,None,655.0751673,None,655.0751673,None,n,0.630849,655.0751673,None,0.630849,,,Dec02Silent3,124,2022_Dec_02_1549,ProdSingRedoBetween,2021.2.3,59.92110787
,,,,45,0,45,0,,,,,,,,,,,,,,,,,,,,,,660.143364,None,,,,,,,,,,,,,,,,,force,168,46,silent,new,null,656.2388196,None,656.2388196,None,2,2.2833765,656.2388196,None,2.2833765,658.553942,None,659.0593838,None,659.0593838,None,n,1.0626207,659.0593838,None,1.0626207,,,Dec02Silent3,124,2022_Dec_02_1549,ProdSingRedoBetween,2021.2.3,59.92110787
,,,,46,0,46,0,,,,,,,,,,,,,,,,,,,,,,664.3979825,None,,,,,,,,,,,,,,,,,benefit,65,47,silent,old,red,660.6540633,None,660.6540633,None,4,2.5959653,660.6540633,None,2.5959653,663.2854143,None,663.7974826,None,663.7974826,None,f,0.5804273,663.7974826,None,0.5804273,,,Dec02Silent3,124,2022_Dec_02_1549,ProdSingRedoBetween,2021.2.3,59.92110787
,,,,47,0,47,0,,,,,,,,,,,,,,,,,,,,,,667.5841905,None,,,,,,,,,,,,,,,,,impact,96,48,silent,new,null,664.898514,None,664.898514,None,6,1.887467,664.898514,None,1.887467,666.8194166,None,667.3386268,None,667.3386268,None,r,0.2153862,667.3386268,None,0.2153862,,,Dec02Silent3,124,2022_Dec_02_1549,ProdSingRedoBetween,2021.2.3,59.92110787
,,,,48,0,48,0,,,,,,,,,,,,,,,,,,,,,,670.3887165,None,,,,,,,,,,,,,,,,,leader,112,49,silent,new,null,668.087935,None,668.087935,None,6,1.4260308,668.087935,None,1.4260308,669.5361771,None,670.046465,None,670.046465,None,r,0.3235243,670.046465,None,0.3235243,,,Dec02Silent3,124,2022_Dec_02_1549,ProdSingRedoBetween,2021.2.3,59.92110787
,,,,49,0,49,0,,,,,,,,,,,,,,,,,,,,,,674.1920751,None,,,,,,,,,,,,,,,,,entrance,15,50,silent,old,yellow,670.8918252,None,670.8918252,None,1,1.37418,670.8918252,None,1.37418,672.2890304,None,672.7940721,None,672.7940721,None,n,1.3759299,672.7940721,None,1.3759299,,,Dec02Silent3,124,2022_Dec_02_1549,ProdSingRedoBetween,2021.2.3,59.92110787
,,,,50,0,50,0,,,,,,,,,,,,,,,,,,,,,,677.327493,None,,,,,,,,,,,,,,,,,month,19,51,silent,old,yellow,674.7033943,None,674.7033943,None,6,1.898619,674.7033943,None,1.898619,676.6276461,None,677.1298823,None,677.1298823,None,r,0.1681198,677.1298823,None,0.1681198,,,Dec02Silent3,124,2022_Dec_02_1549,ProdSingRedoBetween,2021.2.3,59.92110787
,,,,51,0,51,0,,,,,,,,,,,,,,,,,,,,,,680.3137829,None,,,,,,,,,,,,,,,,,resistance,136,52,silent,new,null,677.8456489,None,677.8456489,None,6,1.820278,677.8456489,None,1.820278,679.6963789,None,680.1971711,None,680.1971711,None,r,0.1007635,680.1971711,None,0.1007635,,,Dec02Silent3,124,2022_Dec_02_1549,ProdSingRedoBetween,2021.2.3,59.92110787
,,,,52,0,52,0,,,,,,,,,,,,,,,,,,,,,,683.1882565,None,,,,,,,,,,,,,,,,,population,40,53,silent,old,blue,680.8231017,None,680.8231017,None,4,1.5791178,680.8231017,None,1.5791178,682.4403526,None,682.9515561,None,682.9515561,None,f,0.2028263,682.9515561,None,0.2028263,,,Dec02Silent3,124,2022_Dec_02_1549,ProdSingRedoBetween,2021.2.3,59.92110787
,,,,53,0,53,0,,,,,,,,,,,,,,,,,,,,,,686.1530587,None,,,,,,,,,,,,,,,,,season,135,54,silent,new,null,683.7154341,None,683.7154341,None,3,1.6385193,683.7154341,None,1.6385193,685.3702256,None,685.8734688,None,685.8734688,None,n,0.248519,685.8734688,None,0.248519,,,Dec02Silent3,124,2022_Dec_02_1549,ProdSingRedoBetween,2021.2.3,59.92110787
,,,,54,0,54,0,,,,,,,,,,,,,,,,,,,,,,689.1062979,None,,,,,,,,,,,,,,,,,agreement,140,55,silent,new,null,686.655091,None,686.655091,None,4,1.7468082,686.655091,None,1.7468082,688.4241865,None,688.9454105,None,688.9454105,None,f,0.144796,688.9454105,None,0.144796,,,Dec02Silent3,124,2022_Dec_02_1549,ProdSingRedoBetween,2021.2.3,59.92110787
,,,,55,0,55,0,,,,,,,,,,,,,,,,,,,,,,691.3415669,None,,,,,,,,,,,,,,,,,heavy,18,56,silent,old,yellow,689.6206649,None,689.6206649,None,1,1.0853683,689.6206649,None,1.0853683,690.7322711,None,691.2468569,None,691.2468569,None,n,0.075139,691.2468569,None,0.075139,,,Dec02Silent3,124,2022_Dec_02_1549,ProdSingRedoBetween,2021.2.3,59.92110787
,,,,56,0,56,0,,,,,,,,,,,,,,,,,,,,,,693.7966841,None,,,,,,,,,,,,,,,,,oxygen,113,57,silent,new,null,691.8482236,None,691.8482236,None,1,1.2177185,691.8482236,None,1.2177185,693.0941971,None,693.596674,None,693.596674,None,n,0.1814044,693.596674,None,0.1814044,,,Dec02Silent3,124,2022_Dec_02_1549,ProdSingRedoBetween,2021.2.3,59.92110787
,,,,57,0,57,0,,,,,,,,,,,,,,,,,,,,,,696.4631205,None,,,,,,,,,,,,,,,,,cover,57,58,silent,old,blue,694.3189801,None,694.3189801,None,2,1.4270609,694.3189801,None,1.4270609,695.767218,None,696.279899,None,696.279899,None,n,0.1540338,696.279899,None,0.1540338,,,Dec02Silent3,124,2022_Dec_02_1549,ProdSingRedoBetween,2021.2.3,59.92110787
,,,,58,0,58,0,,,,,,,,,,,,,,,,,,,,,,699.9356298,None,,,,,,,,,,,,,,,,,mayor,123,59,silent,new,null,696.9638297,None,696.9638297,None,5,1.6303544,696.9638297,None,1.6303544,698.6258243,None,699.1354363,None,699.1354363,None,f,0.7706765,699.1354363,None,0.7706765,,,Dec02Silent3,124,2022_Dec_02_1549,ProdSingRedoBetween,2021.2.3,59.92110787
,,,,59,0,59,0,,,,,,,,,,,,,,,,,,,,,,703.8073454,None,,,,,,,,,,,,,,,,,error,26,60,silent,old,yellow,700.4557501,None,700.4557501,None,6,2.2503708,700.4557501,None,2.2503708,702.7467073,None,703.2543226,None,703.2543226,None,r,0.5316972,703.2543226,None,0.5316972,,,Dec02Silent3,124,2022_Dec_02_1549,ProdSingRedoBetween,2021.2.3,59.92110787
,,,,60,0,60,0,,,,,,,,,,,,,,,,,,,,,,706.376642,None,,,,,,,,,,,,,,,,,fight,148,61,silent,new,null,704.3336576,None,704.3336576,None,2,1.3564149,704.3336576,None,1.3564149,705.7130473,None,706.2230318,None,706.2230318,None,n,0.1311392,706.2230318,None,0.1311392,,,Dec02Silent3,124,2022_Dec_02_1549,ProdSingRedoBetween,2021.2.3,59.92110787
,,,,61,0,61,0,,,,,,,,,,,,,,,,,,,,,,709.042439,None,,,,,,,,,,,,,,,,,health,61,62,silent,old,red,706.8975992,None,706.8975992,None,6,1.5764393,706.8975992,None,1.5764393,708.4918128,None,709.0014928,None,709.0014928,None,r,0.0245578,709.0014928,None,0.0245578,,,Dec02Silent3,124,2022_Dec_02_1549,ProdSingRedoBetween,2021.2.3,59.92110787
,,,,62,0,62,0,,,,,,,,,,,,,,,,,,,,,,711.6952481,None,,,,,,,,,,,,,,,,,addition,74,63,silent,old,red,709.5517357,None,709.5517357,None,6,1.5222676,709.5517357,None,1.5222676,711.0967541,None,711.6118875,None,711.6118875,None,r,0.0541525,711.6118875,None,0.0541525,,,Dec02Silent3,124,2022_Dec_02_1549,ProdSingRedoBetween,2021.2.3,59.92110787
,,,,63,0,63,0,,,,,,,,,,,,,,,,,,,,,,714.5313016,None,,,,,,,,,,,,,,,,,figure,22,64,silent,old,yellow,712.2053329,None,712.2053329,None,2,1.5328129,712.2053329,None,1.5328129,713.773412,None,714.2846247,None,714.2846247,None,n,0.229326,714.2846247,None,0.229326,,,Dec02Silent3,124,2022_Dec_02_1549,ProdSingRedoBetween,2021.2.3,59.92110787
,,,,64,0,64,0,,,,,,,,,,,,,,,,,,,,,,717.033934,None,,,,,,,,,,,,,,,,,raise,169,65,silent,new,null,715.0471959,None,715.0471959,None,1,1.4027965,715.0471959,None,1.4027965,716.4714834,None,716.9919289,None,716.9919289,None,n,0.0179854,716.9919289,None,0.0179854,,,Dec02Silent3,124,2022_Dec_02_1549,ProdSingRedoBetween,2021.2.3,59.92110787
,,,,65,0,65,0,,,,,,,,,,,,,,,,,,,,,,719.0841114,None,,,,,,,,,,,,,,,,,sunset,146,66,silent,new,null,717.5481272,None,717.5481272,None,1,0.8938699,717.5481272,None,0.8938699,718.4718407,None,718.9950807,None,718.9950807,None,n,0.0554931,718.9950807,None,0.0554931,,,Dec02Silent3,124,2022_Dec_02_1549,ProdSingRedoBetween,2021.2.3,59.92110787
,,,,66,0,66,0,,,,,,,,,,,,,,,,,,,,,,722.1556872,None,,,,,,,,,,,,,,,,,display,155,67,silent,new,null,719.5900179,None,719.5900179,None,4,1.8519643,719.5900179,None,1.8519643,721.4731917,None,721.9745429,None,721.9745429,None,f,0.1555437,721.9745429,None,0.1555437,,,Dec02Silent3,124,2022_Dec_02_1549,ProdSingRedoBetween,2021.2.3,59.92110787
,,,,67,0,67,0,,,,,,,,,,,,,,,,,,,,,,725.4953458,None,,,,,,,,,,,,,,,,,device,94,68,silent,new,null,722.670538,None,722.670538,None,1,1.2994565,722.670538,None,1.2994565,723.9921099,None,724.4963474,None,724.4963474,None,n,0.9776454,724.4963474,None,0.9776454,,,Dec02Silent3,124,2022_Dec_02_1549,ProdSingRedoBetween,2021.2.3,59.92110787
,,,,68,0,68,0,,,,,,,,,,,,,,,,,,,,,,728.378455,None,,,,,,,,,,,,,,,,,salary,139,69,silent,new,null,726.0236583,None,726.0236583,None,3,1.746349,726.0236583,None,1.746349,727.796861,None,728.3156657,None,728.3156657,None,n,0.0462894,728.3156657,None,0.0462894,,,Dec02Silent3,124,2022_Dec_02_1549,ProdSingRedoBetween,2021.2.3,59.92110787
,,,,69,0,69,0,,,,,,,,,,,,,,,,,,,,,,731.7652325,None,,,,,,,,,,,,,,,,,ground,80,70,silent,old,red,728.8868475,None,728.8868475,None,5,2.2271361,728.8868475,None,2.2271361,731.1347499,None,731.6566068,None,731.6566068,None,f,0.0813582,731.6566068,None,0.0813582,,,Dec02Silent3,124,2022_Dec_02_1549,ProdSingRedoBetween,2021.2.3,59.92110787
,,,,70,0,70,0,,,,,,,,,,,,,,,,,,,,,,734.8849325,None,,,,,,,,,,,,,,,,,election,43,71,silent,old,blue,732.2802291,None,732.2802291,None,6,1.7697698,732.2802291,None,1.7697698,734.0720013,None,734.5848663,None,734.5848663,None,r,0.2732078,734.5848663,None,0.2732078,,,Dec02Silent3,124,2022_Dec_02_1549,ProdSingRedoBetween,2021.2.3,59.92110787
,,,,71,0,71,0,,,,,,,,,,,,,,,,,,,,,,737.6552417,None,,,,,,,,,,,,,,,,,victory,66,72,silent,old,red,735.4026052,None,735.4026052,None,6,1.5833907,735.4026052,None,1.5833907,737.0111627,None,737.5210933,None,737.5210933,None,r,0.1129607,737.5210933,None,0.1129607,,,Dec02Silent3,124,2022_Dec_02_1549,ProdSingRedoBetween,2021.2.3,59.92110787
,,,,72,0,72,0,,,,,,,,,,,,,,,,,,,,,,740.744125,None,,,,,,,,,,,,,,,,,author,118,73,silent,new,null,738.1707254,None,738.1707254,None,3,1.8553079,738.1707254,None,1.8553079,740.0631707,None,740.5763591,None,740.5763591,None,n,0.1377745,740.5763591,None,0.1377745,,,Dec02Silent3,124,2022_Dec_02_1549,ProdSingRedoBetween,2021.2.3,59.92110787
,,,,73,0,73,0,,,,,,,,,,,,,,,,,,,,,,743.1985184,None,,,,,,,,,,,,,,,,,center,92,74,silent,new,null,741.2636127,None,741.2636127,None,1,1.3144013,741.2636127,None,1.3144013,742.6094501,None,743.117933,None,743.117933,None,n,0.052223,743.117933,None,0.052223,,,Dec02Silent3,124,2022_Dec_02_1549,ProdSingRedoBetween,2021.2.3,59.92110787
,,,,74,0,74,0,,,,,,,,,,,,,,,,,,,,,,745.8960586,None,,,,,,,,,,,,,,,,,level,70,75,silent,old,red,743.7228452,None,743.7228452,None,1,1.0231654,743.7228452,None,1.0231654,744.7627875,None,745.270104,None,745.270104,None,n,0.5958957,745.270104,None,0.5958957,,,Dec02Silent3,124,2022_Dec_02_1549,ProdSingRedoBetween,2021.2.3,59.92110787
,,,,75,0,75,0,,,,,,,,,,,,,,,,,,,,,,748.1649585,None,,,,,,,,,,,,,,,,,working,114,76,silent,new,null,746.4057927,None,746.4057927,None,1,1.1001925,746.4057927,None,1.1001925,747.5326152,None,748.0482841,None,748.0482841,None,n,0.0897516,748.0482841,None,0.0897516,,,Dec02Silent3,124,2022_Dec_02_1549,ProdSingRedoBetween,2021.2.3,59.92110787
,,,,76,0,76,0,,,,,,,,,,,,,,,,,,,,,,750.6008107,None,,,,,,,,,,,,,,,,,defeat,34,77,silent,old,blue,748.6688676,None,748.6688676,None,6,1.3012539,748.6688676,None,1.3012539,750.0011807,None,750.5054373,None,750.5054373,None,r,0.0724819,750.5054373,None,0.0724819,,,Dec02Silent3,124,2022_Dec_02_1549,ProdSingRedoBetween,2021.2.3,59.92110787
,,,,77,0,77,0,,,,,,,,,,,,,,,,,,,,,,753.2032927,None,,,,,,,,,,,,,,,,,column,111,78,silent,new,null,751.1106055,None,751.1106055,None,2,1.0435278,751.1106055,None,1.0435278,752.1791522,None,752.687421,None,752.687421,None,n,0.4906652,752.687421,None,0.4906652,,,Dec02Silent3,124,2022_Dec_02_1549,ProdSingRedoBetween,2021.2.3,59.92110787
,,,,78,0,78,0,,,,,,,,,,,,,,,,,,,,,,755.5888348,None,,,,,,,,,,,,,,,,,strength,130,79,silent,new,null,753.7133279,None,753.7133279,None,5,1.1607185,753.7133279,None,1.1607185,754.9076998,None,755.4253756,None,755.4253756,None,f,0.1448255,755.4253756,None,0.1448255,,,Dec02Silent3,124,2022_Dec_02_1549,ProdSingRedoBetween,2021.2.3,59.92110787
,,,,79,0,79,0,,,,,,,,,,,,,,,,,,,,,,758.0915656,None,,,,,,,,,,,,,,,,,payment,73,80,silent,old,red,756.103371,None,756.103371,None,3,1.2666583,756.103371,None,1.2666583,757.3957513,None,757.9081671,None,757.9081671,None,n,0.1658493,757.9081671,None,0.1658493,,,Dec02Silent3,124,2022_Dec_02_1549,ProdSingRedoBetween,2021.2.3,59.92110787
,,,,80,0,80,0,,,,,,,,,,,,,,,,,,,,,,760.6941995,None,,,,,,,,,,,,,,,,,answer,174,81,silent,new,null,758.5950061,None,758.5950061,None,6,1.2309787,758.5950061,None,1.2309787,759.8469521,None,760.3684332,None,760.3684332,None,r,0.3055553,760.3684332,None,0.3055553,,,Dec02Silent3,124,2022_Dec_02_1549,ProdSingRedoBetween,2021.2.3,59.92110787
,,,,81,0,81,0,,,,,,,,,,,,,,,,,,,,,,763.5970885,None,,,,,,,,,,,,,,,,,trend,52,82,silent,old,blue,761.2039933,None,761.2039933,None,1,1.1421923,761.2039933,None,1.1421923,762.3710959,None,762.8868994,None,762.8868994,None,n,0.683031,762.8868994,None,0.683031,,,Dec02Silent3,124,2022_Dec_02_1549,ProdSingRedoBetween,2021.2.3,59.92110787
,,,,82,0,82,0,,,,,,,,,,,,,,,,,,,,,,766.4332275,None,,,,,,,,,,,,,,,,,store,77,83,silent,old,red,764.108602,None,764.108602,None,4,1.6372987,764.108602,None,1.6372987,765.7659508,None,766.2710775,None,766.2710775,None,f,0.1389305,766.2710775,None,0.1389305,,,Dec02Silent3,124,2022_Dec_02_1549,ProdSingRedoBetween,2021.2.3,59.92110787
,,,,83,0,83,0,,,,,,,,,,,,,,,,,,,,,,768.9690972,None,,,,,,,,,,,,,,,,,weather,46,84,silent,old,blue,766.9439209,None,766.9439209,None,1,1.1780881,766.9439209,None,1.1780881,768.1526072,None,768.6553554,None,768.6553554,None,n,0.2906809,768.6553554,None,0.2906809,,,Dec02Silent3,124,2022_Dec_02_1549,ProdSingRedoBetween,2021.2.3,59.92110787
,,,,84,0,84,0,,,,,,,,,,,,,,,,,,,,,,771.52168,None,,,,,,,,,,,,,,,,,staff,153,85,silent,new,null,769.4856618,None,769.4856618,None,2,1.3644625,769.4856618,None,1.3644625,770.8771091,None,771.3924154,None,771.3924154,None,n,0.1136544,771.3924154,None,0.1136544,,,Dec02Silent3,124,2022_Dec_02_1549,ProdSingRedoBetween,2021.2.3,59.92110787
,,,,85,0,85,0,,,,,,,,,,,,,,,,,,,,,,774.3596097,None,,,,,,,,,,,,,,,,,second,160,86,silent,new,null,772.0232264,None,772.0232264,None,3,1.6030773,772.0232264,None,1.6030773,773.665548,None,774.1775264,None,774.1775264,None,f,0.1606225,774.1775264,None,0.1606225,,,Dec02Silent3,124,2022_Dec_02_1549,ProdSingRedoBetween,2021.2.3,59.92110787
,,,,86,0,86,0,,,,,,,,,,,,,,,,,,,,,,777.6455813,None,,,,,,,,,,,,,,,,,write,78,87,silent,old,red,774.8749051,None,774.8749051,None,5,2.0232476,774.8749051,None,2.0232476,776.9335278,None,777.4459856,None,777.4459856,None,f,0.172022,777.4459856,None,0.172022,,,Dec02Silent3,124,2022_Dec_02_1549,ProdSingRedoBetween,2021.2.3,59.92110787
,,,,87,0,87,0,,,,,,,,,,,,,,,,,,,,,,780.1803134,None,,,,,,,,,,,,,,,,,touch,12,88,silent,old,yellow,778.163515,None,778.163515,None,2,1.1984844,778.163515,None,1.1984844,779.3794412,None,779.8799614,None,779.8799614,None,n,0.2740137,779.8799614,None,0.2740137,,,Dec02Silent3,124,2022_Dec_02_1549,ProdSingRedoBetween,2021.2.3,59.92110787
,,,,88,0,88,0,,,,,,,,,,,,,,,,,,,,,,782.6661065,None,,,,,,,,,,,,,,,,,order,16,89,silent,old,yellow,780.6890868,None,780.6890868,None,6,1.3291476,780.6890868,None,1.3291476,782.0584631,None,782.566131,None,782.566131,None,r,0.083816,782.566131,None,0.083816,,,Dec02Silent3,124,2022_Dec_02_1549,ProdSingRedoBetween,2021.2.3,59.92110787
,,,,89,0,89,0,,,,,,,,,,,,,,,,,,,,,,785.0017795,None,,,,,,,,,,,,,,,,,native,54,90,silent,old,blue,783.1759708,None,783.1759708,None,6,1.1379721,783.1759708,None,1.1379721,784.3372338,None,784.8526944,None,784.8526944,None,r,0.1333071,784.8526944,None,0.1333071,,,Dec02Silent3,124,2022_Dec_02_1549,ProdSingRedoBetween,2021.2.3,59.92110787
,,,,90,0,90,0,,,,,,,,,,,,,,,,,,,,,,787.1704087,None,,,,,,,,,,,,,,,,,committee,79,91,silent,old,red,785.51104,None,785.51104,None,6,0.9789971,785.51104,None,0.9789971,786.5217153,None,787.0373636,None,787.0373636,None,r,0.1166632,787.0373636,None,0.1166632,,,Dec02Silent3,124,2022_Dec_02_1549,ProdSingRedoBetween,2021.2.3,59.92110787
,,,,91,0,91,0,,,,,,,,,,,,,,,,,,,,,,789.3227652,None,,,,,,,,,,,,,,,,,danger,127,92,silent,new,null,787.6738634,None,787.6738634,None,6,0.9682232,787.6738634,None,0.9682232,788.6751323,None,789.1893975,None,789.1893975,None,r,0.1086491,789.1893975,None,0.1086491,,,Dec02Silent3,124,2022_Dec_02_1549,ProdSingRedoBetween,2021.2.3,59.92110787
,,,,92,0,92,0,,,,,,,,,,,,,,,,,,,,,,791.9268319,None,,,,,,,,,,,,,,,,,medicine,106,93,silent,new,null,789.8356812,None,789.8356812,None,1,1.4464215,789.8356812,None,1.4464215,791.3134097,None,791.8340058,None,791.8340058,None,n,0.0720949,791.8340058,None,0.0720949,,,Dec02Silent3,124,2022_Dec_02_1549,ProdSingRedoBetween,2021.2.3,59.92110787
,,,,93,0,93,0,,,,,,,,,,,,,,,,,,,,,,794.2962516,None,,,,,,,,,,,,,,,,,signal,116,94,silent,new,null,792.4386005,None,792.4386005,None,2,0.9954257,792.4386005,None,0.9954257,793.4624558,None,793.9812008,None,793.9812008,None,n,0.2929262,793.9812008,None,0.2929262,,,Dec02Silent3,124,2022_Dec_02_1549,ProdSingRedoBetween,2021.2.3,59.92110787
,,,,94,0,94,0,,,,,,,,,,,,,,,,,,,,,,796.4131741,None,,,,,,,,,,,,,,,,,front,150,95,silent,new,null,794.8183486,None,794.8183486,None,2,0.7676975,794.8183486,None,0.7676975,795.6146992,None,796.129736,None,796.129736,None,n,0.2643179,796.129736,None,0.2643179,,,Dec02Silent3,124,2022_Dec_02_1549,ProdSingRedoBetween,2021.2.3,59.92110787
,,,,95,0,95,0,,,,,,,,,,,,,,,,,,,,,,799.3327795,None,,,,,,,,,,,,,,,,,sweet,1,96,silent,old,yellow,796.9274387,None,796.9274387,None,6,1.7225664,796.9274387,None,1.7225664,798.6691098,None,799.1906469,None,799.1906469,None,r,0.1153073,799.1906469,None,0.1153073,,,Dec02Silent3,124,2022_Dec_02_1549,ProdSingRedoBetween,2021.2.3,59.92110787
,,,,96,0,96,0,,,,,,,,,,,,,,,,,,,,,,801.5182735,None,,,,,,,,,,,,,,,,,safety,93,97,silent,new,null,799.8427701,None,799.8427701,None,6,0.9913726,799.8427701,None,0.9913726,800.8609406,None,801.3701728,None,801.3701728,None,r,0.1198752,801.3701728,None,0.1198752,,,Dec02Silent3,124,2022_Dec_02_1549,ProdSingRedoBetween,2021.2.3,59.92110787
,,,,97,0,97,0,,,,,,,,,,,,,,,,,,,,,,803.9040358,None,,,,,,,,,,,,,,,,,sight,5,98,silent,old,yellow,802.0301537,None,802.0301537,None,1,1.1079669,802.0301537,None,1.1079669,803.1611156,None,803.6756713,None,803.6756713,None,n,0.1983152,803.6756713,None,0.1983152,,,Dec02Silent3,124,2022_Dec_02_1549,ProdSingRedoBetween,2021.2.3,59.92110787
,,,,98,0,98,0,,,,,,,,,,,,,,,,,,,,,,806.3237945,None,,,,,,,,,,,,,,,,,damage,56,99,silent,old,blue,804.407384,None,804.407384,None,6,1.2508257,804.407384,None,1.2508257,805.6958147,None,806.2094292,None,806.2094292,None,r,0.0966127,806.2094292,None,0.0966127,,,Dec02Silent3,124,2022_Dec_02_1549,ProdSingRedoBetween,2021.2.3,59.92110787
,,,,99,0,99,0,,,,,,,,,,,,,,,,,,,,,,809.1092062,None,,,,,,,,,,,,,,,,,shape,147,100,silent,new,null,806.8335444,None,806.8335444,None,5,1.512445,806.8335444,None,1.512445,808.3788983,None,808.892379,None,808.892379,None,f,0.1895825,808.892379,None,0.1895825,,,Dec02Silent3,124,2022_Dec_02_1549,ProdSingRedoBetween,2021.2.3,59.92110787
,,,,100,0,100,0,,,,,,,,,,,,,,,,,,,,,,811.3337787,None,,,,,,,,,,,,,,,,,whole,33,101,silent,old,blue,809.6190667,None,809.6190667,None,1,1.0308841,809.6190667,None,1.0308841,810.678203,None,811.1780439,None,811.1780439,None,n,0.1281825,811.1780439,None,0.1281825,,,Dec02Silent3,124,2022_Dec_02_1549,ProdSingRedoBetween,2021.2.3,59.92110787
,,,,101,0,101,0,,,,,,,,,,,,,,,,,,,,,,813.8637831,None,,,,,,,,,,,,,,,,,range,7,102,silent,old,yellow,811.8564545,None,811.8564545,None,4,1.425724,811.8564545,None,1.425724,813.3202284,None,813.8338675,None,813.8338675,None,f,0.0081877,813.8338675,None,0.0081877,,,Dec02Silent3,124,2022_Dec_02_1549,ProdSingRedoBetween,2021.2.3,59.92110787
,,,,102,0,102,0,,,,,,,,,,,,,,,,,,,,,,816.783546,None,,,,,,,,,,,,,,,,,birth,110,103,silent,new,null,814.3685574,None,814.3685574,None,1,1.345388,814.3685574,None,1.345388,815.7352199,None,816.2527573,None,816.2527573,None,n,0.5012643,816.2527573,None,0.5012643,,,Dec02Silent3,124,2022_Dec_02_1549,ProdSingRedoBetween,2021.2.3,59.92110787
,,,,103,0,103,0,,,,,,,,,,,,,,,,,,,,,,819.2218257,None,,,,,,,,,,,,,,,,,employment,164,104,silent,new,null,817.2913478,None,817.2913478,None,5,1.2468634,817.2913478,None,1.2468634,818.5762884,None,819.0924127,None,819.0924127,None,f,0.1017852,819.0924127,None,0.1017852,,,Dec02Silent3,124,2022_Dec_02_1549,ProdSingRedoBetween,2021.2.3,59.92110787
,,,,104,0,104,0,,,,,,,,,,,,,,,,,,,,,,821.9387102,None,,,,,,,,,,,,,,,,,science,87,105,silent,old,red,819.7481044,None,819.7481044,None,6,1.557977,819.7481044,None,1.557977,821.3279364,None,821.8390749,None,821.8390749,None,r,0.0749713,821.8390749,None,0.0749713,,,Dec02Silent3,124,2022_Dec_02_1549,ProdSingRedoBetween,2021.2.3,59.92110787
,,,,105,0,105,0,,,,,,,,,,,,,,,,,,,,,,824.3603156,None,,,,,,,,,,,,,,,,,guest,166,106,silent,new,null,822.4488084,None,822.4488084,None,5,1.1371377,822.4488084,None,1.1371377,823.6070412,None,824.1074882,None,824.1074882,None,f,0.2304036,824.1074882,None,0.2304036,,,Dec02Silent3,124,2022_Dec_02_1549,ProdSingRedoBetween,2021.2.3,59.92110787
,,,,106,0,106,0,,,,,,,,,,,,,,,,,,,,,,826.8102809,None,,,,,,,,,,,,,,,,,brilliant,2,107,silent,old,yellow,824.8750378,None,824.8750378,None,1,1.2629364,824.8750378,None,1.2629364,826.1597979,None,826.6618946,None,826.6618946,None,n,0.1241328,826.6618946,None,0.1241328,,,Dec02Silent3,124,2022_Dec_02_1549,ProdSingRedoBetween,2021.2.3,59.92110787
,,,,107,0,107,0,,,,,,,,,,,,,,,,,,,,,,829.145833,None,,,,,,,,,,,,,,,,,capital,41,108,silent,old,blue,827.3177421,None,827.3177421,None,5,1.0762363,827.3177421,None,1.0762363,828.4148051,None,828.9331729,None,828.9331729,None,f,0.1888942,828.9331729,None,0.1888942,,,Dec02Silent3,124,2022_Dec_02_1549,ProdSingRedoBetween,2021.2.3,59.92110787
,,,,108,0,108,0,,,,,,,,,,,,,,,,,,,,,,831.7496368,None,,,,,,,,,,,,,,,,,finish,103,109,silent,new,null,829.6540647,None,829.6540647,None,6,1.3879578,829.6540647,None,1.3879578,831.0644127,None,831.5705277,None,831.5705277,None,f,0.1516003,831.5705277,None,0.1516003,,,Dec02Silent3,124,2022_Dec_02_1549,ProdSingRedoBetween,2021.2.3,59.92110787
,,,,109,0,109,0,,,,,,,,,,,,,,,,,,,,,,834.7181249,None,,,,,,,,,,,,,,,,,measure,145,110,silent,new,null,832.2519424,None,832.2519424,None,6,1.8141015,832.2519424,None,1.8141015,834.0916431,None,834.6015419,None,834.6015419,None,r,0.0886314,834.6015419,None,0.0886314,,,Dec02Silent3,124,2022_Dec_02_1549,ProdSingRedoBetween,2021.2.3,59.92110787
,,,,110,0,110,0,,,,,,,,,,,,,,,,,,,,,,837.4928806,None,,,,,,,,,,,,,,,,,swift,138,111,silent,new,null,835.2307757,None,835.2307757,None,2,1.6274741,835.2307757,None,1.6274741,836.8878684,None,837.3903197,None,837.3903197,None,n,0.0678372,837.3903197,None,0.0678372,,,Dec02Silent3,124,2022_Dec_02_1549,ProdSingRedoBetween,2021.2.3,59.92110787
,,,,111,0,111,0,,,,,,,,,,,,,,,,,,,,,,840.4737913,None,,,,,,,,,,,,,,,,,waste,163,112,silent,new,null,838.0070119,None,838.0070119,None,4,1.7631766,838.0070119,None,1.7631766,839.804451,None,840.3069998,None,840.3069998,None,n,0.1429364,840.3069998,None,0.1429364,,,Dec02Silent3,124,2022_Dec_02_1549,ProdSingRedoBetween,2021.2.3,59.92110787
,,,,112,0,112,0,,,,,,,,,,,,,,,,,,,,,,842.9430912,None,,,,,,,,,,,,,,,,,private,8,113,silent,old,yellow,840.9835417,None,840.9835417,None,6,1.2425021,840.9835417,None,1.2425021,842.2456195,None,842.7596387,None,842.7596387,None,r,0.1544589,842.7596387,None,0.1544589,,,Dec02Silent3,124,2022_Dec_02_1549,ProdSingRedoBetween,2021.2.3,59.92110787
,,,,113,0,113,0,,,,,,,,,,,,,,,,,,,,,,845.3955117,None,,,,,,,,,,,,,,,,,generation,98,114,silent,new,null,843.4491879,None,843.4491879,None,3,1.3367716,843.4491879,None,1.3367716,844.8114676,None,845.312741,None,845.312741,None,n,0.0654588,845.312741,None,0.0654588,,,Dec02Silent3,124,2022_Dec_02_1549,ProdSingRedoBetween,2021.2.3,59.92110787
,,,,114,0,114,0,,,,,,,,,,,,,,,,,,,,,,848.2484182,None,,,,,,,,,,,,,,,,,state,84,115,silent,old,red,845.8962239,None,845.8962239,None,5,1.6659581,845.8962239,None,1.6659581,847.5844997,None,848.1047731,None,848.1047731,None,f,0.1213426,848.1047731,None,0.1213426,,,Dec02Silent3,124,2022_Dec_02_1549,ProdSingRedoBetween,2021.2.3,59.92110787
,,,,115,0,115,0,,,,,,,,,,,,,,,,,,,,,,850.9343577,None,,,,,,,,,,,,,,,,,poetry,39,116,silent,old,blue,848.7492012,None,848.7492012,None,4,1.5011124,848.7492012,None,1.5011124,850.277792,None,850.7891848,None,850.7891848,None,f,0.1247712,850.7891848,None,0.1247712,,,Dec02Silent3,124,2022_Dec_02_1549,ProdSingRedoBetween,2021.2.3,59.92110787
,,,,116,0,116,0,,,,,,,,,,,,,,,,,,,,,,853.4473251,None,,,,,,,,,,,,,,,,,passage,49,117,silent,old,blue,851.4445778,None,851.4445778,None,6,1.2854044,851.4445778,None,1.2854044,852.7529637,None,853.2535848,None,853.2535848,None,r,0.1565794,853.2535848,None,0.1565794,,,Dec02Silent3,124,2022_Dec_02_1549,ProdSingRedoBetween,2021.2.3,59.92110787
,,,,117,0,117,0,,,,,,,,,,,,,,,,,,,,,,856.273013,None,,,,,,,,,,,,,,,,,present,149,118,silent,new,null,853.9636165,None,853.9636165,None,6,1.2944165,853.9636165,None,1.2944165,855.2886816,None,855.7925973,None,855.7925973,None,r,0.4494084,855.7925973,None,0.4494084,,,Dec02Silent3,124,2022_Dec_02_1549,ProdSingRedoBetween,2021.2.3,59.92110787
,,,,118,0,118,0,,,,,,,,,,,,,,,,,,,,,,858.9589831,None,,,,,,,,,,,,,,,,,incident,28,119,silent,old,yellow,856.7738936,None,856.7738936,None,6,1.0920741,856.7738936,None,1.0920741,857.8913212,None,858.3918376,None,858.3918376,None,r,0.5461399,858.3918376,None,0.5461399,,,Dec02Silent3,124,2022_Dec_02_1549,ProdSingRedoBetween,2021.2.3,59.92110787
,,,,119,0,119,0,,,,,,,,,,,,,,,,,,,,,,861.2447151,None,,,,,,,,,,,,,,,,,interior,178,120,silent,new,null,859.4741525,None,859.4741525,None,1,1.0959977,859.4741525,None,1.0959977,860.6034802,None,861.1175605,None,861.1175605,None,n,0.1085078,861.1175605,None,0.1085078,,,Dec02Silent3,124,2022_Dec_02_1549,ProdSingRedoBetween,2021.2.3,59.92110787
,,,,120,0,120,0,,,,,,,,,,,,,,,,,,,,,,863.5304734,None,,,,,,,,,,,,,,,,,close,17,121,silent,old,yellow,861.7451353,None,861.7451353,None,4,1.0728448,861.7451353,None,1.0728448,862.8462325,None,863.3467375,None,863.3467375,None,f,0.1672713,863.3467375,None,0.1672713,,,Dec02Silent3,124,2022_Dec_02_1549,ProdSingRedoBetween,2021.2.3,59.92110787
,,,,121,0,121,0,,,,,,,,,,,,,,,,,,,,,,866.7835989,None,,,,,,,,,,,,,,,,,quick,117,122,silent,new,null,864.0432232,None,864.0432232,None,3,1.7988409,864.0432232,None,1.7988409,865.8690613,None,866.3831952,None,866.3831952,None,n,0.37085,866.3831952,None,0.37085,,,Dec02Silent3,124,2022_Dec_02_1549,ProdSingRedoBetween,2021.2.3,59.92110787
,,,,122,0,122,0,,,,,,,,,,,,,,,,,,,,,,869.1039981,None,,,,,,,,,,,,,,,,,narrow,133,123,silent,new,null,867.2934664,None,867.2934664,None,6,1.0205158,867.2934664,None,1.0205158,868.3348332,None,868.8356636,None,868.8356636,None,r,0.2463531,868.8356636,None,0.2463531,,,Dec02Silent3,124,2022_Dec_02_1549,ProdSingRedoBetween,2021.2.3,59.92110787
,,,,123,0,123,0,,,,,,,,,,,,,,,,,,,,,,871.5215939,None,,,,,,,,,,,,,,,,,block,63,124,silent,old,red,869.6158111,None,869.6158111,None,3,1.2502659,869.6158111,None,1.2502659,870.8888429,None,871.3931537,None,871.3931537,None,n,0.1049937,871.3931537,None,0.1049937,,,Dec02Silent3,124,2022_Dec_02_1549,ProdSingRedoBetween,2021.2.3,59.92110787
,,,,124,0,124,0,,,,,,,,,,,,,,,,,,,,,,873.7588804,None,,,,,,,,,,,,,,,,,appearance,86,125,silent,old,red,872.0299251,None,872.0299251,None,5,0.9882122,872.0299251,None,0.9882122,873.0502418,None,873.5598066,None,873.5598066,None,f,0.1786151,873.5598066,None,0.1786151,,,Dec02Silent3,124,2022_Dec_02_1549,ProdSingRedoBetween,2021.2.3,59.92110787
,,,,125,0,125,0,,,,,,,,,,,,,,,,,,,,,,876.2013292,None,,,,,,,,,,,,,,,,,bucket,165,126,silent,new,null,874.2795595,None,874.2795595,None,1,1.210541,874.2795595,None,1.210541,875.5135859,None,876.0299992,None,876.0299992,None,n,0.1402322,876.0299992,None,0.1402322,,,Dec02Silent3,124,2022_Dec_02_1549,ProdSingRedoBetween,2021.2.3,59.92110787
,,,,126,0,126,0,,,,,,,,,,,,,,,,,,,,,,878.3117521,None,,,,,,,,,,,,,,,,,clear,31,127,silent,old,blue,876.7102887,None,876.7102887,None,2,0.931758,876.7102887,None,0.931758,877.6616182,None,878.163557,None,878.163557,None,n,0.1265012,878.163557,None,0.1265012,,,Dec02Silent3,124,2022_Dec_02_1549,ProdSingRedoBetween,2021.2.3,59.92110787
,,,,127,0,127,0,,,,,,,,,,,,,,,,,,,,,,880.5637082,None,,,,,,,,,,,,,,,,,sound,68,128,silent,old,red,878.8173282,None,878.8173282,None,4,1.1209117,878.8173282,None,1.1209117,879.9766854,None,880.4810836,None,880.4810836,None,f,0.0568921,880.4810836,None,0.0568921,,,Dec02Silent3,124,2022_Dec_02_1549,ProdSingRedoBetween,2021.2.3,59.92110787
,,,,128,0,128,0,,,,,,,,,,,,,,,,,,,,,,883.3332456,None,,,,,,,,,,,,,,,,,marriage,158,129,silent,new,null,881.0722536,None,881.0722536,None,6,1.4499045,881.0722536,None,1.4499045,882.5572308,None,883.0665751,None,883.0665751,None,r,0.2474967,883.0665751,None,0.2474967,,,Dec02Silent3,124,2022_Dec_02_1549,ProdSingRedoBetween,2021.2.3,59.92110787
,,,,129,0,129,0,,,,,,,,,,,,,,,,,,,,,,885.568969,None,,,,,,,,,,,,,,,,,hunger,171,130,silent,new,null,883.8339243,None,883.8339243,None,6,1.0800732,883.8339243,None,1.0800732,884.9358833,None,885.4370947,None,885.4370947,None,r,0.1008808,885.4370947,None,0.1008808,,,Dec02Silent3,124,2022_Dec_02_1549,ProdSingRedoBetween,2021.2.3,59.92110787
,,,,130,0,130,0,,,,,,,,,,,,,,,,,,,,,,887.8212015,None,,,,,,,,,,,,,,,,,disease,167,131,silent,new,null,886.069383,None,886.069383,None,1,1.1246568,886.069383,None,1.1246568,887.220779,None,887.7211038,None,887.7211038,None,n,0.0809583,887.7211038,None,0.0809583,,,Dec02Silent3,124,2022_Dec_02_1549,ProdSingRedoBetween,2021.2.3,59.92110787
,,,,131,0,131,0,,,,,,,,,,,,,,,,,,,,,,890.6741352,None,,,,,,,,,,,,,,,,,scene,125,132,silent,new,null,888.3218053,None,888.3218053,None,2,1.392388,888.3218053,None,1.392388,889.7473562,None,890.2709646,None,890.2709646,None,n,0.3790923,890.2709646,None,0.3790923,,,Dec02Silent3,124,2022_Dec_02_1549,ProdSingRedoBetween,2021.2.3,59.92110787
,,,,132,0,132,0,,,,,,,,,,,,,,,,,,,,,,893.596865,None,,,,,,,,,,,,,,,,,drove,51,133,silent,old,blue,891.1833854,None,891.1833854,None,5,1.4507767,891.1833854,None,1.4507767,892.6598505,None,893.1651998,None,893.1651998,None,f,0.4049652,893.1651998,None,0.4049652,,,Dec02Silent3,124,2022_Dec_02_1549,ProdSingRedoBetween,2021.2.3,59.92110787
,,,,133,0,133,0,,,,,,,,,,,,,,,,,,,,,,896.1137587,None,,,,,,,,,,,,,,,,,angle,0,134,silent,old,yellow,894.1152944,None,894.1152944,None,5,1.3507148,894.1152944,None,1.3507148,895.4955942,None,895.9960286,None,895.9960286,None,f,0.0861318,895.9960286,None,0.0861318,,,Dec02Silent3,124,2022_Dec_02_1549,ProdSingRedoBetween,2021.2.3,59.92110787
,,,,134,0,134,0,,,,,,,,,,,,,,,,,,,,,,898.7987661,None,,,,,,,,,,,,,,,,,travel,59,135,silent,old,yellow,896.6193034,None,896.6193034,None,6,1.1508106,896.6193034,None,1.1508106,897.8039268,None,898.315213,None,898.315213,None,r,0.4547702,898.315213,None,0.4547702,,,Dec02Silent3,124,2022_Dec_02_1549,ProdSingRedoBetween,2021.2.3,59.92110787
,,,,135,0,135,0,,,,,,,,,,,,,,,,,,,,,,901.3700971,None,,,,,,,,,,,,,,,,,prime,23,136,silent,old,yellow,899.3095377,None,899.3095377,None,6,1.4044652,899.3095377,None,1.4044652,900.7338775,None,901.2347722,None,901.2347722,None,r,0.1113444,901.2347722,None,0.1113444,,,Dec02Silent3,124,2022_Dec_02_1549,ProdSingRedoBetween,2021.2.3,59.92110787
,,,,136,0,136,0,,,,,,,,,,,,,,,,,,,,,,903.703649,None,,,,,,,,,,,,,,,,,track,91,137,silent,new,null,901.8912775,None,901.8912775,None,6,1.0787929,901.8912775,None,1.0787929,902.9876604,None,903.4890973,None,903.4890973,None,r,0.1852978,903.4890973,None,0.1852978,,,Dec02Silent3,124,2022_Dec_02_1549,ProdSingRedoBetween,2021.2.3,59.92110787
,,,,137,0,137,0,,,,,,,,,,,,,,,,,,,,,,906.0061101,None,,,,,,,,,,,,,,,,,volume,44,138,silent,old,blue,904.208001,None,904.208001,None,6,1.1860783,904.208001,None,1.1860783,905.4231878,None,905.9281421,None,905.9281421,None,r,0.0579565,905.9281421,None,0.0579565,,,Dec02Silent3,124,2022_Dec_02_1549,ProdSingRedoBetween,2021.2.3,59.92110787
,,,,138,0,138,0,,,,,,,,,,,,,,,,,,,,,,908.2414138,None,,,,,,,,,,,,,,,,,balance,48,139,silent,old,blue,906.5117861,None,906.5117861,None,5,1.1223229,906.5117861,None,1.1223229,907.6601774,None,908.1817218,None,908.1817218,None,f,0.0363838,908.1817218,None,0.0363838,,,Dec02Silent3,124,2022_Dec_02_1549,ProdSingRedoBetween,2021.2.3,59.92110787
,,,,139,0,139,0,,,,,,,,,,,,,,,,,,,,,,910.427123,None,,,,,,,,,,,,,,,,,mechanical,161,140,silent,new,null,908.7518295,None,908.7518295,None,1,1.0183438,908.7518295,None,1.0183438,909.8002018,None,910.3105115,None,910.3105115,None,n,0.0994847,910.3105115,None,0.0994847,,,Dec02Silent3,124,2022_Dec_02_1549,ProdSingRedoBetween,2021.2.3,59.92110787
,,,,140,0,140,0,,,,,,,,,,,,,,,,,,,,,,913.4635672,None,,,,,,,,,,,,,,,,,rapid,83,141,silent,old,red,910.9355208,None,910.9355208,None,4,1.4664896,910.9355208,None,1.4664896,912.4301073,None,912.9388623,None,912.9388623,None,f,0.5032644,912.9388623,None,0.5032644,,,Dec02Silent3,124,2022_Dec_02_1549,ProdSingRedoBetween,2021.2.3,59.92110787
,,,,141,0,141,0,,,,,,,,,,,,,,,,,,,,,,916.2662178,None,,,,,,,,,,,,,,,,,skill,121,142,silent,new,null,913.9773117,None,913.9773117,None,6,1.5126712,913.9773117,None,1.5126712,915.5158636,None,916.0197927,None,916.0197927,None,r,0.2222739,916.0197927,None,0.2222739,,,Dec02Silent3,124,2022_Dec_02_1549,ProdSingRedoBetween,2021.2.3,59.92110787
,,,,142,0,142,0,,,,,,,,,,,,,,,,,,,,,,918.52646,None,,,,,,,,,,,,,,,,,rural,21,143,silent,old,yellow,916.7724362,None,916.7724362,None,6,1.0615661,916.7724362,None,1.0615661,917.8513411,None,918.3519133,None,918.3519133,None,r,0.1386182,918.3519133,None,0.1386182,,,Dec02Silent3,124,2022_Dec_02_1549,ProdSingRedoBetween,2021.2.3,59.92110787
,,,,143,0,143,0,,,,,,,,,,,,,,,,,,,,,,921.1879167,None,,,,,,,,,,,,,,,,,court,30,144,silent,old,blue,919.0408666,None,919.0408666,None,6,1.5132998,919.0408666,None,1.5132998,920.5718415,None,921.0763887,None,921.0763887,None,r,0.0936112,921.0763887,None,0.0936112,,,Dec02Silent3,124,2022_Dec_02_1549,ProdSingRedoBetween,2021.2.3,59.92110787
,,,,144,0,144,0,,,,,,,,,,,,,,,,,,,,,,923.4400023,None,,,,,,,,,,,,,,,,,power,131,145,silent,new,null,921.6885813,None,921.6885813,None,6,1.0816761,921.6885813,None,1.0816761,922.7896075,None,923.2898575,None,923.2898575,None,r,0.1281917,923.2898575,None,0.1281917,,,Dec02Silent3,124,2022_Dec_02_1549,ProdSingRedoBetween,2021.2.3,59.92110787
,,,,145,0,145,0,,,,,,,,,,,,,,,,,,,,,,925.797002,None,,,,,,,,,,,,,,,,,income,47,146,silent,old,blue,923.9410817,None,923.9410817,None,5,1.2372324,923.9410817,None,1.2372324,925.2164471,None,925.7259881,None,925.7259881,None,f,0.0441908,925.7259881,None,0.0441908,,,Dec02Silent3,124,2022_Dec_02_1549,ProdSingRedoBetween,2021.2.3,59.92110787
,,,,146,0,146,0,,,,,,,,,,,,,,,,,,,,,,927.9780346,None,,,,,,,,,,,,,,,,,general,53,147,silent,old,blue,926.31277,None,926.31277,None,3,1.1053302,926.31277,None,1.1053302,927.4442143,None,927.9490998,None,927.9490998,None,n,0.0129534,927.9490998,None,0.0129534,,,Dec02Silent3,124,2022_Dec_02_1549,ProdSingRedoBetween,2021.2.3,59.92110787
,,,,147,0,147,0,,,,,,,,,,,,,,,,,,,,,,930.1477113,None,,,,,,,,,,,,,,,,,edition,60,148,silent,old,red,928.4842699,None,928.4842699,None,3,0.9976859,928.4842699,None,0.9976859,929.5127321,None,930.0135694,None,930.0135694,None,n,0.1086924,930.0135694,None,0.1086924,,,Dec02Silent3,124,2022_Dec_02_1549,ProdSingRedoBetween,2021.2.3,59.92110787
,,,,148,0,148,0,,,,,,,,,,,,,,,,,,,,,,932.2989713,None,,,,,,,,,,,,,,,,,country,126,149,silent,new,null,930.6501292,None,930.6501292,None,2,1.0799575,930.6501292,None,1.0799575,931.7496981,None,932.2490549,None,932.2490549,None,n,0.0330472,932.2490549,None,0.0330472,,,Dec02Silent3,124,2022_Dec_02_1549,ProdSingRedoBetween,2021.2.3,59.92110787
,,,,149,0,149,0,,,,,,,,,,,,,,,,,,,,,,934.5901129,None,,,,,,,,,,,,,,,,,scale,38,150,silent,old,blue,932.8073393,None,932.8073393,None,5,1.1467593,932.8073393,None,1.1467593,933.9838646,None,934.4868521,None,934.4868521,None,f,0.0674401,934.4868521,None,0.0674401,,,Dec02Silent3,124,2022_Dec_02_1549,ProdSingRedoBetween,2021.2.3,59.92110787
,,,,150,0,150,0,,,,,,,,,,,,,,,,,,,,,,936.8243818,None,,,,,,,,,,,,,,,,,department,6,151,silent,old,yellow,935.1098837,None,935.1098837,None,6,1.1244559,935.1098837,None,1.1244559,936.2641991,None,936.7743036,None,936.7743036,None,r,0.0278723,936.7743036,None,0.0278723,,,Dec02Silent3,124,2022_Dec_02_1549,ProdSingRedoBetween,2021.2.3,59.92110787
,,,,151,0,151,0,,,,,,,,,,,,,,,,,,,,,,939.873057,None,,,,,,,,,,,,,,,,,republic,101,152,silent,new,null,937.3460131,None,937.3460131,None,1,1.5760134,937.3460131,None,1.5760134,938.9411414,None,939.4619084,None,939.4619084,None,n,0.3881021,939.4619084,None,0.3881021,,,Dec02Silent3,124,2022_Dec_02_1549,ProdSingRedoBetween,2021.2.3,59.92110787
,,,,152,0,152,0,,,,,,,,,,,,,,,,,,,,,,941.7584997,None,,,,,,,,,,,,,,,,,carry,173,153,silent,new,null,940.3812355,None,940.3812355,None,1,0.7087802,940.3812355,None,0.7087802,941.1076531,None,941.6084827,None,941.6084827,None,n,0.1296354,941.6084827,None,0.1296354,,,Dec02Silent3,124,2022_Dec_02_1549,ProdSingRedoBetween,2021.2.3,59.92110787
,,,,153,0,153,0,,,,,,,,,,,,,,,,,,,,,,943.8606808,None,,,,,,,,,,,,,,,,,childhood,108,154,silent,new,null,942.2620934,None,942.2620934,None,1,0.9879267,942.2620934,None,0.9879267,943.2770984,None,943.7795576,None,943.7795576,None,n,0.0625323,943.7795576,None,0.0625323,,,Dec02Silent3,124,2022_Dec_02_1549,ProdSingRedoBetween,2021.2.3,59.92110787
,,,,154,0,154,0,,,,,,,,,,,,,,,,,,,,,,946.093798,None,,,,,,,,,,,,,,,,,engineer,50,155,silent,old,blue,944.3609556,None,944.3609556,None,4,1.1611732,944.3609556,None,1.1611732,945.5465016,None,946.0517285,None,946.0517285,None,f,0.014583,946.0517285,None,0.014583,,,Dec02Silent3,124,2022_Dec_02_1549,ProdSingRedoBetween,2021.2.3,59.92110787
,,,,155,0,155,0,,,,,,,,,,,,,,,,,,,,,,948.6486577,None,,,,,,,,,,,,,,,,,suggestion,107,156,silent,new,null,946.6112214,None,946.6112214,None,2,1.0548689,946.6112214,None,1.0548689,947.6844247,None,948.2055966,None,948.2055966,None,n,0.4204883,948.2055966,None,0.4204883,,,Dec02Silent3,124,2022_Dec_02_1549,ProdSingRedoBetween,2021.2.3,59.92110787
,,,,156,0,156,0,,,,,,,,,,,,,,,,,,,,,,950.8508719,None,,,,,,,,,,,,,,,,,service,11,157,silent,old,yellow,949.1592062,None,949.1592062,None,4,1.0510254,949.1592062,None,1.0510254,950.2432494,None,950.7523337,None,950.7523337,None,f,0.0737788,950.7523337,None,0.0737788,,,Dec02Silent3,124,2022_Dec_02_1549,ProdSingRedoBetween,2021.2.3,59.92110787
,,,,157,0,157,0,,,,,,,,,,,,,,,,,,,,,,953.5714884,None,,,,,,,,,,,,,,,,,century,134,158,silent,new,null,951.357677,None,951.357677,None,2,0.9804308,951.357677,None,0.9804308,952.3721152,None,952.8860952,None,952.8860952,None,n,0.6601827,952.8860952,None,0.6601827,,,Dec02Silent3,124,2022_Dec_02_1549,ProdSingRedoBetween,2021.2.3,59.92110787
,,,,158,0,158,0,,,,,,,,,,,,,,,,,,,,,,955.6556066,None,,,,,,,,,,,,,,,,,express,137,159,silent,new,null,954.0771856,None,954.0771856,None,2,0.845058,954.0771856,None,0.845058,954.9469837,None,955.4581214,None,955.4581214,None,n,0.1759566,955.4581214,None,0.1759566,,,Dec02Silent3,124,2022_Dec_02_1549,ProdSingRedoBetween,2021.2.3,59.92110787
,,,,159,0,159,0,,,,,,,,,,,,,,,,,,,,,,957.7454788,None,,,,,,,,,,,,,,,,,hearing,37,160,silent,old,blue,956.1564302,None,956.1564302,None,4,0.9976636,956.1564302,None,0.9976636,957.1757023,None,957.6911131,None,957.6911131,None,f,0.023078,957.6911131,None,0.023078,,,Dec02Silent3,124,2022_Dec_02_1549,ProdSingRedoBetween,2021.2.3,59.92110787
,,,,160,0,160,0,,,,,,,,,,,,,,,,,,,,,,959.7957697,None,,,,,,,,,,,,,,,,,burden,124,161,silent,new,null,958.2603942,None,958.2603942,None,2,0.957729,958.2603942,None,0.957729,959.2475838,None,959.760857,None,959.760857,None,n,0.0173973,959.760857,None,0.0173973,,,Dec02Silent3,124,2022_Dec_02_1549,ProdSingRedoBetween,2021.2.3,59.92110787
,,,,161,0,161,0,,,,,,,,,,,,,,,,,,,,,,962.0796394,None,,,,,,,,,,,,,,,,,murder,81,162,silent,old,red,960.3209992,None,960.3209992,None,6,1.1291024,960.3209992,None,1.1291024,961.4789254,None,961.9792209,None,961.9792209,None,r,0.0710079,961.9792209,None,0.0710079,,,Dec02Silent3,124,2022_Dec_02_1549,ProdSingRedoBetween,2021.2.3,59.92110787
,,,,162,0,162,0,,,,,,,,,,,,,,,,,,,,,,964.5543987,None,,,,,,,,,,,,,,,,,silence,157,163,silent,new,null,962.5853551,None,962.5853551,None,5,1.3607235,962.5853551,None,1.3607235,963.9640234,None,964.4646787,None,964.4646787,None,f,0.0575993,964.4646787,None,0.0575993,,,Dec02Silent3,124,2022_Dec_02_1549,ProdSingRedoBetween,2021.2.3,59.92110787
,,,,163,0,163,0,,,,,,,,,,,,,,,,,,,,,,966.7555074,None,,,,,,,,,,,,,,,,,junior,3,164,silent,old,yellow,965.0710683,None,965.0710683,None,6,1.0670056,965.0710683,None,1.0670056,966.169714,None,966.6835373,None,966.6835373,None,r,0.0387236,966.6835373,None,0.0387236,,,Dec02Silent3,124,2022_Dec_02_1549,ProdSingRedoBetween,2021.2.3,59.92110787
,,,,164,0,164,0,,,,,,,,,,,,,,,,,,,,,,968.8523192,None,,,,,,,,,,,,,,,,,break,45,165,silent,old,blue,967.2722435,None,967.2722435,None,6,0.9938554,967.2722435,None,0.9938554,968.2853291,None,968.7861808,None,968.7861808,None,r,0.047935,968.7861808,None,0.047935,,,Dec02Silent3,124,2022_Dec_02_1549,ProdSingRedoBetween,2021.2.3,59.92110787
,,,,165,0,165,0,,,,,,,,,,,,,,,,,,,,,,971.354697,None,,,,,,,,,,,,,,,,,worker,100,166,silent,new,null,969.3592681,None,969.3592681,None,4,1.4189369,969.3592681,None,1.4189369,970.8129653,None,971.3219028,None,971.3219028,None,f,0.0162897,971.3219028,None,0.0162897,,,Dec02Silent3,124,2022_Dec_02_1549,ProdSingRedoBetween,2021.2.3,59.92110787
,,,,166,0,166,0,,,,,,,,,,,,,,,,,,,,,,973.7846133,None,,,,,,,,,,,,,,,,,under,142,167,silent,new,null,971.8571366,None,971.8571366,None,1,1.3529428,971.8571366,None,1.3529428,973.2396783,None,973.7483508,None,973.7483508,None,n,0.013909,973.7483508,None,0.013909,,,Dec02Silent3,124,2022_Dec_02_1549,ProdSingRedoBetween,2021.2.3,59.92110787
,,,,167,0,167,0,,,,,,,,,,,,,,,,,,,,,,975.9907168,None,,,,,,,,,,,,,,,,,partner,102,168,silent,new,null,974.2995851,None,974.2995851,None,2,1.054524,974.2995851,None,1.054524,975.3774787,None,975.9046672,None,975.9046672,None,n,0.0578041,975.9046672,None,0.0578041,,,Dec02Silent3,124,2022_Dec_02_1549,ProdSingRedoBetween,2021.2.3,59.92110787
,,,,168,0,168,0,,,,,,,,,,,,,,,,,,,,,,978.4117339,None,,,,,,,,,,,,,,,,,vision,128,169,silent,new,null,976.4981965,None,976.4981965,None,6,1.3120147,976.4981965,None,1.3120147,977.8282745,None,978.3283737,None,978.3283737,None,r,0.0656856,978.3283737,None,0.0656856,,,Dec02Silent3,124,2022_Dec_02_1549,ProdSingRedoBetween,2021.2.3,59.92110787
,,,,169,0,169,0,,,,,,,,,,,,,,,,,,,,,,980.5305418,None,,,,,,,,,,,,,,,,,shear,82,170,silent,old,red,978.9123585,None,978.9123585,None,1,1.0496808,978.9123585,None,1.0496808,979.9804353,None,980.4806749,None,980.4806749,None,n,0.033437,980.4806749,None,0.033437,,,Dec02Silent3,124,2022_Dec_02_1549,ProdSingRedoBetween,2021.2.3,59.92110787
,,,,170,0,170,0,,,,,,,,,,,,,,,,,,,,,,982.7663449,None,,,,,,,,,,,,,,,,,graduate,64,171,silent,old,red,981.0375801,None,981.0375801,None,6,1.1724598,981.0375801,None,1.1724598,982.2331959,None,982.7342875,None,982.7342875,None,r,0.0118591,982.7342875,None,0.0118591,,,Dec02Silent3,124,2022_Dec_02_1549,ProdSingRedoBetween,2021.2.3,59.92110787
,,,,171,0,171,0,,,,,,,,,,,,,,,,,,,,,,984.9179831,None,,,,,,,,,,,,,,,,,gesture,144,172,silent,new,null,983.2809858,None,983.2809858,None,1,1.0570115,983.2809858,None,1.0570115,984.3679458,None,984.8722431,None,984.8722431,None,n,0.017993,984.8722431,None,0.017993,,,Dec02Silent3,124,2022_Dec_02_1549,ProdSingRedoBetween,2021.2.3,59.92110787
,,,,172,0,172,0,,,,,,,,,,,,,,,,,,,,,,987.7044069,None,,,,,,,,,,,,,,,,,territory,109,173,silent,new,null,985.428083,None,985.428083,None,4,1.0941674,985.428083,None,1.0941674,986.5616469,None,987.0729647,None,987.0729647,None,f,0.6091286,987.0729647,None,0.6091286,,,Dec02Silent3,124,2022_Dec_02_1549,ProdSingRedoBetween,2021.2.3,59.92110787
,,,,173,0,173,0,,,,,,,,,,,,,,,,,,,,,,990.2235608,None,,,,,,,,,,,,,,,,,testimony,36,174,silent,old,blue,988.2156197,None,988.2156197,None,6,1.3143464,988.2156197,None,1.3143464,989.563876,None,990.0792342,None,990.0792342,None,r,0.114869,990.0792342,None,0.114869,,,Dec02Silent3,124,2022_Dec_02_1549,ProdSingRedoBetween,2021.2.3,59.92110787
,,,,174,0,174,0,,,,,,,,,,,,,,,,,,,,,,992.5591568,None,,,,,,,,,,,,,,,,,public,88,175,silent,old,red,990.7367383,None,990.7367383,None,5,1.0813694,990.7367383,None,1.0813694,991.843084,None,992.3486126,None,992.3486126,None,f,0.1815001,992.3486126,None,0.1815001,,,Dec02Silent3,124,2022_Dec_02_1549,ProdSingRedoBetween,2021.2.3,59.92110787
,,,,175,0,175,0,,,,,,,,,,,,,,,,,,,,,,995.0184279,None,,,,,,,,,,,,,,,,,property,72,176,silent,old,red,993.065683,None,993.065683,None,6,1.2245802,993.065683,None,1.2245802,994.3110486,None,994.8160002,None,994.8160002,None,f,0.1783461,994.8160002,None,0.1783461,,,Dec02Silent3,124,2022_Dec_02_1549,ProdSingRedoBetween,2021.2.3,59.92110787
,,,,176,0,176,0,,,,,,,,,,,,,,,,,,,,,,997.1138731,None,,,,,,,,,,,,,,,,,dream,177,177,silent,new,null,995.529056,None,995.529056,None,1,1.0250961,995.529056,None,1.0250961,996.5799069,None,997.0805036,None,997.0805036,None,n,0.0177762,997.0805036,None,0.0177762,,,Dec02Silent3,124,2022_Dec_02_1549,ProdSingRedoBetween,2021.2.3,59.92110787
,,,,177,0,177,0,,,,,,,,,,,,,,,,,,,,,,999.2492658,None,,,,,,,,,,,,,,,,,discussion,97,178,silent,new,null,997.6144295,None,997.6144295,None,2,1.0515887,997.6144295,None,1.0515887,998.6826138,None,999.1854074,None,999.1854074,None,f,0.0486052,999.1854074,None,0.0486052,,,Dec02Silent3,124,2022_Dec_02_1549,ProdSingRedoBetween,2021.2.3,59.92110787
,,,,178,0,178,0,,,,,,,,,,,,,,,,,,,,,,1001.601603,None,,,,,,,,,,,,,,,,,history,27,179,silent,old,yellow,999.7519817,None,999.7519817,None,6,1.2421387,999.7519817,None,1.2421387,1001.020622,None,1001.539927,None,1001.539927,None,r,0.0464035,1001.539927,None,0.0464035,,,Dec02Silent3,124,2022_Dec_02_1549,ProdSingRedoBetween,2021.2.3,59.92110787
,,,,179,0,179,0,,,,,,,,,,,,,,,,,,,,,,1003.937391,None,,,,,,,,,,,,,,,,,individual,119,180,silent,new,null,1002.109053,None,1002.109053,None,5,1.2690804,1002.109053,None,1.2690804,1003.403762,None,1003.906022,None,1003.906022,None,f,0.01614,1003.906022,None,0.01614,,,Dec02Silent3,124,2022_Dec_02_1549,ProdSingRedoBetween,2021.2.3,59.92110787
,,,,,,,,,,,,,,,,,,,,,,,,,,,,,,,,,,,,,,,,,,,,,,,,,,,,,,,,,,,,,,,,,,,,,,,,,1004.438346,None,,,,,,
