StudyLoop.thisRepN,StudyLoop.thisTrialN,StudyLoop.thisN,StudyLoop.thisIndex,TestLoop.thisRepN,TestLoop.thisTrialN,TestLoop.thisN,TestLoop.thisIndex,textCondition.started,textCondition.stopped,keyCondition.keys,keyCondition.rt,keyCondition.started,keyCondition.stopped,Condition,textWelcome.started,textWelcome.stopped,keyWelcome.keys,keyWelcome.rt,keyWelcome.started,keyWelcome.stopped,textAloud.started,textAloud.stopped,textSilent.started,textSilent.stopped,textSing.started,textSing.stopped,conditional_text.started,conditional_text.stopped,textBlank500.started,textBlank500.stopped,study_word,study_num,study_order,study_type,word_color,textStudy.started,textStudy.stopped,keyStudy.keys,keyStudy.started,keyStudy.stopped,textTestInstructions.started,textTestInstructions.stopped,key_resp_3.keys,key_resp_3.rt,key_resp_3.started,key_resp_3.stopped,test_word,test_num,test_order,test_condition,old_new_test,test_word_original_color,textConf.started,textConf.stopped,textConfScale.started,textConfScale.stopped,keyConf.keys,keyConf.rt,keyConf.started,keyConf.stopped,confidence response time,textTestBlank.started,textTestBlank.stopped,textRKN.started,textRKN.stopped,textRKNScale.started,textRKNScale.stopped,keyRKN.keys,keyRKN.rt,keyRKN.started,keyRKN.stopped,rkn response time,textEnd.started,textEnd.stopped,participant,session,date,expName,psychopyVersion,frameRate,
,,,,,,,,108.05402689999755,None,a,1.5505290000000969,108.05402689999755,None,,,,,,,,,,,,,,,,,,,,,,,,,,,,,,,,,,,,,,,,,,,,,,,,,,,,,,,,,,,,,,125Scilent,001,2023_Sep_19_0938,ProdSingRedoBetween,2021.2.3,59.97307208893416,
,,,,,,,,,,,,,,SilentTest,109.67939060000208,None,space,7.581038200005423,109.67939060000208,None,,,,,,,,,,,,,,,,,,,,,,,,,,,,,,,,,,,,,,,,,,,,,,,,,,,,,,,125Scilent,001,2023_Sep_19_0938,ProdSingRedoBetween,2021.2.3,59.97307208893416,
0,0,0,0,,,,,,,,,,,,,,,,,,109.67939060000208,None,109.67939060000208,None,109.67939060000208,None,109.67939060000208,None,119.80172270000185,None,relation,14,1,silent,yellow,117.78563159999612,None,None,117.78563159999612,None,,,,,,,,,,,,,,,,,,,,,,,,,,,,,,,,,,,125Scilent,001,2023_Sep_19_0938,ProdSingRedoBetween,2021.2.3,59.97307208893416,
1,0,1,0,,,,,,,,,,,,,,,,,,,,,,,,,,122.31986619999952,None,heavy,11,2,silent,yellow,120.30698259999917,None,None,120.30698259999917,None,,,,,,,,,,,,,,,,,,,,,,,,,,,,,,,,,,,125Scilent,001,2023_Sep_19_0938,ProdSingRedoBetween,2021.2.3,59.97307208893416,
2,0,2,0,,,,,,,,,,,,,,,,,,,,,,,,,,124.82221019999997,None,empty,24,3,silent,yellow,122.82056179999927,None,None,122.82056179999927,None,,,,,,,,,,,,,,,,,,,,,,,,,,,,,,,,,,,125Scilent,001,2023_Sep_19_0938,ProdSingRedoBetween,2021.2.3,59.97307208893416,
3,0,3,0,,,,,,,,,,,,,,,,,,,,,,,,,,127.32516790000227,None,series,82,4,silent,red,125.32552199999918,None,None,125.32552199999918,None,,,,,,,,,,,,,,,,,,,,,,,,,,,,,,,,,,,125Scilent,001,2023_Sep_19_0938,ProdSingRedoBetween,2021.2.3,59.97307208893416,
4,0,4,0,,,,,,,,,,,,,,,,,,,,,,,,,,129.8442081999965,None,military,4,5,silent,yellow,127.82938060000015,None,None,127.82938060000015,None,,,,,,,,,,,,,,,,,,,,,,,,,,,,,,,,,,,125Scilent,001,2023_Sep_19_0938,ProdSingRedoBetween,2021.2.3,59.97307208893416,
5,0,5,0,,,,,,,,,,,,,,,,,,,,,,,,,,132.3466144999984,None,build,88,6,silent,red,130.34657309999602,None,None,130.34657309999602,None,,,,,,,,,,,,,,,,,,,,,,,,,,,,,,,,,,,125Scilent,001,2023_Sep_19_0938,ProdSingRedoBetween,2021.2.3,59.97307208893416,
6,0,6,0,,,,,,,,,,,,,,,,,,,,,,,,,,134.8490512999997,None,height,86,7,silent,red,132.84805329999654,None,None,132.84805329999654,None,,,,,,,,,,,,,,,,,,,,,,,,,,,,,,,,,,,125Scilent,001,2023_Sep_19_0938,ProdSingRedoBetween,2021.2.3,59.97307208893416,
7,0,7,0,,,,,,,,,,,,,,,,,,,,,,,,,,137.3514937,None,bitter,58,8,silent,blue,135.35268730000098,None,None,135.35268730000098,None,,,,,,,,,,,,,,,,,,,,,,,,,,,,,,,,,,,125Scilent,001,2023_Sep_19_0938,ProdSingRedoBetween,2021.2.3,59.97307208893416,
8,0,8,0,,,,,,,,,,,,,,,,,,,,,,,,,,139.8542981999999,None,group,23,9,silent,yellow,137.85408639999514,None,None,137.85408639999514,None,,,,,,,,,,,,,,,,,,,,,,,,,,,,,,,,,,,125Scilent,001,2023_Sep_19_0938,ProdSingRedoBetween,2021.2.3,59.97307208893416,
9,0,9,0,,,,,,,,,,,,,,,,,,,,,,,,,,142.3568180000002,None,count,87,10,silent,red,140.35698599999887,None,None,140.35698599999887,None,,,,,,,,,,,,,,,,,,,,,,,,,,,,,,,,,,,125Scilent,001,2023_Sep_19_0938,ProdSingRedoBetween,2021.2.3,59.97307208893416,
10,0,10,0,,,,,,,,,,,,,,,,,,,,,,,,,,144.87572299999738,None,portion,44,11,silent,blue,142.86067029999685,None,None,142.86067029999685,None,,,,,,,,,,,,,,,,,,,,,,,,,,,,,,,,,,,125Scilent,001,2023_Sep_19_0938,ProdSingRedoBetween,2021.2.3,59.97307208893416,
11,0,11,0,,,,,,,,,,,,,,,,,,,,,,,,,,147.37854890000017,None,bureau,59,12,silent,yellow,145.37634499999695,None,None,145.37634499999695,None,,,,,,,,,,,,,,,,,,,,,,,,,,,,,,,,,,,125Scilent,001,2023_Sep_19_0938,ProdSingRedoBetween,2021.2.3,59.97307208893416,
12,0,12,0,,,,,,,,,,,,,,,,,,,,,,,,,,149.89754739999626,None,sleep,22,13,silent,yellow,147.88281129999814,None,None,147.88281129999814,None,,,,,,,,,,,,,,,,,,,,,,,,,,,,,,,,,,,125Scilent,001,2023_Sep_19_0938,ProdSingRedoBetween,2021.2.3,59.97307208893416,
13,0,13,0,,,,,,,,,,,,,,,,,,,,,,,,,,152.39991069999814,None,principal,72,14,silent,red,150.40027859999827,None,None,150.40027859999827,None,,,,,,,,,,,,,,,,,,,,,,,,,,,,,,,,,,,125Scilent,001,2023_Sep_19_0938,ProdSingRedoBetween,2021.2.3,59.97307208893416,
14,0,14,0,,,,,,,,,,,,,,,,,,,,,,,,,,154.90227059999597,None,length,41,15,silent,blue,152.90077799999563,None,None,152.90077799999563,None,,,,,,,,,,,,,,,,,,,,,,,,,,,,,,,,,,,125Scilent,001,2023_Sep_19_0938,ProdSingRedoBetween,2021.2.3,59.97307208893416,
15,0,15,0,,,,,,,,,,,,,,,,,,,,,,,,,,157.40516959999513,None,level,18,16,silent,yellow,155.40468410000176,None,None,155.40468410000176,None,,,,,,,,,,,,,,,,,,,,,,,,,,,,,,,,,,,125Scilent,001,2023_Sep_19_0938,ProdSingRedoBetween,2021.2.3,59.97307208893416,
16,0,16,0,,,,,,,,,,,,,,,,,,,,,,,,,,159.9074829999954,None,speech,32,17,silent,blue,157.9071444000001,None,None,157.9071444000001,None,,,,,,,,,,,,,,,,,,,,,,,,,,,,,,,,,,,125Scilent,001,2023_Sep_19_0938,ProdSingRedoBetween,2021.2.3,59.97307208893416,
17,0,17,0,,,,,,,,,,,,,,,,,,,,,,,,,,162.4101728999958,None,angle,77,18,silent,red,160.4093825999953,None,None,160.4093825999953,None,,,,,,,,,,,,,,,,,,,,,,,,,,,,,,,,,,,125Scilent,001,2023_Sep_19_0938,ProdSingRedoBetween,2021.2.3,59.97307208893416,
18,0,18,0,,,,,,,,,,,,,,,,,,,,,,,,,,164.91258189999644,None,broke,83,19,silent,red,162.91200709999976,None,None,162.91200709999976,None,,,,,,,,,,,,,,,,,,,,,,,,,,,,,,,,,,,125Scilent,001,2023_Sep_19_0938,ProdSingRedoBetween,2021.2.3,59.97307208893416,
19,0,19,0,,,,,,,,,,,,,,,,,,,,,,,,,,167.4150351999997,None,bright,19,20,silent,yellow,165.4148531999963,None,None,165.4148531999963,None,,,,,,,,,,,,,,,,,,,,,,,,,,,,,,,,,,,125Scilent,001,2023_Sep_19_0938,ProdSingRedoBetween,2021.2.3,59.97307208893416,
20,0,20,0,,,,,,,,,,,,,,,,,,,,,,,,,,169.93428870000207,None,question,40,21,silent,blue,167.9250030999974,None,None,167.9250030999974,None,,,,,,,,,,,,,,,,,,,,,,,,,,,,,,,,,,,125Scilent,001,2023_Sep_19_0938,ProdSingRedoBetween,2021.2.3,59.97307208893416,
21,0,21,0,,,,,,,,,,,,,,,,,,,,,,,,,,172.453551599996,None,danger,1,22,silent,yellow,170.43894239999645,None,None,170.43894239999645,None,,,,,,,,,,,,,,,,,,,,,,,,,,,,,,,,,,,125Scilent,001,2023_Sep_19_0938,ProdSingRedoBetween,2021.2.3,59.97307208893416,
22,0,22,0,,,,,,,,,,,,,,,,,,,,,,,,,,174.955784400001,None,charter,65,23,silent,red,172.95376340000075,None,None,172.95376340000075,None,,,,,,,,,,,,,,,,,,,,,,,,,,,,,,,,,,,125Scilent,001,2023_Sep_19_0938,ProdSingRedoBetween,2021.2.3,59.97307208893416,
23,0,23,0,,,,,,,,,,,,,,,,,,,,,,,,,,177.458587000001,None,enemy,71,24,silent,red,175.45682169999782,None,None,175.45682169999782,None,,,,,,,,,,,,,,,,,,,,,,,,,,,,,,,,,,,125Scilent,001,2023_Sep_19_0938,ProdSingRedoBetween,2021.2.3,59.97307208893416,
24,0,24,0,,,,,,,,,,,,,,,,,,,,,,,,,,179.97775849999744,None,fellow,78,25,silent,red,177.96360180000192,None,None,177.96360180000192,None,,,,,,,,,,,,,,,,,,,,,,,,,,,,,,,,,,,125Scilent,001,2023_Sep_19_0938,ProdSingRedoBetween,2021.2.3,59.97307208893416,
25,0,25,0,,,,,,,,,,,,,,,,,,,,,,,,,,182.47994050000125,None,estate,64,26,silent,red,180.4806860999961,None,None,180.4806860999961,None,,,,,,,,,,,,,,,,,,,,,,,,,,,,,,,,,,,125Scilent,001,2023_Sep_19_0938,ProdSingRedoBetween,2021.2.3,59.97307208893416,
26,0,26,0,,,,,,,,,,,,,,,,,,,,,,,,,,184.98236299999553,None,raise,74,27,silent,red,182.98052969999844,None,None,182.98052969999844,None,,,,,,,,,,,,,,,,,,,,,,,,,,,,,,,,,,,125Scilent,001,2023_Sep_19_0938,ProdSingRedoBetween,2021.2.3,59.97307208893416,
27,0,27,0,,,,,,,,,,,,,,,,,,,,,,,,,,187.50207930000033,None,victory,56,28,silent,blue,185.49864349999552,None,None,185.49864349999552,None,,,,,,,,,,,,,,,,,,,,,,,,,,,,,,,,,,,125Scilent,001,2023_Sep_19_0938,ProdSingRedoBetween,2021.2.3,59.97307208893416,
28,0,28,0,,,,,,,,,,,,,,,,,,,,,,,,,,190.00438729999587,None,under,53,29,silent,blue,188.00419059999695,None,None,188.00419059999695,None,,,,,,,,,,,,,,,,,,,,,,,,,,,,,,,,,,,125Scilent,001,2023_Sep_19_0938,ProdSingRedoBetween,2021.2.3,59.97307208893416,
29,0,29,0,,,,,,,,,,,,,,,,,,,,,,,,,,192.52329810000083,None,whole,50,30,silent,blue,190.51041760000226,None,None,190.51041760000226,None,,,,,,,,,,,,,,,,,,,,,,,,,,,,,,,,,,,125Scilent,001,2023_Sep_19_0938,ProdSingRedoBetween,2021.2.3,59.97307208893416,
30,0,30,0,,,,,,,,,,,,,,,,,,,,,,,,,,195.02608699999837,None,sunset,3,31,silent,yellow,193.02385630000208,None,None,193.02385630000208,None,,,,,,,,,,,,,,,,,,,,,,,,,,,,,,,,,,,125Scilent,001,2023_Sep_19_0938,ProdSingRedoBetween,2021.2.3,59.97307208893416,
31,0,31,0,,,,,,,,,,,,,,,,,,,,,,,,,,197.52830069999618,None,capital,27,32,silent,yellow,195.52912790000119,None,None,195.52912790000119,None,,,,,,,,,,,,,,,,,,,,,,,,,,,,,,,,,,,125Scilent,001,2023_Sep_19_0938,ProdSingRedoBetween,2021.2.3,59.97307208893416,
32,0,32,0,,,,,,,,,,,,,,,,,,,,,,,,,,200.0311445999978,None,passage,47,33,silent,blue,198.02967859999626,None,None,198.02967859999626,None,,,,,,,,,,,,,,,,,,,,,,,,,,,,,,,,,,,125Scilent,001,2023_Sep_19_0938,ProdSingRedoBetween,2021.2.3,59.97307208893416,
33,0,33,0,,,,,,,,,,,,,,,,,,,,,,,,,,202.55009150000114,None,second,31,34,silent,blue,200.5357221000013,None,None,200.5357221000013,None,,,,,,,,,,,,,,,,,,,,,,,,,,,,,,,,,,,125Scilent,001,2023_Sep_19_0938,ProdSingRedoBetween,2021.2.3,59.97307208893416,
34,0,34,0,,,,,,,,,,,,,,,,,,,,,,,,,,205.05272500000137,None,attack,10,35,silent,yellow,203.05108259999542,None,None,203.05108259999542,None,,,,,,,,,,,,,,,,,,,,,,,,,,,,,,,,,,,125Scilent,001,2023_Sep_19_0938,ProdSingRedoBetween,2021.2.3,59.97307208893416,
35,0,35,0,,,,,,,,,,,,,,,,,,,,,,,,,,207.55539329999738,None,meeting,15,36,silent,yellow,205.55580740000005,None,None,205.55580740000005,None,,,,,,,,,,,,,,,,,,,,,,,,,,,,,,,,,,,125Scilent,001,2023_Sep_19_0938,ProdSingRedoBetween,2021.2.3,59.97307208893416,
36,0,36,0,,,,,,,,,,,,,,,,,,,,,,,,,,210.07431820000056,None,business,38,37,silent,blue,208.06132799999614,None,None,208.06132799999614,None,,,,,,,,,,,,,,,,,,,,,,,,,,,,,,,,,,,125Scilent,001,2023_Sep_19_0938,ProdSingRedoBetween,2021.2.3,59.97307208893416,
37,0,37,0,,,,,,,,,,,,,,,,,,,,,,,,,,212.57696230000147,None,period,73,38,silent,red,210.5776723999952,None,None,210.5776723999952,None,,,,,,,,,,,,,,,,,,,,,,,,,,,,,,,,,,,125Scilent,001,2023_Sep_19_0938,ProdSingRedoBetween,2021.2.3,59.97307208893416,
38,0,38,0,,,,,,,,,,,,,,,,,,,,,,,,,,215.0960522999958,None,motion,25,39,silent,yellow,213.08877660000144,None,None,213.08877660000144,None,,,,,,,,,,,,,,,,,,,,,,,,,,,,,,,,,,,125Scilent,001,2023_Sep_19_0938,ProdSingRedoBetween,2021.2.3,59.97307208893416,
39,0,39,0,,,,,,,,,,,,,,,,,,,,,,,,,,217.59829819999868,None,youth,6,40,silent,yellow,215.59696090000216,None,None,215.59696090000216,None,,,,,,,,,,,,,,,,,,,,,,,,,,,,,,,,,,,125Scilent,001,2023_Sep_19_0938,ProdSingRedoBetween,2021.2.3,59.97307208893416,
40,0,40,0,,,,,,,,,,,,,,,,,,,,,,,,,,220.11833549999574,None,title,54,41,silent,blue,218.102023499996,None,None,218.102023499996,None,,,,,,,,,,,,,,,,,,,,,,,,,,,,,,,,,,,125Scilent,001,2023_Sep_19_0938,ProdSingRedoBetween,2021.2.3,59.97307208893416,
41,0,41,0,,,,,,,,,,,,,,,,,,,,,,,,,,222.63682349999726,None,minor,62,42,silent,red,220.6334740999955,None,None,220.6334740999955,None,,,,,,,,,,,,,,,,,,,,,,,,,,,,,,,,,,,125Scilent,001,2023_Sep_19_0938,ProdSingRedoBetween,2021.2.3,59.97307208893416,
42,0,42,0,,,,,,,,,,,,,,,,,,,,,,,,,,225.13953259999835,None,pressure,5,43,silent,yellow,223.14003560000128,None,None,223.14003560000128,None,,,,,,,,,,,,,,,,,,,,,,,,,,,,,,,,,,,125Scilent,001,2023_Sep_19_0938,ProdSingRedoBetween,2021.2.3,59.97307208893416,
43,0,43,0,,,,,,,,,,,,,,,,,,,,,,,,,,227.6585993999979,None,taste,29,44,silent,blue,225.64423800000077,None,None,225.64423800000077,None,,,,,,,,,,,,,,,,,,,,,,,,,,,,,,,,,,,125Scilent,001,2023_Sep_19_0938,ProdSingRedoBetween,2021.2.3,59.97307208893416,
44,0,44,0,,,,,,,,,,,,,,,,,,,,,,,,,,230.1779056000014,None,oxygen,66,45,silent,red,228.16747000000032,None,None,228.16747000000032,None,,,,,,,,,,,,,,,,,,,,,,,,,,,,,,,,,,,125Scilent,001,2023_Sep_19_0938,ProdSingRedoBetween,2021.2.3,59.97307208893416,
45,0,45,0,,,,,,,,,,,,,,,,,,,,,,,,,,232.69684219999908,None,foundation,28,46,silent,yellow,230.69364420000056,None,None,230.69364420000056,None,,,,,,,,,,,,,,,,,,,,,,,,,,,,,,,,,,,125Scilent,001,2023_Sep_19_0938,ProdSingRedoBetween,2021.2.3,59.97307208893416,
46,0,46,0,,,,,,,,,,,,,,,,,,,,,,,,,,235.1997207999957,None,trend,45,47,silent,blue,233.19725820000167,None,None,233.19725820000167,None,,,,,,,,,,,,,,,,,,,,,,,,,,,,,,,,,,,125Scilent,001,2023_Sep_19_0938,ProdSingRedoBetween,2021.2.3,59.97307208893416,
47,0,47,0,,,,,,,,,,,,,,,,,,,,,,,,,,237.71847479999997,None,style,37,48,silent,blue,235.70586509999703,None,None,235.70586509999703,None,,,,,,,,,,,,,,,,,,,,,,,,,,,,,,,,,,,125Scilent,001,2023_Sep_19_0938,ProdSingRedoBetween,2021.2.3,59.97307208893416,
48,0,48,0,,,,,,,,,,,,,,,,,,,,,,,,,,240.22118899999623,None,curve,76,49,silent,red,238.2189784000002,None,None,238.2189784000002,None,,,,,,,,,,,,,,,,,,,,,,,,,,,,,,,,,,,125Scilent,001,2023_Sep_19_0938,ProdSingRedoBetween,2021.2.3,59.97307208893416,
49,0,49,0,,,,,,,,,,,,,,,,,,,,,,,,,,242.72359719999804,None,tough,46,50,silent,blue,240.7223438000001,None,None,240.7223438000001,None,,,,,,,,,,,,,,,,,,,,,,,,,,,,,,,,,,,125Scilent,001,2023_Sep_19_0938,ProdSingRedoBetween,2021.2.3,59.97307208893416,
50,0,50,0,,,,,,,,,,,,,,,,,,,,,,,,,,245.22584300000017,None,reading,21,51,silent,yellow,243.22676389999833,None,None,243.22676389999833,None,,,,,,,,,,,,,,,,,,,,,,,,,,,,,,,,,,,125Scilent,001,2023_Sep_19_0938,ProdSingRedoBetween,2021.2.3,59.97307208893416,
51,0,51,0,,,,,,,,,,,,,,,,,,,,,,,,,,247.72884299999714,None,sweet,84,52,silent,red,245.72672089999833,None,None,245.72672089999833,None,,,,,,,,,,,,,,,,,,,,,,,,,,,,,,,,,,,125Scilent,001,2023_Sep_19_0938,ProdSingRedoBetween,2021.2.3,59.97307208893416,
52,0,52,0,,,,,,,,,,,,,,,,,,,,,,,,,,250.24745399999665,None,season,8,53,silent,yellow,248.23523710000154,None,None,248.23523710000154,None,,,,,,,,,,,,,,,,,,,,,,,,,,,,,,,,,,,125Scilent,001,2023_Sep_19_0938,ProdSingRedoBetween,2021.2.3,59.97307208893416,
53,0,53,0,,,,,,,,,,,,,,,,,,,,,,,,,,252.76671099999658,None,partner,80,54,silent,red,250.7515207999968,None,None,250.7515207999968,None,,,,,,,,,,,,,,,,,,,,,,,,,,,,,,,,,,,125Scilent,001,2023_Sep_19_0938,ProdSingRedoBetween,2021.2.3,59.97307208893416,
54,0,54,0,,,,,,,,,,,,,,,,,,,,,,,,,,255.26949939999758,None,guard,12,55,silent,yellow,253.26784880000196,None,None,253.26784880000196,None,,,,,,,,,,,,,,,,,,,,,,,,,,,,,,,,,,,125Scilent,001,2023_Sep_19_0938,ProdSingRedoBetween,2021.2.3,59.97307208893416,
55,0,55,0,,,,,,,,,,,,,,,,,,,,,,,,,,257.788905100002,None,vision,35,56,silent,blue,255.77453609999793,None,None,255.77453609999793,None,,,,,,,,,,,,,,,,,,,,,,,,,,,,,,,,,,,125Scilent,001,2023_Sep_19_0938,ProdSingRedoBetween,2021.2.3,59.97307208893416,
56,0,56,0,,,,,,,,,,,,,,,,,,,,,,,,,,260.30805990000226,None,straight,70,57,silent,red,258.29364489999716,None,None,258.29364489999716,None,,,,,,,,,,,,,,,,,,,,,,,,,,,,,,,,,,,125Scilent,001,2023_Sep_19_0938,ProdSingRedoBetween,2021.2.3,59.97307208893416,
57,0,57,0,,,,,,,,,,,,,,,,,,,,,,,,,,262.8106157000002,None,place,17,58,silent,yellow,260.8118727999972,None,None,260.8118727999972,None,,,,,,,,,,,,,,,,,,,,,,,,,,,,,,,,,,,125Scilent,001,2023_Sep_19_0938,ProdSingRedoBetween,2021.2.3,59.97307208893416,
58,0,58,0,,,,,,,,,,,,,,,,,,,,,,,,,,265.32932369999617,None,chief,20,59,silent,yellow,263.3155184999996,None,None,263.3155184999996,None,,,,,,,,,,,,,,,,,,,,,,,,,,,,,,,,,,,125Scilent,001,2023_Sep_19_0938,ProdSingRedoBetween,2021.2.3,59.97307208893416,
59,0,59,0,,,,,,,,,,,,,,,,,,,,,,,,,,267.8318755,None,surface,2,60,silent,yellow,265.83015299999533,None,None,265.83015299999533,None,,,,,,,,,,,,,,,,,,,,,,,,,,,,,,,,,,,125Scilent,001,2023_Sep_19_0938,ProdSingRedoBetween,2021.2.3,59.97307208893416,
60,0,60,0,,,,,,,,,,,,,,,,,,,,,,,,,,270.3343348999988,None,birth,79,61,silent,red,268.3351868999962,None,None,268.3351868999962,None,,,,,,,,,,,,,,,,,,,,,,,,,,,,,,,,,,,125Scilent,001,2023_Sep_19_0938,ProdSingRedoBetween,2021.2.3,59.97307208893416,
61,0,61,0,,,,,,,,,,,,,,,,,,,,,,,,,,272.85353490000125,None,patient,89,62,silent,red,270.83957469999586,None,None,270.83957469999586,None,,,,,,,,,,,,,,,,,,,,,,,,,,,,,,,,,,,125Scilent,001,2023_Sep_19_0938,ProdSingRedoBetween,2021.2.3,59.97307208893416,
62,0,62,0,,,,,,,,,,,,,,,,,,,,,,,,,,275.3563198999982,None,weight,33,63,silent,blue,273.35385159999714,None,None,273.35385159999714,None,,,,,,,,,,,,,,,,,,,,,,,,,,,,,,,,,,,125Scilent,001,2023_Sep_19_0938,ProdSingRedoBetween,2021.2.3,59.97307208893416,
63,0,63,0,,,,,,,,,,,,,,,,,,,,,,,,,,277.8587735999972,None,region,39,64,silent,blue,275.8589737000002,None,None,275.8589737000002,None,,,,,,,,,,,,,,,,,,,,,,,,,,,,,,,,,,,125Scilent,001,2023_Sep_19_0938,ProdSingRedoBetween,2021.2.3,59.97307208893416,
64,0,64,0,,,,,,,,,,,,,,,,,,,,,,,,,,280.37811409999995,None,silence,48,65,silent,blue,278.3629463999969,None,None,278.3629463999969,None,,,,,,,,,,,,,,,,,,,,,,,,,,,,,,,,,,,125Scilent,001,2023_Sep_19_0938,ProdSingRedoBetween,2021.2.3,59.97307208893416,
65,0,65,0,,,,,,,,,,,,,,,,,,,,,,,,,,282.8971386999983,None,crisis,7,66,silent,yellow,280.8816631000009,None,None,280.8816631000009,None,,,,,,,,,,,,,,,,,,,,,,,,,,,,,,,,,,,125Scilent,001,2023_Sep_19_0938,ProdSingRedoBetween,2021.2.3,59.97307208893416,
66,0,66,0,,,,,,,,,,,,,,,,,,,,,,,,,,285.39959899999667,None,finance,61,67,silent,red,283.3988687000019,None,None,283.3988687000019,None,,,,,,,,,,,,,,,,,,,,,,,,,,,,,,,,,,,125Scilent,001,2023_Sep_19_0938,ProdSingRedoBetween,2021.2.3,59.97307208893416,
67,0,67,0,,,,,,,,,,,,,,,,,,,,,,,,,,287.90238809999573,None,guest,49,68,silent,blue,285.9014160000006,None,None,285.9014160000006,None,,,,,,,,,,,,,,,,,,,,,,,,,,,,,,,,,,,125Scilent,001,2023_Sep_19_0938,ProdSingRedoBetween,2021.2.3,59.97307208893416,
68,0,68,0,,,,,,,,,,,,,,,,,,,,,,,,,,290.42148189999716,None,position,67,69,silent,red,288.4077827000001,None,None,288.4077827000001,None,,,,,,,,,,,,,,,,,,,,,,,,,,,,,,,,,,,125Scilent,001,2023_Sep_19_0938,ProdSingRedoBetween,2021.2.3,59.97307208893416,
69,0,69,0,,,,,,,,,,,,,,,,,,,,,,,,,,292.94027169999754,None,appeal,55,70,silent,blue,290.9248669000008,None,None,290.9248669000008,None,,,,,,,,,,,,,,,,,,,,,,,,,,,,,,,,,,,125Scilent,001,2023_Sep_19_0938,ProdSingRedoBetween,2021.2.3,59.97307208893416,
70,0,70,0,,,,,,,,,,,,,,,,,,,,,,,,,,295.44298770000023,None,committee,26,71,silent,yellow,293.4440700999985,None,None,293.4440700999985,None,,,,,,,,,,,,,,,,,,,,,,,,,,,,,,,,,,,125Scilent,001,2023_Sep_19_0938,ProdSingRedoBetween,2021.2.3,59.97307208893416,
71,0,71,0,,,,,,,,,,,,,,,,,,,,,,,,,,297.9623164000004,None,bucket,30,72,silent,blue,295.95400379999774,None,None,295.95400379999774,None,,,,,,,,,,,,,,,,,,,,,,,,,,,,,,,,,,,125Scilent,001,2023_Sep_19_0938,ProdSingRedoBetween,2021.2.3,59.97307208893416,
72,0,72,0,,,,,,,,,,,,,,,,,,,,,,,,,,300.4810462000023,None,dozen,69,73,silent,red,298.4671950999982,None,None,298.4671950999982,None,,,,,,,,,,,,,,,,,,,,,,,,,,,,,,,,,,,125Scilent,001,2023_Sep_19_0938,ProdSingRedoBetween,2021.2.3,59.97307208893416,
73,0,73,0,,,,,,,,,,,,,,,,,,,,,,,,,,302.9836634999956,None,session,81,74,silent,red,300.9831817000013,None,None,300.9831817000013,None,,,,,,,,,,,,,,,,,,,,,,,,,,,,,,,,,,,125Scilent,001,2023_Sep_19_0938,ProdSingRedoBetween,2021.2.3,59.97307208893416,
74,0,74,0,,,,,,,,,,,,,,,,,,,,,,,,,,305.48622059999616,None,working,68,75,silent,red,303.48663130000205,None,None,303.48663130000205,None,,,,,,,,,,,,,,,,,,,,,,,,,,,,,,,,,,,125Scilent,001,2023_Sep_19_0938,ProdSingRedoBetween,2021.2.3,59.97307208893416,
75,0,75,0,,,,,,,,,,,,,,,,,,,,,,,,,,308.00564830000076,None,beginning,36,76,silent,blue,305.99430169999687,None,None,305.99430169999687,None,,,,,,,,,,,,,,,,,,,,,,,,,,,,,,,,,,,125Scilent,001,2023_Sep_19_0938,ProdSingRedoBetween,2021.2.3,59.97307208893416,
76,0,76,0,,,,,,,,,,,,,,,,,,,,,,,,,,310.50793229999545,None,bicycle,9,77,silent,yellow,308.5083683999983,None,None,308.5083683999983,None,,,,,,,,,,,,,,,,,,,,,,,,,,,,,,,,,,,125Scilent,001,2023_Sep_19_0938,ProdSingRedoBetween,2021.2.3,59.97307208893416,
77,0,77,0,,,,,,,,,,,,,,,,,,,,,,,,,,313.0103847999999,None,express,0,78,silent,yellow,311.0094087999969,None,None,311.0094087999969,None,,,,,,,,,,,,,,,,,,,,,,,,,,,,,,,,,,,125Scilent,001,2023_Sep_19_0938,ProdSingRedoBetween,2021.2.3,59.97307208893416,
78,0,78,0,,,,,,,,,,,,,,,,,,,,,,,,,,315.5131990000009,None,discovery,57,79,silent,blue,313.5121528999953,None,None,313.5121528999953,None,,,,,,,,,,,,,,,,,,,,,,,,,,,,,,,,,,,125Scilent,001,2023_Sep_19_0938,ProdSingRedoBetween,2021.2.3,59.97307208893416,
79,0,79,0,,,,,,,,,,,,,,,,,,,,,,,,,,318.03221620000113,None,industry,42,80,silent,blue,316.0180151999957,None,None,316.0180151999957,None,,,,,,,,,,,,,,,,,,,,,,,,,,,,,,,,,,,125Scilent,001,2023_Sep_19_0938,ProdSingRedoBetween,2021.2.3,59.97307208893416,
80,0,80,0,,,,,,,,,,,,,,,,,,,,,,,,,,320.55158500000107,None,quantity,34,81,silent,blue,318.53715250000096,None,None,318.53715250000096,None,,,,,,,,,,,,,,,,,,,,,,,,,,,,,,,,,,,125Scilent,001,2023_Sep_19_0938,ProdSingRedoBetween,2021.2.3,59.97307208893416,
81,0,81,0,,,,,,,,,,,,,,,,,,,,,,,,,,323.0538837999993,None,force,51,82,silent,blue,321.053633800002,None,None,321.053633800002,None,,,,,,,,,,,,,,,,,,,,,,,,,,,,,,,,,,,125Scilent,001,2023_Sep_19_0938,ProdSingRedoBetween,2021.2.3,59.97307208893416,
82,0,82,0,,,,,,,,,,,,,,,,,,,,,,,,,,325.572811799997,None,solution,52,83,silent,blue,323.56738069999847,None,None,323.56738069999847,None,,,,,,,,,,,,,,,,,,,,,,,,,,,,,,,,,,,125Scilent,001,2023_Sep_19_0938,ProdSingRedoBetween,2021.2.3,59.97307208893416,
83,0,83,0,,,,,,,,,,,,,,,,,,,,,,,,,,328.0753814999989,None,shock,16,84,silent,yellow,326.073834099996,None,None,326.073834099996,None,,,,,,,,,,,,,,,,,,,,,,,,,,,,,,,,,,,125Scilent,001,2023_Sep_19_0938,ProdSingRedoBetween,2021.2.3,59.97307208893416,
84,0,84,0,,,,,,,,,,,,,,,,,,,,,,,,,,330.59500589999516,None,general,85,85,silent,red,328.5861456999992,None,None,328.5861456999992,None,,,,,,,,,,,,,,,,,,,,,,,,,,,,,,,,,,,125Scilent,001,2023_Sep_19_0938,ProdSingRedoBetween,2021.2.3,59.97307208893416,
85,0,85,0,,,,,,,,,,,,,,,,,,,,,,,,,,333.1140402999954,None,drove,63,86,silent,red,331.098476799998,None,None,331.098476799998,None,,,,,,,,,,,,,,,,,,,,,,,,,,,,,,,,,,,125Scilent,001,2023_Sep_19_0938,ProdSingRedoBetween,2021.2.3,59.97307208893416,
86,0,86,0,,,,,,,,,,,,,,,,,,,,,,,,,,335.63298139999824,None,company,60,87,silent,red,333.61837260000175,None,None,333.61837260000175,None,,,,,,,,,,,,,,,,,,,,,,,,,,,,,,,,,,,125Scilent,001,2023_Sep_19_0938,ProdSingRedoBetween,2021.2.3,59.97307208893416,
87,0,87,0,,,,,,,,,,,,,,,,,,,,,,,,,,338.1359519999969,None,property,43,88,silent,blue,336.13339460000134,None,None,336.13339460000134,None,,,,,,,,,,,,,,,,,,,,,,,,,,,,,,,,,,,125Scilent,001,2023_Sep_19_0938,ProdSingRedoBetween,2021.2.3,59.97307208893416,
88,0,88,0,,,,,,,,,,,,,,,,,,,,,,,,,,340.6381876000014,None,comfort,75,89,silent,red,338.63735469999665,None,None,338.63735469999665,None,,,,,,,,,,,,,,,,,,,,,,,,,,,,,,,,,,,125Scilent,001,2023_Sep_19_0938,ProdSingRedoBetween,2021.2.3,59.97307208893416,
89,0,89,0,,,,,,,,,,,,,,,,,,,,,,,,,,343.14068589999806,None,device,13,90,silent,yellow,341.13983819999703,None,None,341.13983819999703,None,,,,,,,,,,,,,,,,,,,,,,,,,,,,,,,,,,,125Scilent,001,2023_Sep_19_0938,ProdSingRedoBetween,2021.2.3,59.97307208893416,
,,,,,,,,,,,,,,,,,,,,,,,,,,,,,,,,,,,,,,,,,343.64120340000227,None,k,35.49934750000102,343.64120340000227,None,,,,,,,,,,,,,,,,,,,,,,,,,,,,,125Scilent,001,2023_Sep_19_0938,ProdSingRedoBetween,2021.2.3,59.97307208893416,
,,,,0,0,0,0,,,,,,,,,,,,,,,,,,,,,,456.5726138999962,None,,,,,,,,,,,,,,,,,scale,121,1,silent,new,null,379.68388550000236,None,379.68388550000236,None,4,44.46455569999671,379.68388550000236,None,44.46455569999671,424.174339600002,None,424.696715500002,None,424.696715500002,None,r,31.84369439999864,424.696715500002,None,31.84369439999864,,,125Scilent,001,2023_Sep_19_0938,ProdSingRedoBetween,2021.2.3,59.97307208893416,
,,,,1,0,1,0,,,,,,,,,,,,,,,,,,,,,,462.5277438999983,None,,,,,,,,,,,,,,,,,heavy,11,2,silent,old,yellow,457.0938068999967,None,457.0938068999967,None,1,2.2305858000036096,457.0938068999967,None,2.2305858000036096,459.34218770000007,None,459.8576358999999,None,459.8576358999999,None,n,2.65077790000214,459.8576358999999,None,2.65077790000214,,,125Scilent,001,2023_Sep_19_0938,ProdSingRedoBetween,2021.2.3,59.97307208893416,
,,,,2,0,2,0,,,,,,,,,,,,,,,,,,,,,,467.98320709999825,None,,,,,,,,,,,,,,,,,passage,47,3,silent,old,blue,463.03195229999983,None,463.03195229999983,None,1,2.884399000002304,463.03195229999983,None,2.884399000002304,465.94843930000206,None,466.463754700002,None,466.463754700002,None,n,1.4927534999951604,466.463754700002,None,1.4927534999951604,,,125Scilent,001,2023_Sep_19_0938,ProdSingRedoBetween,2021.2.3,59.97307208893416,
,,,,3,0,3,0,,,,,,,,,,,,,,,,,,,,,,475.3244562999971,None,,,,,,,,,,,,,,,,,worker,166,4,silent,new,null,468.4934863000017,None,468.4934863000017,None,1,4.638918200005719,468.4934863000017,None,4.638918200005719,473.1586784999963,None,473.6713505000007,None,473.6713505000007,None,n,1.6210687999991933,473.6713505000007,None,1.6210687999991933,,,125Scilent,001,2023_Sep_19_0938,ProdSingRedoBetween,2021.2.3,59.97307208893416,
,,,,4,0,4,0,,,,,,,,,,,,,,,,,,,,,,480.6962993999987,None,,,,,,,,,,,,,,,,,accident,93,5,silent,new,null,475.8416948000013,None,475.8416948000013,None,2,2.386749899997085,475.8416948000013,None,2.386749899997085,478.2627816000022,None,478.7758873999992,None,478.7758873999992,None,n,1.8925203999970108,478.7758873999992,None,1.8925203999970108,,,125Scilent,001,2023_Sep_19_0938,ProdSingRedoBetween,2021.2.3,59.97307208893416,
,,,,5,0,5,0,,,,,,,,,,,,,,,,,,,,,,488.0527251999956,None,,,,,,,,,,,,,,,,,estate,64,6,silent,old,red,481.19937319999735,None,481.19937319999735,None,3,4.756983600003878,481.19937319999735,None,4.756983600003878,485.9861086999954,None,486.5138103999998,None,486.5138103999998,None,f,1.5145355000058771,486.5138103999998,None,1.5145355000058771,,,125Scilent,001,2023_Sep_19_0938,ProdSingRedoBetween,2021.2.3,59.97307208893416,
,,,,6,0,6,0,,,,,,,,,,,,,,,,,,,,,,492.89072509999824,None,,,,,,,,,,,,,,,,,growth,155,7,silent,new,null,488.5728108999974,None,488.5728108999974,None,3,2.06374820000201,488.5728108999974,None,2.06374820000201,490.6596159999972,None,491.1732381999973,None,491.1732381999973,None,f,1.6871457999950508,491.1732381999973,None,1.6871457999950508,,,125Scilent,001,2023_Sep_19_0938,ProdSingRedoBetween,2021.2.3,59.97307208893416,
,,,,7,0,7,0,,,,,,,,,,,,,,,,,,,,,,498.5112464999984,None,,,,,,,,,,,,,,,,,series,82,8,silent,old,red,493.39349099999527,None,493.39349099999527,None,6,2.762940400003572,493.39349099999527,None,2.762940400003572,496.17997269999614,None,496.693852299999,None,496.693852299999,None,r,1.7745888999997987,496.693852299999,None,1.7745888999997987,,,125Scilent,001,2023_Sep_19_0938,ProdSingRedoBetween,2021.2.3,59.97307208893416,
,,,,8,0,8,0,,,,,,,,,,,,,,,,,,,,,,503.3359341999967,None,,,,,,,,,,,,,,,,,tough,46,9,silent,old,blue,499.0188479999997,None,499.0188479999997,None,6,2.609665199997835,499.0188479999997,None,2.609665199997835,501.6550606000019,None,502.1659346000015,None,502.1659346000015,None,r,1.1506836999978987,502.1659346000015,None,1.1506836999978987,,,125Scilent,001,2023_Sep_19_0938,ProdSingRedoBetween,2021.2.3,59.97307208893416,
,,,,9,0,9,0,,,,,,,,,,,,,,,,,,,,,,508.35586319999857,None,,,,,,,,,,,,,,,,,exchange,90,10,silent,new,null,503.8574671999959,None,503.8574671999959,None,4,2.49091480000061,503.8574671999959,None,2.49091480000061,506.3725276999976,None,506.8909180999981,None,506.8909180999981,None,f,1.4334262999982457,506.8909180999981,None,1.4334262999982457,,,125Scilent,001,2023_Sep_19_0938,ProdSingRedoBetween,2021.2.3,59.97307208893416,
,,,,10,0,10,0,,,,,,,,,,,,,,,,,,,,,,511.60980050000217,None,,,,,,,,,,,,,,,,,signal,125,11,silent,new,null,508.86239389999537,None,508.86239389999537,None,4,2.0139825999940513,508.86239389999537,None,2.0139825999940513,510.89363559999765,None,511.3970276999971,None,511.3970276999971,None,f,0.1835164000003715,511.3970276999971,None,0.1835164000003715,,,125Scilent,001,2023_Sep_19_0938,ProdSingRedoBetween,2021.2.3,59.97307208893416,
,,,,11,0,11,0,,,,,,,,,,,,,,,,,,,,,,516.9506815999994,None,,,,,,,,,,,,,,,,,plane,123,12,silent,new,null,512.1218871000019,None,512.1218871000019,None,1,2.8024733000056585,512.1218871000019,None,2.8024733000056585,514.9514682000008,None,515.4746524000002,None,515.4746524000002,None,n,1.457822299998952,515.4746524000002,None,1.457822299998952,,,125Scilent,001,2023_Sep_19_0938,ProdSingRedoBetween,2021.2.3,59.97307208893416,
,,,,12,0,12,0,,,,,,,,,,,,,,,,,,,,,,523.3862569999983,None,,,,,,,,,,,,,,,,,fight,149,13,silent,new,null,517.4703376999969,None,517.4703376999969,None,4,2.9581029000037233,517.4703376999969,None,2.9581029000037233,520.4594175999955,None,520.9699504999953,None,520.9699504999953,None,f,2.370465100000729,520.9699504999953,None,2.370465100000729,,,125Scilent,001,2023_Sep_19_0938,ProdSingRedoBetween,2021.2.3,59.97307208893416,
,,,,13,0,13,0,,,,,,,,,,,,,,,,,,,,,,528.3428150999971,None,,,,,,,,,,,,,,,,,watch,112,14,silent,new,null,523.8916218000013,None,523.8916218000013,None,6,2.8569848999977694,523.8916218000013,None,2.8569848999977694,526.7775639999963,None,527.2909272999968,None,527.2909272999968,None,r,1.0335562000036589,527.2909272999968,None,1.0335562000036589,,,125Scilent,001,2023_Sep_19_0938,ProdSingRedoBetween,2021.2.3,59.97307208893416,
,,,,14,0,14,0,,,,,,,,,,,,,,,,,,,,,,532.3818231999976,None,,,,,,,,,,,,,,,,,industry,42,15,silent,old,blue,528.853282600001,None,528.853282600001,None,4,1.8794640000051004,528.853282600001,None,1.8794640000051004,530.7866852000006,None,531.3003380000009,None,531.3003380000009,None,f,1.0640724999975646,531.3003380000009,None,1.0640724999975646,,,125Scilent,001,2023_Sep_19_0938,ProdSingRedoBetween,2021.2.3,59.97307208893416,
,,,,15,0,15,0,,,,,,,,,,,,,,,,,,,,,,535.8648546999975,None,,,,,,,,,,,,,,,,,second,31,16,silent,old,blue,532.9115535999954,None,532.9115535999954,None,5,2.076741700002458,532.9115535999954,None,2.076741700002458,535.0188857999965,None,535.5332458999983,None,535.5332458999983,None,f,0.2951374999975087,535.5332458999983,None,0.2951374999975087,,,125Scilent,001,2023_Sep_19_0938,ProdSingRedoBetween,2021.2.3,59.97307208893416,
,,,,16,0,16,0,,,,,,,,,,,,,,,,,,,,,,539.2850340000005,None,,,,,,,,,,,,,,,,,sweet,84,17,silent,old,red,536.371536300001,None,536.371536300001,None,6,2.0568643000005977,536.371536300001,None,2.0568643000005977,538.4545693999971,None,538.9695741999967,None,538.9695741999967,None,f,0.2748626999964472,538.9695741999967,None,0.2748626999964472,,,125Scilent,001,2023_Sep_19_0938,ProdSingRedoBetween,2021.2.3,59.97307208893416,
,,,,17,0,17,0,,,,,,,,,,,,,,,,,,,,,,542.9424768999961,None,,,,,,,,,,,,,,,,,style,37,18,silent,old,blue,539.7943904999993,None,539.7943904999993,None,6,2.32201730000088,539.7943904999993,None,2.32201730000088,542.1434504999997,None,542.6602188999968,None,542.6602188999968,None,r,0.2641626999975415,542.6602188999968,None,0.2641626999975415,,,125Scilent,001,2023_Sep_19_0938,ProdSingRedoBetween,2021.2.3,59.97307208893416,
,,,,18,0,18,0,,,,,,,,,,,,,,,,,,,,,,545.4597044999973,None,,,,,,,,,,,,,,,,,shock,16,19,silent,old,yellow,543.4615722000017,None,543.4615722000017,None,6,1.1588314000036917,543.4615722000017,None,1.1588314000036917,544.6497989999989,None,545.1589899999963,None,545.1589899999963,None,r,0.26941159999842057,545.1589899999963,None,0.26941159999842057,,,125Scilent,001,2023_Sep_19_0938,ProdSingRedoBetween,2021.2.3,59.97307208893416,
,,,,19,0,19,0,,,,,,,,,,,,,,,,,,,,,,548.5487866999974,None,,,,,,,,,,,,,,,,,position,67,20,silent,old,red,545.962279899999,None,545.962279899999,None,5,1.650325900001917,545.962279899999,None,1.650325900001917,547.637012799998,None,548.1475132999985,None,548.1475132999985,None,f,0.3689957000024151,548.1475132999985,None,0.3689957000024151,,,125Scilent,001,2023_Sep_19_0938,ProdSingRedoBetween,2021.2.3,59.97307208893416,
,,,,20,0,20,0,,,,,,,,,,,,,,,,,,,,,,552.3675383000009,None,,,,,,,,,,,,,,,,,charter,65,21,silent,old,red,549.0633306999953,None,549.0633306999953,None,6,2.6210757000008016,549.0633306999953,None,2.6210757000008016,551.7031104999987,None,552.218191699998,None,552.218191699998,None,r,0.12224779999814928,552.218191699998,None,0.12224779999814928,,,125Scilent,001,2023_Sep_19_0938,ProdSingRedoBetween,2021.2.3,59.97307208893416,
,,,,21,0,21,0,,,,,,,,,,,,,,,,,,,,,,558.7576489999992,None,,,,,,,,,,,,,,,,,minor,62,22,silent,old,red,552.8687830999988,None,552.8687830999988,None,1,1.6795992999977898,552.8687830999988,None,1.6795992999977898,554.5762883999996,None,555.0854647000015,None,555.0854647000015,None,n,3.654960400002892,555.0854647000015,None,3.654960400002892,,,125Scilent,001,2023_Sep_19_0938,ProdSingRedoBetween,2021.2.3,59.97307208893416,
,,,,22,0,22,0,,,,,,,,,,,,,,,,,,,,,,563.7467885000005,None,,,,,,,,,,,,,,,,,management,137,23,silent,new,null,559.2736461999957,None,559.2736461999957,None,6,2.786716399998113,559.2736461999957,None,2.786716399998113,562.0803725000005,None,562.593022699999,None,562.593022699999,None,n,1.1313136999960989,562.593022699999,None,1.1313136999960989,,,125Scilent,001,2023_Sep_19_0938,ProdSingRedoBetween,2021.2.3,59.97307208893416,
,,,,23,0,23,0,,,,,,,,,,,,,,,,,,,,,,567.6152244999976,None,,,,,,,,,,,,,,,,,burden,94,24,silent,new,null,564.2639598999958,None,564.2639598999958,None,3,1.7883513999986462,564.2639598999958,None,1.7883513999986462,566.0814484000002,None,566.5969694000014,None,566.5969694000014,None,n,0.9913642000028631,566.5969694000014,None,0.9913642000028631,,,125Scilent,001,2023_Sep_19_0938,ProdSingRedoBetween,2021.2.3,59.97307208893416,
,,,,24,0,24,0,,,,,,,,,,,,,,,,,,,,,,570.6017395000017,None,,,,,,,,,,,,,,,,,relation,14,25,silent,old,yellow,568.1202205000009,None,568.1202205000009,None,6,1.6921852000014042,568.1202205000009,None,1.6921852000014042,569.8374855000002,None,570.3527635999999,None,570.3527635999999,None,f,0.22761549999995623,570.3527635999999,None,0.22761549999995623,,,125Scilent,001,2023_Sep_19_0938,ProdSingRedoBetween,2021.2.3,59.97307208893416,
,,,,25,0,25,0,,,,,,,,,,,,,,,,,,,,,,575.2063156000004,None,,,,,,,,,,,,,,,,,thick,118,26,silent,new,null,571.104190799997,None,571.104190799997,None,1,1.8122301000039442,571.104190799997,None,1.8122301000039442,572.9389471999966,None,573.4537141999972,None,573.4537141999972,None,n,1.7348526000059792,573.4537141999972,None,1.7348526000059792,,,125Scilent,001,2023_Sep_19_0938,ProdSingRedoBetween,2021.2.3,59.97307208893416,
,,,,26,0,26,0,,,,,,,,,,,,,,,,,,,,,,578.6283766999986,None,,,,,,,,,,,,,,,,,article,133,27,silent,new,null,575.7082183999955,None,575.7082183999955,None,6,1.7681910999963293,575.7082183999955,None,1.7681910999963293,577.5095069999952,None,578.0123338999983,None,578.0123338999983,None,r,0.5920895000017481,578.0123338999983,None,0.5920895000017481,,,125Scilent,001,2023_Sep_19_0938,ProdSingRedoBetween,2021.2.3,59.97307208893416,
,,,,27,0,27,0,,,,,,,,,,,,,,,,,,,,,,581.1958183999959,None,,,,,,,,,,,,,,,,,level,18,28,silent,old,yellow,579.1468448000014,None,579.1468448000014,None,6,1.3375568999981624,579.1468448000014,None,1.3375568999981624,580.5166353000022,None,581.0298380000022,None,581.0298380000022,None,r,0.13453089999529766,581.0298380000022,None,0.13453089999529766,,,125Scilent,001,2023_Sep_19_0938,ProdSingRedoBetween,2021.2.3,59.97307208893416,
,,,,28,0,28,0,,,,,,,,,,,,,,,,,,,,,,584.5322874999983,None,,,,,,,,,,,,,,,,,election,170,29,silent,new,null,581.696031200001,None,581.696031200001,None,4,1.6844366000004811,581.696031200001,None,1.6844366000004811,583.3991696000012,None,583.9143475000019,None,583.9143475000019,None,f,0.6020480000006501,583.9143475000019,None,0.6020480000006501,,,125Scilent,001,2023_Sep_19_0938,ProdSingRedoBetween,2021.2.3,59.97307208893416,
,,,,29,0,29,0,,,,,,,,,,,,,,,,,,,,,,587.3682531000013,None,,,,,,,,,,,,,,,,,silence,48,30,silent,old,blue,585.0345536999957,None,585.0345536999957,None,4,1.617885200001183,585.0345536999957,None,1.617885200001183,586.6874605999983,None,587.2053343000007,None,587.2053343000007,None,f,0.134989799997129,587.2053343000007,None,0.134989799997129,,,125Scilent,001,2023_Sep_19_0938,ProdSingRedoBetween,2021.2.3,59.97307208893416,
,,,,30,0,30,0,,,,,,,,,,,,,,,,,,,,,,591.7896545999974,None,,,,,,,,,,,,,,,,,weight,33,31,silent,old,blue,587.8749161000014,None,587.8749161000014,None,6,3.153385100005835,587.8749161000014,None,3.153385100005835,591.0592672999992,None,591.5736547999986,None,591.5736547999986,None,r,0.1988567000007606,591.5736547999986,None,0.1988567000007606,,,125Scilent,001,2023_Sep_19_0938,ProdSingRedoBetween,2021.2.3,59.97307208893416,
,,,,31,0,31,0,,,,,,,,,,,,,,,,,,,,,,596.8093493999986,None,,,,,,,,,,,,,,,,,guest,49,32,silent,old,blue,592.2923130999989,None,592.2923130999989,None,3,2.088022199997795,592.2923130999989,None,2.088022199997795,594.4115747999967,None,594.9252578000014,None,594.9252578000014,None,n,1.8471750999960932,594.9252578000014,None,1.8471750999960932,,,125Scilent,001,2023_Sep_19_0938,ProdSingRedoBetween,2021.2.3,59.97307208893416,
,,,,32,0,32,0,,,,,,,,,,,,,,,,,,,,,,601.9327937999988,None,,,,,,,,,,,,,,,,,murder,127,33,silent,new,null,597.311483999998,None,597.311483999998,None,1,3.1729723000025842,597.311483999998,None,3.1729723000025842,600.5218574999963,None,601.0398740000019,None,601.0398740000019,None,n,0.8764865999983158,601.0398740000019,None,0.8764865999983158,,,125Scilent,001,2023_Sep_19_0938,ProdSingRedoBetween,2021.2.3,59.97307208893416,
,,,,33,0,33,0,,,,,,,,,,,,,,,,,,,,,,606.4211436999976,None,,,,,,,,,,,,,,,,,country,156,34,silent,new,null,602.4534310000017,None,602.4534310000017,None,5,3.0548592999984976,602.4534310000017,None,3.0548592999984976,605.5386901999955,None,606.053219100002,None,606.053219100002,None,f,0.34312470000440953,606.053219100002,None,0.34312470000440953,,,125Scilent,001,2023_Sep_19_0938,ProdSingRedoBetween,2021.2.3,59.97307208893416,
,,,,34,0,34,0,,,,,,,,,,,,,,,,,,,,,,609.7387306000019,None,,,,,,,,,,,,,,,,,literature,176,35,silent,new,null,606.9291481999971,None,606.9291481999971,None,1,1.5552585999976145,606.9291481999971,None,1.5552585999976145,608.5147161999994,None,609.0229038999969,None,609.0229038999969,None,n,0.6775120000020252,609.0229038999969,None,0.6775120000020252,,,125Scilent,001,2023_Sep_19_0938,ProdSingRedoBetween,2021.2.3,59.97307208893416,
,,,,35,0,35,0,,,,,,,,,,,,,,,,,,,,,,612.8285835999995,None,,,,,,,,,,,,,,,,,space,163,36,silent,new,null,610.2580623999966,None,610.2580623999966,None,4,1.6183605000042007,610.2580623999966,None,1.6183605000042007,611.899799699997,None,612.4116207999978,None,612.4116207999978,None,f,0.3929613000000245,612.4116207999978,None,0.3929613000000245,,,125Scilent,001,2023_Sep_19_0938,ProdSingRedoBetween,2021.2.3,59.97307208893416,
,,,,36,0,36,0,,,,,,,,,,,,,,,,,,,,,,615.6806543999992,None,,,,,,,,,,,,,,,,,beginning,36,37,silent,old,blue,613.3476749999973,None,613.3476749999973,None,1,1.5366342999986955,613.3476749999973,None,1.5366342999986955,614.9135290999984,None,615.4130880000012,None,615.4130880000012,None,n,0.24783100000058766,615.4130880000012,None,0.24783100000058766,,,125Scilent,001,2023_Sep_19_0938,ProdSingRedoBetween,2021.2.3,59.97307208893416,
,,,,37,0,37,0,,,,,,,,,,,,,,,,,,,,,,620.0024297999989,None,,,,,,,,,,,,,,,,,member,106,38,silent,new,null,616.1817160999999,None,616.1817160999999,None,1,2.2707520999974804,616.1817160999999,None,2.2707520999974804,618.4843927999973,None,619.0028542,None,619.0028542,None,n,0.9775790999992751,619.0028542,None,0.9775790999992751,,,125Scilent,001,2023_Sep_19_0938,ProdSingRedoBetween,2021.2.3,59.97307208893416,
,,,,38,0,38,0,,,,,,,,,,,,,,,,,,,,,,622.8207823999983,None,,,,,,,,,,,,,,,,,agency,167,39,silent,new,null,620.5195191999956,None,620.5195191999956,None,3,1.4127877999999328,620.5195191999956,None,1.4127877999999328,621.9547926000014,None,622.4697526999953,None,622.4697526999953,None,n,0.3186335999998846,622.4697526999953,None,0.3186335999998846,,,125Scilent,001,2023_Sep_19_0938,ProdSingRedoBetween,2021.2.3,59.97307208893416,
,,,,39,0,39,0,,,,,,,,,,,,,,,,,,,,,,625.9237829999984,None,,,,,,,,,,,,,,,,,question,40,40,silent,old,blue,623.3304516999997,None,623.3304516999997,None,1,1.7702073999971617,623.3304516999997,None,1.7702073999971617,625.1256084999986,None,625.6397758000021,None,625.6397758000021,None,n,0.25262640000437386,625.6397758000021,None,0.25262640000437386,,,125Scilent,001,2023_Sep_19_0938,ProdSingRedoBetween,2021.2.3,59.97307208893416,
,,,,40,0,40,0,,,,,,,,,,,,,,,,,,,,,,629.2602246999959,None,,,,,,,,,,,,,,,,,drove,63,41,silent,old,red,626.4264014,None,626.4264014,None,6,1.8659038999976474,626.4264014,None,1.8659038999976474,628.312245299996,None,628.8256646000009,None,628.8256646000009,None,f,0.40280010000424227,628.8256646000009,None,0.40280010000424227,,,125Scilent,001,2023_Sep_19_0938,ProdSingRedoBetween,2021.2.3,59.97307208893416,
,,,,41,0,41,0,,,,,,,,,,,,,,,,,,,,,,633.1308170999982,None,,,,,,,,,,,,,,,,,motion,25,42,silent,old,yellow,629.7617286000022,None,629.7617286000022,None,6,2.45865930000582,629.7617286000022,None,2.45865930000582,632.2478599999959,None,632.7630705999982,None,632.7630705999982,None,r,0.3453850000005332,632.7630705999982,None,0.3453850000005332,,,125Scilent,001,2023_Sep_19_0938,ProdSingRedoBetween,2021.2.3,59.97307208893416,
,,,,42,0,42,0,,,,,,,,,,,,,,,,,,,,,,636.765739800001,None,,,,,,,,,,,,,,,,,smooth,139,43,silent,new,null,633.6368617999979,None,633.6368617999979,None,4,2.3514240000004065,633.6368617999979,None,2.3514240000004065,636.0265491999962,None,636.5359577999989,None,636.5359577999989,None,f,0.19672580000042217,636.5359577999989,None,0.19672580000042217,,,125Scilent,001,2023_Sep_19_0938,ProdSingRedoBetween,2021.2.3,59.97307208893416,
,,,,43,0,43,0,,,,,,,,,,,,,,,,,,,,,,639.8730633000014,None,,,,,,,,,,,,,,,,,finance,61,44,silent,old,red,637.2887284999961,None,637.2887284999961,None,4,1.9316379999945639,637.2887284999961,None,1.9316379999945639,639.2393002999961,None,639.753702199996,None,639.753702199996,None,f,0.09082279999711318,639.753702199996,None,0.09082279999711318,,,125Scilent,001,2023_Sep_19_0938,ProdSingRedoBetween,2021.2.3,59.97307208893416,
,,,,44,0,44,0,,,,,,,,,,,,,,,,,,,,,,642.4754367999994,None,,,,,,,,,,,,,,,,,crowd,159,45,silent,new,null,640.3908849,None,640.3908849,None,1,1.4134582999977283,640.3908849,None,1.4134582999977283,641.8258425000022,None,642.3540087000001,None,642.3540087000001,None,n,0.0984764999957406,642.3540087000001,None,0.0984764999957406,,,125Scilent,001,2023_Sep_19_0938,ProdSingRedoBetween,2021.2.3,59.97307208893416,
,,,,45,0,45,0,,,,,,,,,,,,,,,,,,,,,,645.5121553999998,None,,,,,,,,,,,,,,,,,comfort,75,46,silent,old,red,642.9918529999995,None,642.9918529999995,None,6,1.8528752000056556,642.9918529999995,None,1.8528752000056556,644.9015383000005,None,645.4143670999983,None,645.4143670999983,None,r,0.0783408999996027,645.4143670999983,None,0.0783408999996027,,,125Scilent,001,2023_Sep_19_0938,ProdSingRedoBetween,2021.2.3,59.97307208893416,
,,,,46,0,46,0,,,,,,,,,,,,,,,,,,,,,,649.2475501000008,None,,,,,,,,,,,,,,,,,science,105,47,silent,new,null,646.0281907999961,None,646.0281907999961,None,1,1.6561316000006627,646.0281907999961,None,1.6561316000006627,647.7143140999979,None,648.2285801999969,None,648.2285801999969,None,n,0.9997919000015827,648.2285801999969,None,0.9997919000015827,,,125Scilent,001,2023_Sep_19_0938,ProdSingRedoBetween,2021.2.3,59.97307208893416,
,,,,47,0,47,0,,,,,,,,,,,,,,,,,,,,,,651.9323967999953,None,,,,,,,,,,,,,,,,,poetry,151,48,silent,new,null,649.7558072999964,None,649.7558072999964,None,1,1.376479800004745,649.7558072999964,None,1.376479800004745,651.1511391999957,None,651.6650635999977,None,651.6650635999977,None,n,0.25120849999802886,651.6650635999977,None,0.25120849999802886,,,125Scilent,001,2023_Sep_19_0938,ProdSingRedoBetween,2021.2.3,59.97307208893416,
,,,,48,0,48,0,,,,,,,,,,,,,,,,,,,,,,654.4185047999999,None,,,,,,,,,,,,,,,,,raise,74,49,silent,old,red,652.4517952999959,None,652.4517952999959,None,1,1.224510600004578,652.4517952999959,None,1.224510600004578,653.7027050999968,None,654.2177891999963,None,654.2177891999963,None,n,0.17059889999654843,654.2177891999963,None,0.17059889999654843,,,125Scilent,001,2023_Sep_19_0938,ProdSingRedoBetween,2021.2.3,59.97307208893416,
,,,,49,0,49,0,,,,,,,,,,,,,,,,,,,,,,656.904360499997,None,,,,,,,,,,,,,,,,,beauty,175,50,silent,new,null,654.9213119999986,None,654.9213119999986,None,1,1.4029894999985117,654.9213119999986,None,1.4029894999985117,656.3624903000018,None,656.870694899997,None,656.870694899997,None,n,0.013617500000691507,656.870694899997,None,0.013617500000691507,,,125Scilent,001,2023_Sep_19_0938,ProdSingRedoBetween,2021.2.3,59.97307208893416,
,,,,50,0,50,0,,,,,,,,,,,,,,,,,,,,,,659.408468900001,None,,,,,,,,,,,,,,,,,solution,52,51,silent,old,blue,657.4144481999974,None,657.4144481999974,None,4,1.3099567999961437,657.4144481999974,None,1.3099567999961437,658.7455420999977,None,659.2572768999962,None,659.2572768999962,None,f,0.13130069999897387,659.2572768999962,None,0.13130069999897387,,,125Scilent,001,2023_Sep_19_0938,ProdSingRedoBetween,2021.2.3,59.97307208893416,
,,,,51,0,51,0,,,,,,,,,,,,,,,,,,,,,,665.4800638000015,None,,,,,,,,,,,,,,,,,general,85,52,silent,old,red,659.9241840999966,None,659.9241840999966,None,6,4.096098400004848,659.9241840999966,None,4.096098400004848,664.0463949999976,None,664.5614672000011,None,664.5614672000011,None,r,0.8991261999981361,664.5614672000011,None,0.8991261999981361,,,125Scilent,001,2023_Sep_19_0938,ProdSingRedoBetween,2021.2.3,59.97307208893416,
,,,,52,0,52,0,,,,,,,,,,,,,,,,,,,,,,669.1337186000019,None,,,,,,,,,,,,,,,,,colonel,100,53,silent,new,null,665.9888732999971,None,665.9888732999971,None,6,1.5514820000025793,665.9888732999971,None,1.5514820000025793,667.5666600999975,None,668.0816747999997,None,668.0816747999997,None,r,1.0348417000059271,668.0816747999997,None,1.0348417000059271,,,125Scilent,001,2023_Sep_19_0938,ProdSingRedoBetween,2021.2.3,59.97307208893416,
,,,,53,0,53,0,,,,,,,,,,,,,,,,,,,,,,671.9034150000007,None,,,,,,,,,,,,,,,,,substance,107,54,silent,new,null,669.6403138999958,None,669.6403138999958,None,6,1.3480488999994122,669.6403138999958,None,1.3480488999994122,671.0207137999969,None,671.5355315999986,None,671.5355315999986,None,r,0.34083000000100583,671.5355315999986,None,0.34083000000100583,,,125Scilent,001,2023_Sep_19_0938,ProdSingRedoBetween,2021.2.3,59.97307208893416,
,,,,54,0,54,0,,,,,,,,,,,,,,,,,,,,,,674.6420269000009,None,,,,,,,,,,,,,,,,,dozen,69,55,silent,old,red,672.4040248000019,None,672.4040248000019,None,6,1.3363695000007283,672.4040248000019,None,1.3363695000007283,673.7746957999989,None,674.2914153999955,None,674.2914153999955,None,r,0.32921840000199154,674.2914153999955,None,0.32921840000199154,,,125Scilent,001,2023_Sep_19_0938,ProdSingRedoBetween,2021.2.3,59.97307208893416,
,,,,55,0,55,0,,,,,,,,,,,,,,,,,,,,,,677.6755243000007,None,,,,,,,,,,,,,,,,,principal,72,56,silent,old,red,675.1727266000016,None,675.1727266000016,None,3,1.327574300004926,675.1727266000016,None,1.327574300004926,676.5265155000016,None,677.0438314999992,None,677.0438314999992,None,f,0.608641799997713,677.0438314999992,None,0.608641799997713,,,125Scilent,001,2023_Sep_19_0938,ProdSingRedoBetween,2021.2.3,59.97307208893416,
,,,,56,0,56,0,,,,,,,,,,,,,,,,,,,,,,681.3623692999972,None,,,,,,,,,,,,,,,,,meeting,15,57,silent,old,yellow,678.1826690000016,None,678.1826690000016,None,6,1.941647000006924,678.1826690000016,None,1.941647000006924,680.1454247000001,None,680.6623811999962,None,680.6623811999962,None,r,0.6699848999996902,680.6623811999962,None,0.6699848999996902,,,125Scilent,001,2023_Sep_19_0938,ProdSingRedoBetween,2021.2.3,59.97307208893416,
,,,,57,0,57,0,,,,,,,,,,,,,,,,,,,,,,684.6165901999993,None,,,,,,,,,,,,,,,,,leader,98,58,silent,new,null,681.8694235000003,None,681.8694235000003,None,1,1.5990481000044383,681.8694235000003,None,1.5990481000044383,683.502774200002,None,684.0299681999968,None,684.0299681999968,None,n,0.558385600001202,684.0299681999968,None,0.558385600001202,,,125Scilent,001,2023_Sep_19_0938,ProdSingRedoBetween,2021.2.3,59.97307208893416,
,,,,58,0,58,0,,,,,,,,,,,,,,,,,,,,,,688.3039196999962,None,,,,,,,,,,,,,,,,,medicine,143,59,silent,new,null,685.119483399998,None,685.119483399998,None,6,2.517017800004396,685.119483399998,None,2.517017800004396,687.669678899998,None,688.1739547999969,None,688.1739547999969,None,r,0.10248190000129398,688.1739547999969,None,0.10248190000129398,,,125Scilent,001,2023_Sep_19_0938,ProdSingRedoBetween,2021.2.3,59.97307208893416,
,,,,59,0,59,0,,,,,,,,,,,,,,,,,,,,,,691.5391267000014,None,,,,,,,,,,,,,,,,,attack,10,60,silent,old,yellow,688.8213785999978,None,688.8213785999978,None,1,2.1109604999946896,688.8213785999978,None,2.1109604999946896,690.9576761999997,None,691.472454900002,None,691.472454900002,None,n,0.043895000002521556,691.472454900002,None,0.043895000002521556,,,125Scilent,001,2023_Sep_19_0938,ProdSingRedoBetween,2021.2.3,59.97307208893416,
,,,,60,0,60,0,,,,,,,,,,,,,,,,,,,,,,694.7760440999991,None,,,,,,,,,,,,,,,,,expansion,110,61,silent,new,null,692.0458288000009,None,692.0458288000009,None,6,1.9105008999977144,692.0458288000009,None,1.9105008999977144,693.9768890999985,None,694.5067515999981,None,694.5067515999981,None,r,0.2415709999986575,694.5067515999981,None,0.2415709999986575,,,125Scilent,001,2023_Sep_19_0938,ProdSingRedoBetween,2021.2.3,59.97307208893416,
,,,,61,0,61,0,,,,,,,,,,,,,,,,,,,,,,698.3627292999954,None,,,,,,,,,,,,,,,,,capital,27,62,silent,old,yellow,695.2778972000015,None,695.2778972000015,None,4,2.230377599997155,695.2778972000015,None,2.230377599997155,697.5299775999956,None,698.0449947000016,None,698.0449947000016,None,f,0.28739019999920856,698.0449947000016,None,0.28739019999920856,,,125Scilent,001,2023_Sep_19_0938,ProdSingRedoBetween,2021.2.3,59.97307208893416,
,,,,62,0,62,0,,,,,,,,,,,,,,,,,,,,,,701.2154468000008,None,,,,,,,,,,,,,,,,,curve,76,63,silent,old,red,698.8706837999998,None,698.8706837999998,None,1,1.5496635000017704,698.8706837999998,None,1.5496635000017704,700.4555163999976,None,700.9644171999971,None,700.9644171999971,None,n,0.22400850000121864,700.9644171999971,None,0.22400850000121864,,,125Scilent,001,2023_Sep_19_0938,ProdSingRedoBetween,2021.2.3,59.97307208893416,
,,,,63,0,63,0,,,,,,,,,,,,,,,,,,,,,,704.0174933000017,None,,,,,,,,,,,,,,,,,master,177,64,silent,new,null,701.7241225999969,None,701.7241225999969,None,6,1.4082436000026064,701.7241225999969,None,1.4082436000026064,703.1551218999957,None,703.6675048999969,None,703.6675048999969,None,r,0.32884629999898607,703.6675048999969,None,0.32884629999898607,,,125Scilent,001,2023_Sep_19_0938,ProdSingRedoBetween,2021.2.3,59.97307208893416,
,,,,64,0,64,0,,,,,,,,,,,,,,,,,,,,,,706.9881083,None,,,,,,,,,,,,,,,,,government,124,65,silent,new,null,704.5259377999973,None,704.5259377999973,None,6,1.8144288000039523,704.5259377999973,None,1.8144288000039523,706.3728942000016,None,706.8872331999955,None,706.8872331999955,None,r,0.07715209999878425,706.8872331999955,None,0.07715209999878425,,,125Scilent,001,2023_Sep_19_0938,ProdSingRedoBetween,2021.2.3,59.97307208893416,
,,,,65,0,65,0,,,,,,,,,,,,,,,,,,,,,,710.2093700999976,None,,,,,,,,,,,,,,,,,personnel,160,66,silent,new,null,707.5076939999999,None,707.5076939999999,None,1,1.9847302999987733,707.5076939999999,None,1.9847302999987733,709.5299116999959,None,710.0427398999964,None,710.0427398999964,None,n,0.14583870000205934,710.0427398999964,None,0.14583870000205934,,,125Scilent,001,2023_Sep_19_0938,ProdSingRedoBetween,2021.2.3,59.97307208893416,
,,,,66,0,66,0,,,,,,,,,,,,,,,,,,,,,,713.1776452999984,None,,,,,,,,,,,,,,,,,trend,45,67,silent,old,blue,710.730596100002,None,710.730596100002,None,1,1.70577370000683,710.730596100002,None,1.70577370000683,712.4612220999988,None,712.9764175999953,None,712.9764175999953,None,n,0.17999360000248998,712.9764175999953,None,0.17999360000248998,,,125Scilent,001,2023_Sep_19_0938,ProdSingRedoBetween,2021.2.3,59.97307208893416,
,,,,67,0,67,0,,,,,,,,,,,,,,,,,,,,,,716.3816054999988,None,,,,,,,,,,,,,,,,,instrument,91,68,silent,new,null,713.6796534000023,None,713.6796534000023,None,4,1.9966442000004463,713.6796534000023,None,1.9966442000004463,715.6979833000005,None,716.2130725999959,None,716.2130725999959,None,f,0.14328260000183946,716.2130725999959,None,0.14328260000183946,,,125Scilent,001,2023_Sep_19_0938,ProdSingRedoBetween,2021.2.3,59.97307208893416,
,,,,68,0,68,0,,,,,,,,,,,,,,,,,,,,,,719.5027655000013,None,,,,,,,,,,,,,,,,,height,86,69,silent,old,red,716.8888320999977,None,716.8888320999977,None,1,1.9076436999966973,716.8888320999977,None,1.9076436999966973,718.8182291999983,None,719.3327725999989,None,719.3327725999989,None,n,0.1357620999988285,719.3327725999989,None,0.1357620999988285,,,125Scilent,001,2023_Sep_19_0938,ProdSingRedoBetween,2021.2.3,59.97307208893416,
,,,,69,0,69,0,,,,,,,,,,,,,,,,,,,,,,722.4198124999966,None,,,,,,,,,,,,,,,,,detective,111,70,silent,new,null,720.025043900001,None,720.025043900001,None,1,1.8033684000038193,720.025043900001,None,1.8033684000038193,721.857330699997,None,722.3694357999993,None,722.3694357999993,None,n,0.0189269000038621,722.3694357999993,None,0.0189269000038621,,,125Scilent,001,2023_Sep_19_0938,ProdSingRedoBetween,2021.2.3,59.97307208893416,
,,,,70,0,70,0,,,,,,,,,,,,,,,,,,,,,,726.2075707999975,None,,,,,,,,,,,,,,,,,mechanical,104,71,silent,new,null,722.9267218999958,None,722.9267218999958,None,1,1.461591800005408,722.9267218999958,None,1.461591800005408,724.4076205999954,None,724.9219602000012,None,724.9219602000012,None,n,1.2584996000005049,724.9219602000012,None,1.2584996000005049,,,125Scilent,001,2023_Sep_19_0938,ProdSingRedoBetween,2021.2.3,59.97307208893416,
,,,,71,0,71,0,,,,,,,,,,,,,,,,,,,,,,729.5767119000011,None,,,,,,,,,,,,,,,,,edition,120,72,silent,new,null,726.709967499999,None,726.709967499999,None,2,1.6223771999939345,726.709967499999,None,1.6223771999939345,728.3618799999967,None,728.8757960000003,None,728.8757960000003,None,n,0.6725741999980528,728.8757960000003,None,0.6725741999980528,,,125Scilent,001,2023_Sep_19_0938,ProdSingRedoBetween,2021.2.3,59.97307208893416,
,,,,72,0,72,0,,,,,,,,,,,,,,,,,,,,,,732.6685242000021,None,,,,,,,,,,,,,,,,,agreement,142,73,silent,new,null,730.0791211999967,None,730.0791211999967,None,6,1.5252916000026744,730.0791211999967,None,1.5252916000026744,731.6326826000004,None,732.1456528999988,None,732.1456528999988,None,r,0.49906170000031125,732.1456528999988,None,0.49906170000031125,,,125Scilent,001,2023_Sep_19_0938,ProdSingRedoBetween,2021.2.3,59.97307208893416,
,,,,73,0,73,0,,,,,,,,,,,,,,,,,,,,,,735.6343168999956,None,,,,,,,,,,,,,,,,,empty,24,74,silent,old,yellow,733.184713900002,None,733.184713900002,None,4,1.6437643999961438,733.184713900002,None,1.6437643999961438,734.8548856999987,None,735.3656495999967,None,735.3656495999967,None,f,0.23871409999992466,735.3656495999967,None,0.23871409999992466,,,125Scilent,001,2023_Sep_19_0938,ProdSingRedoBetween,2021.2.3,59.97307208893416,
,,,,74,0,74,0,,,,,,,,,,,,,,,,,,,,,,739.070764600001,None,,,,,,,,,,,,,,,,,chief,20,75,silent,old,yellow,736.1516761999956,None,736.1516761999956,None,1,2.100659199997608,736.1516761999956,None,2.100659199997608,738.2709700999985,None,738.7869215999963,None,738.7869215999963,None,n,0.2656571999978041,738.7869215999963,None,0.2656571999978041,,,125Scilent,001,2023_Sep_19_0938,ProdSingRedoBetween,2021.2.3,59.97307208893416,
,,,,75,0,75,0,,,,,,,,,,,,,,,,,,,,,,742.3242188000004,None,,,,,,,,,,,,,,,,,narrow,119,76,silent,new,null,739.5724470999994,None,739.5724470999994,None,6,1.2718493000065791,739.5724470999994,None,1.2718493000065791,740.8738784000016,None,741.3882986999961,None,741.3882986999961,None,r,0.9041621000069426,741.3882986999961,None,0.9041621000069426,,,125Scilent,001,2023_Sep_19_0938,ProdSingRedoBetween,2021.2.3,59.97307208893416,
,,,,76,0,76,0,,,,,,,,,,,,,,,,,,,,,,745.2932061999963,None,,,,,,,,,,,,,,,,,vision,35,77,silent,old,blue,742.8259285000022,None,742.8259285000022,None,6,1.6104313999967417,742.8259285000022,None,1.6104313999967417,744.4615245999958,None,744.9755710999962,None,744.9755710999962,None,r,0.29281410000112373,744.9755710999962,None,0.29281410000112373,,,125Scilent,001,2023_Sep_19_0938,ProdSingRedoBetween,2021.2.3,59.97307208893416,
,,,,77,0,77,0,,,,,,,,,,,,,,,,,,,,,,748.5795964999998,None,,,,,,,,,,,,,,,,,working,68,78,silent,old,red,745.8007968999955,None,745.8007968999955,None,4,2.1555396000039764,745.8007968999955,None,2.1555396000039764,747.9804833000017,None,748.4953313000005,None,748.4953313000005,None,f,0.0610242000038852,748.4953313000005,None,0.0610242000038852,,,125Scilent,001,2023_Sep_19_0938,ProdSingRedoBetween,2021.2.3,59.97307208893416,
,,,,78,0,78,0,,,,,,,,,,,,,,,,,,,,,,751.5503721999994,None,,,,,,,,,,,,,,,,,taste,29,79,silent,old,blue,749.0867792999998,None,749.0867792999998,None,1,1.4695945999992546,749.0867792999998,None,1.4695945999992546,750.5847279000009,None,751.1029258999988,None,751.1029258999988,None,n,0.4214656999974977,751.1029258999988,None,0.4214656999974977,,,125Scilent,001,2023_Sep_19_0938,ProdSingRedoBetween,2021.2.3,59.97307208893416,
,,,,79,0,79,0,,,,,,,,,,,,,,,,,,,,,,754.6690732999996,None,,,,,,,,,,,,,,,,,bitter,58,80,silent,old,blue,752.0685551999995,None,752.0685551999995,None,1,1.3038083999999799,752.0685551999995,None,1.3038083999999799,753.4076214000015,None,753.9225234999976,None,753.9225234999976,None,n,0.7299247999981162,753.9225234999976,None,0.7299247999981162,,,125Scilent,001,2023_Sep_19_0938,ProdSingRedoBetween,2021.2.3,59.97307208893416,
,,,,80,0,80,0,,,,,,,,,,,,,,,,,,,,,,757.322007099996,None,,,,,,,,,,,,,,,,,husband,102,81,silent,new,null,755.1805862999972,None,755.1805862999972,None,1,1.2477817999970284,755.1805862999972,None,1.2477817999970284,756.4566658999975,None,756.9721435999963,None,756.9721435999963,None,n,0.32821729999704985,756.9721435999963,None,0.32821729999704985,,,125Scilent,001,2023_Sep_19_0938,ProdSingRedoBetween,2021.2.3,59.97307208893416,
,,,,81,0,81,0,,,,,,,,,,,,,,,,,,,,,,759.8244628999964,None,,,,,,,,,,,,,,,,,clean,131,82,silent,new,null,757.8292355000012,None,757.8292355000012,None,1,1.303313700002036,757.8292355000012,None,1.303313700002036,759.1649696000022,None,759.6737367999958,None,759.6737367999958,None,n,0.12257839999801945,759.6737367999958,None,0.12257839999801945,,,125Scilent,001,2023_Sep_19_0938,ProdSingRedoBetween,2021.2.3,59.97307208893416,
,,,,82,0,82,0,,,,,,,,,,,,,,,,,,,,,,762.4934072999968,None,,,,,,,,,,,,,,,,,express,0,83,silent,old,yellow,760.3319402999987,None,760.3319402999987,None,4,1.2724583000017446,760.3319402999987,None,1.2724583000017446,761.6302190999995,None,762.142631499999,None,762.142631499999,None,f,0.3337757999979658,762.142631499999,None,0.3337757999979658,,,125Scilent,001,2023_Sep_19_0938,ProdSingRedoBetween,2021.2.3,59.97307208893416,
,,,,83,0,83,0,,,,,,,,,,,,,,,,,,,,,,765.6463800999991,None,,,,,,,,,,,,,,,,,department,130,84,silent,new,null,762.9957649999997,None,762.9957649999997,None,4,1.9126071999999112,762.9957649999997,None,1.9126071999999112,764.9316930999994,None,765.4458225999988,None,765.4458225999988,None,f,0.17458619999524672,765.4458225999988,None,0.17458619999524672,,,125Scilent,001,2023_Sep_19_0938,ProdSingRedoBetween,2021.2.3,59.97307208893416,
,,,,84,0,84,0,,,,,,,,,,,,,,,,,,,,,,768.399090400002,None,,,,,,,,,,,,,,,,,religion,99,85,silent,new,null,766.1504118000012,None,766.1504118000012,None,1,1.541980899994087,766.1504118000012,None,1.541980899994087,767.7198339999959,None,768.2321798999983,None,768.2321798999983,None,n,0.1402401999948779,768.2321798999983,None,0.1402401999948779,,,125Scilent,001,2023_Sep_19_0938,ProdSingRedoBetween,2021.2.3,59.97307208893416,
,,,,85,0,85,0,,,,,,,,,,,,,,,,,,,,,,771.9004549999954,None,,,,,,,,,,,,,,,,,appeal,55,86,silent,old,blue,768.9017041999978,None,768.9017041999978,None,5,2.0386107000013,768.9017041999978,None,2.0386107000013,770.9707326999996,None,771.484947799996,None,771.484947799996,None,f,0.3835133999964455,771.484947799996,None,0.3835133999964455,,,125Scilent,001,2023_Sep_19_0938,ProdSingRedoBetween,2021.2.3,59.97307208893416,
,,,,86,0,86,0,,,,,,,,,,,,,,,,,,,,,,778.6629365999979,None,,,,,,,,,,,,,,,,,block,92,87,silent,new,null,772.4043779999993,None,772.4043779999993,None,1,5.255972200000542,772.4043779999993,None,5.255972200000542,777.6934073000011,None,778.2082620000001,None,778.2082620000001,None,n,0.42014179999387125,778.2082620000001,None,0.42014179999387125,,,125Scilent,001,2023_Sep_19_0938,ProdSingRedoBetween,2021.2.3,59.97307208893416,
,,,,87,0,87,0,,,,,,,,,,,,,,,,,,,,,,781.2624345000004,None,,,,,,,,,,,,,,,,,bucket,30,88,silent,old,blue,779.1772988000012,None,779.1772988000012,None,1,1.4990131000013207,779.1772988000012,None,1.4990131000013207,780.6982483999964,None,781.2112609999967,None,781.2112609999967,None,n,0.03331839999736985,781.2112609999967,None,0.03331839999736985,,,125Scilent,001,2023_Sep_19_0938,ProdSingRedoBetween,2021.2.3,59.97307208893416,
,,,,88,0,88,0,,,,,,,,,,,,,,,,,,,,,,785.8195303999964,None,,,,,,,,,,,,,,,,,company,60,89,silent,old,red,781.7710531999983,None,781.7710531999983,None,6,2.385340900000301,781.7710531999983,None,2.385340900000301,784.1883764000013,None,784.7026164999988,None,784.7026164999988,None,r,1.093820100002631,784.7026164999988,None,1.093820100002631,,,125Scilent,001,2023_Sep_19_0938,ProdSingRedoBetween,2021.2.3,59.97307208893416,
,,,,89,0,89,0,,,,,,,,,,,,,,,,,,,,,,788.2693539999964,None,,,,,,,,,,,,,,,,,angle,77,90,silent,old,red,786.3390538999956,None,786.3390538999956,None,6,1.2252791999999317,786.3390538999956,None,1.2252791999999317,787.5877051999996,None,788.101568099999,None,788.101568099999,None,r,0.15077929999824846,788.101568099999,None,0.15077929999824846,,,125Scilent,001,2023_Sep_19_0938,ProdSingRedoBetween,2021.2.3,59.97307208893416,
,,,,90,0,90,0,,,,,,,,,,,,,,,,,,,,,,790.9557386000015,None,,,,,,,,,,,,,,,,,sunset,3,91,silent,old,yellow,788.7780321999962,None,788.7780321999962,None,1,1.442327100005059,788.7780321999962,None,1.442327100005059,790.2397540999955,None,790.7541759000014,None,790.7541759000014,None,n,0.1783357000022079,790.7541759000014,None,0.1783357000022079,,,125Scilent,001,2023_Sep_19_0938,ProdSingRedoBetween,2021.2.3,59.97307208893416,
,,,,91,0,91,0,,,,,,,,,,,,,,,,,,,,,,793.9756871999998,None,,,,,,,,,,,,,,,,,century,168,92,silent,new,null,791.4654382000008,None,791.4654382000008,None,6,1.4349282000039238,791.4654382000008,None,1.4349282000039238,792.928427400002,None,793.4428236000022,None,793.4428236000022,None,r,0.5055418999982066,793.4428236000022,None,0.5055418999982066,,,125Scilent,001,2023_Sep_19_0938,ProdSingRedoBetween,2021.2.3,59.97307208893416,
,,,,92,0,92,0,,,,,,,,,,,,,,,,,,,,,,797.7470429999958,None,,,,,,,,,,,,,,,,,discovery,57,93,silent,old,blue,794.4808017999967,None,794.4808017999967,None,6,2.3155392999979085,794.4808017999967,None,2.3155392999979085,796.829891399997,None,797.3446221999984,None,797.3446221999984,None,r,0.3798549999992247,797.3446221999984,None,0.3798549999992247,,,125Scilent,001,2023_Sep_19_0938,ProdSingRedoBetween,2021.2.3,59.97307208893416,
,,,,93,0,93,0,,,,,,,,,,,,,,,,,,,,,,801.0332504999969,None,,,,,,,,,,,,,,,,,property,43,94,silent,old,blue,798.2673596000022,None,798.2673596000022,None,4,1.777159199999005,798.2673596000022,None,1.777159199999005,800.0714691999965,None,800.5812179999994,None,800.5812179999994,None,f,0.42307330000039656,800.5812179999994,None,0.42307330000039656,,,125Scilent,001,2023_Sep_19_0938,ProdSingRedoBetween,2021.2.3,59.97307208893416,
,,,,94,0,94,0,,,,,,,,,,,,,,,,,,,,,,803.4853899000009,None,,,,,,,,,,,,,,,,,partner,80,95,silent,old,red,801.5506621000022,None,801.5506621000022,None,1,1.2377273000020068,801.5506621000022,None,1.2377273000020068,802.8231851999954,None,803.3334644999995,None,803.3334644999995,None,n,0.12692430000606691,803.3334644999995,None,0.12692430000606691,,,125Scilent,001,2023_Sep_19_0938,ProdSingRedoBetween,2021.2.3,59.97307208893416,
,,,,95,0,95,0,,,,,,,,,,,,,,,,,,,,,,806.0304533000017,None,,,,,,,,,,,,,,,,,center,122,96,silent,new,null,803.9914577000018,None,803.9914577000018,None,1,1.3888854000033461,803.9914577000018,None,1.3888854000033461,805.4057096999968,None,805.9348822999964,None,805.9348822999964,None,n,0.06938439999794355,805.9348822999964,None,0.06938439999794355,,,125Scilent,001,2023_Sep_19_0938,ProdSingRedoBetween,2021.2.3,59.97307208893416,
,,,,96,0,96,0,,,,,,,,,,,,,,,,,,,,,,809.1412544999985,None,,,,,,,,,,,,,,,,,graduate,147,97,silent,new,null,806.5488317999989,None,806.5488317999989,None,1,1.3114768999948865,806.5488317999989,None,1.3114768999948865,807.8906800999976,None,808.4052953999999,None,808.4052953999999,None,n,0.7111221999948611,808.4052953999999,None,0.7111221999948611,,,125Scilent,001,2023_Sep_19_0938,ProdSingRedoBetween,2021.2.3,59.97307208893416,
,,,,97,0,97,0,,,,,,,,,,,,,,,,,,,,,,812.2431015999973,None,,,,,,,,,,,,,,,,,story,132,98,silent,new,null,809.6608264999959,None,809.6608264999959,None,3,1.5354440000010072,809.6608264999959,None,1.5354440000010072,811.2272144999952,None,811.7423120000021,None,811.7423120000021,None,f,0.4780336999974679,811.7423120000021,None,0.4780336999974679,,,125Scilent,001,2023_Sep_19_0938,ProdSingRedoBetween,2021.2.3,59.97307208893416,
,,,,98,0,98,0,,,,,,,,,,,,,,,,,,,,,,814.9805539000008,None,,,,,,,,,,,,,,,,,point,173,99,silent,new,null,812.7455580999958,None,812.7455580999958,None,1,1.1868719999984023,812.7455580999958,None,1.1868719999984023,813.9698241000006,None,814.4865907999992,None,814.4865907999992,None,n,0.4698495000047842,814.4865907999992,None,0.4698495000047842,,,125Scilent,001,2023_Sep_19_0938,ProdSingRedoBetween,2021.2.3,59.97307208893416,
,,,,99,0,99,0,,,,,,,,,,,,,,,,,,,,,,817.715229100002,None,,,,,,,,,,,,,,,,,military,4,100,silent,old,yellow,815.4871161999981,None,815.4871161999981,None,1,1.5971408000041265,815.4871161999981,None,1.5971408000041265,817.1170155,None,817.6315486999956,None,817.6315486999956,None,n,0.0528377999944496,817.6315486999956,None,0.0528377999944496,,,125Scilent,001,2023_Sep_19_0938,ProdSingRedoBetween,2021.2.3,59.97307208893416,
,,,,100,0,100,0,,,,,,,,,,,,,,,,,,,,,,820.2177484999993,None,,,,,,,,,,,,,,,,,business,38,101,silent,old,blue,818.2175992999983,None,818.2175992999983,None,6,1.2267189999984112,818.2175992999983,None,1.2267189999984112,819.4686984,None,819.9836925999989,None,819.9836925999989,None,r,0.2126475000040955,819.9836925999989,None,0.2126475000040955,,,125Scilent,001,2023_Sep_19_0938,ProdSingRedoBetween,2021.2.3,59.97307208893416,
,,,,101,0,101,0,,,,,,,,,,,,,,,,,,,,,,822.7866952999975,None,,,,,,,,,,,,,,,,,crisis,7,102,silent,old,yellow,820.7199956999975,None,820.7199956999975,None,6,1.1003599999967264,820.7199956999975,None,1.1003599999967264,821.8386049999972,None,822.3525312999991,None,822.3525312999991,None,r,0.40380899999581743,822.3525312999991,None,0.40380899999581743,,,125Scilent,001,2023_Sep_19_0938,ProdSingRedoBetween,2021.2.3,59.97307208893416,
,,,,102,0,102,0,,,,,,,,,,,,,,,,,,,,,,826.6738397000008,None,,,,,,,,,,,,,,,,,victory,56,103,silent,old,blue,823.2904984999986,None,823.2904984999986,None,2,1.2660143000030075,823.2904984999986,None,1.2660143000030075,824.5959530999971,None,825.1056659999958,None,825.1056659999958,None,n,1.5466706000006525,825.1056659999958,None,1.5466706000006525,,,125Scilent,001,2023_Sep_19_0938,ProdSingRedoBetween,2021.2.3,59.97307208893416,
,,,,103,0,103,0,,,,,,,,,,,,,,,,,,,,,,831.3646578999978,None,,,,,,,,,,,,,,,,,career,172,104,silent,new,null,827.1814813000019,None,827.1814813000019,None,4,3.3108951000031084,827.1814813000019,None,3.3108951000031084,830.512601399998,None,831.0316445999997,None,831.0316445999997,None,f,0.3006346999973175,831.0316445999997,None,0.3006346999973175,,,125Scilent,001,2023_Sep_19_0938,ProdSingRedoBetween,2021.2.3,59.97307208893416,
,,,,104,0,104,0,,,,,,,,,,,,,,,,,,,,,,834.1509318999961,None,,,,,,,,,,,,,,,,,count,87,105,silent,old,red,831.8986493999982,None,831.8986493999982,None,1,1.6337745999990148,831.8986493999982,None,1.6337745999990148,833.5705082999993,None,834.0965944999989,None,834.0965944999989,None,n,0.01991439999983413,834.0965944999989,None,0.01991439999983413,,,125Scilent,001,2023_Sep_19_0938,ProdSingRedoBetween,2021.2.3,59.97307208893416,
,,,,105,0,105,0,,,,,,,,,,,,,,,,,,,,,,838.3052163999964,None,,,,,,,,,,,,,,,,,group,23,106,silent,old,yellow,834.6801087999993,None,834.6801087999993,None,4,2.580200699994748,834.6801087999993,None,2.580200699994748,837.2870986999988,None,837.8067431999953,None,837.8067431999953,None,f,0.4779036000036285,837.8067431999953,None,0.4779036000036285,,,125Scilent,001,2023_Sep_19_0938,ProdSingRedoBetween,2021.2.3,59.97307208893416,
,,,,106,0,106,0,,,,,,,,,,,,,,,,,,,,,,841.0217330000014,None,,,,,,,,,,,,,,,,,permit,158,107,silent,new,null,838.8227847999951,None,838.8227847999951,None,1,1.2215682000023662,838.8227847999951,None,1.2215682000023662,840.0779101000007,None,840.6020081999959,None,840.6020081999959,None,n,0.3944469999987632,840.6020081999959,None,0.3944469999987632,,,125Scilent,001,2023_Sep_19_0938,ProdSingRedoBetween,2021.2.3,59.97307208893416,
,,,,107,0,107,0,,,,,,,,,,,,,,,,,,,,,,843.7245572999964,None,,,,,,,,,,,,,,,,,shape,178,108,silent,new,null,841.5235553999955,None,841.5235553999955,None,1,1.2727165999967838,841.5235553999955,None,1.2727165999967838,842.8266212000017,None,843.3402110999959,None,843.3402110999959,None,n,0.3521325000037905,843.3402110999959,None,0.3521325000037905,,,125Scilent,001,2023_Sep_19_0938,ProdSingRedoBetween,2021.2.3,59.97307208893416,
,,,,108,0,108,0,,,,,,,,,,,,,,,,,,,,,,846.6439296999961,None,,,,,,,,,,,,,,,,,youth,6,109,silent,old,yellow,844.2310131999984,None,844.2310131999984,None,6,1.3733964999992168,844.2310131999984,None,1.3733964999992168,845.6351094999991,None,846.1473317999989,None,846.1473317999989,None,r,0.4652187000028789,846.1473317999989,None,0.4652187000028789,,,125Scilent,001,2023_Sep_19_0938,ProdSingRedoBetween,2021.2.3,59.97307208893416,
,,,,109,0,109,0,,,,,,,,,,,,,,,,,,,,,,849.5803291999982,None,,,,,,,,,,,,,,,,,safety,165,110,silent,new,null,847.1499962000016,None,847.1499962000016,None,2,1.8223367999962647,847.1499962000016,None,1.8223367999962647,848.9992608999964,None,849.513036700002,None,849.513036700002,None,n,0.05139069999859203,849.513036700002,None,0.05139069999859203,,,125Scilent,001,2023_Sep_19_0938,ProdSingRedoBetween,2021.2.3,59.97307208893416,
,,,,110,0,110,0,,,,,,,,,,,,,,,,,,,,,,853.2677334999971,None,,,,,,,,,,,,,,,,,period,73,111,silent,old,red,850.0871420999974,None,850.0871420999974,None,6,1.3892975999988266,850.0871420999974,None,1.3892975999988266,851.5092021000019,None,852.0190767999957,None,852.0190767999957,None,r,1.2252619999999297,852.0190767999957,None,1.2252619999999297,,,125Scilent,001,2023_Sep_19_0938,ProdSingRedoBetween,2021.2.3,59.97307208893416,
,,,,111,0,111,0,,,,,,,,,,,,,,,,,,,,,,855.6176668999979,None,,,,,,,,,,,,,,,,,device,13,112,silent,old,yellow,853.7698511999988,None,853.7698511999988,None,1,1.202497800004494,853.7698511999988,None,1.202497800004494,855.0059196000002,None,855.5247976999963,None,855.5247976999963,None,n,0.055782199997338466,855.5247976999963,None,0.055782199997338466,,,125Scilent,001,2023_Sep_19_0938,ProdSingRedoBetween,2021.2.3,59.97307208893416,
,,,,112,0,112,0,,,,,,,,,,,,,,,,,,,,,,858.3892286999981,None,,,,,,,,,,,,,,,,,blind,169,113,silent,new,null,856.1387098999985,None,856.1387098999985,None,1,1.2256315000049653,856.1387098999985,None,1.2256315000049653,857.3908950999976,None,857.9051030999981,None,857.9051030999981,None,n,0.4593090000053053,857.9051030999981,None,0.4593090000053053,,,125Scilent,001,2023_Sep_19_0938,ProdSingRedoBetween,2021.2.3,59.97307208893416,
,,,,113,0,113,0,,,,,,,,,,,,,,,,,,,,,,861.2782024999979,None,,,,,,,,,,,,,,,,,guard,12,114,silent,old,yellow,858.8916028000021,None,858.8916028000021,None,1,1.4009020000012242,858.8916028000021,None,1.4009020000012242,860.3254560999994,None,860.8274316999959,None,860.8274316999959,None,n,0.4250222999980906,860.8274316999959,None,0.4250222999980906,,,125Scilent,001,2023_Sep_19_0938,ProdSingRedoBetween,2021.2.3,59.97307208893416,
,,,,114,0,114,0,,,,,,,,,,,,,,,,,,,,,,864.6519016999955,None,,,,,,,,,,,,,,,,,guide,108,115,silent,new,null,861.7960808999997,None,861.7960808999997,None,3,2.000297500002489,861.7960808999997,None,2.000297500002489,863.831073100002,None,864.3468543999988,None,864.3468543999988,None,f,0.28172579999954905,864.3468543999988,None,0.28172579999954905,,,125Scilent,001,2023_Sep_19_0938,ProdSingRedoBetween,2021.2.3,59.97307208893416,
,,,,115,0,115,0,,,,,,,,,,,,,,,,,,,,,,867.1829316000003,None,,,,,,,,,,,,,,,,,trash,115,116,silent,new,null,865.1697579999964,None,865.1697579999964,None,1,1.3784986999962712,865.1697579999964,None,1.3784986999962712,866.5824321999971,None,867.0922745999997,None,867.0922745999997,None,n,0.0721722000016598,867.0922745999997,None,0.0721722000016598,,,125Scilent,001,2023_Sep_19_0938,ProdSingRedoBetween,2021.2.3,59.97307208893416,
,,,,116,0,116,0,,,,,,,,,,,,,,,,,,,,,,870.4852477999957,None,,,,,,,,,,,,,,,,,atmosphere,129,117,silent,new,null,867.6993709999952,None,867.6993709999952,None,1,1.2969608000057633,867.6993709999952,None,1.2969608000057633,869.0194211999988,None,869.5351054999992,None,869.5351054999992,None,n,0.9332511000029626,869.5351054999992,None,0.9332511000029626,,,125Scilent,001,2023_Sep_19_0938,ProdSingRedoBetween,2021.2.3,59.97307208893416,
,,,,117,0,117,0,,,,,,,,,,,,,,,,,,,,,,873.2211745999957,None,,,,,,,,,,,,,,,,,length,41,118,silent,old,blue,871.0004923000015,None,871.0004923000015,None,1,1.4439070000007632,871.0004923000015,None,1.4439070000007632,872.4745294999957,None,872.986330599997,None,872.986330599997,None,n,0.21803670000372222,872.986330599997,None,0.21803670000372222,,,125Scilent,001,2023_Sep_19_0938,ProdSingRedoBetween,2021.2.3,59.97307208893416,
,,,,118,0,118,0,,,,,,,,,,,,,,,,,,,,,,875.8090641000017,None,,,,,,,,,,,,,,,,,phrase,146,119,silent,new,null,873.7273089000009,None,873.7273089000009,None,3,1.4211022000017692,873.7273089000009,None,1.4211022000017692,875.1742431000021,None,875.686832499996,None,875.686832499996,None,f,0.09359550000226591,875.686832499996,None,0.09359550000226591,,,125Scilent,001,2023_Sep_19_0938,ProdSingRedoBetween,2021.2.3,59.97307208893416,
,,,,119,0,119,0,,,,,,,,,,,,,,,,,,,,,,878.6759304000007,None,,,,,,,,,,,,,,,,,whole,50,120,silent,old,blue,876.3246201000002,None,876.3246201000002,None,6,1.7517356000025757,876.3246201000002,None,1.7517356000025757,878.0945110999965,None,878.608731399996,None,878.608731399996,None,r,0.03553790000296431,878.608731399996,None,0.03553790000296431,,,125Scilent,001,2023_Sep_19_0938,ProdSingRedoBetween,2021.2.3,59.97307208893416,
,,,,120,0,120,0,,,,,,,,,,,,,,,,,,,,,,881.7135758000004,None,,,,,,,,,,,,,,,,,danger,1,121,silent,old,yellow,879.1819647000011,None,879.1819647000011,None,3,1.9183600999967894,879.1819647000011,None,1.9183600999967894,881.135749299996,None,881.6456951,None,881.6456951,None,f,0.03865909999876749,881.6456951,None,0.03865909999876749,,,125Scilent,001,2023_Sep_19_0938,ProdSingRedoBetween,2021.2.3,59.97307208893416,
,,,,121,0,121,0,,,,,,,,,,,,,,,,,,,,,,888.8054818000019,None,,,,,,,,,,,,,,,,,color,135,122,silent,new,null,882.2170001999984,None,882.2170001999984,None,1,4.755399399997259,882.2170001999984,None,4.755399399997259,887.004353700002,None,887.5266365999996,None,887.5266365999996,None,n,1.253932600004191,887.5266365999996,None,1.253932600004191,,,125Scilent,001,2023_Sep_19_0938,ProdSingRedoBetween,2021.2.3,59.97307208893416,
,,,,122,0,122,0,,,,,,,,,,,,,,,,,,,,,,891.7393695999999,None,,,,,,,,,,,,,,,,,bureau,59,123,silent,old,yellow,889.3197618999984,None,889.3197618999984,None,6,1.4607705000016722,889.3197618999984,None,1.4607705000016722,890.811209200001,None,891.3252124999999,None,891.3252124999999,None,r,0.39112290000048233,891.3252124999999,None,0.39112290000048233,,,125Scilent,001,2023_Sep_19_0938,ProdSingRedoBetween,2021.2.3,59.97307208893416,
,,,,123,0,123,0,,,,,,,,,,,,,,,,,,,,,,895.5927804000021,None,,,,,,,,,,,,,,,,,foundation,28,124,silent,old,yellow,892.2504312000019,None,892.2504312000019,None,4,2.0179223000013735,892.2504312000019,None,2.0179223000013735,894.2958703999975,None,894.8084803999955,None,894.8084803999955,None,f,0.7638060999961453,894.8084803999955,None,0.7638060999961453,,,125Scilent,001,2023_Sep_19_0938,ProdSingRedoBetween,2021.2.3,59.97307208893416,
,,,,124,0,124,0,,,,,,,,,,,,,,,,,,,,,,900.5655329000001,None,,,,,,,,,,,,,,,,,surface,2,125,silent,old,yellow,896.0957416999954,None,896.0957416999954,None,6,3.892629300004046,896.0957416999954,None,3.892629300004046,900.0154515999966,None,900.5304225,None,900.5304225,None,r,0.01001890000043204,900.5304225,None,0.01001890000043204,,,125Scilent,001,2023_Sep_19_0938,ProdSingRedoBetween,2021.2.3,59.97307208893416,
,,,,125,0,125,0,,,,,,,,,,,,,,,,,,,,,,903.8512784999984,None,,,,,,,,,,,,,,,,,broke,83,126,silent,old,red,901.0826297000021,None,901.0826297000021,None,2,2.0896500000017113,901.0826297000021,None,2.0896500000017113,903.2017875999954,None,903.717032499997,None,903.717032499997,None,n,0.11131439999735449,903.717032499997,None,0.11131439999735449,,,125Scilent,001,2023_Sep_19_0938,ProdSingRedoBetween,2021.2.3,59.97307208893416,
,,,,126,0,126,0,,,,,,,,,,,,,,,,,,,,,,906.9874562999976,None,,,,,,,,,,,,,,,,,enemy,71,127,silent,old,red,904.3533731999996,None,904.3533731999996,None,6,1.9311587999982294,904.3533731999996,None,1.9311587999982294,906.3054465000023,None,906.8202567999979,None,906.8202567999979,None,r,0.13611500000115484,906.8202567999979,None,0.13611500000115484,,,125Scilent,001,2023_Sep_19_0938,ProdSingRedoBetween,2021.2.3,59.97307208893416,
,,,,127,0,127,0,,,,,,,,,,,,,,,,,,,,,,909.2102450999955,None,,,,,,,,,,,,,,,,,candidate,97,128,silent,new,null,907.4948216999983,None,907.4948216999983,None,1,1.1334671999939019,907.4948216999983,None,1.1334671999939019,908.6578044999987,None,909.1758435000011,None,909.1758435000011,None,n,0.012613600003533065,909.1758435000011,None,0.012613600003533065,,,125Scilent,001,2023_Sep_19_0938,ProdSingRedoBetween,2021.2.3,59.97307208893416,
,,,,128,0,128,0,,,,,,,,,,,,,,,,,,,,,,912.8267728999999,None,,,,,,,,,,,,,,,,,title,54,129,silent,old,blue,909.7235561999987,None,909.7235561999987,None,3,1.672821499996644,909.7235561999987,None,1.672821499996644,911.4264776999989,None,911.9375612000003,None,911.9375612000003,None,f,0.8588283999997657,911.9375612000003,None,0.8588283999997657,,,125Scilent,001,2023_Sep_19_0938,ProdSingRedoBetween,2021.2.3,59.97307208893416,
,,,,129,0,129,0,,,,,,,,,,,,,,,,,,,,,,915.2639946999989,None,,,,,,,,,,,,,,,,,still,164,130,silent,new,null,913.3302358000001,None,913.3302358000001,None,1,1.098361800002749,913.3302358000001,None,1.098361800002749,914.4497515999974,None,914.9664006000021,None,914.9664006000021,None,n,0.27009930000349414,914.9664006000021,None,0.27009930000349414,,,125Scilent,001,2023_Sep_19_0938,ProdSingRedoBetween,2021.2.3,59.97307208893416,
,,,,130,0,130,0,,,,,,,,,,,,,,,,,,,,,,918.1324509999977,None,,,,,,,,,,,,,,,,,straight,70,131,silent,old,red,915.7825799999991,None,915.7825799999991,None,3,1.653717899993353,915.7825799999991,None,1.653717899993353,917.4671433999974,None,917.9812714,None,917.9812714,None,f,0.12706180000532186,917.9812714,None,0.12706180000532186,,,125Scilent,001,2023_Sep_19_0938,ProdSingRedoBetween,2021.2.3,59.97307208893416,
,,,,131,0,131,0,,,,,,,,,,,,,,,,,,,,,,920.6508211999972,None,,,,,,,,,,,,,,,,,season,8,132,silent,old,yellow,918.652446,None,918.652446,None,1,1.3358927000008407,918.652446,None,1.3358927000008407,920.0185702000017,None,920.5338455999954,None,920.5338455999954,None,n,0.08650309999939054,920.5338455999954,None,0.08650309999939054,,,125Scilent,001,2023_Sep_19_0938,ProdSingRedoBetween,2021.2.3,59.97307208893416,
,,,,132,0,132,0,,,,,,,,,,,,,,,,,,,,,,924.2723115999979,None,,,,,,,,,,,,,,,,,speech,32,133,silent,old,blue,921.1621203999966,None,921.1621203999966,None,3,1.5061993999988772,921.1621203999966,None,1.5061993999988772,922.6910266999985,None,923.2073419000008,None,923.2073419000008,None,f,1.0451759999996284,923.2073419000008,None,1.0451759999996284,,,125Scilent,001,2023_Sep_19_0938,ProdSingRedoBetween,2021.2.3,59.97307208893416,
,,,,133,0,133,0,,,,,,,,,,,,,,,,,,,,,,927.3245852999971,None,,,,,,,,,,,,,,,,,music,113,134,silent,new,null,924.789051300002,None,924.789051300002,None,1,1.1112527000004775,924.789051300002,None,1.1112527000004775,925.9257658999995,None,926.4474211999986,None,926.4474211999986,None,n,0.8528881000020192,926.4474211999986,None,0.8528881000020192,,,125Scilent,001,2023_Sep_19_0938,ProdSingRedoBetween,2021.2.3,59.97307208893416,
,,,,134,0,134,0,,,,,,,,,,,,,,,,,,,,,,930.2778367999999,None,,,,,,,,,,,,,,,,,portion,44,135,silent,old,blue,927.8340141000008,None,927.8340141000008,None,5,1.666260500001954,927.8340141000008,None,1.666260500001954,929.5336702999994,None,930.0433112999963,None,930.0433112999963,None,f,0.20905860000493703,930.0433112999963,None,0.20905860000493703,,,125Scilent,001,2023_Sep_19_0938,ProdSingRedoBetween,2021.2.3,59.97307208893416,
,,,,135,0,135,0,,,,,,,,,,,,,,,,,,,,,,933.3972118999955,None,,,,,,,,,,,,,,,,,shear,116,136,silent,new,null,930.7806844000006,None,930.7806844000006,None,1,1.4556087000019033,930.7806844000006,None,1.4556087000019033,932.2647978000023,None,932.7793671999971,None,932.7793671999971,None,n,0.6009215000012773,932.7793671999971,None,0.6009215000012773,,,125Scilent,001,2023_Sep_19_0938,ProdSingRedoBetween,2021.2.3,59.97307208893416,
,,,,136,0,136,0,,,,,,,,,,,,,,,,,,,,,,937.3350928,None,,,,,,,,,,,,,,,,,contract,114,137,silent,new,null,933.8997335000022,None,933.8997335000022,None,3,2.3126179999962915,933.8997335000022,None,2.3126179999962915,936.2347760999983,None,936.7500741999975,None,936.7500741999975,None,n,0.5583436000015354,936.7500741999975,None,0.5583436000015354,,,125Scilent,001,2023_Sep_19_0938,ProdSingRedoBetween,2021.2.3,59.97307208893416,
,,,,137,0,137,0,,,,,,,,,,,,,,,,,,,,,,940.3709497999953,None,,,,,,,,,,,,,,,,,range,157,138,silent,new,null,937.8413050999952,None,937.8413050999952,None,4,1.6509825000030105,937.8413050999952,None,1.6509825000030105,939.5226935999963,None,940.0367348,None,940.0367348,None,f,0.30359589999716263,940.0367348,None,0.30359589999716263,,,125Scilent,001,2023_Sep_19_0938,ProdSingRedoBetween,2021.2.3,59.97307208893416,
,,,,138,0,138,0,,,,,,,,,,,,,,,,,,,,,,944.191318600002,None,,,,,,,,,,,,,,,,,mayor,174,139,silent,new,null,940.8873578999992,None,940.8873578999992,None,1,1.7489807000019937,940.8873578999992,None,1.7489807000019937,942.6625146000006,None,943.1734138999964,None,943.1734138999964,None,n,0.9990883999998914,943.1734138999964,None,0.9990883999998914,,,125Scilent,001,2023_Sep_19_0938,ProdSingRedoBetween,2021.2.3,59.97307208893416,
,,,,139,0,139,0,,,,,,,,,,,,,,,,,,,,,,947.4278969000006,None,,,,,,,,,,,,,,,,,crime,101,140,silent,new,null,944.6925047999976,None,944.6925047999976,None,1,2.047727199998917,944.6925047999976,None,2.047727199998917,946.7633695999975,None,947.2775581999958,None,947.2775581999958,None,n,0.11870890000136569,947.2775581999958,None,0.11870890000136569,,,125Scilent,001,2023_Sep_19_0938,ProdSingRedoBetween,2021.2.3,59.97307208893416,
,,,,140,0,140,0,,,,,,,,,,,,,,,,,,,,,,951.0486729999975,None,,,,,,,,,,,,,,,,,light,117,141,silent,new,null,947.9347664000015,None,947.9347664000015,None,1,1.1735487999976613,947.9347664000015,None,1.1735487999976613,949.1313355999955,None,949.6462553999954,None,949.6462553999954,None,n,1.3822570999982418,949.6462553999954,None,1.3822570999982418,,,125Scilent,001,2023_Sep_19_0938,ProdSingRedoBetween,2021.2.3,59.97307208893416,
,,,,141,0,141,0,,,,,,,,,,,,,,,,,,,,,,953.8716303999972,None,,,,,,,,,,,,,,,,,power,171,142,silent,new,null,951.5577009999979,None,951.5577009999979,None,5,1.6788000000015018,951.5577009999979,None,1.6788000000015018,953.2716986000014,None,953.7888738999973,None,953.7888738999973,None,f,0.055668300003162585,953.7888738999973,None,0.055668300003162585,,,125Scilent,001,2023_Sep_19_0938,ProdSingRedoBetween,2021.2.3,59.97307208893416,
,,,,142,0,142,0,,,,,,,,,,,,,,,,,,,,,,957.2880044999984,None,,,,,,,,,,,,,,,,,committee,26,143,silent,old,yellow,954.390576400001,None,954.390576400001,None,6,1.9737961999999243,954.390576400001,None,1.9737961999999243,956.3884526999973,None,956.9035590999993,None,956.9035590999993,None,r,0.35672409999824595,956.9035590999993,None,0.35672409999824595,,,125Scilent,001,2023_Sep_19_0938,ProdSingRedoBetween,2021.2.3,59.97307208893416,
,,,,143,0,143,0,,,,,,,,,,,,,,,,,,,,,,962.1095569999961,None,,,,,,,,,,,,,,,,,region,39,144,silent,old,blue,957.7954171999954,None,957.7954171999954,None,1,2.936907900002552,957.7954171999954,None,2.936907900002552,960.7623797999986,None,961.2745675999977,None,961.2745675999977,None,n,0.8178844000067329,961.2745675999977,None,0.8178844000067329,,,125Scilent,001,2023_Sep_19_0938,ProdSingRedoBetween,2021.2.3,59.97307208893416,
,,,,144,0,144,0,,,,,,,,,,,,,,,,,,,,,,965.2476047000018,None,,,,,,,,,,,,,,,,,concern,148,145,silent,new,null,962.6244002999956,None,962.6244002999956,None,4,1.5639898999943398,962.6244002999956,None,1.5639898999943398,964.2155597000019,None,964.7280356999981,None,964.7280356999981,None,f,0.5004914000019198,964.7280356999981,None,0.5004914000019198,,,125Scilent,001,2023_Sep_19_0938,ProdSingRedoBetween,2021.2.3,59.97307208893416,
,,,,145,0,145,0,,,,,,,,,,,,,,,,,,,,,,968.2818936999975,None,,,,,,,,,,,,,,,,,entrance,145,146,silent,new,null,965.7800654999955,None,965.7800654999955,None,2,1.7123160999981337,965.7800654999955,None,1.7123160999981337,967.5193882000021,None,968.0333934000009,None,968.0333934000009,None,n,0.2190370000025723,968.0333934000009,None,0.2190370000025723,,,125Scilent,001,2023_Sep_19_0938,ProdSingRedoBetween,2021.2.3,59.97307208893416,
,,,,146,0,146,0,,,,,,,,,,,,,,,,,,,,,,971.5215642999974,None,,,,,,,,,,,,,,,,,sleep,22,147,silent,old,yellow,968.7847451999987,None,968.7847451999987,None,6,1.739642200001981,968.7847451999987,None,1.739642200001981,970.5526937999966,None,971.0681880999982,None,971.0681880999982,None,r,0.4322182999967481,971.0681880999982,None,0.4322182999967481,,,125Scilent,001,2023_Sep_19_0938,ProdSingRedoBetween,2021.2.3,59.97307208893416,
,,,,147,0,147,0,,,,,,,,,,,,,,,,,,,,,,974.6561232999957,None,,,,,,,,,,,,,,,,,trail,161,148,silent,new,null,972.0386976000009,None,972.0386976000009,None,1,1.349631799996132,972.0386976000009,None,1.349631799996132,973.4057052999997,None,973.920783900001,None,973.920783900001,None,n,0.7156214999995427,973.920783900001,None,0.7156214999995427,,,125Scilent,001,2023_Sep_19_0938,ProdSingRedoBetween,2021.2.3,59.97307208893416,
,,,,148,0,148,0,,,,,,,,,,,,,,,,,,,,,,978.0036930999995,None,,,,,,,,,,,,,,,,,universal,126,149,silent,new,null,975.1741552999956,None,975.1741552999956,None,1,1.8221197000020766,975.1741552999956,None,1.8221197000020766,977.0266187000016,None,977.5459956999985,None,977.5459956999985,None,n,0.42664810000133,977.5459956999985,None,0.42664810000133,,,125Scilent,001,2023_Sep_19_0938,ProdSingRedoBetween,2021.2.3,59.97307208893416,
,,,,149,0,149,0,,,,,,,,,,,,,,,,,,,,,,981.2465575999959,None,,,,,,,,,,,,,,,,,treatment,138,150,silent,new,null,978.5108785999983,None,978.5108785999983,None,4,1.701442000005045,978.5108785999983,None,1.701442000005045,980.2462030999959,None,980.7656502999962,None,980.7656502999962,None,f,0.4547891999973217,980.7656502999962,None,0.4547891999973217,,,125Scilent,001,2023_Sep_19_0938,ProdSingRedoBetween,2021.2.3,59.97307208893416,
,,,,150,0,150,0,,,,,,,,,,,,,,,,,,,,,,985.8981347000008,None,,,,,,,,,,,,,,,,,grade,154,151,silent,new,null,981.7635279999959,None,981.7635279999959,None,6,3.216824999995879,981.7635279999959,None,3.216824999995879,985.0180370999951,None,985.5431551000001,None,985.5431551000001,None,r,0.3092958999986877,985.5431551000001,None,0.3092958999986877,,,125Scilent,001,2023_Sep_19_0938,ProdSingRedoBetween,2021.2.3,59.97307208893416,
,,,,151,0,151,0,,,,,,,,,,,,,,,,,,,,,,988.4353039999987,None,,,,,,,,,,,,,,,,,quantity,34,152,silent,old,blue,986.4037983000017,None,986.4037983000017,None,3,1.4085414000001037,986.4037983000017,None,1.4085414000001037,987.8378583000012,None,988.3518939999994,None,988.3518939999994,None,n,0.060461499997472856,988.3518939999994,None,0.060461499997472856,,,125Scilent,001,2023_Sep_19_0938,ProdSingRedoBetween,2021.2.3,59.97307208893416,
,,,,152,0,152,0,,,,,,,,,,,,,,,,,,,,,,991.2389355999985,None,,,,,,,,,,,,,,,,,payment,103,153,silent,new,null,988.9444928000012,None,988.9444928000012,None,4,1.4358460000003106,988.9444928000012,None,1.4358460000003106,990.4088606000005,None,990.9208983999997,None,990.9208983999997,None,f,0.2996571999974549,990.9208983999997,None,0.2996571999974549,,,125Scilent,001,2023_Sep_19_0938,ProdSingRedoBetween,2021.2.3,59.97307208893416,
,,,,153,0,153,0,,,,,,,,,,,,,,,,,,,,,,994.3611126999967,None,,,,,,,,,,,,,,,,,place,17,154,silent,old,yellow,991.7589649000001,None,991.7589649000001,None,6,1.9733530000012252,991.7589649000001,None,1.9733530000012252,993.7598824000015,None,994.2781799000004,None,994.2781799000004,None,r,0.05427069999859668,994.2781799000004,None,0.05427069999859668,,,125Scilent,001,2023_Sep_19_0938,ProdSingRedoBetween,2021.2.3,59.97307208893416,
,,,,154,0,154,0,,,,,,,,,,,,,,,,,,,,,,997.8126617000016,None,,,,,,,,,,,,,,,,,birth,79,155,silent,old,red,994.8769797999994,None,994.8769797999994,None,1,1.8073953999992227,994.8769797999994,None,1.8073953999992227,996.7138455999957,None,997.2277191999965,None,997.2277191999965,None,n,0.5526281999991625,997.2277191999965,None,0.5526281999991625,,,125Scilent,001,2023_Sep_19_0938,ProdSingRedoBetween,2021.2.3,59.97307208893416,
,,,,155,0,155,0,,,,,,,,,,,,,,,,,,,,,,1001.4690791999965,None,,,,,,,,,,,,,,,,,under,53,156,silent,old,blue,998.3282510999998,None,998.3282510999998,None,1,2.5400940000035916,998.3282510999998,None,2.5400940000035916,1000.9004382999992,None,1001.4187334999951,None,1001.4187334999951,None,n,0.025811999999859836,1001.4187334999951,None,0.025811999999859836,,,125Scilent,001,2023_Sep_19_0938,ProdSingRedoBetween,2021.2.3,59.97307208893416,
,,,,156,0,156,0,,,,,,,,,,,,,,,,,,,,,,1005.9035489000016,None,,,,,,,,,,,,,,,,,fellow,78,157,silent,old,red,1001.9862658999991,None,1001.9862658999991,None,6,2.3780029000045033,1001.9862658999991,None,2.3780029000045033,1004.3874224999963,None,1004.9014076999956,None,1004.9014076999956,None,r,0.9829358999995748,1004.9014076999956,None,0.9829358999995748,,,125Scilent,001,2023_Sep_19_0938,ProdSingRedoBetween,2021.2.3,59.97307208893416,
,,,,157,0,157,0,,,,,,,,,,,,,,,,,,,,,,1010.5077884999992,None,,,,,,,,,,,,,,,,,collection,134,158,silent,new,null,1006.4052550999986,None,1006.4052550999986,None,4,2.3510878999950364,1006.4052550999986,None,2.3510878999950364,1008.7762350999983,None,1009.2891430000018,None,1009.2891430000018,None,n,1.1871862999978475,1009.2891430000018,None,1.1871862999978475,,,125Scilent,001,2023_Sep_19_0938,ProdSingRedoBetween,2021.2.3,59.97307208893416,
,,,,158,0,158,0,,,,,,,,,,,,,,,,,,,,,,1013.0442703000008,None,,,,,,,,,,,,,,,,,court,153,159,silent,new,null,1011.0131349000003,None,1011.0131349000003,None,1,1.4313298999986728,1011.0131349000003,None,1.4313298999986728,1012.4789291999987,None,1012.992868399997,None,1012.992868399997,None,n,0.02759160000277916,1012.992868399997,None,0.02759160000277916,,,125Scilent,001,2023_Sep_19_0938,ProdSingRedoBetween,2021.2.3,59.97307208893416,
,,,,159,0,159,0,,,,,,,,,,,,,,,,,,,,,,1016.3967011999994,None,,,,,,,,,,,,,,,,,pressure,5,160,silent,old,yellow,1013.5463199000005,None,1013.5463199000005,None,6,1.9779875999956857,1013.5463199000005,None,1.9779875999956857,1015.5476759000012,None,1016.0629375999997,None,1016.0629375999997,None,r,0.3094192999997176,1016.0629375999997,None,0.3094192999997176,,,125Scilent,001,2023_Sep_19_0938,ProdSingRedoBetween,2021.2.3,59.97307208893416,
,,,,160,0,160,0,,,,,,,,,,,,,,,,,,,,,,1021.166532700001,None,,,,,,,,,,,,,,,,,commercial,141,161,silent,new,null,1016.9050370999976,None,1016.9050370999976,None,4,3.2672062999990885,1016.9050370999976,None,3.2672062999990885,1020.202088799997,None,1020.7172296999997,None,1020.7172296999997,None,f,0.41536510000150884,1020.7172296999997,None,0.41536510000150884,,,125Scilent,001,2023_Sep_19_0938,ProdSingRedoBetween,2021.2.3,59.97307208893416,
,,,,161,0,161,0,,,,,,,,,,,,,,,,,,,,,,1023.6722095000005,None,,,,,,,,,,,,,,,,,welcome,95,162,silent,new,null,1021.6704281999992,None,1021.6704281999992,None,1,1.4140657000025385,1021.6704281999992,None,1.4140657000025385,1023.1059779999996,None,1023.6243030999976,None,1023.6243030999976,None,n,0.004203099997539539,1023.6243030999976,None,0.004203099997539539,,,125Scilent,001,2023_Sep_19_0938,ProdSingRedoBetween,2021.2.3,59.97307208893416,
,,,,162,0,162,0,,,,,,,,,,,,,,,,,,,,,,1027.108111499998,None,,,,,,,,,,,,,,,,,community,150,163,silent,new,null,1024.1889209,None,1024.1889209,None,6,2.1513982999967993,1024.1889209,None,2.1513982999967993,1026.3589164000005,None,1026.8737342000022,None,1026.8737342000022,None,r,0.2105020000017248,1026.8737342000022,None,0.2105020000017248,,,125Scilent,001,2023_Sep_19_0938,ProdSingRedoBetween,2021.2.3,59.97307208893416,
,,,,163,0,163,0,,,,,,,,,,,,,,,,,,,,,,1030.6806253999966,None,,,,,,,,,,,,,,,,,message,109,164,silent,new,null,1027.6102523000009,None,1027.6102523000009,None,6,1.8741124000007403,1027.6102523000009,None,1.8741124000007403,1029.5124481999956,None,1030.0314304999993,None,1030.0314304999993,None,r,0.6209597999986727,1030.0314304999993,None,0.6209597999986727,,,125Scilent,001,2023_Sep_19_0938,ProdSingRedoBetween,2021.2.3,59.97307208893416,
,,,,164,0,164,0,,,,,,,,,,,,,,,,,,,,,,1033.0798611999999,None,,,,,,,,,,,,,,,,,build,88,165,silent,old,red,1031.202651300002,None,1031.202651300002,None,6,1.2176938999982667,1031.202651300002,None,1.2176938999982667,1032.4504518999966,None,1032.9628196999984,None,1032.9628196999984,None,r,0.08946989999822108,1032.9628196999984,None,0.08946989999822108,,,125Scilent,001,2023_Sep_19_0938,ProdSingRedoBetween,2021.2.3,59.97307208893416,
,,,,165,0,165,0,,,,,,,,,,,,,,,,,,,,,,1036.2344737000021,None,,,,,,,,,,,,,,,,,balance,96,166,silent,new,null,1033.5822862999994,None,1033.5822862999994,None,4,1.6540606999988086,1033.5822862999994,None,1.6540606999988086,1035.2675123000008,None,1035.784315799996,None,1035.784315799996,None,f,0.4122972000041045,1035.784315799996,None,0.4122972000041045,,,125Scilent,001,2023_Sep_19_0938,ProdSingRedoBetween,2021.2.3,59.97307208893416,
,,,,166,0,166,0,,,,,,,,,,,,,,,,,,,,,,1039.7908872999978,None,,,,,,,,,,,,,,,,,patient,89,167,silent,old,red,1036.7412241999991,None,1036.7412241999991,None,4,2.159295999997994,1036.7412241999991,None,2.159295999997994,1038.9213320999988,None,1039.4361282999962,None,1039.4361282999962,None,f,0.33630980000452837,1039.4361282999962,None,0.33630980000452837,,,125Scilent,001,2023_Sep_19_0938,ProdSingRedoBetween,2021.2.3,59.97307208893416,
,,,,167,0,167,0,,,,,,,,,,,,,,,,,,,,,,1043.342579199998,None,,,,,,,,,,,,,,,,,bright,19,168,silent,old,yellow,1040.3049562000015,None,1040.3049562000015,None,4,1.4275147000007564,1040.3049562000015,None,1.4275147000007564,1041.7572123999998,None,1042.2797720999952,None,1042.2797720999952,None,n,1.0365512999997009,1042.2797720999952,None,1.0365512999997009,,,125Scilent,001,2023_Sep_19_0938,ProdSingRedoBetween,2021.2.3,59.97307208893416,
,,,,168,0,168,0,,,,,,,,,,,,,,,,,,,,,,1046.2293021000005,None,,,,,,,,,,,,,,,,,society,179,169,silent,new,null,1043.8607601999975,None,1043.8607601999975,None,6,1.407548900002439,1043.8607601999975,None,1.407548900002439,1045.2940503999998,None,1045.8139272999979,None,1045.8139272999979,None,r,0.39039860000048066,1045.8139272999979,None,0.39039860000048066,,,125Scilent,001,2023_Sep_19_0938,ProdSingRedoBetween,2021.2.3,59.97307208893416,
,,,,169,0,169,0,,,,,,,,,,,,,,,,,,,,,,1049.2144886000024,None,,,,,,,,,,,,,,,,,executive,136,170,silent,new,null,1046.7465800999998,None,1046.7465800999998,None,4,1.6338797999997041,1046.7465800999998,None,1.6338797999997041,1048.4155428000013,None,1048.9371204999989,None,1048.9371204999989,None,f,0.2512185999948997,1048.9371204999989,None,0.2512185999948997,,,125Scilent,001,2023_Sep_19_0938,ProdSingRedoBetween,2021.2.3,59.97307208893416,
,,,,170,0,170,0,,,,,,,,,,,,,,,,,,,,,,1052.202040199998,None,,,,,,,,,,,,,,,,,captain,140,171,silent,new,null,1049.7349783999962,None,1049.7349783999962,None,4,1.8776983999996446,1049.7349783999962,None,1.8776983999996446,1051.633981699997,None,1052.1530444000018,None,1052.1530444000018,None,f,0.011477000000013504,1052.1530444000018,None,0.011477000000013504,,,125Scilent,001,2023_Sep_19_0938,ProdSingRedoBetween,2021.2.3,59.97307208893416,
,,,,171,0,171,0,,,,,,,,,,,,,,,,,,,,,,1054.970424799998,None,,,,,,,,,,,,,,,,,measure,144,172,silent,new,null,1052.7195185999954,None,1052.7195185999954,None,1,1.380938000002061,1052.7195185999954,None,1.380938000002061,1054.1194913,None,1054.6409555999999,None,1054.6409555999999,None,n,0.30733790000522276,1054.6409555999999,None,0.30733790000522276,,,125Scilent,001,2023_Sep_19_0938,ProdSingRedoBetween,2021.2.3,59.97307208893416,
,,,,172,0,172,0,,,,,,,,,,,,,,,,,,,,,,1057.321228599998,None,,,,,,,,,,,,,,,,,bicycle,9,173,silent,old,yellow,1055.4915647000016,None,1055.4915647000016,None,1,1.1686814999993658,1055.4915647000016,None,1.1686814999993658,1056.6896947999994,None,1057.2190660999986,None,1057.2190660999986,None,n,0.07325849999324419,1057.2190660999986,None,0.07325849999324419,,,125Scilent,001,2023_Sep_19_0938,ProdSingRedoBetween,2021.2.3,59.97307208893416,
,,,,173,0,173,0,,,,,,,,,,,,,,,,,,,,,,1060.307010299999,None,,,,,,,,,,,,,,,,,session,81,174,silent,old,red,1057.8293417999957,None,1057.8293417999957,None,2,1.7190184000064619,1057.8293417999957,None,1.7190184000064619,1059.5773335999984,None,1060.090254099996,None,1060.090254099996,None,n,0.18607499999779975,1060.090254099996,None,0.18607499999779975,,,125Scilent,001,2023_Sep_19_0938,ProdSingRedoBetween,2021.2.3,59.97307208893416,
,,,,174,0,174,0,,,,,,,,,,,,,,,,,,,,,,1062.9265899999955,None,,,,,,,,,,,,,,,,,right,128,175,silent,new,null,1060.8131164000006,None,1060.8131164000006,None,1,1.5351321000052849,1060.8131164000006,None,1.5351321000052849,1062.3772548999987,None,1062.8928310999981,None,1062.8928310999981,None,n,0.007439599998178892,1062.8928310999981,None,0.007439599998178892,,,125Scilent,001,2023_Sep_19_0938,ProdSingRedoBetween,2021.2.3,59.97307208893416,
,,,,175,0,175,0,,,,,,,,,,,,,,,,,,,,,,1067.8164805999986,None,,,,,,,,,,,,,,,,,reading,21,176,silent,old,yellow,1063.428551500001,None,1063.428551500001,None,1,3.2877651000017067,1063.428551500001,None,3.2877651000017067,1066.7486529000016,None,1067.2573932000014,None,1067.2573932000014,None,n,0.5391308999969624,1067.2573932000014,None,0.5391308999969624,,,125Scilent,001,2023_Sep_19_0938,ProdSingRedoBetween,2021.2.3,59.97307208893416,
