StudyLoop.thisRepN,StudyLoop.thisTrialN,StudyLoop.thisN,StudyLoop.thisIndex,TestLoop.thisRepN,TestLoop.thisTrialN,TestLoop.thisN,TestLoop.thisIndex,textCondition.started,textCondition.stopped,keyCondition.keys,keyCondition.rt,keyCondition.started,keyCondition.stopped,Condition,textWelcome.started,textWelcome.stopped,keyWelcome.keys,keyWelcome.rt,keyWelcome.started,keyWelcome.stopped,textAloud.started,textAloud.stopped,textSilent.started,textSilent.stopped,textSing.started,textSing.stopped,conditional_text.started,conditional_text.stopped,textBlank500.started,textBlank500.stopped,study_word,study_num,study_order,study_type,word_color,textStudy.started,textStudy.stopped,keyStudy.keys,keyStudy.rt,keyStudy.started,keyStudy.stopped,textTestInstructions.started,textTestInstructions.stopped,key_resp_3.keys,key_resp_3.rt,key_resp_3.started,key_resp_3.stopped,test_word,test_num,test_order,test_condition,old_new_test,test_word_original_color,textConf.started,textConf.stopped,textConfScale.started,textConfScale.stopped,keyConf.keys,keyConf.rt,keyConf.started,keyConf.stopped,confidence response time,textTestBlank.started,textTestBlank.stopped,textRKN.started,textRKN.stopped,textRKNScale.started,textRKNScale.stopped,keyRKN.keys,keyRKN.rt,keyRKN.started,keyRKN.stopped,rkn response time,textEnd.started,textEnd.stopped,participant,session,date,expName,psychopyVersion,frameRate,
,,,,,,,,31.479808899995987,None,b,1.898639999999432,31.479808899995987,None,,,,,,,,,,,,,,,,,,,,,,,,,,,,,,,,,,,,,,,,,,,,,,,,,,,,,,,,,,,,,,,126Aloud,001,2023_Sep_19_0958,ProdSingRedoBetween,2021.2.3,59.97059042279817,
,,,,,,,,,,,,,,AloudTest,33.44073789999675,None,space,246.14573839999503,33.44073789999675,None,,,,,,,,,,,,,,,,,,,,,,,,,,,,,,,,,,,,,,,,,,,,,,,,,,,,,,,,126Aloud,001,2023_Sep_19_0958,ProdSingRedoBetween,2021.2.3,59.97059042279817,
0,0,0,0,,,,,,,,,,,,,,,,,,33.44073789999675,None,33.44073789999675,None,33.44073789999675,None,33.44073789999675,None,282.12283910000406,None,master,35,1,aloud,blue,280.12030219999724,None,space,1.897910999992746,280.12030219999724,None,,,,,,,,,,,,,,,,,,,,,,,,,,,,,,,,,,,126Aloud,001,2023_Sep_19_0958,ProdSingRedoBetween,2021.2.3,59.97059042279817,
1,0,1,0,,,,,,,,,,,,,,,,,,,,,,,,,,284.62538289999065,None,south,59,2,aloud,yellow,282.62481449999905,None,space,1.5934093999967445,282.62481449999905,None,,,,,,,,,,,,,,,,,,,,,,,,,,,,,,,,,,,126Aloud,001,2023_Sep_19_0958,ProdSingRedoBetween,2021.2.3,59.97059042279817,
2,0,2,0,,,,,,,,,,,,,,,,,,,,,,,,,,287.1444358000008,None,season,81,3,aloud,red,285.1303135999915,None,None,,285.1303135999915,None,,,,,,,,,,,,,,,,,,,,,,,,,,,,,,,,,,,126Aloud,001,2023_Sep_19_0958,ProdSingRedoBetween,2021.2.3,59.97059042279817,
3,0,3,0,,,,,,,,,,,,,,,,,,,,,,,,,,289.6466375000018,None,prime,74,4,aloud,red,287.6471764000016,None,None,,287.6471764000016,None,,,,,,,,,,,,,,,,,,,,,,,,,,,,,,,,,,,126Aloud,001,2023_Sep_19_0958,ProdSingRedoBetween,2021.2.3,59.97059042279817,
4,0,4,0,,,,,,,,,,,,,,,,,,,,,,,,,,292.1491227999941,None,emergency,40,5,aloud,blue,290.14840659999754,None,None,,290.14840659999754,None,,,,,,,,,,,,,,,,,,,,,,,,,,,,,,,,,,,126Aloud,001,2023_Sep_19_0958,ProdSingRedoBetween,2021.2.3,59.97059042279817,
5,0,5,0,,,,,,,,,,,,,,,,,,,,,,,,,,294.6683975999913,None,company,33,6,aloud,blue,292.6538598999905,None,None,,292.6538598999905,None,,,,,,,,,,,,,,,,,,,,,,,,,,,,,,,,,,,126Aloud,001,2023_Sep_19_0958,ProdSingRedoBetween,2021.2.3,59.97059042279817,
6,0,6,0,,,,,,,,,,,,,,,,,,,,,,,,,,297.17113449999306,None,comfort,3,7,aloud,yellow,295.1720268999925,None,None,,295.1720268999925,None,,,,,,,,,,,,,,,,,,,,,,,,,,,,,,,,,,,126Aloud,001,2023_Sep_19_0958,ProdSingRedoBetween,2021.2.3,59.97059042279817,
7,0,7,0,,,,,,,,,,,,,,,,,,,,,,,,,,299.69030210000346,None,question,57,8,aloud,blue,297.6806516999932,None,None,,297.6806516999932,None,,,,,,,,,,,,,,,,,,,,,,,,,,,,,,,,,,,126Aloud,001,2023_Sep_19_0958,ProdSingRedoBetween,2021.2.3,59.97059042279817,
8,0,8,0,,,,,,,,,,,,,,,,,,,,,,,,,,302.2094134999934,None,motion,10,9,aloud,yellow,300.1967277999938,None,None,,300.1967277999938,None,,,,,,,,,,,,,,,,,,,,,,,,,,,,,,,,,,,126Aloud,001,2023_Sep_19_0958,ProdSingRedoBetween,2021.2.3,59.97059042279817,
9,0,9,0,,,,,,,,,,,,,,,,,,,,,,,,,,304.7119227999938,None,trend,71,10,aloud,red,302.71188869999605,None,None,,302.71188869999605,None,,,,,,,,,,,,,,,,,,,,,,,,,,,,,,,,,,,126Aloud,001,2023_Sep_19_0958,ProdSingRedoBetween,2021.2.3,59.97059042279817,
10,0,10,0,,,,,,,,,,,,,,,,,,,,,,,,,,307.23128330000327,None,curve,53,11,aloud,blue,305.21918580000056,None,None,,305.21918580000056,None,,,,,,,,,,,,,,,,,,,,,,,,,,,,,,,,,,,126Aloud,001,2023_Sep_19_0958,ProdSingRedoBetween,2021.2.3,59.97059042279817,
11,0,11,0,,,,,,,,,,,,,,,,,,,,,,,,,,309.7337622999912,None,surprise,85,12,aloud,red,307.734838999997,None,None,,307.734838999997,None,,,,,,,,,,,,,,,,,,,,,,,,,,,,,,,,,,,126Aloud,001,2023_Sep_19_0958,ProdSingRedoBetween,2021.2.3,59.97059042279817,
12,0,12,0,,,,,,,,,,,,,,,,,,,,,,,,,,312.2527898999979,None,drink,1,13,aloud,yellow,310.23981129999447,None,None,,310.23981129999447,None,,,,,,,,,,,,,,,,,,,,,,,,,,,,,,,,,,,126Aloud,001,2023_Sep_19_0958,ProdSingRedoBetween,2021.2.3,59.97059042279817,
13,0,13,0,,,,,,,,,,,,,,,,,,,,,,,,,,314.75509589999274,None,author,80,14,aloud,red,312.7561815999943,None,None,,312.7561815999943,None,,,,,,,,,,,,,,,,,,,,,,,,,,,,,,,,,,,126Aloud,001,2023_Sep_19_0958,ProdSingRedoBetween,2021.2.3,59.97059042279817,
14,0,14,0,,,,,,,,,,,,,,,,,,,,,,,,,,317.27478500000143,None,pattern,54,15,aloud,blue,315.2606206999917,None,None,,315.2606206999917,None,,,,,,,,,,,,,,,,,,,,,,,,,,,,,,,,,,,126Aloud,001,2023_Sep_19_0958,ProdSingRedoBetween,2021.2.3,59.97059042279817,
15,0,15,0,,,,,,,,,,,,,,,,,,,,,,,,,,319.79365459999826,None,dozen,12,16,aloud,yellow,317.7789252999937,None,None,,317.7789252999937,None,,,,,,,,,,,,,,,,,,,,,,,,,,,,,,,,,,,126Aloud,001,2023_Sep_19_0958,ProdSingRedoBetween,2021.2.3,59.97059042279817,
16,0,16,0,,,,,,,,,,,,,,,,,,,,,,,,,,322.2962523000024,None,thick,39,17,aloud,blue,320.2964867999981,None,None,,320.2964867999981,None,,,,,,,,,,,,,,,,,,,,,,,,,,,,,,,,,,,126Aloud,001,2023_Sep_19_0958,ProdSingRedoBetween,2021.2.3,59.97059042279817,
17,0,17,0,,,,,,,,,,,,,,,,,,,,,,,,,,324.8152979000006,None,division,63,18,aloud,red,322.81137689999014,None,None,,322.81137689999014,None,,,,,,,,,,,,,,,,,,,,,,,,,,,,,,,,,,,126Aloud,001,2023_Sep_19_0958,ProdSingRedoBetween,2021.2.3,59.97059042279817,
18,0,18,0,,,,,,,,,,,,,,,,,,,,,,,,,,327.31772789999377,None,mayor,8,19,aloud,yellow,325.31814479999593,None,None,,325.31814479999593,None,,,,,,,,,,,,,,,,,,,,,,,,,,,,,,,,,,,126Aloud,001,2023_Sep_19_0958,ProdSingRedoBetween,2021.2.3,59.97059042279817,
19,0,19,0,,,,,,,,,,,,,,,,,,,,,,,,,,329.8201457999967,None,pancakes,52,20,aloud,blue,327.81980029999977,None,None,,327.81980029999977,None,,,,,,,,,,,,,,,,,,,,,,,,,,,,,,,,,,,126Aloud,001,2023_Sep_19_0958,ProdSingRedoBetween,2021.2.3,59.97059042279817,
20,0,20,0,,,,,,,,,,,,,,,,,,,,,,,,,,332.3229873999953,None,judge,13,21,aloud,yellow,330.3228031000035,None,None,,330.3228031000035,None,,,,,,,,,,,,,,,,,,,,,,,,,,,,,,,,,,,126Aloud,001,2023_Sep_19_0958,ProdSingRedoBetween,2021.2.3,59.97059042279817,
21,0,21,0,,,,,,,,,,,,,,,,,,,,,,,,,,334.84176840000146,None,reading,58,22,aloud,blue,332.82727399999567,None,None,,332.82727399999567,None,,,,,,,,,,,,,,,,,,,,,,,,,,,,,,,,,,,126Aloud,001,2023_Sep_19_0958,ProdSingRedoBetween,2021.2.3,59.97059042279817,
22,0,22,0,,,,,,,,,,,,,,,,,,,,,,,,,,337.361061299991,None,crowd,27,23,aloud,yellow,335.3544563000032,None,None,,335.3544563000032,None,,,,,,,,,,,,,,,,,,,,,,,,,,,,,,,,,,,126Aloud,001,2023_Sep_19_0958,ProdSingRedoBetween,2021.2.3,59.97059042279817,
23,0,23,0,,,,,,,,,,,,,,,,,,,,,,,,,,339.8637097000028,None,finish,18,24,aloud,yellow,337.86373689999164,None,None,,337.86373689999164,None,,,,,,,,,,,,,,,,,,,,,,,,,,,,,,,,,,,126Aloud,001,2023_Sep_19_0958,ProdSingRedoBetween,2021.2.3,59.97059042279817,
24,0,24,0,,,,,,,,,,,,,,,,,,,,,,,,,,342.38265869999304,None,strain,15,25,aloud,yellow,340.3676121000026,None,None,,340.3676121000026,None,,,,,,,,,,,,,,,,,,,,,,,,,,,,,,,,,,,126Aloud,001,2023_Sep_19_0958,ProdSingRedoBetween,2021.2.3,59.97059042279817,
25,0,25,0,,,,,,,,,,,,,,,,,,,,,,,,,,344.8855201999977,None,colonel,60,26,aloud,red,342.8852283000015,None,None,,342.8852283000015,None,,,,,,,,,,,,,,,,,,,,,,,,,,,,,,,,,,,126Aloud,001,2023_Sep_19_0958,ProdSingRedoBetween,2021.2.3,59.97059042279817,
26,0,26,0,,,,,,,,,,,,,,,,,,,,,,,,,,347.3879145999963,None,clear,64,27,aloud,red,345.38622210000176,None,None,,345.38622210000176,None,,,,,,,,,,,,,,,,,,,,,,,,,,,,,,,,,,,126Aloud,001,2023_Sep_19_0958,ProdSingRedoBetween,2021.2.3,59.97059042279817,
27,0,27,0,,,,,,,,,,,,,,,,,,,,,,,,,,349.8901334999973,None,right,87,28,aloud,red,347.8904773999966,None,None,,347.8904773999966,None,,,,,,,,,,,,,,,,,,,,,,,,,,,,,,,,,,,126Aloud,001,2023_Sep_19_0958,ProdSingRedoBetween,2021.2.3,59.97059042279817,
28,0,28,0,,,,,,,,,,,,,,,,,,,,,,,,,,352.3930546999909,None,point,26,29,aloud,yellow,350.39148659999773,None,None,,350.39148659999773,None,,,,,,,,,,,,,,,,,,,,,,,,,,,,,,,,,,,126Aloud,001,2023_Sep_19_0958,ProdSingRedoBetween,2021.2.3,59.97059042279817,
29,0,29,0,,,,,,,,,,,,,,,,,,,,,,,,,,354.9121168999991,None,skill,11,30,aloud,yellow,352.8973604999919,None,None,,352.8973604999919,None,,,,,,,,,,,,,,,,,,,,,,,,,,,,,,,,,,,126Aloud,001,2023_Sep_19_0958,ProdSingRedoBetween,2021.2.3,59.97059042279817,
30,0,30,0,,,,,,,,,,,,,,,,,,,,,,,,,,357.4310734000028,None,country,82,31,aloud,red,355.4214892000018,None,None,,355.4214892000018,None,,,,,,,,,,,,,,,,,,,,,,,,,,,,,,,,,,,126Aloud,001,2023_Sep_19_0958,ProdSingRedoBetween,2021.2.3,59.97059042279817,
31,0,31,0,,,,,,,,,,,,,,,,,,,,,,,,,,359.95051329999114,None,center,42,32,aloud,blue,357.9376113000035,None,None,,357.9376113000035,None,,,,,,,,,,,,,,,,,,,,,,,,,,,,,,,,,,,126Aloud,001,2023_Sep_19_0958,ProdSingRedoBetween,2021.2.3,59.97059042279817,
32,0,32,0,,,,,,,,,,,,,,,,,,,,,,,,,,362.45301359999576,None,meeting,34,33,aloud,blue,360.4518640000024,None,None,,360.4518640000024,None,,,,,,,,,,,,,,,,,,,,,,,,,,,,,,,,,,,126Aloud,001,2023_Sep_19_0958,ProdSingRedoBetween,2021.2.3,59.97059042279817,
33,0,33,0,,,,,,,,,,,,,,,,,,,,,,,,,,364.97206410000217,None,direction,14,34,aloud,yellow,362.95634799999243,None,None,,362.95634799999243,None,,,,,,,,,,,,,,,,,,,,,,,,,,,,,,,,,,,126Aloud,001,2023_Sep_19_0958,ProdSingRedoBetween,2021.2.3,59.97059042279817,
34,0,34,0,,,,,,,,,,,,,,,,,,,,,,,,,,367.49126549999346,None,short,31,35,aloud,blue,365.4789659999951,None,None,,365.4789659999951,None,,,,,,,,,,,,,,,,,,,,,,,,,,,,,,,,,,,126Aloud,001,2023_Sep_19_0958,ProdSingRedoBetween,2021.2.3,59.97059042279817,
35,0,35,0,,,,,,,,,,,,,,,,,,,,,,,,,,369.9938380999956,None,pressure,65,36,aloud,red,367.9944469000038,None,None,,367.9944469000038,None,,,,,,,,,,,,,,,,,,,,,,,,,,,,,,,,,,,126Aloud,001,2023_Sep_19_0958,ProdSingRedoBetween,2021.2.3,59.97059042279817,
36,0,36,0,,,,,,,,,,,,,,,,,,,,,,,,,,372.5131682999927,None,present,66,37,aloud,red,370.4979897000012,None,None,,370.4979897000012,None,,,,,,,,,,,,,,,,,,,,,,,,,,,,,,,,,,,126Aloud,001,2023_Sep_19_0958,ProdSingRedoBetween,2021.2.3,59.97059042279817,
37,0,37,0,,,,,,,,,,,,,,,,,,,,,,,,,,375.0153316999931,None,afternoon,29,38,aloud,blue,373.0156019999995,None,None,,373.0156019999995,None,,,,,,,,,,,,,,,,,,,,,,,,,,,,,,,,,,,126Aloud,001,2023_Sep_19_0958,ProdSingRedoBetween,2021.2.3,59.97059042279817,
38,0,38,0,,,,,,,,,,,,,,,,,,,,,,,,,,377.5178600999934,None,taste,9,39,aloud,yellow,375.5182619999978,None,None,,375.5182619999978,None,,,,,,,,,,,,,,,,,,,,,,,,,,,,,,,,,,,126Aloud,001,2023_Sep_19_0958,ProdSingRedoBetween,2021.2.3,59.97059042279817,
39,0,39,0,,,,,,,,,,,,,,,,,,,,,,,,,,380.02022969999234,None,budget,19,40,aloud,yellow,378.02013059999445,None,None,,378.02013059999445,None,,,,,,,,,,,,,,,,,,,,,,,,,,,,,,,,,,,126Aloud,001,2023_Sep_19_0958,ProdSingRedoBetween,2021.2.3,59.97059042279817,
40,0,40,0,,,,,,,,,,,,,,,,,,,,,,,,,,382.52306469999894,None,cross,44,41,aloud,blue,380.5227664999984,None,None,,380.5227664999984,None,,,,,,,,,,,,,,,,,,,,,,,,,,,,,,,,,,,126Aloud,001,2023_Sep_19_0958,ProdSingRedoBetween,2021.2.3,59.97059042279817,
41,0,41,0,,,,,,,,,,,,,,,,,,,,,,,,,,385.0422988999926,None,swift,32,42,aloud,blue,383.0277657999977,None,None,,383.0277657999977,None,,,,,,,,,,,,,,,,,,,,,,,,,,,,,,,,,,,126Aloud,001,2023_Sep_19_0958,ProdSingRedoBetween,2021.2.3,59.97059042279817,
42,0,42,0,,,,,,,,,,,,,,,,,,,,,,,,,,387.5446693999984,None,career,47,43,aloud,blue,385.5453959000006,None,None,,385.5453959000006,None,,,,,,,,,,,,,,,,,,,,,,,,,,,,,,,,,,,126Aloud,001,2023_Sep_19_0958,ProdSingRedoBetween,2021.2.3,59.97059042279817,
43,0,43,0,,,,,,,,,,,,,,,,,,,,,,,,,,390.0473633999936,None,listen,68,44,aloud,red,388.04792460000317,None,None,,388.04792460000317,None,,,,,,,,,,,,,,,,,,,,,,,,,,,,,,,,,,,126Aloud,001,2023_Sep_19_0958,ProdSingRedoBetween,2021.2.3,59.97059042279817,
44,0,44,0,,,,,,,,,,,,,,,,,,,,,,,,,,392.56630320000113,None,quarter,73,45,aloud,red,390.55053999999654,None,None,,390.55053999999654,None,,,,,,,,,,,,,,,,,,,,,,,,,,,,,,,,,,,126Aloud,001,2023_Sep_19_0958,ProdSingRedoBetween,2021.2.3,59.97059042279817,
45,0,45,0,,,,,,,,,,,,,,,,,,,,,,,,,,395.0687290999922,None,equipment,36,46,aloud,blue,393.06733330000134,None,None,,393.06733330000134,None,,,,,,,,,,,,,,,,,,,,,,,,,,,,,,,,,,,126Aloud,001,2023_Sep_19_0958,ProdSingRedoBetween,2021.2.3,59.97059042279817,
46,0,46,0,,,,,,,,,,,,,,,,,,,,,,,,,,397.57128069999453,None,force,28,47,aloud,yellow,395.57140639999125,None,None,,395.57140639999125,None,,,,,,,,,,,,,,,,,,,,,,,,,,,,,,,,,,,126Aloud,001,2023_Sep_19_0958,ProdSingRedoBetween,2021.2.3,59.97059042279817,
47,0,47,0,,,,,,,,,,,,,,,,,,,,,,,,,,400.09070050000446,None,instrument,75,48,aloud,red,398.0844330999971,None,None,,398.0844330999971,None,,,,,,,,,,,,,,,,,,,,,,,,,,,,,,,,,,,126Aloud,001,2023_Sep_19_0958,ProdSingRedoBetween,2021.2.3,59.97059042279817,
48,0,48,0,,,,,,,,,,,,,,,,,,,,,,,,,,402.60985249999794,None,husband,24,49,aloud,yellow,400.5973609999928,None,None,,400.5973609999928,None,,,,,,,,,,,,,,,,,,,,,,,,,,,,,,,,,,,126Aloud,001,2023_Sep_19_0958,ProdSingRedoBetween,2021.2.3,59.97059042279817,
49,0,49,0,,,,,,,,,,,,,,,,,,,,,,,,,,405.1121207999968,None,answer,37,50,aloud,blue,403.10643040000286,None,None,,403.10643040000286,None,,,,,,,,,,,,,,,,,,,,,,,,,,,,,,,,,,,126Aloud,001,2023_Sep_19_0958,ProdSingRedoBetween,2021.2.3,59.97059042279817,
50,0,50,0,,,,,,,,,,,,,,,,,,,,,,,,,,407.61458789999597,None,scale,45,51,aloud,blue,405.6152934999991,None,None,,405.6152934999991,None,,,,,,,,,,,,,,,,,,,,,,,,,,,,,,,,,,,126Aloud,001,2023_Sep_19_0958,ProdSingRedoBetween,2021.2.3,59.97059042279817,
51,0,51,0,,,,,,,,,,,,,,,,,,,,,,,,,,410.1337829999975,None,capital,4,52,aloud,yellow,408.1201923000044,None,None,,408.1201923000044,None,,,,,,,,,,,,,,,,,,,,,,,,,,,,,,,,,,,126Aloud,001,2023_Sep_19_0958,ProdSingRedoBetween,2021.2.3,59.97059042279817,
52,0,52,0,,,,,,,,,,,,,,,,,,,,,,,,,,412.636387999999,None,hunger,5,53,aloud,yellow,410.6346540999948,None,None,,410.6346540999948,None,,,,,,,,,,,,,,,,,,,,,,,,,,,,,,,,,,,126Aloud,001,2023_Sep_19_0958,ProdSingRedoBetween,2021.2.3,59.97059042279817,
53,0,53,0,,,,,,,,,,,,,,,,,,,,,,,,,,415.15564820000145,None,power,88,54,aloud,red,413.14147829999274,None,None,,413.14147829999274,None,,,,,,,,,,,,,,,,,,,,,,,,,,,,,,,,,,,126Aloud,001,2023_Sep_19_0958,ProdSingRedoBetween,2021.2.3,59.97059042279817,
54,0,54,0,,,,,,,,,,,,,,,,,,,,,,,,,,417.6578814999957,None,corner,41,55,aloud,blue,415.65797179999936,None,None,,415.65797179999936,None,,,,,,,,,,,,,,,,,,,,,,,,,,,,,,,,,,,126Aloud,001,2023_Sep_19_0958,ProdSingRedoBetween,2021.2.3,59.97059042279817,
55,0,55,0,,,,,,,,,,,,,,,,,,,,,,,,,,420.1770082000003,None,profession,69,56,aloud,red,418.1731443000026,None,None,,418.1731443000026,None,,,,,,,,,,,,,,,,,,,,,,,,,,,,,,,,,,,126Aloud,001,2023_Sep_19_0958,ProdSingRedoBetween,2021.2.3,59.97059042279817,
56,0,56,0,,,,,,,,,,,,,,,,,,,,,,,,,,422.6795770000026,None,character,84,57,aloud,red,420.6797061999969,None,None,,420.6797061999969,None,,,,,,,,,,,,,,,,,,,,,,,,,,,,,,,,,,,126Aloud,001,2023_Sep_19_0958,ProdSingRedoBetween,2021.2.3,59.97059042279817,
57,0,57,0,,,,,,,,,,,,,,,,,,,,,,,,,,425.18196469999384,None,exchange,30,58,aloud,blue,423.1816068000044,None,None,,423.1816068000044,None,,,,,,,,,,,,,,,,,,,,,,,,,,,,,,,,,,,126Aloud,001,2023_Sep_19_0958,ProdSingRedoBetween,2021.2.3,59.97059042279817,
58,0,58,0,,,,,,,,,,,,,,,,,,,,,,,,,,427.6849072999903,None,contract,70,59,aloud,red,425.68535580000025,None,None,,425.68535580000025,None,,,,,,,,,,,,,,,,,,,,,,,,,,,,,,,,,,,126Aloud,001,2023_Sep_19_0958,ProdSingRedoBetween,2021.2.3,59.97059042279817,
59,0,59,0,,,,,,,,,,,,,,,,,,,,,,,,,,430.1872954999999,None,straight,6,60,aloud,yellow,428.18720159999793,None,None,,428.18720159999793,None,,,,,,,,,,,,,,,,,,,,,,,,,,,,,,,,,,,126Aloud,001,2023_Sep_19_0958,ProdSingRedoBetween,2021.2.3,59.97059042279817,
60,0,60,0,,,,,,,,,,,,,,,,,,,,,,,,,,432.68953099999635,None,sunset,2,61,aloud,yellow,430.6899080000003,None,None,,430.6899080000003,None,,,,,,,,,,,,,,,,,,,,,,,,,,,,,,,,,,,126Aloud,001,2023_Sep_19_0958,ProdSingRedoBetween,2021.2.3,59.97059042279817,
61,0,61,0,,,,,,,,,,,,,,,,,,,,,,,,,,435.20877869999094,None,piece,43,62,aloud,blue,433.19434000000183,None,None,,433.19434000000183,None,,,,,,,,,,,,,,,,,,,,,,,,,,,,,,,,,,,126Aloud,001,2023_Sep_19_0958,ProdSingRedoBetween,2021.2.3,59.97059042279817,
62,0,62,0,,,,,,,,,,,,,,,,,,,,,,,,,,437.71122179999657,None,estate,0,63,aloud,yellow,435.70962619999773,None,None,,435.70962619999773,None,,,,,,,,,,,,,,,,,,,,,,,,,,,,,,,,,,,126Aloud,001,2023_Sep_19_0958,ProdSingRedoBetween,2021.2.3,59.97059042279817,
63,0,63,0,,,,,,,,,,,,,,,,,,,,,,,,,,440.2306532999937,None,property,22,64,aloud,yellow,438.2320916000026,None,None,,438.2320916000026,None,,,,,,,,,,,,,,,,,,,,,,,,,,,,,,,,,,,126Aloud,001,2023_Sep_19_0958,ProdSingRedoBetween,2021.2.3,59.97059042279817,
64,0,64,0,,,,,,,,,,,,,,,,,,,,,,,,,,442.73326009999437,None,science,89,65,aloud,red,440.7313725999993,None,None,,440.7313725999993,None,,,,,,,,,,,,,,,,,,,,,,,,,,,,,,,,,,,126Aloud,001,2023_Sep_19_0958,ProdSingRedoBetween,2021.2.3,59.97059042279817,
65,0,65,0,,,,,,,,,,,,,,,,,,,,,,,,,,445.2355925000011,None,commercial,17,66,aloud,yellow,443.23608349999995,None,None,,443.23608349999995,None,,,,,,,,,,,,,,,,,,,,,,,,,,,,,,,,,,,126Aloud,001,2023_Sep_19_0958,ProdSingRedoBetween,2021.2.3,59.97059042279817,
66,0,66,0,,,,,,,,,,,,,,,,,,,,,,,,,,447.7545941999997,None,passage,83,67,aloud,red,445.7402791999921,None,None,,445.7402791999921,None,,,,,,,,,,,,,,,,,,,,,,,,,,,,,,,,,,,126Aloud,001,2023_Sep_19_0958,ProdSingRedoBetween,2021.2.3,59.97059042279817,
67,0,67,0,,,,,,,,,,,,,,,,,,,,,,,,,,450.25720100000035,None,machinery,16,68,aloud,yellow,448.25731200000155,None,None,,448.25731200000155,None,,,,,,,,,,,,,,,,,,,,,,,,,,,,,,,,,,,126Aloud,001,2023_Sep_19_0958,ProdSingRedoBetween,2021.2.3,59.97059042279817,
68,0,68,0,,,,,,,,,,,,,,,,,,,,,,,,,,452.7609608999919,None,plane,25,69,aloud,yellow,450.7592597999901,None,None,,450.7592597999901,None,,,,,,,,,,,,,,,,,,,,,,,,,,,,,,,,,,,126Aloud,001,2023_Sep_19_0958,ProdSingRedoBetween,2021.2.3,59.97059042279817,
69,0,69,0,,,,,,,,,,,,,,,,,,,,,,,,,,455.2789300000004,None,scene,72,70,aloud,red,453.2648604999995,None,None,,453.2648604999995,None,,,,,,,,,,,,,,,,,,,,,,,,,,,,,,,,,,,126Aloud,001,2023_Sep_19_0958,ProdSingRedoBetween,2021.2.3,59.97059042279817,
70,0,70,0,,,,,,,,,,,,,,,,,,,,,,,,,,457.7815246999962,None,suspect,56,71,aloud,blue,455.78031349999947,None,None,,455.78031349999947,None,,,,,,,,,,,,,,,,,,,,,,,,,,,,,,,,,,,126Aloud,001,2023_Sep_19_0958,ProdSingRedoBetween,2021.2.3,59.97059042279817,
71,0,71,0,,,,,,,,,,,,,,,,,,,,,,,,,,460.2838420999906,None,discovery,78,72,aloud,red,458.28459860000294,None,None,,458.28459860000294,None,,,,,,,,,,,,,,,,,,,,,,,,,,,,,,,,,,,126Aloud,001,2023_Sep_19_0958,ProdSingRedoBetween,2021.2.3,59.97059042279817,
72,0,72,0,,,,,,,,,,,,,,,,,,,,,,,,,,462.78623679999146,None,measure,61,73,aloud,red,460.78566259999934,None,None,,460.78566259999934,None,,,,,,,,,,,,,,,,,,,,,,,,,,,,,,,,,,,126Aloud,001,2023_Sep_19_0958,ProdSingRedoBetween,2021.2.3,59.97059042279817,
73,0,73,0,,,,,,,,,,,,,,,,,,,,,,,,,,465.28898800000024,None,bright,46,74,aloud,blue,463.2899350999942,None,None,,463.2899350999942,None,,,,,,,,,,,,,,,,,,,,,,,,,,,,,,,,,,,126Aloud,001,2023_Sep_19_0958,ProdSingRedoBetween,2021.2.3,59.97059042279817,
74,0,74,0,,,,,,,,,,,,,,,,,,,,,,,,,,467.7914665999997,None,build,79,75,aloud,red,465.79247669999313,None,None,,465.79247669999313,None,,,,,,,,,,,,,,,,,,,,,,,,,,,,,,,,,,,126Aloud,001,2023_Sep_19_0958,ProdSingRedoBetween,2021.2.3,59.97059042279817,
75,0,75,0,,,,,,,,,,,,,,,,,,,,,,,,,,470.31080989999464,None,turkey,20,76,aloud,yellow,468.2977316000033,None,None,,468.2977316000033,None,,,,,,,,,,,,,,,,,,,,,,,,,,,,,,,,,,,126Aloud,001,2023_Sep_19_0958,ProdSingRedoBetween,2021.2.3,59.97059042279817,
76,0,76,0,,,,,,,,,,,,,,,,,,,,,,,,,,472.8307782999909,None,travel,7,77,aloud,yellow,470.8145421999943,None,None,,470.8145421999943,None,,,,,,,,,,,,,,,,,,,,,,,,,,,,,,,,,,,126Aloud,001,2023_Sep_19_0958,ProdSingRedoBetween,2021.2.3,59.97059042279817,
77,0,77,0,,,,,,,,,,,,,,,,,,,,,,,,,,475.3490354999958,None,breath,48,78,aloud,blue,473.33787329999905,None,None,,473.33787329999905,None,,,,,,,,,,,,,,,,,,,,,,,,,,,,,,,,,,,126Aloud,001,2023_Sep_19_0958,ProdSingRedoBetween,2021.2.3,59.97059042279817,
78,0,78,0,,,,,,,,,,,,,,,,,,,,,,,,,,477.851608500001,None,century,77,79,aloud,red,475.85162069999205,None,None,,475.85162069999205,None,,,,,,,,,,,,,,,,,,,,,,,,,,,,,,,,,,,126Aloud,001,2023_Sep_19_0958,ProdSingRedoBetween,2021.2.3,59.97059042279817,
79,0,79,0,,,,,,,,,,,,,,,,,,,,,,,,,,480.37072789999365,None,health,86,80,aloud,red,478.35662809999485,None,None,,478.35662809999485,None,,,,,,,,,,,,,,,,,,,,,,,,,,,,,,,,,,,126Aloud,001,2023_Sep_19_0958,ProdSingRedoBetween,2021.2.3,59.97059042279817,
80,0,80,0,,,,,,,,,,,,,,,,,,,,,,,,,,482.873116200004,None,notice,21,81,aloud,yellow,480.870961099994,None,None,,480.870961099994,None,,,,,,,,,,,,,,,,,,,,,,,,,,,,,,,,,,,126Aloud,001,2023_Sep_19_0958,ProdSingRedoBetween,2021.2.3,59.97059042279817,
81,0,81,0,,,,,,,,,,,,,,,,,,,,,,,,,,485.3924637000018,None,mankind,50,82,aloud,blue,483.3778132000007,None,None,,483.3778132000007,None,,,,,,,,,,,,,,,,,,,,,,,,,,,,,,,,,,,126Aloud,001,2023_Sep_19_0958,ProdSingRedoBetween,2021.2.3,59.97059042279817,
82,0,82,0,,,,,,,,,,,,,,,,,,,,,,,,,,487.89508729999943,None,sweet,55,83,aloud,blue,485.89516449999064,None,None,,485.89516449999064,None,,,,,,,,,,,,,,,,,,,,,,,,,,,,,,,,,,,126Aloud,001,2023_Sep_19_0958,ProdSingRedoBetween,2021.2.3,59.97059042279817,
83,0,83,0,,,,,,,,,,,,,,,,,,,,,,,,,,490.4138598999998,None,nature,51,84,aloud,blue,488.39869400000316,None,None,,488.39869400000316,None,,,,,,,,,,,,,,,,,,,,,,,,,,,,,,,,,,,126Aloud,001,2023_Sep_19_0958,ProdSingRedoBetween,2021.2.3,59.97059042279817,
84,0,84,0,,,,,,,,,,,,,,,,,,,,,,,,,,492.916487399998,None,search,67,85,aloud,red,490.91493129999435,None,None,,490.91493129999435,None,,,,,,,,,,,,,,,,,,,,,,,,,,,,,,,,,,,126Aloud,001,2023_Sep_19_0958,ProdSingRedoBetween,2021.2.3,59.97059042279817,
85,0,85,0,,,,,,,,,,,,,,,,,,,,,,,,,,495.4192133000033,None,month,49,86,aloud,blue,493.4200770000025,None,None,,493.4200770000025,None,,,,,,,,,,,,,,,,,,,,,,,,,,,,,,,,,,,126Aloud,001,2023_Sep_19_0958,ProdSingRedoBetween,2021.2.3,59.97059042279817,
86,0,86,0,,,,,,,,,,,,,,,,,,,,,,,,,,497.9382878000033,None,hearing,62,87,aloud,red,495.92293089999293,None,None,,495.92293089999293,None,,,,,,,,,,,,,,,,,,,,,,,,,,,,,,,,,,,126Aloud,001,2023_Sep_19_0958,ProdSingRedoBetween,2021.2.3,59.97059042279817,
87,0,87,0,,,,,,,,,,,,,,,,,,,,,,,,,,500.44060499999614,None,whole,23,88,aloud,yellow,498.4408109999931,None,None,,498.4408109999931,None,,,,,,,,,,,,,,,,,,,,,,,,,,,,,,,,,,,126Aloud,001,2023_Sep_19_0958,ProdSingRedoBetween,2021.2.3,59.97059042279817,
88,0,88,0,,,,,,,,,,,,,,,,,,,,,,,,,,502.94325689999096,None,staff,76,89,aloud,red,500.9425534000038,None,None,,500.9425534000038,None,,,,,,,,,,,,,,,,,,,,,,,,,,,,,,,,,,,126Aloud,001,2023_Sep_19_0958,ProdSingRedoBetween,2021.2.3,59.97059042279817,
89,0,89,0,,,,,,,,,,,,,,,,,,,,,,,,,,505.445836999992,None,marriage,38,90,aloud,blue,503.44642710000335,None,None,,503.44642710000335,None,,,,,,,,,,,,,,,,,,,,,,,,,,,,,,,,,,,126Aloud,001,2023_Sep_19_0958,ProdSingRedoBetween,2021.2.3,59.97059042279817,
,,,,,,,,,,,,,,,,,,,,,,,,,,,,,,,,,,,,,,,,,,505.9464097000018,None,k,30.527844799988088,505.9464097000018,None,,,,,,,,,,,,,,,,,,,,,,,,,,,,,126Aloud,001,2023_Sep_19_0958,ProdSingRedoBetween,2021.2.3,59.97059042279817,
,,,,0,0,0,0,,,,,,,,,,,,,,,,,,,,,,587.9963233000017,None,,,,,,,,,,,,,,,,,,attack,128,1,aloud,new,null,537.0063209999935,None,537.0063209999935,None,1,33.47589779998816,537.0063209999935,None,33.47589779998816,570.5128071999934,None,571.028671299995,None,571.028671299995,None,n,16.941526099995826,571.028671299995,None,16.941526099995826,,,126Aloud,001,2023_Sep_19_0958,ProdSingRedoBetween,2021.2.3,59.97059042279817,
,,,,1,0,1,0,,,,,,,,,,,,,,,,,,,,,,595.5382221000036,None,,,,,,,,,,,,,,,,,,match,122,2,aloud,new,null,588.5052658999921,None,588.5052658999921,None,3,5.112897400002112,588.5052658999921,None,5.112897400002112,593.6355246000021,None,594.1556525999913,None,594.1556525999913,None,f,1.3505386000033468,594.1556525999913,None,1.3505386000033468,,,126Aloud,001,2023_Sep_19_0958,ProdSingRedoBetween,2021.2.3,59.97059042279817,
,,,,2,0,2,0,,,,,,,,,,,,,,,,,,,,,,607.2644268000004,None,,,,,,,,,,,,,,,,,,member,139,3,aloud,new,null,596.0517789000005,None,596.0517789000005,None,4,9.630469099996844,596.0517789000005,None,9.630469099996844,605.7172206999967,None,606.2448795999953,None,606.2448795999953,None,f,0.9892806999996537,606.2448795999953,None,0.9892806999996537,,,126Aloud,001,2023_Sep_19_0958,ProdSingRedoBetween,2021.2.3,59.97059042279817,
,,,,3,0,3,0,,,,,,,,,,,,,,,,,,,,,,613.4879531999904,None,,,,,,,,,,,,,,,,,,length,131,4,aloud,new,null,607.7709045999945,None,607.7709045999945,None,1,3.2872232000081567,607.7709045999945,None,3.2872232000081567,611.0864061000029,None,611.601516499999,None,611.601516499999,None,n,1.864646799993352,611.601516499999,None,1.864646799993352,,,126Aloud,001,2023_Sep_19_0958,ProdSingRedoBetween,2021.2.3,59.97059042279817,
,,,,4,0,4,0,,,,,,,,,,,,,,,,,,,,,,627.1012960999942,None,,,,,,,,,,,,,,,,,,majority,173,5,aloud,new,null,613.9903640999983,None,613.9903640999983,None,1,10.091820599991479,613.9903640999983,None,10.091820599991479,624.100486299998,None,624.6150274999964,None,624.6150274999964,None,n,2.4591177999973297,624.6150274999964,None,2.4591177999973297,,,126Aloud,001,2023_Sep_19_0958,ProdSingRedoBetween,2021.2.3,59.97059042279817,
,,,,5,0,5,0,,,,,,,,,,,,,,,,,,,,,,640.7977187999932,None,,,,,,,,,,,,,,,,,,collection,124,6,aloud,new,null,627.6078658000042,None,627.6078658000042,None,2,9.722322999994503,627.6078658000042,None,9.722322999994503,637.366245199999,None,637.8778568999987,None,637.8778568999987,None,n,2.892228899989277,637.8778568999987,None,2.892228899989277,,,126Aloud,001,2023_Sep_19_0958,ProdSingRedoBetween,2021.2.3,59.97059042279817,
,,,,6,0,6,0,,,,,,,,,,,,,,,,,,,,,,652.9952152000042,None,,,,,,,,,,,,,,,,,,drink,1,7,aloud,old,yellow,641.3008124999906,None,641.3008124999906,None,1,9.461393999998108,641.3008124999906,None,9.461393999998108,650.7934054999932,None,651.3080361000029,None,651.3080361000029,None,n,1.6541730000026291,651.3080361000029,None,1.6541730000026291,,,126Aloud,001,2023_Sep_19_0958,ProdSingRedoBetween,2021.2.3,59.97059042279817,
,,,,7,0,7,0,,,,,,,,,,,,,,,,,,,,,,664.7910607999947,None,,,,,,,,,,,,,,,,,,account,165,8,aloud,new,null,653.512990999996,None,653.512990999996,None,2,8.841163799996139,653.512990999996,None,8.841163799996139,662.3879727000021,None,662.9028758999921,None,662.9028758999921,None,f,1.867461200003163,662.9028758999921,None,1.867461200003163,,,126Aloud,001,2023_Sep_19_0958,ProdSingRedoBetween,2021.2.3,59.97059042279817,
,,,,8,0,8,0,,,,,,,,,,,,,,,,,,,,,,670.4287403999915,None,,,,,,,,,,,,,,,,,,degree,176,9,aloud,new,null,665.3092853999988,None,665.3092853999988,None,1,2.197064299994963,665.3092853999988,None,2.197064299994963,667.528369599997,None,668.0461713999975,None,668.0461713999975,None,n,2.364196599999559,668.0461713999975,None,2.364196599999559,,,126Aloud,001,2023_Sep_19_0958,ProdSingRedoBetween,2021.2.3,59.97059042279817,
,,,,9,0,9,0,,,,,,,,,,,,,,,,,,,,,,675.2322408000036,None,,,,,,,,,,,,,,,,,,election,126,10,aloud,new,null,670.9443178999936,None,670.9443178999936,None,1,2.2019209999998566,670.9443178999936,None,2.2019209999998566,673.1681574999966,None,673.6805496000015,None,673.6805496000015,None,n,1.521634200005792,673.6805496000015,None,1.521634200005792,,,126Aloud,001,2023_Sep_19_0958,ProdSingRedoBetween,2021.2.3,59.97059042279817,
,,,,10,0,10,0,,,,,,,,,,,,,,,,,,,,,,680.7548759999918,None,,,,,,,,,,,,,,,,,,crowd,27,11,aloud,old,yellow,675.7413693999988,None,675.7413693999988,None,1,3.0128992999962065,675.7413693999988,None,3.0128992999962065,678.7925611999963,None,679.3034584999987,None,679.3034584999987,None,n,1.426816899998812,679.3034584999987,None,1.426816899998812,,,126Aloud,001,2023_Sep_19_0958,ProdSingRedoBetween,2021.2.3,59.97059042279817,
,,,,11,0,11,0,,,,,,,,,,,,,,,,,,,,,,684.04194309999,None,,,,,,,,,,,,,,,,,,piece,43,12,aloud,old,blue,681.2577576999902,None,681.2577576999902,None,1,1.7843755000067176,681.2577576999902,None,1.7843755000067176,683.0746553999925,None,683.5904845000041,None,683.5904845000041,None,n,0.4276966000034008,683.5904845000041,None,0.4276966000034008,,,126Aloud,001,2023_Sep_19_0958,ProdSingRedoBetween,2021.2.3,59.97059042279817,
,,,,12,0,12,0,,,,,,,,,,,,,,,,,,,,,,690.6981930000038,None,,,,,,,,,,,,,,,,,,position,149,13,aloud,new,null,684.5439459000045,None,684.5439459000045,None,2,4.538286800001515,684.5439459000045,None,4.538286800001515,689.1142356999917,None,689.6295027000015,None,689.6295027000015,None,f,1.044654699988314,689.6295027000015,None,1.044654699988314,,,126Aloud,001,2023_Sep_19_0958,ProdSingRedoBetween,2021.2.3,59.97059042279817,
,,,,13,0,13,0,,,,,,,,,,,,,,,,,,,,,,695.4862291000027,None,,,,,,,,,,,,,,,,,,payment,145,14,aloud,new,null,691.200468199997,None,691.200468199997,None,1,2.8736390999983996,691.200468199997,None,2.8736390999983996,694.1036425999919,None,694.6219664999953,None,694.6219664999953,None,n,0.8445285999914631,694.6219664999953,None,0.8445285999914631,,,126Aloud,001,2023_Sep_19_0958,ProdSingRedoBetween,2021.2.3,59.97059042279817,
,,,,14,0,14,0,,,,,,,,,,,,,,,,,,,,,,702.6413517999899,None,,,,,,,,,,,,,,,,,,break,158,15,aloud,new,null,695.9885347999953,None,695.9885347999953,None,3,4.485688800006756,695.9885347999953,None,4.485688800006756,700.4940194999945,None,701.0107195000019,None,701.0107195000019,None,f,1.5914465999958338,701.0107195000019,None,1.5914465999958338,,,126Aloud,001,2023_Sep_19_0958,ProdSingRedoBetween,2021.2.3,59.97059042279817,
,,,,15,0,15,0,,,,,,,,,,,,,,,,,,,,,,706.3647702000017,None,,,,,,,,,,,,,,,,,,conference,159,16,aloud,new,null,703.1528156999993,None,703.1528156999993,None,1,1.5775103000050876,703.1528156999993,None,1.5775103000050876,704.7680390000023,None,705.2818550999946,None,705.2818550999946,None,n,1.0644778999994742,705.2818550999946,None,1.0644778999994742,,,126Aloud,001,2023_Sep_19_0958,ProdSingRedoBetween,2021.2.3,59.97059042279817,
,,,,16,0,16,0,,,,,,,,,,,,,,,,,,,,,,712.6376553000009,None,,,,,,,,,,,,,,,,,,pressure,65,17,aloud,old,red,706.8696418000036,None,706.8696418000036,None,6,3.620467800006736,706.8696418000036,None,3.620467800006736,710.5196409999917,None,711.0342450000026,None,711.0342450000026,None,r,1.5758806000085315,711.0342450000026,None,1.5758806000085315,,,126Aloud,001,2023_Sep_19_0958,ProdSingRedoBetween,2021.2.3,59.97059042279817,
,,,,17,0,17,0,,,,,,,,,,,,,,,,,,,,,,721.7482870999957,None,,,,,,,,,,,,,,,,,,taste,9,18,aloud,old,yellow,713.1552446999995,None,713.1552446999995,None,6,6.3589265000046,713.1552446999995,None,6.3589265000046,719.5455250999948,None,720.0641037000023,None,720.0641037000023,None,r,1.650050199998077,720.0641037000023,None,1.650050199998077,,,126Aloud,001,2023_Sep_19_0958,ProdSingRedoBetween,2021.2.3,59.97059042279817,
,,,,18,0,18,0,,,,,,,,,,,,,,,,,,,,,,727.4175146999914,None,,,,,,,,,,,,,,,,,,pattern,54,19,aloud,old,blue,722.2700341000018,None,722.2700341000018,None,6,3.180085100000724,722.2700341000018,None,3.180085100000724,725.4676163999975,None,725.9825107999932,None,725.9825107999932,None,r,1.4196311999985483,725.9825107999932,None,1.4196311999985483,,,126Aloud,001,2023_Sep_19_0958,ProdSingRedoBetween,2021.2.3,59.97059042279817,
,,,,19,0,19,0,,,,,,,,,,,,,,,,,,,,,,733.523253899999,None,,,,,,,,,,,,,,,,,,hunger,5,20,aloud,old,yellow,727.920434300002,None,727.920434300002,None,1,2.377705999999307,727.920434300002,None,2.377705999999307,730.3222640000022,None,730.8373468999926,None,730.8373468999926,None,n,2.660858899995219,730.8373468999926,None,2.660858899995219,,,126Aloud,001,2023_Sep_19_0958,ProdSingRedoBetween,2021.2.3,59.97059042279817,
,,,,20,0,20,0,,,,,,,,,,,,,,,,,,,,,,739.3969649999926,None,,,,,,,,,,,,,,,,,,present,66,21,aloud,old,red,734.0263513999962,None,734.0263513999962,None,6,2.7437880000070436,734.0263513999962,None,2.7437880000070436,736.7953638000035,None,737.3109917999973,None,737.3109917999973,None,r,2.0671289000019897,737.3109917999973,None,2.0671289000019897,,,126Aloud,001,2023_Sep_19_0958,ProdSingRedoBetween,2021.2.3,59.97059042279817,
,,,,21,0,21,0,,,,,,,,,,,,,,,,,,,,,,748.1219753000041,None,,,,,,,,,,,,,,,,,,swift,32,22,aloud,old,blue,739.8991914999933,None,739.8991914999933,None,6,6.407025499996962,739.8991914999933,None,6.407025499996962,746.3416566999949,None,746.8533767000044,None,746.8533767000044,None,r,1.2369057000032626,746.8533767000044,None,1.2369057000032626,,,126Aloud,001,2023_Sep_19_0958,ProdSingRedoBetween,2021.2.3,59.97059042279817,
,,,,22,0,22,0,,,,,,,,,,,,,,,,,,,,,,752.0776132000028,None,,,,,,,,,,,,,,,,,,shock,163,23,aloud,new,null,748.6246765999967,None,748.6246765999967,None,1,2.0174659000040265,748.6246765999967,None,2.0174659000040265,750.66070149999,None,751.1779809,None,751.1779809,None,n,0.8721405999967828,751.1779809,None,0.8721405999967828,,,126Aloud,001,2023_Sep_19_0958,ProdSingRedoBetween,2021.2.3,59.97059042279817,
,,,,23,0,23,0,,,,,,,,,,,,,,,,,,,,,,760.8013329999958,None,,,,,,,,,,,,,,,,,,produce,130,24,aloud,new,null,752.5995890999911,None,752.5995890999911,None,4,6.610551300007501,752.5995890999911,None,6.610551300007501,759.2355986999901,None,759.7519028999959,None,759.7519028999959,None,f,1.026321299999836,759.7519028999959,None,1.026321299999836,,,126Aloud,001,2023_Sep_19_0958,ProdSingRedoBetween,2021.2.3,59.97059042279817,
,,,,24,0,24,0,,,,,,,,,,,,,,,,,,,,,,766.8070613000018,None,,,,,,,,,,,,,,,,,,master,35,25,aloud,old,blue,761.304682499991,None,761.304682499991,None,6,2.1695278999977745,761.304682499991,None,2.1695278999977745,763.526365999991,None,764.0377832999948,None,764.0377832999948,None,r,2.7483515000058105,764.0377832999948,None,2.7483515000058105,,,126Aloud,001,2023_Sep_19_0958,ProdSingRedoBetween,2021.2.3,59.97059042279817,
,,,,25,0,25,0,,,,,,,,,,,,,,,,,,,,,,774.865620800003,None,,,,,,,,,,,,,,,,,,working,135,26,aloud,new,null,767.3173987999908,None,767.3173987999908,None,1,5.980737199992291,767.3173987999908,None,5.980737199992291,773.316476699998,None,773.8302992999961,None,773.8302992999961,None,n,1.0118724000058137,773.8302992999961,None,1.0118724000058137,,,126Aloud,001,2023_Sep_19_0958,ProdSingRedoBetween,2021.2.3,59.97059042279817,
,,,,26,0,26,0,,,,,,,,,,,,,,,,,,,,,,779.6703689999995,None,,,,,,,,,,,,,,,,,,pancakes,52,27,aloud,old,blue,775.378455500002,None,775.378455500002,None,6,1.8477317999931984,775.378455500002,None,1.8477317999931984,777.2571401000023,None,777.7680904000008,None,777.7680904000008,None,r,1.8820950000081211,777.7680904000008,None,1.8820950000081211,,,126Aloud,001,2023_Sep_19_0958,ProdSingRedoBetween,2021.2.3,59.97059042279817,
,,,,27,0,27,0,,,,,,,,,,,,,,,,,,,,,,785.4936574000021,None,,,,,,,,,,,,,,,,,,medicine,160,28,aloud,new,null,780.1750548999989,None,780.1750548999989,None,3,3.5950477000005776,780.1750548999989,None,3.5950477000005776,783.7922075999959,None,784.3096248999937,None,784.3096248999937,None,f,1.1564910000015516,784.3096248999937,None,1.1564910000015516,,,126Aloud,001,2023_Sep_19_0958,ProdSingRedoBetween,2021.2.3,59.97059042279817,
,,,,28,0,28,0,,,,,,,,,,,,,,,,,,,,,,790.0479416000016,None,,,,,,,,,,,,,,,,,,century,77,29,aloud,old,red,785.9994652000023,None,785.9994652000023,None,6,2.3626153000077466,785.9994652000023,None,2.3626153000077466,788.3817314999906,None,788.8953032999998,None,788.8953032999998,None,r,1.130905600002734,788.8953032999998,None,1.130905600002734,,,126Aloud,001,2023_Sep_19_0958,ProdSingRedoBetween,2021.2.3,59.97059042279817,
,,,,29,0,29,0,,,,,,,,,,,,,,,,,,,,,,799.1397733999911,None,,,,,,,,,,,,,,,,,,front,147,30,aloud,new,null,790.5532034999924,None,790.5532034999924,None,3,7.112976600008551,790.5532034999924,None,7.112976600008551,797.6915120999911,None,798.2046437999961,None,798.2046437999961,None,f,0.9175332000013441,798.2046437999961,None,0.9175332000013441,,,126Aloud,001,2023_Sep_19_0958,ProdSingRedoBetween,2021.2.3,59.97059042279817,
,,,,30,0,30,0,,,,,,,,,,,,,,,,,,,,,,803.3938475000032,None,,,,,,,,,,,,,,,,,,suspect,56,31,aloud,old,blue,799.6429830999987,None,799.6429830999987,None,1,1.639303000003565,799.6429830999987,None,1.639303000003565,801.3119841000007,None,801.825041499993,None,801.825041499993,None,n,1.5370217000017874,801.825041499993,None,1.5370217000017874,,,126Aloud,001,2023_Sep_19_0958,ProdSingRedoBetween,2021.2.3,59.97059042279817,
,,,,31,0,31,0,,,,,,,,,,,,,,,,,,,,,,809.8165033999976,None,,,,,,,,,,,,,,,,,,resistance,134,32,aloud,new,null,803.8963043999975,None,803.8963043999975,None,2,4.305995200003963,803.8963043999975,None,4.305995200003963,808.2420635000017,None,808.7484985999909,None,808.7484985999909,None,n,1.0376375000050757,808.7484985999909,None,1.0376375000050757,,,126Aloud,001,2023_Sep_19_0958,ProdSingRedoBetween,2021.2.3,59.97059042279817,
,,,,32,0,32,0,,,,,,,,,,,,,,,,,,,,,,818.0421267999918,None,,,,,,,,,,,,,,,,,,partner,112,33,aloud,new,null,810.3252750999964,None,810.3252750999964,None,4,6.156782699996256,810.3252750999964,None,6.156782699996256,816.5084952000034,None,817.0234377000015,None,817.0234377000015,None,f,0.99471210000047,817.0234377000015,None,0.99471210000047,,,126Aloud,001,2023_Sep_19_0958,ProdSingRedoBetween,2021.2.3,59.97059042279817,
,,,,33,0,33,0,,,,,,,,,,,,,,,,,,,,,,821.9139792999922,None,,,,,,,,,,,,,,,,,,trend,71,34,aloud,old,red,818.5465660999907,None,818.5465660999907,None,6,1.7755950999999186,818.5465660999907,None,1.7755950999999186,820.347611899997,None,820.860806800003,None,820.860806800003,None,r,1.0293559999990975,820.860806800003,None,1.0293559999990975,,,126Aloud,001,2023_Sep_19_0958,ProdSingRedoBetween,2021.2.3,59.97059042279817,
,,,,34,0,34,0,,,,,,,,,,,,,,,,,,,,,,825.699581199995,None,,,,,,,,,,,,,,,,,,whole,23,35,aloud,old,yellow,822.4288538999972,None,822.4288538999972,None,1,1.7813312000071164,822.4288538999972,None,1.7813312000071164,824.2334795999923,None,824.7478214000002,None,824.7478214000002,None,n,0.934383899992099,824.7478214000002,None,0.934383899992099,,,126Aloud,001,2023_Sep_19_0958,ProdSingRedoBetween,2021.2.3,59.97059042279817,
,,,,35,0,35,0,,,,,,,,,,,,,,,,,,,,,,833.7257935999951,None,,,,,,,,,,,,,,,,,,design,127,36,aloud,new,null,826.2016973999998,None,826.2016973999998,None,1,5.800369099990348,826.2016973999998,None,5.800369099990348,832.0241719999904,None,832.5388324999949,None,832.5388324999949,None,n,1.1675717000034638,832.5388324999949,None,1.1675717000034638,,,126Aloud,001,2023_Sep_19_0958,ProdSingRedoBetween,2021.2.3,59.97059042279817,
,,,,36,0,36,0,,,,,,,,,,,,,,,,,,,,,,839.1799796999985,None,,,,,,,,,,,,,,,,,,build,79,37,aloud,old,red,834.2536533999955,None,834.2536533999955,None,1,3.4044366000016453,834.2536533999955,None,3.4044366000016453,837.6812551999901,None,838.1950155999948,None,838.1950155999948,None,n,0.9671866999997292,838.1950155999948,None,0.9671866999997292,,,126Aloud,001,2023_Sep_19_0958,ProdSingRedoBetween,2021.2.3,59.97059042279817,
,,,,37,0,37,0,,,,,,,,,,,,,,,,,,,,,,844.7686256000015,None,,,,,,,,,,,,,,,,,,curve,53,38,aloud,old,blue,839.6872283999983,None,839.6872283999983,None,2,3.3548938000021735,839.6872283999983,None,3.3548938000021735,843.0684592000034,None,843.5834249000036,None,843.5834249000036,None,n,1.1626254000002518,843.5834249000036,None,1.1626254000002518,,,126Aloud,001,2023_Sep_19_0958,ProdSingRedoBetween,2021.2.3,59.97059042279817,
,,,,38,0,38,0,,,,,,,,,,,,,,,,,,,,,,848.7928660000034,None,,,,,,,,,,,,,,,,,,birth,108,39,aloud,new,null,845.2735683999927,None,845.2735683999927,None,1,2.256805600001826,845.2735683999927,None,2.256805600001826,847.5612028000032,None,848.078812599997,None,848.078812599997,None,n,0.6916335999994772,848.078812599997,None,0.6916335999994772,,,126Aloud,001,2023_Sep_19_0958,ProdSingRedoBetween,2021.2.3,59.97059042279817,
,,,,39,0,39,0,,,,,,,,,,,,,,,,,,,,,,853.2436938000028,None,,,,,,,,,,,,,,,,,,prime,74,40,aloud,old,red,849.3137849999912,None,849.3137849999912,None,1,2.192473600007361,849.3137849999912,None,2.192473600007361,851.5268115999934,None,852.0436827999947,None,852.0436827999947,None,n,1.1745945000002393,852.0436827999947,None,1.1745945000002393,,,126Aloud,001,2023_Sep_19_0958,ProdSingRedoBetween,2021.2.3,59.97059042279817,
,,,,40,0,40,0,,,,,,,,,,,,,,,,,,,,,,858.4331636999996,None,,,,,,,,,,,,,,,,,,marriage,38,41,aloud,old,blue,853.7452185000002,None,853.7452185000002,None,6,1.8331476000021212,853.7452185000002,None,1.8331476000021212,855.5979084999999,None,856.1125323000015,None,856.1125323000015,None,r,2.2896933000010904,856.1125323000015,None,2.2896933000010904,,,126Aloud,001,2023_Sep_19_0958,ProdSingRedoBetween,2021.2.3,59.97059042279817,
,,,,41,0,41,0,,,,,,,,,,,,,,,,,,,,,,870.0452794000012,None,,,,,,,,,,,,,,,,,,discovery,78,42,aloud,old,red,858.9465950000013,None,858.9465950000013,None,1,9.567448599991621,858.9465950000013,None,9.567448599991621,868.5443718000024,None,869.0593827999983,None,869.0593827999983,None,n,0.958741900001769,869.0593827999983,None,0.958741900001769,,,126Aloud,001,2023_Sep_19_0958,ProdSingRedoBetween,2021.2.3,59.97059042279817,
,,,,42,0,42,0,,,,,,,,,,,,,,,,,,,,,,874.9988890999957,None,,,,,,,,,,,,,,,,,,travel,7,43,aloud,old,yellow,870.5635565999983,None,870.5635565999983,None,1,3.0545983999909367,870.5635565999983,None,3.0545983999909367,873.649639299998,None,874.1643792999967,None,874.1643792999967,None,n,0.8057283999951323,874.1643792999967,None,0.8057283999951323,,,126Aloud,001,2023_Sep_19_0958,ProdSingRedoBetween,2021.2.3,59.97059042279817,
,,,,43,0,43,0,,,,,,,,,,,,,,,,,,,,,,882.3052687000018,None,,,,,,,,,,,,,,,,,,history,111,44,aloud,new,null,875.5023655999976,None,875.5023655999976,None,1,5.163760199997341,875.5023655999976,None,5.163760199997341,880.6897018000018,None,881.2044167999993,None,881.2044167999993,None,n,1.0698785000131465,881.2044167999993,None,1.0698785000131465,,,126Aloud,001,2023_Sep_19_0958,ProdSingRedoBetween,2021.2.3,59.97059042279817,
,,,,44,0,44,0,,,,,,,,,,,,,,,,,,,,,,888.346427299999,None,,,,,,,,,,,,,,,,,,career,47,45,aloud,old,blue,882.8164145999908,None,882.8164145999908,None,3,4.201760900003137,882.8164145999908,None,4.201760900003137,887.0485705000028,None,887.5609683999937,None,887.5609683999937,None,f,0.7532052999886218,887.5609683999937,None,0.7532052999886218,,,126Aloud,001,2023_Sep_19_0958,ProdSingRedoBetween,2021.2.3,59.97059042279817,
,,,,45,0,45,0,,,,,,,,,,,,,,,,,,,,,,892.850933099995,None,,,,,,,,,,,,,,,,,,sweet,55,46,aloud,old,blue,888.8539156000043,None,888.8539156000043,None,6,2.060173899997608,888.8539156000043,None,2.060173899997608,890.9457423999993,None,891.4522406000033,None,891.4522406000033,None,r,1.3659972000023117,891.4522406000033,None,1.3659972000023117,,,126Aloud,001,2023_Sep_19_0958,ProdSingRedoBetween,2021.2.3,59.97059042279817,
,,,,46,0,46,0,,,,,,,,,,,,,,,,,,,,,,897.7077142999915,None,,,,,,,,,,,,,,,,,,music,136,47,aloud,new,null,893.3573387999932,None,893.3573387999932,None,1,2.236809499998344,893.3573387999932,None,2.236809499998344,895.6286899999977,None,896.1359225999913,None,896.1359225999913,None,n,1.5462905000022147,896.1359225999913,None,1.5462905000022147,,,126Aloud,001,2023_Sep_19_0958,ProdSingRedoBetween,2021.2.3,59.97059042279817,
,,,,47,0,47,0,,,,,,,,,,,,,,,,,,,,,,904.463612099993,None,,,,,,,,,,,,,,,,,,point,26,48,aloud,old,yellow,898.2254584000038,None,898.2254584000038,None,4,4.912658999994164,898.2254584000038,None,4.912658999994164,903.1619940999954,None,903.6766458999919,None,903.6766458999919,None,f,0.7658246999926632,903.6766458999919,None,0.7658246999926632,,,126Aloud,001,2023_Sep_19_0958,ProdSingRedoBetween,2021.2.3,59.97059042279817,
,,,,48,0,48,0,,,,,,,,,,,,,,,,,,,,,,911.1846370999992,None,,,,,,,,,,,,,,,,,,reading,58,49,aloud,old,blue,904.9793872000009,None,904.9793872000009,None,6,4.478747500004829,904.9793872000009,None,4.478747500004829,909.4845206000027,None,910.0036571999954,None,910.0036571999954,None,r,1.150562800001353,910.0036571999954,None,1.150562800001353,,,126Aloud,001,2023_Sep_19_0958,ProdSingRedoBetween,2021.2.3,59.97059042279817,
,,,,49,0,49,0,,,,,,,,,,,,,,,,,,,,,,922.1290272999904,None,,,,,,,,,,,,,,,,,,center,42,50,aloud,old,blue,911.6912374999956,None,911.6912374999956,None,3,8.558912199994666,911.6912374999956,None,8.558912199994666,920.302829799999,None,920.8104402000026,None,920.8104402000026,None,f,1.2876972000085516,920.8104402000026,None,1.2876972000085516,,,126Aloud,001,2023_Sep_19_0958,ProdSingRedoBetween,2021.2.3,59.97059042279817,
,,,,50,0,50,0,,,,,,,,,,,,,,,,,,,,,,927.3006774999958,None,,,,,,,,,,,,,,,,,,tennis,102,51,aloud,new,null,922.6377718000003,None,922.6377718000003,None,1,1.4926466999895638,922.6377718000003,None,1.4926466999895638,924.1580164999905,None,924.6663649999973,None,924.6663649999973,None,n,2.615778599996702,924.6663649999973,None,2.615778599996702,,,126Aloud,001,2023_Sep_19_0958,ProdSingRedoBetween,2021.2.3,59.97059042279817,
,,,,51,0,51,0,,,,,,,,,,,,,,,,,,,,,,932.8763524999958,None,,,,,,,,,,,,,,,,,,childhood,96,52,aloud,new,null,927.8037354999979,None,927.8037354999979,None,1,3.5505714000028092,927.8037354999979,None,3.5505714000028092,931.3756563999923,None,931.8920389999985,None,931.8920389999985,None,n,0.9501994000020204,931.8920389999985,None,0.9501994000020204,,,126Aloud,001,2023_Sep_19_0958,ProdSingRedoBetween,2021.2.3,59.97059042279817,
,,,,52,0,52,0,,,,,,,,,,,,,,,,,,,,,,939.3792695000011,None,,,,,,,,,,,,,,,,,,shear,177,53,aloud,new,null,933.4044341999979,None,933.4044341999979,None,1,4.085712500003865,933.4044341999979,None,4.085712500003865,937.5129889999953,None,938.0309288999997,None,938.0309288999997,None,n,1.323347700003069,938.0309288999997,None,1.323347700003069,,,126Aloud,001,2023_Sep_19_0958,ProdSingRedoBetween,2021.2.3,59.97059042279817,
,,,,53,0,53,0,,,,,,,,,,,,,,,,,,,,,,946.3087420999946,None,,,,,,,,,,,,,,,,,,series,156,54,aloud,new,null,939.8870958999905,None,939.8870958999905,None,1,5.139071500001592,939.8870958999905,None,5.139071500001592,945.0536810999911,None,945.5717582999932,None,945.5717582999932,None,n,0.7024509000038961,945.5717582999932,None,0.7024509000038961,,,126Aloud,001,2023_Sep_19_0958,ProdSingRedoBetween,2021.2.3,59.97059042279817,
,,,,54,0,54,0,,,,,,,,,,,,,,,,,,,,,,955.2291044000012,None,,,,,,,,,,,,,,,,,,property,22,55,aloud,old,yellow,946.8263119000039,None,946.8263119000039,None,5,3.7519071999995504,946.8263119000039,None,3.7519071999995504,950.613683699994,None,951.1260855,None,951.1260855,None,f,4.084066199997324,951.1260855,None,4.084066199997324,,,126Aloud,001,2023_Sep_19_0958,ProdSingRedoBetween,2021.2.3,59.97059042279817,
,,,,55,0,55,0,,,,,,,,,,,,,,,,,,,,,,959.900473799993,None,,,,,,,,,,,,,,,,,,sunset,2,56,aloud,old,yellow,955.7339655999967,None,955.7339655999967,None,1,2.3241868000040995,955.7339655999967,None,2.3241868000040995,958.0903618000011,None,958.6001749999996,None,958.6001749999996,None,n,1.273965100001078,958.6001749999996,None,1.273965100001078,,,126Aloud,001,2023_Sep_19_0958,ProdSingRedoBetween,2021.2.3,59.97059042279817,
,,,,56,0,56,0,,,,,,,,,,,,,,,,,,,,,,963.5366863999952,None,,,,,,,,,,,,,,,,,,mayor,8,57,aloud,old,yellow,960.4035757999955,None,960.4035757999955,None,6,1.7025752000045031,960.4035757999955,None,1.7025752000045031,962.1386047999986,None,962.652239499992,None,962.652239499992,None,r,0.86186920000182,962.652239499992,None,0.86186920000182,,,126Aloud,001,2023_Sep_19_0958,ProdSingRedoBetween,2021.2.3,59.97059042279817,
,,,,57,0,57,0,,,,,,,,,,,,,,,,,,,,,,970.3785268999927,None,,,,,,,,,,,,,,,,,,touch,143,58,aloud,new,null,964.054039900002,None,964.054039900002,None,5,4.8440864000003785,964.054039900002,None,4.8440864000003785,968.9319456999947,None,969.4430782999989,None,969.4430782999989,None,f,0.911072899994906,969.4430782999989,None,0.911072899994906,,,126Aloud,001,2023_Sep_19_0958,ProdSingRedoBetween,2021.2.3,59.97059042279817,
,,,,58,0,58,0,,,,,,,,,,,,,,,,,,,,,,975.6502455000009,None,,,,,,,,,,,,,,,,,,background,103,59,aloud,new,null,970.8954284999927,None,970.8954284999927,None,1,2.9946873000008054,970.8954284999927,None,2.9946873000008054,973.9164476000005,None,974.4379335999984,None,974.4379335999984,None,n,1.1802391999954125,974.4379335999984,None,1.1802391999954125,,,126Aloud,001,2023_Sep_19_0958,ProdSingRedoBetween,2021.2.3,59.97059042279817,
,,,,59,0,59,0,,,,,,,,,,,,,,,,,,,,,,990.6005076000001,None,,,,,,,,,,,,,,,,,,watch,118,60,aloud,new,null,976.1674370999972,None,976.1674370999972,None,4,12.834667399991304,976.1674370999972,None,12.834667399991304,989.0316261999978,None,989.5475146999961,None,989.5475146999961,None,f,1.031012900013593,989.5475146999961,None,1.031012900013593,,,126Aloud,001,2023_Sep_19_0958,ProdSingRedoBetween,2021.2.3,59.97059042279817,
,,,,60,0,60,0,,,,,,,,,,,,,,,,,,,,,,995.9527317000029,None,,,,,,,,,,,,,,,,,,youth,123,61,aloud,new,null,991.1146788000042,None,991.1146788000042,None,4,3.2716279000014765,991.1146788000042,None,3.2716279000014765,994.4232625000004,None,994.934428099994,None,994.934428099994,None,f,0.9956939999974566,994.934428099994,None,0.9956939999974566,,,126Aloud,001,2023_Sep_19_0958,ProdSingRedoBetween,2021.2.3,59.97059042279817,
,,,,61,0,61,0,,,,,,,,,,,,,,,,,,,,,,1000.9406394999969,None,,,,,,,,,,,,,,,,,,primary,104,62,aloud,new,null,996.462723699995,None,996.462723699995,None,2,3.0673602000024403,996.462723699995,None,3.0673602000024403,999.558423800001,None,1000.0730620999966,None,1000.0730620999966,None,f,0.8492474000086077,1000.0730620999966,None,0.8492474000086077,,,126Aloud,001,2023_Sep_19_0958,ProdSingRedoBetween,2021.2.3,59.97059042279817,
,,,,62,0,62,0,,,,,,,,,,,,,,,,,,,,,,1004.4114043000009,None,,,,,,,,,,,,,,,,,,poetry,133,63,aloud,new,null,1001.4434246000019,None,1001.4434246000019,None,1,1.4469379000074696,1001.4434246000019,None,1.4469379000074696,1002.9144249999954,None,1003.4261878999969,None,1003.4261878999969,None,n,0.9599525999947218,1003.4261878999969,None,0.9599525999947218,,,126Aloud,001,2023_Sep_19_0958,ProdSingRedoBetween,2021.2.3,59.97059042279817,
,,,,63,0,63,0,,,,,,,,,,,,,,,,,,,,,,1009.3496215999912,None,,,,,,,,,,,,,,,,,,division,63,64,aloud,old,red,1004.9280489999946,None,1004.9280489999946,None,6,2.0580337999999756,1004.9280489999946,None,2.0580337999999756,1007.0166285000014,None,1007.5309625999944,None,1007.5309625999944,None,r,1.7910910999926273,1007.5309625999944,None,1.7910910999926273,,,126Aloud,001,2023_Sep_19_0958,ProdSingRedoBetween,2021.2.3,59.97059042279817,
,,,,64,0,64,0,,,,,,,,,,,,,,,,,,,,,,1013.3717534000025,None,,,,,,,,,,,,,,,,,,character,84,65,aloud,old,red,1009.8509400999901,None,1009.8509400999901,None,1,2.2551954000082333,1009.8509400999901,None,2.2551954000082333,1012.1371087000007,None,1012.6465345000033,None,1012.6465345000033,None,n,0.707624599992414,1012.6465345000033,None,0.707624599992414,,,126Aloud,001,2023_Sep_19_0958,ProdSingRedoBetween,2021.2.3,59.97059042279817,
,,,,65,0,65,0,,,,,,,,,,,,,,,,,,,,,,1021.5297145999939,None,,,,,,,,,,,,,,,,,,dance,91,66,aloud,new,null,1013.893396200001,None,1013.893396200001,None,3,6.484701599998516,1013.893396200001,None,6.484701599998516,1020.395437500003,None,1020.91671949999,None,1020.91671949999,None,f,0.5814019000099506,1020.91671949999,None,0.5814019000099506,,,126Aloud,001,2023_Sep_19_0958,ProdSingRedoBetween,2021.2.3,59.97059042279817,
,,,,66,0,66,0,,,,,,,,,,,,,,,,,,,,,,1024.8825795000012,None,,,,,,,,,,,,,,,,,,direction,14,67,aloud,old,yellow,1022.0479958999931,None,1022.0479958999931,None,1,1.9060637000075076,1022.0479958999931,None,1.9060637000075076,1023.9824803999945,None,1024.5008956999955,None,1024.5008956999955,None,n,0.35718679999990854,1024.5008956999955,None,0.35718679999990854,,,126Aloud,001,2023_Sep_19_0958,ProdSingRedoBetween,2021.2.3,59.97059042279817,
,,,,67,0,67,0,,,,,,,,,,,,,,,,,,,,,,1029.103979899999,None,,,,,,,,,,,,,,,,,,motion,10,68,aloud,old,yellow,1025.3954457999935,None,1025.3954457999935,None,1,2.566662599987467,1025.3954457999935,None,2.566662599987467,1027.9860143999977,None,1028.5011700000032,None,1028.5011700000032,None,n,0.5809722999983933,1028.5011700000032,None,0.5809722999983933,,,126Aloud,001,2023_Sep_19_0958,ProdSingRedoBetween,2021.2.3,59.97059042279817,
,,,,68,0,68,0,,,,,,,,,,,,,,,,,,,,,,1033.1089325999928,None,,,,,,,,,,,,,,,,,,notice,21,69,aloud,old,yellow,1029.6267067000008,None,1029.6267067000008,None,3,1.9757309999986319,1029.6267067000008,None,1.9757309999986319,1031.623236600004,None,1032.1423929000011,None,1032.1423929000011,None,f,0.9477464000083273,1032.1423929000011,None,0.9477464000083273,,,126Aloud,001,2023_Sep_19_0958,ProdSingRedoBetween,2021.2.3,59.97059042279817,
,,,,69,0,69,0,,,,,,,,,,,,,,,,,,,,,,1038.7455344999908,None,,,,,,,,,,,,,,,,,,thick,39,70,aloud,old,blue,1033.638071399997,None,1033.638071399997,None,6,1.5560196000005817,1033.638071399997,None,1.5560196000005817,1035.2264349000034,None,1035.742010499991,None,1035.742010499991,None,r,2.9721132999984547,1035.742010499991,None,2.9721132999984547,,,126Aloud,001,2023_Sep_19_0958,ProdSingRedoBetween,2021.2.3,59.97059042279817,
,,,,70,0,70,0,,,,,,,,,,,,,,,,,,,,,,1042.0322162999946,None,,,,,,,,,,,,,,,,,,region,153,71,aloud,new,null,1039.2504703000013,None,1039.2504703000013,None,1,1.928057599987369,1039.2504703000013,None,1.928057599987369,1041.2003650999977,None,1041.7145423000038,None,1041.7145423000038,None,n,0.2955807999969693,1041.7145423000038,None,0.2955807999969693,,,126Aloud,001,2023_Sep_19_0958,ProdSingRedoBetween,2021.2.3,59.97059042279817,
,,,,71,0,71,0,,,,,,,,,,,,,,,,,,,,,,1049.8236047999962,None,,,,,,,,,,,,,,,,,,right,87,72,aloud,old,red,1042.538858999993,None,1042.538858999993,None,3,2.9276256000011927,1042.538858999993,None,2.9276256000011927,1045.4896272000042,None,1046.0021258999914,None,1046.0021258999914,None,f,3.7920223999972222,1046.0021258999914,None,3.7920223999972222,,,126Aloud,001,2023_Sep_19_0958,ProdSingRedoBetween,2021.2.3,59.97059042279817,
,,,,72,0,72,0,,,,,,,,,,,,,,,,,,,,,,1056.713516399992,None,,,,,,,,,,,,,,,,,,citizen,166,73,aloud,new,null,1050.3305880999978,None,1050.3305880999978,None,2,4.071538500007591,1050.3305880999978,None,4.071538500007591,1054.429440299995,None,1054.9446661999973,None,1054.9446661999973,None,f,1.7374276000045938,1054.9446661999973,None,1.7374276000045938,,,126Aloud,001,2023_Sep_19_0958,ProdSingRedoBetween,2021.2.3,59.97059042279817,
,,,,73,0,73,0,,,,,,,,,,,,,,,,,,,,,,1061.469643999997,None,,,,,,,,,,,,,,,,,,health,86,74,aloud,old,red,1057.2205839999951,None,1057.2205839999951,None,5,2.6617960000003222,1057.2205839999951,None,2.6617960000003222,1059.902133399999,None,1060.4204676999943,None,1060.4204676999943,None,r,1.029873099992983,1060.4204676999943,None,1.029873099992983,,,126Aloud,001,2023_Sep_19_0958,ProdSingRedoBetween,2021.2.3,59.97059042279817,
,,,,74,0,74,0,,,,,,,,,,,,,,,,,,,,,,1064.5561448999943,None,,,,,,,,,,,,,,,,,,quantity,105,75,aloud,new,null,1061.989189999993,None,1061.989189999993,None,1,1.3409117000119295,1061.989189999993,None,1.3409117000119295,1063.3561023999937,None,1063.8783075999963,None,1063.8783075999963,None,n,0.6518657000124222,1063.8783075999963,None,0.6518657000124222,,,126Aloud,001,2023_Sep_19_0958,ProdSingRedoBetween,2021.2.3,59.97059042279817,
,,,,75,0,75,0,,,,,,,,,,,,,,,,,,,,,,1070.3771735999908,None,,,,,,,,,,,,,,,,,,clear,64,76,aloud,old,red,1065.0785274999944,None,1065.0785274999944,None,5,2.9075726000010036,1065.0785274999944,None,2.9075726000010036,1068.0095747000014,None,1068.5251113999984,None,1068.5251113999984,None,f,1.8209840999916196,1068.5251113999984,None,1.8209840999916196,,,126Aloud,001,2023_Sep_19_0958,ProdSingRedoBetween,2021.2.3,59.97059042279817,
,,,,76,0,76,0,,,,,,,,,,,,,,,,,,,,,,1077.188087699993,None,,,,,,,,,,,,,,,,,,trial,161,77,aloud,new,null,1070.8792087000038,None,1070.8792087000038,None,3,5.051269300005515,1070.8792087000038,None,5.051269300005515,1075.9539473999903,None,1076.4790877999912,None,1076.4790877999912,None,f,0.6830786000064109,1076.4790877999912,None,0.6830786000064109,,,126Aloud,001,2023_Sep_19_0958,ProdSingRedoBetween,2021.2.3,59.97059042279817,
,,,,77,0,77,0,,,,,,,,,,,,,,,,,,,,,,1080.6701487999962,None,,,,,,,,,,,,,,,,,,incident,115,78,aloud,new,null,1077.7009175999992,None,1077.7009175999992,None,1,1.3972588000033284,1077.7009175999992,None,1.3972588000033284,1079.1236876999901,None,1079.6363335999922,None,1079.6363335999922,None,n,1.0137690999981714,1079.6363335999922,None,1.0137690999981714,,,126Aloud,001,2023_Sep_19_0958,ProdSingRedoBetween,2021.2.3,59.97059042279817,
,,,,78,0,78,0,,,,,,,,,,,,,,,,,,,,,,1083.9073306999926,None,,,,,,,,,,,,,,,,,,afternoon,29,79,aloud,old,blue,1081.1766646000033,None,1081.1766646000033,None,6,1.3294759999989765,1081.1766646000033,None,1.3294759999989765,1082.5294452999951,None,1083.0394743999932,None,1083.0394743999932,None,r,0.8427336000022478,1083.0394743999932,None,0.8427336000022478,,,126Aloud,001,2023_Sep_19_0958,ProdSingRedoBetween,2021.2.3,59.97059042279817,
,,,,79,0,79,0,,,,,,,,,,,,,,,,,,,,,,1087.7451643999957,None,,,,,,,,,,,,,,,,,,weight,119,80,aloud,new,null,1084.4156931000034,None,1084.4156931000034,None,1,2.1383811999985483,1084.4156931000034,None,2.1383811999985483,1086.5784612999996,None,1087.095914599995,None,1087.095914599995,None,n,0.6262757999938913,1087.095914599995,None,0.6262757999938913,,,126Aloud,001,2023_Sep_19_0958,ProdSingRedoBetween,2021.2.3,59.97059042279817,
,,,,80,0,80,0,,,,,,,,,,,,,,,,,,,,,,1090.851677899991,None,,,,,,,,,,,,,,,,,,nature,51,81,aloud,old,blue,1088.2462701999902,None,1088.2462701999902,None,1,1.4038525000069058,1088.2462701999902,None,1.4038525000069058,1089.6824162999983,None,1090.203619299995,None,1090.203619299995,None,n,0.6227119000104722,1090.203619299995,None,0.6227119000104722,,,126Aloud,001,2023_Sep_19_0958,ProdSingRedoBetween,2021.2.3,59.97059042279817,
,,,,81,0,81,0,,,,,,,,,,,,,,,,,,,,,,1095.9358229999925,None,,,,,,,,,,,,,,,,,,owner,99,82,aloud,new,null,1091.3685422999988,None,1091.3685422999988,None,4,3.593596200007596,1091.3685422999988,None,3.593596200007596,1094.9900562999974,None,1095.5015963999904,None,1095.5015963999904,None,f,0.4046006999997189,1095.5015963999904,None,0.4046006999997189,,,126Aloud,001,2023_Sep_19_0958,ProdSingRedoBetween,2021.2.3,59.97059042279817,
,,,,82,0,82,0,,,,,,,,,,,,,,,,,,,,,,1099.105973999991,None,,,,,,,,,,,,,,,,,,raise,155,83,aloud,new,null,1096.445862099994,None,1096.445862099994,None,1,1.4202203000022564,1096.445862099994,None,1.4202203000022564,1097.8907292999938,None,1098.4045964999968,None,1098.4045964999968,None,n,0.6775336999999126,1098.4045964999968,None,0.6775336999999126,,,126Aloud,001,2023_Sep_19_0958,ProdSingRedoBetween,2021.2.3,59.97059042279817,
,,,,83,0,83,0,,,,,,,,,,,,,,,,,,,,,,1102.5258781000011,None,,,,,,,,,,,,,,,,,,south,59,84,aloud,old,yellow,1099.608455900001,None,1099.608455900001,None,6,1.2818908000044758,1099.608455900001,None,1.2818908000044758,1100.9104375000024,None,1101.4241744000028,None,1101.4241744000028,None,r,1.0822014000004856,1101.4241744000028,None,1.0822014000004856,,,126Aloud,001,2023_Sep_19_0958,ProdSingRedoBetween,2021.2.3,59.97059042279817,
,,,,84,0,84,0,,,,,,,,,,,,,,,,,,,,,,1108.0175049999962,None,,,,,,,,,,,,,,,,,,machinery,16,85,aloud,old,yellow,1103.0464221000002,None,1103.0464221000002,None,6,3.395646200006013,1103.0464221000002,None,3.395646200006013,1106.4653390000021,None,1106.9799250999931,None,1106.9799250999931,None,r,1.0061753999907523,1106.9799250999931,None,1.0061753999907523,,,126Aloud,001,2023_Sep_19_0958,ProdSingRedoBetween,2021.2.3,59.97059042279817,
,,,,85,0,85,0,,,,,,,,,,,,,,,,,,,,,,1112.9869066999963,None,,,,,,,,,,,,,,,,,,author,80,86,aloud,old,red,1108.5473760000023,None,1108.5473760000023,None,5,2.679006100006518,1108.5473760000023,None,2.679006100006518,1111.2774651999935,None,1111.7880651000014,None,1111.7880651000014,None,r,1.1821607999881962,1111.7880651000014,None,1.1821607999881962,,,126Aloud,001,2023_Sep_19_0958,ProdSingRedoBetween,2021.2.3,59.97059042279817,
,,,,86,0,86,0,,,,,,,,,,,,,,,,,,,,,,1116.556917199996,None,,,,,,,,,,,,,,,,,,passage,83,87,aloud,old,red,1113.495173000003,None,1113.495173000003,None,1,1.6669862000126159,1113.495173000003,None,1.6669862000126159,1115.1952078000031,None,1115.7051412,None,1115.7051412,None,n,0.8329678000009153,1115.7051412,None,0.8329678000009153,,,126Aloud,001,2023_Sep_19_0958,ProdSingRedoBetween,2021.2.3,59.97059042279817,
,,,,87,0,87,0,,,,,,,,,,,,,,,,,,,,,,1120.0110867999902,None,,,,,,,,,,,,,,,,,,quarter,73,88,aloud,old,red,1117.065191799993,None,1117.065191799993,None,6,1.368855300010182,1117.065191799993,None,1.368855300010182,1118.4606063999963,None,1118.9755580999918,None,1118.9755580999918,None,r,1.0026380999916,1118.9755580999918,None,1.0026380999916,,,126Aloud,001,2023_Sep_19_0958,ProdSingRedoBetween,2021.2.3,59.97059042279817,
,,,,88,0,88,0,,,,,,,,,,,,,,,,,,,,,,1123.0968998000026,None,,,,,,,,,,,,,,,,,,straight,6,89,aloud,old,yellow,1120.5177635,None,1120.5177635,None,6,1.4526525000110269,1120.5177635,None,1.4526525000110269,1122.0175531999994,None,1122.53292469999,None,1122.53292469999,None,r,0.541203900007531,1122.53292469999,None,0.541203900007531,,,126Aloud,001,2023_Sep_19_0958,ProdSingRedoBetween,2021.2.3,59.97059042279817,
,,,,89,0,89,0,,,,,,,,,,,,,,,,,,,,,,1131.6384588999936,None,,,,,,,,,,,,,,,,,,order,132,90,aloud,new,null,1123.6157004999986,None,1123.6157004999986,None,5,6.762405799992848,1123.6157004999986,None,6.762405799992848,1130.4066722999996,None,1130.920824300003,None,1130.920824300003,None,f,0.6892319000035059,1130.920824300003,None,0.6892319000035059,,,126Aloud,001,2023_Sep_19_0958,ProdSingRedoBetween,2021.2.3,59.97059042279817,
,,,,90,0,90,0,,,,,,,,,,,,,,,,,,,,,,1137.1106207999983,None,,,,,,,,,,,,,,,,,,question,57,91,aloud,old,blue,1132.1444827999949,None,1132.1444827999949,None,5,3.4095945000008214,1132.1444827999949,None,3.4095945000008214,1135.5773825999931,None,1136.09261349999,None,1136.09261349999,None,f,0.9974546000012197,1136.09261349999,None,0.9974546000012197,,,126Aloud,001,2023_Sep_19_0958,ProdSingRedoBetween,2021.2.3,59.97059042279817,
,,,,91,0,91,0,,,,,,,,,,,,,,,,,,,,,,1140.3973165999923,None,,,,,,,,,,,,,,,,,,public,167,92,aloud,new,null,1137.6207336999942,None,1137.6207336999942,None,1,1.5334203000093112,1137.6207336999942,None,1.5334203000093112,1139.1886616999982,None,1139.6975016999932,None,1139.6975016999932,None,n,0.6725804000016069,1139.6975016999932,None,0.6725804000016069,,,126Aloud,001,2023_Sep_19_0958,ProdSingRedoBetween,2021.2.3,59.97059042279817,
,,,,92,0,92,0,,,,,,,,,,,,,,,,,,,,,,1144.0508124999906,None,,,,,,,,,,,,,,,,,,threat,150,93,aloud,new,null,1140.903413699998,None,1140.903413699998,None,1,2.0587457999936305,1140.903413699998,None,2.0587457999936305,1142.985407699991,None,1143.499541600002,None,1143.499541600002,None,n,0.5265386999963084,1143.499541600002,None,0.5265386999963084,,,126Aloud,001,2023_Sep_19_0958,ProdSingRedoBetween,2021.2.3,59.97059042279817,
,,,,93,0,93,0,,,,,,,,,,,,,,,,,,,,,,1148.4722647000017,None,,,,,,,,,,,,,,,,,,relation,98,94,aloud,new,null,1144.556442000001,None,1144.556442000001,None,2,2.8535613999993075,1144.556442000001,None,2.8535613999993075,1147.4390166999947,None,1147.953957699996,None,1147.953957699996,None,n,0.4961399000021629,1147.953957699996,None,0.4961399000021629,,,126Aloud,001,2023_Sep_19_0958,ProdSingRedoBetween,2021.2.3,59.97059042279817,
,,,,94,0,94,0,,,,,,,,,,,,,,,,,,,,,,1154.8117048999993,None,,,,,,,,,,,,,,,,,,corner,41,95,aloud,old,blue,1148.9846082000004,None,1148.9846082000004,None,3,5.0094922999996925,1148.9846082000004,None,5.0094922999996925,1154.0161493999913,None,1154.5293893999915,None,1154.5293893999915,None,f,0.2648297999985516,1154.5293893999915,None,0.2648297999985516,,,126Aloud,001,2023_Sep_19_0958,ProdSingRedoBetween,2021.2.3,59.97059042279817,
,,,,95,0,95,0,,,,,,,,,,,,,,,,,,,,,,1157.931939999995,None,,,,,,,,,,,,,,,,,,edition,171,96,aloud,new,null,1155.3132141999959,None,1155.3132141999959,None,1,1.4968076000077417,1155.3132141999959,None,1.4968076000077417,1156.8313906999974,None,1157.3332728999958,None,1157.3332728999958,None,n,0.580865800002357,1157.3332728999958,None,0.580865800002357,,,126Aloud,001,2023_Sep_19_0958,ProdSingRedoBetween,2021.2.3,59.97059042279817,
,,,,96,0,96,0,,,,,,,,,,,,,,,,,,,,,,1162.5864208999992,None,,,,,,,,,,,,,,,,,,commercial,17,97,aloud,old,yellow,1158.433217800004,None,1158.433217800004,None,1,1.5449343000072986,1158.433217800004,None,1.5449343000072986,1160.0043466999923,None,1160.5297770000034,None,1160.5297770000034,None,n,2.0242731000034837,1160.5297770000034,None,2.0242731000034837,,,126Aloud,001,2023_Sep_19_0958,ProdSingRedoBetween,2021.2.3,59.97059042279817,
,,,,97,0,97,0,,,,,,,,,,,,,,,,,,,,,,1165.8395179999934,None,,,,,,,,,,,,,,,,,,treatment,148,98,aloud,new,null,1163.0944806000043,None,1163.0944806000043,None,1,1.5156167999957688,1163.0944806000043,None,1.5156167999957688,1164.644725799997,None,1165.15450769999,None,1165.15450769999,None,n,0.6556198000034783,1165.15450769999,None,0.6556198000034783,,,126Aloud,001,2023_Sep_19_0958,ProdSingRedoBetween,2021.2.3,59.97059042279817,
,,,,98,0,98,0,,,,,,,,,,,,,,,,,,,,,,1171.1126568000036,None,,,,,,,,,,,,,,,,,,staff,76,99,aloud,old,red,1166.3471095999994,None,1166.3471095999994,None,6,1.3029692999989493,1166.3471095999994,None,1.3029692999989493,1167.6774298999953,None,1168.1908515999967,None,1168.1908515999967,None,r,2.8993696000106866,1168.1908515999967,None,2.8993696000106866,,,126Aloud,001,2023_Sep_19_0958,ProdSingRedoBetween,2021.2.3,59.97059042279817,
,,,,99,0,99,0,,,,,,,,,,,,,,,,,,,,,,1178.935885999992,None,,,,,,,,,,,,,,,,,,committee,114,100,aloud,new,null,1171.6350304999942,None,1171.6350304999942,None,1,6.023102799998014,1171.6350304999942,None,6.023102799998014,1177.6871336999902,None,1178.2010240999953,None,1178.2010240999953,None,n,0.7130879000033019,1178.2010240999953,None,0.7130879000033019,,,126Aloud,001,2023_Sep_19_0958,ProdSingRedoBetween,2021.2.3,59.97059042279817,
,,,,100,0,100,0,,,,,,,,,,,,,,,,,,,,,,1181.6043350999971,None,,,,,,,,,,,,,,,,,,republic,172,101,aloud,new,null,1179.4423825999984,None,1179.4423825999984,None,1,1.2798259999981383,1179.4423825999984,None,1.2798259999981383,1180.755932,None,1181.2706413999986,None,1181.2706413999986,None,n,0.3155611000111094,1181.2706413999986,None,0.3155611000111094,,,126Aloud,001,2023_Sep_19_0958,ProdSingRedoBetween,2021.2.3,59.97059042279817,
,,,,101,0,101,0,,,,,,,,,,,,,,,,,,,,,,1184.4222584999952,None,,,,,,,,,,,,,,,,,,country,82,102,aloud,old,red,1182.1125874999998,None,1182.1125874999998,None,6,1.5375239000131842,1182.1125874999998,None,1.5375239000131842,1183.6750889999967,None,1184.196877800001,None,1184.196877800001,None,r,0.19769499999529216,1184.196877800001,None,0.19769499999529216,,,126Aloud,001,2023_Sep_19_0958,ProdSingRedoBetween,2021.2.3,59.97059042279817,
,,,,102,0,102,0,,,,,,,,,,,,,,,,,,,,,,1188.5954916999908,None,,,,,,,,,,,,,,,,,,solution,138,103,aloud,new,null,1184.9318731999956,None,1184.9318731999956,None,2,2.5662296999944374,1184.9318731999956,None,2.5662296999944374,1187.5304372999963,None,1188.049310100003,None,1188.049310100003,None,n,0.5288623000087682,1188.049310100003,None,0.5288623000087682,,,126Aloud,001,2023_Sep_19_0958,ProdSingRedoBetween,2021.2.3,59.97059042279817,
,,,,103,0,103,0,,,,,,,,,,,,,,,,,,,,,,1194.9685895000002,None,,,,,,,,,,,,,,,,,,accident,107,104,aloud,new,null,1189.0973854999902,None,1189.0973854999902,None,3,4.688704700005474,1189.0973854999902,None,4.688704700005474,1193.8185136999964,None,1194.3336317999929,None,1194.3336317999929,None,f,0.6044531000079587,1194.3336317999929,None,0.6044531000079587,,,126Aloud,001,2023_Sep_19_0958,ProdSingRedoBetween,2021.2.3,59.97059042279817,
,,,,104,0,104,0,,,,,,,,,,,,,,,,,,,,,,1197.8691908000037,None,,,,,,,,,,,,,,,,,,scale,45,105,aloud,old,blue,1195.4754269999976,None,1195.4754269999976,None,1,1.4226567000005161,1195.4754269999976,None,1.4226567000005161,1196.9229688999912,None,1197.4368201000034,None,1197.4368201000034,None,n,0.3892649000044912,1197.4368201000034,None,0.3892649000044912,,,126Aloud,001,2023_Sep_19_0958,ProdSingRedoBetween,2021.2.3,59.97059042279817,
,,,,105,0,105,0,,,,,,,,,,,,,,,,,,,,,,1205.645843499995,None,,,,,,,,,,,,,,,,,,short,31,106,aloud,old,blue,1198.3715704999922,None,1198.3715704999922,None,2,3.0705153999879258,1198.3715704999922,None,3.0705153999879258,1201.4608967999957,None,1201.9745726999972,None,1201.9745726999972,None,n,3.6518414999882225,1201.9745726999972,None,3.6518414999882225,,,126Aloud,001,2023_Sep_19_0958,ProdSingRedoBetween,2021.2.3,59.97059042279817,
,,,,106,0,106,0,,,,,,,,,,,,,,,,,,,,,,1208.7154810999928,None,,,,,,,,,,,,,,,,,,ground,137,107,aloud,new,null,1206.1518486999994,None,1206.1518486999994,None,1,1.6341681000048993,1206.1518486999994,None,1.6341681000048993,1207.8161495999957,None,1208.3309948999959,None,1208.3309948999959,None,n,0.35929930000565946,1208.3309948999959,None,0.35929930000565946,,,126Aloud,001,2023_Sep_19_0958,ProdSingRedoBetween,2021.2.3,59.97059042279817,
,,,,107,0,107,0,,,,,,,,,,,,,,,,,,,,,,1211.8352232000034,None,,,,,,,,,,,,,,,,,,drama,97,108,aloud,new,null,1209.217095999993,None,1209.217095999993,None,1,1.3689887999935308,1209.217095999993,None,1.3689887999935308,1210.6182270999998,None,1211.133888299999,None,1211.133888299999,None,n,0.6763120000105118,1211.133888299999,None,0.6763120000105118,,,126Aloud,001,2023_Sep_19_0958,ProdSingRedoBetween,2021.2.3,59.97059042279817,
,,,,108,0,108,0,,,,,,,,,,,,,,,,,,,,,,1215.022352400003,None,,,,,,,,,,,,,,,,,,season,81,109,aloud,old,red,1212.3419055999984,None,1212.3419055999984,None,6,1.5482248999906005,1212.3419055999984,None,1.5482248999906005,1213.9268090999976,None,1214.4390623999934,None,1214.4390623999934,None,r,0.5633963000000222,1214.4390623999934,None,0.5633963000000222,,,126Aloud,001,2023_Sep_19_0958,ProdSingRedoBetween,2021.2.3,59.97059042279817,
,,,,109,0,109,0,,,,,,,,,,,,,,,,,,,,,,1217.690375899998,None,,,,,,,,,,,,,,,,,,provision,100,110,aloud,new,null,1215.5251216000033,None,1215.5251216000033,None,1,1.3249554000067292,1215.5251216000033,None,1.3249554000067292,1216.8752658000012,None,1217.38995479999,None,1217.38995479999,None,n,0.28408300000592135,1217.38995479999,None,0.28408300000592135,,,126Aloud,001,2023_Sep_19_0958,ProdSingRedoBetween,2021.2.3,59.97059042279817,
,,,,110,0,110,0,,,,,,,,,,,,,,,,,,,,,,1222.0801630999922,None,,,,,,,,,,,,,,,,,,colonel,60,111,aloud,old,red,1218.1928630000039,None,1218.1928630000039,None,6,2.393317299996852,1218.1928630000039,None,2.393317299996852,1220.6183683999989,None,1221.129393700001,None,1221.129393700001,None,r,0.9286915999982739,1221.129393700001,None,0.9286915999982739,,,126Aloud,001,2023_Sep_19_0958,ProdSingRedoBetween,2021.2.3,59.97059042279817,
,,,,111,0,111,0,,,,,,,,,,,,,,,,,,,,,,1231.9885016999906,None,,,,,,,,,,,,,,,,,,science,89,112,aloud,old,red,1222.6040833000006,None,1222.6040833000006,None,3,7.997991099997307,1222.6040833000006,None,7.997991099997307,1230.622615100001,None,1231.1403286999994,None,1231.1403286999994,None,f,0.8297434999985853,1231.1403286999994,None,0.8297434999985853,,,126Aloud,001,2023_Sep_19_0958,ProdSingRedoBetween,2021.2.3,59.97059042279817,
,,,,112,0,112,0,,,,,,,,,,,,,,,,,,,,,,1234.3238007000036,None,,,,,,,,,,,,,,,,,,testimony,179,113,aloud,new,null,1232.4965269999957,None,1232.4965269999957,None,1,1.1455287999997381,1232.4965269999957,None,1.1455287999997381,1233.6755721999943,None,1234.190136099991,None,1234.190136099991,None,n,0.1081619999895338,1234.190136099991,None,0.1081619999895338,,,126Aloud,001,2023_Sep_19_0958,ProdSingRedoBetween,2021.2.3,59.97059042279817,
,,,,113,0,113,0,,,,,,,,,,,,,,,,,,,,,,1238.1615050999972,None,,,,,,,,,,,,,,,,,,smooth,141,114,aloud,new,null,1234.827104600001,None,1234.827104600001,None,2,2.2474413000018103,1234.827104600001,None,2.2474413000018103,1237.0952217000013,None,1237.610278799999,None,1237.610278799999,None,n,0.5198182000021916,1237.610278799999,None,0.5198182000021916,,,126Aloud,001,2023_Sep_19_0958,ProdSingRedoBetween,2021.2.3,59.97059042279817,
,,,,114,0,114,0,,,,,,,,,,,,,,,,,,,,,,1241.6151510999916,None,,,,,,,,,,,,,,,,,,capital,4,115,aloud,old,yellow,1238.664010499997,None,1238.664010499997,None,1,2.010107699999935,1238.664010499997,None,2.010107699999935,1240.7001735999947,None,1241.2145175000041,None,1241.2145175000041,None,n,0.3795165000046836,1241.2145175000041,None,0.3795165000046836,,,126Aloud,001,2023_Sep_19_0958,ProdSingRedoBetween,2021.2.3,59.97059042279817,
,,,,115,0,115,0,,,,,,,,,,,,,,,,,,,,,,1247.5036865000002,None,,,,,,,,,,,,,,,,,,instrument,75,116,aloud,old,red,1242.1237658000027,None,1242.1237658000027,None,4,3.446307899997919,1242.1237658000027,None,3.446307899997919,1245.5879541000031,None,1246.1020133999991,None,1246.1020133999991,None,f,1.3720958000048995,1246.1020133999991,None,1.3720958000048995,,,126Aloud,001,2023_Sep_19_0958,ProdSingRedoBetween,2021.2.3,59.97059042279817,
,,,,116,0,116,0,,,,,,,,,,,,,,,,,,,,,,1256.5138927999942,None,,,,,,,,,,,,,,,,,,answer,37,117,aloud,old,blue,1248.0117746000033,None,1248.0117746000033,None,3,6.022336199996062,1248.0117746000033,None,6.022336199996062,1254.0662886999926,None,1254.5774299999903,None,1254.5774299999903,None,n,1.9046956999955,1254.5774299999903,None,1.9046956999955,,,126Aloud,001,2023_Sep_19_0958,ProdSingRedoBetween,2021.2.3,59.97059042279817,
,,,,117,0,117,0,,,,,,,,,,,,,,,,,,,,,,1259.816472999999,None,,,,,,,,,,,,,,,,,,emergency,40,118,aloud,old,blue,1257.0170366999955,None,1257.0170366999955,None,1,1.6890972999972291,1257.0170366999955,None,1.6890972999972291,1258.7385787999956,None,1259.2501907999977,None,1259.2501907999977,None,n,0.5358810000034282,1259.2501907999977,None,0.5358810000034282,,,126Aloud,001,2023_Sep_19_0958,ProdSingRedoBetween,2021.2.3,59.97059042279817,
,,,,118,0,118,0,,,,,,,,,,,,,,,,,,,,,,1263.5210857999919,None,,,,,,,,,,,,,,,,,,scene,72,119,aloud,old,red,1260.3186096999998,None,1260.3186096999998,None,4,2.1634847999957856,1260.3186096999998,None,2.1634847999957856,1262.5075254999974,None,1263.0198440999957,None,1263.0198440999957,None,f,0.4782307999994373,1263.0198440999957,None,0.4782307999994373,,,126Aloud,001,2023_Sep_19_0958,ProdSingRedoBetween,2021.2.3,59.97059042279817,
,,,,119,0,119,0,,,,,,,,,,,,,,,,,,,,,,1273.9484404999967,None,,,,,,,,,,,,,,,,,,subject,120,120,aloud,new,null,1264.0251540000027,None,1264.0251540000027,None,1,8.464909999995143,1264.0251540000027,None,8.464909999995143,1272.515213599996,None,1273.034963099999,None,1273.034963099999,None,n,0.8871536999940872,1273.034963099999,None,0.8871536999940872,,,126Aloud,001,2023_Sep_19_0958,ProdSingRedoBetween,2021.2.3,59.97059042279817,
,,,,120,0,120,0,,,,,,,,,,,,,,,,,,,,,,1277.6673655999912,None,,,,,,,,,,,,,,,,,,force,28,121,aloud,old,yellow,1274.452638200004,None,1274.452638200004,None,1,2.5334812000073725,1274.452638200004,None,2.5334812000073725,1277.0199885000038,None,1277.534506600001,None,1277.534506600001,None,n,0.10763520000909921,1277.534506600001,None,0.10763520000909921,,,126Aloud,001,2023_Sep_19_0958,ProdSingRedoBetween,2021.2.3,59.97059042279817,
,,,,121,0,121,0,,,,,,,,,,,,,,,,,,,,,,1284.3774605999934,None,,,,,,,,,,,,,,,,,,month,49,122,aloud,old,blue,1278.1695694999944,None,1278.1695694999944,None,2,4.680495699998573,1278.1695694999944,None,4.680495699998573,1282.8759486999916,None,1283.4011453999992,None,1283.4011453999992,None,n,0.9449634999909904,1283.4011453999992,None,0.9449634999909904,,,126Aloud,001,2023_Sep_19_0958,ProdSingRedoBetween,2021.2.3,59.97059042279817,
,,,,122,0,122,0,,,,,,,,,,,,,,,,,,,,,,1289.9798508999957,None,,,,,,,,,,,,,,,,,,contract,70,123,aloud,old,red,1284.8927629999962,None,1284.8927629999962,None,1,3.6374014999892097,1284.8927629999962,None,3.6374014999892097,1288.5655870999908,None,1289.084908299992,None,1289.084908299992,None,n,0.8691539999999804,1289.084908299992,None,0.8691539999999804,,,126Aloud,001,2023_Sep_19_0958,ProdSingRedoBetween,2021.2.3,59.97059042279817,
,,,,123,0,123,0,,,,,,,,,,,,,,,,,,,,,,1293.9009261000028,None,,,,,,,,,,,,,,,,,,leader,174,124,aloud,new,null,1290.4817573000037,None,1290.4817573000037,None,1,1.5684395999996923,1290.4817573000037,None,1.5684395999996923,1292.0829830000002,None,1292.5984811999951,None,1292.5984811999951,None,n,1.283762699997169,1292.5984811999951,None,1.283762699997169,,,126Aloud,001,2023_Sep_19_0958,ProdSingRedoBetween,2021.2.3,59.97059042279817,
,,,,124,0,124,0,,,,,,,,,,,,,,,,,,,,,,1296.5198836999916,None,,,,,,,,,,,,,,,,,,universal,175,125,aloud,new,null,1294.4102751000028,None,1294.4102751000028,None,1,1.2317563999968115,1294.4102751000028,None,1.2317563999968115,1295.6706905000028,None,1296.1855682000023,None,1296.1855682000023,None,n,0.31253980001201853,1296.1855682000023,None,0.31253980001201853,,,126Aloud,001,2023_Sep_19_0958,ProdSingRedoBetween,2021.2.3,59.97059042279817,
,,,,125,0,125,0,,,,,,,,,,,,,,,,,,,,,,1301.2558562999911,None,,,,,,,,,,,,,,,,,,council,113,126,aloud,new,null,1297.0268332999985,None,1297.0268332999985,None,2,3.015251700009685,1297.0268332999985,None,3.015251700009685,1300.0755013000016,None,1300.5900201999902,None,1300.5900201999902,None,n,0.6281006999925012,1300.5900201999902,None,0.6281006999925012,,,126Aloud,001,2023_Sep_19_0958,ProdSingRedoBetween,2021.2.3,59.97059042279817,
,,,,126,0,126,0,,,,,,,,,,,,,,,,,,,,,,1305.5625398999982,None,,,,,,,,,,,,,,,,,,meeting,34,127,aloud,old,blue,1301.7624728999945,None,1301.7624728999945,None,1,2.9197191999992356,1301.7624728999945,None,2.9197191999992356,1304.7177483999985,None,1305.2292699999962,None,1305.2292699999962,None,n,0.3168115000007674,1305.2292699999962,None,0.3168115000007674,,,126Aloud,001,2023_Sep_19_0958,ProdSingRedoBetween,2021.2.3,59.97059042279817,
,,,,127,0,127,0,,,,,,,,,,,,,,,,,,,,,,1308.4320479000016,None,,,,,,,,,,,,,,,,,,budget,19,128,aloud,old,yellow,1306.0685704999923,None,1306.0685704999923,None,1,1.5495243000041228,1306.0685704999923,None,1.5495243000041228,1307.6504122999904,None,1308.1653244000045,None,1308.1653244000045,None,n,0.24474049999844283,1308.1653244000045,None,0.24474049999844283,,,126Aloud,001,2023_Sep_19_0958,ProdSingRedoBetween,2021.2.3,59.97059042279817,
,,,,128,0,128,0,,,,,,,,,,,,,,,,,,,,,,1311.9689441999944,None,,,,,,,,,,,,,,,,,,tragedy,142,129,aloud,new,null,1308.9344371999905,None,1308.9344371999905,None,1,2.043816000004881,1308.9344371999905,None,2.043816000004881,1311.003996600004,None,1311.5178956000018,None,1311.5178956000018,None,n,0.42817939999804366,1311.5178956000018,None,0.42817939999804366,,,126Aloud,001,2023_Sep_19_0958,ProdSingRedoBetween,2021.2.3,59.97059042279817,
,,,,129,0,129,0,,,,,,,,,,,,,,,,,,,,,,1316.6573048999999,None,,,,,,,,,,,,,,,,,,welcome,116,130,aloud,new,null,1312.471050299995,None,1312.471050299995,None,3,2.251037499998347,1312.471050299995,None,2.251037499998347,1314.740286500004,None,1315.254428699991,None,1315.254428699991,None,f,1.379646400004276,1315.254428699991,None,1.379646400004276,,,126Aloud,001,2023_Sep_19_0958,ProdSingRedoBetween,2021.2.3,59.97059042279817,
,,,,130,0,130,0,,,,,,,,,,,,,,,,,,,,,,1322.0478808999906,None,,,,,,,,,,,,,,,,,,measure,61,131,aloud,old,red,1317.167763599995,None,1317.167763599995,None,4,2.826299199994537,1317.167763599995,None,2.826299199994537,1320.016997300001,None,1320.5263737999921,None,1320.5263737999921,None,f,1.4917738999938592,1320.5263737999921,None,1.4917738999938592,,,126Aloud,001,2023_Sep_19_0958,ProdSingRedoBetween,2021.2.3,59.97059042279817,
,,,,131,0,131,0,,,,,,,,,,,,,,,,,,,,,,1329.0186648999952,None,,,,,,,,,,,,,,,,,,generation,140,132,aloud,new,null,1322.5739082999935,None,1322.5739082999935,None,1,2.9404175000090618,1322.5739082999935,None,2.9404175000090618,1325.5373064000014,None,1326.048544899997,None,1326.048544899997,None,n,2.9455218000075547,1326.048544899997,None,2.9455218000075547,,,126Aloud,001,2023_Sep_19_0958,ProdSingRedoBetween,2021.2.3,59.97059042279817,
,,,,132,0,132,0,,,,,,,,,,,,,,,,,,,,,,1336.545745800002,None,,,,,,,,,,,,,,,,,,comfort,3,133,aloud,old,yellow,1329.526091599997,None,1329.526091599997,None,2,6.3080220999981975,1329.526091599997,None,6.3080220999981975,1335.8604744999902,None,1336.3908665999916,None,1336.3908665999916,None,f,0.13137129999813624,1336.3908665999916,None,0.13137129999813624,,,126Aloud,001,2023_Sep_19_0958,ProdSingRedoBetween,2021.2.3,59.97059042279817,
,,,,133,0,133,0,,,,,,,,,,,,,,,,,,,,,,1339.1621735999943,None,,,,,,,,,,,,,,,,,,mankind,50,134,aloud,old,blue,1337.0723834999953,None,1337.0723834999953,None,1,1.3136878000077559,1337.0723834999953,None,1.3136878000077559,1338.4144754000008,None,1338.9280614000018,None,1338.9280614000018,None,n,0.2180056999932276,1338.9280614000018,None,0.2180056999932276,,,126Aloud,001,2023_Sep_19_0958,ProdSingRedoBetween,2021.2.3,59.97059042279817,
,,,,134,0,134,0,,,,,,,,,,,,,,,,,,,,,,1341.6985179999901,None,,,,,,,,,,,,,,,,,,bright,46,135,aloud,old,blue,1339.669052199999,None,1339.669052199999,None,1,1.156999700004235,1339.669052199999,None,1.156999700004235,1340.8483588999952,None,1341.3639882999996,None,1341.3639882999996,None,n,0.3181050999992294,1341.3639882999996,None,0.3181050999992294,,,126Aloud,001,2023_Sep_19_0958,ProdSingRedoBetween,2021.2.3,59.97059042279817,
,,,,135,0,135,0,,,,,,,,,,,,,,,,,,,,,,1348.9061870000005,None,,,,,,,,,,,,,,,,,,problem,162,136,aloud,new,null,1342.204880499994,None,1342.204880499994,None,1,6.133132100003422,1342.204880499994,None,6.133132100003422,1348.3606874999969,None,1348.8715030000021,None,1348.8715030000021,None,n,0.010734600000432692,1348.8715030000021,None,0.010734600000432692,,,126Aloud,001,2023_Sep_19_0958,ProdSingRedoBetween,2021.2.3,59.97059042279817,
,,,,136,0,136,0,,,,,,,,,,,,,,,,,,,,,,1355.0194646000018,None,,,,,,,,,,,,,,,,,,block,121,137,aloud,new,null,1349.4235912000004,None,1349.4235912000004,None,1,5.018837600000552,1349.4235912000004,None,5.018837600000552,1354.4668219000014,None,1354.981379799996,None,1354.981379799996,None,n,0.013046499996562488,1354.981379799996,None,0.013046499996562488,,,126Aloud,001,2023_Sep_19_0958,ProdSingRedoBetween,2021.2.3,59.97059042279817,
,,,,137,0,137,0,,,,,,,,,,,,,,,,,,,,,,1358.3813224000041,None,,,,,,,,,,,,,,,,,,surprise,85,138,aloud,old,red,1355.5306222999934,None,1355.5306222999934,None,1,1.8074522000097204,1355.5306222999934,None,1.8074522000097204,1357.36760279999,None,1357.88034779999,None,1357.88034779999,None,n,0.47370269999373704,1357.88034779999,None,0.47370269999373704,,,126Aloud,001,2023_Sep_19_0958,ProdSingRedoBetween,2021.2.3,59.97059042279817,
,,,,138,0,138,0,,,,,,,,,,,,,,,,,,,,,,1362.3021768000035,None,,,,,,,,,,,,,,,,,,search,67,139,aloud,old,red,1358.9020571,None,1358.9020571,None,3,1.7241318000014871,1358.9020571,None,1.7241318000014871,1360.6535023000033,None,1361.1711412000004,None,1361.1711412000004,None,f,1.1108466000005137,1361.1711412000004,None,1.1108466000005137,,,126Aloud,001,2023_Sep_19_0958,ProdSingRedoBetween,2021.2.3,59.97059042279817,
,,,,139,0,139,0,,,,,,,,,,,,,,,,,,,,,,1364.6902445000014,None,,,,,,,,,,,,,,,,,,dozen,12,140,aloud,old,yellow,1362.8143402999995,None,1362.8143402999995,None,1,1.163740299991332,1362.8143402999995,None,1.163740299991332,1364.0048574999964,None,1364.5094076999958,None,1364.5094076999958,None,n,0.15667389999725856,1364.5094076999958,None,0.15667389999725856,,,126Aloud,001,2023_Sep_19_0958,ProdSingRedoBetween,2021.2.3,59.97059042279817,
,,,,140,0,140,0,,,,,,,,,,,,,,,,,,,,,,1369.3237875999912,None,,,,,,,,,,,,,,,,,,evidence,90,141,aloud,new,null,1365.2086552999972,None,1365.2086552999972,None,1,3.4414288999978453,1365.2086552999972,None,3.4414288999978453,1368.6766858999908,None,1369.1917057999963,None,1369.1917057999963,None,n,0.09033099999942351,1369.1917057999963,None,0.09033099999942351,,,126Aloud,001,2023_Sep_19_0958,ProdSingRedoBetween,2021.2.3,59.97059042279817,
,,,,141,0,141,0,,,,,,,,,,,,,,,,,,,,,,1374.881238300004,None,,,,,,,,,,,,,,,,,,cross,44,142,aloud,old,blue,1369.8304457999911,None,1369.8304457999911,None,6,2.8516084000002593,1369.8304457999911,None,2.8516084000002593,1372.7136688000028,None,1373.2293494999903,None,1373.2293494999903,None,r,1.6207010999933118,1373.2293494999903,None,1.6207010999933118,,,126Aloud,001,2023_Sep_19_0958,ProdSingRedoBetween,2021.2.3,59.97059042279817,
,,,,142,0,142,0,,,,,,,,,,,,,,,,,,,,,,1380.7369636999938,None,,,,,,,,,,,,,,,,,,heavy,92,143,aloud,new,null,1375.384441599992,None,1375.384441599992,None,1,3.793695400003344,1375.384441599992,None,3.793695400003344,1379.2119661000033,None,1379.7194290000043,None,1379.7194290000043,None,n,0.9946305000048596,1379.7194290000043,None,0.9946305000048596,,,126Aloud,001,2023_Sep_19_0958,ProdSingRedoBetween,2021.2.3,59.97059042279817,
,,,,143,0,143,0,,,,,,,,,,,,,,,,,,,,,,1385.2601529999956,None,,,,,,,,,,,,,,,,,,breath,48,144,aloud,old,blue,1381.2527977999998,None,1381.2527977999998,None,6,2.09317990001,1381.2527977999998,None,2.09317990001,1383.3742080999946,None,1383.8730166000023,None,1383.8730166000023,None,r,1.3692424000037136,1383.8730166000023,None,1.3692424000037136,,,126Aloud,001,2023_Sep_19_0958,ProdSingRedoBetween,2021.2.3,59.97059042279817,
,,,,144,0,144,0,,,,,,,,,,,,,,,,,,,,,,1391.2807710999914,None,,,,,,,,,,,,,,,,,,company,33,145,aloud,old,blue,1385.7790142000013,None,1385.7790142000013,None,5,3.2710736000008183,1385.7790142000013,None,3.2710736000008183,1389.0798764999927,None,1389.586452699994,None,1389.586452699994,None,f,1.6716076000011526,1389.586452699994,None,1.6716076000011526,,,126Aloud,001,2023_Sep_19_0958,ProdSingRedoBetween,2021.2.3,59.97059042279817,
,,,,145,0,145,0,,,,,,,,,,,,,,,,,,,,,,1393.835788299999,None,,,,,,,,,,,,,,,,,,captain,170,146,aloud,new,null,1391.7836490999907,None,1391.7836490999907,None,1,1.3704369000042789,1391.7836490999907,None,1.3704369000042789,1393.1862868000026,None,1393.7102501999907,None,1393.7102501999907,None,n,0.09184509998885915,1393.7102501999907,None,0.09184509998885915,,,126Aloud,001,2023_Sep_19_0958,ProdSingRedoBetween,2021.2.3,59.97059042279817,
,,,,146,0,146,0,,,,,,,,,,,,,,,,,,,,,,1396.467725800001,None,,,,,,,,,,,,,,,,,,bitter,125,147,aloud,new,null,1394.3550157999998,None,1394.3550157999998,None,1,1.2470098999910988,1394.3550157999998,None,1.2470098999910988,1395.6199774999986,None,1396.1351872999949,None,1396.1351872999949,None,n,0.29886520000582095,1396.1351872999949,None,0.29886520000582095,,,126Aloud,001,2023_Sep_19_0958,ProdSingRedoBetween,2021.2.3,59.97059042279817,
,,,,147,0,147,0,,,,,,,,,,,,,,,,,,,,,,1401.3579044999933,None,,,,,,,,,,,,,,,,,,turkey,20,148,aloud,old,yellow,1396.9770684999967,None,1396.9770684999967,None,6,3.20093839999754,1396.9770684999967,None,3.20093839999754,1400.2082819999923,None,1400.7234494000004,None,1400.7234494000004,None,r,0.614933300006669,1400.7234494000004,None,0.614933300006669,,,126Aloud,001,2023_Sep_19_0958,ProdSingRedoBetween,2021.2.3,59.97059042279817,
,,,,148,0,148,0,,,,,,,,,,,,,,,,,,,,,,1404.0938062999921,None,,,,,,,,,,,,,,,,,,husband,24,149,aloud,old,yellow,1401.8632649999927,None,1401.8632649999927,None,6,1.498851199998171,1401.8632649999927,None,1.498851199998171,1403.395206599991,None,1403.9145919000002,None,1403.9145919000002,None,r,0.1513661999924807,1403.9145919000002,None,0.1513661999924807,,,126Aloud,001,2023_Sep_19_0958,ProdSingRedoBetween,2021.2.3,59.97059042279817,
,,,,149,0,149,0,,,,,,,,,,,,,,,,,,,,,,1407.380840999991,None,,,,,,,,,,,,,,,,,,volume,144,150,aloud,new,null,1404.6054170999996,None,1404.6054170999996,None,2,1.6206939999974566,1404.6054170999996,None,1.6206939999974566,1406.2532269999938,None,1406.764587800004,None,1406.764587800004,None,n,0.5894601000036346,1406.764587800004,None,0.5894601000036346,,,126Aloud,001,2023_Sep_19_0958,ProdSingRedoBetween,2021.2.3,59.97059042279817,
,,,,150,0,150,0,,,,,,,,,,,,,,,,,,,,,,1412.902423099993,None,,,,,,,,,,,,,,,,,,finance,95,151,aloud,new,null,1407.8835617000004,None,1407.8835617000004,None,1,1.5746364999940852,1407.8835617000004,None,1.5746364999940852,1409.4852481999988,None,1410.0052721999964,None,1410.0052721999964,None,n,2.8687496000056854,1410.0052721999964,None,2.8687496000056854,,,126Aloud,001,2023_Sep_19_0958,ProdSingRedoBetween,2021.2.3,59.97059042279817,
,,,,151,0,151,0,,,,,,,,,,,,,,,,,,,,,,1416.3223356999952,None,,,,,,,,,,,,,,,,,,interior,168,152,aloud,new,null,1413.4098649999942,None,1413.4098649999942,None,1,1.912208499998087,1413.4098649999942,None,1.912208499998087,1415.339926799992,None,1415.854892999996,None,1415.854892999996,None,n,0.44315339998865966,1415.854892999996,None,0.44315339998865966,,,126Aloud,001,2023_Sep_19_0958,ProdSingRedoBetween,2021.2.3,59.97059042279817,
,,,,152,0,152,0,,,,,,,,,,,,,,,,,,,,,,1419.225463099996,None,,,,,,,,,,,,,,,,,,finish,18,153,aloud,old,yellow,1416.8314419999951,None,1416.8314419999951,None,1,1.5466493999992963,1416.8314419999951,None,1.5466493999992963,1418.4104837999912,None,1418.9248810999998,None,1418.9248810999998,None,n,0.2772113000100944,1418.9248810999998,None,0.2772113000100944,,,126Aloud,001,2023_Sep_19_0958,ProdSingRedoBetween,2021.2.3,59.97059042279817,
,,,,153,0,153,0,,,,,,,,,,,,,,,,,,,,,,1422.6624003000034,None,,,,,,,,,,,,,,,,,,dream,154,154,aloud,new,null,1419.7357439999905,None,1419.7357439999905,None,1,2.026312699992559,1419.7357439999905,None,2.026312699992559,1421.7830803999968,None,1422.2948681999987,None,1422.2948681999987,None,n,0.33917249999649357,1422.2948681999987,None,0.33917249999649357,,,126Aloud,001,2023_Sep_19_0958,ProdSingRedoBetween,2021.2.3,59.97059042279817,
,,,,154,0,154,0,,,,,,,,,,,,,,,,,,,,,,1425.6149930999964,None,,,,,,,,,,,,,,,,,,court,110,155,aloud,new,null,1423.1639863000019,None,1423.1639863000019,None,1,1.254102499995497,1423.1639863000019,None,1.254102499995497,1424.448771700001,None,1424.9640056999924,None,1424.9640056999924,None,n,0.6220901999913622,1424.9640056999924,None,0.6220901999913622,,,126Aloud,001,2023_Sep_19_0958,ProdSingRedoBetween,2021.2.3,59.97059042279817,
,,,,155,0,155,0,,,,,,,,,,,,,,,,,,,,,,1430.1542524999968,None,,,,,,,,,,,,,,,,,,judge,13,156,aloud,old,yellow,1426.117979200004,None,1426.117979200004,None,3,1.9720560999994632,1426.117979200004,None,1.9720560999994632,1428.1194353000028,None,1428.634819400002,None,1428.634819400002,None,f,1.4873241000022972,1428.634819400002,None,1.4873241000022972,,,126Aloud,001,2023_Sep_19_0958,ProdSingRedoBetween,2021.2.3,59.97059042279817,
,,,,156,0,156,0,,,,,,,,,,,,,,,,,,,,,,1433.2225553000026,None,,,,,,,,,,,,,,,,,,plane,25,157,aloud,old,yellow,1430.6586974999955,None,1430.6586974999955,None,6,1.3673834999935934,1430.6586974999955,None,1.3673834999935934,1432.0573805000022,None,1432.5716446000006,None,1432.5716446000006,None,r,0.6224471000023186,1432.5716446000006,None,0.6224471000023186,,,126Aloud,001,2023_Sep_19_0958,ProdSingRedoBetween,2021.2.3,59.97059042279817,
,,,,157,0,157,0,,,,,,,,,,,,,,,,,,,,,,1436.9435564000014,None,,,,,,,,,,,,,,,,,,industry,94,158,aloud,new,null,1433.7253304000042,None,1433.7253304000042,None,3,2.4927456000004895,1433.7253304000042,None,2.4927456000004895,1436.2462025999994,None,1436.7707664999907,None,1436.7707664999907,None,f,0.14342829999804962,1436.7707664999907,None,0.14342829999804962,,,126Aloud,001,2023_Sep_19_0958,ProdSingRedoBetween,2021.2.3,59.97059042279817,
,,,,158,0,158,0,,,,,,,,,,,,,,,,,,,,,,1439.8146186999948,None,,,,,,,,,,,,,,,,,,principal,157,159,aloud,new,null,1437.4529201999976,None,1437.4529201999976,None,1,1.75716989999637,1437.4529201999976,None,1.75716989999637,1439.2311912000005,None,1439.750748099992,None,1439.750748099992,None,n,0.035442399996099994,1439.750748099992,None,0.035442399996099994,,,126Aloud,001,2023_Sep_19_0958,ProdSingRedoBetween,2021.2.3,59.97059042279817,
,,,,159,0,159,0,,,,,,,,,,,,,,,,,,,,,,1442.1149080000032,None,,,,,,,,,,,,,,,,,,strain,15,160,aloud,old,yellow,1440.3371446999954,None,1440.3371446999954,None,1,1.152942599990638,1440.3371446999954,None,1.152942599990638,1441.518092600003,None,1442.0310480000044,None,1442.0310480000044,None,n,0.06705399999918882,1442.0310480000044,None,0.06705399999918882,,,126Aloud,001,2023_Sep_19_0958,ProdSingRedoBetween,2021.2.3,59.97059042279817,
,,,,160,0,160,0,,,,,,,,,,,,,,,,,,,,,,1445.986252200004,None,,,,,,,,,,,,,,,,,,guide,106,161,aloud,new,null,1442.6269698999968,None,1442.6269698999968,None,2,2.311128600005759,1442.6269698999968,None,2.311128600005759,1444.9690467000037,None,1445.48451319999,None,1445.48451319999,None,f,0.47754649999842513,1445.48451319999,None,0.47754649999842513,,,126Aloud,001,2023_Sep_19_0958,ProdSingRedoBetween,2021.2.3,59.97059042279817,
,,,,161,0,161,0,,,,,,,,,,,,,,,,,,,,,,1451.524237599995,None,,,,,,,,,,,,,,,,,,angle,152,162,aloud,new,null,1446.491015599997,None,1446.491015599997,None,1,2.375035699995351,1446.491015599997,None,2.375035699995351,1448.8904391999968,None,1449.3986773999932,None,1449.3986773999932,None,n,2.083679999996093,1449.3986773999932,None,2.083679999996093,,,126Aloud,001,2023_Sep_19_0958,ProdSingRedoBetween,2021.2.3,59.97059042279817,
,,,,162,0,162,0,,,,,,,,,,,,,,,,,,,,,,1455.1788234999985,None,,,,,,,,,,,,,,,,,,story,93,163,aloud,new,null,1452.0319674999919,None,1452.0319674999919,None,1,1.9141929000033997,1452.0319674999919,None,1.9141929000033997,1453.9794148999936,None,1454.493498900003,None,1454.493498900003,None,n,0.6605641000060132,1454.493498900003,None,0.6605641000060132,,,126Aloud,001,2023_Sep_19_0958,ProdSingRedoBetween,2021.2.3,59.97059042279817,
,,,,163,0,163,0,,,,,,,,,,,,,,,,,,,,,,1458.4651862000028,None,,,,,,,,,,,,,,,,,,skill,11,164,aloud,old,yellow,1455.681185399997,None,1455.681185399997,None,1,1.1689960000076098,1455.681185399997,None,1.1689960000076098,1456.883491200002,None,1457.3975214999955,None,1457.3975214999955,None,n,1.0365125000098487,1457.3975214999955,None,1.0365125000098487,,,126Aloud,001,2023_Sep_19_0958,ProdSingRedoBetween,2021.2.3,59.97059042279817,
,,,,164,0,164,0,,,,,,,,,,,,,,,,,,,,,,1462.2193251999997,None,,,,,,,,,,,,,,,,,,power,88,165,aloud,old,red,1458.9821143000008,None,1458.9821143000008,None,1,2.612019500011229,1458.9821143000008,None,2.612019500011229,1461.623735000001,None,1462.1347075999947,None,1462.1347075999947,None,n,0.06734949999372475,1462.1347075999947,None,0.06734949999372475,,,126Aloud,001,2023_Sep_19_0958,ProdSingRedoBetween,2021.2.3,59.97059042279817,
,,,,165,0,165,0,,,,,,,,,,,,,,,,,,,,,,1465.0381614999933,None,,,,,,,,,,,,,,,,,,equipment,36,166,aloud,old,blue,1462.7277422999905,None,1462.7277422999905,None,1,1.40232819999801,1462.7277422999905,None,1.40232819999801,1464.1576207000035,None,1464.6709068999917,None,1464.6709068999917,None,n,0.3471436999971047,1464.6709068999917,None,0.3471436999971047,,,126Aloud,001,2023_Sep_19_0958,ProdSingRedoBetween,2021.2.3,59.97059042279817,
,,,,166,0,166,0,,,,,,,,,,,,,,,,,,,,,,1467.8073218999925,None,,,,,,,,,,,,,,,,,,dispute,151,167,aloud,new,null,1465.5406524999999,None,1465.5406524999999,None,1,1.5094062999996822,1465.5406524999999,None,1.5094062999996822,1467.076039499996,None,1467.590335899993,None,1467.590335899993,None,n,0.18775189999723807,1467.590335899993,None,0.18775189999723807,,,126Aloud,001,2023_Sep_19_0958,ProdSingRedoBetween,2021.2.3,59.97059042279817,
,,,,167,0,167,0,,,,,,,,,,,,,,,,,,,,,,1470.8939052999922,None,,,,,,,,,,,,,,,,,,addition,169,168,aloud,new,null,1468.3094901000004,None,1468.3094901000004,None,1,2.0045959999988554,1468.3094901000004,None,2.0045959999988554,1470.344385000004,None,1470.8599908000033,None,1470.8599908000033,None,n,0.006107499997597188,1470.8599908000033,None,0.006107499997597188,,,126Aloud,001,2023_Sep_19_0958,ProdSingRedoBetween,2021.2.3,59.97059042279817,
,,,,168,0,168,0,,,,,,,,,,,,,,,,,,,,,,1477.2334607999946,None,,,,,,,,,,,,,,,,,,express,146,169,aloud,new,null,1471.3963615999965,None,1471.3963615999965,None,2,4.1016989999916404,1471.3963615999965,None,4.1016989999916404,1475.5206124999968,None,1476.0324241999915,None,1476.0324241999915,None,n,1.177711199998157,1476.0324241999915,None,1.177711199998157,,,126Aloud,001,2023_Sep_19_0958,ProdSingRedoBetween,2021.2.3,59.97059042279817,
,,,,169,0,169,0,,,,,,,,,,,,,,,,,,,,,,1480.9539884999976,None,,,,,,,,,,,,,,,,,,frank,101,170,aloud,new,null,1477.7364492999914,None,1477.7364492999914,None,1,2.5455956000078004,1477.7364492999914,None,2.5455956000078004,1480.3065378000028,None,1480.82543479999,None,1480.82543479999,None,n,0.09682120000070427,1480.82543479999,None,0.09682120000070427,,,126Aloud,001,2023_Sep_19_0958,ProdSingRedoBetween,2021.2.3,59.97059042279817,
,,,,170,0,170,0,,,,,,,,,,,,,,,,,,,,,,1484.373096299998,None,,,,,,,,,,,,,,,,,,listen,68,171,aloud,old,red,1481.465313099994,None,1481.465313099994,None,1,2.160682400004589,1481.465313099994,None,2.160682400004589,1483.6609666000004,None,1484.1759839000006,None,1484.1759839000006,None,n,0.15438130000256933,1484.1759839000006,None,0.15438130000256933,,,126Aloud,001,2023_Sep_19_0958,ProdSingRedoBetween,2021.2.3,59.97059042279817,
,,,,171,0,171,0,,,,,,,,,,,,,,,,,,,,,,1492.96635219999,None,,,,,,,,,,,,,,,,,,exchange,30,172,aloud,old,blue,1484.8813334000006,None,1484.8813334000006,None,1,7.328711900001508,1484.8813334000006,None,7.328711900001508,1492.233381099999,None,1492.7488589999994,None,1492.7488589999994,None,n,0.19751050000195391,1492.7488589999994,None,0.19751050000195391,,,126Aloud,001,2023_Sep_19_0958,ProdSingRedoBetween,2021.2.3,59.97059042279817,
,,,,172,0,172,0,,,,,,,,,,,,,,,,,,,,,,1497.3043010999972,None,,,,,,,,,,,,,,,,,,estate,0,173,aloud,old,yellow,1493.4737524999946,None,1493.4737524999946,None,3,1.6962764000054449,1493.4737524999946,None,1.6962764000054449,1495.2032517999905,None,1495.71811229999,None,1495.71811229999,None,f,1.563946299997042,1495.71811229999,None,1.563946299997042,,,126Aloud,001,2023_Sep_19_0958,ProdSingRedoBetween,2021.2.3,59.97059042279817,
,,,,173,0,173,0,,,,,,,,,,,,,,,,,,,,,,1501.145078799993,None,,,,,,,,,,,,,,,,,,chief,164,174,aloud,new,null,1497.8061424999905,None,1497.8061424999905,None,1,1.2039057000074536,1497.8061424999905,None,1.2039057000074536,1499.0414217999933,None,1499.5600680999923,None,1499.5600680999923,None,n,1.5624365999974543,1499.5600680999923,None,1.5624365999974543,,,126Aloud,001,2023_Sep_19_0958,ProdSingRedoBetween,2021.2.3,59.97059042279817,
,,,,174,0,174,0,,,,,,,,,,,,,,,,,,,,,,1505.0287434999918,None,,,,,,,,,,,,,,,,,,rural,109,175,aloud,new,null,1501.6605368000019,None,1501.6605368000019,None,1,1.4775129999907222,1501.6605368000019,None,1.4775129999907222,1503.1623385999992,None,1503.6759617999924,None,1503.6759617999924,None,n,1.326183500001207,1503.6759617999924,None,1.326183500001207,,,126Aloud,001,2023_Sep_19_0958,ProdSingRedoBetween,2021.2.3,59.97059042279817,
,,,,175,0,175,0,,,,,,,,,,,,,,,,,,,,,,1515.6033079999906,None,,,,,,,,,,,,,,,,,,profession,69,176,aloud,old,red,1505.5304901999916,None,1505.5304901999916,None,4,8.319587299993145,1505.5304901999916,None,8.319587299993145,1513.878686199998,None,1514.3868569999904,None,1514.3868569999904,None,f,1.183150900003966,1514.3868569999904,None,1.183150900003966,,,126Aloud,001,2023_Sep_19_0958,ProdSingRedoBetween,2021.2.3,59.97059042279817,
