StudyLoop.thisRepN,StudyLoop.thisTrialN,StudyLoop.thisN,StudyLoop.thisIndex,TestLoop.thisRepN,TestLoop.thisTrialN,TestLoop.thisN,TestLoop.thisIndex,textCondition.started,textCondition.stopped,keyCondition.keys,keyCondition.rt,keyCondition.started,keyCondition.stopped,Condition,textWelcome.started,textWelcome.stopped,keyWelcome.keys,keyWelcome.rt,keyWelcome.started,keyWelcome.stopped,textAloud.started,textAloud.stopped,textSilent.started,textSilent.stopped,textSing.started,textSing.stopped,conditional_text.started,conditional_text.stopped,textBlank500.started,textBlank500.stopped,study_word,study_num,study_order,study_type,word_color,textStudy.started,textStudy.stopped,keyStudy.keys,keyStudy.started,keyStudy.stopped,textTestInstructions.started,textTestInstructions.stopped,key_resp_3.keys,key_resp_3.rt,key_resp_3.started,key_resp_3.stopped,test_word,test_num,test_order,test_condition,old_new_test,test_word_original_color,textConf.started,textConf.stopped,textConfScale.started,textConfScale.stopped,keyConf.keys,keyConf.rt,keyConf.started,keyConf.stopped,confidence response time,textTestBlank.started,textTestBlank.stopped,textRKN.started,textRKN.stopped,textRKNScale.started,textRKNScale.stopped,keyRKN.keys,keyRKN.rt,keyRKN.started,keyRKN.stopped,rkn response time,textEnd.started,textEnd.stopped,participant,session,date,expName,psychopyVersion,frameRate,
,,,,,,,,171.81266410002718,None,c,1.619694699998945,171.81266410002718,None,,,,,,,,,,,,,,,,,,,,,,,,,,,,,,,,,,,,,,,,,,,,,,,,,,,,,,,,,,,,,,127 S,001,2023_Sep_20_1729,ProdSingRedoBetween,2021.2.3,59.94901936005703,
,,,,,,,,,,,,,,SingTest,173.46921050001401,None,space,171.9631169999775,173.46921050001401,None,,,,,,,,,,,,,,,,,,,,,,,,,,,,,,,,,,,,,,,,,,,,,,,,,,,,,,,127 S,001,2023_Sep_20_1729,ProdSingRedoBetween,2021.2.3,59.94901936005703,
0,0,0,0,,,,,,,,,,,,,,,,,,173.46921050001401,None,173.46921050001401,None,173.46921050001401,None,173.46921050001401,None,347.9800468000176,None,incident,40,1,sing,blue,345.9623876000114,None,None,345.9623876000114,None,,,,,,,,,,,,,,,,,,,,,,,,,,,,,,,,,,,127 S,001,2023_Sep_20_1729,ProdSingRedoBetween,2021.2.3,59.94901936005703,
1,0,1,0,,,,,,,,,,,,,,,,,,,,,,,,,,350.4963885000034,None,master,24,2,sing,yellow,348.48190430001705,None,None,348.48190430001705,None,,,,,,,,,,,,,,,,,,,,,,,,,,,,,,,,,,,127 S,001,2023_Sep_20_1729,ProdSingRedoBetween,2021.2.3,59.94901936005703,
2,0,2,0,,,,,,,,,,,,,,,,,,,,,,,,,,352.9988259000238,None,rural,66,3,sing,red,350.998948500026,None,None,350.998948500026,None,,,,,,,,,,,,,,,,,,,,,,,,,,,,,,,,,,,127 S,001,2023_Sep_20_1729,ProdSingRedoBetween,2021.2.3,59.94901936005703,
3,0,3,0,,,,,,,,,,,,,,,,,,,,,,,,,,355.50132820001454,None,power,48,4,sing,blue,353.500625900022,None,None,353.500625900022,None,,,,,,,,,,,,,,,,,,,,,,,,,,,,,,,,,,,127 S,001,2023_Sep_20_1729,ProdSingRedoBetween,2021.2.3,59.94901936005703,
4,0,4,0,,,,,,,,,,,,,,,,,,,,,,,,,,358.02049930000794,None,republic,58,5,sing,blue,356.0055548000091,None,None,356.0055548000091,None,,,,,,,,,,,,,,,,,,,,,,,,,,,,,,,,,,,127 S,001,2023_Sep_20_1729,ProdSingRedoBetween,2021.2.3,59.94901936005703,
5,0,5,0,,,,,,,,,,,,,,,,,,,,,,,,,,360.5228890000144,None,novel,78,6,sing,red,358.5217827000015,None,None,358.5217827000015,None,,,,,,,,,,,,,,,,,,,,,,,,,,,,,,,,,,,127 S,001,2023_Sep_20_1729,ProdSingRedoBetween,2021.2.3,59.94901936005703,
6,0,6,0,,,,,,,,,,,,,,,,,,,,,,,,,,363.02527850001934,None,surface,15,7,sing,yellow,361.0246634000214,None,None,361.0246634000214,None,,,,,,,,,,,,,,,,,,,,,,,,,,,,,,,,,,,127 S,001,2023_Sep_20_1729,ProdSingRedoBetween,2021.2.3,59.94901936005703,
7,0,7,0,,,,,,,,,,,,,,,,,,,,,,,,,,365.54446120001376,None,quarter,4,8,sing,yellow,363.53873560001375,None,None,363.53873560001375,None,,,,,,,,,,,,,,,,,,,,,,,,,,,,,,,,,,,127 S,001,2023_Sep_20_1729,ProdSingRedoBetween,2021.2.3,59.94901936005703,
8,0,8,0,,,,,,,,,,,,,,,,,,,,,,,,,,368.04729510002653,None,voice,12,9,sing,yellow,366.04694450000534,None,None,366.04694450000534,None,,,,,,,,,,,,,,,,,,,,,,,,,,,,,,,,,,,127 S,001,2023_Sep_20_1729,ProdSingRedoBetween,2021.2.3,59.94901936005703,
9,0,9,0,,,,,,,,,,,,,,,,,,,,,,,,,,370.56625120001263,None,display,11,10,sing,yellow,368.55261960002827,None,None,368.55261960002827,None,,,,,,,,,,,,,,,,,,,,,,,,,,,,,,,,,,,127 S,001,2023_Sep_20_1729,ProdSingRedoBetween,2021.2.3,59.94901936005703,
10,0,10,0,,,,,,,,,,,,,,,,,,,,,,,,,,373.0683315000206,None,thick,65,11,sing,red,371.06908650000696,None,None,371.06908650000696,None,,,,,,,,,,,,,,,,,,,,,,,,,,,,,,,,,,,127 S,001,2023_Sep_20_1729,ProdSingRedoBetween,2021.2.3,59.94901936005703,
11,0,11,0,,,,,,,,,,,,,,,,,,,,,,,,,,375.5714232000173,None,hearing,53,12,sing,blue,373.57065260002855,None,None,373.57065260002855,None,,,,,,,,,,,,,,,,,,,,,,,,,,,,,,,,,,,127 S,001,2023_Sep_20_1729,ProdSingRedoBetween,2021.2.3,59.94901936005703,
12,0,12,0,,,,,,,,,,,,,,,,,,,,,,,,,,378.0905216000101,None,health,43,13,sing,blue,376.07492810001713,None,None,376.07492810001713,None,,,,,,,,,,,,,,,,,,,,,,,,,,,,,,,,,,,127 S,001,2023_Sep_20_1729,ProdSingRedoBetween,2021.2.3,59.94901936005703,
13,0,13,0,,,,,,,,,,,,,,,,,,,,,,,,,,380.59275770001113,None,tough,84,14,sing,red,378.5929058000038,None,None,378.5929058000038,None,,,,,,,,,,,,,,,,,,,,,,,,,,,,,,,,,,,127 S,001,2023_Sep_20_1729,ProdSingRedoBetween,2021.2.3,59.94901936005703,
14,0,14,0,,,,,,,,,,,,,,,,,,,,,,,,,,383.095233,None,second,44,15,sing,blue,381.0944535000017,None,None,381.0944535000017,None,,,,,,,,,,,,,,,,,,,,,,,,,,,,,,,,,,,127 S,001,2023_Sep_20_1729,ProdSingRedoBetween,2021.2.3,59.94901936005703,
15,0,15,0,,,,,,,,,,,,,,,,,,,,,,,,,,385.59783150002477,None,executive,47,16,sing,blue,383.59752290000324,None,None,383.59752290000324,None,,,,,,,,,,,,,,,,,,,,,,,,,,,,,,,,,,,127 S,001,2023_Sep_20_1729,ProdSingRedoBetween,2021.2.3,59.94901936005703,
16,0,16,0,,,,,,,,,,,,,,,,,,,,,,,,,,388.1172548000177,None,tragedy,67,17,sing,red,386.1012890000129,None,None,386.1012890000129,None,,,,,,,,,,,,,,,,,,,,,,,,,,,,,,,,,,,127 S,001,2023_Sep_20_1729,ProdSingRedoBetween,2021.2.3,59.94901936005703,
17,0,17,0,,,,,,,,,,,,,,,,,,,,,,,,,,390.6196253000235,None,edition,27,18,sing,yellow,388.61800310001126,None,None,388.61800310001126,None,,,,,,,,,,,,,,,,,,,,,,,,,,,,,,,,,,,127 S,001,2023_Sep_20_1729,ProdSingRedoBetween,2021.2.3,59.94901936005703,
18,0,18,0,,,,,,,,,,,,,,,,,,,,,,,,,,393.138901600003,None,concern,13,19,sing,yellow,391.1248469000275,None,None,391.1248469000275,None,,,,,,,,,,,,,,,,,,,,,,,,,,,,,,,,,,,127 S,001,2023_Sep_20_1729,ProdSingRedoBetween,2021.2.3,59.94901936005703,
19,0,19,0,,,,,,,,,,,,,,,,,,,,,,,,,,395.64139950001845,None,foundation,35,20,sing,blue,393.64221660001203,None,None,393.64221660001203,None,,,,,,,,,,,,,,,,,,,,,,,,,,,,,,,,,,,127 S,001,2023_Sep_20_1729,ProdSingRedoBetween,2021.2.3,59.94901936005703,
20,0,20,0,,,,,,,,,,,,,,,,,,,,,,,,,,398.1604396000039,None,split,31,21,sing,blue,396.147512800002,None,None,396.147512800002,None,,,,,,,,,,,,,,,,,,,,,,,,,,,,,,,,,,,127 S,001,2023_Sep_20_1729,ProdSingRedoBetween,2021.2.3,59.94901936005703,
21,0,21,0,,,,,,,,,,,,,,,,,,,,,,,,,,400.6797442000243,None,center,61,22,sing,red,398.6724062000285,None,None,398.6724062000285,None,,,,,,,,,,,,,,,,,,,,,,,,,,,,,,,,,,,127 S,001,2023_Sep_20_1729,ProdSingRedoBetween,2021.2.3,59.94901936005703,
22,0,22,0,,,,,,,,,,,,,,,,,,,,,,,,,,403.18239050000557,None,rough,28,23,sing,yellow,401.18241800001124,None,None,401.18241800001124,None,,,,,,,,,,,,,,,,,,,,,,,,,,,,,,,,,,,127 S,001,2023_Sep_20_1729,ProdSingRedoBetween,2021.2.3,59.94901936005703,
23,0,23,0,,,,,,,,,,,,,,,,,,,,,,,,,,405.7014599000104,None,atmosphere,59,24,sing,yellow,403.6877460000105,None,None,403.6877460000105,None,,,,,,,,,,,,,,,,,,,,,,,,,,,,,,,,,,,127 S,001,2023_Sep_20_1729,ProdSingRedoBetween,2021.2.3,59.94901936005703,
24,0,24,0,,,,,,,,,,,,,,,,,,,,,,,,,,408.2202204000205,None,interview,52,25,sing,blue,406.20679210001254,None,None,406.20679210001254,None,,,,,,,,,,,,,,,,,,,,,,,,,,,,,,,,,,,127 S,001,2023_Sep_20_1729,ProdSingRedoBetween,2021.2.3,59.94901936005703,
25,0,25,0,,,,,,,,,,,,,,,,,,,,,,,,,,410.7231796000269,None,whole,10,26,sing,yellow,408.7240448000084,None,None,408.7240448000084,None,,,,,,,,,,,,,,,,,,,,,,,,,,,,,,,,,,,127 S,001,2023_Sep_20_1729,ProdSingRedoBetween,2021.2.3,59.94901936005703,
26,0,26,0,,,,,,,,,,,,,,,,,,,,,,,,,,413.2420203000074,None,population,87,27,sing,red,411.23889530001907,None,None,411.23889530001907,None,,,,,,,,,,,,,,,,,,,,,,,,,,,,,,,,,,,127 S,001,2023_Sep_20_1729,ProdSingRedoBetween,2021.2.3,59.94901936005703,
27,0,27,0,,,,,,,,,,,,,,,,,,,,,,,,,,415.76132020002115,None,hunger,23,28,sing,yellow,413.7494942000194,None,None,413.7494942000194,None,,,,,,,,,,,,,,,,,,,,,,,,,,,,,,,,,,,127 S,001,2023_Sep_20_1729,ProdSingRedoBetween,2021.2.3,59.94901936005703,
28,0,28,0,,,,,,,,,,,,,,,,,,,,,,,,,,418.26409370001056,None,partner,29,29,sing,blue,416.2649109000049,None,None,416.2649109000049,None,,,,,,,,,,,,,,,,,,,,,,,,,,,,,,,,,,,127 S,001,2023_Sep_20_1729,ProdSingRedoBetween,2021.2.3,59.94901936005703,
29,0,29,0,,,,,,,,,,,,,,,,,,,,,,,,,,420.76666810002644,None,broad,54,30,sing,blue,418.76442330001737,None,None,418.76442330001737,None,,,,,,,,,,,,,,,,,,,,,,,,,,,,,,,,,,,127 S,001,2023_Sep_20_1729,ProdSingRedoBetween,2021.2.3,59.94901936005703,
30,0,30,0,,,,,,,,,,,,,,,,,,,,,,,,,,423.2858256000036,None,payment,39,31,sing,blue,421.2724054999999,None,None,421.2724054999999,None,,,,,,,,,,,,,,,,,,,,,,,,,,,,,,,,,,,127 S,001,2023_Sep_20_1729,ProdSingRedoBetween,2021.2.3,59.94901936005703,
31,0,31,0,,,,,,,,,,,,,,,,,,,,,,,,,,425.7878915000183,None,region,14,32,sing,yellow,423.78784400000586,None,None,423.78784400000586,None,,,,,,,,,,,,,,,,,,,,,,,,,,,,,,,,,,,127 S,001,2023_Sep_20_1729,ProdSingRedoBetween,2021.2.3,59.94901936005703,
32,0,32,0,,,,,,,,,,,,,,,,,,,,,,,,,,428.3071240000136,None,research,16,33,sing,yellow,426.29389800000354,None,None,426.29389800000354,None,,,,,,,,,,,,,,,,,,,,,,,,,,,,,,,,,,,127 S,001,2023_Sep_20_1729,ProdSingRedoBetween,2021.2.3,59.94901936005703,
33,0,33,0,,,,,,,,,,,,,,,,,,,,,,,,,,430.8267887000111,None,sleep,19,34,sing,yellow,428.8222351000004,None,None,428.8222351000004,None,,,,,,,,,,,,,,,,,,,,,,,,,,,,,,,,,,,127 S,001,2023_Sep_20_1729,ProdSingRedoBetween,2021.2.3,59.94901936005703,
34,0,34,0,,,,,,,,,,,,,,,,,,,,,,,,,,433.3285630000173,None,guard,46,35,sing,blue,431.3287116000138,None,None,431.3287116000138,None,,,,,,,,,,,,,,,,,,,,,,,,,,,,,,,,,,,127 S,001,2023_Sep_20_1729,ProdSingRedoBetween,2021.2.3,59.94901936005703,
35,0,35,0,,,,,,,,,,,,,,,,,,,,,,,,,,435.8314755000174,None,order,18,36,sing,yellow,433.83221970000886,None,None,433.83221970000886,None,,,,,,,,,,,,,,,,,,,,,,,,,,,,,,,,,,,127 S,001,2023_Sep_20_1729,ProdSingRedoBetween,2021.2.3,59.94901936005703,
36,0,36,0,,,,,,,,,,,,,,,,,,,,,,,,,,438.33376250002766,None,worker,5,37,sing,yellow,436.3337036000157,None,None,436.3337036000157,None,,,,,,,,,,,,,,,,,,,,,,,,,,,,,,,,,,,127 S,001,2023_Sep_20_1729,ProdSingRedoBetween,2021.2.3,59.94901936005703,
37,0,37,0,,,,,,,,,,,,,,,,,,,,,,,,,,440.8363647000224,None,message,63,38,sing,red,438.8347663000168,None,None,438.8347663000168,None,,,,,,,,,,,,,,,,,,,,,,,,,,,,,,,,,,,127 S,001,2023_Sep_20_1729,ProdSingRedoBetween,2021.2.3,59.94901936005703,
38,0,38,0,,,,,,,,,,,,,,,,,,,,,,,,,,443.3389644000272,None,escape,57,39,sing,blue,441.3392130000284,None,None,441.3392130000284,None,,,,,,,,,,,,,,,,,,,,,,,,,,,,,,,,,,,127 S,001,2023_Sep_20_1729,ProdSingRedoBetween,2021.2.3,59.94901936005703,
39,0,39,0,,,,,,,,,,,,,,,,,,,,,,,,,,445.8580216000264,None,relation,70,40,sing,red,443.8434101000021,None,None,443.8434101000021,None,,,,,,,,,,,,,,,,,,,,,,,,,,,,,,,,,,,127 S,001,2023_Sep_20_1729,ProdSingRedoBetween,2021.2.3,59.94901936005703,
40,0,40,0,,,,,,,,,,,,,,,,,,,,,,,,,,448.3604257000261,None,trail,41,41,sing,blue,446.3596933000081,None,None,446.3596933000081,None,,,,,,,,,,,,,,,,,,,,,,,,,,,,,,,,,,,127 S,001,2023_Sep_20_1729,ProdSingRedoBetween,2021.2.3,59.94901936005703,
41,0,41,0,,,,,,,,,,,,,,,,,,,,,,,,,,450.86331170002813,None,goose,1,42,sing,yellow,448.862589700002,None,None,448.862589700002,None,,,,,,,,,,,,,,,,,,,,,,,,,,,,,,,,,,,127 S,001,2023_Sep_20_1729,ProdSingRedoBetween,2021.2.3,59.94901936005703,
42,0,42,0,,,,,,,,,,,,,,,,,,,,,,,,,,453.365451700025,None,ground,36,43,sing,blue,451.363981100003,None,None,451.363981100003,None,,,,,,,,,,,,,,,,,,,,,,,,,,,,,,,,,,,127 S,001,2023_Sep_20_1729,ProdSingRedoBetween,2021.2.3,59.94901936005703,
43,0,43,0,,,,,,,,,,,,,,,,,,,,,,,,,,455.88496030002716,None,judge,33,44,sing,blue,453.87510910001583,None,None,453.87510910001583,None,,,,,,,,,,,,,,,,,,,,,,,,,,,,,,,,,,,127 S,001,2023_Sep_20_1729,ProdSingRedoBetween,2021.2.3,59.94901936005703,
44,0,44,0,,,,,,,,,,,,,,,,,,,,,,,,,,458.3874745000212,None,state,77,45,sing,red,456.387701700005,None,None,456.387701700005,None,,,,,,,,,,,,,,,,,,,,,,,,,,,,,,,,,,,127 S,001,2023_Sep_20_1729,ProdSingRedoBetween,2021.2.3,59.94901936005703,
45,0,45,0,,,,,,,,,,,,,,,,,,,,,,,,,,460.90630910001346,None,guide,73,46,sing,red,458.892663000006,None,None,458.892663000006,None,,,,,,,,,,,,,,,,,,,,,,,,,,,,,,,,,,,127 S,001,2023_Sep_20_1729,ProdSingRedoBetween,2021.2.3,59.94901936005703,
46,0,46,0,,,,,,,,,,,,,,,,,,,,,,,,,,463.4088067000266,None,poetry,20,47,sing,yellow,461.4067455000186,None,None,461.4067455000186,None,,,,,,,,,,,,,,,,,,,,,,,,,,,,,,,,,,,127 S,001,2023_Sep_20_1729,ProdSingRedoBetween,2021.2.3,59.94901936005703,
47,0,47,0,,,,,,,,,,,,,,,,,,,,,,,,,,465.9116771000263,None,brief,62,48,sing,red,463.9116168000037,None,None,463.9116168000037,None,,,,,,,,,,,,,,,,,,,,,,,,,,,,,,,,,,,127 S,001,2023_Sep_20_1729,ProdSingRedoBetween,2021.2.3,59.94901936005703,
48,0,48,0,,,,,,,,,,,,,,,,,,,,,,,,,,468.43055180000374,None,quantity,17,49,sing,yellow,466.41656480001984,None,None,466.41656480001984,None,,,,,,,,,,,,,,,,,,,,,,,,,,,,,,,,,,,127 S,001,2023_Sep_20_1729,ProdSingRedoBetween,2021.2.3,59.94901936005703,
49,0,49,0,,,,,,,,,,,,,,,,,,,,,,,,,,470.94992730001104,None,orchestra,9,50,sing,yellow,468.9446310000203,None,None,468.9446310000203,None,,,,,,,,,,,,,,,,,,,,,,,,,,,,,,,,,,,127 S,001,2023_Sep_20_1729,ProdSingRedoBetween,2021.2.3,59.94901936005703,
50,0,50,0,,,,,,,,,,,,,,,,,,,,,,,,,,473.45248710000305,None,minor,55,51,sing,blue,471.45225240002037,None,None,471.45225240002037,None,,,,,,,,,,,,,,,,,,,,,,,,,,,,,,,,,,,127 S,001,2023_Sep_20_1729,ProdSingRedoBetween,2021.2.3,59.94901936005703,
51,0,51,0,,,,,,,,,,,,,,,,,,,,,,,,,,475.9548680000007,None,bright,68,52,sing,red,473.9555115000112,None,None,473.9555115000112,None,,,,,,,,,,,,,,,,,,,,,,,,,,,,,,,,,,,127 S,001,2023_Sep_20_1729,ProdSingRedoBetween,2021.2.3,59.94901936005703,
52,0,52,0,,,,,,,,,,,,,,,,,,,,,,,,,,478.4575813000265,None,medicine,38,53,sing,blue,476.45572870000615,None,None,476.45572870000615,None,,,,,,,,,,,,,,,,,,,,,,,,,,,,,,,,,,,127 S,001,2023_Sep_20_1729,ProdSingRedoBetween,2021.2.3,59.94901936005703,
53,0,53,0,,,,,,,,,,,,,,,,,,,,,,,,,,480.976730400027,None,scale,26,54,sing,yellow,478.96242380002514,None,None,478.96242380002514,None,,,,,,,,,,,,,,,,,,,,,,,,,,,,,,,,,,,127 S,001,2023_Sep_20_1729,ProdSingRedoBetween,2021.2.3,59.94901936005703,
54,0,54,0,,,,,,,,,,,,,,,,,,,,,,,,,,483.49583900001016,None,skill,3,55,sing,yellow,481.48224810001557,None,None,481.48224810001557,None,,,,,,,,,,,,,,,,,,,,,,,,,,,,,,,,,,,127 S,001,2023_Sep_20_1729,ProdSingRedoBetween,2021.2.3,59.94901936005703,
55,0,55,0,,,,,,,,,,,,,,,,,,,,,,,,,,485.99833550001495,None,portion,32,56,sing,blue,483.99817920001806,None,None,483.99817920001806,None,,,,,,,,,,,,,,,,,,,,,,,,,,,,,,,,,,,127 S,001,2023_Sep_20_1729,ProdSingRedoBetween,2021.2.3,59.94901936005703,
56,0,56,0,,,,,,,,,,,,,,,,,,,,,,,,,,488.5006755000213,None,straight,8,57,sing,yellow,486.5009180000052,None,None,486.5009180000052,None,,,,,,,,,,,,,,,,,,,,,,,,,,,,,,,,,,,127 S,001,2023_Sep_20_1729,ProdSingRedoBetween,2021.2.3,59.94901936005703,
57,0,57,0,,,,,,,,,,,,,,,,,,,,,,,,,,491.0198899000243,None,front,75,58,sing,red,489.005295400013,None,None,489.005295400013,None,,,,,,,,,,,,,,,,,,,,,,,,,,,,,,,,,,,127 S,001,2023_Sep_20_1729,ProdSingRedoBetween,2021.2.3,59.94901936005703,
58,0,58,0,,,,,,,,,,,,,,,,,,,,,,,,,,493.52219290001085,None,exchange,6,59,sing,yellow,491.5209274000081,None,None,491.5209274000081,None,,,,,,,,,,,,,,,,,,,,,,,,,,,,,,,,,,,127 S,001,2023_Sep_20_1729,ProdSingRedoBetween,2021.2.3,59.94901936005703,
59,0,59,0,,,,,,,,,,,,,,,,,,,,,,,,,,496.024667700025,None,track,69,60,sing,red,494.02328600001056,None,None,494.02328600001056,None,,,,,,,,,,,,,,,,,,,,,,,,,,,,,,,,,,,127 S,001,2023_Sep_20_1729,ProdSingRedoBetween,2021.2.3,59.94901936005703,
60,0,60,0,,,,,,,,,,,,,,,,,,,,,,,,,,498.5272178000014,None,entrance,7,61,sing,yellow,496.52601610001875,None,None,496.52601610001875,None,,,,,,,,,,,,,,,,,,,,,,,,,,,,,,,,,,,127 S,001,2023_Sep_20_1729,ProdSingRedoBetween,2021.2.3,59.94901936005703,
61,0,61,0,,,,,,,,,,,,,,,,,,,,,,,,,,501.0466422000027,None,country,74,62,sing,red,499.03228680000757,None,None,499.03228680000757,None,,,,,,,,,,,,,,,,,,,,,,,,,,,,,,,,,,,127 S,001,2023_Sep_20_1729,ProdSingRedoBetween,2021.2.3,59.94901936005703,
62,0,62,0,,,,,,,,,,,,,,,,,,,,,,,,,,503.54927410001983,None,group,50,63,sing,blue,501.5477511000063,None,None,501.5477511000063,None,,,,,,,,,,,,,,,,,,,,,,,,,,,,,,,,,,,127 S,001,2023_Sep_20_1729,ProdSingRedoBetween,2021.2.3,59.94901936005703,
63,0,63,0,,,,,,,,,,,,,,,,,,,,,,,,,,506.0682334000012,None,distance,30,64,sing,blue,504.05476630001795,None,None,504.05476630001795,None,,,,,,,,,,,,,,,,,,,,,,,,,,,,,,,,,,,127 S,001,2023_Sep_20_1729,ProdSingRedoBetween,2021.2.3,59.94901936005703,
64,0,64,0,,,,,,,,,,,,,,,,,,,,,,,,,,508.57089530001394,None,meeting,22,65,sing,yellow,506.57164530002046,None,None,506.57164530002046,None,,,,,,,,,,,,,,,,,,,,,,,,,,,,,,,,,,,127 S,001,2023_Sep_20_1729,ProdSingRedoBetween,2021.2.3,59.94901936005703,
65,0,65,0,,,,,,,,,,,,,,,,,,,,,,,,,,511.0901397000125,None,design,83,66,sing,red,509.07434390002163,None,None,509.07434390002163,None,,,,,,,,,,,,,,,,,,,,,,,,,,,,,,,,,,,127 S,001,2023_Sep_20_1729,ProdSingRedoBetween,2021.2.3,59.94901936005703,
66,0,66,0,,,,,,,,,,,,,,,,,,,,,,,,,,513.5925515000126,None,colonel,37,67,sing,blue,511.5911056000041,None,None,511.5911056000041,None,,,,,,,,,,,,,,,,,,,,,,,,,,,,,,,,,,,127 S,001,2023_Sep_20_1729,ProdSingRedoBetween,2021.2.3,59.94901936005703,
67,0,67,0,,,,,,,,,,,,,,,,,,,,,,,,,,516.0951010000135,None,volume,56,68,sing,blue,514.0946035000088,None,None,514.0946035000088,None,,,,,,,,,,,,,,,,,,,,,,,,,,,,,,,,,,,127 S,001,2023_Sep_20_1729,ProdSingRedoBetween,2021.2.3,59.94901936005703,
68,0,68,0,,,,,,,,,,,,,,,,,,,,,,,,,,518.6142978999997,None,surprise,89,69,sing,red,516.6107532000169,None,None,516.6107532000169,None,,,,,,,,,,,,,,,,,,,,,,,,,,,,,,,,,,,127 S,001,2023_Sep_20_1729,ProdSingRedoBetween,2021.2.3,59.94901936005703,
69,0,69,0,,,,,,,,,,,,,,,,,,,,,,,,,,521.1165702000144,None,institute,64,70,sing,red,519.1157434000052,None,None,519.1157434000052,None,,,,,,,,,,,,,,,,,,,,,,,,,,,,,,,,,,,127 S,001,2023_Sep_20_1729,ProdSingRedoBetween,2021.2.3,59.94901936005703,
70,0,70,0,,,,,,,,,,,,,,,,,,,,,,,,,,523.6190917000058,None,sound,51,71,sing,blue,521.6194824000122,None,None,521.6194824000122,None,,,,,,,,,,,,,,,,,,,,,,,,,,,,,,,,,,,127 S,001,2023_Sep_20_1729,ProdSingRedoBetween,2021.2.3,59.94901936005703,
71,0,71,0,,,,,,,,,,,,,,,,,,,,,,,,,,526.1381320000219,None,dispute,82,72,sing,red,524.1228747000278,None,None,524.1228747000278,None,,,,,,,,,,,,,,,,,,,,,,,,,,,,,,,,,,,127 S,001,2023_Sep_20_1729,ProdSingRedoBetween,2021.2.3,59.94901936005703,
72,0,72,0,,,,,,,,,,,,,,,,,,,,,,,,,,528.6571707000257,None,century,76,73,sing,red,526.642368700006,None,None,526.642368700006,None,,,,,,,,,,,,,,,,,,,,,,,,,,,,,,,,,,,127 S,001,2023_Sep_20_1729,ProdSingRedoBetween,2021.2.3,59.94901936005703,
73,0,73,0,,,,,,,,,,,,,,,,,,,,,,,,,,531.1767234000145,None,trial,42,74,sing,blue,529.1688528000086,None,None,529.1688528000086,None,,,,,,,,,,,,,,,,,,,,,,,,,,,,,,,,,,,127 S,001,2023_Sep_20_1729,ProdSingRedoBetween,2021.2.3,59.94901936005703,
74,0,74,0,,,,,,,,,,,,,,,,,,,,,,,,,,533.6789805000008,None,broke,25,75,sing,yellow,531.6796966000111,None,None,531.6796966000111,None,,,,,,,,,,,,,,,,,,,,,,,,,,,,,,,,,,,127 S,001,2023_Sep_20_1729,ProdSingRedoBetween,2021.2.3,59.94901936005703,
75,0,75,0,,,,,,,,,,,,,,,,,,,,,,,,,,536.1819183000189,None,majority,79,76,sing,red,534.1818342000188,None,None,534.1818342000188,None,,,,,,,,,,,,,,,,,,,,,,,,,,,,,,,,,,,127 S,001,2023_Sep_20_1729,ProdSingRedoBetween,2021.2.3,59.94901936005703,
76,0,76,0,,,,,,,,,,,,,,,,,,,,,,,,,,538.7009512000077,None,corner,80,77,sing,red,536.6853679000051,None,None,536.6853679000051,None,,,,,,,,,,,,,,,,,,,,,,,,,,,,,,,,,,,127 S,001,2023_Sep_20_1729,ProdSingRedoBetween,2021.2.3,59.94901936005703,
77,0,77,0,,,,,,,,,,,,,,,,,,,,,,,,,,541.2037550000241,None,council,88,78,sing,red,539.2036386000109,None,None,539.2036386000109,None,,,,,,,,,,,,,,,,,,,,,,,,,,,,,,,,,,,127 S,001,2023_Sep_20_1729,ProdSingRedoBetween,2021.2.3,59.94901936005703,
78,0,78,0,,,,,,,,,,,,,,,,,,,,,,,,,,543.7063573000196,None,addition,2,79,sing,yellow,541.7057905000111,None,None,541.7057905000111,None,,,,,,,,,,,,,,,,,,,,,,,,,,,,,,,,,,,127 S,001,2023_Sep_20_1729,ProdSingRedoBetween,2021.2.3,59.94901936005703,
79,0,79,0,,,,,,,,,,,,,,,,,,,,,,,,,,546.2251928000187,None,community,86,80,sing,red,544.2159818000218,None,None,544.2159818000218,None,,,,,,,,,,,,,,,,,,,,,,,,,,,,,,,,,,,127 S,001,2023_Sep_20_1729,ProdSingRedoBetween,2021.2.3,59.94901936005703,
80,0,80,0,,,,,,,,,,,,,,,,,,,,,,,,,,548.7280236000079,None,south,60,81,sing,red,546.7276001000137,None,None,546.7276001000137,None,,,,,,,,,,,,,,,,,,,,,,,,,,,,,,,,,,,127 S,001,2023_Sep_20_1729,ProdSingRedoBetween,2021.2.3,59.94901936005703,
81,0,81,0,,,,,,,,,,,,,,,,,,,,,,,,,,551.2303059000114,None,platform,81,82,sing,red,549.2306113000086,None,None,549.2306113000086,None,,,,,,,,,,,,,,,,,,,,,,,,,,,,,,,,,,,127 S,001,2023_Sep_20_1729,ProdSingRedoBetween,2021.2.3,59.94901936005703,
82,0,82,0,,,,,,,,,,,,,,,,,,,,,,,,,,553.7491294000065,None,beauty,49,83,sing,blue,551.7366444000218,None,None,551.7366444000218,None,,,,,,,,,,,,,,,,,,,,,,,,,,,,,,,,,,,127 S,001,2023_Sep_20_1729,ProdSingRedoBetween,2021.2.3,59.94901936005703,
83,0,83,0,,,,,,,,,,,,,,,,,,,,,,,,,,556.2514607000048,None,frank,72,84,sing,red,554.249588000006,None,None,554.249588000006,None,,,,,,,,,,,,,,,,,,,,,,,,,,,,,,,,,,,127 S,001,2023_Sep_20_1729,ProdSingRedoBetween,2021.2.3,59.94901936005703,
84,0,84,0,,,,,,,,,,,,,,,,,,,,,,,,,,558.7544356000144,None,throw,45,85,sing,blue,556.7526915000053,None,None,556.7526915000053,None,,,,,,,,,,,,,,,,,,,,,,,,,,,,,,,,,,,127 S,001,2023_Sep_20_1729,ProdSingRedoBetween,2021.2.3,59.94901936005703,
85,0,85,0,,,,,,,,,,,,,,,,,,,,,,,,,,561.2568188000005,None,running,34,86,sing,blue,559.2546685000125,None,None,559.2546685000125,None,,,,,,,,,,,,,,,,,,,,,,,,,,,,,,,,,,,127 S,001,2023_Sep_20_1729,ProdSingRedoBetween,2021.2.3,59.94901936005703,
86,0,86,0,,,,,,,,,,,,,,,,,,,,,,,,,,563.7594810000155,None,season,85,87,sing,red,561.7587133000197,None,None,561.7587133000197,None,,,,,,,,,,,,,,,,,,,,,,,,,,,,,,,,,,,127 S,001,2023_Sep_20_1729,ProdSingRedoBetween,2021.2.3,59.94901936005703,
87,0,87,0,,,,,,,,,,,,,,,,,,,,,,,,,,566.2614813000255,None,property,0,88,sing,yellow,564.2619114000117,None,None,564.2619114000117,None,,,,,,,,,,,,,,,,,,,,,,,,,,,,,,,,,,,127 S,001,2023_Sep_20_1729,ProdSingRedoBetween,2021.2.3,59.94901936005703,
88,0,88,0,,,,,,,,,,,,,,,,,,,,,,,,,,568.7640933000075,None,listen,21,89,sing,yellow,566.7632023000042,None,None,566.7632023000042,None,,,,,,,,,,,,,,,,,,,,,,,,,,,,,,,,,,,127 S,001,2023_Sep_20_1729,ProdSingRedoBetween,2021.2.3,59.94901936005703,
89,0,89,0,,,,,,,,,,,,,,,,,,,,,,,,,,571.2832865000237,None,guest,71,90,sing,red,569.2760094000259,None,None,569.2760094000259,None,,,,,,,,,,,,,,,,,,,,,,,,,,,,,,,,,,,127 S,001,2023_Sep_20_1729,ProdSingRedoBetween,2021.2.3,59.94901936005703,
,,,,,,,,,,,,,,,,,,,,,,,,,,,,,,,,,,,,,,,,,571.7839563000016,None,k,4.312445699993987,571.7839563000016,None,,,,,,,,,,,,,,,,,,,,,,,,,,,,,127 S,001,2023_Sep_20_1729,ProdSingRedoBetween,2021.2.3,59.94901936005703,
,,,,0,0,0,0,,,,,,,,,,,,,,,,,,,,,,617.5114733000228,None,,,,,,,,,,,,,,,,,executive,47,1,sing,old,blue,576.6261575000244,None,576.6261575000244,None,6,23.286361100006616,576.6261575000244,None,23.286361100006616,599.9419675000245,None,600.4475063999998,None,600.4475063999998,None,r,17.02482229997986,600.4475063999998,None,17.02482229997986,,,127 S,001,2023_Sep_20_1729,ProdSingRedoBetween,2021.2.3,59.94901936005703,
,,,,1,0,1,0,,,,,,,,,,,,,,,,,,,,,,623.5041537000216,None,,,,,,,,,,,,,,,,,heavy,174,2,sing,new,null,618.0153849000053,None,618.0153849000053,None,1,2.4332550000108313,618.0153849000053,None,2.4332550000108313,620.4726702000189,None,620.9837363000261,None,620.9837363000261,None,n,2.4886568000074476,620.9837363000261,None,2.4886568000074476,,,127 S,001,2023_Sep_20_1729,ProdSingRedoBetween,2021.2.3,59.94901936005703,
,,,,2,0,2,0,,,,,,,,,,,,,,,,,,,,,,628.710894000018,None,,,,,,,,,,,,,,,,,entrance,7,3,sing,old,yellow,624.0227604000247,None,624.0227604000247,None,6,2.281825200014282,624.0227604000247,None,2.281825200014282,626.3245689000178,None,626.8387572000211,None,626.8387572000211,None,r,1.849985300010303,626.8387572000211,None,1.849985300010303,,,127 S,001,2023_Sep_20_1729,ProdSingRedoBetween,2021.2.3,59.94901936005703,
,,,,3,0,3,0,,,,,,,,,,,,,,,,,,,,,,633.581015600008,None,,,,,,,,,,,,,,,,,surprise,89,4,sing,old,red,629.230979200016,None,629.230979200016,None,1,2.1535583999939263,629.230979200016,None,2.1535583999939263,631.4213825000043,None,631.9298775000207,None,631.9298775000207,None,n,1.622488399996655,631.9298775000207,None,1.622488399996655,,,127 S,001,2023_Sep_20_1729,ProdSingRedoBetween,2021.2.3,59.94901936005703,
,,,,4,0,4,0,,,,,,,,,,,,,,,,,,,,,,637.451352300006,None,,,,,,,,,,,,,,,,,state,77,5,sing,old,red,634.0980613000283,None,634.0980613000283,None,1,1.9023001000168733,634.0980613000283,None,1.9023001000168733,636.0362328000192,None,636.5544556000095,None,636.5544556000095,None,n,0.8701050000090618,636.5544556000095,None,0.8701050000090618,,,127 S,001,2023_Sep_20_1729,ProdSingRedoBetween,2021.2.3,59.94901936005703,
,,,,5,0,5,0,,,,,,,,,,,,,,,,,,,,,,641.5540460000047,None,,,,,,,,,,,,,,,,,portion,32,6,sing,old,blue,637.9716737000272,None,637.9716737000272,None,6,1.964688899985049,637.9716737000272,None,1.964688899985049,639.9548563999997,None,640.4691779000277,None,640.4691779000277,None,r,1.0592831000103615,640.4691779000277,None,1.0592831000103615,,,127 S,001,2023_Sep_20_1729,ProdSingRedoBetween,2021.2.3,59.94901936005703,
,,,,6,0,6,0,,,,,,,,,,,,,,,,,,,,,,645.2917014000122,None,,,,,,,,,,,,,,,,,curve,134,7,sing,new,null,642.0566027000023,None,642.0566027000023,None,1,1.392084999999497,642.0566027000023,None,1.392084999999497,643.4884617000062,None,643.9943968000007,None,643.9943968000007,None,n,1.2780065999832004,643.9943968000007,None,1.2780065999832004,,,127 S,001,2023_Sep_20_1729,ProdSingRedoBetween,2021.2.3,59.94901936005703,
,,,,7,0,7,0,,,,,,,,,,,,,,,,,,,,,,648.6947666000051,None,,,,,,,,,,,,,,,,,straight,8,8,sing,old,yellow,645.7983411000168,None,645.7983411000168,None,6,1.3779887999990024,645.7983411000168,None,1.3779887999990024,647.1957794000045,None,647.7133533000015,None,647.7133533000015,None,r,0.9589716000191402,647.7133533000015,None,0.9589716000191402,,,127 S,001,2023_Sep_20_1729,ProdSingRedoBetween,2021.2.3,59.94901936005703,
,,,,8,0,8,0,,,,,,,,,,,,,,,,,,,,,,651.8323754000012,None,,,,,,,,,,,,,,,,,figure,172,9,sing,new,null,649.2001207000285,None,649.2001207000285,None,1,1.1921602000074927,649.2001207000285,None,1.1921602000074927,650.4158831000095,None,650.9328304000082,None,650.9328304000082,None,n,0.8675095999788027,650.9328304000082,None,0.8675095999788027,,,127 S,001,2023_Sep_20_1729,ProdSingRedoBetween,2021.2.3,59.94901936005703,
,,,,9,0,9,0,,,,,,,,,,,,,,,,,,,,,,655.2842717000167,None,,,,,,,,,,,,,,,,,medicine,38,10,sing,old,blue,652.3493342000002,None,652.3493342000002,None,6,1.4029646000126377,652.3493342000002,None,1.4029646000126377,653.784080500016,None,654.2998865000263,None,654.2998865000263,None,r,0.9564171000092756,654.2998865000263,None,0.9564171000092756,,,127 S,001,2023_Sep_20_1729,ProdSingRedoBetween,2021.2.3,59.94901936005703,
,,,,10,0,10,0,,,,,,,,,,,,,,,,,,,,,,659.3386887000233,None,,,,,,,,,,,,,,,,,council,88,11,sing,old,red,655.7873545000039,None,655.7873545000039,None,3,2.0369936999923084,655.7873545000039,None,2.0369936999923084,657.8557158000185,None,658.3705140000093,None,658.3705140000093,None,f,0.950071500003105,658.3705140000093,None,0.950071500003105,,,127 S,001,2023_Sep_20_1729,ProdSingRedoBetween,2021.2.3,59.94901936005703,
,,,,11,0,11,0,,,,,,,,,,,,,,,,,,,,,,663.4260578000103,None,,,,,,,,,,,,,,,,,growth,124,12,sing,new,null,659.8410281000251,None,659.8410281000251,None,3,2.367338500014739,659.8410281000251,None,2.367338500014739,662.2267058000143,None,662.7412730000215,None,662.7412730000215,None,f,0.6672341999947093,662.7412730000215,None,0.6672341999947093,,,127 S,001,2023_Sep_20_1729,ProdSingRedoBetween,2021.2.3,59.94901936005703,
,,,,12,0,12,0,,,,,,,,,,,,,,,,,,,,,,666.8310739000153,None,,,,,,,,,,,,,,,,,degree,104,13,sing,new,null,663.9273384000116,None,663.9273384000116,None,1,1.3850075999798719,663.9273384000116,None,1.3850075999798719,665.3297153000021,None,665.848642500001,None,665.848642500001,None,n,0.9598192000121344,665.848642500001,None,0.9598192000121344,,,127 S,001,2023_Sep_20_1729,ProdSingRedoBetween,2021.2.3,59.94901936005703,
,,,,13,0,13,0,,,,,,,,,,,,,,,,,,,,,,670.200336400012,None,,,,,,,,,,,,,,,,,guest,71,14,sing,old,red,667.3503100000089,None,667.3503100000089,None,6,1.2660700999840628,667.3503100000089,None,1.2660700999840628,668.653718400019,None,669.167205900012,None,669.167205900012,None,r,1.0011486999865156,669.167205900012,None,1.0011486999865156,,,127 S,001,2023_Sep_20_1729,ProdSingRedoBetween,2021.2.3,59.94901936005703,
,,,,14,0,14,0,,,,,,,,,,,,,,,,,,,,,,673.5204423000105,None,,,,,,,,,,,,,,,,,strain,123,15,sing,new,null,670.7173465000233,None,670.7173465000233,None,1,1.5153290000162087,670.7173465000233,None,1.5153290000162087,672.254574200022,None,672.7679139000247,None,672.7679139000247,None,n,0.7204755000129808,672.7679139000247,None,0.7204755000129808,,,127 S,001,2023_Sep_20_1729,ProdSingRedoBetween,2021.2.3,59.94901936005703,
,,,,15,0,15,0,,,,,,,,,,,,,,,,,,,,,,676.2869307000074,None,,,,,,,,,,,,,,,,,generation,133,16,sing,new,null,674.0264951000281,None,674.0264951000281,None,1,1.1658046999946237,674.0264951000281,None,1.1658046999946237,675.2228359000001,None,675.737542900024,None,675.737542900024,None,n,0.5029021000082139,675.737542900024,None,0.5029021000082139,,,127 S,001,2023_Sep_20_1729,ProdSingRedoBetween,2021.2.3,59.94901936005703,
,,,,16,0,16,0,,,,,,,,,,,,,,,,,,,,,,680.2596163000271,None,,,,,,,,,,,,,,,,,novel,78,17,sing,old,red,676.797255500016,None,676.797255500016,None,2,2.0914320000156295,676.797255500016,None,2.0914320000156295,678.9106636000215,None,679.4324568000156,None,679.4324568000156,None,f,0.8081144999887329,679.4324568000156,None,0.8081144999887329,,,127 S,001,2023_Sep_20_1729,ProdSingRedoBetween,2021.2.3,59.94901936005703,
,,,,17,0,17,0,,,,,,,,,,,,,,,,,,,,,,683.7293884000101,None,,,,,,,,,,,,,,,,,personnel,132,18,sing,new,null,680.7616388000024,None,680.7616388000024,None,1,1.4470121999911498,680.7616388000024,None,1.4470121999911498,682.231795700005,None,682.744528900017,None,682.744528900017,None,n,0.9677576000103727,682.744528900017,None,0.9677576000103727,,,127 S,001,2023_Sep_20_1729,ProdSingRedoBetween,2021.2.3,59.94901936005703,
,,,,18,0,18,0,,,,,,,,,,,,,,,,,,,,,,686.9663945000211,None,,,,,,,,,,,,,,,,,broad,54,19,sing,old,blue,684.2462521000125,None,684.2462521000125,None,6,1.282376999995904,684.2462521000125,None,1.282376999995904,685.5520718000189,None,686.064457600005,None,686.064457600005,None,r,0.8798864999844227,686.064457600005,None,0.8798864999844227,,,127 S,001,2023_Sep_20_1729,ProdSingRedoBetween,2021.2.3,59.94901936005703,
,,,,19,0,19,0,,,,,,,,,,,,,,,,,,,,,,690.1185107000056,None,,,,,,,,,,,,,,,,,display,11,20,sing,old,yellow,687.4887467000226,None,687.4887467000226,None,1,1.1516115000122227,687.4887467000226,None,1.1516115000122227,688.6743478999997,None,689.1849036000203,None,689.1849036000203,None,n,0.9034288999973796,689.1849036000203,None,0.9034288999973796,,,127 S,001,2023_Sep_20_1729,ProdSingRedoBetween,2021.2.3,59.94901936005703,
,,,,20,0,20,0,,,,,,,,,,,,,,,,,,,,,,692.8399954000197,None,,,,,,,,,,,,,,,,,universal,145,21,sing,new,null,690.6227174000232,None,690.6227174000232,None,1,1.0976484999991953,690.6227174000232,None,1.0976484999991953,691.7412426000228,None,692.2640478000103,None,692.2640478000103,None,n,0.552376900013769,692.2640478000103,None,0.552376900013769,,,127 S,001,2023_Sep_20_1729,ProdSingRedoBetween,2021.2.3,59.94901936005703,
,,,,21,0,21,0,,,,,,,,,,,,,,,,,,,,,,696.1084145000204,None,,,,,,,,,,,,,,,,,bright,68,22,sing,old,red,693.3576184000121,None,693.3576184000121,None,6,1.162736899976153,693.3576184000121,None,1.162736899976153,694.5424099000229,None,695.0569677000167,None,695.0569677000167,None,r,1.0233218999928795,695.0569677000167,None,1.0233218999928795,,,127 S,001,2023_Sep_20_1729,ProdSingRedoBetween,2021.2.3,59.94901936005703,
,,,,22,0,22,0,,,,,,,,,,,,,,,,,,,,,,698.8292809000122,None,,,,,,,,,,,,,,,,,republic,58,23,sing,old,blue,696.6120993000222,None,696.6120993000222,None,6,1.2282307999848854,696.6120993000222,None,1.2282307999848854,697.8633335000195,None,698.3796015000262,None,698.3796015000262,None,r,0.4290337999991607,698.3796015000262,None,0.4290337999991607,,,127 S,001,2023_Sep_20_1729,ProdSingRedoBetween,2021.2.3,59.94901936005703,
,,,,23,0,23,0,,,,,,,,,,,,,,,,,,,,,,701.8313652000215,None,,,,,,,,,,,,,,,,,collection,135,24,sing,new,null,699.3456519000174,None,699.3456519000174,None,1,1.1026891999936197,699.3456519000174,None,1.1026891999936197,700.4814984000113,None,700.9965303000063,None,700.9965303000063,None,n,0.8118100999854505,700.9965303000063,None,0.8118100999854505,,,127 S,001,2023_Sep_20_1729,ProdSingRedoBetween,2021.2.3,59.94901936005703,
,,,,24,0,24,0,,,,,,,,,,,,,,,,,,,,,,705.0677547000232,None,,,,,,,,,,,,,,,,,whole,10,25,sing,old,yellow,702.334327700024,None,702.334327700024,None,6,1.2580289999896195,702.334327700024,None,1.2580289999896195,703.6198161000211,None,704.132502100023,None,704.132502100023,None,r,0.9161174999899231,704.132502100023,None,0.9161174999899231,,,127 S,001,2023_Sep_20_1729,ProdSingRedoBetween,2021.2.3,59.94901936005703,
,,,,25,0,25,0,,,,,,,,,,,,,,,,,,,,,,707.8205760000274,None,,,,,,,,,,,,,,,,,debate,163,26,sing,new,null,705.5742783000169,None,705.5742783000169,None,1,1.1061995000054594,705.5742783000169,None,1.1061995000054594,706.7044238000235,None,707.2191485000076,None,707.2191485000076,None,n,0.5815507999795955,707.2191485000076,None,0.5815507999795955,,,127 S,001,2023_Sep_20_1729,ProdSingRedoBetween,2021.2.3,59.94901936005703,
,,,,26,0,26,0,,,,,,,,,,,,,,,,,,,,,,711.057197600021,None,,,,,,,,,,,,,,,,,country,74,27,sing,old,red,708.3234451000171,None,708.3234451000171,None,6,1.572871300013503,708.3234451000171,None,1.572871300013503,709.9250175000052,None,710.439594000025,None,710.439594000025,None,r,0.5927695000136737,710.439594000025,None,0.5927695000136737,,,127 S,001,2023_Sep_20_1729,ProdSingRedoBetween,2021.2.3,59.94901936005703,
,,,,27,0,27,0,,,,,,,,,,,,,,,,,,,,,,714.4790227000194,None,,,,,,,,,,,,,,,,,power,48,28,sing,old,blue,711.5596106000012,None,711.5596106000012,None,2,1.6407532999874093,711.5596106000012,None,1.6407532999874093,713.2346338000207,None,713.7502505000157,None,713.7502505000157,None,f,0.6981383000093047,713.7502505000157,None,0.6981383000093047,,,127 S,001,2023_Sep_20_1729,ProdSingRedoBetween,2021.2.3,59.94901936005703,
,,,,28,0,28,0,,,,,,,,,,,,,,,,,,,,,,718.830856000015,None,,,,,,,,,,,,,,,,,thick,65,29,sing,old,red,714.9979229000164,None,714.9979229000164,None,2,2.474534200009657,714.9979229000164,None,2.474534200009657,717.5037546000094,None,718.0136042000086,None,718.0136042000086,None,f,0.7869000000064261,718.0136042000086,None,0.7869000000064261,,,127 S,001,2023_Sep_20_1729,ProdSingRedoBetween,2021.2.3,59.94901936005703,
,,,,29,0,29,0,,,,,,,,,,,,,,,,,,,,,,722.1853135000274,None,,,,,,,,,,,,,,,,,tennis,166,30,sing,new,null,719.3339204000076,None,719.3339204000076,None,1,1.474496300012106,719.3339204000076,None,1.474496300012106,720.8436527000158,None,721.3499785000167,None,721.3499785000167,None,n,0.8103484000021126,721.3499785000167,None,0.8103484000021126,,,127 S,001,2023_Sep_20_1729,ProdSingRedoBetween,2021.2.3,59.94901936005703,
,,,,30,0,30,0,,,,,,,,,,,,,,,,,,,,,,725.3044777000032,None,,,,,,,,,,,,,,,,,defeat,105,31,sing,new,null,722.6868596000131,None,722.6868596000131,None,1,1.4575354999979027,722.6868596000131,None,1.4575354999979027,724.1726403000066,None,724.6879888000258,None,724.6879888000258,None,n,0.5844367999816313,724.6879888000258,None,0.5844367999816313,,,127 S,001,2023_Sep_20_1729,ProdSingRedoBetween,2021.2.3,59.94901936005703,
,,,,31,0,31,0,,,,,,,,,,,,,,,,,,,,,,728.8596842000261,None,,,,,,,,,,,,,,,,,space,141,32,sing,new,null,725.8123314000259,None,725.8123314000259,None,1,1.5719883000128902,725.8123314000259,None,1.5719883000128902,727.4084649000142,None,727.9230340000067,None,727.9230340000067,None,n,0.9175729999842588,727.9230340000067,None,0.9175729999842588,,,127 S,001,2023_Sep_20_1729,ProdSingRedoBetween,2021.2.3,59.94901936005703,
,,,,32,0,32,0,,,,,,,,,,,,,,,,,,,,,,735.2810903000063,None,,,,,,,,,,,,,,,,,danger,149,33,sing,new,null,729.3767536000232,None,729.3767536000232,None,1,4.647583700018004,729.3767536000232,None,4.647583700018004,734.047946000006,None,734.5632162000111,None,734.5632162000111,None,n,0.6931334999972023,734.5632162000111,None,0.6931334999972023,,,127 S,001,2023_Sep_20_1729,ProdSingRedoBetween,2021.2.3,59.94901936005703,
,,,,33,0,33,0,,,,,,,,,,,,,,,,,,,,,,738.4841510000115,None,,,,,,,,,,,,,,,,,population,87,34,sing,old,red,735.7836836000206,None,735.7836836000206,None,6,1.4246306999993976,735.7836836000206,None,1.4246306999993976,737.2353969000105,None,737.7500479000155,None,737.7500479000155,None,r,0.7062455000123009,737.7500479000155,None,0.7062455000123009,,,127 S,001,2023_Sep_20_1729,ProdSingRedoBetween,2021.2.3,59.94901936005703,
,,,,34,0,34,0,,,,,,,,,,,,,,,,,,,,,,741.8535261000216,None,,,,,,,,,,,,,,,,,property,0,35,sing,old,yellow,738.9885041000089,None,738.9885041000089,None,3,1.827784100023564,738.9885041000089,None,1.827784100023564,740.840751700016,None,741.3534864000103,None,741.3534864000103,None,f,0.47883989999536425,741.3534864000103,None,0.47883989999536425,,,127 S,001,2023_Sep_20_1729,ProdSingRedoBetween,2021.2.3,59.94901936005703,
,,,,35,0,35,0,,,,,,,,,,,,,,,,,,,,,,745.0406435000186,None,,,,,,,,,,,,,,,,,hunger,23,36,sing,old,yellow,742.3562281000195,None,742.3562281000195,None,3,1.692138000013074,742.3562281000195,None,1.692138000013074,744.0745604000113,None,744.589866400027,None,744.589866400027,None,f,0.43451600000844337,744.589866400027,None,0.43451600000844337,,,127 S,001,2023_Sep_20_1729,ProdSingRedoBetween,2021.2.3,59.94901936005703,
,,,,36,0,36,0,,,,,,,,,,,,,,,,,,,,,,748.6278216000064,None,,,,,,,,,,,,,,,,,tough,84,37,sing,old,red,745.542535000015,None,745.542535000015,None,2,2.0737890000164043,745.542535000015,None,2.0737890000164043,747.6466504000127,None,748.1597664000001,None,748.1597664000001,None,f,0.4487632999953348,748.1597664000001,None,0.4487632999953348,,,127 S,001,2023_Sep_20_1729,ProdSingRedoBetween,2021.2.3,59.94901936005703,
,,,,37,0,37,0,,,,,,,,,,,,,,,,,,,,,,751.4640617000114,None,,,,,,,,,,,,,,,,,welcome,93,38,sing,new,null,749.1308992000122,None,749.1308992000122,None,1,1.1655191000027116,749.1308992000122,None,1.1655191000027116,750.3208220000088,None,750.834047500015,None,750.834047500015,None,n,0.6062705000222195,750.834047500015,None,0.6062705000222195,,,127 S,001,2023_Sep_20_1729,ProdSingRedoBetween,2021.2.3,59.94901936005703,
,,,,38,0,38,0,,,,,,,,,,,,,,,,,,,,,,755.2013524000067,None,,,,,,,,,,,,,,,,,second,44,39,sing,old,blue,751.9665509000188,None,751.9665509000188,None,1,2.0097987000190187,751.9665509000188,None,2.0097987000190187,754.0020896000206,None,754.5182205000019,None,754.5182205000019,None,n,0.6661290999909397,754.5182205000019,None,0.6661290999909397,,,127 S,001,2023_Sep_20_1729,ProdSingRedoBetween,2021.2.3,59.94901936005703,
,,,,39,0,39,0,,,,,,,,,,,,,,,,,,,,,,758.0869293000142,None,,,,,,,,,,,,,,,,,century,76,40,sing,old,red,755.7078218000242,None,755.7078218000242,None,6,1.388519300002372,755.7078218000242,None,1.388519300002372,757.1221976000234,None,757.6360533000261,None,757.6360533000261,None,r,0.4203556000138633,757.6360533000261,None,0.4203556000138633,,,127 S,001,2023_Sep_20_1729,ProdSingRedoBetween,2021.2.3,59.94901936005703,
,,,,40,0,40,0,,,,,,,,,,,,,,,,,,,,,,760.9566942000238,None,,,,,,,,,,,,,,,,,region,14,41,sing,old,yellow,758.5887706000067,None,758.5887706000067,None,6,1.3875877999817021,758.5887706000067,None,1.3875877999817021,760.0073820000107,None,760.5222918000072,None,760.5222918000072,None,r,0.4059965999913402,760.5222918000072,None,0.4059965999913402,,,127 S,001,2023_Sep_20_1729,ProdSingRedoBetween,2021.2.3,59.94901936005703,
,,,,41,0,41,0,,,,,,,,,,,,,,,,,,,,,,763.6094225000124,None,,,,,,,,,,,,,,,,,guide,73,42,sing,old,red,761.4584858000162,None,761.4584858000162,None,6,1.1578885999915656,761.4584858000162,None,1.1578885999915656,762.6431619000214,None,763.158345600008,None,763.158345600008,None,r,0.43403269999544136,763.158345600008,None,0.43403269999544136,,,127 S,001,2023_Sep_20_1729,ProdSingRedoBetween,2021.2.3,59.94901936005703,
,,,,42,0,42,0,,,,,,,,,,,,,,,,,,,,,,766.263580400002,None,,,,,,,,,,,,,,,,,agency,139,43,sing,new,null,764.1160379000066,None,764.1160379000066,None,1,1.1649030999979004,764.1160379000066,None,1.1649030999979004,765.3204370000167,None,765.833102500008,None,765.833102500008,None,n,0.4072491999831982,765.833102500008,None,0.4072491999831982,,,127 S,001,2023_Sep_20_1729,ProdSingRedoBetween,2021.2.3,59.94901936005703,
,,,,43,0,43,0,,,,,,,,,,,,,,,,,,,,,,769.2014245000028,None,,,,,,,,,,,,,,,,,season,85,44,sing,old,red,766.78121440002,None,766.78121440002,None,2,1.579097699985141,766.78121440002,None,1.579097699985141,768.3855966000119,None,768.9020237000077,None,768.9020237000077,None,f,0.2743760999874212,768.9020237000077,None,0.2743760999874212,,,127 S,001,2023_Sep_20_1729,ProdSingRedoBetween,2021.2.3,59.94901936005703,
,,,,44,0,44,0,,,,,,,,,,,,,,,,,,,,,,772.7676396000024,None,,,,,,,,,,,,,,,,,order,18,45,sing,old,yellow,769.7209548000246,None,769.7209548000246,None,4,1.7513195000065025,769.7209548000246,None,1.7513195000065025,771.5016137000057,None,772.0170716000139,None,772.0170716000139,None,f,0.7352422999974806,772.0170716000139,None,0.7352422999974806,,,127 S,001,2023_Sep_20_1729,ProdSingRedoBetween,2021.2.3,59.94901936005703,
,,,,45,0,45,0,,,,,,,,,,,,,,,,,,,,,,775.7742402000003,None,,,,,,,,,,,,,,,,,suspect,160,46,sing,new,null,773.2710534000071,None,773.2710534000071,None,1,1.6172779999906197,773.2710534000071,None,1.6172779999906197,774.90673040002,None,775.4224538000126,None,775.4224538000126,None,n,0.33013479999499395,775.4224538000126,None,0.33013479999499395,,,127 S,001,2023_Sep_20_1729,ProdSingRedoBetween,2021.2.3,59.94901936005703,
,,,,46,0,46,0,,,,,,,,,,,,,,,,,,,,,,778.3905988000042,None,,,,,,,,,,,,,,,,,angle,138,47,sing,new,null,776.2929316000082,None,776.2929316000082,None,1,1.243352000019513,776.2929316000082,None,1.243352000019513,777.5602328000241,None,778.0732688000135,None,778.0732688000135,None,n,0.2870767999847885,778.0732688000135,None,0.2870767999847885,,,127 S,001,2023_Sep_20_1729,ProdSingRedoBetween,2021.2.3,59.94901936005703,
,,,,47,0,47,0,,,,,,,,,,,,,,,,,,,,,,781.0951417000033,None,,,,,,,,,,,,,,,,,suggestion,171,48,sing,new,null,778.8932788000093,None,778.8932788000093,None,1,1.3473553000076208,778.8932788000093,None,1.3473553000076208,780.2660056000168,None,780.7758824000193,None,780.7758824000193,None,n,0.2884562000108417,780.7758824000193,None,0.2884562000108417,,,127 S,001,2023_Sep_20_1729,ProdSingRedoBetween,2021.2.3,59.94901936005703,
,,,,48,0,48,0,,,,,,,,,,,,,,,,,,,,,,784.2646950000199,None,,,,,,,,,,,,,,,,,sleep,19,49,sing,old,yellow,781.6241656000202,None,781.6241656000202,None,3,1.6881179999909364,781.6241656000202,None,1.6881179999909364,783.3314195000276,None,783.8456938000163,None,783.8456938000163,None,f,0.39453339998726733,783.8456938000163,None,0.39453339998726733,,,127 S,001,2023_Sep_20_1729,ProdSingRedoBetween,2021.2.3,59.94901936005703,
,,,,49,0,49,0,,,,,,,,,,,,,,,,,,,,,,786.9825861000281,None,,,,,,,,,,,,,,,,,month,158,50,sing,new,null,784.7813134000171,None,784.7813134000171,None,1,1.3710390999913216,784.7813134000171,None,1.3710390999913216,786.1841045000183,None,786.6983804000192,None,786.6983804000192,None,n,0.2540026999777183,786.6983804000192,None,0.2540026999777183,,,127 S,001,2023_Sep_20_1729,ProdSingRedoBetween,2021.2.3,59.94901936005703,
,,,,50,0,50,0,,,,,,,,,,,,,,,,,,,,,,789.8535847000021,None,,,,,,,,,,,,,,,,,report,92,51,sing,new,null,787.4857890000276,None,787.4857890000276,None,1,1.530492999998387,787.4857890000276,None,1.530492999998387,789.0367465000018,None,789.5543260000122,None,789.5543260000122,None,n,0.27807560001383536,789.5543260000122,None,0.27807560001383536,,,127 S,001,2023_Sep_20_1729,ProdSingRedoBetween,2021.2.3,59.94901936005703,
,,,,51,0,51,0,,,,,,,,,,,,,,,,,,,,,,794.7086362000264,None,,,,,,,,,,,,,,,,,pressure,115,52,sing,new,null,790.370401400025,None,790.370401400025,None,3,3.485896199999843,790.370401400025,None,3.485896199999843,793.8749516000098,None,794.3894028000068,None,794.3894028000068,None,f,0.2990412000217475,794.3894028000068,None,0.2990412000217475,,,127 S,001,2023_Sep_20_1729,ProdSingRedoBetween,2021.2.3,59.94901936005703,
,,,,52,0,52,0,,,,,,,,,,,,,,,,,,,,,,797.0092990000267,None,,,,,,,,,,,,,,,,,block,169,53,sing,new,null,795.2255848000059,None,795.2255848000059,None,1,1.0228012000152376,795.2255848000059,None,1.0228012000152376,796.2807939000195,None,796.791807600006,None,796.791807600006,None,n,0.19258840000838973,796.791807600006,None,0.19258840000838973,,,127 S,001,2023_Sep_20_1729,ProdSingRedoBetween,2021.2.3,59.94901936005703,
,,,,53,0,53,0,,,,,,,,,,,,,,,,,,,,,,799.6286277000036,None,,,,,,,,,,,,,,,,,literature,117,54,sing,new,null,797.5245669000142,None,797.5245669000142,None,1,1.2437696999986656,797.5245669000142,None,1.2437696999986656,798.8111184000154,None,799.311276500026,None,799.311276500026,None,n,0.2969860000011977,799.311276500026,None,0.2969860000011977,,,127 S,001,2023_Sep_20_1729,ProdSingRedoBetween,2021.2.3,59.94901936005703,
,,,,54,0,54,0,,,,,,,,,,,,,,,,,,,,,,802.6147448000265,None,,,,,,,,,,,,,,,,,sound,51,55,sing,old,blue,800.1305575000006,None,800.1305575000006,None,6,1.2858616999874357,800.1305575000006,None,1.2858616999874357,801.4482079000154,None,801.963648600009,None,801.963648600009,None,r,0.6207040000008419,801.963648600009,None,0.6207040000008419,,,127 S,001,2023_Sep_20_1729,ProdSingRedoBetween,2021.2.3,59.94901936005703,
,,,,55,0,55,0,,,,,,,,,,,,,,,,,,,,,,806.1181134000071,None,,,,,,,,,,,,,,,,,union,111,56,sing,new,null,803.1170468000055,None,803.1170468000055,None,2,2.37928799999645,803.1170468000055,None,2.37928799999645,805.5197566999996,None,806.035142800014,None,806.035142800014,None,f,0.053204600000754,806.035142800014,None,0.053204600000754,,,127 S,001,2023_Sep_20_1729,ProdSingRedoBetween,2021.2.3,59.94901936005703,
,,,,56,0,56,0,,,,,,,,,,,,,,,,,,,,,,809.3058104000229,None,,,,,,,,,,,,,,,,,pretty,100,57,sing,new,null,806.6207925000053,None,806.6207925000053,None,1,1.363723900023615,806.6207925000053,None,1.363723900023615,808.0077056000009,None,808.5253181000007,None,808.5253181000007,None,n,0.7630069000006188,808.5253181000007,None,0.7630069000006188,,,127 S,001,2023_Sep_20_1729,ProdSingRedoBetween,2021.2.3,59.94901936005703,
,,,,57,0,57,0,,,,,,,,,,,,,,,,,,,,,,812.0910470000235,None,,,,,,,,,,,,,,,,,afternoon,144,58,sing,new,null,809.8079528000089,None,809.8079528000089,None,1,1.4084440000005998,809.8079528000089,None,1.4084440000005998,811.2479410000087,None,811.7564229000127,None,811.7564229000127,None,n,0.30799450000631623,811.7564229000127,None,0.30799450000631623,,,127 S,001,2023_Sep_20_1729,ProdSingRedoBetween,2021.2.3,59.94901936005703,
,,,,58,0,58,0,,,,,,,,,,,,,,,,,,,,,,814.2600821000233,None,,,,,,,,,,,,,,,,,signal,106,59,sing,new,null,812.5937432000064,None,812.5937432000064,None,1,1.054524399980437,812.5937432000064,None,1.054524399980437,813.6797039000085,None,814.1924387000035,None,814.1924387000035,None,n,0.03984039998613298,814.1924387000035,None,0.03984039998613298,,,127 S,001,2023_Sep_20_1729,ProdSingRedoBetween,2021.2.3,59.94901936005703,
,,,,59,0,59,0,,,,,,,,,,,,,,,,,,,,,,816.9305594000034,None,,,,,,,,,,,,,,,,,majority,79,60,sing,old,red,814.763597800018,None,814.763597800018,None,2,1.5887097000086214,814.763597800018,None,1.5887097000086214,816.3818374000257,None,816.895861500001,None,816.895861500001,None,f,0.01653459999943152,816.895861500001,None,0.01653459999943152,,,127 S,001,2023_Sep_20_1729,ProdSingRedoBetween,2021.2.3,59.94901936005703,
,,,,60,0,60,0,,,,,,,,,,,,,,,,,,,,,,820.4675038000278,None,,,,,,,,,,,,,,,,,guard,46,61,sing,old,blue,817.4463551000226,None,817.4463551000226,None,2,1.3139286000223365,817.4463551000226,None,1.3139286000223365,818.783960300003,None,819.2978194000025,None,819.2978194000025,None,f,1.1507983000192326,819.2978194000025,None,1.1507983000192326,,,127 S,001,2023_Sep_20_1729,ProdSingRedoBetween,2021.2.3,59.94901936005703,
,,,,61,0,61,0,,,,,,,,,,,,,,,,,,,,,,822.968861500005,None,,,,,,,,,,,,,,,,,story,159,62,sing,new,null,820.9843185000063,None,820.9843185000063,None,1,1.232115699996939,820.9843185000063,None,1.232115699996939,822.2362296000065,None,822.7516837000148,None,822.7516837000148,None,n,0.20072399999480695,822.7516837000148,None,0.20072399999480695,,,127 S,001,2023_Sep_20_1729,ProdSingRedoBetween,2021.2.3,59.94901936005703,
,,,,62,0,62,0,,,,,,,,,,,,,,,,,,,,,,825.3070369000197,None,,,,,,,,,,,,,,,,,attack,162,63,sing,new,null,823.4712469000078,None,823.4712469000078,None,1,1.1132738000014797,823.4712469000078,None,1.1132738000014797,824.6066865000175,None,825.133736000018,None,825.133736000018,None,n,0.1546284000214655,825.133736000018,None,0.1546284000214655,,,127 S,001,2023_Sep_20_1729,ProdSingRedoBetween,2021.2.3,59.94901936005703,
,,,,63,0,63,0,,,,,,,,,,,,,,,,,,,,,,830.3596822000109,None,,,,,,,,,,,,,,,,,department,129,64,sing,new,null,825.8346397000132,None,825.8346397000132,None,3,2.333665199985262,825.8346397000132,None,2.333665199985262,828.1944349000114,None,828.7077909000218,None,828.7077909000218,None,f,1.6285357999731787,828.7077909000218,None,1.6285357999731787,,,127 S,001,2023_Sep_20_1729,ProdSingRedoBetween,2021.2.3,59.94901936005703,
,,,,64,0,64,0,,,,,,,,,,,,,,,,,,,,,,832.8462077000004,None,,,,,,,,,,,,,,,,,partner,29,65,sing,old,blue,830.8616749000212,None,830.8616749000212,None,2,1.3308657000015955,830.8616749000212,None,1.3308657000015955,832.2136526000104,None,832.7277195000206,None,832.7277195000206,None,f,0.08861919998889789,832.7277195000206,None,0.08861919998889789,,,127 S,001,2023_Sep_20_1729,ProdSingRedoBetween,2021.2.3,59.94901936005703,
,,,,65,0,65,0,,,,,,,,,,,,,,,,,,,,,,836.4824652000098,None,,,,,,,,,,,,,,,,,answer,130,66,sing,new,null,833.3633878000255,None,833.3633878000255,None,1,1.1972992999944836,833.3633878000255,None,1.1972992999944836,834.5834425000066,None,835.0967390000005,None,835.0967390000005,None,n,1.3596341999946162,835.0967390000005,None,1.3596341999946162,,,127 S,001,2023_Sep_20_1729,ProdSingRedoBetween,2021.2.3,59.94901936005703,
,,,,66,0,66,0,,,,,,,,,,,,,,,,,,,,,,839.516521100013,None,,,,,,,,,,,,,,,,,disease,113,67,sing,new,null,836.9919901000103,None,836.9919901000103,None,1,1.9523088000132702,836.9919901000103,None,1.9523088000132702,838.9748666000087,None,839.4844225000124,None,839.4844225000124,None,n,0.003913599997758865,839.4844225000124,None,0.003913599997758865,,,127 S,001,2023_Sep_20_1729,ProdSingRedoBetween,2021.2.3,59.94901936005703,
,,,,67,0,67,0,,,,,,,,,,,,,,,,,,,,,,842.3860828000179,None,,,,,,,,,,,,,,,,,fellow,150,68,sing,new,null,840.0198078000103,None,840.0198078000103,None,1,1.5004648999893107,840.0198078000103,None,1.5004648999893107,841.5398654000019,None,842.0597224000085,None,842.0597224000085,None,n,0.284559799998533,842.0597224000085,None,0.284559799998533,,,127 S,001,2023_Sep_20_1729,ProdSingRedoBetween,2021.2.3,59.94901936005703,
,,,,68,0,68,0,,,,,,,,,,,,,,,,,,,,,,844.8570793000108,None,,,,,,,,,,,,,,,,,count,126,69,sing,new,null,842.8912004000158,None,842.8912004000158,None,1,1.2210675000096671,842.8912004000158,None,1.2210675000096671,844.1407922000217,None,844.6562567000219,None,844.6562567000219,None,n,0.1760503000114113,844.6562567000219,None,0.1760503000114113,,,127 S,001,2023_Sep_20_1729,ProdSingRedoBetween,2021.2.3,59.94901936005703,
,,,,69,0,69,0,,,,,,,,,,,,,,,,,,,,,,848.5780611000082,None,,,,,,,,,,,,,,,,,incident,40,70,sing,old,blue,845.3591805000033,None,845.3591805000033,None,2,1.6011499000014737,845.3591805000033,None,1.6011499000014737,846.977876000019,None,847.4925826000108,None,847.4925826000108,None,f,1.0678063999803271,847.4925826000108,None,1.0678063999803271,,,127 S,001,2023_Sep_20_1729,ProdSingRedoBetween,2021.2.3,59.94901936005703,
,,,,70,0,70,0,,,,,,,,,,,,,,,,,,,,,,851.1977407000086,None,,,,,,,,,,,,,,,,,throw,45,71,sing,old,blue,849.0801013000018,None,849.0801013000018,None,1,1.5362549999845214,849.0801013000018,None,1.5362549999845214,850.6475614000228,None,851.1626626000216,None,851.1626626000216,None,n,0.0057462000113446265,851.1626626000216,None,0.0057462000113446265,,,127 S,001,2023_Sep_20_1729,ProdSingRedoBetween,2021.2.3,59.94901936005703,
,,,,71,0,71,0,,,,,,,,,,,,,,,,,,,,,,853.8027927000076,None,,,,,,,,,,,,,,,,,escape,57,72,sing,old,blue,851.7046064000169,None,851.7046064000169,None,1,1.20801269999356,851.7046064000169,None,1.20801269999356,852.9337408000138,None,853.4504007000069,None,853.4504007000069,None,n,0.3259670000115875,853.4504007000069,None,0.3259670000115875,,,127 S,001,2023_Sep_20_1729,ProdSingRedoBetween,2021.2.3,59.94901936005703,
,,,,72,0,72,0,,,,,,,,,,,,,,,,,,,,,,856.9859037000278,None,,,,,,,,,,,,,,,,,design,83,73,sing,old,red,854.3176751999999,None,854.3176751999999,None,3,1.5786706999933813,854.3176751999999,None,1.5786706999933813,855.9206393000204,None,856.434793500026,None,856.434793500026,None,f,0.5336054000072181,856.434793500026,None,0.5336054000072181,,,127 S,001,2023_Sep_20_1729,ProdSingRedoBetween,2021.2.3,59.94901936005703,
,,,,73,0,73,0,,,,,,,,,,,,,,,,,,,,,,860.9713900000206,None,,,,,,,,,,,,,,,,,community,86,74,sing,old,red,857.4887086000235,None,857.4887086000235,None,5,2.519583799992688,857.4887086000235,None,2.519583799992688,860.0406706000213,None,860.5556867000123,None,860.5556867000123,None,f,0.3805821999849286,860.5556867000123,None,0.3805821999849286,,,127 S,001,2023_Sep_20_1729,ProdSingRedoBetween,2021.2.3,59.94901936005703,
,,,,74,0,74,0,,,,,,,,,,,,,,,,,,,,,,865.1134928000101,None,,,,,,,,,,,,,,,,,judge,33,75,sing,old,blue,861.4887252000044,None,861.4887252000044,None,2,2.2236405000148807,861.4887252000044,None,2.2236405000148807,863.7460323000269,None,864.2734616000089,None,864.2734616000089,None,f,0.8149249999842141,864.2734616000089,None,0.8149249999842141,,,127 S,001,2023_Sep_20_1729,ProdSingRedoBetween,2021.2.3,59.94901936005703,
,,,,75,0,75,0,,,,,,,,,,,,,,,,,,,,,,870.2657001000189,None,,,,,,,,,,,,,,,,,surface,15,76,sing,old,yellow,865.6292568000208,None,865.6292568000208,None,4,3.867189100012183,865.6292568000208,None,3.867189100012183,869.5174550000229,None,870.0316404000041,None,870.0316404000041,None,f,0.21681390001322143,870.0316404000041,None,0.21681390001322143,,,127 S,001,2023_Sep_20_1729,ProdSingRedoBetween,2021.2.3,59.94901936005703,
,,,,76,0,76,0,,,,,,,,,,,,,,,,,,,,,,872.8694575000263,None,,,,,,,,,,,,,,,,,rural,66,77,sing,old,red,870.7686458000098,None,870.7686458000098,None,6,1.4556939999747556,870.7686458000098,None,1.4556939999747556,872.252807700017,None,872.7677152000251,None,872.7677152000251,None,r,0.08054450000054203,872.7677152000251,None,0.08054450000054203,,,127 S,001,2023_Sep_20_1729,ProdSingRedoBetween,2021.2.3,59.94901936005703,
,,,,77,0,77,0,,,,,,,,,,,,,,,,,,,,,,876.6053378000215,None,,,,,,,,,,,,,,,,,travel,137,78,sing,new,null,873.3875153000117,None,873.3875153000117,None,1,1.3088098999869544,873.3875153000117,None,1.3088098999869544,874.7226325000229,None,875.2369330000074,None,875.2369330000074,None,n,1.3394094000104815,875.2369330000074,None,1.3394094000104815,,,127 S,001,2023_Sep_20_1729,ProdSingRedoBetween,2021.2.3,59.94901936005703,
,,,,78,0,78,0,,,,,,,,,,,,,,,,,,,,,,879.1918709000165,None,,,,,,,,,,,,,,,,,chief,125,79,sing,new,null,877.1077466000279,None,877.1077466000279,None,1,1.380761899985373,877.1077466000279,None,1.380761899985373,878.5097252000123,None,879.0261167999997,None,879.0261167999997,None,n,0.1422342000005301,879.0261167999997,None,0.1422342000005301,,,127 S,001,2023_Sep_20_1729,ProdSingRedoBetween,2021.2.3,59.94901936005703,
,,,,79,0,79,0,,,,,,,,,,,,,,,,,,,,,,881.617498800013,None,,,,,,,,,,,,,,,,,estate,153,80,sing,new,null,879.7098718000052,None,879.7098718000052,None,1,1.2827408000011928,879.7098718000052,None,1.2827408000011928,881.0161065000284,None,881.5287253000133,None,881.5287253000133,None,n,0.05583990001468919,881.5287253000133,None,0.05583990001468919,,,127 S,001,2023_Sep_20_1729,ProdSingRedoBetween,2021.2.3,59.94901936005703,
,,,,80,0,80,0,,,,,,,,,,,,,,,,,,,,,,885.9654291000043,None,,,,,,,,,,,,,,,,,relation,70,81,sing,old,red,882.1307834000036,None,882.1307834000036,None,2,1.7977118999988306,882.1307834000036,None,1.7977118999988306,883.9527879000234,None,884.4628252000257,None,884.4628252000257,None,f,1.4814331000088714,884.4628252000257,None,1.4814331000088714,,,127 S,001,2023_Sep_20_1729,ProdSingRedoBetween,2021.2.3,59.94901936005703,
,,,,81,0,81,0,,,,,,,,,,,,,,,,,,,,,,888.368649400014,None,,,,,,,,,,,,,,,,,company,151,82,sing,new,null,886.4734010000248,None,886.4734010000248,None,1,1.1428551000135485,886.4734010000248,None,1.1428551000135485,887.6356956000091,None,888.1604460000235,None,888.1604460000235,None,n,0.1839380000019446,888.1604460000235,None,0.1839380000019446,,,127 S,001,2023_Sep_20_1729,ProdSingRedoBetween,2021.2.3,59.94901936005703,
,,,,82,0,82,0,,,,,,,,,,,,,,,,,,,,,,890.8252253000101,None,,,,,,,,,,,,,,,,,shape,173,83,sing,new,null,888.8941730000079,None,888.8941730000079,None,1,1.1143126000242773,888.8941730000079,None,1.1143126000242773,890.0379847000004,None,890.5544884000265,None,890.5544884000265,None,n,0.23778310001944192,890.5544884000265,None,0.23778310001944192,,,127 S,001,2023_Sep_20_1729,ProdSingRedoBetween,2021.2.3,59.94901936005703,
,,,,83,0,83,0,,,,,,,,,,,,,,,,,,,,,,893.3403709000268,None,,,,,,,,,,,,,,,,,orchestra,9,84,sing,old,yellow,891.3403810000164,None,891.3403810000164,None,6,1.3319330999802332,891.3403810000164,None,1.3319330999802332,892.6962496000051,None,893.2101497000258,None,893.2101497000258,None,r,0.11036029999377206,893.2101497000258,None,0.11036029999377206,,,127 S,001,2023_Sep_20_1729,ProdSingRedoBetween,2021.2.3,59.94901936005703,
,,,,84,0,84,0,,,,,,,,,,,,,,,,,,,,,,896.3138188000012,None,,,,,,,,,,,,,,,,,frank,72,85,sing,old,red,893.8606659000216,None,893.8606659000216,None,2,1.8836447000212502,893.8606659000216,None,1.8836447000212502,895.7773433000257,None,896.2938067000068,None,896.2938067000068,None,f,0.002453099994454533,896.2938067000068,None,0.002453099994454533,,,127 S,001,2023_Sep_20_1729,ProdSingRedoBetween,2021.2.3,59.94901936005703,
,,,,85,0,85,0,,,,,,,,,,,,,,,,,,,,,,898.9950170000084,None,,,,,,,,,,,,,,,,,split,31,86,sing,old,blue,896.8309705000138,None,896.8309705000138,None,6,1.377432500012219,896.8309705000138,None,1.377432500012219,898.2319797000091,None,898.7465667000215,None,898.7465667000215,None,r,0.22991840000031516,898.7465667000215,None,0.22991840000031516,,,127 S,001,2023_Sep_20_1729,ProdSingRedoBetween,2021.2.3,59.94901936005703,
,,,,86,0,86,0,,,,,,,,,,,,,,,,,,,,,,902.4674934000068,None,,,,,,,,,,,,,,,,,broke,25,87,sing,old,yellow,899.50387830002,None,899.50387830002,None,2,2.032336000003852,899.50387830002,None,2.032336000003852,901.5657542000117,None,902.08146820002,None,902.08146820002,None,f,0.35896820001653396,902.08146820002,None,0.35896820001653396,,,127 S,001,2023_Sep_20_1729,ProdSingRedoBetween,2021.2.3,59.94901936005703,
,,,,87,0,87,0,,,,,,,,,,,,,,,,,,,,,,905.01748520002,None,,,,,,,,,,,,,,,,,clear,109,88,sing,new,null,902.9818687000079,None,902.9818687000079,None,1,1.3064909999957308,902.9818687000079,None,1.3064909999957308,904.3227125000267,None,904.8348898000258,None,904.8348898000258,None,n,0.1574384999985341,904.8348898000258,None,0.1574384999985341,,,127 S,001,2023_Sep_20_1729,ProdSingRedoBetween,2021.2.3,59.94901936005703,
,,,,88,0,88,0,,,,,,,,,,,,,,,,,,,,,,908.1540072000062,None,,,,,,,,,,,,,,,,,thing,107,89,sing,new,null,905.528576200013,None,905.528576200013,None,1,1.5036125000042375,905.528576200013,None,1.5036125000042375,907.0540187000006,None,907.5695329000009,None,907.5695329000009,None,n,0.5588166000088677,907.5695329000009,None,0.5588166000088677,,,127 S,001,2023_Sep_20_1729,ProdSingRedoBetween,2021.2.3,59.94901936005703,
,,,,89,0,89,0,,,,,,,,,,,,,,,,,,,,,,912.5591206000245,None,,,,,,,,,,,,,,,,,general,127,90,sing,new,null,908.6553422000143,None,908.6553422000143,None,3,1.5369774000137113,908.6553422000143,None,1.5369774000137113,910.225772500009,None,910.7389837000228,None,910.7389837000228,None,f,1.789463599998271,910.7389837000228,None,1.789463599998271,,,127 S,001,2023_Sep_20_1729,ProdSingRedoBetween,2021.2.3,59.94901936005703,
,,,,90,0,90,0,,,,,,,,,,,,,,,,,,,,,,916.1623115000257,None,,,,,,,,,,,,,,,,,edition,27,91,sing,old,yellow,913.0627057000238,None,913.0627057000238,None,6,2.225506700022379,913.0627057000238,None,2.225506700022379,915.3153253000055,None,915.8280247000221,None,915.8280247000221,None,r,0.3163312000106089,915.8280247000221,None,0.3163312000106089,,,127 S,001,2023_Sep_20_1729,ProdSingRedoBetween,2021.2.3,59.94901936005703,
,,,,91,0,91,0,,,,,,,,,,,,,,,,,,,,,,918.4974053000042,None,,,,,,,,,,,,,,,,,foundation,35,92,sing,old,blue,916.6642541000037,None,916.6642541000037,None,6,1.2400639999832492,916.6642541000037,None,1.2400639999832492,917.9318051000009,None,918.4470245000266,None,918.4470245000266,None,r,0.02532360001350753,918.4470245000266,None,0.02532360001350753,,,127 S,001,2023_Sep_20_1729,ProdSingRedoBetween,2021.2.3,59.94901936005703,
,,,,92,0,92,0,,,,,,,,,,,,,,,,,,,,,,921.9676851000113,None,,,,,,,,,,,,,,,,,individual,161,93,sing,new,null,918.9999806000269,None,918.9999806000269,None,1,2.0562404000083916,918.9999806000269,None,2.0562404000083916,921.0973333000147,None,921.6009423000214,None,921.6009423000214,None,n,0.33534920000238344,921.6009423000214,None,0.33534920000238344,,,127 S,001,2023_Sep_20_1729,ProdSingRedoBetween,2021.2.3,59.94901936005703,
,,,,93,0,93,0,,,,,,,,,,,,,,,,,,,,,,925.3212188000034,None,,,,,,,,,,,,,,,,,quantity,17,94,sing,old,yellow,922.4708603000036,None,922.4708603000036,None,6,1.3934653000032995,922.4708603000036,None,1.3934653000032995,923.8889650000201,None,924.4027826000238,None,924.4027826000238,None,r,0.901610900007654,924.4027826000238,None,0.901610900007654,,,127 S,001,2023_Sep_20_1729,ProdSingRedoBetween,2021.2.3,59.94901936005703,
,,,,94,0,94,0,,,,,,,,,,,,,,,,,,,,,,927.4227456000226,None,,,,,,,,,,,,,,,,,goose,1,95,sing,old,yellow,925.823232900002,None,925.823232900002,None,6,0.7370295999862719,925.823232900002,None,0.7370295999862719,926.5908896000183,None,927.1052268000203,None,927.1052268000203,None,r,0.28713980002794415,927.1052268000203,None,0.28713980002794415,,,127 S,001,2023_Sep_20_1729,ProdSingRedoBetween,2021.2.3,59.94901936005703,
,,,,95,0,95,0,,,,,,,,,,,,,,,,,,,,,,930.690973800025,None,,,,,,,,,,,,,,,,,conference,131,96,sing,new,null,927.9317368000047,None,927.9317368000047,None,1,2.1247398999985307,927.9317368000047,None,2.1247398999985307,930.0779254000227,None,930.5924538000254,None,930.5924538000254,None,n,0.06420960000832565,930.5924538000254,None,0.06420960000832565,,,127 S,001,2023_Sep_20_1729,ProdSingRedoBetween,2021.2.3,59.94901936005703,
,,,,96,0,96,0,,,,,,,,,,,,,,,,,,,,,,935.1476138000144,None,,,,,,,,,,,,,,,,,institute,64,97,sing,old,red,931.2017446000245,None,931.2017446000245,None,1,2.4465393999998923,931.2017446000245,None,2.4465393999998923,933.6814664000121,None,934.1960058000113,None,934.1960058000113,None,n,0.9326072999974713,934.1960058000113,None,0.9326072999974713,,,127 S,001,2023_Sep_20_1729,ProdSingRedoBetween,2021.2.3,59.94901936005703,
,,,,97,0,97,0,,,,,,,,,,,,,,,,,,,,,,938.0009975000285,None,,,,,,,,,,,,,,,,,message,63,98,sing,old,red,935.650752800022,None,935.650752800022,None,6,1.4695569000032265,935.650752800022,None,1.4695569000032265,937.1523096000019,None,937.6659702000034,None,937.6659702000034,None,r,0.30247560000861995,937.6659702000034,None,0.30247560000861995,,,127 S,001,2023_Sep_20_1729,ProdSingRedoBetween,2021.2.3,59.94901936005703,
,,,,98,0,98,0,,,,,,,,,,,,,,,,,,,,,,940.9687507000053,None,,,,,,,,,,,,,,,,,voice,12,99,sing,old,yellow,938.515544200025,None,938.515544200025,None,6,1.1647587000043131,938.515544200025,None,1.1647587000043131,939.7042407000263,None,940.2190915000101,None,940.2190915000101,None,r,0.7097007000120357,940.2190915000101,None,0.7097007000120357,,,127 S,001,2023_Sep_20_1729,ProdSingRedoBetween,2021.2.3,59.94901936005703,
,,,,99,0,99,0,,,,,,,,,,,,,,,,,,,,,,944.3396427000116,None,,,,,,,,,,,,,,,,,oxygen,121,100,sing,new,null,941.4764352000202,None,941.4764352000202,None,1,1.3078617999854032,941.4764352000202,None,1.3078617999854032,942.8064713000203,None,943.3221110000159,None,943.3221110000159,None,n,0.9984765999834053,943.3221110000159,None,0.9984765999834053,,,127 S,001,2023_Sep_20_1729,ProdSingRedoBetween,2021.2.3,59.94901936005703,
,,,,100,0,100,0,,,,,,,,,,,,,,,,,,,,,,948.0939228000061,None,,,,,,,,,,,,,,,,,beauty,49,101,sing,old,blue,944.8476625000185,None,944.8476625000185,None,2,1.1287357999826781,944.8476625000185,None,1.1287357999826781,946.0105412000266,None,946.5247555000242,None,946.5247555000242,None,f,1.5475482000038028,946.5247555000242,None,1.5475482000038028,,,127 S,001,2023_Sep_20_1729,ProdSingRedoBetween,2021.2.3,59.94901936005703,
,,,,101,0,101,0,,,,,,,,,,,,,,,,,,,,,,950.5147637000191,None,,,,,,,,,,,,,,,,,primary,140,102,sing,new,null,948.5965584000223,None,948.5965584000223,None,1,1.235810100013623,948.5965584000223,None,1.235810100013623,949.8633818000089,None,950.3787629000144,None,950.3787629000144,None,n,0.10960710002109408,950.3787629000144,None,0.10960710002109408,,,127 S,001,2023_Sep_20_1729,ProdSingRedoBetween,2021.2.3,59.94901936005703,
,,,,102,0,102,0,,,,,,,,,,,,,,,,,,,,,,953.3332387000264,None,,,,,,,,,,,,,,,,,center,61,103,sing,old,red,951.0303487000056,None,951.0303487000056,None,1,0.9059150000102818,951.0303487000056,None,0.9059150000102818,951.9676582000102,None,952.4832653000194,None,952.4832653000194,None,n,0.8210689999978058,952.4832653000194,None,0.8210689999978058,,,127 S,001,2023_Sep_20_1729,ProdSingRedoBetween,2021.2.3,59.94901936005703,
,,,,103,0,103,0,,,,,,,,,,,,,,,,,,,,,,956.5524170999997,None,,,,,,,,,,,,,,,,,write,99,104,sing,new,null,953.8377013000136,None,953.8377013000136,None,1,2.1467184999783058,953.8377013000136,None,2.1467184999783058,956.008251900028,None,956.5181766000169,None,956.5181766000169,None,n,0.018153199984226376,956.5181766000169,None,0.018153199984226376,,,127 S,001,2023_Sep_20_1729,ProdSingRedoBetween,2021.2.3,59.94901936005703,
,,,,104,0,104,0,,,,,,,,,,,,,,,,,,,,,,958.9660807000182,None,,,,,,,,,,,,,,,,,question,90,105,sing,new,null,957.0557376000215,None,957.0557376000215,None,1,1.2885468000022229,957.0557376000215,None,1.2885468000022229,958.372723700013,None,958.8934454000264,None,958.8934454000264,None,n,0.04350420000264421,958.8934454000264,None,0.04350420000264421,,,127 S,001,2023_Sep_20_1729,ProdSingRedoBetween,2021.2.3,59.94901936005703,
,,,,105,0,105,0,,,,,,,,,,,,,,,,,,,,,,962.0741914000246,None,,,,,,,,,,,,,,,,,congress,119,106,sing,new,null,959.4812700000184,None,959.4812700000184,None,2,1.1110278000123799,959.4812700000184,None,1.1110278000123799,960.6246952000074,None,961.1393048000173,None,961.1393048000173,None,f,0.9172396000067238,961.1393048000173,None,0.9172396000067238,,,127 S,001,2023_Sep_20_1729,ProdSingRedoBetween,2021.2.3,59.94901936005703,
,,,,106,0,106,0,,,,,,,,,,,,,,,,,,,,,,965.2275884000119,None,,,,,,,,,,,,,,,,,division,120,107,sing,new,null,962.5769186000107,None,962.5769186000107,None,2,1.5113918000133708,962.5769186000107,None,1.5113918000133708,964.113889500004,None,964.6268978000153,None,964.6268978000153,None,f,0.5734132000070531,964.6268978000153,None,0.5734132000070531,,,127 S,001,2023_Sep_20_1729,ProdSingRedoBetween,2021.2.3,59.94901936005703,
,,,,107,0,107,0,,,,,,,,,,,,,,,,,,,,,,967.7309623000037,None,,,,,,,,,,,,,,,,,cross,170,108,sing,new,null,965.7364016000065,None,965.7364016000065,None,1,1.1999752999981865,965.7364016000065,None,1.1999752999981865,966.9716108000139,None,967.4812730000122,None,967.4812730000122,None,n,0.22308419999899343,967.4812730000122,None,0.22308419999899343,,,127 S,001,2023_Sep_20_1729,ProdSingRedoBetween,2021.2.3,59.94901936005703,
,,,,108,0,108,0,,,,,,,,,,,,,,,,,,,,,,971.199800900009,None,,,,,,,,,,,,,,,,,trial,42,109,sing,old,blue,968.2342813000141,None,968.2342813000141,None,1,1.3900538999878336,968.2342813000141,None,1.3900538999878336,969.653819500003,None,970.1651899999997,None,970.1651899999997,None,n,1.0112148000043817,970.1651899999997,None,1.0112148000043817,,,127 S,001,2023_Sep_20_1729,ProdSingRedoBetween,2021.2.3,59.94901936005703,
,,,,109,0,109,0,,,,,,,,,,,,,,,,,,,,,,973.5187935000286,None,,,,,,,,,,,,,,,,,character,97,110,sing,new,null,971.702251300012,None,971.702251300012,None,1,1.1540105000021867,971.702251300012,None,1.1540105000021867,972.8866695000033,None,973.4016314000182,None,973.4016314000182,None,n,0.0867500000167638,973.4016314000182,None,0.0867500000167638,,,127 S,001,2023_Sep_20_1729,ProdSingRedoBetween,2021.2.3,59.94901936005703,
,,,,110,0,110,0,,,,,,,,,,,,,,,,,,,,,,975.6539607000013,None,,,,,,,,,,,,,,,,,territory,155,111,sing,new,null,974.021579000022,None,974.021579000022,None,1,1.0267346999899019,974.021579000022,None,1.0267346999899019,975.07296640001,None,975.5889244000136,None,975.5889244000136,None,n,0.035280899988720194,975.5889244000136,None,0.035280899988720194,,,127 S,001,2023_Sep_20_1729,ProdSingRedoBetween,2021.2.3,59.94901936005703,
,,,,111,0,111,0,,,,,,,,,,,,,,,,,,,,,,977.5059766000195,None,,,,,,,,,,,,,,,,,problem,143,112,sing,new,null,976.1642818000109,None,976.1642818000109,None,2,0.6680364000203554,976.1642818000109,None,0.6680364000203554,976.8599765000108,None,977.3756713000184,None,977.3756713000184,None,n,0.10472969998954795,977.3756713000184,None,0.10472969998954795,,,127 S,001,2023_Sep_20_1729,ProdSingRedoBetween,2021.2.3,59.94901936005703,
,,,,112,0,112,0,,,,,,,,,,,,,,,,,,,,,,980.492769000004,None,,,,,,,,,,,,,,,,,front,75,113,sing,old,red,978.0158319000038,None,978.0158319000038,None,6,1.8087026000139304,978.0158319000038,None,1.8087026000139304,979.8443677000178,None,980.3584133000113,None,980.3584133000113,None,r,0.11385799999698065,980.3584133000113,None,0.11385799999698065,,,127 S,001,2023_Sep_20_1729,ProdSingRedoBetween,2021.2.3,59.94901936005703,
,,,,113,0,113,0,,,,,,,,,,,,,,,,,,,,,,984.613588600012,None,,,,,,,,,,,,,,,,,running,34,114,sing,old,blue,980.9947404000268,None,980.9947404000268,None,2,2.5175366000039503,980.9947404000268,None,2.5175366000039503,983.5343579000037,None,984.0454386000056,None,984.0454386000056,None,f,0.5468785999983083,984.0454386000056,None,0.5468785999983083,,,127 S,001,2023_Sep_20_1729,ProdSingRedoBetween,2021.2.3,59.94901936005703,
,,,,114,0,114,0,,,,,,,,,,,,,,,,,,,,,,987.0411559000204,None,,,,,,,,,,,,,,,,,raise,95,115,sing,new,null,985.1159675000235,None,985.1159675000235,None,1,1.3163763000047766,985.1159675000235,None,1.3163763000047766,986.4505607000028,None,986.9720168000204,None,986.9720168000204,None,n,0.028599999990547076,986.9720168000204,None,0.028599999990547076,,,127 S,001,2023_Sep_20_1729,ProdSingRedoBetween,2021.2.3,59.94901936005703,
,,,,115,0,115,0,,,,,,,,,,,,,,,,,,,,,,989.619695100002,None,,,,,,,,,,,,,,,,,business,154,116,sing,new,null,987.5542860000278,None,987.5542860000278,None,1,1.4785384999995586,987.5542860000278,None,1.4785384999995586,989.057306200004,None,989.5721907000116,None,989.5721907000116,None,n,0.012356999999610707,989.5721907000116,None,0.012356999999610707,,,127 S,001,2023_Sep_20_1729,ProdSingRedoBetween,2021.2.3,59.94901936005703,
,,,,116,0,116,0,,,,,,,,,,,,,,,,,,,,,,993.8743880000256,None,,,,,,,,,,,,,,,,,platform,81,117,sing,old,red,990.1256190000277,None,990.1256190000277,None,1,1.4666834000090603,990.1256190000277,None,1.4666834000090603,991.6272597000061,None,992.1377396000025,None,992.1377396000025,None,n,1.7106186000164598,992.1377396000025,None,1.7106186000164598,,,127 S,001,2023_Sep_20_1729,ProdSingRedoBetween,2021.2.3,59.94901936005703,
,,,,117,0,117,0,,,,,,,,,,,,,,,,,,,,,,996.3440392000193,None,,,,,,,,,,,,,,,,,master,24,118,sing,old,yellow,994.4045656000089,None,994.4045656000089,None,6,1.307846800016705,994.4045656000089,None,1.307846800016705,995.7532356000156,None,996.2596435000014,None,996.2596435000014,None,r,0.05285500001627952,996.2596435000014,None,0.05285500001627952,,,127 S,001,2023_Sep_20_1729,ProdSingRedoBetween,2021.2.3,59.94901936005703,
,,,,118,0,118,0,,,,,,,,,,,,,,,,,,,,,,999.9613240000035,None,,,,,,,,,,,,,,,,,exchange,6,119,sing,old,yellow,996.8780146000208,None,996.8780146000208,None,1,1.8263089999963995,996.8780146000208,None,1.8263089999963995,998.7335251000186,None,999.2437085000274,None,999.2437085000274,None,n,0.7015836000209674,999.2437085000274,None,0.7015836000209674,,,127 S,001,2023_Sep_20_1729,ProdSingRedoBetween,2021.2.3,59.94901936005703,
,,,,119,0,119,0,,,,,,,,,,,,,,,,,,,,,,1002.3160053000029,None,,,,,,,,,,,,,,,,,plane,136,120,sing,new,null,1000.4634695000132,None,1000.4634695000132,None,1,1.16086639999412,1000.4634695000132,None,1.16086639999412,1001.6514115000027,None,1002.1696703000052,None,1002.1696703000052,None,n,0.11868220000178553,1002.1696703000052,None,0.11868220000178553,,,127 S,001,2023_Sep_20_1729,ProdSingRedoBetween,2021.2.3,59.94901936005703,
,,,,120,0,120,0,,,,,,,,,,,,,,,,,,,,,,1007.1530968000006,None,,,,,,,,,,,,,,,,,scale,26,121,sing,old,yellow,1002.8365420000046,None,1002.8365420000046,None,4,2.5557633999851532,1002.8365420000046,None,2.5557633999851532,1005.4245314,None,1005.9370679000276,None,1005.9370679000276,None,r,1.191230500000529,1005.9370679000276,None,1.191230500000529,,,127 S,001,2023_Sep_20_1729,ProdSingRedoBetween,2021.2.3,59.94901936005703,
,,,,121,0,121,0,,,,,,,,,,,,,,,,,,,,,,1010.759585700027,None,,,,,,,,,,,,,,,,,commercial,112,122,sing,new,null,1007.6597892999998,None,1007.6597892999998,None,1,1.8204842999984976,1007.6597892999998,None,1.8204842999984976,1009.5068419000017,None,1010.0244942000136,None,1010.0244942000136,None,n,0.7121068999986164,1010.0244942000136,None,0.7121068999986164,,,127 S,001,2023_Sep_20_1729,ProdSingRedoBetween,2021.2.3,59.94901936005703,
,,,,122,0,122,0,,,,,,,,,,,,,,,,,,,,,,1012.8810633000103,None,,,,,,,,,,,,,,,,,damage,142,123,sing,new,null,1011.2773702000268,None,1011.2773702000268,None,1,1.011175199993886,1011.2773702000268,None,1.011175199993886,1012.3102123000135,None,1012.8397894000227,None,1012.8397894000227,None,n,0.017213999992236495,1012.8397894000227,None,0.017213999992236495,,,127 S,001,2023_Sep_20_1729,ProdSingRedoBetween,2021.2.3,59.94901936005703,
,,,,123,0,123,0,,,,,,,,,,,,,,,,,,,,,,1015.5468519000278,None,,,,,,,,,,,,,,,,,group,50,124,sing,old,blue,1013.398674600001,None,1013.398674600001,None,1,1.0736943999945652,1013.398674600001,None,1.0736943999945652,1014.4955458000186,None,1015.0097801000229,None,1015.0097801000229,None,n,0.51858090001042,1015.0097801000229,None,0.51858090001042,,,127 S,001,2023_Sep_20_1729,ProdSingRedoBetween,2021.2.3,59.94901936005703,
,,,,124,0,124,0,,,,,,,,,,,,,,,,,,,,,,1017.7309305000235,None,,,,,,,,,,,,,,,,,column,146,125,sing,new,null,1016.0648775000009,None,1016.0648775000009,None,1,1.0154179999954067,1016.0648775000009,None,1.0154179999954067,1017.0972849000245,None,1017.6163514000073,None,1017.6163514000073,None,n,0.09627569999429397,1017.6163514000073,None,0.09627569999429397,,,127 S,001,2023_Sep_20_1729,ProdSingRedoBetween,2021.2.3,59.94901936005703,
,,,,125,0,125,0,,,,,,,,,,,,,,,,,,,,,,1020.7334547000064,None,,,,,,,,,,,,,,,,,tragedy,67,126,sing,old,red,1018.235685200023,None,1018.235685200023,None,1,1.0932228999736253,1018.235685200023,None,1.0932228999736253,1019.3526571000111,None,1019.8655672000023,None,1019.8655672000023,None,n,0.846676600020146,1019.8655672000023,None,0.846676600020146,,,127 S,001,2023_Sep_20_1729,ProdSingRedoBetween,2021.2.3,59.94901936005703,
,,,,126,0,126,0,,,,,,,,,,,,,,,,,,,,,,1023.3700889000029,None,,,,,,,,,,,,,,,,,breath,175,127,sing,new,null,1021.2347346000024,None,1021.2347346000024,None,1,1.3579015999857802,1021.2347346000024,None,1.3579015999857802,1022.6430050000199,None,1023.1552564000012,None,1023.1552564000012,None,n,0.19709870000951923,1023.1552564000012,None,0.19709870000951923,,,127 S,001,2023_Sep_20_1729,ProdSingRedoBetween,2021.2.3,59.94901936005703,
,,,,127,0,127,0,,,,,,,,,,,,,,,,,,,,,,1025.4214182000142,None,,,,,,,,,,,,,,,,,victory,102,128,sing,new,null,1023.8946354000072,None,1023.8946354000072,None,1,0.7296265000186395,1023.8946354000072,None,0.7296265000186395,1024.6550802000274,None,1025.1743918000138,None,1025.1743918000138,None,n,0.22594880001270212,1025.1743918000138,None,0.22594880001270212,,,127 S,001,2023_Sep_20_1729,ProdSingRedoBetween,2021.2.3,59.94901936005703,
,,,,128,0,128,0,,,,,,,,,,,,,,,,,,,,,,1027.925208700006,None,,,,,,,,,,,,,,,,,death,98,129,sing,new,null,1025.9296140000224,None,1025.9296140000224,None,1,1.3026750000135507,1025.9296140000224,None,1.3026750000135507,1027.263274900004,None,1027.7774809000257,None,1027.7774809000257,None,n,0.11889079998945817,1027.7774809000257,None,0.11889079998945817,,,127 S,001,2023_Sep_20_1729,ProdSingRedoBetween,2021.2.3,59.94901936005703,
,,,,129,0,129,0,,,,,,,,,,,,,,,,,,,,,,1030.893014100002,None,,,,,,,,,,,,,,,,,vision,122,130,sing,new,null,1028.4424699000083,None,1028.4424699000083,None,4,1.7578463999961969,1028.4424699000083,None,1.7578463999961969,1030.2282462000148,None,1030.7428442000237,None,1030.7428442000237,None,r,0.12142680000397377,1030.7428442000237,None,0.12142680000397377,,,127 S,001,2023_Sep_20_1729,ProdSingRedoBetween,2021.2.3,59.94901936005703,
,,,,130,0,130,0,,,,,,,,,,,,,,,,,,,,,,1035.4813752000045,None,,,,,,,,,,,,,,,,,listen,21,131,sing,old,yellow,1031.3957378000196,None,1031.3957378000196,None,1,2.1565573000116274,1031.3957378000196,None,2.1565573000116274,1033.5829493000056,None,1034.1002829000063,None,1034.1002829000063,None,r,1.3560740999819245,1034.1002829000063,None,1.3560740999819245,,,127 S,001,2023_Sep_20_1729,ProdSingRedoBetween,2021.2.3,59.94901936005703,
,,,,131,0,131,0,,,,,,,,,,,,,,,,,,,,,,1040.505673000007,None,,,,,,,,,,,,,,,,,bureau,116,132,sing,new,null,1035.9823189000017,None,1035.9823189000017,None,1,3.3459827000042424,1035.9823189000017,None,3.3459827000042424,1039.3531274000125,None,1039.862051300006,None,1039.862051300006,None,n,0.6104421000054572,1039.862051300006,None,0.6104421000054572,,,127 S,001,2023_Sep_20_1729,ProdSingRedoBetween,2021.2.3,59.94901936005703,
,,,,132,0,132,0,,,,,,,,,,,,,,,,,,,,,,1042.7225273000076,None,,,,,,,,,,,,,,,,,emergency,103,133,sing,new,null,1041.022067700018,None,1041.022067700018,None,1,1.0983194999862462,1041.022067700018,None,1.0983194999862462,1042.1408349000267,None,1042.6546285000222,None,1042.6546285000222,None,n,0.04182460001902655,1042.6546285000222,None,0.04182460001902655,,,127 S,001,2023_Sep_20_1729,ProdSingRedoBetween,2021.2.3,59.94901936005703,
,,,,133,0,133,0,,,,,,,,,,,,,,,,,,,,,,1045.0240665000165,None,,,,,,,,,,,,,,,,,track,69,134,sing,old,red,1043.229208100005,None,1043.229208100005,None,1,1.0831352999957744,1043.229208100005,None,1.0831352999957744,1044.3413919000013,None,1044.8562483000278,None,1044.8562483000278,None,n,0.152060899999924,1044.8562483000278,None,0.152060899999924,,,127 S,001,2023_Sep_20_1729,ProdSingRedoBetween,2021.2.3,59.94901936005703,
,,,,134,0,134,0,,,,,,,,,,,,,,,,,,,,,,1048.2281946000003,None,,,,,,,,,,,,,,,,,south,60,135,sing,old,red,1045.534267400013,None,1045.534267400013,None,1,2.0260762999823783,1045.534267400013,None,2.0260762999823783,1047.5806418000138,None,1048.0963499000063,None,1048.0963499000063,None,n,0.11198700001114048,1048.0963499000063,None,0.11198700001114048,,,127 S,001,2023_Sep_20_1729,ProdSingRedoBetween,2021.2.3,59.94901936005703,
,,,,135,0,135,0,,,,,,,,,,,,,,,,,,,,,,1051.8974655000202,None,,,,,,,,,,,,,,,,,minor,55,136,sing,old,blue,1048.744539700012,None,1048.744539700012,None,1,1.839711200009333,1048.744539700012,None,1.839711200009333,1050.6147017000185,None,1051.1291202000284,None,1051.1291202000284,None,n,0.7431935000058729,1051.1291202000284,None,0.7431935000058729,,,127 S,001,2023_Sep_20_1729,ProdSingRedoBetween,2021.2.3,59.94901936005703,
,,,,136,0,136,0,,,,,,,,,,,,,,,,,,,,,,1055.8356078000215,None,,,,,,,,,,,,,,,,,nature,118,137,sing,new,null,1052.4124889000086,None,1052.4124889000086,None,1,2.5237850999983493,1052.4124889000086,None,2.5237850999983493,1054.9685381000163,None,1055.4834757000208,None,1055.4834757000208,None,n,0.33308289997512475,1055.4834757000208,None,0.33308289997512475,,,127 S,001,2023_Sep_20_1729,ProdSingRedoBetween,2021.2.3,59.94901936005703,
,,,,137,0,137,0,,,,,,,,,,,,,,,,,,,,,,1059.1380857000186,None,,,,,,,,,,,,,,,,,research,16,138,sing,old,yellow,1056.341834300023,None,1056.341834300023,None,1,1.9544603999820538,1056.341834300023,None,1.9544603999820538,1058.3239086000249,None,1058.8370598000183,None,1058.8370598000183,None,n,0.2753521999984514,1058.8370598000183,None,0.2753521999984514,,,127 S,001,2023_Sep_20_1729,ProdSingRedoBetween,2021.2.3,59.94901936005703,
,,,,138,0,138,0,,,,,,,,,,,,,,,,,,,,,,1062.1408152000222,None,,,,,,,,,,,,,,,,,expansion,167,139,sing,new,null,1059.640135900001,None,1059.640135900001,None,1,1.8163046999834478,1059.640135900001,None,1.8163046999834478,1061.4798567000253,None,1061.9900516000052,None,1061.9900516000052,None,n,0.13020340001094155,1061.9900516000052,None,0.13020340001094155,,,127 S,001,2023_Sep_20_1729,ProdSingRedoBetween,2021.2.3,59.94901936005703,
,,,,139,0,139,0,,,,,,,,,,,,,,,,,,,,,,1064.5604412000102,None,,,,,,,,,,,,,,,,,narrow,157,140,sing,new,null,1062.6434479000163,None,1062.6434479000163,None,1,1.2448518000019249,1062.6434479000163,None,1.2448518000019249,1063.9115626000275,None,1064.4258140000165,None,1064.4258140000165,None,n,0.1024893999856431,1064.4258140000165,None,0.1024893999856431,,,127 S,001,2023_Sep_20_1729,ProdSingRedoBetween,2021.2.3,59.94901936005703,
,,,,140,0,140,0,,,,,,,,,,,,,,,,,,,,,,1067.7962813000195,None,,,,,,,,,,,,,,,,,contract,101,141,sing,new,null,1065.0619215000188,None,1065.0619215000188,None,1,1.858451000007335,1065.0619215000188,None,1.858451000007335,1066.9520860000048,None,1067.462302400003,None,1067.462302400003,None,n,0.31395270000211895,1067.462302400003,None,0.31395270000211895,,,127 S,001,2023_Sep_20_1729,ProdSingRedoBetween,2021.2.3,59.94901936005703,
,,,,141,0,141,0,,,,,,,,,,,,,,,,,,,,,,1070.3680374000105,None,,,,,,,,,,,,,,,,,atmosphere,59,142,sing,old,yellow,1068.304312000022,None,1068.304312000022,None,1,1.4239499999966938,1068.304312000022,None,1.4239499999966938,1069.7516396000283,None,1070.2724380000145,None,1070.2724380000145,None,n,0.048151499999221414,1070.2724380000145,None,0.048151499999221414,,,127 S,001,2023_Sep_20_1729,ProdSingRedoBetween,2021.2.3,59.94901936005703,
,,,,142,0,142,0,,,,,,,,,,,,,,,,,,,,,,1073.0832758000179,None,,,,,,,,,,,,,,,,,meeting,22,143,sing,old,yellow,1070.887419000006,None,1070.887419000006,None,6,1.520894400018733,1070.887419000006,None,1.520894400018733,1072.4357960000052,None,1072.9512312000152,None,1072.9512312000152,None,r,0.09701959998346865,1072.9512312000152,None,0.09701959998346865,,,127 S,001,2023_Sep_20_1729,ProdSingRedoBetween,2021.2.3,59.94901936005703,
,,,,143,0,143,0,,,,,,,,,,,,,,,,,,,,,,1075.9549357000215,None,,,,,,,,,,,,,,,,,substance,91,144,sing,new,null,1073.5955442000122,None,1073.5955442000122,None,1,1.5167611000069883,1073.5955442000122,None,1.5167611000069883,1075.13965680002,None,1075.6540390000155,None,1075.6540390000155,None,n,0.28231540002161637,1075.6540390000155,None,0.28231540002161637,,,127 S,001,2023_Sep_20_1729,ProdSingRedoBetween,2021.2.3,59.94901936005703,
,,,,144,0,144,0,,,,,,,,,,,,,,,,,,,,,,1079.2952806000249,None,,,,,,,,,,,,,,,,,ground,36,145,sing,old,blue,1076.457615100022,None,1076.457615100022,None,3,2.0306865999882575,1076.457615100022,None,2.0306865999882575,1078.5085794000188,None,1079.0297107000079,None,1079.0297107000079,None,f,0.24287319998256862,1079.0297107000079,None,0.24287319998256862,,,127 S,001,2023_Sep_20_1729,ProdSingRedoBetween,2021.2.3,59.94901936005703,
,,,,145,0,145,0,,,,,,,,,,,,,,,,,,,,,,1081.77739990002,None,,,,,,,,,,,,,,,,,hearing,53,146,sing,old,blue,1079.8087582000007,None,1079.8087582000007,None,1,1.3035750999988522,1079.8087582000007,None,1.3035750999988522,1081.1443453000102,None,1081.6597737000266,None,1081.6597737000266,None,n,0.10043010002118535,1081.6597737000266,None,0.10043010002118535,,,127 S,001,2023_Sep_20_1729,ProdSingRedoBetween,2021.2.3,59.94901936005703,
,,,,146,0,146,0,,,,,,,,,,,,,,,,,,,,,,1084.1108179000148,None,,,,,,,,,,,,,,,,,quarter,4,147,sing,old,yellow,1082.2795236000093,None,1082.2795236000093,None,1,1.208796800026903,1082.2795236000093,None,1.208796800026903,1083.514588800026,None,1084.0289465000096,None,1084.0289465000096,None,n,0.05136270000366494,1084.0289465000096,None,0.05136270000366494,,,127 S,001,2023_Sep_20_1729,ProdSingRedoBetween,2021.2.3,59.94901936005703,
,,,,147,0,147,0,,,,,,,,,,,,,,,,,,,,,,1086.733925700013,None,,,,,,,,,,,,,,,,,health,43,148,sing,old,blue,1084.6156039000198,None,1084.6156039000198,None,1,1.4086917999957222,1084.6156039000198,None,1.4086917999957222,1086.0497060000198,None,1086.5699169000145,None,1086.5699169000145,None,n,0.14286610000999644,1086.5699169000145,None,0.14286610000999644,,,127 S,001,2023_Sep_20_1729,ProdSingRedoBetween,2021.2.3,59.94901936005703,
,,,,148,0,148,0,,,,,,,,,,,,,,,,,,,,,,1089.5675976000202,None,,,,,,,,,,,,,,,,,sunset,168,149,sing,new,null,1087.2508781000215,None,1087.2508781000215,None,1,1.1413934000011068,1087.2508781000215,None,1.1413934000011068,1088.4185765000002,None,1088.9338172000134,None,1088.9338172000134,None,n,0.6105377999774646,1088.9338172000134,None,0.6105377999774646,,,127 S,001,2023_Sep_20_1729,ProdSingRedoBetween,2021.2.3,59.94901936005703,
,,,,149,0,149,0,,,,,,,,,,,,,,,,,,,,,,1092.0885216000024,None,,,,,,,,,,,,,,,,,interview,52,150,sing,old,blue,1090.0710608000227,None,1090.0710608000227,None,6,1.3693720000155736,1090.0710608000227,None,1.3693720000155736,1091.4770327000006,None,1091.9898015000217,None,1091.9898015000217,None,r,0.06653240000014193,1091.9898015000217,None,0.06653240000014193,,,127 S,001,2023_Sep_20_1729,ProdSingRedoBetween,2021.2.3,59.94901936005703,
,,,,150,0,150,0,,,,,,,,,,,,,,,,,,,,,,1094.4897187000024,None,,,,,,,,,,,,,,,,,addition,2,151,sing,old,yellow,1092.5904199000215,None,1092.5904199000215,None,6,1.2898904999892693,1092.5904199000215,None,1.2898904999892693,1093.9076890000142,None,1094.422359100019,None,1094.422359100019,None,r,0.0419980000006035,1094.422359100019,None,0.0419980000006035,,,127 S,001,2023_Sep_20_1729,ProdSingRedoBetween,2021.2.3,59.94901936005703,
,,,,151,0,151,0,,,,,,,,,,,,,,,,,,,,,,1097.8129505000252,None,,,,,,,,,,,,,,,,,colonel,37,152,sing,old,blue,1094.992011800001,None,1094.992011800001,None,1,1.4162200999853667,1094.992011800001,None,1.4162200999853667,1096.4281710000068,None,1096.9420523000008,None,1096.9420523000008,None,n,0.8422603999788407,1096.9420523000008,None,0.8422603999788407,,,127 S,001,2023_Sep_20_1729,ProdSingRedoBetween,2021.2.3,59.94901936005703,
,,,,152,0,152,0,,,,,,,,,,,,,,,,,,,,,,1100.4469448000018,None,,,,,,,,,,,,,,,,,rough,28,153,sing,old,yellow,1098.3283504000283,None,1098.3283504000283,None,1,1.223960100003751,1098.3283504000283,None,1.223960100003751,1099.5804189000046,None,1100.0948118000233,None,1100.0948118000233,None,n,0.3214741999981925,1100.0948118000233,None,0.3214741999981925,,,127 S,001,2023_Sep_20_1729,ProdSingRedoBetween,2021.2.3,59.94901936005703,
,,,,153,0,153,0,,,,,,,,,,,,,,,,,,,,,,1102.8980513999995,None,,,,,,,,,,,,,,,,,poetry,20,154,sing,old,yellow,1100.956682500022,None,1100.956682500022,None,6,1.3634911999979522,1100.956682500022,None,1.3634911999979522,1102.3492077000265,None,1102.8645865000144,None,1102.8645865000144,None,r,0.007661099982215092,1102.8645865000144,None,0.007661099982215092,,,127 S,001,2023_Sep_20_1729,ProdSingRedoBetween,2021.2.3,59.94901936005703,
,,,,154,0,154,0,,,,,,,,,,,,,,,,,,,,,,1106.01759090001,None,,,,,,,,,,,,,,,,,produce,176,155,sing,new,null,1103.4006167000043,None,1103.4006167000043,None,1,1.095617899991339,1103.4006167000043,None,1.095617899991339,1104.5183145000192,None,1105.0330322000082,None,1105.0330322000082,None,n,0.9675250000145752,1105.0330322000082,None,0.9675250000145752,,,127 S,001,2023_Sep_20_1729,ProdSingRedoBetween,2021.2.3,59.94901936005703,
,,,,155,0,155,0,,,,,,,,,,,,,,,,,,,,,,1108.5372990000178,None,,,,,,,,,,,,,,,,,leader,96,156,sing,new,null,1106.5194018000038,None,1106.5194018000038,None,1,1.2568680999975186,1106.5194018000038,None,1.2568680999975186,1107.8044010000012,None,1108.319362500013,None,1108.319362500013,None,n,0.200983200018527,1108.319362500013,None,0.200983200018527,,,127 S,001,2023_Sep_20_1729,ProdSingRedoBetween,2021.2.3,59.94901936005703,
,,,,156,0,156,0,,,,,,,,,,,,,,,,,,,,,,1111.557376700017,None,,,,,,,,,,,,,,,,,course,94,157,sing,new,null,1109.0407352000184,None,1109.0407352000184,None,2,1.8797421000199392,1109.0407352000184,None,1.8797421000199392,1110.9412255000207,None,1111.456244800007,None,1111.456244800007,None,f,0.0719946000026539,1111.456244800007,None,0.0719946000026539,,,127 S,001,2023_Sep_20_1729,ProdSingRedoBetween,2021.2.3,59.94901936005703,
,,,,157,0,157,0,,,,,,,,,,,,,,,,,,,,,,1114.3096382000076,None,,,,,,,,,,,,,,,,,subject,179,158,sing,new,null,1112.0604862000037,None,1112.0604862000037,None,1,1.4758148999826517,1112.0604862000037,None,1.4758148999826517,1113.5615609000088,None,1114.0757796000107,None,1114.0757796000107,None,n,0.21254199999384582,1114.0757796000107,None,0.21254199999384582,,,127 S,001,2023_Sep_20_1729,ProdSingRedoBetween,2021.2.3,59.94901936005703,
,,,,158,0,158,0,,,,,,,,,,,,,,,,,,,,,,1116.5947455000132,None,,,,,,,,,,,,,,,,,provision,114,159,sing,new,null,1114.8118992000236,None,1114.8118992000236,None,1,1.1163226999924518,1114.8118992000236,None,1.1163226999924518,1115.9471486000111,None,1116.4617994000146,None,1116.4617994000146,None,n,0.10653220000676811,1116.4617994000146,None,0.10653220000676811,,,127 S,001,2023_Sep_20_1729,ProdSingRedoBetween,2021.2.3,59.94901936005703,
,,,,159,0,159,0,,,,,,,,,,,,,,,,,,,,,,1119.214085900021,None,,,,,,,,,,,,,,,,,charter,164,160,sing,new,null,1117.104176700028,None,1117.104176700028,None,1,1.2720377999939956,1117.104176700028,None,1.2720377999939956,1118.398886800016,None,1118.9136311000038,None,1118.9136311000038,None,n,0.270611000014469,1118.9136311000038,None,0.270611000014469,,,127 S,001,2023_Sep_20_1729,ProdSingRedoBetween,2021.2.3,59.94901936005703,
,,,,160,0,160,0,,,,,,,,,,,,,,,,,,,,,,1121.9843279000197,None,,,,,,,,,,,,,,,,,level,128,161,sing,new,null,1119.7162535000243,None,1119.7162535000243,None,1,1.628198499995051,1119.7162535000243,None,1.628198499995051,1121.3747777000244,None,1121.885221500008,None,1121.885221500008,None,n,0.08308359998045489,1121.885221500008,None,0.08308359998045489,,,127 S,001,2023_Sep_20_1729,ProdSingRedoBetween,2021.2.3,59.94901936005703,
,,,,161,0,161,0,,,,,,,,,,,,,,,,,,,,,,1124.4044981000188,None,,,,,,,,,,,,,,,,,express,177,162,sing,new,null,1122.4866413000273,None,1122.4866413000273,None,1,1.2656191000132822,1122.4866413000273,None,1.2656191000132822,1123.7717243000225,None,1124.2858040000137,None,1124.2858040000137,None,n,0.0906187999935355,1124.2858040000137,None,0.0906187999935355,,,127 S,001,2023_Sep_20_1729,ProdSingRedoBetween,2021.2.3,59.94901936005703,
,,,,162,0,162,0,,,,,,,,,,,,,,,,,,,,,,1127.5395933000254,None,,,,,,,,,,,,,,,,,touch,165,163,sing,new,null,1124.9207556000038,None,1124.9207556000038,None,1,1.4555284999951255,1124.9207556000038,None,1.4555284999951255,1126.4061531000189,None,1126.9215919000271,None,1126.9215919000271,None,n,0.598876800009748,1126.9215919000271,None,0.598876800009748,,,127 S,001,2023_Sep_20_1729,ProdSingRedoBetween,2021.2.3,59.94901936005703,
,,,,163,0,163,0,,,,,,,,,,,,,,,,,,,,,,1130.1248615000222,None,,,,,,,,,,,,,,,,,brief,62,164,sing,old,red,1128.0419449000037,None,1128.0419449000037,None,6,1.4944941999856383,1128.0419449000037,None,1.4944941999856383,1129.5596889000153,None,1130.0772786000161,None,1130.0772786000161,None,r,0.019021699990844354,1130.0772786000161,None,0.019021699990844354,,,127 S,001,2023_Sep_20_1729,ProdSingRedoBetween,2021.2.3,59.94901936005703,
,,,,164,0,164,0,,,,,,,,,,,,,,,,,,,,,,1133.5977600000042,None,,,,,,,,,,,,,,,,,trail,41,165,sing,old,blue,1130.6272391000239,None,1130.6272391000239,None,6,1.253029899991816,1130.6272391000239,None,1.253029899991816,1131.911974000017,None,1132.4319457000238,None,1132.4319457000238,None,r,1.144711799977813,1132.4319457000238,None,1.144711799977813,,,127 S,001,2023_Sep_20_1729,ProdSingRedoBetween,2021.2.3,59.94901936005703,
,,,,165,0,165,0,,,,,,,,,,,,,,,,,,,,,,1138.6023431000067,None,,,,,,,,,,,,,,,,,worker,5,166,sing,old,yellow,1134.1226961000066,None,1134.1226961000066,None,3,3.6695916000171565,1134.1226961000066,None,3.6695916000171565,1137.821392200014,None,1138.3407130000123,None,1138.3407130000123,None,f,0.23562769999261945,1138.3407130000123,None,0.23562769999261945,,,127 S,001,2023_Sep_20_1729,ProdSingRedoBetween,2021.2.3,59.94901936005703,
,,,,166,0,166,0,,,,,,,,,,,,,,,,,,,,,,1142.0537119000219,None,,,,,,,,,,,,,,,,,dispute,82,167,sing,old,red,1139.1247151000134,None,1139.1247151000134,None,5,2.075951399980113,1139.1247151000134,None,2.075951399980113,1141.224775700015,None,1141.7363325000042,None,1141.7363325000042,None,f,0.28796680000959896,1141.7363325000042,None,0.28796680000959896,,,127 S,001,2023_Sep_20_1729,ProdSingRedoBetween,2021.2.3,59.94901936005703,
,,,,167,0,167,0,,,,,,,,,,,,,,,,,,,,,,1144.8925877000147,None,,,,,,,,,,,,,,,,,corner,80,168,sing,old,red,1142.5563870000187,None,1142.5563870000187,None,1,1.2839273000136018,1142.5563870000187,None,1.2839273000136018,1143.8735722000129,None,1144.3771261000074,None,1144.3771261000074,None,n,0.48728899998241104,1144.3771261000074,None,0.48728899998241104,,,127 S,001,2023_Sep_20_1729,ProdSingRedoBetween,2021.2.3,59.94901936005703,
,,,,168,0,168,0,,,,,,,,,,,,,,,,,,,,,,1148.4418738000095,None,,,,,,,,,,,,,,,,,skill,3,169,sing,old,yellow,1145.4092324000085,None,1145.4092324000085,None,6,1.2472032999794465,1145.4092324000085,None,1.2472032999794465,1146.6786218000052,None,1147.1920355000184,None,1147.1920355000184,None,r,1.2162615999986883,1147.1920355000184,None,1.2162615999986883,,,127 S,001,2023_Sep_20_1729,ProdSingRedoBetween,2021.2.3,59.94901936005703,
,,,,169,0,169,0,,,,,,,,,,,,,,,,,,,,,,1151.2947348000016,None,,,,,,,,,,,,,,,,,instrument,110,170,sing,new,null,1148.9454664000077,None,1148.9454664000077,None,1,1.6468308999901637,1148.9454664000077,None,1.6468308999901637,1150.6214082000079,None,1151.1315406000067,None,1151.1315406000067,None,n,0.11687040000106208,1151.1315406000067,None,0.11687040000106208,,,127 S,001,2023_Sep_20_1729,ProdSingRedoBetween,2021.2.3,59.94901936005703,
,,,,170,0,170,0,,,,,,,,,,,,,,,,,,,,,,1153.3995677000203,None,,,,,,,,,,,,,,,,,height,148,171,sing,new,null,1151.7986251000257,None,1151.7986251000257,None,1,0.9375949999957811,1151.7986251000257,None,0.9375949999957811,1152.7666717000247,None,1153.2849868000194,None,1153.2849868000194,None,n,0.09149989997968078,1153.2849868000194,None,0.09149989997968078,,,127 S,001,2023_Sep_20_1729,ProdSingRedoBetween,2021.2.3,59.94901936005703,
,,,,171,0,171,0,,,,,,,,,,,,,,,,,,,,,,1155.9361491000163,None,,,,,,,,,,,,,,,,,object,156,172,sing,new,null,1153.90754320001,None,1153.90754320001,None,1,0.8367740999965463,1153.90754320001,None,0.8367740999965463,1154.7713613000233,None,1155.2912016000191,None,1155.2912016000191,None,n,0.6131724000151735,1155.2912016000191,None,0.6131724000151735,,,127 S,001,2023_Sep_20_1729,ProdSingRedoBetween,2021.2.3,59.94901936005703,
,,,,172,0,172,0,,,,,,,,,,,,,,,,,,,,,,1157.8528982000134,None,,,,,,,,,,,,,,,,,quick,178,173,sing,new,null,1156.457355200022,None,1156.457355200022,None,1,0.75108120002551,1156.457355200022,None,0.75108120002551,1157.2377368000161,None,1157.7529112000193,None,1157.7529112000193,None,n,0.07136659999378026,1157.7529112000193,None,0.07136659999378026,,,127 S,001,2023_Sep_20_1729,ProdSingRedoBetween,2021.2.3,59.94901936005703,
,,,,173,0,173,0,,,,,,,,,,,,,,,,,,,,,,1160.2536749000137,None,,,,,,,,,,,,,,,,,safety,147,174,sing,new,null,1158.3556260000041,None,1158.3556260000041,None,1,1.212999299983494,1158.3556260000041,None,1.212999299983494,1159.58969600001,None,1160.104942200007,None,1160.104942200007,None,n,0.11143879999872297,1160.104942200007,None,0.11143879999872297,,,127 S,001,2023_Sep_20_1729,ProdSingRedoBetween,2021.2.3,59.94901936005703,
,,,,174,0,174,0,,,,,,,,,,,,,,,,,,,,,,1163.4098576000251,None,,,,,,,,,,,,,,,,,payment,39,175,sing,old,blue,1160.7571830000088,None,1160.7571830000088,None,1,1.3472376999852713,1160.7571830000088,None,1.3472376999852713,1162.1266066000098,None,1162.641486700013,None,1162.641486700013,None,n,0.750915000011446,1162.641486700013,None,0.750915000011446,,,127 S,001,2023_Sep_20_1729,ProdSingRedoBetween,2021.2.3,59.94901936005703,
,,,,175,0,175,0,,,,,,,,,,,,,,,,,,,,,,1165.661486500001,None,,,,,,,,,,,,,,,,,carry,152,176,sing,new,null,1163.9293135000044,None,1163.9293135000044,None,1,1.0549404000048526,1163.9293135000044,None,1.0549404000048526,1165.0118157000106,None,1165.5273256000073,None,1165.5273256000073,None,n,0.11290659999940544,1165.5273256000073,None,0.11290659999940544,,,127 S,001,2023_Sep_20_1729,ProdSingRedoBetween,2021.2.3,59.94901936005703,
,,,,176,0,176,0,,,,,,,,,,,,,,,,,,,,,,1169.0646290000004,None,,,,,,,,,,,,,,,,,distance,30,177,sing,old,blue,1166.17330580001,None,1166.17330580001,None,4,2.043010099994717,1166.17330580001,None,2.043010099994717,1168.2513163000112,None,1168.7633406000095,None,1168.7633406000095,None,f,0.2769611999974586,1168.7633406000095,None,0.2769611999974586,,,127 S,001,2023_Sep_20_1729,ProdSingRedoBetween,2021.2.3,59.94901936005703,
,,,,177,0,177,0,,,,,,,,,,,,,,,,,,,,,,1173.5362612000026,None,,,,,,,,,,,,,,,,,volume,56,178,sing,old,blue,1169.5666857000033,None,1169.5666857000033,None,2,1.849564799980726,1169.5666857000033,None,1.849564799980726,1171.4348006000218,None,1171.9500320000225,None,1171.9500320000225,None,f,1.562280499987537,1171.9500320000225,None,1.562280499987537,,,127 S,001,2023_Sep_20_1729,ProdSingRedoBetween,2021.2.3,59.94901936005703,
,,,,178,0,178,0,,,,,,,,,,,,,,,,,,,,,,1176.0226710000134,None,,,,,,,,,,,,,,,,,concern,13,179,sing,old,yellow,1174.042399500002,None,1174.042399500002,None,1,1.381937599973753,1174.042399500002,None,1.381937599973753,1175.4611110000114,None,1175.9706109000253,None,1175.9706109000253,None,n,0.029688800015719607,1175.9706109000253,None,0.029688800015719607,,,127 S,001,2023_Sep_20_1729,ProdSingRedoBetween,2021.2.3,59.94901936005703,
,,,,179,0,179,0,,,,,,,,,,,,,,,,,,,,,,1178.474566400022,None,,,,,,,,,,,,,,,,,husband,108,180,sing,new,null,1176.5443719000032,None,1176.5443719000032,None,1,1.1279658999992535,1176.5443719000032,None,1.1279658999992535,1177.6912221000239,None,1178.206130800012,None,1178.206130800012,None,n,0.24220269999932498,1178.206130800012,None,0.24220269999932498,,,127 S,001,2023_Sep_20_1729,ProdSingRedoBetween,2021.2.3,59.94901936005703,
