StudyLoop.thisRepN,StudyLoop.thisTrialN,StudyLoop.thisN,StudyLoop.thisIndex,TestLoop.thisRepN,TestLoop.thisTrialN,TestLoop.thisN,TestLoop.thisIndex,textCondition.started,textCondition.stopped,keyCondition.keys,keyCondition.rt,keyCondition.started,keyCondition.stopped,Condition,textWelcome.started,textWelcome.stopped,keyWelcome.keys,keyWelcome.rt,keyWelcome.started,keyWelcome.stopped,textAloud.started,textAloud.stopped,textSilent.started,textSilent.stopped,textSing.started,textSing.stopped,conditional_text.started,conditional_text.stopped,textBlank500.started,textBlank500.stopped,study_word,study_num,study_order,study_type,word_color,textStudy.started,textStudy.stopped,keyStudy.keys,keyStudy.started,keyStudy.stopped,textTestInstructions.started,textTestInstructions.stopped,key_resp_3.keys,key_resp_3.rt,key_resp_3.started,key_resp_3.stopped,test_word,test_num,test_order,test_condition,old_new_test,test_word_original_color,textConf.started,textConf.stopped,textConfScale.started,textConfScale.stopped,keyConf.keys,keyConf.rt,keyConf.started,keyConf.stopped,confidence response time,textTestBlank.started,textTestBlank.stopped,textRKN.started,textRKN.stopped,textRKNScale.started,textRKNScale.stopped,keyRKN.keys,keyRKN.rt,keyRKN.started,keyRKN.stopped,rkn response time,textEnd.started,textEnd.stopped,participant,session,date,expName,psychopyVersion,frameRate,
,,,,,,,,13.068873599986546,None,c,0.5817638000007719,13.068873599986546,None,,,,,,,,,,,,,,,,,,,,,,,,,,,,,,,,,,,,,,,,,,,,,,,,,,,,,,,,,,,,,,128 S,001,2023_Sep_21_1332,ProdSingRedoBetween,2021.2.3,59.96429726478077,
,,,,,,,,,,,,,,SingTest,13.694570399995428,None,space,145.802915999986,13.694570399995428,None,,,,,,,,,,,,,,,,,,,,,,,,,,,,,,,,,,,,,,,,,,,,,,,,,,,,,,,128 S,001,2023_Sep_21_1332,ProdSingRedoBetween,2021.2.3,59.96429726478077,
0,0,0,0,,,,,,,,,,,,,,,,,,13.694570399995428,None,13.694570399995428,None,13.694570399995428,None,13.694570399995428,None,162.02470229999744,None,signal,8,1,sing,yellow,160.02547609998146,None,None,160.02547609998146,None,,,,,,,,,,,,,,,,,,,,,,,,,,,,,,,,,,,128 S,001,2023_Sep_21_1332,ProdSingRedoBetween,2021.2.3,59.96429726478077,
1,0,1,0,,,,,,,,,,,,,,,,,,,,,,,,,,164.52713309999672,None,danger,61,2,sing,red,162.5260552999971,None,None,162.5260552999971,None,,,,,,,,,,,,,,,,,,,,,,,,,,,,,,,,,,,128 S,001,2023_Sep_21_1332,ProdSingRedoBetween,2021.2.3,59.96429726478077,
2,0,2,0,,,,,,,,,,,,,,,,,,,,,,,,,,167.02977049999754,None,prime,22,3,sing,yellow,165.02914699999383,None,None,165.02914699999383,None,,,,,,,,,,,,,,,,,,,,,,,,,,,,,,,,,,,128 S,001,2023_Sep_21_1332,ProdSingRedoBetween,2021.2.3,59.96429726478077,
3,0,3,0,,,,,,,,,,,,,,,,,,,,,,,,,,169.53225499999826,None,crime,65,4,sing,red,167.53252659999998,None,None,167.53252659999998,None,,,,,,,,,,,,,,,,,,,,,,,,,,,,,,,,,,,128 S,001,2023_Sep_21_1332,ProdSingRedoBetween,2021.2.3,59.96429726478077,
4,0,4,0,,,,,,,,,,,,,,,,,,,,,,,,,,172.03514449999784,None,afternoon,39,5,sing,blue,170.03368809999665,None,None,170.03368809999665,None,,,,,,,,,,,,,,,,,,,,,,,,,,,,,,,,,,,128 S,001,2023_Sep_21_1332,ProdSingRedoBetween,2021.2.3,59.96429726478077,
5,0,5,0,,,,,,,,,,,,,,,,,,,,,,,,,,174.55429159998312,None,pattern,85,6,sing,red,172.53976859999239,None,None,172.53976859999239,None,,,,,,,,,,,,,,,,,,,,,,,,,,,,,,,,,,,128 S,001,2023_Sep_21_1332,ProdSingRedoBetween,2021.2.3,59.96429726478077,
6,0,6,0,,,,,,,,,,,,,,,,,,,,,,,,,,177.05664199998137,None,damage,74,7,sing,red,175.05487279998488,None,None,175.05487279998488,None,,,,,,,,,,,,,,,,,,,,,,,,,,,,,,,,,,,128 S,001,2023_Sep_21_1332,ProdSingRedoBetween,2021.2.3,59.96429726478077,
7,0,7,0,,,,,,,,,,,,,,,,,,,,,,,,,,179.55923479999183,None,captain,28,8,sing,yellow,177.55843299999833,None,None,177.55843299999833,None,,,,,,,,,,,,,,,,,,,,,,,,,,,,,,,,,,,128 S,001,2023_Sep_21_1332,ProdSingRedoBetween,2021.2.3,59.96429726478077,
8,0,8,0,,,,,,,,,,,,,,,,,,,,,,,,,,182.06164599998738,None,carry,80,9,sing,red,180.06161949998932,None,None,180.06161949998932,None,,,,,,,,,,,,,,,,,,,,,,,,,,,,,,,,,,,128 S,001,2023_Sep_21_1332,ProdSingRedoBetween,2021.2.3,59.96429726478077,
9,0,9,0,,,,,,,,,,,,,,,,,,,,,,,,,,184.56416779998108,None,harmony,69,10,sing,red,182.56474949998665,None,None,182.56474949998665,None,,,,,,,,,,,,,,,,,,,,,,,,,,,,,,,,,,,128 S,001,2023_Sep_21_1332,ProdSingRedoBetween,2021.2.3,59.96429726478077,
10,0,10,0,,,,,,,,,,,,,,,,,,,,,,,,,,187.082997599995,None,stranger,23,11,sing,yellow,185.07189880000078,None,None,185.07189880000078,None,,,,,,,,,,,,,,,,,,,,,,,,,,,,,,,,,,,128 S,001,2023_Sep_21_1332,ProdSingRedoBetween,2021.2.3,59.96429726478077,
11,0,11,0,,,,,,,,,,,,,,,,,,,,,,,,,,189.6024325999897,None,scale,30,12,sing,blue,187.5922066999774,None,None,187.5922066999774,None,,,,,,,,,,,,,,,,,,,,,,,,,,,,,,,,,,,128 S,001,2023_Sep_21_1332,ProdSingRedoBetween,2021.2.3,59.96429726478077,
12,0,12,0,,,,,,,,,,,,,,,,,,,,,,,,,,192.1049538999796,None,expansion,10,13,sing,yellow,190.105874699977,None,None,190.105874699977,None,,,,,,,,,,,,,,,,,,,,,,,,,,,,,,,,,,,128 S,001,2023_Sep_21_1332,ProdSingRedoBetween,2021.2.3,59.96429726478077,
13,0,13,0,,,,,,,,,,,,,,,,,,,,,,,,,,194.6074531999766,None,member,83,14,sing,red,192.60575769998832,None,None,192.60575769998832,None,,,,,,,,,,,,,,,,,,,,,,,,,,,,,,,,,,,128 S,001,2023_Sep_21_1332,ProdSingRedoBetween,2021.2.3,59.96429726478077,
14,0,14,0,,,,,,,,,,,,,,,,,,,,,,,,,,197.1266362000024,None,defeat,35,15,sing,blue,195.1229611999879,None,None,195.1229611999879,None,,,,,,,,,,,,,,,,,,,,,,,,,,,,,,,,,,,128 S,001,2023_Sep_21_1332,ProdSingRedoBetween,2021.2.3,59.96429726478077,
15,0,15,0,,,,,,,,,,,,,,,,,,,,,,,,,,199.62927669999772,None,council,64,16,sing,red,197.6275062999921,None,None,197.6275062999921,None,,,,,,,,,,,,,,,,,,,,,,,,,,,,,,,,,,,128 S,001,2023_Sep_21_1332,ProdSingRedoBetween,2021.2.3,59.96429726478077,
16,0,16,0,,,,,,,,,,,,,,,,,,,,,,,,,,202.13154099998064,None,colonel,58,17,sing,blue,200.13179869999294,None,None,200.13179869999294,None,,,,,,,,,,,,,,,,,,,,,,,,,,,,,,,,,,,128 S,001,2023_Sep_21_1332,ProdSingRedoBetween,2021.2.3,59.96429726478077,
17,0,17,0,,,,,,,,,,,,,,,,,,,,,,,,,,204.65098449998186,None,fashion,36,18,sing,blue,202.6359862999816,None,None,202.6359862999816,None,,,,,,,,,,,,,,,,,,,,,,,,,,,,,,,,,,,128 S,001,2023_Sep_21_1332,ProdSingRedoBetween,2021.2.3,59.96429726478077,
18,0,18,0,,,,,,,,,,,,,,,,,,,,,,,,,,207.16994910000358,None,course,16,19,sing,yellow,205.15887509999448,None,None,205.15887509999448,None,,,,,,,,,,,,,,,,,,,,,,,,,,,,,,,,,,,128 S,001,2023_Sep_21_1332,ProdSingRedoBetween,2021.2.3,59.96429726478077,
19,0,19,0,,,,,,,,,,,,,,,,,,,,,,,,,,209.67237620000378,None,plane,51,20,sing,blue,207.67226709998795,None,None,207.67226709998795,None,,,,,,,,,,,,,,,,,,,,,,,,,,,,,,,,,,,128 S,001,2023_Sep_21_1332,ProdSingRedoBetween,2021.2.3,59.96429726478077,
20,0,20,0,,,,,,,,,,,,,,,,,,,,,,,,,,212.17497130000265,None,division,19,21,sing,yellow,210.17530099998112,None,None,210.17530099998112,None,,,,,,,,,,,,,,,,,,,,,,,,,,,,,,,,,,,128 S,001,2023_Sep_21_1332,ProdSingRedoBetween,2021.2.3,59.96429726478077,
21,0,21,0,,,,,,,,,,,,,,,,,,,,,,,,,,214.6943973999878,None,power,82,22,sing,red,212.68379729997832,None,None,212.68379729997832,None,,,,,,,,,,,,,,,,,,,,,,,,,,,,,,,,,,,128 S,001,2023_Sep_21_1332,ProdSingRedoBetween,2021.2.3,59.96429726478077,
22,0,22,0,,,,,,,,,,,,,,,,,,,,,,,,,,217.1970078999875,None,straight,89,23,sing,red,215.19729869998991,None,None,215.19729869998991,None,,,,,,,,,,,,,,,,,,,,,,,,,,,,,,,,,,,128 S,001,2023_Sep_21_1332,ProdSingRedoBetween,2021.2.3,59.96429726478077,
23,0,23,0,,,,,,,,,,,,,,,,,,,,,,,,,,219.69925869998406,None,search,67,24,sing,red,217.69948270000168,None,None,217.69948270000168,None,,,,,,,,,,,,,,,,,,,,,,,,,,,,,,,,,,,128 S,001,2023_Sep_21_1332,ProdSingRedoBetween,2021.2.3,59.96429726478077,
24,0,24,0,,,,,,,,,,,,,,,,,,,,,,,,,,222.21820429997751,None,split,4,25,sing,yellow,220.21203039999818,None,None,220.21203039999818,None,,,,,,,,,,,,,,,,,,,,,,,,,,,,,,,,,,,128 S,001,2023_Sep_21_1332,ProdSingRedoBetween,2021.2.3,59.96429726478077,
25,0,25,0,,,,,,,,,,,,,,,,,,,,,,,,,,224.7207356999861,None,payment,40,26,sing,blue,222.7189292999974,None,None,222.7189292999974,None,,,,,,,,,,,,,,,,,,,,,,,,,,,,,,,,,,,128 S,001,2023_Sep_21_1332,ProdSingRedoBetween,2021.2.3,59.96429726478077,
26,0,26,0,,,,,,,,,,,,,,,,,,,,,,,,,,227.2233935999975,None,music,9,27,sing,yellow,225.2241359000036,None,None,225.2241359000036,None,,,,,,,,,,,,,,,,,,,,,,,,,,,,,,,,,,,128 S,001,2023_Sep_21_1332,ProdSingRedoBetween,2021.2.3,59.96429726478077,
27,0,27,0,,,,,,,,,,,,,,,,,,,,,,,,,,229.725807299983,None,medicine,48,28,sing,blue,227.72585190000245,None,None,227.72585190000245,None,,,,,,,,,,,,,,,,,,,,,,,,,,,,,,,,,,,128 S,001,2023_Sep_21_1332,ProdSingRedoBetween,2021.2.3,59.96429726478077,
28,0,28,0,,,,,,,,,,,,,,,,,,,,,,,,,,232.22836849998566,None,guard,73,29,sing,red,230.22649149998324,None,None,230.22649149998324,None,,,,,,,,,,,,,,,,,,,,,,,,,,,,,,,,,,,128 S,001,2023_Sep_21_1332,ProdSingRedoBetween,2021.2.3,59.96429726478077,
29,0,29,0,,,,,,,,,,,,,,,,,,,,,,,,,,234.73066139998264,None,distance,21,30,sing,yellow,232.73156299997936,None,None,232.73156299997936,None,,,,,,,,,,,,,,,,,,,,,,,,,,,,,,,,,,,128 S,001,2023_Sep_21_1332,ProdSingRedoBetween,2021.2.3,59.96429726478077,
30,0,30,0,,,,,,,,,,,,,,,,,,,,,,,,,,237.23321599999326,None,institute,15,31,sing,yellow,235.23358189998544,None,None,235.23358189998544,None,,,,,,,,,,,,,,,,,,,,,,,,,,,,,,,,,,,128 S,001,2023_Sep_21_1332,ProdSingRedoBetween,2021.2.3,59.96429726478077,
31,0,31,0,,,,,,,,,,,,,,,,,,,,,,,,,,239.73627409999608,None,height,20,32,sing,yellow,237.7341327999893,None,None,237.7341327999893,None,,,,,,,,,,,,,,,,,,,,,,,,,,,,,,,,,,,128 S,001,2023_Sep_21_1332,ProdSingRedoBetween,2021.2.3,59.96429726478077,
32,0,32,0,,,,,,,,,,,,,,,,,,,,,,,,,,242.25503549998393,None,beginning,59,33,sing,yellow,240.24831840000115,None,None,240.24831840000115,None,,,,,,,,,,,,,,,,,,,,,,,,,,,,,,,,,,,128 S,001,2023_Sep_21_1332,ProdSingRedoBetween,2021.2.3,59.96429726478077,
33,0,33,0,,,,,,,,,,,,,,,,,,,,,,,,,,244.77394829998957,None,dream,29,34,sing,blue,242.76544739998644,None,None,242.76544739998644,None,,,,,,,,,,,,,,,,,,,,,,,,,,,,,,,,,,,128 S,001,2023_Sep_21_1332,ProdSingRedoBetween,2021.2.3,59.96429726478077,
34,0,34,0,,,,,,,,,,,,,,,,,,,,,,,,,,247.27682829997502,None,accident,14,35,sing,yellow,245.27455479998025,None,None,245.27455479998025,None,,,,,,,,,,,,,,,,,,,,,,,,,,,,,,,,,,,128 S,001,2023_Sep_21_1332,ProdSingRedoBetween,2021.2.3,59.96429726478077,
35,0,35,0,,,,,,,,,,,,,,,,,,,,,,,,,,249.79587419997551,None,murder,7,36,sing,yellow,247.79271809998318,None,None,247.79271809998318,None,,,,,,,,,,,,,,,,,,,,,,,,,,,,,,,,,,,128 S,001,2023_Sep_21_1332,ProdSingRedoBetween,2021.2.3,59.96429726478077,
36,0,36,0,,,,,,,,,,,,,,,,,,,,,,,,,,252.298234899994,None,comfort,32,37,sing,blue,250.29668139998103,None,None,250.29668139998103,None,,,,,,,,,,,,,,,,,,,,,,,,,,,,,,,,,,,128 S,001,2023_Sep_21_1332,ProdSingRedoBetween,2021.2.3,59.96429726478077,
37,0,37,0,,,,,,,,,,,,,,,,,,,,,,,,,,254.8008262999938,None,order,54,38,sing,blue,252.7987509999948,None,None,252.7987509999948,None,,,,,,,,,,,,,,,,,,,,,,,,,,,,,,,,,,,128 S,001,2023_Sep_21_1332,ProdSingRedoBetween,2021.2.3,59.96429726478077,
38,0,38,0,,,,,,,,,,,,,,,,,,,,,,,,,,257.30311639999854,None,level,50,39,sing,blue,255.30122069999925,None,None,255.30122069999925,None,,,,,,,,,,,,,,,,,,,,,,,,,,,,,,,,,,,128 S,001,2023_Sep_21_1332,ProdSingRedoBetween,2021.2.3,59.96429726478077,
39,0,39,0,,,,,,,,,,,,,,,,,,,,,,,,,,259.80591039999854,None,alert,60,40,sing,red,257.80403800000204,None,None,257.80403800000204,None,,,,,,,,,,,,,,,,,,,,,,,,,,,,,,,,,,,128 S,001,2023_Sep_21_1332,ProdSingRedoBetween,2021.2.3,59.96429726478077,
40,0,40,0,,,,,,,,,,,,,,,,,,,,,,,,,,262.30843269999605,None,light,77,41,sing,red,260.30668320000404,None,None,260.30668320000404,None,,,,,,,,,,,,,,,,,,,,,,,,,,,,,,,,,,,128 S,001,2023_Sep_21_1332,ProdSingRedoBetween,2021.2.3,59.96429726478077,
41,0,41,0,,,,,,,,,,,,,,,,,,,,,,,,,,264.8109416999796,None,death,34,42,sing,blue,262.8110672000039,None,None,262.8110672000039,None,,,,,,,,,,,,,,,,,,,,,,,,,,,,,,,,,,,128 S,001,2023_Sep_21_1332,ProdSingRedoBetween,2021.2.3,59.96429726478077,
42,0,42,0,,,,,,,,,,,,,,,,,,,,,,,,,,267.3134289000009,None,fight,62,43,sing,red,265.31260029997793,None,None,265.31260029997793,None,,,,,,,,,,,,,,,,,,,,,,,,,,,,,,,,,,,128 S,001,2023_Sep_21_1332,ProdSingRedoBetween,2021.2.3,59.96429726478077,
43,0,43,0,,,,,,,,,,,,,,,,,,,,,,,,,,269.8324347999878,None,engineer,3,44,sing,yellow,267.8318891999952,None,None,267.8318891999952,None,,,,,,,,,,,,,,,,,,,,,,,,,,,,,,,,,,,128 S,001,2023_Sep_21_1332,ProdSingRedoBetween,2021.2.3,59.96429726478077,
44,0,44,0,,,,,,,,,,,,,,,,,,,,,,,,,,272.33493449998787,None,pressure,2,45,sing,yellow,270.33314289999544,None,None,270.33314289999544,None,,,,,,,,,,,,,,,,,,,,,,,,,,,,,,,,,,,128 S,001,2023_Sep_21_1332,ProdSingRedoBetween,2021.2.3,59.96429726478077,
45,0,45,0,,,,,,,,,,,,,,,,,,,,,,,,,,274.837466500001,None,guide,11,46,sing,yellow,272.8358158999763,None,None,272.8358158999763,None,,,,,,,,,,,,,,,,,,,,,,,,,,,,,,,,,,,128 S,001,2023_Sep_21_1332,ProdSingRedoBetween,2021.2.3,59.96429726478077,
46,0,46,0,,,,,,,,,,,,,,,,,,,,,,,,,,277.34000169998035,None,impact,70,47,sing,red,275.33927369999583,None,None,275.33927369999583,None,,,,,,,,,,,,,,,,,,,,,,,,,,,,,,,,,,,128 S,001,2023_Sep_21_1332,ProdSingRedoBetween,2021.2.3,59.96429726478077,
47,0,47,0,,,,,,,,,,,,,,,,,,,,,,,,,,279.8428012999939,None,clean,53,48,sing,blue,277.8411526999844,None,None,277.8411526999844,None,,,,,,,,,,,,,,,,,,,,,,,,,,,,,,,,,,,128 S,001,2023_Sep_21_1332,ProdSingRedoBetween,2021.2.3,59.96429726478077,
48,0,48,0,,,,,,,,,,,,,,,,,,,,,,,,,,282.3451449999993,None,taste,57,49,sing,blue,280.3443696000031,None,None,280.3443696000031,None,,,,,,,,,,,,,,,,,,,,,,,,,,,,,,,,,,,128 S,001,2023_Sep_21_1332,ProdSingRedoBetween,2021.2.3,59.96429726478077,
49,0,49,0,,,,,,,,,,,,,,,,,,,,,,,,,,284.86435459999484,None,collection,72,50,sing,red,282.85056549997535,None,None,282.85056549997535,None,,,,,,,,,,,,,,,,,,,,,,,,,,,,,,,,,,,128 S,001,2023_Sep_21_1332,ProdSingRedoBetween,2021.2.3,59.96429726478077,
50,0,50,0,,,,,,,,,,,,,,,,,,,,,,,,,,287.36677500000224,None,weight,46,51,sing,blue,285.3671566999983,None,None,285.3671566999983,None,,,,,,,,,,,,,,,,,,,,,,,,,,,,,,,,,,,128 S,001,2023_Sep_21_1332,ProdSingRedoBetween,2021.2.3,59.96429726478077,
51,0,51,0,,,,,,,,,,,,,,,,,,,,,,,,,,289.86906209998415,None,account,44,52,sing,blue,287.8671520999924,None,None,287.8671520999924,None,,,,,,,,,,,,,,,,,,,,,,,,,,,,,,,,,,,128 S,001,2023_Sep_21_1332,ProdSingRedoBetween,2021.2.3,59.96429726478077,
52,0,52,0,,,,,,,,,,,,,,,,,,,,,,,,,,292.3884431999759,None,quantity,25,53,sing,yellow,290.3733379999758,None,None,290.3733379999758,None,,,,,,,,,,,,,,,,,,,,,,,,,,,,,,,,,,,128 S,001,2023_Sep_21_1332,ProdSingRedoBetween,2021.2.3,59.96429726478077,
53,0,53,0,,,,,,,,,,,,,,,,,,,,,,,,,,294.89120549999643,None,author,78,54,sing,red,292.8890705999802,None,None,292.8890705999802,None,,,,,,,,,,,,,,,,,,,,,,,,,,,,,,,,,,,128 S,001,2023_Sep_21_1332,ProdSingRedoBetween,2021.2.3,59.96429726478077,
54,0,54,0,,,,,,,,,,,,,,,,,,,,,,,,,,297.39369850000367,None,agreement,13,55,sing,yellow,295.3944354999985,None,None,295.3944354999985,None,,,,,,,,,,,,,,,,,,,,,,,,,,,,,,,,,,,128 S,001,2023_Sep_21_1332,ProdSingRedoBetween,2021.2.3,59.96429726478077,
55,0,55,0,,,,,,,,,,,,,,,,,,,,,,,,,,299.9129737999756,None,state,24,56,sing,yellow,297.90729740000097,None,None,297.90729740000097,None,,,,,,,,,,,,,,,,,,,,,,,,,,,,,,,,,,,128 S,001,2023_Sep_21_1332,ProdSingRedoBetween,2021.2.3,59.96429726478077,
56,0,56,0,,,,,,,,,,,,,,,,,,,,,,,,,,302.4150352999859,None,passage,88,57,sing,red,300.413301099994,None,None,300.413301099994,None,,,,,,,,,,,,,,,,,,,,,,,,,,,,,,,,,,,128 S,001,2023_Sep_21_1332,ProdSingRedoBetween,2021.2.3,59.96429726478077,
57,0,57,0,,,,,,,,,,,,,,,,,,,,,,,,,,304.93419979998725,None,worker,33,58,sing,blue,302.9188191999856,None,None,302.9188191999856,None,,,,,,,,,,,,,,,,,,,,,,,,,,,,,,,,,,,128 S,001,2023_Sep_21_1332,ProdSingRedoBetween,2021.2.3,59.96429726478077,
58,0,58,0,,,,,,,,,,,,,,,,,,,,,,,,,,307.4368515999813,None,oxygen,27,59,sing,yellow,305.4350231999997,None,None,305.4350231999997,None,,,,,,,,,,,,,,,,,,,,,,,,,,,,,,,,,,,128 S,001,2023_Sep_21_1332,ProdSingRedoBetween,2021.2.3,59.96429726478077,
59,0,59,0,,,,,,,,,,,,,,,,,,,,,,,,,,309.93914409997524,None,vision,81,60,sing,red,307.93929539999226,None,None,307.93929539999226,None,,,,,,,,,,,,,,,,,,,,,,,,,,,,,,,,,,,128 S,001,2023_Sep_21_1332,ProdSingRedoBetween,2021.2.3,59.96429726478077,
60,0,60,0,,,,,,,,,,,,,,,,,,,,,,,,,,312.44191299998784,None,chief,47,61,sing,blue,310.44146279999404,None,None,310.44146279999404,None,,,,,,,,,,,,,,,,,,,,,,,,,,,,,,,,,,,128 S,001,2023_Sep_21_1332,ProdSingRedoBetween,2021.2.3,59.96429726478077,
61,0,61,0,,,,,,,,,,,,,,,,,,,,,,,,,,314.94440909998957,None,range,79,62,sing,red,312.94476539999596,None,None,312.94476539999596,None,,,,,,,,,,,,,,,,,,,,,,,,,,,,,,,,,,,128 S,001,2023_Sep_21_1332,ProdSingRedoBetween,2021.2.3,59.96429726478077,
62,0,62,0,,,,,,,,,,,,,,,,,,,,,,,,,,317.46384419998503,None,season,56,63,sing,blue,315.4611941000039,None,None,315.4611941000039,None,,,,,,,,,,,,,,,,,,,,,,,,,,,,,,,,,,,128 S,001,2023_Sep_21_1332,ProdSingRedoBetween,2021.2.3,59.96429726478077,
63,0,63,0,,,,,,,,,,,,,,,,,,,,,,,,,,319.98270500000217,None,instrument,1,64,sing,yellow,317.96719100000337,None,None,317.96719100000337,None,,,,,,,,,,,,,,,,,,,,,,,,,,,,,,,,,,,128 S,001,2023_Sep_21_1332,ProdSingRedoBetween,2021.2.3,59.96429726478077,
64,0,64,0,,,,,,,,,,,,,,,,,,,,,,,,,,322.48515799999586,None,empty,31,65,sing,blue,320.4831918999844,None,None,320.4831918999844,None,,,,,,,,,,,,,,,,,,,,,,,,,,,,,,,,,,,128 S,001,2023_Sep_21_1332,ProdSingRedoBetween,2021.2.3,59.96429726478077,
65,0,65,0,,,,,,,,,,,,,,,,,,,,,,,,,,324.9876869999862,None,bureau,63,66,sing,red,322.98648319998756,None,None,322.98648319998756,None,,,,,,,,,,,,,,,,,,,,,,,,,,,,,,,,,,,128 S,001,2023_Sep_21_1332,ProdSingRedoBetween,2021.2.3,59.96429726478077,
66,0,66,0,,,,,,,,,,,,,,,,,,,,,,,,,,327.4901359999785,None,entrance,68,67,sing,red,325.49027999999817,None,None,325.49027999999817,None,,,,,,,,,,,,,,,,,,,,,,,,,,,,,,,,,,,128 S,001,2023_Sep_21_1332,ProdSingRedoBetween,2021.2.3,59.96429726478077,
67,0,67,0,,,,,,,,,,,,,,,,,,,,,,,,,,330.00942190000205,None,blind,45,68,sing,blue,328.0042370999872,None,None,328.0042370999872,None,,,,,,,,,,,,,,,,,,,,,,,,,,,,,,,,,,,128 S,001,2023_Sep_21_1332,ProdSingRedoBetween,2021.2.3,59.96429726478077,
68,0,68,0,,,,,,,,,,,,,,,,,,,,,,,,,,332.51190049998695,None,mankind,6,69,sing,yellow,330.5098163999792,None,None,330.5098163999792,None,,,,,,,,,,,,,,,,,,,,,,,,,,,,,,,,,,,128 S,001,2023_Sep_21_1332,ProdSingRedoBetween,2021.2.3,59.96429726478077,
69,0,69,0,,,,,,,,,,,,,,,,,,,,,,,,,,335.0142304000037,None,enemy,0,70,sing,yellow,333.01329889998306,None,None,333.01329889998306,None,,,,,,,,,,,,,,,,,,,,,,,,,,,,,,,,,,,128 S,001,2023_Sep_21_1332,ProdSingRedoBetween,2021.2.3,59.96429726478077,
70,0,70,0,,,,,,,,,,,,,,,,,,,,,,,,,,337.5170236999984,None,opening,5,71,sing,yellow,335.51601739999023,None,None,335.51601739999023,None,,,,,,,,,,,,,,,,,,,,,,,,,,,,,,,,,,,128 S,001,2023_Sep_21_1332,ProdSingRedoBetween,2021.2.3,59.96429726478077,
71,0,71,0,,,,,,,,,,,,,,,,,,,,,,,,,,340.03586549998727,None,attack,41,72,sing,blue,338.02170929999556,None,None,338.02170929999556,None,,,,,,,,,,,,,,,,,,,,,,,,,,,,,,,,,,,128 S,001,2023_Sep_21_1332,ProdSingRedoBetween,2021.2.3,59.96429726478077,
72,0,72,0,,,,,,,,,,,,,,,,,,,,,,,,,,342.5384008999972,None,congress,75,73,sing,red,340.53701400000136,None,None,340.53701400000136,None,,,,,,,,,,,,,,,,,,,,,,,,,,,,,,,,,,,128 S,001,2023_Sep_21_1332,ProdSingRedoBetween,2021.2.3,59.96429726478077,
73,0,73,0,,,,,,,,,,,,,,,,,,,,,,,,,,345.0411485999939,None,poetry,87,74,sing,red,343.04034129998763,None,None,343.04034129998763,None,,,,,,,,,,,,,,,,,,,,,,,,,,,,,,,,,,,128 S,001,2023_Sep_21_1332,ProdSingRedoBetween,2021.2.3,59.96429726478077,
74,0,74,0,,,,,,,,,,,,,,,,,,,,,,,,,,347.560298700002,None,contract,49,75,sing,blue,345.54586709997966,None,None,345.54586709997966,None,,,,,,,,,,,,,,,,,,,,,,,,,,,,,,,,,,,128 S,001,2023_Sep_21_1332,ProdSingRedoBetween,2021.2.3,59.96429726478077,
75,0,75,0,,,,,,,,,,,,,,,,,,,,,,,,,,350.0798583999858,None,point,55,76,sing,blue,348.07355010000174,None,None,348.07355010000174,None,,,,,,,,,,,,,,,,,,,,,,,,,,,,,,,,,,,128 S,001,2023_Sep_21_1332,ProdSingRedoBetween,2021.2.3,59.96429726478077,
76,0,76,0,,,,,,,,,,,,,,,,,,,,,,,,,,352.581902099977,None,running,71,77,sing,red,350.5797464999778,None,None,350.5797464999778,None,,,,,,,,,,,,,,,,,,,,,,,,,,,,,,,,,,,128 S,001,2023_Sep_21_1332,ProdSingRedoBetween,2021.2.3,59.96429726478077,
77,0,77,0,,,,,,,,,,,,,,,,,,,,,,,,,,355.08458679998876,None,growth,12,78,sing,yellow,353.08412549999775,None,None,353.08412549999775,None,,,,,,,,,,,,,,,,,,,,,,,,,,,,,,,,,,,128 S,001,2023_Sep_21_1332,ProdSingRedoBetween,2021.2.3,59.96429726478077,
78,0,78,0,,,,,,,,,,,,,,,,,,,,,,,,,,357.5868813999987,None,threat,76,79,sing,red,355.58747009999934,None,None,355.58747009999934,None,,,,,,,,,,,,,,,,,,,,,,,,,,,,,,,,,,,128 S,001,2023_Sep_21_1332,ProdSingRedoBetween,2021.2.3,59.96429726478077,
79,0,79,0,,,,,,,,,,,,,,,,,,,,,,,,,,360.08933679998154,None,piece,86,80,sing,red,358.0901414999971,None,None,358.0901414999971,None,,,,,,,,,,,,,,,,,,,,,,,,,,,,,,,,,,,128 S,001,2023_Sep_21_1332,ProdSingRedoBetween,2021.2.3,59.96429726478077,
80,0,80,0,,,,,,,,,,,,,,,,,,,,,,,,,,362.60886259999825,None,store,84,81,sing,red,360.6009047999978,None,None,360.6009047999978,None,,,,,,,,,,,,,,,,,,,,,,,,,,,,,,,,,,,128 S,001,2023_Sep_21_1332,ProdSingRedoBetween,2021.2.3,59.96429726478077,
81,0,81,0,,,,,,,,,,,,,,,,,,,,,,,,,,365.1108307999966,None,property,66,82,sing,red,363.11115909999353,None,None,363.11115909999353,None,,,,,,,,,,,,,,,,,,,,,,,,,,,,,,,,,,,128 S,001,2023_Sep_21_1332,ProdSingRedoBetween,2021.2.3,59.96429726478077,
82,0,82,0,,,,,,,,,,,,,,,,,,,,,,,,,,367.61436720000347,None,bucket,26,83,sing,yellow,365.61297689998173,None,None,365.61297689998173,None,,,,,,,,,,,,,,,,,,,,,,,,,,,,,,,,,,,128 S,001,2023_Sep_21_1332,ProdSingRedoBetween,2021.2.3,59.96429726478077,
83,0,83,0,,,,,,,,,,,,,,,,,,,,,,,,,,370.132887499989,None,incident,17,84,sing,yellow,368.12573829997564,None,None,368.12573829997564,None,,,,,,,,,,,,,,,,,,,,,,,,,,,,,,,,,,,128 S,001,2023_Sep_21_1332,ProdSingRedoBetween,2021.2.3,59.96429726478077,
84,0,84,0,,,,,,,,,,,,,,,,,,,,,,,,,,372.6521969999885,None,military,18,85,sing,yellow,370.63671759999124,None,None,370.63671759999124,None,,,,,,,,,,,,,,,,,,,,,,,,,,,,,,,,,,,128 S,001,2023_Sep_21_1332,ProdSingRedoBetween,2021.2.3,59.96429726478077,
85,0,85,0,,,,,,,,,,,,,,,,,,,,,,,,,,375.1545055999886,None,public,37,86,sing,blue,373.15278809997835,None,None,373.15278809997835,None,,,,,,,,,,,,,,,,,,,,,,,,,,,,,,,,,,,128 S,001,2023_Sep_21_1332,ProdSingRedoBetween,2021.2.3,59.96429726478077,
86,0,86,0,,,,,,,,,,,,,,,,,,,,,,,,,,377.6735193999775,None,suggestion,43,87,sing,blue,375.65841099998215,None,None,375.65841099998215,None,,,,,,,,,,,,,,,,,,,,,,,,,,,,,,,,,,,128 S,001,2023_Sep_21_1332,ProdSingRedoBetween,2021.2.3,59.96429726478077,
87,0,87,0,,,,,,,,,,,,,,,,,,,,,,,,,,380.17591749998974,None,short,42,88,sing,blue,378.17700899997726,None,None,378.17700899997726,None,,,,,,,,,,,,,,,,,,,,,,,,,,,,,,,,,,,128 S,001,2023_Sep_21_1332,ProdSingRedoBetween,2021.2.3,59.96429726478077,
88,0,88,0,,,,,,,,,,,,,,,,,,,,,,,,,,382.68028010000126,None,weather,38,89,sing,blue,380.6786781999981,None,None,380.6786781999981,None,,,,,,,,,,,,,,,,,,,,,,,,,,,,,,,,,,,128 S,001,2023_Sep_21_1332,ProdSingRedoBetween,2021.2.3,59.96429726478077,
89,0,89,0,,,,,,,,,,,,,,,,,,,,,,,,,,385.19807499999297,None,shock,52,90,sing,blue,383.1838606999954,None,None,383.1838606999954,None,,,,,,,,,,,,,,,,,,,,,,,,,,,,,,,,,,,128 S,001,2023_Sep_21_1332,ProdSingRedoBetween,2021.2.3,59.96429726478077,
,,,,,,,,,,,,,,,,,,,,,,,,,,,,,,,,,,,,,,,,,385.69855159998406,None,k,6.68722429999616,385.69855159998406,None,,,,,,,,,,,,,,,,,,,,,,,,,,,,,128 S,001,2023_Sep_21_1332,ProdSingRedoBetween,2021.2.3,59.96429726478077,
,,,,0,0,0,0,,,,,,,,,,,,,,,,,,,,,,559.3229438999842,None,,,,,,,,,,,,,,,,,budget,91,1,sing,new,null,392.92567119997693,None,392.92567119997693,None,5,88.84388149998267,392.92567119997693,None,88.84388149998267,481.80150119998143,None,482.3113631999877,None,482.3113631999877,None,f,76.99414599998272,482.3113631999877,None,76.99414599998272,,,128 S,001,2023_Sep_21_1332,ProdSingRedoBetween,2021.2.3,59.96429726478077,
,,,,1,0,1,0,,,,,,,,,,,,,,,,,,,,,,571.9255048999912,None,,,,,,,,,,,,,,,,,working,95,2,sing,new,null,559.8294138999772,None,559.8294138999772,None,4,7.556070199992973,559.8294138999772,None,7.556070199992973,567.4148975999851,None,567.9148461000004,None,567.9148461000004,None,f,3.9747502999962308,567.9148461000004,None,3.9747502999962308,,,128 S,001,2023_Sep_21_1332,ProdSingRedoBetween,2021.2.3,59.96429726478077,
,,,,2,0,2,0,,,,,,,,,,,,,,,,,,,,,,577.910001399985,None,,,,,,,,,,,,,,,,,point,55,3,sing,old,blue,572.4369961999764,None,572.4369961999764,None,5,3.0526313000009395,572.4369961999764,None,3.0526313000009395,575.536697100004,None,576.0388279999897,None,576.0388279999897,None,f,1.850961100019049,576.0388279999897,None,1.850961100019049,,,128 S,001,2023_Sep_21_1332,ProdSingRedoBetween,2021.2.3,59.96429726478077,
,,,,3,0,3,0,,,,,,,,,,,,,,,,,,,,,,586.067315799999,None,,,,,,,,,,,,,,,,,height,20,4,sing,old,yellow,578.4272309999797,None,578.4272309999797,None,4,4.894322600011947,578.4272309999797,None,4.894322600011947,583.3528621000005,None,583.8638690999942,None,583.8638690999942,None,f,2.185644700017292,583.8638690999942,None,2.185644700017292,,,128 S,001,2023_Sep_21_1332,ProdSingRedoBetween,2021.2.3,59.96429726478077,
,,,,4,0,4,0,,,,,,,,,,,,,,,,,,,,,,592.1031785999949,None,,,,,,,,,,,,,,,,,stranger,23,5,sing,old,yellow,586.5836017999973,None,586.5836017999973,None,4,3.4899158000189345,586.5836017999973,None,3.4899158000189345,590.1056950999773,None,590.6195205999829,None,590.6195205999829,None,f,1.4460094000096433,590.6195205999829,None,1.4460094000096433,,,128 S,001,2023_Sep_21_1332,ProdSingRedoBetween,2021.2.3,59.96429726478077,
,,,,5,0,5,0,,,,,,,,,,,,,,,,,,,,,,599.8964935999829,None,,,,,,,,,,,,,,,,,recall,169,6,sing,new,null,592.6052108999866,None,592.6052108999866,None,2,4.092329199978849,592.6052108999866,None,4.092329199978849,596.7275403999956,None,597.2282463999873,None,597.2282463999873,None,n,2.6374352000129875,597.2282463999873,None,2.6374352000129875,,,128 S,001,2023_Sep_21_1332,ProdSingRedoBetween,2021.2.3,59.96429726478077,
,,,,6,0,6,0,,,,,,,,,,,,,,,,,,,,,,608.0299643999897,None,,,,,,,,,,,,,,,,,bureau,63,7,sing,old,red,600.3978999999817,None,600.3978999999817,None,6,4.787608799990267,600.3978999999817,None,4.787608799990267,605.2026190999895,None,605.7181047999766,None,605.7181047999766,None,r,2.2836775000032503,605.7181047999766,None,2.2836775000032503,,,128 S,001,2023_Sep_21_1332,ProdSingRedoBetween,2021.2.3,59.96429726478077,
,,,,7,0,7,0,,,,,,,,,,,,,,,,,,,,,,615.27933759999,None,,,,,,,,,,,,,,,,,split,4,8,sing,old,yellow,608.5552678999957,None,608.5552678999957,None,2,4.3982210000103805,608.5552678999957,None,4.3982210000103805,612.9784271999961,None,613.5001063999953,None,613.5001063999953,None,n,1.7493696000019554,613.5001063999953,None,1.7493696000019554,,,128 S,001,2023_Sep_21_1332,ProdSingRedoBetween,2021.2.3,59.96429726478077,
,,,,8,0,8,0,,,,,,,,,,,,,,,,,,,,,,621.5657804999792,None,,,,,,,,,,,,,,,,,carry,80,9,sing,old,red,615.7977900999831,None,615.7977900999831,None,4,2.3398762999859173,615.7977900999831,None,2.3398762999859173,618.1659836999897,None,618.6866880999878,None,618.6866880999878,None,f,2.8428078000142705,618.6866880999878,None,2.8428078000142705,,,128 S,001,2023_Sep_21_1332,ProdSingRedoBetween,2021.2.3,59.96429726478077,
,,,,9,0,9,0,,,,,,,,,,,,,,,,,,,,,,628.7914384999895,None,,,,,,,,,,,,,,,,,broad,171,10,sing,new,null,622.0809198999777,None,622.0809198999777,None,5,3.720598500018241,622.0809198999777,None,3.720598500018241,625.8276268999907,None,626.3390958999807,None,626.3390958999807,None,n,2.4224118000129238,626.3390958999807,None,2.4224118000129238,,,128 S,001,2023_Sep_21_1332,ProdSingRedoBetween,2021.2.3,59.96429726478077,
,,,,10,0,10,0,,,,,,,,,,,,,,,,,,,,,,637.500366399996,None,,,,,,,,,,,,,,,,,institute,15,11,sing,old,yellow,629.301865299989,None,629.301865299989,None,6,5.243609800003469,629.301865299989,None,5.243609800003469,634.5664086999896,None,635.080758199998,None,635.080758199998,None,r,2.3927707000111695,635.080758199998,None,2.3927707000111695,,,128 S,001,2023_Sep_21_1332,ProdSingRedoBetween,2021.2.3,59.96429726478077,
,,,,11,0,11,0,,,,,,,,,,,,,,,,,,,,,,643.856297899998,None,,,,,,,,,,,,,,,,,tough,96,12,sing,new,null,638.0171809000021,None,638.0171809000021,None,2,2.81627720000688,638.0171809000021,None,2.81627720000688,640.858298999985,None,641.3702113000036,None,641.3702113000036,None,n,2.463299700000789,641.3702113000036,None,2.463299700000789,,,128 S,001,2023_Sep_21_1332,ProdSingRedoBetween,2021.2.3,59.96429726478077,
,,,,12,0,12,0,,,,,,,,,,,,,,,,,,,,,,648.5440316000022,None,,,,,,,,,,,,,,,,,review,94,13,sing,new,null,644.3599546999903,None,644.3599546999903,None,1,2.3137453999952413,644.3599546999903,None,2.3137453999952413,646.6960961000004,None,647.2099640999804,None,647.2099640999804,None,n,1.3115392999898177,647.2099640999804,None,1.3115392999898177,,,128 S,001,2023_Sep_21_1332,ProdSingRedoBetween,2021.2.3,59.96429726478077,
,,,,13,0,13,0,,,,,,,,,,,,,,,,,,,,,,654.6509213999962,None,,,,,,,,,,,,,,,,,mankind,6,14,sing,old,yellow,649.0478515999857,None,649.0478515999857,None,6,3.2817028000135906,649.0478515999857,None,3.2817028000135906,652.3508643999812,None,652.868501399993,None,652.868501399993,None,r,1.7569701000174973,652.868501399993,None,1.7569701000174973,,,128 S,001,2023_Sep_21_1332,ProdSingRedoBetween,2021.2.3,59.96429726478077,
,,,,14,0,14,0,,,,,,,,,,,,,,,,,,,,,,662.2593854999868,None,,,,,,,,,,,,,,,,,symbol,178,15,sing,new,null,655.1538355999801,None,655.1538355999801,None,3,3.6716897999867797,655.1538355999801,None,3.6716897999867797,658.8562918999814,None,659.3722501999873,None,659.3722501999873,None,f,2.869300199992722,659.3722501999873,None,2.869300199992722,,,128 S,001,2023_Sep_21_1332,ProdSingRedoBetween,2021.2.3,59.96429726478077,
,,,,15,0,15,0,,,,,,,,,,,,,,,,,,,,,,667.8819984000002,None,,,,,,,,,,,,,,,,,military,18,16,sing,old,yellow,662.7609953999927,None,662.7609953999927,None,6,2.5765138000133447,662.7609953999927,None,2.5765138000133447,665.3643126999959,None,665.8781107999966,None,665.8781107999966,None,r,1.9714282999921124,665.8781107999966,None,1.9714282999921124,,,128 S,001,2023_Sep_21_1332,ProdSingRedoBetween,2021.2.3,59.96429726478077,
,,,,16,0,16,0,,,,,,,,,,,,,,,,,,,,,,673.8846833999851,None,,,,,,,,,,,,,,,,,oxygen,27,17,sing,old,yellow,668.3987054000027,None,668.3987054000027,None,6,3.1067374999984168,668.3987054000027,None,3.1067374999984168,671.5361502000014,None,672.050822899997,None,672.050822899997,None,r,1.7986521999991965,672.050822899997,None,1.7986521999991965,,,128 S,001,2023_Sep_21_1332,ProdSingRedoBetween,2021.2.3,59.96429726478077,
,,,,17,0,17,0,,,,,,,,,,,,,,,,,,,,,,682.6970669000002,None,,,,,,,,,,,,,,,,,clean,53,18,sing,old,blue,674.3942249999964,None,674.3942249999964,None,6,4.783271899999818,674.3942249999964,None,4.783271899999818,679.2097247999918,None,679.725217899977,None,679.725217899977,None,r,2.9484731999982614,679.725217899977,None,2.9484731999982614,,,128 S,001,2023_Sep_21_1332,ProdSingRedoBetween,2021.2.3,59.96429726478077,
,,,,18,0,18,0,,,,,,,,,,,,,,,,,,,,,,692.6723151999759,None,,,,,,,,,,,,,,,,,spoke,167,19,sing,new,null,683.2137806999963,None,683.2137806999963,None,4,7.227710900013335,683.2137806999963,None,7.227710900013335,690.4728408999799,None,690.9870241000026,None,690.9870241000026,None,f,1.6544489999942016,690.9870241000026,None,1.6544489999942016,,,128 S,001,2023_Sep_21_1332,ProdSingRedoBetween,2021.2.3,59.96429726478077,
,,,,19,0,19,0,,,,,,,,,,,,,,,,,,,,,,696.5433705000032,None,,,,,,,,,,,,,,,,,contract,49,20,sing,old,blue,693.1900984999957,None,693.1900984999957,None,6,1.6835479000001214,693.1900984999957,None,1.6835479000001214,694.8933529999922,None,695.4076724999759,None,695.4076724999759,None,r,1.113867800013395,695.4076724999759,None,1.113867800013395,,,128 S,001,2023_Sep_21_1332,ProdSingRedoBetween,2021.2.3,59.96429726478077,
,,,,20,0,20,0,,,,,,,,,,,,,,,,,,,,,,705.1018939999922,None,,,,,,,,,,,,,,,,,store,84,21,sing,old,red,697.0450811999908,None,697.0450811999908,None,4,3.948359400004847,697.0450811999908,None,3.948359400004847,701.0189650999964,None,701.5447840999987,None,701.5447840999987,None,f,3.5369737000146415,701.5447840999987,None,3.5369737000146415,,,128 S,001,2023_Sep_21_1332,ProdSingRedoBetween,2021.2.3,59.96429726478077,
,,,,21,0,21,0,,,,,,,,,,,,,,,,,,,,,,710.0570678999939,None,,,,,,,,,,,,,,,,,range,79,22,sing,old,red,705.60326969999,None,705.60326969999,None,4,2.6142781999951694,705.60326969999,None,2.6142781999951694,708.2412302999874,None,708.7542160000012,None,708.7542160000012,None,f,1.271298100007698,708.7542160000012,None,1.271298100007698,,,128 S,001,2023_Sep_21_1332,ProdSingRedoBetween,2021.2.3,59.96429726478077,
,,,,22,0,22,0,,,,,,,,,,,,,,,,,,,,,,720.0669205999875,None,,,,,,,,,,,,,,,,,entrance,68,23,sing,old,red,710.558838099998,None,710.558838099998,None,3,6.722738500015112,710.558838099998,None,6.722738500015112,717.3146537999855,None,717.8299239999906,None,717.8299239999906,None,f,2.219586099992739,717.8299239999906,None,2.219586099992739,,,128 S,001,2023_Sep_21_1332,ProdSingRedoBetween,2021.2.3,59.96429726478077,
,,,,23,0,23,0,,,,,,,,,,,,,,,,,,,,,,725.4863099999784,None,,,,,,,,,,,,,,,,,collection,72,24,sing,old,red,720.5674827999901,None,720.5674827999901,None,2,3.2100012000009883,720.5674827999901,None,3.2100012000009883,723.8068755999848,None,724.3197757999878,None,724.3197757999878,None,n,1.1297257000114769,724.3197757999878,None,1.1297257000114769,,,128 S,001,2023_Sep_21_1332,ProdSingRedoBetween,2021.2.3,59.96429726478077,
,,,,24,0,24,0,,,,,,,,,,,,,,,,,,,,,,729.8100368999876,None,,,,,,,,,,,,,,,,,under,141,25,sing,new,null,725.9881938000035,None,725.9881938000035,None,1,2.165354299999308,725.9881938000035,None,2.165354299999308,728.1760621999856,None,728.6984480999818,None,728.6984480999818,None,n,1.0872549000196159,728.6984480999818,None,1.0872549000196159,,,128 S,001,2023_Sep_21_1332,ProdSingRedoBetween,2021.2.3,59.96429726478077,
,,,,25,0,25,0,,,,,,,,,,,,,,,,,,,,,,735.7485452999827,None,,,,,,,,,,,,,,,,,waste,160,26,sing,new,null,730.3116174000024,None,730.3116174000024,None,3,3.634157300024526,730.3116174000024,None,3.634157300024526,733.9660928999947,None,734.4800792000024,None,734.4800792000024,None,f,1.241365699999733,734.4800792000024,None,1.241365699999733,,,128 S,001,2023_Sep_21_1332,ProdSingRedoBetween,2021.2.3,59.96429726478077,
,,,,26,0,26,0,,,,,,,,,,,,,,,,,,,,,,740.354353200004,None,,,,,,,,,,,,,,,,,death,34,27,sing,old,blue,736.2505931999767,None,736.2505931999767,None,1,2.2069793999835383,736.2505931999767,None,2.2069793999835383,738.4870789999841,None,739.0010341999878,None,739.0010341999878,None,n,1.3365134999912698,739.0010341999878,None,1.3365134999912698,,,128 S,001,2023_Sep_21_1332,ProdSingRedoBetween,2021.2.3,59.96429726478077,
,,,,27,0,27,0,,,,,,,,,,,,,,,,,,,,,,744.7722684999753,None,,,,,,,,,,,,,,,,,property,66,28,sing,old,red,740.8844590999943,None,740.8844590999943,None,6,1.8289770999981556,740.8844590999943,None,1.8289770999981556,742.7419236999995,None,743.255474399979,None,743.255474399979,None,r,1.482270900014555,743.255474399979,None,1.482270900014555,,,128 S,001,2023_Sep_21_1332,ProdSingRedoBetween,2021.2.3,59.96429726478077,
,,,,28,0,28,0,,,,,,,,,,,,,,,,,,,,,,748.6943588999857,None,,,,,,,,,,,,,,,,,junior,156,29,sing,new,null,745.3023913999787,None,745.3023913999787,None,1,1.6911938000121154,745.3023913999787,None,1.6911938000121154,747.0177510999783,None,747.5264038000023,None,747.5264038000023,None,n,1.1391243000107352,747.5264038000023,None,1.1391243000107352,,,128 S,001,2023_Sep_21_1332,ProdSingRedoBetween,2021.2.3,59.96429726478077,
,,,,29,0,29,0,,,,,,,,,,,,,,,,,,,,,,754.0003089999955,None,,,,,,,,,,,,,,,,,frank,109,30,sing,new,null,749.1984001999954,None,749.1984001999954,None,1,3.091076200013049,749.1984001999954,None,3.091076200013049,752.3182080999832,None,752.8351614999992,None,752.8351614999992,None,n,1.1423404000233859,752.8351614999992,None,1.1423404000233859,,,128 S,001,2023_Sep_21_1332,ProdSingRedoBetween,2021.2.3,59.96429726478077,
,,,,30,0,30,0,,,,,,,,,,,,,,,,,,,,,,759.9718041000015,None,,,,,,,,,,,,,,,,,alert,60,31,sing,old,red,754.5017141999851,None,754.5017141999851,None,6,3.755782000022009,754.5017141999851,None,3.755782000022009,758.2889462999883,None,758.804209599999,None,758.804209599999,None,r,1.1494399999792222,758.804209599999,None,1.1494399999792222,,,128 S,001,2023_Sep_21_1332,ProdSingRedoBetween,2021.2.3,59.96429726478077,
,,,,31,0,31,0,,,,,,,,,,,,,,,,,,,,,,764.927027400001,None,,,,,,,,,,,,,,,,,distance,21,32,sing,old,yellow,760.4752402000013,None,760.4752402000013,None,6,1.974238199996762,760.4752402000013,None,1.974238199996762,762.479208499979,None,762.992185799987,None,762.992185799987,None,r,1.9053146000078414,762.992185799987,None,1.9053146000078414,,,128 S,001,2023_Sep_21_1332,ProdSingRedoBetween,2021.2.3,59.96429726478077,
,,,,32,0,32,0,,,,,,,,,,,,,,,,,,,,,,769.6989188999869,None,,,,,,,,,,,,,,,,,account,44,33,sing,old,blue,765.4292843999865,None,765.4292843999865,None,6,2.6363255999749526,765.4292843999865,None,2.6363255999749526,768.099029999983,None,768.6140963999787,None,768.6140963999787,None,r,1.067714500008151,768.6140963999787,None,1.067714500008151,,,128 S,001,2023_Sep_21_1332,ProdSingRedoBetween,2021.2.3,59.96429726478077,
,,,,33,0,33,0,,,,,,,,,,,,,,,,,,,,,,772.8863136,None,,,,,,,,,,,,,,,,,south,128,34,sing,new,null,770.2022504999768,None,770.2022504999768,None,1,1.255176599981496,770.2022504999768,None,1.255176599981496,771.4867952999775,None,772.0010761999874,None,772.0010761999874,None,n,0.86433300000499,772.0010761999874,None,0.86433300000499,,,128 S,001,2023_Sep_21_1332,ProdSingRedoBetween,2021.2.3,59.96429726478077,
,,,,34,0,34,0,,,,,,,,,,,,,,,,,,,,,,777.7070484999858,None,,,,,,,,,,,,,,,,,thing,134,35,sing,new,null,773.387238299998,None,773.387238299998,None,3,2.358218500012299,773.387238299998,None,2.358218500012299,775.7730954999861,None,776.2889318999951,None,776.2889318999951,None,n,1.4007088000071235,776.2889318999951,None,1.4007088000071235,,,128 S,001,2023_Sep_21_1332,ProdSingRedoBetween,2021.2.3,59.96429726478077,
,,,,35,0,35,0,,,,,,,,,,,,,,,,,,,,,,787.8333550999814,None,,,,,,,,,,,,,,,,,strength,98,36,sing,new,null,778.2095331999881,None,778.2095331999881,None,3,7.911905999993905,778.2095331999881,None,7.911905999993905,786.1510962999891,None,786.6653631999798,None,786.6653631999798,None,f,1.1440920000022743,786.6653631999798,None,1.1440920000022743,,,128 S,001,2023_Sep_21_1332,ProdSingRedoBetween,2021.2.3,59.96429726478077,
,,,,36,0,36,0,,,,,,,,,,,,,,,,,,,,,,792.8897077000001,None,,,,,,,,,,,,,,,,,report,114,37,sing,new,null,788.3361159999913,None,788.3361159999913,None,4,2.721414100000402,788.3361159999913,None,2.721414100000402,791.0893953999912,None,791.6037576999806,None,791.6037576999806,None,f,1.2537365999887697,791.6037576999806,None,1.2537365999887697,,,128 S,001,2023_Sep_21_1332,ProdSingRedoBetween,2021.2.3,59.96429726478077,
,,,,37,0,37,0,,,,,,,,,,,,,,,,,,,,,,797.3601731999952,None,,,,,,,,,,,,,,,,,short,42,38,sing,old,blue,793.391214000003,None,793.391214000003,None,6,2.2021897999802604,793.391214000003,None,2.2021897999802604,795.6270806999819,None,796.1416622999823,None,796.1416622999823,None,r,1.1958344999875408,796.1416622999823,None,1.1958344999875408,,,128 S,001,2023_Sep_21_1332,ProdSingRedoBetween,2021.2.3,59.96429726478077,
,,,,38,0,38,0,,,,,,,,,,,,,,,,,,,,,,805.5680307000002,None,,,,,,,,,,,,,,,,,worker,33,39,sing,old,blue,797.8715611999796,None,797.8715611999796,None,3,5.801990500011016,797.8715611999796,None,5.801990500011016,803.7047672999906,None,804.2169198999763,None,804.2169198999763,None,f,1.328538000001572,804.2169198999763,None,1.328538000001572,,,128 S,001,2023_Sep_21_1332,ProdSingRedoBetween,2021.2.3,59.96429726478077,
,,,,39,0,39,0,,,,,,,,,,,,,,,,,,,,,,811.0236741999979,None,,,,,,,,,,,,,,,,,pattern,85,40,sing,old,red,806.0763840999862,None,806.0763840999862,None,4,3.245209299988346,806.0763840999862,None,3.245209299988346,809.3408949000004,None,809.8556145999755,None,809.8556145999755,None,f,1.14588910000748,809.8556145999755,None,1.14588910000748,,,128 S,001,2023_Sep_21_1332,ProdSingRedoBetween,2021.2.3,59.96429726478077,
,,,,40,0,40,0,,,,,,,,,,,,,,,,,,,,,,817.3815011999977,None,,,,,,,,,,,,,,,,,public,37,41,sing,old,blue,811.526159400004,None,811.526159400004,None,5,2.5552825999911875,811.526159400004,None,2.5552825999911875,814.1111239999882,None,814.6101953999896,None,814.6101953999896,None,f,2.751299800002016,814.6101953999896,None,2.751299800002016,,,128 S,001,2023_Sep_21_1332,ProdSingRedoBetween,2021.2.3,59.96429726478077,
,,,,41,0,41,0,,,,,,,,,,,,,,,,,,,,,,822.3220331999764,None,,,,,,,,,,,,,,,,,commercial,170,42,sing,new,null,817.9004260999791,None,817.9004260999791,None,6,2.8370837999973446,817.9004260999791,None,2.8370837999973446,820.7687535999867,None,821.283375799976,None,821.283375799976,None,f,1.0140184999909252,821.283375799976,None,1.0140184999909252,,,128 S,001,2023_Sep_21_1332,ProdSingRedoBetween,2021.2.3,59.96429726478077,
,,,,42,0,42,0,,,,,,,,,,,,,,,,,,,,,,829.6092417000036,None,,,,,,,,,,,,,,,,,quantity,25,43,sing,old,yellow,822.8368217999814,None,822.8368217999814,None,3,4.852802999987034,822.8368217999814,None,4.852802999987034,827.7089054999815,None,828.223920199991,None,828.223920199991,None,f,1.3617279999889433,828.223920199991,None,1.3617279999889433,,,128 S,001,2023_Sep_21_1332,ProdSingRedoBetween,2021.2.3,59.96429726478077,
,,,,43,0,43,0,,,,,,,,,,,,,,,,,,,,,,833.9799896999903,None,,,,,,,,,,,,,,,,,heavy,122,44,sing,new,null,830.1119554000034,None,830.1119554000034,None,1,2.1375043999869376,830.1119554000034,None,2.1375043999869376,832.2806955999986,None,832.7954663999844,None,832.7954663999844,None,n,1.166010799992364,832.7954663999844,None,1.166010799992364,,,128 S,001,2023_Sep_21_1332,ProdSingRedoBetween,2021.2.3,59.96429726478077,
,,,,44,0,44,0,,,,,,,,,,,,,,,,,,,,,,836.866802399978,None,,,,,,,,,,,,,,,,,skill,136,45,sing,new,null,834.482712099998,None,834.482712099998,None,1,1.2387746000022162,834.482712099998,None,1.2387746000022162,835.7527130999952,None,836.2651996999921,None,836.2651996999921,None,n,0.5762934999947902,836.2651996999921,None,0.5762934999947902,,,128 S,001,2023_Sep_21_1332,ProdSingRedoBetween,2021.2.3,59.96429726478077,
,,,,45,0,45,0,,,,,,,,,,,,,,,,,,,,,,842.1391633999883,None,,,,,,,,,,,,,,,,,science,175,46,sing,new,null,837.3683923999779,None,837.3683923999779,None,1,3.3211177999910433,837.3683923999779,None,3.3211177999910433,840.7237596999912,None,841.237132099981,None,841.237132099981,None,n,0.8763353000103962,841.237132099981,None,0.8763353000103962,,,128 S,001,2023_Sep_21_1332,ProdSingRedoBetween,2021.2.3,59.96429726478077,
,,,,46,0,46,0,,,,,,,,,,,,,,,,,,,,,,846.359415199986,None,,,,,,,,,,,,,,,,,damage,74,47,sing,old,red,842.6549309999973,None,842.6549309999973,None,4,2.2824488000187557,842.6549309999973,None,2.2824488000187557,844.9589970999805,None,845.4671836999769,None,845.4671836999769,None,f,0.8702958999783732,845.4671836999769,None,0.8702958999783732,,,128 S,001,2023_Sep_21_1332,ProdSingRedoBetween,2021.2.3,59.96429726478077,
,,,,47,0,47,0,,,,,,,,,,,,,,,,,,,,,,850.3593120999867,None,,,,,,,,,,,,,,,,,substance,177,48,sing,new,null,846.863740300003,None,846.863740300003,None,6,1.6018747000198346,846.863740300003,None,1.6018747000198346,848.5006413999945,None,849.0113217999751,None,849.0113217999751,None,r,1.3187426999793388,849.0113217999751,None,1.3187426999793388,,,128 S,001,2023_Sep_21_1332,ProdSingRedoBetween,2021.2.3,59.96429726478077,
,,,,48,0,48,0,,,,,,,,,,,,,,,,,,,,,,860.3392748999759,None,,,,,,,,,,,,,,,,,mayor,146,49,sing,new,null,850.8703757999756,None,850.8703757999756,None,1,3.6831222999899182,850.8703757999756,None,3.6831222999899182,854.5895208999864,None,855.1007936999958,None,855.1007936999958,None,n,5.212690600019414,855.1007936999958,None,5.212690600019414,,,128 S,001,2023_Sep_21_1332,ProdSingRedoBetween,2021.2.3,59.96429726478077,
,,,,49,0,49,0,,,,,,,,,,,,,,,,,,,,,,864.5782449999824,None,,,,,,,,,,,,,,,,,harmony,69,50,sing,old,red,860.8417686999892,None,860.8417686999892,None,6,1.7277116000186652,860.8417686999892,None,1.7277116000186652,862.5959213000024,None,863.1085784999887,None,863.1085784999887,None,r,1.4529192999762017,863.1085784999887,None,1.4529192999762017,,,128 S,001,2023_Sep_21_1332,ProdSingRedoBetween,2021.2.3,59.96429726478077,
,,,,50,0,50,0,,,,,,,,,,,,,,,,,,,,,,867.6969413999759,None,,,,,,,,,,,,,,,,,member,83,51,sing,old,red,865.078924899979,None,865.078924899979,None,6,1.6105707999959122,865.078924899979,None,1.6105707999959122,866.7162454999925,None,867.2292997999757,None,867.2292997999757,None,r,0.4361866000108421,867.2292997999757,None,0.4361866000108421,,,128 S,001,2023_Sep_21_1332,ProdSingRedoBetween,2021.2.3,59.96429726478077,
,,,,51,0,51,0,,,,,,,,,,,,,,,,,,,,,,872.516403799993,None,,,,,,,,,,,,,,,,,piece,86,52,sing,old,red,868.1995982999797,None,868.1995982999797,None,5,2.00187469998491,868.1995982999797,None,2.00187469998491,870.235714999988,None,870.7493895999796,None,870.7493895999796,None,f,1.732027799997013,870.7493895999796,None,1.732027799997013,,,128 S,001,2023_Sep_21_1332,ProdSingRedoBetween,2021.2.3,59.96429726478077,
,,,,52,0,52,0,,,,,,,,,,,,,,,,,,,,,,876.072085199994,None,,,,,,,,,,,,,,,,,testimony,116,53,sing,new,null,873.019996499992,None,873.019996499992,None,6,1.3736444999813102,873.019996499992,None,1.3736444999813102,874.422121999989,None,874.9422470999998,None,874.9422470999998,None,r,1.0992062999866903,874.9422470999998,None,1.0992062999866903,,,128 S,001,2023_Sep_21_1332,ProdSingRedoBetween,2021.2.3,59.96429726478077,
,,,,53,0,53,0,,,,,,,,,,,,,,,,,,,,,,881.8449947999907,None,,,,,,,,,,,,,,,,,crisis,100,54,sing,new,null,876.5746730999963,None,876.5746730999963,None,4,3.506769900006475,876.5746730999963,None,3.506769900006475,880.1111744999944,None,880.6257826999936,None,880.6257826999936,None,f,1.1917012000048999,880.6257826999936,None,1.1917012000048999,,,128 S,001,2023_Sep_21_1332,ProdSingRedoBetween,2021.2.3,59.96429726478077,
,,,,54,0,54,0,,,,,,,,,,,,,,,,,,,,,,886.8642398999946,None,,,,,,,,,,,,,,,,,fashion,36,55,sing,old,blue,882.3474729000009,None,882.3474729000009,None,6,1.710072299989406,882.3474729000009,None,1.710072299989406,884.0862053000019,None,884.5964805999829,None,884.5964805999829,None,f,2.2290487999853212,884.5964805999829,None,2.2290487999853212,,,128 S,001,2023_Sep_21_1332,ProdSingRedoBetween,2021.2.3,59.96429726478077,
,,,,55,0,55,0,,,,,,,,,,,,,,,,,,,,,,891.1551915000018,None,,,,,,,,,,,,,,,,,quiet,174,56,sing,new,null,887.3814033999806,None,887.3814033999806,None,4,2.2520796000026166,887.3814033999806,None,2.2520796000026166,889.6540046999871,None,890.1688828999759,None,890.1688828999759,None,f,0.9606175000080839,890.1688828999759,None,0.9606175000080839,,,128 S,001,2023_Sep_21_1332,ProdSingRedoBetween,2021.2.3,59.96429726478077,
,,,,56,0,56,0,,,,,,,,,,,,,,,,,,,,,,894.9484032999899,None,,,,,,,,,,,,,,,,,company,99,57,sing,new,null,891.6718390999886,None,891.6718390999886,None,6,1.3456442999886349,891.6718390999886,None,1.3456442999886349,893.0412837999756,None,893.5639034999767,None,893.5639034999767,None,r,1.3496249000017997,893.5639034999767,None,1.3496249000017997,,,128 S,001,2023_Sep_21_1332,ProdSingRedoBetween,2021.2.3,59.96429726478077,
,,,,57,0,57,0,,,,,,,,,,,,,,,,,,,,,,898.5274857999757,None,,,,,,,,,,,,,,,,,produce,164,58,sing,new,null,895.4614260999952,None,895.4614260999952,None,5,1.444092100020498,895.4614260999952,None,1.444092100020498,896.933643299999,None,897.4430520999886,None,897.4430520999886,None,f,1.0624241999757942,897.4430520999886,None,1.0624241999757942,,,128 S,001,2023_Sep_21_1332,ProdSingRedoBetween,2021.2.3,59.96429726478077,
,,,,58,0,58,0,,,,,,,,,,,,,,,,,,,,,,905.5020860999939,None,,,,,,,,,,,,,,,,,empty,31,59,sing,old,blue,899.0307814999833,None,899.0307814999833,None,5,1.4427318000234663,899.0307814999833,None,1.4427318000234663,900.4986383999931,None,901.0128836999938,None,901.0128836999938,None,f,4.4605179999780376,901.0128836999938,None,4.4605179999780376,,,128 S,001,2023_Sep_21_1332,ProdSingRedoBetween,2021.2.3,59.96429726478077,
,,,,59,0,59,0,,,,,,,,,,,,,,,,,,,,,,911.5929222999839,None,,,,,,,,,,,,,,,,,discussion,154,60,sing,new,null,906.0051931999915,None,906.0051931999915,None,5,3.9004754000052344,906.0051931999915,None,3.9004754000052344,909.936676399986,None,910.454534199991,None,910.454534199991,None,f,1.1070649000175763,910.454534199991,None,1.1070649000175763,,,128 S,001,2023_Sep_21_1332,ProdSingRedoBetween,2021.2.3,59.96429726478077,
,,,,60,0,60,0,,,,,,,,,,,,,,,,,,,,,,915.5761459999776,None,,,,,,,,,,,,,,,,,hunger,126,61,sing,new,null,912.1240667999955,None,912.1240667999955,None,6,1.701475500012748,912.1240667999955,None,1.701475500012748,913.8443006000016,None,914.3598766999785,None,914.3598766999785,None,r,1.1855880999937654,914.3598766999785,None,1.1855880999937654,,,128 S,001,2023_Sep_21_1332,ProdSingRedoBetween,2021.2.3,59.96429726478077,
,,,,61,0,61,0,,,,,,,,,,,,,,,,,,,,,,924.6205330999801,None,,,,,,,,,,,,,,,,,error,107,62,sing,new,null,916.0932781999873,None,916.0932781999873,None,2,6.5726280999952,916.0932781999873,None,6.5726280999952,922.686653599987,None,923.2019044999906,None,923.2019044999906,None,f,1.3996198999811895,923.2019044999906,None,1.3996198999811895,,,128 S,001,2023_Sep_21_1332,ProdSingRedoBetween,2021.2.3,59.96429726478077,
,,,,62,0,62,0,,,,,,,,,,,,,,,,,,,,,,928.5408799999859,None,,,,,,,,,,,,,,,,,guard,73,63,sing,old,red,925.1236237999983,None,925.1236237999983,None,4,1.8859239000012167,925.1236237999983,None,1.8859239000012167,927.044903699978,None,927.556099599984,None,927.556099599984,None,f,0.9655781000037678,927.556099599984,None,0.9655781000037678,,,128 S,001,2023_Sep_21_1332,ProdSingRedoBetween,2021.2.3,59.96429726478077,
,,,,63,0,63,0,,,,,,,,,,,,,,,,,,,,,,932.7620928999968,None,,,,,,,,,,,,,,,,,volume,142,64,sing,new,null,929.0440952999925,None,929.0440952999925,None,5,2.3093912999902386,929.0440952999925,None,2.3093912999902386,931.3809219999821,None,931.8940159999765,None,931.8940159999765,None,f,0.84350980000454,931.8940159999765,None,0.84350980000454,,,128 S,001,2023_Sep_21_1332,ProdSingRedoBetween,2021.2.3,59.96429726478077,
,,,,64,0,64,0,,,,,,,,,,,,,,,,,,,,,,936.4159554999787,None,,,,,,,,,,,,,,,,,birth,125,65,sing,new,null,933.2641129999829,None,933.2641129999829,None,6,1.6413080000202172,933.2641129999829,None,1.6413080000202172,934.9342144999828,None,935.4474692999793,None,935.4474692999793,None,r,0.9460329999856185,935.4474692999793,None,0.9460329999856185,,,128 S,001,2023_Sep_21_1332,ProdSingRedoBetween,2021.2.3,59.96429726478077,
,,,,65,0,65,0,,,,,,,,,,,,,,,,,,,,,,944.087993299996,None,,,,,,,,,,,,,,,,,congress,75,66,sing,old,red,936.9309110000031,None,936.9309110000031,None,3,5.6785726999805775,936.9309110000031,None,5.6785726999805775,942.640556600003,None,943.1560461999907,None,943.1560461999907,None,f,0.8934375999961048,943.1560461999907,None,0.8934375999961048,,,128 S,001,2023_Sep_21_1332,ProdSingRedoBetween,2021.2.3,59.96429726478077,
,,,,66,0,66,0,,,,,,,,,,,,,,,,,,,,,,948.7610924999753,None,,,,,,,,,,,,,,,,,cross,92,67,sing,new,null,944.5912666999793,None,944.5912666999793,None,1,2.60223180000321,944.5912666999793,None,2.60223180000321,947.2139314999804,None,947.7264046999917,None,947.7264046999917,None,n,1.0030241999775171,947.7264046999917,None,1.0030241999775171,,,128 S,001,2023_Sep_21_1332,ProdSingRedoBetween,2021.2.3,59.96429726478077,
,,,,67,0,67,0,,,,,,,,,,,,,,,,,,,,,,952.8983869999938,None,,,,,,,,,,,,,,,,,running,71,68,sing,old,red,949.2640090999776,None,949.2640090999776,None,6,1.425494199997047,949.2640090999776,None,1.425494199997047,950.7168899999815,None,951.2296873999876,None,951.2296873999876,None,f,1.6437366000027396,951.2296873999876,None,1.6437366000027396,,,128 S,001,2023_Sep_21_1332,ProdSingRedoBetween,2021.2.3,59.96429726478077,
,,,,68,0,68,0,,,,,,,,,,,,,,,,,,,,,,957.1359809999994,None,,,,,,,,,,,,,,,,,division,19,69,sing,old,yellow,953.401342600002,None,953.401342600002,None,6,2.2802050999889616,953.401342600002,None,2.2802050999889616,955.7051794999861,None,956.218469399988,None,956.218469399988,None,f,0.8870145000109915,956.218469399988,None,0.8870145000109915,,,128 S,001,2023_Sep_21_1332,ProdSingRedoBetween,2021.2.3,59.96429726478077,
,,,,69,0,69,0,,,,,,,,,,,,,,,,,,,,,,962.2579604999919,None,,,,,,,,,,,,,,,,,region,133,70,sing,new,null,957.6392941999948,None,957.6392941999948,None,3,3.042195999994874,957.6392941999948,None,3.042195999994874,960.7095289999852,None,961.2237334999954,None,961.2237334999954,None,f,1.0096619999967515,961.2237334999954,None,1.0096619999967515,,,128 S,001,2023_Sep_21_1332,ProdSingRedoBetween,2021.2.3,59.96429726478077,
,,,,70,0,70,0,,,,,,,,,,,,,,,,,,,,,,965.7947508999787,None,,,,,,,,,,,,,,,,,pressure,2,71,sing,old,yellow,962.7610737999785,None,962.7610737999785,None,3,1.9284531000012066,962.7610737999785,None,1.9284531000012066,964.7130271999922,None,965.2271118999925,None,965.2271118999925,None,f,0.5504884000110906,965.2271118999925,None,0.5504884000110906,,,128 S,001,2023_Sep_21_1332,ProdSingRedoBetween,2021.2.3,59.96429726478077,
,,,,71,0,71,0,,,,,,,,,,,,,,,,,,,,,,970.6163253999839,None,,,,,,,,,,,,,,,,,surface,117,72,sing,new,null,966.2983802999952,None,966.2983802999952,None,1,3.0791567999986,966.2983802999952,None,3.0791567999986,969.4009811999858,None,969.9151937999995,None,969.9151937999995,None,n,0.6782937999814749,969.9151937999995,None,0.6782937999814749,,,128 S,001,2023_Sep_21_1332,ProdSingRedoBetween,2021.2.3,59.96429726478077,
,,,,72,0,72,0,,,,,,,,,,,,,,,,,,,,,,974.7200490999967,None,,,,,,,,,,,,,,,,,payment,40,73,sing,old,blue,971.1192393999954,None,971.1192393999954,None,6,1.7782990999985486,971.1192393999954,None,1.7782990999985486,972.9209664999798,None,973.4349678999861,None,973.4349678999861,None,r,1.2545122999872547,973.4349678999861,None,1.2545122999872547,,,128 S,001,2023_Sep_21_1332,ProdSingRedoBetween,2021.2.3,59.96429726478077,
,,,,73,0,73,0,,,,,,,,,,,,,,,,,,,,,,978.4407089999877,None,,,,,,,,,,,,,,,,,medicine,48,74,sing,old,blue,975.2386054999952,None,975.2386054999952,None,6,1.7388241999724414,975.2386054999952,None,1.7388241999724414,977.0077338999836,None,977.5226890999766,None,977.5226890999766,None,r,0.8867928000108805,977.5226890999766,None,0.8867928000108805,,,128 S,001,2023_Sep_21_1332,ProdSingRedoBetween,2021.2.3,59.96429726478077,
,,,,74,0,74,0,,,,,,,,,,,,,,,,,,,,,,984.5472101999912,None,,,,,,,,,,,,,,,,,growth,12,75,sing,old,yellow,978.946155099984,None,978.946155099984,None,3,4.015495500003453,978.946155099984,None,4.015495500003453,982.990642299992,None,983.4978489999776,None,983.4978489999776,None,f,1.0318466000026092,983.4978489999776,None,1.0318466000026092,,,128 S,001,2023_Sep_21_1332,ProdSingRedoBetween,2021.2.3,59.96429726478077,
,,,,75,0,75,0,,,,,,,,,,,,,,,,,,,,,,988.4017645999847,None,,,,,,,,,,,,,,,,,capital,139,76,sing,new,null,985.0498179999995,None,985.0498179999995,None,4,1.7116802000091411,985.0498179999995,None,1.7116802000091411,986.7848389999999,None,987.3009327999898,None,987.3009327999898,None,f,1.0764890999998897,987.3009327999898,None,1.0764890999998897,,,128 S,001,2023_Sep_21_1332,ProdSingRedoBetween,2021.2.3,59.96429726478077,
,,,,76,0,76,0,,,,,,,,,,,,,,,,,,,,,,992.3891051999817,None,,,,,,,,,,,,,,,,,agreement,13,77,sing,old,yellow,988.9174886999826,None,988.9174886999826,None,3,1.963873800006695,988.9174886999826,None,1.963873800006695,990.9142133999849,None,991.4265281999833,None,991.4265281999833,None,f,0.9349657999991905,991.4265281999833,None,0.9349657999991905,,,128 S,001,2023_Sep_21_1332,ProdSingRedoBetween,2021.2.3,59.96429726478077,
,,,,77,0,77,0,,,,,,,,,,,,,,,,,,,,,,996.6570692999812,None,,,,,,,,,,,,,,,,,order,54,78,sing,old,blue,992.8934072999982,None,992.8934072999982,None,5,1.6600926000101026,992.8934072999982,None,1.6600926000101026,994.574940999999,None,995.0926101999939,None,995.0926101999939,None,r,1.5332058999920264,995.0926101999939,None,1.5332058999920264,,,128 S,001,2023_Sep_21_1332,ProdSingRedoBetween,2021.2.3,59.96429726478077,
,,,,78,0,78,0,,,,,,,,,,,,,,,,,,,,,,1001.5138975000009,None,,,,,,,,,,,,,,,,,childhood,152,79,sing,new,null,997.1652852999978,None,997.1652852999978,None,6,2.3722352999902796,997.1652852999978,None,2.3722352999902796,999.5661870999902,None,1000.0787012999936,None,1000.0787012999936,None,r,1.4107391999859829,1000.0787012999936,None,1.4107391999859829,,,128 S,001,2023_Sep_21_1332,ProdSingRedoBetween,2021.2.3,59.96429726478077,
,,,,79,0,79,0,,,,,,,,,,,,,,,,,,,,,,1009.1544492999965,None,,,,,,,,,,,,,,,,,sweet,145,80,sing,new,null,1002.0168108999787,None,1002.0168108999787,None,2,5.568947699997807,1002.0168108999787,None,5.568947699997807,1007.6059331999859,None,1008.1200536999968,None,1008.1200536999968,None,n,1.0175240999960806,1008.1200536999968,None,1.0175240999960806,,,128 S,001,2023_Sep_21_1332,ProdSingRedoBetween,2021.2.3,59.96429726478077,
,,,,80,0,80,0,,,,,,,,,,,,,,,,,,,,,,1013.7092868000036,None,,,,,,,,,,,,,,,,,afternoon,39,81,sing,old,blue,1009.6572814999963,None,1009.6572814999963,None,1,2.960158900008537,1009.6572814999963,None,2.960158900008537,1012.6448356999899,None,1013.1636864999891,None,1013.1636864999891,None,n,0.5177173999836668,1013.1636864999891,None,0.5177173999836668,,,128 S,001,2023_Sep_21_1332,ProdSingRedoBetween,2021.2.3,59.96429726478077,
,,,,81,0,81,0,,,,,,,,,,,,,,,,,,,,,,1018.2806343999982,None,,,,,,,,,,,,,,,,,suggestion,43,82,sing,old,blue,1014.2121250999917,None,1014.2121250999917,None,6,2.7893174000200815,1014.2121250999917,None,2.7893174000200815,1017.0317502999969,None,1017.5462895999954,None,1017.5462895999954,None,r,0.7111804000160191,1017.5462895999954,None,0.7111804000160191,,,128 S,001,2023_Sep_21_1332,ProdSingRedoBetween,2021.2.3,59.96429726478077,
,,,,82,0,82,0,,,,,,,,,,,,,,,,,,,,,,1022.0840585999831,None,,,,,,,,,,,,,,,,,message,130,83,sing,new,null,1018.7891410999873,None,1018.7891410999873,None,5,2.0922646000108216,1018.7891410999873,None,2.0922646000108216,1020.9050902999879,None,1021.4168475999904,None,1021.4168475999904,None,r,0.6407835000136402,1021.4168475999904,None,0.6407835000136402,,,128 S,001,2023_Sep_21_1332,ProdSingRedoBetween,2021.2.3,59.96429726478077,
,,,,83,0,83,0,,,,,,,,,,,,,,,,,,,,,,1025.6379256999935,None,,,,,,,,,,,,,,,,,signal,8,84,sing,old,yellow,1022.5877635999932,None,1022.5877635999932,None,5,1.4378118999884464,1022.5877635999932,None,1.4378118999884464,1024.055919699982,None,1024.5805830000027,None,1024.5805830000027,None,r,1.028856299992185,1024.5805830000027,None,1.028856299992185,,,128 S,001,2023_Sep_21_1332,ProdSingRedoBetween,2021.2.3,59.96429726478077,
,,,,84,0,84,0,,,,,,,,,,,,,,,,,,,,,,1028.6909863999754,None,,,,,,,,,,,,,,,,,music,9,85,sing,old,yellow,1026.140544599999,None,1026.140544599999,None,6,1.6209468000160996,1026.140544599999,None,1.6209468000160996,1027.7920229999872,None,1028.306688599987,None,1028.306688599987,None,r,0.3671048999822233,1028.306688599987,None,0.3671048999822233,,,128 S,001,2023_Sep_21_1332,ProdSingRedoBetween,2021.2.3,59.96429726478077,
,,,,85,0,85,0,,,,,,,,,,,,,,,,,,,,,,1032.0122932999802,None,,,,,,,,,,,,,,,,,mechanical,165,86,sing,new,null,1029.2065288999875,None,1029.2065288999875,None,1,1.5068736000102945,1029.2065288999875,None,1.5068736000102945,1030.744747299992,None,1031.259817699989,None,1031.259817699989,None,n,0.7339172999782022,1031.259817699989,None,0.7339172999782022,,,128 S,001,2023_Sep_21_1332,ProdSingRedoBetween,2021.2.3,59.96429726478077,
,,,,86,0,86,0,,,,,,,,,,,,,,,,,,,,,,1035.0306918999995,None,,,,,,,,,,,,,,,,,impact,70,87,sing,old,red,1032.5293297999888,None,1032.5293297999888,None,1,1.6001631999970414,1032.5293297999888,None,1.6001631999970414,1034.1490095999907,None,1034.663056999998,None,1034.663056999998,None,n,0.3464129000203684,1034.663056999998,None,0.3464129000203684,,,128 S,001,2023_Sep_21_1332,ProdSingRedoBetween,2021.2.3,59.96429726478077,
,,,,87,0,87,0,,,,,,,,,,,,,,,,,,,,,,1039.0531772999966,None,,,,,,,,,,,,,,,,,comfort,32,88,sing,old,blue,1035.533700799977,None,1035.533700799977,None,4,2.539804100000765,1035.533700799977,None,2.539804100000765,1038.1028888,None,1038.617291499977,None,1038.617291499977,None,f,0.41647809999994934,1038.617291499977,None,0.41647809999994934,,,128 S,001,2023_Sep_21_1332,ProdSingRedoBetween,2021.2.3,59.96429726478077,
,,,,88,0,88,0,,,,,,,,,,,,,,,,,,,,,,1042.188079399988,None,,,,,,,,,,,,,,,,,captain,28,89,sing,old,yellow,1039.569577599992,None,1039.569577599992,None,4,1.567802399978973,1039.569577599992,None,1.567802399978973,1041.1552795000025,None,1041.6700520000013,None,1041.6700520000013,None,f,0.49143210001057014,1041.6700520000013,None,0.49143210001057014,,,128 S,001,2023_Sep_21_1332,ProdSingRedoBetween,2021.2.3,59.96429726478077,
,,,,89,0,89,0,,,,,,,,,,,,,,,,,,,,,,1045.4592568999797,None,,,,,,,,,,,,,,,,,course,16,90,sing,old,yellow,1042.6905640999903,None,1042.6905640999903,None,1,1.7828464999911375,1042.6905640999903,None,1.7828464999911375,1044.4927406999923,None,1045.009331499983,None,1045.009331499983,None,n,0.43218350000097416,1045.009331499983,None,0.43218350000097416,,,128 S,001,2023_Sep_21_1332,ProdSingRedoBetween,2021.2.3,59.96429726478077,
,,,,90,0,90,0,,,,,,,,,,,,,,,,,,,,,,1047.9770425999886,None,,,,,,,,,,,,,,,,,salary,101,91,sing,new,null,1045.971234800003,None,1045.971234800003,None,1,1.2461153999902308,1045.971234800003,None,1.2461153999902308,1047.2456662999757,None,1047.7594851999893,None,1047.7594851999893,None,n,0.2019803999864962,1047.7594851999893,None,0.2019803999864962,,,128 S,001,2023_Sep_21_1332,ProdSingRedoBetween,2021.2.3,59.96429726478077,
,,,,91,0,91,0,,,,,,,,,,,,,,,,,,,,,,1051.747565800004,None,,,,,,,,,,,,,,,,,swift,137,92,sing,new,null,1048.4796103999834,None,1048.4796103999834,None,1,2.2981809999910183,1048.4796103999834,None,2.2981809999910183,1050.7989724999934,None,1051.3141873999848,None,1051.3141873999848,None,n,0.4155306000029668,1051.3141873999848,None,0.4155306000029668,,,128 S,001,2023_Sep_21_1332,ProdSingRedoBetween,2021.2.3,59.96429726478077,
,,,,92,0,92,0,,,,,,,,,,,,,,,,,,,,,,1055.0653866999783,None,,,,,,,,,,,,,,,,,sleep,110,93,sing,new,null,1052.2491484999773,None,1052.2491484999773,None,1,1.6564530000032391,1052.2491484999773,None,1.6564530000032391,1053.9353125999914,None,1054.4494716999761,None,1054.4494716999761,None,n,0.5759514000092167,1054.4494716999761,None,0.5759514000092167,,,128 S,001,2023_Sep_21_1332,ProdSingRedoBetween,2021.2.3,59.96429726478077,
,,,,93,0,93,0,,,,,,,,,,,,,,,,,,,,,,1059.0195435999776,None,,,,,,,,,,,,,,,,,search,67,94,sing,old,red,1055.5687772999809,None,1055.5687772999809,None,1,2.0726582999923266,1055.5687772999809,None,2.0726582999923266,1057.6736879999808,None,1058.1868323999806,None,1058.1868323999806,None,n,0.7908350999932736,1058.1868323999806,None,0.7908350999932736,,,128 S,001,2023_Sep_21_1332,ProdSingRedoBetween,2021.2.3,59.96429726478077,
,,,,94,0,94,0,,,,,,,,,,,,,,,,,,,,,,1065.5780969999905,None,,,,,,,,,,,,,,,,,dozen,172,95,sing,new,null,1059.5239648999996,None,1059.5239648999996,None,2,4.605504300008761,1059.5239648999996,None,4.605504300008761,1064.1635809,None,1064.676352999988,None,1064.676352999988,None,n,0.885105499997735,1064.676352999988,None,0.885105499997735,,,128 S,001,2023_Sep_21_1332,ProdSingRedoBetween,2021.2.3,59.96429726478077,
,,,,95,0,95,0,,,,,,,,,,,,,,,,,,,,,,1069.9170050999965,None,,,,,,,,,,,,,,,,,opening,5,96,sing,old,yellow,1066.0813842999924,None,1066.0813842999924,None,6,2.4481757000030484,1066.0813842999924,None,2.4481757000030484,1068.5508859999827,None,1069.0642224999901,None,1069.0642224999901,None,r,0.8334358999854885,1069.0642224999901,None,0.8334358999854885,,,128 S,001,2023_Sep_21_1332,ProdSingRedoBetween,2021.2.3,59.96429726478077,
,,,,96,0,96,0,,,,,,,,,,,,,,,,,,,,,,1073.786127999978,None,,,,,,,,,,,,,,,,,poetry,87,97,sing,old,red,1070.4336286000034,None,1070.4336286000034,None,6,2.087825700000394,1070.4336286000034,None,2.087825700000394,1072.5541941999982,None,1073.068136499991,None,1073.068136499991,None,f,0.7012748999986798,1073.068136499991,None,0.7012748999986798,,,128 S,001,2023_Sep_21_1332,ProdSingRedoBetween,2021.2.3,59.96429726478077,
,,,,97,0,97,0,,,,,,,,,,,,,,,,,,,,,,1077.790167500003,None,,,,,,,,,,,,,,,,,taste,57,98,sing,old,blue,1074.29168569998,None,1074.29168569998,None,3,2.1258488000021316,1074.29168569998,None,2.1258488000021316,1076.4439146999794,None,1076.9553264999995,None,1076.9553264999995,None,f,0.814105199999176,1076.9553264999995,None,0.814105199999176,,,128 S,001,2023_Sep_21_1332,ProdSingRedoBetween,2021.2.3,59.96429726478077,
,,,,98,0,98,0,,,,,,,,,,,,,,,,,,,,,,1086.4817942999944,None,,,,,,,,,,,,,,,,,vision,81,99,sing,old,red,1078.293044399994,None,1078.293044399994,None,2,6.356549299991457,1078.293044399994,None,6.356549299991457,1084.6824489999854,None,1085.1973047999782,None,1085.1973047999782,None,f,1.2681521999766119,1085.1973047999782,None,1.2681521999766119,,,128 S,001,2023_Sep_21_1332,ProdSingRedoBetween,2021.2.3,59.96429726478077,
,,,,99,0,99,0,,,,,,,,,,,,,,,,,,,,,,1090.3538757999777,None,,,,,,,,,,,,,,,,,danger,61,100,sing,old,red,1086.9836453000025,None,1086.9836453000025,None,6,2.3937955999863334,1086.9836453000025,None,2.3937955999863334,1089.4039478999912,None,1089.9184284999792,None,1089.9184284999792,None,r,0.40309619999607094,1089.9184284999792,None,0.40309619999607094,,,128 S,001,2023_Sep_21_1332,ProdSingRedoBetween,2021.2.3,59.96429726478077,
,,,,100,0,100,0,,,,,,,,,,,,,,,,,,,,,,1095.3242645999999,None,,,,,,,,,,,,,,,,,rapid,105,101,sing,new,null,1090.8712651999958,None,1090.8712651999958,None,1,3.1860860000015236,1090.8712651999958,None,3.1860860000015236,1094.083351499983,None,1094.5897148999793,None,1094.5897148999793,None,n,0.7079375000030268,1094.5897148999793,None,0.7079375000030268,,,128 S,001,2023_Sep_21_1332,ProdSingRedoBetween,2021.2.3,59.96429726478077,
,,,,101,0,101,0,,,,,,,,,,,,,,,,,,,,,,1101.634024799976,None,,,,,,,,,,,,,,,,,rural,151,102,sing,new,null,1095.8259586999775,None,1095.8259586999775,None,3,4.871534100006102,1095.8259586999775,None,4.871534100006102,1100.716672199982,None,1101.2393473999982,None,1101.2393473999982,None,f,0.3621749999874737,1101.2393473999982,None,0.3621749999874737,,,128 S,001,2023_Sep_21_1332,ProdSingRedoBetween,2021.2.3,59.96429726478077,
,,,,102,0,102,0,,,,,,,,,,,,,,,,,,,,,,1104.5332346999785,None,,,,,,,,,,,,,,,,,light,77,103,sing,old,red,1102.1477669999877,None,1102.1477669999877,None,1,1.5017010000010487,1102.1477669999877,None,1.5017010000010487,1103.6744769999932,None,1104.1825012999761,None,1104.1825012999761,None,n,0.32289830001536757,1104.1825012999761,None,0.32289830001536757,,,128 S,001,2023_Sep_21_1332,ProdSingRedoBetween,2021.2.3,59.96429726478077,
,,,,103,0,103,0,,,,,,,,,,,,,,,,,,,,,,1107.686121799983,None,,,,,,,,,,,,,,,,,background,111,104,sing,new,null,1105.0360117999953,None,1105.0360117999953,None,5,1.6534761000075378,1105.0360117999953,None,1.6534761000075378,1106.7211280999763,None,1107.2361463999841,None,1107.2361463999841,None,f,0.4293506999965757,1107.2361463999841,None,0.4293506999965757,,,128 S,001,2023_Sep_21_1332,ProdSingRedoBetween,2021.2.3,59.96429726478077,
,,,,104,0,104,0,,,,,,,,,,,,,,,,,,,,,,1111.056791399984,None,,,,,,,,,,,,,,,,,concern,157,105,sing,new,null,1108.1898120999977,None,1108.1898120999977,None,5,1.9237705999985337,1108.1898120999977,None,1.9237705999985337,1110.1407210000034,None,1110.6558049999876,None,1110.6558049999876,None,f,0.3776555999938864,1110.6558049999876,None,0.3776555999938864,,,128 S,001,2023_Sep_21_1332,ProdSingRedoBetween,2021.2.3,59.96429726478077,
,,,,105,0,105,0,,,,,,,,,,,,,,,,,,,,,,1114.2940132999793,None,,,,,,,,,,,,,,,,,title,148,106,sing,new,null,1111.5608135999937,None,1111.5608135999937,None,1,1.5686740000091959,1111.5608135999937,None,1.5686740000091959,1113.1612075000012,None,1113.6756067999813,None,1113.6756067999813,None,n,0.5980944999901112,1113.6756067999813,None,0.5980944999901112,,,128 S,001,2023_Sep_21_1332,ProdSingRedoBetween,2021.2.3,59.96429726478077,
,,,,106,0,106,0,,,,,,,,,,,,,,,,,,,,,,1117.8961284999968,None,,,,,,,,,,,,,,,,,department,176,107,sing,new,null,1114.796056399995,None,1114.796056399995,None,1,2.165683100000024,1114.796056399995,None,2.165683100000024,1116.9807363,None,1117.4841774999804,None,1117.4841774999804,None,n,0.381263699993724,1117.4841774999804,None,0.381263699993724,,,128 S,001,2023_Sep_21_1332,ProdSingRedoBetween,2021.2.3,59.96429726478077,
,,,,107,0,107,0,,,,,,,,,,,,,,,,,,,,,,1121.4343382999941,None,,,,,,,,,,,,,,,,,position,119,108,sing,new,null,1118.399260999984,None,1118.399260999984,None,1,2.250251000019489,1118.399260999984,None,2.250251000019489,1120.669232299988,None,1121.1827486999973,None,1121.1827486999973,None,n,0.21874599999864586,1121.1827486999973,None,0.21874599999864586,,,128 S,001,2023_Sep_21_1332,ProdSingRedoBetween,2021.2.3,59.96429726478077,
,,,,108,0,108,0,,,,,,,,,,,,,,,,,,,,,,1124.3875554999977,None,,,,,,,,,,,,,,,,,passage,88,109,sing,old,red,1121.9369192000013,None,1121.9369192000013,None,1,1.4565373999939766,1121.9369192000013,None,1.4565373999939766,1123.4218334000034,None,1123.935721899994,None,1123.935721899994,None,n,0.43374569999286905,1123.935721899994,None,0.43374569999286905,,,128 S,001,2023_Sep_21_1332,ProdSingRedoBetween,2021.2.3,59.96429726478077,
,,,,109,0,109,0,,,,,,,,,,,,,,,,,,,,,,1127.7231264000002,None,,,,,,,,,,,,,,,,,hearing,159,110,sing,new,null,1124.8879586999828,None,1124.8879586999828,None,2,1.769527600001311,1124.8879586999828,None,1.769527600001311,1126.6923202000035,None,1127.20567689999,None,1127.20567689999,None,f,0.5002946000022348,1127.20567689999,None,0.5002946000022348,,,128 S,001,2023_Sep_21_1332,ProdSingRedoBetween,2021.2.3,59.96429726478077,
,,,,110,0,110,0,,,,,,,,,,,,,,,,,,,,,,1130.1417931999895,None,,,,,,,,,,,,,,,,,relation,158,111,sing,new,null,1128.2252923999913,None,1128.2252923999913,None,1,1.0081227000046056,1128.2252923999913,None,1.0081227000046056,1129.2591079999984,None,1129.7581964999845,None,1129.7581964999845,None,n,0.3553006000001915,1129.7581964999845,None,0.3553006000001915,,,128 S,001,2023_Sep_21_1332,ProdSingRedoBetween,2021.2.3,59.96429726478077,
,,,,111,0,111,0,,,,,,,,,,,,,,,,,,,,,,1132.9790407999826,None,,,,,,,,,,,,,,,,,dance,140,112,sing,new,null,1130.644071799994,None,1130.644071799994,None,1,1.3893458000093233,1130.644071799994,None,1.3893458000093233,1132.0630982999865,None,1132.577892100002,None,1132.577892100002,None,n,0.38362350000534207,1132.577892100002,None,0.38362350000534207,,,128 S,001,2023_Sep_21_1332,ProdSingRedoBetween,2021.2.3,59.96429726478077,
,,,,112,0,112,0,,,,,,,,,,,,,,,,,,,,,,1137.4839921999956,None,,,,,,,,,,,,,,,,,season,56,113,sing,old,blue,1133.4813693999895,None,1133.4813693999895,None,1,2.9680930000031367,1133.4813693999895,None,2.9680930000031367,1136.4679707000032,None,1136.9820531999867,None,1136.9820531999867,None,n,0.475358600000618,1136.9820531999867,None,0.475358600000618,,,128 S,001,2023_Sep_21_1332,ProdSingRedoBetween,2021.2.3,59.96429726478077,
,,,,113,0,113,0,,,,,,,,,,,,,,,,,,,,,,1141.5184559999907,None,,,,,,,,,,,,,,,,,force,150,114,sing,new,null,1137.9855259000033,None,1137.9855259000033,None,4,2.575886200007517,1137.9855259000033,None,2.575886200007517,1140.5887709999806,None,1141.1029991999967,None,1141.1029991999967,None,f,0.37844320002477616,1141.1029991999967,None,0.37844320002477616,,,128 S,001,2023_Sep_21_1332,ProdSingRedoBetween,2021.2.3,59.96429726478077,
,,,,114,0,114,0,,,,,,,,,,,,,,,,,,,,,,1145.390555799997,None,,,,,,,,,,,,,,,,,front,131,115,sing,new,null,1142.0260563999764,None,1142.0260563999764,None,1,2.5035631000064313,1142.0260563999764,None,2.5035631000064313,1144.5582857999834,None,1145.0733763999888,None,1145.0733763999888,None,n,0.2880937999871094,1145.0733763999888,None,0.2880937999871094,,,128 S,001,2023_Sep_21_1332,ProdSingRedoBetween,2021.2.3,59.96429726478077,
,,,,115,0,115,0,,,,,,,,,,,,,,,,,,,,,,1149.8490212000033,None,,,,,,,,,,,,,,,,,guide,11,116,sing,old,yellow,1145.892845800001,None,1145.892845800001,None,4,2.9806357999914326,1145.892845800001,None,2.9806357999914326,1148.8967772999895,None,1149.420438399975,None,1149.420438399975,None,f,0.4051542999804951,1149.420438399975,None,0.4051542999804951,,,128 S,001,2023_Sep_21_1332,ProdSingRedoBetween,2021.2.3,59.96429726478077,
,,,,116,0,116,0,,,,,,,,,,,,,,,,,,,,,,1153.6504677999765,None,,,,,,,,,,,,,,,,,level,50,117,sing,old,blue,1150.3679501999868,None,1150.3679501999868,None,4,1.8975055000046268,1150.3679501999868,None,1.8975055000046268,1152.2839345999819,None,1152.7981090999965,None,1152.7981090999965,None,f,0.819482999999309,1152.7981090999965,None,0.819482999999309,,,128 S,001,2023_Sep_21_1332,ProdSingRedoBetween,2021.2.3,59.96429726478077,
,,,,117,0,117,0,,,,,,,,,,,,,,,,,,,,,,1161.3401874999981,None,,,,,,,,,,,,,,,,,express,112,118,sing,new,null,1154.152384099987,None,1154.152384099987,None,2,5.313110400020378,1154.152384099987,None,5.313110400020378,1159.4953517999966,None,1160.005562299979,None,1160.005562299979,None,n,1.3078649000090081,1160.005562299979,None,1.3078649000090081,,,128 S,001,2023_Sep_21_1332,ProdSingRedoBetween,2021.2.3,59.96429726478077,
,,,,118,0,118,0,,,,,,,,,,,,,,,,,,,,,,1166.6125868999807,None,,,,,,,,,,,,,,,,,suspect,124,119,sing,new,null,1161.8434118999867,None,1161.8434118999867,None,1,3.758030199998757,1161.8434118999867,None,3.758030199998757,1165.6308213000011,None,1166.1448009999876,None,1166.1448009999876,None,n,0.44079160000546835,1166.1448009999876,None,0.44079160000546835,,,128 S,001,2023_Sep_21_1332,ProdSingRedoBetween,2021.2.3,59.96429726478077,
,,,,119,0,119,0,,,,,,,,,,,,,,,,,,,,,,1169.7478282999946,None,,,,,,,,,,,,,,,,,engineer,3,120,sing,old,yellow,1167.1139642999915,None,1167.1139642999915,None,1,1.6954901000135578,1167.1139642999915,None,1.6954901000135578,1168.8331522999797,None,1169.3472358,None,1169.3472358,None,n,0.37412389999371953,1169.3472358,None,0.37412389999371953,,,128 S,001,2023_Sep_21_1332,ProdSingRedoBetween,2021.2.3,59.96429726478077,
,,,,120,0,120,0,,,,,,,,,,,,,,,,,,,,,,1172.820156200003,None,,,,,,,,,,,,,,,,,beginning,59,121,sing,old,yellow,1170.2509069999796,None,1170.2509069999796,None,6,1.6466922999825329,1170.2509069999796,None,1.6466922999825329,1171.920826799993,None,1172.4388480999914,None,1172.4388480999914,None,r,0.36266709998017177,1172.4388480999914,None,0.36266709998017177,,,128 S,001,2023_Sep_21_1332,ProdSingRedoBetween,2021.2.3,59.96429726478077,
,,,,121,0,121,0,,,,,,,,,,,,,,,,,,,,,,1176.3865689999948,None,,,,,,,,,,,,,,,,,expansion,10,122,sing,old,yellow,1173.3381546000019,None,1173.3381546000019,None,5,1.9592941000009887,1173.3381546000019,None,1.9592941000009887,1175.3234368999838,None,1175.852554699988,None,1175.852554699988,None,f,0.4929244000231847,1175.852554699988,None,0.4929244000231847,,,128 S,001,2023_Sep_21_1332,ProdSingRedoBetween,2021.2.3,59.96429726478077,
,,,,122,0,122,0,,,,,,,,,,,,,,,,,,,,,,1180.342317499977,None,,,,,,,,,,,,,,,,,detective,106,123,sing,new,null,1176.8900727999862,None,1176.8900727999862,None,2,2.4633792999957222,1176.8900727999862,None,2.4633792999957222,1179.3792431000038,None,1179.8917555999942,None,1179.8917555999942,None,n,0.42972240000381134,1179.8917555999942,None,0.42972240000381134,,,128 S,001,2023_Sep_21_1332,ProdSingRedoBetween,2021.2.3,59.96429726478077,
,,,,123,0,123,0,,,,,,,,,,,,,,,,,,,,,,1184.7177550999913,None,,,,,,,,,,,,,,,,,defeat,35,124,sing,old,blue,1180.8451679999998,None,1180.8451679999998,None,2,2.6603192999900784,1180.8451679999998,None,2.6603192999900784,1183.5312344999984,None,1184.0455736999866,None,1184.0455736999866,None,n,0.6357930999947712,1184.0455736999866,None,0.6357930999947712,,,128 S,001,2023_Sep_21_1332,ProdSingRedoBetween,2021.2.3,59.96429726478077,
,,,,124,0,124,0,,,,,,,,,,,,,,,,,,,,,,1188.2169757999945,None,,,,,,,,,,,,,,,,,society,162,125,sing,new,null,1185.245476399985,None,1185.245476399985,None,5,1.8999375999846961,1185.245476399985,None,1.8999375999846961,1187.1689928999986,None,1187.6827041999786,None,1187.6827041999786,None,f,0.5187288000015542,1187.6827041999786,None,0.5187288000015542,,,128 S,001,2023_Sep_21_1332,ProdSingRedoBetween,2021.2.3,59.96429726478077,
,,,,125,0,125,0,,,,,,,,,,,,,,,,,,,,,,1191.7383386000001,None,,,,,,,,,,,,,,,,,people,120,126,sing,new,null,1188.7371988999948,None,1188.7371988999948,None,5,2.1122147999994922,1188.7371988999948,None,2.1122147999994922,1190.872099100001,None,1191.3862967999885,None,1191.3862967999885,None,f,0.327151799981948,1191.3862967999885,None,0.327151799981948,,,128 S,001,2023_Sep_21_1332,ProdSingRedoBetween,2021.2.3,59.96429726478077,
,,,,126,0,126,0,,,,,,,,,,,,,,,,,,,,,,1195.522399999987,None,,,,,,,,,,,,,,,,,colonel,58,127,sing,old,blue,1192.255993699975,None,1192.255993699975,None,2,2.409466200013412,1192.255993699975,None,2.409466200013412,1194.6976668999996,None,1195.2084673999925,None,1195.2084673999925,None,n,0.2729684999794699,1195.2084673999925,None,0.2729684999794699,,,128 S,001,2023_Sep_21_1332,ProdSingRedoBetween,2021.2.3,59.96429726478077,
,,,,127,0,127,0,,,,,,,,,,,,,,,,,,,,,,1200.5471052999783,None,,,,,,,,,,,,,,,,,escape,161,128,sing,new,null,1196.0256477999792,None,1196.0256477999792,None,2,3.671790599997621,1196.0256477999792,None,3.671790599997621,1199.7309937999817,None,1200.2451663999818,None,1200.2451663999818,None,n,0.27626250000321306,1200.2451663999818,None,0.27626250000321306,,,128 S,001,2023_Sep_21_1332,ProdSingRedoBetween,2021.2.3,59.96429726478077,
,,,,128,0,128,0,,,,,,,,,,,,,,,,,,,,,,1206.4168287999928,None,,,,,,,,,,,,,,,,,crime,65,129,sing,old,red,1201.0629795999848,None,1201.0629795999848,None,1,4.418698499997845,1201.0629795999848,None,4.418698499997845,1205.5039505999885,None,1206.0176913999894,None,1206.0176913999894,None,n,0.35973809999995865,1206.0176913999894,None,0.35973809999995865,,,128 S,001,2023_Sep_21_1332,ProdSingRedoBetween,2021.2.3,59.96429726478077,
,,,,129,0,129,0,,,,,,,,,,,,,,,,,,,,,,1213.4587582999957,None,,,,,,,,,,,,,,,,,incident,17,130,sing,old,yellow,1206.9191388999752,None,1206.9191388999752,None,5,4.618571400002111,1206.9191388999752,None,4.618571400002111,1211.5589223999996,None,1212.0736090999853,None,1212.0736090999853,None,f,1.3680765999888536,1212.0736090999853,None,1.3680765999888536,,,128 S,001,2023_Sep_21_1332,ProdSingRedoBetween,2021.2.3,59.96429726478077,
,,,,130,0,130,0,,,,,,,,,,,,,,,,,,,,,,1216.563047899981,None,,,,,,,,,,,,,,,,,partner,144,131,sing,new,null,1213.961002600001,None,1213.961002600001,None,5,1.7605754999967758,1213.961002600001,None,1.7605754999967758,1215.747065899981,None,1216.2618700999883,None,1216.2618700999883,None,f,0.2836473999777809,1216.2618700999883,None,0.2836473999777809,,,128 S,001,2023_Sep_21_1332,ProdSingRedoBetween,2021.2.3,59.96429726478077,
,,,,131,0,131,0,,,,,,,,,,,,,,,,,,,,,,1219.2294232999848,None,,,,,,,,,,,,,,,,,device,113,132,sing,new,null,1217.0653852999967,None,1217.0653852999967,None,1,1.3280182000016794,1217.0653852999967,None,1.3280182000016794,1218.417035499995,None,1218.9309674999968,None,1218.9309674999968,None,n,0.26248640002449974,1218.9309674999968,None,0.26248640002449974,,,128 S,001,2023_Sep_21_1332,ProdSingRedoBetween,2021.2.3,59.96429726478077,
,,,,132,0,132,0,,,,,,,,,,,,,,,,,,,,,,1222.3181802999752,None,,,,,,,,,,,,,,,,,exchange,127,133,sing,new,null,1219.733126999985,None,1219.733126999985,None,1,1.5325460000021849,1219.733126999985,None,1.5325460000021849,1221.2868595999898,None,1221.8002551999816,None,1221.8002551999816,None,n,0.49715710000600666,1221.8002551999816,None,0.49715710000600666,,,128 S,001,2023_Sep_21_1332,ProdSingRedoBetween,2021.2.3,59.96429726478077,
,,,,133,0,133,0,,,,,,,,,,,,,,,,,,,,,,1224.8867609000008,None,,,,,,,,,,,,,,,,,century,168,134,sing,new,null,1222.8381678999867,None,1222.8381678999867,None,1,1.2113499999977648,1222.8381678999867,None,1.2113499999977648,1224.073638699978,None,1224.5860711999994,None,1224.5860711999994,None,n,0.2713756999874022,1224.5860711999994,None,0.2713756999874022,,,128 S,001,2023_Sep_21_1332,ProdSingRedoBetween,2021.2.3,59.96429726478077,
,,,,134,0,134,0,,,,,,,,,,,,,,,,,,,,,,1229.3247543000034,None,,,,,,,,,,,,,,,,,gesture,102,135,sing,new,null,1225.390221699985,None,1225.390221699985,None,1,3.131582600006368,1225.390221699985,None,3.131582600006368,1228.5465286999824,None,1229.0573818999983,None,1229.0573818999983,None,n,0.24833880001096986,1229.0573818999983,None,0.24833880001096986,,,128 S,001,2023_Sep_21_1332,ProdSingRedoBetween,2021.2.3,59.96429726478077,
,,,,135,0,135,0,,,,,,,,,,,,,,,,,,,,,,1233.3469674999942,None,,,,,,,,,,,,,,,,,generation,90,136,sing,new,null,1229.8267141999968,None,1229.8267141999968,None,2,2.598900399985723,1229.8267141999968,None,2.598900399985723,1232.4468547999859,None,1232.9614071999968,None,1232.9614071999968,None,n,0.3680185000121128,1232.9614071999968,None,0.3680185000121128,,,128 S,001,2023_Sep_21_1332,ProdSingRedoBetween,2021.2.3,59.96429726478077,
,,,,136,0,136,0,,,,,,,,,,,,,,,,,,,,,,1236.3147118999914,None,,,,,,,,,,,,,,,,,author,78,137,sing,old,red,1233.8660670999961,None,1233.8660670999961,None,5,1.631300699984422,1233.8660670999961,None,1.631300699984422,1235.516392599995,None,1236.03104229999,None,1236.03104229999,None,f,0.266711199976271,1236.03104229999,None,0.266711199976271,,,128 S,001,2023_Sep_21_1332,ProdSingRedoBetween,2021.2.3,59.96429726478077,
,,,,137,0,137,0,,,,,,,,,,,,,,,,,,,,,,1239.483267899981,None,,,,,,,,,,,,,,,,,education,163,138,sing,new,null,1236.8305643999774,None,1236.8305643999774,None,1,1.8030256999772973,1236.8305643999774,None,1.8030256999772973,1238.6529106999806,None,1239.1684361999796,None,1239.1684361999796,None,n,0.27305519999936223,1239.1684361999796,None,0.27305519999936223,,,128 S,001,2023_Sep_21_1332,ProdSingRedoBetween,2021.2.3,59.96429726478077,
,,,,138,0,138,0,,,,,,,,,,,,,,,,,,,,,,1242.2543603999948,None,,,,,,,,,,,,,,,,,foundation,97,139,sing,new,null,1239.9893866999773,None,1239.9893866999773,None,1,1.292068599985214,1239.9893866999773,None,1.292068599985214,1241.3072806999844,None,1241.8246143999859,None,1241.8246143999859,None,n,0.4008338999992702,1241.8246143999859,None,0.4008338999992702,,,128 S,001,2023_Sep_21_1332,ProdSingRedoBetween,2021.2.3,59.96429726478077,
,,,,139,0,139,0,,,,,,,,,,,,,,,,,,,,,,1245.189890299982,None,,,,,,,,,,,,,,,,,scale,30,140,sing,old,blue,1242.7571067999816,None,1242.7571067999816,None,1,1.4763523999718018,1242.7571067999816,None,1.4763523999718018,1244.258960999985,None,1244.777050899982,None,1244.777050899982,None,n,0.38426540000364184,1244.777050899982,None,0.38426540000364184,,,128 S,001,2023_Sep_21_1332,ProdSingRedoBetween,2021.2.3,59.96429726478077,
,,,,140,0,140,0,,,,,,,,,,,,,,,,,,,,,,1248.8786172999826,None,,,,,,,,,,,,,,,,,industry,115,141,sing,new,null,1245.6931374999986,None,1245.6931374999986,None,1,2.3082556999870576,1245.6931374999986,None,2.3082556999870576,1248.030649799999,None,1248.5440795999893,None,1248.5440795999893,None,n,0.30528259999118745,1248.5440795999893,None,0.30528259999118745,,,128 S,001,2023_Sep_21_1332,ProdSingRedoBetween,2021.2.3,59.96429726478077,
,,,,141,0,141,0,,,,,,,,,,,,,,,,,,,,,,1252.166590399982,None,,,,,,,,,,,,,,,,,fight,62,142,sing,old,red,1249.3802228999848,None,1249.3802228999848,None,1,1.9091970000008587,1249.3802228999848,None,1.9091970000008587,1251.3154393000004,None,1251.833375599992,None,1251.833375599992,None,n,0.296893499995349,1251.833375599992,None,0.296893499995349,,,128 S,001,2023_Sep_21_1332,ProdSingRedoBetween,2021.2.3,59.96429726478077,
,,,,142,0,142,0,,,,,,,,,,,,,,,,,,,,,,1257.4009927999869,None,,,,,,,,,,,,,,,,,murder,7,143,sing,old,yellow,1252.6850191999984,None,1252.6850191999984,None,1,3.828397200006293,1252.6850191999984,None,3.828397200006293,1256.536726499995,None,1257.0521012999816,None,1257.0521012999816,None,n,0.31722279998939484,1257.0521012999816,None,0.31722279998939484,,,128 S,001,2023_Sep_21_1332,ProdSingRedoBetween,2021.2.3,59.96429726478077,
,,,,143,0,143,0,,,,,,,,,,,,,,,,,,,,,,1260.322846199997,None,,,,,,,,,,,,,,,,,shock,52,144,sing,old,blue,1257.9049660000019,None,1257.9049660000019,None,1,1.5765047000022605,1257.9049660000019,None,1.5765047000022605,1259.5092522999912,None,1260.021923799999,None,1260.021923799999,None,n,0.2835365000064485,1260.021923799999,None,0.2835365000064485,,,128 S,001,2023_Sep_21_1332,ProdSingRedoBetween,2021.2.3,59.96429726478077,
,,,,144,0,144,0,,,,,,,,,,,,,,,,,,,,,,1263.9954253000033,None,,,,,,,,,,,,,,,,,angle,143,145,sing,new,null,1260.8245846999926,None,1260.8245846999926,None,2,2.152877599990461,1260.8245846999926,None,2.152877599990461,1263.0121251999808,None,1263.526969300001,None,1263.526969300001,None,n,0.45053590001771227,1263.526969300001,None,0.45053590001771227,,,128 S,001,2023_Sep_21_1332,ProdSingRedoBetween,2021.2.3,59.96429726478077,
,,,,145,0,145,0,,,,,,,,,,,,,,,,,,,,,,1268.213101100002,None,,,,,,,,,,,,,,,,,cousin,118,146,sing,new,null,1264.5123029999959,None,1264.5123029999959,None,1,2.729126400023233,1264.5123029999959,None,2.729126400023233,1267.2650150999834,None,1267.7792909999844,None,1267.7792909999844,None,n,0.40612460000556894,1267.7792909999844,None,0.40612460000556894,,,128 S,001,2023_Sep_21_1332,ProdSingRedoBetween,2021.2.3,59.96429726478077,
,,,,146,0,146,0,,,,,,,,,,,,,,,,,,,,,,1273.5711673999904,None,,,,,,,,,,,,,,,,,election,135,147,sing,new,null,1268.7157341999991,None,1268.7157341999991,None,1,3.8376723999972455,1268.7157341999991,None,3.8376723999972455,1272.5881203000026,None,1273.1067980999942,None,1273.1067980999942,None,n,0.43076630000723526,1273.1067980999942,None,0.43076630000723526,,,128 S,001,2023_Sep_21_1332,ProdSingRedoBetween,2021.2.3,59.96429726478077,
,,,,147,0,147,0,,,,,,,,,,,,,,,,,,,,,,1277.2559308999917,None,,,,,,,,,,,,,,,,,weather,38,148,sing,old,blue,1274.0879405000014,None,1274.0879405000014,None,4,2.3215340999886394,1274.0879405000014,None,2.3215340999886394,1276.442198899982,None,1276.955061399989,None,1276.955061399989,None,f,0.2703674999938812,1276.955061399989,None,0.2703674999938812,,,128 S,001,2023_Sep_21_1332,ProdSingRedoBetween,2021.2.3,59.96429726478077,
,,,,148,0,148,0,,,,,,,,,,,,,,,,,,,,,,1280.0930011000019,None,,,,,,,,,,,,,,,,,chief,47,149,sing,old,blue,1277.7592437999847,None,1277.7592437999847,None,4,1.3862176999973599,1277.7592437999847,None,1.3862176999973599,1279.178183799988,None,1279.6912765000015,None,1279.6912765000015,None,f,0.37406770000234246,1279.6912765000015,None,0.37406770000234246,,,128 S,001,2023_Sep_21_1332,ProdSingRedoBetween,2021.2.3,59.96429726478077,
,,,,149,0,149,0,,,,,,,,,,,,,,,,,,,,,,1285.462475599983,None,,,,,,,,,,,,,,,,,blind,45,150,sing,old,blue,1280.5938619999797,None,1280.5938619999797,None,2,3.719585399987409,1280.5938619999797,None,3.719585399987409,1284.3319210999762,None,1284.8542914999998,None,1284.8542914999998,None,n,0.5631972999835853,1284.8542914999998,None,0.5631972999835853,,,128 S,001,2023_Sep_21_1332,ProdSingRedoBetween,2021.2.3,59.96429726478077,
,,,,150,0,150,0,,,,,,,,,,,,,,,,,,,,,,1288.4169831999752,None,,,,,,,,,,,,,,,,,production,173,151,sing,new,null,1285.9680541999987,None,1285.9680541999987,None,1,1.5294363000139128,1285.9680541999987,None,1.5294363000139128,1287.5190107999952,None,1288.0332515999908,None,1288.0332515999908,None,n,0.3601968000002671,1288.0332515999908,None,0.3601968000002671,,,128 S,001,2023_Sep_21_1332,ProdSingRedoBetween,2021.2.3,59.96429726478077,
,,,,151,0,151,0,,,,,,,,,,,,,,,,,,,,,,1291.5536753999768,None,,,,,,,,,,,,,,,,,theme,108,152,sing,new,null,1288.918694299995,None,1288.918694299995,None,1,1.6587157000030857,1288.918694299995,None,1.6587157000030857,1290.6059033999918,None,1291.119268999988,None,1291.119268999988,None,n,0.40226929998607375,1291.119268999988,None,0.40226929998607375,,,128 S,001,2023_Sep_21_1332,ProdSingRedoBetween,2021.2.3,59.96429726478077,
,,,,152,0,152,0,,,,,,,,,,,,,,,,,,,,,,1294.4409323,None,,,,,,,,,,,,,,,,,drove,129,153,sing,new,null,1292.0561334999802,None,1292.0561334999802,None,1,1.561355799989542,1292.0561334999802,None,1.561355799989542,1293.644931399991,None,1294.155826399976,None,1294.155826399976,None,n,0.2616883000009693,1294.155826399976,None,0.2616883000009693,,,128 S,001,2023_Sep_21_1332,ProdSingRedoBetween,2021.2.3,59.96429726478077,
,,,,153,0,153,0,,,,,,,,,,,,,,,,,,,,,,1306.1687536999816,None,,,,,,,,,,,,,,,,,quarter,155,154,sing,new,null,1294.9588460999948,None,1294.9588460999948,None,1,10.306583400000818,1294.9588460999948,None,10.306583400000818,1305.2889433999953,None,1305.8011791000026,None,1305.8011791000026,None,n,0.33630409999750555,1305.8011791000026,None,0.33630409999750555,,,128 S,001,2023_Sep_21_1332,ProdSingRedoBetween,2021.2.3,59.96429726478077,
,,,,154,0,154,0,,,,,,,,,,,,,,,,,,,,,,1308.9191517999861,None,,,,,,,,,,,,,,,,,orchestra,179,155,sing,new,null,1306.6708470000012,None,1306.6708470000012,None,1,1.4185969999816734,1306.6708470000012,None,1.4185969999816734,1308.1219556999858,None,1308.6386937999923,None,1308.6386937999923,None,n,0.24274670000886545,1308.6386937999923,None,0.24274670000886545,,,128 S,001,2023_Sep_21_1332,ProdSingRedoBetween,2021.2.3,59.96429726478077,
,,,,155,0,155,0,,,,,,,,,,,,,,,,,,,,,,1311.6087905000022,None,,,,,,,,,,,,,,,,,trial,132,156,sing,new,null,1309.4222077000013,None,1309.4222077000013,None,1,1.3872628000099212,1309.4222077000013,None,1.3872628000099212,1310.8427835999755,None,1311.3563665999973,None,1311.3563665999973,None,n,0.22903439999208786,1311.3563665999973,None,0.22903439999208786,,,128 S,001,2023_Sep_21_1332,ProdSingRedoBetween,2021.2.3,59.96429726478077,
,,,,156,0,156,0,,,,,,,,,,,,,,,,,,,,,,1314.1108095999807,None,,,,,,,,,,,,,,,,,threat,76,157,sing,old,red,1312.1244518999883,None,1312.1244518999883,None,1,1.1969322999939322,1312.1244518999883,None,1.1969322999939322,1313.344186799979,None,1313.858819999994,None,1313.858819999994,None,n,0.22263490001205355,1313.858819999994,None,0.22263490001205355,,,128 S,001,2023_Sep_21_1332,ProdSingRedoBetween,2021.2.3,59.96429726478077,
,,,,157,0,157,0,,,,,,,,,,,,,,,,,,,,,,1316.5118364999944,None,,,,,,,,,,,,,,,,,attack,41,158,sing,old,blue,1314.641521499987,None,1314.641521499987,None,1,1.119998999987729,1314.641521499987,None,1.119998999987729,1315.7869789999968,None,1316.2964486999845,None,1316.2964486999845,None,n,0.1929820999794174,1316.2964486999845,None,0.1929820999794174,,,128 S,001,2023_Sep_21_1332,ProdSingRedoBetween,2021.2.3,59.96429726478077,
,,,,158,0,158,0,,,,,,,,,,,,,,,,,,,,,,1322.184049899981,None,,,,,,,,,,,,,,,,,straight,89,159,sing,old,red,1317.0166089999839,None,1317.0166089999839,None,2,3.0968358000100125,1317.0166089999839,None,3.0968358000100125,1320.134735300002,None,1320.6517762999865,None,1320.6517762999865,None,n,1.5015537999861408,1320.6517762999865,None,1.5015537999861408,,,128 S,001,2023_Sep_21_1332,ProdSingRedoBetween,2021.2.3,59.96429726478077,
,,,,159,0,159,0,,,,,,,,,,,,,,,,,,,,,,1328.5916330999753,None,,,,,,,,,,,,,,,,,bucket,26,160,sing,old,yellow,1322.6877901999978,None,1322.6877901999978,None,4,5.073614299995825,1322.6877901999978,None,5.073614299995825,1327.7921493999893,None,1328.3069278999756,None,1328.3069278999756,None,f,0.25454419999732636,1328.3069278999756,None,0.25454419999732636,,,128 S,001,2023_Sep_21_1332,ProdSingRedoBetween,2021.2.3,59.96429726478077,
,,,,160,0,160,0,,,,,,,,,,,,,,,,,,,,,,1333.545936199982,None,,,,,,,,,,,,,,,,,enemy,0,161,sing,old,yellow,1329.0940111999807,None,1329.0940111999807,None,2,3.123375199997099,1329.0940111999807,None,3.123375199997099,1332.246676299983,None,1332.7607957999862,None,1332.7607957999862,None,n,0.7686720000056084,1332.7607957999862,None,0.7686720000056084,,,128 S,001,2023_Sep_21_1332,ProdSingRedoBetween,2021.2.3,59.96429726478077,
,,,,161,0,161,0,,,,,,,,,,,,,,,,,,,,,,1339.6028235999984,None,,,,,,,,,,,,,,,,,weight,46,162,sing,old,blue,1334.0481062000035,None,1334.0481062000035,None,4,4.67332639999222,1334.0481062000035,None,4.67332639999222,1338.751887899998,None,1339.2674830000033,None,1339.2674830000033,None,f,0.317961099994136,1339.2674830000033,None,0.317961099994136,,,128 S,001,2023_Sep_21_1332,ProdSingRedoBetween,2021.2.3,59.96429726478077,
,,,,162,0,162,0,,,,,,,,,,,,,,,,,,,,,,1344.7572617999977,None,,,,,,,,,,,,,,,,,phrase,138,163,sing,new,null,1340.1185342999815,None,1340.1185342999815,None,2,3.7788192000007257,1340.1185342999815,None,3.7788192000007257,1343.9242471999896,None,1344.4393482999876,None,1344.4393482999876,None,n,0.2982863999786787,1344.4393482999876,None,0.2982863999786787,,,128 S,001,2023_Sep_21_1332,ProdSingRedoBetween,2021.2.3,59.96429726478077,
,,,,163,0,163,0,,,,,,,,,,,,,,,,,,,,,,1349.2279632999853,None,,,,,,,,,,,,,,,,,problem,147,164,sing,new,null,1345.2754292000027,None,1345.2754292000027,None,4,1.6699680000019725,1345.2754292000027,None,1.6699680000019725,1346.9794323999959,None,1347.4926207999815,None,1347.4926207999815,None,n,1.7168112999934237,1347.4926207999815,None,1.7168112999934237,,,128 S,001,2023_Sep_21_1332,ProdSingRedoBetween,2021.2.3,59.96429726478077,
,,,,164,0,164,0,,,,,,,,,,,,,,,,,,,,,,1353.598241699976,None,,,,,,,,,,,,,,,,,graduate,123,165,sing,new,null,1349.7301566999813,None,1349.7301566999813,None,1,3.031185900006676,1349.7301566999813,None,3.031185900006676,1352.7850959999778,None,1353.2982595999783,None,1353.2982595999783,None,n,0.27115889999549836,1353.2982595999783,None,0.27115889999549836,,,128 S,001,2023_Sep_21_1332,ProdSingRedoBetween,2021.2.3,59.96429726478077,
,,,,165,0,165,0,,,,,,,,,,,,,,,,,,,,,,1357.0852554999874,None,,,,,,,,,,,,,,,,,plane,51,166,sing,old,blue,1354.102192099992,None,1354.102192099992,None,1,2.1472337000013795,1354.102192099992,None,2.1472337000013795,1356.2698677000008,None,1356.784679799981,None,1356.784679799981,None,n,0.2807049000111874,1356.784679799981,None,0.2807049000111874,,,128 S,001,2023_Sep_21_1332,ProdSingRedoBetween,2021.2.3,59.96429726478077,
,,,,166,0,166,0,,,,,,,,,,,,,,,,,,,,,,1361.2583502999914,None,,,,,,,,,,,,,,,,,power,82,167,sing,old,red,1357.5998443999852,None,1357.5998443999852,None,2,2.0737441000237595,1357.5998443999852,None,2.0737441000237595,1359.714511899976,None,1360.2236047999759,None,1360.2236047999759,None,n,1.0098210999858566,1360.2236047999759,None,1.0098210999858566,,,128 S,001,2023_Sep_21_1332,ProdSingRedoBetween,2021.2.3,59.96429726478077,
,,,,167,0,167,0,,,,,,,,,,,,,,,,,,,,,,1364.5439540999942,None,,,,,,,,,,,,,,,,,service,153,168,sing,new,null,1361.776331799978,None,1361.776331799978,None,1,1.9290766000049189,1361.776331799978,None,1.9290766000049189,1363.729620500002,None,1364.2424446999794,None,1364.2424446999794,None,n,0.27898100001038983,1364.2424446999794,None,0.27898100001038983,,,128 S,001,2023_Sep_21_1332,ProdSingRedoBetween,2021.2.3,59.96429726478077,
,,,,168,0,168,0,,,,,,,,,,,,,,,,,,,,,,1367.9317203999963,None,,,,,,,,,,,,,,,,,instrument,1,169,sing,old,yellow,1365.046046399977,None,1365.046046399977,None,4,2.1873967999999877,1365.046046399977,None,2.1873967999999877,1367.2652185999905,None,1367.782605299988,None,1367.782605299988,None,f,0.13084610001533292,1367.782605299988,None,0.13084610001533292,,,128 S,001,2023_Sep_21_1332,ProdSingRedoBetween,2021.2.3,59.96429726478077,
,,,,169,0,169,0,,,,,,,,,,,,,,,,,,,,,,1370.445740199997,None,,,,,,,,,,,,,,,,,close,103,170,sing,new,null,1368.4480323999887,None,1368.4480323999887,None,1,1.249571799999103,1368.4480323999887,None,1.249571799999103,1369.7179236999946,None,1370.235062199994,None,1370.235062199994,None,n,0.1746947000210639,1370.235062199994,None,0.1746947000210639,,,128 S,001,2023_Sep_21_1332,ProdSingRedoBetween,2021.2.3,59.96429726478077,
,,,,170,0,170,0,,,,,,,,,,,,,,,,,,,,,,1376.054480699997,None,,,,,,,,,,,,,,,,,state,24,171,sing,old,yellow,1370.956070699991,None,1370.956070699991,None,1,4.293345300015062,1370.956070699991,None,4.293345300015062,1375.2740236999816,None,1375.7872870999854,None,1375.7872870999854,None,n,0.24617219998617657,1375.7872870999854,None,0.24617219998617657,,,128 S,001,2023_Sep_21_1332,ProdSingRedoBetween,2021.2.3,59.96429726478077,
,,,,171,0,171,0,,,,,,,,,,,,,,,,,,,,,,1379.5587234999985,None,,,,,,,,,,,,,,,,,prime,22,172,sing,old,yellow,1376.5570376999967,None,1376.5570376999967,None,4,2.2843817000102717,1376.5570376999967,None,2.2843817000102717,1378.8609581999772,None,1379.3822580999986,None,1379.3822580999986,None,f,0.14716799999587238,1379.3822580999986,None,0.14716799999587238,,,128 S,001,2023_Sep_21_1332,ProdSingRedoBetween,2021.2.3,59.96429726478077,
,,,,172,0,172,0,,,,,,,,,,,,,,,,,,,,,,1382.9958939999924,None,,,,,,,,,,,,,,,,,color,166,173,sing,new,null,1380.0608245999902,None,1380.0608245999902,None,5,2.060588199994527,1380.0608245999902,None,2.060588199994527,1382.1455245999969,None,1382.6608374999778,None,1382.6608374999778,None,f,0.3088059999863617,1382.6608374999778,None,0.3088059999863617,,,128 S,001,2023_Sep_21_1332,ProdSingRedoBetween,2021.2.3,59.96429726478077,
,,,,173,0,173,0,,,,,,,,,,,,,,,,,,,,,,1385.697992499976,None,,,,,,,,,,,,,,,,,whole,104,174,sing,new,null,1383.49765569999,None,1383.49765569999,None,1,1.3918138000008184,1383.49765569999,None,1.3918138000008184,1384.9203520999872,None,1385.43158579999,None,1385.43158579999,None,n,0.24984679999761283,1385.43158579999,None,0.24984679999761283,,,128 S,001,2023_Sep_21_1332,ProdSingRedoBetween,2021.2.3,59.96429726478077,
,,,,174,0,174,0,,,,,,,,,,,,,,,,,,,,,,1390.8199351999792,None,,,,,,,,,,,,,,,,,nation,149,175,sing,new,null,1386.1995507999964,None,1386.1995507999964,None,4,3.7539001000113785,1386.1995507999964,None,3.7539001000113785,1390.0004935000034,None,1390.5018361999828,None,1390.5018361999828,None,f,0.2998731999832671,1390.5018361999828,None,0.2998731999832671,,,128 S,001,2023_Sep_21_1332,ProdSingRedoBetween,2021.2.3,59.96429726478077,
,,,,175,0,175,0,,,,,,,,,,,,,,,,,,,,,,1393.7573130999808,None,,,,,,,,,,,,,,,,,council,64,176,sing,old,red,1391.3213978999993,None,1391.3213978999993,None,6,1.440026600001147,1391.3213978999993,None,1.440026600001147,1392.792015199986,None,1393.3057416999945,None,1393.3057416999945,None,r,0.43179349999991246,1393.3057416999945,None,0.43179349999991246,,,128 S,001,2023_Sep_21_1332,ProdSingRedoBetween,2021.2.3,59.96429726478077,
,,,,176,0,176,0,,,,,,,,,,,,,,,,,,,,,,1398.7922715999885,None,,,,,,,,,,,,,,,,,dream,29,177,sing,old,blue,1394.2810285000014,None,1394.2810285000014,None,4,3.640404600009788,1394.2810285000014,None,3.640404600009788,1397.9469107999757,None,1398.459921599977,None,1398.459921599977,None,f,0.2935136999876704,1398.459921599977,None,0.2935136999876704,,,128 S,001,2023_Sep_21_1332,ProdSingRedoBetween,2021.2.3,59.96429726478077,
,,,,177,0,177,0,,,,,,,,,,,,,,,,,,,,,,1402.178386899992,None,,,,,,,,,,,,,,,,,country,121,178,sing,new,null,1399.2965940999857,None,1399.2965940999857,None,2,2.032933899987256,1399.2965940999857,None,2.032933899987256,1401.3483515999978,None,1401.8637653999904,None,1401.8637653999904,None,n,0.2824747999839019,1401.8637653999904,None,0.2824747999839019,,,128 S,001,2023_Sep_21_1332,ProdSingRedoBetween,2021.2.3,59.96429726478077,
,,,,178,0,178,0,,,,,,,,,,,,,,,,,,,,,,1404.7664545000007,None,,,,,,,,,,,,,,,,,accident,14,179,sing,old,yellow,1402.687990299979,None,1402.687990299979,None,1,1.1775920999934897,1402.687990299979,None,1.1775920999934897,1403.8851259999792,None,1404.3991752000002,None,1404.3991752000002,None,n,0.346241099992767,1404.3991752000002,None,0.346241099992767,,,128 S,001,2023_Sep_21_1332,ProdSingRedoBetween,2021.2.3,59.96429726478077,
