StudyLoop.thisRepN,StudyLoop.thisTrialN,StudyLoop.thisN,StudyLoop.thisIndex,TestLoop.thisRepN,TestLoop.thisTrialN,TestLoop.thisN,TestLoop.thisIndex,textCondition.started,textCondition.stopped,keyCondition.keys,keyCondition.rt,keyCondition.started,keyCondition.stopped,Condition,textWelcome.started,textWelcome.stopped,keyWelcome.keys,keyWelcome.rt,keyWelcome.started,keyWelcome.stopped,textAloud.started,textAloud.stopped,textSilent.started,textSilent.stopped,textSing.started,textSing.stopped,conditional_text.started,conditional_text.stopped,textBlank500.started,textBlank500.stopped,study_word,study_num,study_order,study_type,word_color,textStudy.started,textStudy.stopped,keyStudy.keys,keyStudy.started,keyStudy.stopped,textTestInstructions.started,textTestInstructions.stopped,key_resp_3.keys,key_resp_3.rt,key_resp_3.started,key_resp_3.stopped,test_word,test_num,test_order,test_condition,old_new_test,test_word_original_color,textConf.started,textConf.stopped,textConfScale.started,textConfScale.stopped,keyConf.keys,keyConf.rt,keyConf.started,keyConf.stopped,confidence response time,textTestBlank.started,textTestBlank.stopped,textRKN.started,textRKN.stopped,textRKNScale.started,textRKNScale.stopped,keyRKN.keys,keyRKN.rt,keyRKN.started,keyRKN.stopped,rkn response time,textEnd.started,textEnd.stopped,participant,session,date,expName,psychopyVersion,frameRate,
,,,,,,,,17.85796349999987,None,c,1.0755063999999948,17.85796349999987,None,,,,,,,,,,,,,,,,,,,,,,,,,,,,,,,,,,,,,,,,,,,,,,,,,,,,,,,,,,,,,,Sing12,001,2022_Aug_03_1445,ProdSingRedoBetween,2021.2.3,59.931055313999124,
,,,,,,,,,,,,,,SingTest,18.97526219999986,None,space,561.5103936,18.97526219999986,None,,,,,,,,,,,,,,,,,,,,,,,,,,,,,,,,,,,,,,,,,,,,,,,,,,,,,,,Sing12,001,2022_Aug_03_1445,ProdSingRedoBetween,2021.2.3,59.931055313999124,
0,0,0,0,,,,,,,,,,,,,,,,,,18.97526219999986,None,18.97526219999986,None,18.97526219999986,None,18.97526219999986,None,583.0354114999998,None,pressure,41,1,sing,blue,581.0259326999999,None,None,581.0259326999999,None,,,,,,,,,,,,,,,,,,,,,,,,,,,,,,,,,,,Sing12,001,2022_Aug_03_1445,ProdSingRedoBetween,2021.2.3,59.931055313999124,
1,0,1,0,,,,,,,,,,,,,,,,,,,,,,,,,,585.5547339999998,None,audience,43,2,sing,blue,583.5395732,None,None,583.5395732,None,,,,,,,,,,,,,,,,,,,,,,,,,,,,,,,,,,,Sing12,001,2022_Aug_03_1445,ProdSingRedoBetween,2021.2.3,59.931055313999124,
2,0,2,0,,,,,,,,,,,,,,,,,,,,,,,,,,588.0740489999998,None,master,40,3,sing,blue,586.0644953999999,None,None,586.0644953999999,None,,,,,,,,,,,,,,,,,,,,,,,,,,,,,,,,,,,Sing12,001,2022_Aug_03_1445,ProdSingRedoBetween,2021.2.3,59.931055313999124,
3,0,3,0,,,,,,,,,,,,,,,,,,,,,,,,,,590.5765011999999,None,crime,85,4,sing,red,588.5773304999998,None,None,588.5773304999998,None,,,,,,,,,,,,,,,,,,,,,,,,,,,,,,,,,,,Sing12,001,2022_Aug_03_1445,ProdSingRedoBetween,2021.2.3,59.931055313999124,
4,0,4,0,,,,,,,,,,,,,,,,,,,,,,,,,,593.0955316999998,None,review,33,5,sing,blue,591.0870785,None,None,591.0870785,None,,,,,,,,,,,,,,,,,,,,,,,,,,,,,,,,,,,Sing12,001,2022_Aug_03_1445,ProdSingRedoBetween,2021.2.3,59.931055313999124,
5,0,5,0,,,,,,,,,,,,,,,,,,,,,,,,,,595.5981910999999,None,opening,65,6,sing,red,593.5991887999999,None,None,593.5991887999999,None,,,,,,,,,,,,,,,,,,,,,,,,,,,,,,,,,,,Sing12,001,2022_Aug_03_1445,ProdSingRedoBetween,2021.2.3,59.931055313999124,
6,0,6,0,,,,,,,,,,,,,,,,,,,,,,,,,,598.1191631999998,None,present,56,7,sing,blue,596.1061674999999,None,None,596.1061674999999,None,,,,,,,,,,,,,,,,,,,,,,,,,,,,,,,,,,,Sing12,001,2022_Aug_03_1445,ProdSingRedoBetween,2021.2.3,59.931055313999124,
7,0,7,0,,,,,,,,,,,,,,,,,,,,,,,,,,600.6198293999998,None,color,60,8,sing,red,598.6175387999999,None,None,598.6175387999999,None,,,,,,,,,,,,,,,,,,,,,,,,,,,,,,,,,,,Sing12,001,2022_Aug_03_1445,ProdSingRedoBetween,2021.2.3,59.931055313999124,
8,0,8,0,,,,,,,,,,,,,,,,,,,,,,,,,,603.1222127999999,None,owner,25,9,sing,yellow,601.120418,None,None,601.120418,None,,,,,,,,,,,,,,,,,,,,,,,,,,,,,,,,,,,Sing12,001,2022_Aug_03_1445,ProdSingRedoBetween,2021.2.3,59.931055313999124,
9,0,9,0,,,,,,,,,,,,,,,,,,,,,,,,,,605.6417257999999,None,citizen,87,10,sing,red,603.6298488999998,None,None,603.6298488999998,None,,,,,,,,,,,,,,,,,,,,,,,,,,,,,,,,,,,Sing12,001,2022_Aug_03_1445,ProdSingRedoBetween,2021.2.3,59.931055313999124,
10,0,10,0,,,,,,,,,,,,,,,,,,,,,,,,,,608.1605255999998,None,candidate,57,11,sing,blue,606.1512621999998,None,None,606.1512621999998,None,,,,,,,,,,,,,,,,,,,,,,,,,,,,,,,,,,,Sing12,001,2022_Aug_03_1445,ProdSingRedoBetween,2021.2.3,59.931055313999124,
11,0,11,0,,,,,,,,,,,,,,,,,,,,,,,,,,610.6632043,None,recall,19,12,sing,yellow,608.6610109999999,None,None,608.6610109999999,None,,,,,,,,,,,,,,,,,,,,,,,,,,,,,,,,,,,Sing12,001,2022_Aug_03_1445,ProdSingRedoBetween,2021.2.3,59.931055313999124,
12,0,12,0,,,,,,,,,,,,,,,,,,,,,,,,,,613.1823622999998,None,enemy,42,13,sing,blue,611.1675779,None,None,611.1675779,None,,,,,,,,,,,,,,,,,,,,,,,,,,,,,,,,,,,Sing12,001,2022_Aug_03_1445,ProdSingRedoBetween,2021.2.3,59.931055313999124,
13,0,13,0,,,,,,,,,,,,,,,,,,,,,,,,,,615.6848644999998,None,husband,10,14,sing,yellow,613.6827102,None,None,613.6827102,None,,,,,,,,,,,,,,,,,,,,,,,,,,,,,,,,,,,Sing12,001,2022_Aug_03_1445,ProdSingRedoBetween,2021.2.3,59.931055313999124,
14,0,14,0,,,,,,,,,,,,,,,,,,,,,,,,,,618.1875479999999,None,income,63,15,sing,red,616.1852442999998,None,None,616.1852442999998,None,,,,,,,,,,,,,,,,,,,,,,,,,,,,,,,,,,,Sing12,001,2022_Aug_03_1445,ProdSingRedoBetween,2021.2.3,59.931055313999124,
15,0,15,0,,,,,,,,,,,,,,,,,,,,,,,,,,620.7065803999999,None,oxygen,59,16,sing,yellow,618.693225,None,None,618.693225,None,,,,,,,,,,,,,,,,,,,,,,,,,,,,,,,,,,,Sing12,001,2022_Aug_03_1445,ProdSingRedoBetween,2021.2.3,59.931055313999124,
16,0,16,0,,,,,,,,,,,,,,,,,,,,,,,,,,623.2257354999999,None,discovery,58,17,sing,blue,621.2162033999998,None,None,621.2162033999998,None,,,,,,,,,,,,,,,,,,,,,,,,,,,,,,,,,,,Sing12,001,2022_Aug_03_1445,ProdSingRedoBetween,2021.2.3,59.931055313999124,
17,0,17,0,,,,,,,,,,,,,,,,,,,,,,,,,,625.7282389999998,None,search,11,18,sing,yellow,623.7289688999999,None,None,623.7289688999999,None,,,,,,,,,,,,,,,,,,,,,,,,,,,,,,,,,,,Sing12,001,2022_Aug_03_1445,ProdSingRedoBetween,2021.2.3,59.931055313999124,
18,0,18,0,,,,,,,,,,,,,,,,,,,,,,,,,,628.2470942999998,None,emergency,88,19,sing,red,626.2335036,None,None,626.2335036,None,,,,,,,,,,,,,,,,,,,,,,,,,,,,,,,,,,,Sing12,001,2022_Aug_03_1445,ProdSingRedoBetween,2021.2.3,59.931055313999124,
19,0,19,0,,,,,,,,,,,,,,,,,,,,,,,,,,630.7498885,None,institute,29,20,sing,blue,628.7477829,None,None,628.7477829,None,,,,,,,,,,,,,,,,,,,,,,,,,,,,,,,,,,,Sing12,001,2022_Aug_03_1445,ProdSingRedoBetween,2021.2.3,59.931055313999124,
20,0,20,0,,,,,,,,,,,,,,,,,,,,,,,,,,633.2691029999999,None,captain,38,21,sing,blue,631.2538067999999,None,None,631.2538067999999,None,,,,,,,,,,,,,,,,,,,,,,,,,,,,,,,,,,,Sing12,001,2022_Aug_03_1445,ProdSingRedoBetween,2021.2.3,59.931055313999124,
21,0,21,0,,,,,,,,,,,,,,,,,,,,,,,,,,635.7716469,None,platform,0,22,sing,yellow,633.7697083999999,None,None,633.7697083999999,None,,,,,,,,,,,,,,,,,,,,,,,,,,,,,,,,,,,Sing12,001,2022_Aug_03_1445,ProdSingRedoBetween,2021.2.3,59.931055313999124,
22,0,22,0,,,,,,,,,,,,,,,,,,,,,,,,,,638.2741924999998,None,title,32,23,sing,blue,636.2721276999998,None,None,636.2721276999998,None,,,,,,,,,,,,,,,,,,,,,,,,,,,,,,,,,,,Sing12,001,2022_Aug_03_1445,ProdSingRedoBetween,2021.2.3,59.931055313999124,
23,0,23,0,,,,,,,,,,,,,,,,,,,,,,,,,,640.7934601,None,murder,69,24,sing,red,638.7831234999999,None,None,638.7831234999999,None,,,,,,,,,,,,,,,,,,,,,,,,,,,,,,,,,,,Sing12,001,2022_Aug_03_1445,ProdSingRedoBetween,2021.2.3,59.931055313999124,
24,0,24,0,,,,,,,,,,,,,,,,,,,,,,,,,,643.2957643999998,None,guide,62,25,sing,red,641.2938445999998,None,None,641.2938445999998,None,,,,,,,,,,,,,,,,,,,,,,,,,,,,,,,,,,,Sing12,001,2022_Aug_03_1445,ProdSingRedoBetween,2021.2.3,59.931055313999124,
25,0,25,0,,,,,,,,,,,,,,,,,,,,,,,,,,645.8150131999998,None,public,51,26,sing,blue,643.8053026999999,None,None,643.8053026999999,None,,,,,,,,,,,,,,,,,,,,,,,,,,,,,,,,,,,Sing12,001,2022_Aug_03_1445,ProdSingRedoBetween,2021.2.3,59.931055313999124,
26,0,26,0,,,,,,,,,,,,,,,,,,,,,,,,,,648.3173262999999,None,tennis,77,27,sing,red,646.3156176999998,None,None,646.3156176999998,None,,,,,,,,,,,,,,,,,,,,,,,,,,,,,,,,,,,Sing12,001,2022_Aug_03_1445,ProdSingRedoBetween,2021.2.3,59.931055313999124,
27,0,27,0,,,,,,,,,,,,,,,,,,,,,,,,,,650.8200512999999,None,management,83,28,sing,red,648.8191108999999,None,None,648.8191108999999,None,,,,,,,,,,,,,,,,,,,,,,,,,,,,,,,,,,,Sing12,001,2022_Aug_03_1445,ProdSingRedoBetween,2021.2.3,59.931055313999124,
28,0,28,0,,,,,,,,,,,,,,,,,,,,,,,,,,653.3224875999999,None,welcome,49,29,sing,blue,651.3235261,None,None,651.3235261,None,,,,,,,,,,,,,,,,,,,,,,,,,,,,,,,,,,,Sing12,001,2022_Aug_03_1445,ProdSingRedoBetween,2021.2.3,59.931055313999124,
29,0,29,0,,,,,,,,,,,,,,,,,,,,,,,,,,655.8249668999999,None,damage,1,30,sing,yellow,653.8230268999998,None,None,653.8230268999998,None,,,,,,,,,,,,,,,,,,,,,,,,,,,,,,,,,,,Sing12,001,2022_Aug_03_1445,ProdSingRedoBetween,2021.2.3,59.931055313999124,
30,0,30,0,,,,,,,,,,,,,,,,,,,,,,,,,,658.3438974999999,None,military,78,31,sing,red,656.3298089999998,None,None,656.3298089999998,None,,,,,,,,,,,,,,,,,,,,,,,,,,,,,,,,,,,Sing12,001,2022_Aug_03_1445,ProdSingRedoBetween,2021.2.3,59.931055313999124,
31,0,31,0,,,,,,,,,,,,,,,,,,,,,,,,,,660.8466927,None,produce,54,32,sing,blue,658.8445668999998,None,None,658.8445668999998,None,,,,,,,,,,,,,,,,,,,,,,,,,,,,,,,,,,,Sing12,001,2022_Aug_03_1445,ProdSingRedoBetween,2021.2.3,59.931055313999124,
32,0,32,0,,,,,,,,,,,,,,,,,,,,,,,,,,663.348994,None,answer,14,33,sing,yellow,661.3494486999998,None,None,661.3494486999998,None,,,,,,,,,,,,,,,,,,,,,,,,,,,,,,,,,,,Sing12,001,2022_Aug_03_1445,ProdSingRedoBetween,2021.2.3,59.931055313999124,
33,0,33,0,,,,,,,,,,,,,,,,,,,,,,,,,,665.8513777999999,None,second,12,34,sing,yellow,663.8508155999998,None,None,663.8508155999998,None,,,,,,,,,,,,,,,,,,,,,,,,,,,,,,,,,,,Sing12,001,2022_Aug_03_1445,ProdSingRedoBetween,2021.2.3,59.931055313999124,
34,0,34,0,,,,,,,,,,,,,,,,,,,,,,,,,,668.3541613999998,None,strain,9,35,sing,yellow,666.3526216999999,None,None,666.3526216999999,None,,,,,,,,,,,,,,,,,,,,,,,,,,,,,,,,,,,Sing12,001,2022_Aug_03_1445,ProdSingRedoBetween,2021.2.3,59.931055313999124,
35,0,35,0,,,,,,,,,,,,,,,,,,,,,,,,,,670.8731615999998,None,orchestra,35,36,sing,blue,668.8616857999998,None,None,668.8616857999998,None,,,,,,,,,,,,,,,,,,,,,,,,,,,,,,,,,,,Sing12,001,2022_Aug_03_1445,ProdSingRedoBetween,2021.2.3,59.931055313999124,
36,0,36,0,,,,,,,,,,,,,,,,,,,,,,,,,,673.3760372999998,None,commercial,48,37,sing,blue,671.3740392,None,None,671.3740392,None,,,,,,,,,,,,,,,,,,,,,,,,,,,,,,,,,,,Sing12,001,2022_Aug_03_1445,ProdSingRedoBetween,2021.2.3,59.931055313999124,
37,0,37,0,,,,,,,,,,,,,,,,,,,,,,,,,,675.8950995999999,None,skill,55,38,sing,blue,673.8831292,None,None,673.8831292,None,,,,,,,,,,,,,,,,,,,,,,,,,,,,,,,,,,,Sing12,001,2022_Aug_03_1445,ProdSingRedoBetween,2021.2.3,59.931055313999124,
38,0,38,0,,,,,,,,,,,,,,,,,,,,,,,,,,678.4142056999999,None,gesture,31,39,sing,blue,676.4005017999998,None,None,676.4005017999998,None,,,,,,,,,,,,,,,,,,,,,,,,,,,,,,,,,,,Sing12,001,2022_Aug_03_1445,ProdSingRedoBetween,2021.2.3,59.931055313999124,
39,0,39,0,,,,,,,,,,,,,,,,,,,,,,,,,,680.9333162999999,None,curve,80,40,sing,red,678.9199993999998,None,None,678.9199993999998,None,,,,,,,,,,,,,,,,,,,,,,,,,,,,,,,,,,,Sing12,001,2022_Aug_03_1445,ProdSingRedoBetween,2021.2.3,59.931055313999124,
40,0,40,0,,,,,,,,,,,,,,,,,,,,,,,,,,683.4359823,None,sleep,68,41,sing,red,681.4339719,None,None,681.4339719,None,,,,,,,,,,,,,,,,,,,,,,,,,,,,,,,,,,,Sing12,001,2022_Aug_03_1445,ProdSingRedoBetween,2021.2.3,59.931055313999124,
41,0,41,0,,,,,,,,,,,,,,,,,,,,,,,,,,685.9383997,None,edition,52,42,sing,blue,683.9364023999999,None,None,683.9364023999999,None,,,,,,,,,,,,,,,,,,,,,,,,,,,,,,,,,,,Sing12,001,2022_Aug_03_1445,ProdSingRedoBetween,2021.2.3,59.931055313999124,
42,0,42,0,,,,,,,,,,,,,,,,,,,,,,,,,,688.4572733999998,None,period,2,43,sing,yellow,686.4501848,None,None,686.4501848,None,,,,,,,,,,,,,,,,,,,,,,,,,,,,,,,,,,,Sing12,001,2022_Aug_03_1445,ProdSingRedoBetween,2021.2.3,59.931055313999124,
43,0,43,0,,,,,,,,,,,,,,,,,,,,,,,,,,690.9600982,None,attack,84,44,sing,red,688.9581698,None,None,688.9581698,None,,,,,,,,,,,,,,,,,,,,,,,,,,,,,,,,,,,Sing12,001,2022_Aug_03_1445,ProdSingRedoBetween,2021.2.3,59.931055313999124,
44,0,44,0,,,,,,,,,,,,,,,,,,,,,,,,,,693.4627181999999,None,instrument,86,45,sing,red,691.4632717999998,None,None,691.4632717999998,None,,,,,,,,,,,,,,,,,,,,,,,,,,,,,,,,,,,Sing12,001,2022_Aug_03_1445,ProdSingRedoBetween,2021.2.3,59.931055313999124,
45,0,45,0,,,,,,,,,,,,,,,,,,,,,,,,,,695.9820017999998,None,broad,71,46,sing,red,693.9664571999999,None,None,693.9664571999999,None,,,,,,,,,,,,,,,,,,,,,,,,,,,,,,,,,,,Sing12,001,2022_Aug_03_1445,ProdSingRedoBetween,2021.2.3,59.931055313999124,
46,0,46,0,,,,,,,,,,,,,,,,,,,,,,,,,,698.4844647999998,None,dream,89,47,sing,red,696.4844962999998,None,None,696.4844962999998,None,,,,,,,,,,,,,,,,,,,,,,,,,,,,,,,,,,,Sing12,001,2022_Aug_03_1445,ProdSingRedoBetween,2021.2.3,59.931055313999124,
47,0,47,0,,,,,,,,,,,,,,,,,,,,,,,,,,701.0034370999999,None,society,74,48,sing,red,698.9969896999999,None,None,698.9969896999999,None,,,,,,,,,,,,,,,,,,,,,,,,,,,,,,,,,,,Sing12,001,2022_Aug_03_1445,ProdSingRedoBetween,2021.2.3,59.931055313999124,
48,0,48,0,,,,,,,,,,,,,,,,,,,,,,,,,,703.5060418999999,None,length,72,49,sing,red,701.5040035,None,None,701.5040035,None,,,,,,,,,,,,,,,,,,,,,,,,,,,,,,,,,,,Sing12,001,2022_Aug_03_1445,ProdSingRedoBetween,2021.2.3,59.931055313999124,
49,0,49,0,,,,,,,,,,,,,,,,,,,,,,,,,,706.0252048,None,business,23,50,sing,yellow,704.0174718999999,None,None,704.0174718999999,None,,,,,,,,,,,,,,,,,,,,,,,,,,,,,,,,,,,Sing12,001,2022_Aug_03_1445,ProdSingRedoBetween,2021.2.3,59.931055313999124,
50,0,50,0,,,,,,,,,,,,,,,,,,,,,,,,,,708.5276239999998,None,community,27,51,sing,yellow,706.5267273999998,None,None,706.5267273999998,None,,,,,,,,,,,,,,,,,,,,,,,,,,,,,,,,,,,Sing12,001,2022_Aug_03_1445,ProdSingRedoBetween,2021.2.3,59.931055313999124,
51,0,51,0,,,,,,,,,,,,,,,,,,,,,,,,,,711.0302443999999,None,company,73,52,sing,red,709.0283949,None,None,709.0283949,None,,,,,,,,,,,,,,,,,,,,,,,,,,,,,,,,,,,Sing12,001,2022_Aug_03_1445,ProdSingRedoBetween,2021.2.3,59.931055313999124,
52,0,52,0,,,,,,,,,,,,,,,,,,,,,,,,,,713.5493422,None,research,3,53,sing,yellow,711.5442326,None,None,711.5442326,None,,,,,,,,,,,,,,,,,,,,,,,,,,,,,,,,,,,Sing12,001,2022_Aug_03_1445,ProdSingRedoBetween,2021.2.3,59.931055313999124,
53,0,53,0,,,,,,,,,,,,,,,,,,,,,,,,,,716.0515727,None,treatment,76,54,sing,red,714.0498691999999,None,None,714.0498691999999,None,,,,,,,,,,,,,,,,,,,,,,,,,,,,,,,,,,,Sing12,001,2022_Aug_03_1445,ProdSingRedoBetween,2021.2.3,59.931055313999124,
54,0,54,0,,,,,,,,,,,,,,,,,,,,,,,,,,718.5711033999999,None,author,53,55,sing,blue,716.5559423999998,None,None,716.5559423999998,None,,,,,,,,,,,,,,,,,,,,,,,,,,,,,,,,,,,Sing12,001,2022_Aug_03_1445,ProdSingRedoBetween,2021.2.3,59.931055313999124,
55,0,55,0,,,,,,,,,,,,,,,,,,,,,,,,,,721.0902941999998,None,substance,34,56,sing,blue,719.0747359999998,None,None,719.0747359999998,None,,,,,,,,,,,,,,,,,,,,,,,,,,,,,,,,,,,Sing12,001,2022_Aug_03_1445,ProdSingRedoBetween,2021.2.3,59.931055313999124,
56,0,56,0,,,,,,,,,,,,,,,,,,,,,,,,,,723.5927901999999,None,balance,20,57,sing,yellow,721.5932553999999,None,None,721.5932553999999,None,,,,,,,,,,,,,,,,,,,,,,,,,,,,,,,,,,,Sing12,001,2022_Aug_03_1445,ProdSingRedoBetween,2021.2.3,59.931055313999124,
57,0,57,0,,,,,,,,,,,,,,,,,,,,,,,,,,726.0952643999999,None,profession,37,58,sing,blue,724.0946351999999,None,None,724.0946351999999,None,,,,,,,,,,,,,,,,,,,,,,,,,,,,,,,,,,,Sing12,001,2022_Aug_03_1445,ProdSingRedoBetween,2021.2.3,59.931055313999124,
58,0,58,0,,,,,,,,,,,,,,,,,,,,,,,,,,728.5977524999998,None,smooth,81,59,sing,red,726.5960264,None,None,726.5960264,None,,,,,,,,,,,,,,,,,,,,,,,,,,,,,,,,,,,Sing12,001,2022_Aug_03_1445,ProdSingRedoBetween,2021.2.3,59.931055313999124,
59,0,59,0,,,,,,,,,,,,,,,,,,,,,,,,,,731.1004014,None,meeting,70,60,sing,red,729.0984343,None,None,729.0984343,None,,,,,,,,,,,,,,,,,,,,,,,,,,,,,,,,,,,Sing12,001,2022_Aug_03_1445,ProdSingRedoBetween,2021.2.3,59.931055313999124,
60,0,60,0,,,,,,,,,,,,,,,,,,,,,,,,,,733.6025093999997,None,hearing,79,61,sing,red,731.6007267999998,None,None,731.6007267999998,None,,,,,,,,,,,,,,,,,,,,,,,,,,,,,,,,,,,Sing12,001,2022_Aug_03_1445,ProdSingRedoBetween,2021.2.3,59.931055313999124,
61,0,61,0,,,,,,,,,,,,,,,,,,,,,,,,,,736.1053431999999,None,trend,26,62,sing,yellow,734.1030179999998,None,None,734.1030179999998,None,,,,,,,,,,,,,,,,,,,,,,,,,,,,,,,,,,,Sing12,001,2022_Aug_03_1445,ProdSingRedoBetween,2021.2.3,59.931055313999124,
62,0,62,0,,,,,,,,,,,,,,,,,,,,,,,,,,738.6078388000001,None,literature,7,63,sing,yellow,736.6082200999999,None,None,736.6082200999999,None,,,,,,,,,,,,,,,,,,,,,,,,,,,,,,,,,,,Sing12,001,2022_Aug_03_1445,ProdSingRedoBetween,2021.2.3,59.931055313999124,
63,0,63,0,,,,,,,,,,,,,,,,,,,,,,,,,,741.1272578999997,None,season,64,64,sing,red,739.1130782,None,None,739.1130782,None,,,,,,,,,,,,,,,,,,,,,,,,,,,,,,,,,,,Sing12,001,2022_Aug_03_1445,ProdSingRedoBetween,2021.2.3,59.931055313999124,
64,0,64,0,,,,,,,,,,,,,,,,,,,,,,,,,,743.6460346999997,None,signal,67,65,sing,red,741.6319853999998,None,None,741.6319853999998,None,,,,,,,,,,,,,,,,,,,,,,,,,,,,,,,,,,,Sing12,001,2022_Aug_03_1445,ProdSingRedoBetween,2021.2.3,59.931055313999124,
65,0,65,0,,,,,,,,,,,,,,,,,,,,,,,,,,746.1487041999999,None,breath,61,66,sing,red,744.1463868000001,None,None,744.1463868000001,None,,,,,,,,,,,,,,,,,,,,,,,,,,,,,,,,,,,Sing12,001,2022_Aug_03_1445,ProdSingRedoBetween,2021.2.3,59.931055313999124,
66,0,66,0,,,,,,,,,,,,,,,,,,,,,,,,,,748.6511037,None,estate,18,67,sing,yellow,746.6490912999998,None,None,746.6490912999998,None,,,,,,,,,,,,,,,,,,,,,,,,,,,,,,,,,,,Sing12,001,2022_Aug_03_1445,ProdSingRedoBetween,2021.2.3,59.931055313999124,
67,0,67,0,,,,,,,,,,,,,,,,,,,,,,,,,,751.1537533999999,None,motion,75,68,sing,red,749.1524752,None,None,749.1524752,None,,,,,,,,,,,,,,,,,,,,,,,,,,,,,,,,,,,Sing12,001,2022_Aug_03_1445,ProdSingRedoBetween,2021.2.3,59.931055313999124,
68,0,68,0,,,,,,,,,,,,,,,,,,,,,,,,,,753.6729243999998,None,material,8,69,sing,yellow,751.6574277,None,None,751.6574277,None,,,,,,,,,,,,,,,,,,,,,,,,,,,,,,,,,,,Sing12,001,2022_Aug_03_1445,ProdSingRedoBetween,2021.2.3,59.931055313999124,
69,0,69,0,,,,,,,,,,,,,,,,,,,,,,,,,,756.1752763,None,foundation,13,70,sing,yellow,754.1733521000001,None,None,754.1733521000001,None,,,,,,,,,,,,,,,,,,,,,,,,,,,,,,,,,,,Sing12,001,2022_Aug_03_1445,ProdSingRedoBetween,2021.2.3,59.931055313999124,
70,0,70,0,,,,,,,,,,,,,,,,,,,,,,,,,,758.6945221999999,None,staff,45,71,sing,blue,756.6813278999998,None,None,756.6813278999998,None,,,,,,,,,,,,,,,,,,,,,,,,,,,,,,,,,,,Sing12,001,2022_Aug_03_1445,ProdSingRedoBetween,2021.2.3,59.931055313999124,
71,0,71,0,,,,,,,,,,,,,,,,,,,,,,,,,,761.2138593,None,goose,82,72,sing,red,759.2018650999998,None,None,759.2018650999998,None,,,,,,,,,,,,,,,,,,,,,,,,,,,,,,,,,,,Sing12,001,2022_Aug_03_1445,ProdSingRedoBetween,2021.2.3,59.931055313999124,
72,0,72,0,,,,,,,,,,,,,,,,,,,,,,,,,,763.7161560999998,None,member,4,73,sing,yellow,761.7142011999999,None,None,761.7142011999999,None,,,,,,,,,,,,,,,,,,,,,,,,,,,,,,,,,,,Sing12,001,2022_Aug_03_1445,ProdSingRedoBetween,2021.2.3,59.931055313999124,
73,0,73,0,,,,,,,,,,,,,,,,,,,,,,,,,,766.2353607999999,None,clean,17,74,sing,yellow,764.2206096,None,None,764.2206096,None,,,,,,,,,,,,,,,,,,,,,,,,,,,,,,,,,,,Sing12,001,2022_Aug_03_1445,ProdSingRedoBetween,2021.2.3,59.931055313999124,
74,0,74,0,,,,,,,,,,,,,,,,,,,,,,,,,,768.7377197999999,None,union,15,75,sing,yellow,766.7383713999998,None,None,766.7383713999998,None,,,,,,,,,,,,,,,,,,,,,,,,,,,,,,,,,,,Sing12,001,2022_Aug_03_1445,ProdSingRedoBetween,2021.2.3,59.931055313999124,
75,0,75,0,,,,,,,,,,,,,,,,,,,,,,,,,,771.2403036000001,None,rapid,50,76,sing,blue,769.2382539999999,None,None,769.2382539999999,None,,,,,,,,,,,,,,,,,,,,,,,,,,,,,,,,,,,Sing12,001,2022_Aug_03_1445,ProdSingRedoBetween,2021.2.3,59.931055313999124,
76,0,76,0,,,,,,,,,,,,,,,,,,,,,,,,,,773.7435158999997,None,addition,5,77,sing,yellow,771.7409622,None,None,771.7409622,None,,,,,,,,,,,,,,,,,,,,,,,,,,,,,,,,,,,Sing12,001,2022_Aug_03_1445,ProdSingRedoBetween,2021.2.3,59.931055313999124,
77,0,77,0,,,,,,,,,,,,,,,,,,,,,,,,,,776.2621682999998,None,impact,24,78,sing,yellow,774.2553331999998,None,None,774.2553331999998,None,,,,,,,,,,,,,,,,,,,,,,,,,,,,,,,,,,,Sing12,001,2022_Aug_03_1445,ProdSingRedoBetween,2021.2.3,59.931055313999124,
78,0,78,0,,,,,,,,,,,,,,,,,,,,,,,,,,778.7808973000001,None,majority,39,79,sing,blue,776.7708214999998,None,None,776.7708214999998,None,,,,,,,,,,,,,,,,,,,,,,,,,,,,,,,,,,,Sing12,001,2022_Aug_03_1445,ProdSingRedoBetween,2021.2.3,59.931055313999124,
79,0,79,0,,,,,,,,,,,,,,,,,,,,,,,,,,781.3003495999997,None,subject,46,80,sing,blue,779.2854514999999,None,None,779.2854514999999,None,,,,,,,,,,,,,,,,,,,,,,,,,,,,,,,,,,,Sing12,001,2022_Aug_03_1445,ProdSingRedoBetween,2021.2.3,59.931055313999124,
80,0,80,0,,,,,,,,,,,,,,,,,,,,,,,,,,783.8030008999999,None,country,28,81,sing,yellow,781.8009201,None,None,781.8009201,None,,,,,,,,,,,,,,,,,,,,,,,,,,,,,,,,,,,Sing12,001,2022_Aug_03_1445,ProdSingRedoBetween,2021.2.3,59.931055313999124,
81,0,81,0,,,,,,,,,,,,,,,,,,,,,,,,,,786.3052545999999,None,passage,30,82,sing,blue,784.3033861999997,None,None,784.3033861999997,None,,,,,,,,,,,,,,,,,,,,,,,,,,,,,,,,,,,Sing12,001,2022_Aug_03_1445,ProdSingRedoBetween,2021.2.3,59.931055313999124,
82,0,82,0,,,,,,,,,,,,,,,,,,,,,,,,,,788.8246408,None,drove,44,83,sing,blue,786.8138608999998,None,None,786.8138608999998,None,,,,,,,,,,,,,,,,,,,,,,,,,,,,,,,,,,,Sing12,001,2022_Aug_03_1445,ProdSingRedoBetween,2021.2.3,59.931055313999124,
83,0,83,0,,,,,,,,,,,,,,,,,,,,,,,,,,791.3268697999997,None,drama,36,84,sing,blue,789.3251323,None,None,789.3251323,None,,,,,,,,,,,,,,,,,,,,,,,,,,,,,,,,,,,Sing12,001,2022_Aug_03_1445,ProdSingRedoBetween,2021.2.3,59.931055313999124,
84,0,84,0,,,,,,,,,,,,,,,,,,,,,,,,,,793.8296857999999,None,population,6,85,sing,yellow,791.8275921999998,None,None,791.8275921999998,None,,,,,,,,,,,,,,,,,,,,,,,,,,,,,,,,,,,Sing12,001,2022_Aug_03_1445,ProdSingRedoBetween,2021.2.3,59.931055313999124,
85,0,85,0,,,,,,,,,,,,,,,,,,,,,,,,,,796.332289,None,sight,66,86,sing,red,794.3300829999998,None,None,794.3300829999998,None,,,,,,,,,,,,,,,,,,,,,,,,,,,,,,,,,,,Sing12,001,2022_Aug_03_1445,ProdSingRedoBetween,2021.2.3,59.931055313999124,
86,0,86,0,,,,,,,,,,,,,,,,,,,,,,,,,,798.8343219999997,None,collection,16,87,sing,yellow,796.8328434999999,None,None,796.8328434999999,None,,,,,,,,,,,,,,,,,,,,,,,,,,,,,,,,,,,Sing12,001,2022_Aug_03_1445,ProdSingRedoBetween,2021.2.3,59.931055313999124,
87,0,87,0,,,,,,,,,,,,,,,,,,,,,,,,,,801.3370743999999,None,atmosphere,22,88,sing,yellow,799.3350987999997,None,None,799.3350987999997,None,,,,,,,,,,,,,,,,,,,,,,,,,,,,,,,,,,,Sing12,001,2022_Aug_03_1445,ProdSingRedoBetween,2021.2.3,59.931055313999124,
88,0,88,0,,,,,,,,,,,,,,,,,,,,,,,,,,803.8393971,None,error,47,89,sing,blue,801.837837,None,None,801.837837,None,,,,,,,,,,,,,,,,,,,,,,,,,,,,,,,,,,,Sing12,001,2022_Aug_03_1445,ProdSingRedoBetween,2021.2.3,59.931055313999124,
89,0,89,0,,,,,,,,,,,,,,,,,,,,,,,,,,806.3421751999999,None,committee,21,90,sing,yellow,804.3403300999998,None,None,804.3403300999998,None,,,,,,,,,,,,,,,,,,,,,,,,,,,,,,,,,,,Sing12,001,2022_Aug_03_1445,ProdSingRedoBetween,2021.2.3,59.931055313999124,
,,,,,,,,,,,,,,,,,,,,,,,,,,,,,,,,,,,,,,,,,806.8429348999998,None,k,136.9707785999999,806.8429348999998,None,,,,,,,,,,,,,,,,,,,,,,,,,,,,,Sing12,001,2022_Aug_03_1445,ProdSingRedoBetween,2021.2.3,59.931055313999124,
,,,,0,0,0,0,,,,,,,,,,,,,,,,,,,,,,959.3783583,None,,,,,,,,,,,,,,,,,curve,80,1,sing,old,red,944.3429821999998,None,944.3429821999998,None,6,10.598784300000261,944.3429821999998,None,10.598784300000261,954.9627163999999,None,955.4765574999997,None,955.4765574999997,None,f,3.8731198000000404,955.4765574999997,None,3.8731198000000404,,,Sing12,001,2022_Aug_03_1445,ProdSingRedoBetween,2021.2.3,59.931055313999124,
,,,,1,0,1,0,,,,,,,,,,,,,,,,,,,,,,969.4385087999999,None,,,,,,,,,,,,,,,,,audience,43,2,sing,old,blue,959.8846933,None,959.8846933,None,6,4.808978399999887,959.8846933,None,4.808978399999887,964.7167990999997,None,965.2214669999998,None,965.2214669999998,None,f,4.20019769999999,965.2214669999998,None,4.20019769999999,,,Sing12,001,2022_Aug_03_1445,ProdSingRedoBetween,2021.2.3,59.931055313999124,
,,,,2,0,2,0,,,,,,,,,,,,,,,,,,,,,,974.9447511999997,None,,,,,,,,,,,,,,,,,appeal,123,3,sing,new,null,969.9496733000001,None,969.9496733000001,None,1,2.847955699999602,969.9496733000001,None,2.847955699999602,972.8278541,None,973.3421817999997,None,973.3421817999997,None,n,1.5835345000000416,973.3421817999997,None,1.5835345000000416,,,Sing12,001,2022_Aug_03_1445,ProdSingRedoBetween,2021.2.3,59.931055313999124,
,,,,3,0,3,0,,,,,,,,,,,,,,,,,,,,,,979.3815606999997,None,,,,,,,,,,,,,,,,,theme,179,4,sing,new,null,975.4533397,None,975.4533397,None,1,2.336336200000005,975.4533397,None,2.336336200000005,977.8152752000001,None,978.3325956999997,None,978.3325956999997,None,n,1.0249639000003299,978.3325956999997,None,1.0249639000003299,,,Sing12,001,2022_Aug_03_1445,ProdSingRedoBetween,2021.2.3,59.931055313999124,
,,,,4,0,4,0,,,,,,,,,,,,,,,,,,,,,,984.3533751999998,None,,,,,,,,,,,,,,,,,oxygen,59,5,sing,old,yellow,979.8904748,None,979.8904748,None,6,2.4271271000002343,979.8904748,None,2.4271271000002343,982.3347230999998,None,982.8349419000001,None,982.8349419000001,None,r,1.4906888000000436,982.8349419000001,None,1.4906888000000436,,,Sing12,001,2022_Aug_03_1445,ProdSingRedoBetween,2021.2.3,59.931055313999124,
,,,,5,0,5,0,,,,,,,,,,,,,,,,,,,,,,990.6096448999997,None,,,,,,,,,,,,,,,,,foundation,13,6,sing,old,yellow,984.8626820999998,None,984.8626820999998,None,6,4.102994299999864,984.8626820999998,None,4.102994299999864,988.9942309999997,None,989.5173488999999,None,989.5173488999999,None,f,1.0722836999998435,989.5173488999999,None,1.0722836999998435,,,Sing12,001,2022_Aug_03_1445,ProdSingRedoBetween,2021.2.3,59.931055313999124,
,,,,6,0,6,0,,,,,,,,,,,,,,,,,,,,,,995.6479652999997,None,,,,,,,,,,,,,,,,,goose,82,7,sing,old,red,991.1163167999998,None,991.1163167999998,None,6,3.0894978999999694,991.1163167999998,None,3.0894978999999694,994.2302798999999,None,994.7328133999999,None,994.7328133999999,None,r,0.8968783000000258,994.7328133999999,None,0.8968783000000258,,,Sing12,001,2022_Aug_03_1445,ProdSingRedoBetween,2021.2.3,59.931055313999124,
,,,,7,0,7,0,,,,,,,,,,,,,,,,,,,,,,1002.5548734999998,None,,,,,,,,,,,,,,,,,welcome,49,8,sing,old,blue,996.1587912,None,996.1587912,None,6,2.782937899999979,996.1587912,None,2.782937899999979,998.9711256,None,999.4882875999997,None,999.4882875999997,None,r,3.0374415999999655,999.4882875999997,None,3.0374415999999655,,,Sing12,001,2022_Aug_03_1445,ProdSingRedoBetween,2021.2.3,59.931055313999124,
,,,,8,0,8,0,,,,,,,,,,,,,,,,,,,,,,1006.8104049999997,None,,,,,,,,,,,,,,,,,level,167,9,sing,new,null,1003.0582644000001,None,1003.0582644000001,None,1,1.947388300000057,1003.0582644000001,None,1.947388300000057,1005.0311400999999,None,1005.5470372999998,None,1005.5470372999998,None,n,1.242725099999916,1005.5470372999998,None,1.242725099999916,,,Sing12,001,2022_Aug_03_1445,ProdSingRedoBetween,2021.2.3,59.931055313999124,
,,,,9,0,9,0,,,,,,,,,,,,,,,,,,,,,,1012.3646712999998,None,,,,,,,,,,,,,,,,,story,99,10,sing,new,null,1007.3178023,None,1007.3178023,None,1,2.02390910000031,1007.3178023,None,2.02390910000031,1009.3628008000001,None,1009.8665693999997,None,1009.8665693999997,None,n,2.4670414000001983,1009.8665693999997,None,2.4670414000001983,,,Sing12,001,2022_Aug_03_1445,ProdSingRedoBetween,2021.2.3,59.931055313999124,
,,,,10,0,10,0,,,,,,,,,,,,,,,,,,,,,,1020.9565917999998,None,,,,,,,,,,,,,,,,,passage,30,11,sing,old,blue,1012.8653761,None,1012.8653761,None,4,4.06834230000004,1012.8653761,None,4.06834230000004,1016.9536033999998,None,1017.4571639000001,None,1017.4571639000001,None,f,3.476517000000058,1017.4571639000001,None,3.476517000000058,,,Sing12,001,2022_Aug_03_1445,ProdSingRedoBetween,2021.2.3,59.931055313999124,
,,,,11,0,11,0,,,,,,,,,,,,,,,,,,,,,,1026.3119554,None,,,,,,,,,,,,,,,,,cover,161,12,sing,new,null,1021.4655288999998,None,1021.4655288999998,None,1,3.236243299999842,1021.4655288999998,None,3.236243299999842,1024.7323262999998,None,1025.2443795999998,None,1025.2443795999998,None,n,1.049235299999964,1025.2443795999998,None,1.049235299999964,,,Sing12,001,2022_Aug_03_1445,ProdSingRedoBetween,2021.2.3,59.931055313999124,
,,,,12,0,12,0,,,,,,,,,,,,,,,,,,,,,,1030.5160836,None,,,,,,,,,,,,,,,,,store,105,13,sing,new,null,1026.824348,None,1026.824348,None,1,1.8134521000001769,1026.824348,None,1.8134521000001769,1028.6661381999998,None,1029.1836126999997,None,1029.1836126999997,None,n,1.3020971000000827,1029.1836126999997,None,1.3020971000000827,,,Sing12,001,2022_Aug_03_1445,ProdSingRedoBetween,2021.2.3,59.931055313999124,
,,,,13,0,13,0,,,,,,,,,,,,,,,,,,,,,,1035.8715263999998,None,,,,,,,,,,,,,,,,,incident,106,14,sing,new,null,1031.0235663999997,None,1031.0235663999997,None,1,3.094122299999981,1031.0235663999997,None,3.094122299999981,1034.1407227,None,1034.6540077999998,None,1034.6540077999998,None,n,1.191617700000279,1034.6540077999998,None,1.191617700000279,,,Sing12,001,2022_Aug_03_1445,ProdSingRedoBetween,2021.2.3,59.931055313999124,
,,,,14,0,14,0,,,,,,,,,,,,,,,,,,,,,,1041.4143135,None,,,,,,,,,,,,,,,,,tennis,77,15,sing,old,red,1036.37448,None,1036.37448,None,5,3.42318750000004,1036.37448,None,3.42318750000004,1039.8261300999998,None,1040.3395228999998,None,1040.3395228999998,None,f,1.0422817999997278,1040.3395228999998,None,1.0422817999997278,,,Sing12,001,2022_Aug_03_1445,ProdSingRedoBetween,2021.2.3,59.931055313999124,
,,,,15,0,15,0,,,,,,,,,,,,,,,,,,,,,,1047.04925,None,,,,,,,,,,,,,,,,,murder,69,16,sing,old,red,1041.9297429999997,None,1041.9297429999997,None,6,2.875913500000024,1041.9297429999997,None,2.875913500000024,1044.8312863,None,1045.3312084,None,1045.3312084,None,f,1.6984899999997651,1045.3312084,None,1.6984899999997651,,,Sing12,001,2022_Aug_03_1445,ProdSingRedoBetween,2021.2.3,59.931055313999124,
,,,,16,0,16,0,,,,,,,,,,,,,,,,,,,,,,1050.6862538999999,None,,,,,,,,,,,,,,,,,beginning,146,17,sing,new,null,1047.5565438999997,None,1047.5565438999997,None,1,1.7930727999996634,1047.5565438999997,None,1.7930727999996634,1049.3685117,None,1049.8740340999998,None,1049.8740340999998,None,n,0.7956357000002754,1049.8740340999998,None,0.7956357000002754,,,Sing12,001,2022_Aug_03_1445,ProdSingRedoBetween,2021.2.3,59.931055313999124,
,,,,17,0,17,0,,,,,,,,,,,,,,,,,,,,,,1054.4066337999998,None,,,,,,,,,,,,,,,,,shape,157,18,sing,new,null,1051.1969363999997,None,1051.1969363999997,None,1,1.7767655000002378,1051.1969363999997,None,1.7767655000002378,1053.0097938,None,1053.5253355,None,1053.5253355,None,n,0.8563669999998638,1053.5253355,None,0.8563669999998638,,,Sing12,001,2022_Aug_03_1445,ProdSingRedoBetween,2021.2.3,59.931055313999124,
,,,,18,0,18,0,,,,,,,,,,,,,,,,,,,,,,1058.5107331999998,None,,,,,,,,,,,,,,,,,atmosphere,22,19,sing,old,yellow,1054.9283203,None,1054.9283203,None,6,2.1094045999998343,1054.9283203,None,2.1094045999998343,1057.065176,None,1057.5801109,None,1057.5801109,None,f,0.9055773999998564,1057.5801109,None,0.9055773999998564,,,Sing12,001,2022_Aug_03_1445,ProdSingRedoBetween,2021.2.3,59.931055313999124,
,,,,19,0,19,0,,,,,,,,,,,,,,,,,,,,,,1063.2487750999999,None,,,,,,,,,,,,,,,,,death,131,20,sing,new,null,1059.0198427999999,None,1059.0198427999999,None,1,2.801839100000052,1059.0198427999999,None,2.801839100000052,1061.847193,None,1062.3480107,None,1062.3480107,None,n,0.8817145999996683,1062.3480107,None,0.8817145999996683,,,Sing12,001,2022_Aug_03_1445,ProdSingRedoBetween,2021.2.3,59.931055313999124,
,,,,20,0,20,0,,,,,,,,,,,,,,,,,,,,,,1069.3882807,None,,,,,,,,,,,,,,,,,guide,62,21,sing,old,red,1063.7563867999997,None,1063.7563867999997,None,5,3.913350399999672,1063.7563867999997,None,3.913350399999672,1067.6923002999997,None,1068.2039279,None,1068.2039279,None,f,1.153849899999841,1068.2039279,None,1.153849899999841,,,Sing12,001,2022_Aug_03_1445,ProdSingRedoBetween,2021.2.3,59.931055313999124,
,,,,21,0,21,0,,,,,,,,,,,,,,,,,,,,,,1073.4588515,None,,,,,,,,,,,,,,,,,graduate,115,22,sing,new,null,1069.8923955999999,None,1069.8923955999999,None,1,1.8812395999998444,1069.8923955999999,None,1.8812395999998444,1071.7916114,None,1072.2947540999999,None,1072.2947540999999,None,n,1.1428688000000875,1072.2947540999999,None,1.1428688000000875,,,Sing12,001,2022_Aug_03_1445,ProdSingRedoBetween,2021.2.3,59.931055313999124,
,,,,22,0,22,0,,,,,,,,,,,,,,,,,,,,,,1077.6464815,None,,,,,,,,,,,,,,,,,damage,1,23,sing,old,yellow,1073.9700739999998,None,1073.9700739999998,None,6,2.1395516000002317,1073.9700739999998,None,2.1395516000002317,1076.1292497999998,None,1076.6320169,None,1076.6320169,None,f,0.9896836999996594,1076.6320169,None,0.9896836999996594,,,Sing12,001,2022_Aug_03_1445,ProdSingRedoBetween,2021.2.3,59.931055313999124,
,,,,23,0,23,0,,,,,,,,,,,,,,,,,,,,,,1082.8849034999998,None,,,,,,,,,,,,,,,,,length,72,24,sing,old,red,1078.1472230999998,None,1078.1472230999998,None,6,2.426581199999873,1078.1472230999998,None,2.426581199999873,1080.6003861,None,1081.1024462999999,None,1081.1024462999999,None,f,1.7592548000002353,1081.1024462999999,None,1.7592548000002353,,,Sing12,001,2022_Aug_03_1445,ProdSingRedoBetween,2021.2.3,59.931055313999124,
,,,,24,0,24,0,,,,,,,,,,,,,,,,,,,,,,1087.2061175,None,,,,,,,,,,,,,,,,,article,126,25,sing,new,null,1083.3924514,None,1083.3924514,None,1,2.0852852000002713,1083.3924514,None,2.0852852000002713,1085.5045244999997,None,1086.0056523999997,None,1086.0056523999997,None,n,1.1840572000000975,1086.0056523999997,None,1.1840572000000975,,,Sing12,001,2022_Aug_03_1445,ProdSingRedoBetween,2021.2.3,59.931055313999124,
,,,,25,0,25,0,,,,,,,,,,,,,,,,,,,,,,1091.4269773,None,,,,,,,,,,,,,,,,,waste,176,26,sing,new,null,1087.7102707,None,1087.7102707,None,1,1.9914466000000175,1087.7102707,None,1.9914466000000175,1089.7284302999997,None,1090.2457519999998,None,1090.2457519999998,None,n,1.1520151999998234,1090.2457519999998,None,1.1520151999998234,,,Sing12,001,2022_Aug_03_1445,ProdSingRedoBetween,2021.2.3,59.931055313999124,
,,,,26,0,26,0,,,,,,,,,,,,,,,,,,,,,,1100.1857338,None,,,,,,,,,,,,,,,,,edition,52,27,sing,old,blue,1091.9350516999998,None,1091.9350516999998,None,2,5.230598099999952,1091.9350516999998,None,5.230598099999952,1097.1827254999998,None,1097.6856064999997,None,1097.6856064999997,None,f,2.4720955000002505,1097.6856064999997,None,2.4720955000002505,,,Sing12,001,2022_Aug_03_1445,ProdSingRedoBetween,2021.2.3,59.931055313999124,
,,,,27,0,27,0,,,,,,,,,,,,,,,,,,,,,,1104.6402509,None,,,,,,,,,,,,,,,,,equipment,98,28,sing,new,null,1100.6999038,None,1100.6999038,None,1,1.8018691000002036,1100.6999038,None,1.8018691000002036,1102.5305223,None,1103.0407037,None,1103.0407037,None,n,1.580931800000144,1103.0407037,None,1.580931800000144,,,Sing12,001,2022_Aug_03_1445,ProdSingRedoBetween,2021.2.3,59.931055313999124,
,,,,28,0,28,0,,,,,,,,,,,,,,,,,,,,,,1109.0645227999998,None,,,,,,,,,,,,,,,,,gesture,31,29,sing,old,blue,1105.1572996999998,None,1105.1572996999998,None,6,2.0563405000002604,1105.1572996999998,None,2.0563405000002604,1107.2428132,None,1107.7431501,None,1107.7431501,None,f,1.3024427000000287,1107.7431501,None,1.3024427000000287,,,Sing12,001,2022_Aug_03_1445,ProdSingRedoBetween,2021.2.3,59.931055313999124,
,,,,29,0,29,0,,,,,,,,,,,,,,,,,,,,,,1113.0483866,None,,,,,,,,,,,,,,,,,rough,174,30,sing,new,null,1109.5833973999997,None,1109.5833973999997,None,1,1.8943254999999226,1109.5833973999997,None,1.8943254999999226,1111.4988072,None,1112.0143352999999,None,1112.0143352999999,None,n,1.015447299999778,1112.0143352999999,None,1.015447299999778,,,Sing12,001,2022_Aug_03_1445,ProdSingRedoBetween,2021.2.3,59.931055313999124,
,,,,30,0,30,0,,,,,,,,,,,,,,,,,,,,,,1116.7355721999998,None,,,,,,,,,,,,,,,,,breath,61,31,sing,old,red,1113.5553562999999,None,1113.5553562999999,None,6,1.7704490999999507,1113.5553562999999,None,1.7704490999999507,1115.3564971,None,1115.8682052,None,1115.8682052,None,f,0.8415230999999039,1115.8682052,None,0.8415230999999039,,,Sing12,001,2022_Aug_03_1445,ProdSingRedoBetween,2021.2.3,59.931055313999124,
,,,,31,0,31,0,,,,,,,,,,,,,,,,,,,,,,1120.5226831999998,None,,,,,,,,,,,,,,,,,platform,0,32,sing,old,yellow,1117.2471778999998,None,1117.2471778999998,None,6,2.0785845000000336,1117.2471778999998,None,2.0785845000000336,1119.3575772,None,1119.8794644999998,None,1119.8794644999998,None,r,0.622233199999755,1119.8794644999998,None,0.622233199999755,,,Sing12,001,2022_Aug_03_1445,ProdSingRedoBetween,2021.2.3,59.931055313999124,
,,,,32,0,32,0,,,,,,,,,,,,,,,,,,,,,,1124.3096249999999,None,,,,,,,,,,,,,,,,,health,119,33,sing,new,null,1121.0344412,None,1121.0344412,None,1,1.6752352999997129,1121.0344412,None,1.6752352999997129,1122.7249754999998,None,1123.2253542999997,None,1123.2253542999997,None,n,1.0603636999999253,1123.2253542999997,None,1.0603636999999253,,,Sing12,001,2022_Aug_03_1445,ProdSingRedoBetween,2021.2.3,59.931055313999124,
,,,,33,0,33,0,,,,,,,,,,,,,,,,,,,,,,1130.1490507999997,None,,,,,,,,,,,,,,,,,phrase,150,34,sing,new,null,1124.8134417,None,1124.8134417,None,1,3.9762688999999227,1124.8134417,None,3.9762688999999227,1128.8154138,None,1129.3156583,None,1129.3156583,None,n,0.8180526999999529,1129.3156583,None,0.8180526999999529,,,Sing12,001,2022_Aug_03_1445,ProdSingRedoBetween,2021.2.3,59.931055313999124,
,,,,34,0,34,0,,,,,,,,,,,,,,,,,,,,,,1134.0193298,None,,,,,,,,,,,,,,,,,degree,155,35,sing,new,null,1130.6582371999998,None,1130.6582371999998,None,1,2.0594387000001007,1130.6582371999998,None,2.0594387000001007,1132.7367236999999,None,1133.2520980999998,None,1133.2520980999998,None,n,0.7376559000003908,1133.2520980999998,None,0.7376559000003908,,,Sing12,001,2022_Aug_03_1445,ProdSingRedoBetween,2021.2.3,59.931055313999124,
,,,,35,0,35,0,,,,,,,,,,,,,,,,,,,,,,1138.9241048,None,,,,,,,,,,,,,,,,,strength,144,36,sing,new,null,1134.5252842,None,1134.5252842,None,1,3.41643219999969,1134.5252842,None,3.41643219999969,1137.9599961999998,None,1138.4738948999998,None,1138.4738948999998,None,n,0.4277501999999913,1138.4738948999998,None,0.4277501999999913,,,Sing12,001,2022_Aug_03_1445,ProdSingRedoBetween,2021.2.3,59.931055313999124,
,,,,36,0,36,0,,,,,,,,,,,,,,,,,,,,,,1142.0942783,None,,,,,,,,,,,,,,,,,general,173,37,sing,new,null,1139.4294242,None,1139.4294242,None,1,1.4883872999998857,1139.4294242,None,1.4883872999998857,1140.9485052999999,None,1141.4620326,None,1141.4620326,None,n,0.6157011000000239,1141.4620326,None,0.6157011000000239,,,Sing12,001,2022_Aug_03_1445,ProdSingRedoBetween,2021.2.3,59.931055313999124,
,,,,37,0,37,0,,,,,,,,,,,,,,,,,,,,,,1146.3318771,None,,,,,,,,,,,,,,,,,congress,163,38,sing,new,null,1142.5979714,None,1142.5979714,None,1,2.0558313000001363,1142.5979714,None,2.0558313000001363,1144.6852027,None,1145.1997508999998,None,1145.1997508999998,None,n,1.101984999999786,1145.1997508999998,None,1.101984999999786,,,Sing12,001,2022_Aug_03_1445,ProdSingRedoBetween,2021.2.3,59.931055313999124,
,,,,38,0,38,0,,,,,,,,,,,,,,,,,,,,,,1149.7853135,None,,,,,,,,,,,,,,,,,split,175,39,sing,new,null,1146.8380417999997,None,1146.8380417999997,None,1,1.503678200000195,1146.8380417999997,None,1.503678200000195,1148.3676830999998,None,1148.8678596999998,None,1148.8678596999998,None,n,0.889792099999795,1148.8678596999998,None,0.889792099999795,,,Sing12,001,2022_Aug_03_1445,ProdSingRedoBetween,2021.2.3,59.931055313999124,
,,,,39,0,39,0,,,,,,,,,,,,,,,,,,,,,,1154.3731923999999,None,,,,,,,,,,,,,,,,,marriage,137,40,sing,new,null,1150.2882887,None,1150.2882887,None,1,2.541430500000388,1150.2882887,None,2.541430500000388,1152.8559600999997,None,1153.3575909,None,1153.3575909,None,n,1.0001279000002796,1153.3575909,None,1.0001279000002796,,,Sing12,001,2022_Aug_03_1445,ProdSingRedoBetween,2021.2.3,59.931055313999124,
,,,,40,0,40,0,,,,,,,,,,,,,,,,,,,,,,1159.6955490999999,None,,,,,,,,,,,,,,,,,sleep,68,41,sing,old,red,1154.8821754,None,1154.8821754,None,4,3.331564399999934,1154.8821754,None,3.331564399999934,1158.2486377999999,None,1158.7608652999998,None,1158.7608652999998,None,f,0.9169949000001907,1158.7608652999998,None,0.9169949000001907,,,Sing12,001,2022_Aug_03_1445,ProdSingRedoBetween,2021.2.3,59.931055313999124,
,,,,41,0,41,0,,,,,,,,,,,,,,,,,,,,,,1163.1152708999998,None,,,,,,,,,,,,,,,,,heavy,100,42,sing,new,null,1160.2008194999999,None,1160.2008194999999,None,1,1.5248986999999943,1160.2008194999999,None,1.5248986999999943,1161.7487391999998,None,1162.2649999999999,None,1162.2649999999999,None,n,0.8287136999997529,1162.2649999999999,None,0.8287136999997529,,,Sing12,001,2022_Aug_03_1445,ProdSingRedoBetween,2021.2.3,59.931055313999124,
,,,,42,0,42,0,,,,,,,,,,,,,,,,,,,,,,1167.3038837999998,None,,,,,,,,,,,,,,,,,clean,17,43,sing,old,yellow,1163.6172880999998,None,1163.6172880999998,None,6,1.8604480999997577,1163.6172880999998,None,1.8604480999997577,1165.5008137,None,1166.0038734,None,1166.0038734,None,r,1.2739935999998124,1166.0038734,None,1.2739935999998124,,,Sing12,001,2022_Aug_03_1445,ProdSingRedoBetween,2021.2.3,59.931055313999124,
,,,,43,0,43,0,,,,,,,,,,,,,,,,,,,,,,1171.7402726999999,None,,,,,,,,,,,,,,,,,pancakes,120,44,sing,new,null,1167.8081548,None,1167.8081548,None,1,2.3095753000002333,1167.8081548,None,2.3095753000002333,1170.1423854999998,None,1170.6563121999998,None,1170.6563121999998,None,n,1.0533311000003778,1170.6563121999998,None,1.0533311000003778,,,Sing12,001,2022_Aug_03_1445,ProdSingRedoBetween,2021.2.3,59.931055313999124,
,,,,44,0,44,0,,,,,,,,,,,,,,,,,,,,,,1176.2951140999999,None,,,,,,,,,,,,,,,,,error,47,45,sing,old,blue,1172.2412036,None,1172.2412036,None,1,2.7084664000003613,1172.2412036,None,2.7084664000003613,1174.9786166,None,1175.4829933,None,1175.4829933,None,n,0.7946962999999414,1175.4829933,None,0.7946962999999414,,,Sing12,001,2022_Aug_03_1445,ProdSingRedoBetween,2021.2.3,59.931055313999124,
,,,,45,0,45,0,,,,,,,,,,,,,,,,,,,,,,1179.8319560999998,None,,,,,,,,,,,,,,,,,youth,94,46,sing,new,null,1176.8008050999997,None,1176.8008050999997,None,1,1.4850319999995918,1176.8008050999997,None,1.4850319999995918,1178.3216158999999,None,1178.8326365999997,None,1178.8326365999997,None,n,0.9730851000003895,1178.8326365999997,None,0.9730851000003895,,,Sing12,001,2022_Aug_03_1445,ProdSingRedoBetween,2021.2.3,59.931055313999124,
,,,,46,0,46,0,,,,,,,,,,,,,,,,,,,,,,1184.4031468999997,None,,,,,,,,,,,,,,,,,reading,111,47,sing,new,null,1180.3386237,None,1180.3386237,None,1,2.611049699999967,1180.3386237,None,2.611049699999967,1182.9731763999998,None,1183.488981,None,1183.488981,None,n,0.8847382999997535,1183.488981,None,0.8847382999997535,,,Sing12,001,2022_Aug_03_1445,ProdSingRedoBetween,2021.2.3,59.931055313999124,
,,,,47,0,47,0,,,,,,,,,,,,,,,,,,,,,,1190.325824,None,,,,,,,,,,,,,,,,,object,172,48,sing,new,null,1184.9095278999998,None,1184.9095278999998,None,3,2.8482136000002356,1184.9095278999998,None,2.8482136000002356,1187.7753923,None,1188.2949494999998,None,1188.2949494999998,None,f,2.0147225000000617,1188.2949494999998,None,2.0147225000000617,,,Sing12,001,2022_Aug_03_1445,ProdSingRedoBetween,2021.2.3,59.931055313999124,
,,,,48,0,48,0,,,,,,,,,,,,,,,,,,,,,,1194.2130776,None,,,,,,,,,,,,,,,,,broad,71,49,sing,old,red,1190.8359286999998,None,1190.8359286999998,None,6,1.46588040000006,1190.8359286999998,None,1.46588040000006,1192.3278409,None,1192.8289022,None,1192.8289022,None,f,1.3608420000000478,1192.8289022,None,1.3608420000000478,,,Sing12,001,2022_Aug_03_1445,ProdSingRedoBetween,2021.2.3,59.931055313999124,
,,,,49,0,49,0,,,,,,,,,,,,,,,,,,,,,,1199.4349214999997,None,,,,,,,,,,,,,,,,,pattern,110,50,sing,new,null,1194.7213524999997,None,1194.7213524999997,None,5,2.7166583999996874,1194.7213524999997,None,2.7166583999996874,1197.4811983999998,None,1197.9846293,None,1197.9846293,None,f,1.4291437000001679,1197.9846293,None,1.4291437000001679,,,Sing12,001,2022_Aug_03_1445,ProdSingRedoBetween,2021.2.3,59.931055313999124,
,,,,50,0,50,0,,,,,,,,,,,,,,,,,,,,,,1203.1719589,None,,,,,,,,,,,,,,,,,master,40,51,sing,old,blue,1199.9382694,None,1199.9382694,None,6,2.0275289000001067,1199.9382694,None,2.0275289000001067,1201.9954576,None,1202.5057415,None,1202.5057415,None,r,0.6440090000000964,1202.5057415,None,0.6440090000000964,,,Sing12,001,2022_Aug_03_1445,ProdSingRedoBetween,2021.2.3,59.931055313999124,
,,,,51,0,51,0,,,,,,,,,,,,,,,,,,,,,,1208.6941634,None,,,,,,,,,,,,,,,,,notice,101,52,sing,new,null,1203.6786331999997,None,1203.6786331999997,None,1,3.383089200000086,1203.6786331999997,None,3.383089200000086,1207.0925781,None,1207.5967584,None,1207.5967584,None,n,1.0809337999999116,1207.5967584,None,1.0809337999999116,,,Sing12,001,2022_Aug_03_1445,ProdSingRedoBetween,2021.2.3,59.931055313999124,
,,,,52,0,52,0,,,,,,,,,,,,,,,,,,,,,,1212.3979571,None,,,,,,,,,,,,,,,,,detective,162,53,sing,new,null,1209.2031277,None,1209.2031277,None,1,1.9306062000000566,1209.2031277,None,1.9306062000000566,1211.1641716,None,1211.669426,None,1211.669426,None,n,0.7122509000000719,1211.669426,None,0.7122509000000719,,,Sing12,001,2022_Aug_03_1445,ProdSingRedoBetween,2021.2.3,59.931055313999124,
,,,,53,0,53,0,,,,,,,,,,,,,,,,,,,,,,1216.4020523999998,None,,,,,,,,,,,,,,,,,individual,95,54,sing,new,null,1212.8982793,None,1212.8982793,None,1,2.1074745000000803,1212.8982793,None,2.1074745000000803,1215.0364974999998,None,1215.5511191,None,1215.5511191,None,n,0.8305218999998942,1215.5511191,None,0.8305218999998942,,,Sing12,001,2022_Aug_03_1445,ProdSingRedoBetween,2021.2.3,59.931055313999124,
,,,,54,0,54,0,,,,,,,,,,,,,,,,,,,,,,1220.2741054999997,None,,,,,,,,,,,,,,,,,citizen,87,55,sing,old,red,1216.9133662,None,1216.9133662,None,6,1.4122789999996712,1216.9133662,None,1.4122789999996712,1218.3566124,None,1218.8727052,None,1218.8727052,None,f,1.381094800000028,1218.8727052,None,1.381094800000028,,,Sing12,001,2022_Aug_03_1445,ProdSingRedoBetween,2021.2.3,59.931055313999124,
,,,,55,0,55,0,,,,,,,,,,,,,,,,,,,,,,1223.6266195999997,None,,,,,,,,,,,,,,,,,thick,171,56,sing,new,null,1220.7988338999999,None,1220.7988338999999,None,1,1.335131399999682,1220.7988338999999,None,1.335131399999682,1222.1679478,None,1222.6816347999998,None,1222.6816347999998,None,n,0.9241403000000901,1222.6816347999998,None,0.9241403000000901,,,Sing12,001,2022_Aug_03_1445,ProdSingRedoBetween,2021.2.3,59.931055313999124,
,,,,56,0,56,0,,,,,,,,,,,,,,,,,,,,,,1228.3801893,None,,,,,,,,,,,,,,,,,suspect,97,57,sing,new,null,1224.1277092999999,None,1224.1277092999999,None,1,1.91004490000023,1224.1277092999999,None,1.91004490000023,1226.0628036999997,None,1226.5694141,None,1226.5694141,None,n,1.7802283000000898,1226.5694141,None,1.7802283000000898,,,Sing12,001,2022_Aug_03_1445,ProdSingRedoBetween,2021.2.3,59.931055313999124,
,,,,57,0,57,0,,,,,,,,,,,,,,,,,,,,,,1231.7338264999999,None,,,,,,,,,,,,,,,,,subject,46,58,sing,old,blue,1228.8822365,None,1228.8822365,None,1,1.5315255999998953,1228.8822365,None,1.5315255999998953,1230.4359519999998,None,1230.9495662,None,1230.9495662,None,n,0.7601980999997977,1230.9495662,None,0.7601980999997977,,,Sing12,001,2022_Aug_03_1445,ProdSingRedoBetween,2021.2.3,59.931055313999124,
,,,,58,0,58,0,,,,,,,,,,,,,,,,,,,,,,1235.2705903,None,,,,,,,,,,,,,,,,,suggestion,139,59,sing,new,null,1232.2444348999998,None,1232.2444348999998,None,1,1.6972209999998995,1232.2444348999998,None,1.6972209999998995,1233.9721372,None,1234.4894393999998,None,1234.4894393999998,None,n,0.7642415000000256,1234.4894393999998,None,0.7642415000000256,,,Sing12,001,2022_Aug_03_1445,ProdSingRedoBetween,2021.2.3,59.931055313999124,
,,,,59,0,59,0,,,,,,,,,,,,,,,,,,,,,,1238.9911112999998,None,,,,,,,,,,,,,,,,,report,159,60,sing,new,null,1235.7752462999997,None,1235.7752462999997,None,4,2.0304668999997375,1235.7752462999997,None,2.0304668999997375,1237.8243592999997,None,1238.3239447,None,1238.3239447,None,f,0.6419152999997095,1238.3239447,None,0.6419152999997095,,,Sing12,001,2022_Aug_03_1445,ProdSingRedoBetween,2021.2.3,59.931055313999124,
,,,,60,0,60,0,,,,,,,,,,,,,,,,,,,,,,1242.0608073999997,None,,,,,,,,,,,,,,,,,estate,18,61,sing,old,yellow,1239.4995503,None,1239.4995503,None,1,1.4342024999996283,1239.4995503,None,1.4342024999996283,1240.9607308,None,1241.4621514,None,1241.4621514,None,n,0.567730599999777,1241.4621514,None,0.567730599999777,,,Sing12,001,2022_Aug_03_1445,ProdSingRedoBetween,2021.2.3,59.931055313999124,
,,,,61,0,61,0,,,,,,,,,,,,,,,,,,,,,,1245.5810452,None,,,,,,,,,,,,,,,,,executive,96,62,sing,new,null,1242.5666074,None,1242.5666074,None,1,1.423143600000003,1242.5666074,None,1.423143600000003,1244.0152470999997,None,1244.5301623,None,1244.5301623,None,n,1.0276432000000568,1244.5301623,None,1.0276432000000568,,,Sing12,001,2022_Aug_03_1445,ProdSingRedoBetween,2021.2.3,59.931055313999124,
,,,,62,0,62,0,,,,,,,,,,,,,,,,,,,,,,1253.9727457,None,,,,,,,,,,,,,,,,,addition,5,63,sing,old,yellow,1246.0855413999998,None,1246.0855413999998,None,1,2.024201500000345,1246.0855413999998,None,2.024201500000345,1248.134508,None,1248.6375353999997,None,1248.6375353999997,None,n,5.312231599999905,1248.6375353999997,None,5.312231599999905,,,Sing12,001,2022_Aug_03_1445,ProdSingRedoBetween,2021.2.3,59.931055313999124,
,,,,63,0,63,0,,,,,,,,,,,,,,,,,,,,,,1257.5263068999998,None,,,,,,,,,,,,,,,,,trend,26,64,sing,old,yellow,1254.4776373999998,None,1254.4776373999998,None,6,2.1521585000000414,1254.4776373999998,None,2.1521585000000414,1256.6602761,None,1257.1628877999997,None,1257.1628877999997,None,r,0.34688039999991815,1257.1628877999997,None,0.34688039999991815,,,Sing12,001,2022_Aug_03_1445,ProdSingRedoBetween,2021.2.3,59.931055313999124,
,,,,64,0,64,0,,,,,,,,,,,,,,,,,,,,,,1260.4791802,None,,,,,,,,,,,,,,,,,material,8,65,sing,old,yellow,1258.0353492999998,None,1258.0353492999998,None,1,1.4985251999996763,1258.0353492999998,None,1.4985251999996763,1259.5697314,None,1260.0805916999998,None,1260.0805916999998,None,n,0.3811046000000715,1260.0805916999998,None,0.3811046000000715,,,Sing12,001,2022_Aug_03_1445,ProdSingRedoBetween,2021.2.3,59.931055313999124,
,,,,65,0,65,0,,,,,,,,,,,,,,,,,,,,,,1265.0168414,None,,,,,,,,,,,,,,,,,council,132,66,sing,new,null,1260.9854757999997,None,1260.9854757999997,None,1,3.196221599999717,1260.9854757999997,None,3.196221599999717,1264.1994789,None,1264.7047226,None,1264.7047226,None,n,0.28500269999995,1264.7047226,None,0.28500269999995,,,Sing12,001,2022_Aug_03_1445,ProdSingRedoBetween,2021.2.3,59.931055313999124,
,,,,66,0,66,0,,,,,,,,,,,,,,,,,,,,,,1268.5372788,None,,,,,,,,,,,,,,,,,crime,85,67,sing,old,red,1265.5195054,None,1265.5195054,None,6,1.4463290000003326,1265.5195054,None,1.4463290000003326,1266.9905067,None,1267.5042009999997,None,1267.5042009999997,None,f,1.0135584999998173,1267.5042009999997,None,1.0135584999998173,,,Sing12,001,2022_Aug_03_1445,ProdSingRedoBetween,2021.2.3,59.931055313999124,
,,,,67,0,67,0,,,,,,,,,,,,,,,,,,,,,,1271.440177,None,,,,,,,,,,,,,,,,,weather,136,68,sing,new,null,1269.0472084999997,None,1269.0472084999997,None,1,1.0545356000002357,1269.0472084999997,None,1.0545356000002357,1270.1232855999997,None,1270.6275369,None,1270.6275369,None,n,0.7863144999996621,1270.6275369,None,0.7863144999996621,,,Sing12,001,2022_Aug_03_1445,ProdSingRedoBetween,2021.2.3,59.931055313999124,
,,,,68,0,68,0,,,,,,,,,,,,,,,,,,,,,,1275.2461555,None,,,,,,,,,,,,,,,,,review,33,69,sing,old,blue,1271.9491152,None,1271.9491152,None,3,2.2086035000002084,1271.9491152,None,2.2086035000002084,1274.1777776,None,1274.6833345,None,1274.6833345,None,f,0.5304960999997093,1274.6833345,None,0.5304960999997093,,,Sing12,001,2022_Aug_03_1445,ProdSingRedoBetween,2021.2.3,59.931055313999124,
,,,,69,0,69,0,,,,,,,,,,,,,,,,,,,,,,1280.6327492,None,,,,,,,,,,,,,,,,,candidate,57,70,sing,old,blue,1275.7633670999999,None,1275.7633670999999,None,6,3.954385099999854,1275.7633670999999,None,3.954385099999854,1279.7491311999997,None,1280.2523197,None,1280.2523197,None,f,0.353483999999753,1280.2523197,None,0.353483999999753,,,Sing12,001,2022_Aug_03_1445,ProdSingRedoBetween,2021.2.3,59.931055313999124,
,,,,70,0,70,0,,,,,,,,,,,,,,,,,,,,,,1285.2540226,None,,,,,,,,,,,,,,,,,attack,84,71,sing,old,red,1281.1337798999998,None,1281.1337798999998,None,1,1.7760027999997874,1281.1337798999998,None,1.7760027999997874,1282.9362142999998,None,1283.4446024999997,None,1283.4446024999997,None,n,1.7931848999996873,1283.4446024999997,None,1.7931848999996873,,,Sing12,001,2022_Aug_03_1445,ProdSingRedoBetween,2021.2.3,59.931055313999124,
,,,,71,0,71,0,,,,,,,,,,,,,,,,,,,,,,1288.1583646999998,None,,,,,,,,,,,,,,,,,route,145,72,sing,new,null,1285.7632537,None,1285.7632537,None,1,1.5625376000002689,1285.7632537,None,1.5625376000002689,1287.3578524999998,None,1287.8770652999997,None,1287.8770652999997,None,n,0.24864030000026105,1287.8770652999997,None,0.24864030000026105,,,Sing12,001,2022_Aug_03_1445,ProdSingRedoBetween,2021.2.3,59.931055313999124,
,,,,72,0,72,0,,,,,,,,,,,,,,,,,,,,,,1291.0098619,None,,,,,,,,,,,,,,,,,period,2,73,sing,old,yellow,1288.6600067999998,None,1288.6600067999998,None,6,1.5137165000001005,1288.6600067999998,None,1.5137165000001005,1290.1944834,None,1290.7116406,None,1290.7116406,None,f,0.2701166000001649,1290.7116406,None,0.2701166000001649,,,Sing12,001,2022_Aug_03_1445,ProdSingRedoBetween,2021.2.3,59.931055313999124,
,,,,73,0,73,0,,,,,,,,,,,,,,,,,,,,,,1293.7125702999997,None,,,,,,,,,,,,,,,,,scale,160,74,sing,new,null,1291.5194833,None,1291.5194833,None,1,1.2702785000001313,1291.5194833,None,1.2702785000001313,1292.8146813999997,None,1293.3288245999997,None,1293.3288245999997,None,n,0.35693609999998444,1293.3288245999997,None,0.35693609999998444,,,Sing12,001,2022_Aug_03_1445,ProdSingRedoBetween,2021.2.3,59.931055313999124,
,,,,74,0,74,0,,,,,,,,,,,,,,,,,,,,,,1296.7655602999998,None,,,,,,,,,,,,,,,,,exchange,166,75,sing,new,null,1294.2160229,None,1294.2160229,None,1,1.637724299999718,1294.2160229,None,1.637724299999718,1295.8840102,None,1296.3986381,None,1296.3986381,None,n,0.34315190000006623,1296.3986381,None,0.34315190000006623,,,Sing12,001,2022_Aug_03_1445,ProdSingRedoBetween,2021.2.3,59.931055313999124,
,,,,75,0,75,0,,,,,,,,,,,,,,,,,,,,,,1299.6527372,None,,,,,,,,,,,,,,,,,comfort,177,76,sing,new,null,1297.2692351,None,1297.2692351,None,1,1.3766052999999374,1297.2692351,None,1.3766052999999374,1298.6741641999997,None,1299.1844458,None,1299.1844458,None,n,0.4452496000003521,1299.1844458,None,0.4452496000003521,,,Sing12,001,2022_Aug_03_1445,ProdSingRedoBetween,2021.2.3,59.931055313999124,
,,,,76,0,76,0,,,,,,,,,,,,,,,,,,,,,,1302.4750371999999,None,,,,,,,,,,,,,,,,,reach,112,77,sing,new,null,1300.1632544,None,1300.1632544,None,1,1.5544491000000562,1300.1632544,None,1.5544491000000562,1301.7476124,None,1302.2543062,None,1302.2543062,None,n,0.19949480000013864,1302.2543062,None,0.19949480000013864,,,Sing12,001,2022_Aug_03_1445,ProdSingRedoBetween,2021.2.3,59.931055313999124,
,,,,77,0,77,0,,,,,,,,,,,,,,,,,,,,,,1305.2923441999997,None,,,,,,,,,,,,,,,,,territory,124,78,sing,new,null,1302.9944120999999,None,1302.9944120999999,None,1,1.29139830000031,1302.9944120999999,None,1.29139830000031,1304.3097712,None,1304.8237725999998,None,1304.8237725999998,None,n,0.43803220000017973,1304.8237725999998,None,0.43803220000017973,,,Sing12,001,2022_Aug_03_1445,ProdSingRedoBetween,2021.2.3,59.931055313999124,
,,,,78,0,78,0,,,,,,,,,,,,,,,,,,,,,,1312.5479707999998,None,,,,,,,,,,,,,,,,,watch,133,79,sing,new,null,1305.8038766999998,None,1305.8038766999998,None,1,4.401941500000248,1305.8038766999998,None,4.401941500000248,1310.2378762999997,None,1310.7507004,None,1310.7507004,None,n,1.7672833999999966,1310.7507004,None,1.7672833999999966,,,Sing12,001,2022_Aug_03_1445,ProdSingRedoBetween,2021.2.3,59.931055313999124,
,,,,79,0,79,0,,,,,,,,,,,,,,,,,,,,,,1315.3507971,None,,,,,,,,,,,,,,,,,plane,140,80,sing,new,null,1313.0534813999998,None,1313.0534813999998,None,1,1.2803552999998828,1313.0534813999998,None,1.2803552999998828,1314.3510287999998,None,1314.8569032,None,1314.8569032,None,n,0.4768650000000889,1314.8569032,None,0.4768650000000889,,,Sing12,001,2022_Aug_03_1445,ProdSingRedoBetween,2021.2.3,59.931055313999124,
,,,,80,0,80,0,,,,,,,,,,,,,,,,,,,,,,1320.6393623,None,,,,,,,,,,,,,,,,,search,11,81,sing,old,yellow,1315.8605413,None,1315.8605413,None,1,3.9132650999999896,1315.8605413,None,3.9132650999999896,1319.7890579,None,1320.2890767,None,1320.2890767,None,n,0.3247040000001107,1320.2890767,None,0.3247040000001107,,,Sing12,001,2022_Aug_03_1445,ProdSingRedoBetween,2021.2.3,59.931055313999124,
,,,,81,0,81,0,,,,,,,,,,,,,,,,,,,,,,1323.3107415,None,,,,,,,,,,,,,,,,,sight,66,82,sing,old,red,1321.1480431999998,None,1321.1480431999998,None,1,1.1377858999999262,1321.1480431999998,None,1.1377858999999262,1322.3113012,None,1322.8296206999999,None,1322.8296206999999,None,n,0.4562181999999666,1322.8296206999999,None,0.4562181999999666,,,Sing12,001,2022_Aug_03_1445,ProdSingRedoBetween,2021.2.3,59.931055313999124,
,,,,82,0,82,0,,,,,,,,,,,,,,,,,,,,,,1327.0148230999998,None,,,,,,,,,,,,,,,,,concern,141,83,sing,new,null,1323.8333908999998,None,1323.8333908999998,None,1,1.7723887000001923,1323.8333908999998,None,1.7723887000001923,1325.6286652999997,None,1326.133311,None,1326.133311,None,n,0.8565879000002496,1326.133311,None,0.8565879000002496,,,Sing12,001,2022_Aug_03_1445,ProdSingRedoBetween,2021.2.3,59.931055313999124,
,,,,83,0,83,0,,,,,,,,,,,,,,,,,,,,,,1330.9996923999997,None,,,,,,,,,,,,,,,,,discovery,58,84,sing,old,blue,1327.5365468,None,1327.5365468,None,4,1.8772682000003442,1327.5365468,None,1.8772682000003442,1329.4351649999999,None,1329.9557464,None,1329.9557464,None,f,1.0261254000001827,1329.9557464,None,1.0261254000001827,,,Sing12,001,2022_Aug_03_1445,ProdSingRedoBetween,2021.2.3,59.931055313999124,
,,,,84,0,84,0,,,,,,,,,,,,,,,,,,,,,,1333.9526673999999,None,,,,,,,,,,,,,,,,,payment,165,85,sing,new,null,1331.5029403999997,None,1331.5029403999997,None,1,1.1748749000003045,1331.5029403999997,None,1.1748749000003045,1332.7061771999997,None,1333.2188019,None,1333.2188019,None,n,0.7069503999996414,1333.2188019,None,0.7069503999996414,,,Sing12,001,2022_Aug_03_1445,ProdSingRedoBetween,2021.2.3,59.931055313999124,
,,,,85,0,85,0,,,,,,,,,,,,,,,,,,,,,,1336.8388793,None,,,,,,,,,,,,,,,,,interior,108,86,sing,new,null,1334.4613218999998,None,1334.4613218999998,None,1,1.440461800000321,1334.4613218999998,None,1.440461800000321,1335.9240093999997,None,1336.4398581,None,1336.4398581,None,n,0.3818710000000465,1336.4398581,None,0.3818710000000465,,,Sing12,001,2022_Aug_03_1445,ProdSingRedoBetween,2021.2.3,59.931055313999124,
,,,,86,0,86,0,,,,,,,,,,,,,,,,,,,,,,1340.0254299999997,None,,,,,,,,,,,,,,,,,quarter,168,87,sing,new,null,1337.3461784,None,1337.3461784,None,1,1.4037210999999843,1337.3461784,None,1.4037210999999843,1338.7754187,None,1339.2748164,None,1339.2748164,None,n,0.7229363000001285,1339.2748164,None,0.7229363000001285,,,Sing12,001,2022_Aug_03_1445,ProdSingRedoBetween,2021.2.3,59.931055313999124,
,,,,87,0,87,0,,,,,,,,,,,,,,,,,,,,,,1343.6957343999998,None,,,,,,,,,,,,,,,,,expansion,121,88,sing,new,null,1340.5286083,None,1340.5286083,None,1,1.95718880000004,1340.5286083,None,1.95718880000004,1342.5132063,None,1343.0387253,None,1343.0387253,None,n,0.6389891999997417,1343.0387253,None,0.6389891999997417,,,Sing12,001,2022_Aug_03_1445,ProdSingRedoBetween,2021.2.3,59.931055313999124,
,,,,88,0,88,0,,,,,,,,,,,,,,,,,,,,,,1346.8832143,None,,,,,,,,,,,,,,,,,season,64,89,sing,old,red,1344.2066231999997,None,1344.2066231999997,None,1,1.7830556000003526,1344.2066231999997,None,1.7830556000003526,1346.0152426999998,None,1346.5170475999998,None,1346.5170475999998,None,n,0.33688989999973273,1346.5170475999998,None,0.33688989999973273,,,Sing12,001,2022_Aug_03_1445,ProdSingRedoBetween,2021.2.3,59.931055313999124,
,,,,89,0,89,0,,,,,,,,,,,,,,,,,,,,,,1349.3570264,None,,,,,,,,,,,,,,,,,profession,37,90,sing,old,blue,1347.3886441,None,1347.3886441,None,1,1.1452668000001722,1347.3886441,None,1.1452668000001722,1348.5506827999998,None,1349.054678,None,1349.054678,None,n,0.2792237000003297,1349.054678,None,0.2792237000003297,,,Sing12,001,2022_Aug_03_1445,ProdSingRedoBetween,2021.2.3,59.931055313999124,
,,,,90,0,90,0,,,,,,,,,,,,,,,,,,,,,,1352.2710271,None,,,,,,,,,,,,,,,,,opening,65,91,sing,old,red,1349.8792475999999,None,1349.8792475999999,None,1,1.47053810000034,1349.8792475999999,None,1.47053810000034,1351.3731082,None,1351.8874458,None,1351.8874458,None,n,0.35835160000033284,1351.8874458,None,0.35835160000033284,,,Sing12,001,2022_Aug_03_1445,ProdSingRedoBetween,2021.2.3,59.931055313999124,
,,,,91,0,91,0,,,,,,,,,,,,,,,,,,,,,,1354.9736641,None,,,,,,,,,,,,,,,,,company,73,92,sing,old,red,1352.7888822,None,1352.7888822,None,1,1.296900800000003,1352.7888822,None,1.296900800000003,1354.1072860999998,None,1354.6109241,None,1354.6109241,None,n,0.33885620000000927,1354.6109241,None,0.33885620000000927,,,Sing12,001,2022_Aug_03_1445,ProdSingRedoBetween,2021.2.3,59.931055313999124,
,,,,92,0,92,0,,,,,,,,,,,,,,,,,,,,,,1358.4771538999998,None,,,,,,,,,,,,,,,,,personnel,170,93,sing,new,null,1355.4919203,None,1355.4919203,None,1,1.7219554000002972,1355.4919203,None,1.7219554000002972,1357.2469805,None,1357.7653117999998,None,1357.7653117999998,None,n,0.688477299999704,1357.7653117999998,None,0.688477299999704,,,Sing12,001,2022_Aug_03_1445,ProdSingRedoBetween,2021.2.3,59.931055313999124,
,,,,93,0,93,0,,,,,,,,,,,,,,,,,,,,,,1361.1297992999998,None,,,,,,,,,,,,,,,,,drink,156,94,sing,new,null,1358.988183,None,1358.988183,None,1,1.273699299999862,1358.988183,None,1.273699299999862,1360.2828434999997,None,1360.8029839,None,1360.8029839,None,n,0.2987994999998591,1360.8029839,None,0.2987994999998591,,,Sing12,001,2022_Aug_03_1445,ProdSingRedoBetween,2021.2.3,59.931055313999124,
,,,,94,0,94,0,,,,,,,,,,,,,,,,,,,,,,1364.4164621999998,None,,,,,,,,,,,,,,,,,military,78,95,sing,old,red,1361.6349194999998,None,1361.6349194999998,None,3,1.5228024000002733,1361.6349194999998,None,1.5228024000002733,1363.1815502999998,None,1363.6824781,None,1363.6824781,None,f,0.7152914000002966,1363.6824781,None,0.7152914000002966,,,Sing12,001,2022_Aug_03_1445,ProdSingRedoBetween,2021.2.3,59.931055313999124,
,,,,95,0,95,0,,,,,,,,,,,,,,,,,,,,,,1367.2192605999999,None,,,,,,,,,,,,,,,,,discussion,135,96,sing,new,null,1364.9174270999997,None,1364.9174270999997,None,1,1.2963918000000376,1364.9174270999997,None,1.2963918000000376,1366.2382994,None,1366.7523613999997,None,1366.7523613999997,None,n,0.44548189999977694,1366.7523613999997,None,0.44548189999977694,,,Sing12,001,2022_Aug_03_1445,ProdSingRedoBetween,2021.2.3,59.931055313999124,
,,,,96,0,96,0,,,,,,,,,,,,,,,,,,,,,,1369.7217397999998,None,,,,,,,,,,,,,,,,,piece,122,97,sing,new,null,1367.7279327,None,1367.7279327,None,1,1.1658308000000943,1367.7279327,None,1.1658308000000943,1368.9207247,None,1369.4263865999997,None,1369.4263865999997,None,n,0.27543900000000576,1369.4263865999997,None,0.27543900000000576,,,Sing12,001,2022_Aug_03_1445,ProdSingRedoBetween,2021.2.3,59.931055313999124,
,,,,97,0,97,0,,,,,,,,,,,,,,,,,,,,,,1372.324349,None,,,,,,,,,,,,,,,,,public,51,98,sing,old,blue,1370.2308398,None,1370.2308398,None,1,1.2390368999999737,1370.2308398,None,1.2390368999999737,1371.491927,None,1372.0113225,None,1372.0113225,None,n,0.29047369999989314,1372.0113225,None,0.29047369999989314,,,Sing12,001,2022_Aug_03_1445,ProdSingRedoBetween,2021.2.3,59.931055313999124,
,,,,98,0,98,0,,,,,,,,,,,,,,,,,,,,,,1377.0457723999998,None,,,,,,,,,,,,,,,,,literature,7,99,sing,old,yellow,1372.8324792999997,None,1372.8324792999997,None,1,3.2374509000001126,1372.8324792999997,None,3.2374509000001126,1376.1027350999998,None,1376.6121662,None,1376.6121662,None,n,0.4096762999997736,1376.6121662,None,0.4096762999997736,,,Sing12,001,2022_Aug_03_1445,ProdSingRedoBetween,2021.2.3,59.931055313999124,
,,,,99,0,99,0,,,,,,,,,,,,,,,,,,,,,,1379.4981898,None,,,,,,,,,,,,,,,,,position,114,100,sing,new,null,1377.5600289,None,1377.5600289,None,1,1.0856367999999748,1377.5600289,None,1.0856367999999748,1378.6668743,None,1379.1822174,None,1379.1822174,None,n,0.2876028000000588,1379.1822174,None,0.2876028000000588,,,Sing12,001,2022_Aug_03_1445,ProdSingRedoBetween,2021.2.3,59.931055313999124,
,,,,100,0,100,0,,,,,,,,,,,,,,,,,,,,,,1385.7044228,None,,,,,,,,,,,,,,,,,population,6,101,sing,old,yellow,1380.0035929,None,1380.0035929,None,4,4.322130000000016,1380.0035929,None,4.322130000000016,1384.3569364,None,1384.8735555999997,None,1384.8735555999997,None,f,0.8042523999997684,1384.8735555999997,None,0.8042523999997684,,,Sing12,001,2022_Aug_03_1445,ProdSingRedoBetween,2021.2.3,59.931055313999124,
,,,,101,0,101,0,,,,,,,,,,,,,,,,,,,,,,1388.0570869999997,None,,,,,,,,,,,,,,,,,fight,147,102,sing,new,null,1386.2158139999997,None,1386.2158139999997,None,1,1.0139110000000073,1386.2158139999997,None,1.0139110000000073,1387.2574547999998,None,1387.7607723,None,1387.7607723,None,n,0.2770698000003904,1387.7607723,None,0.2770698000003904,,,Sing12,001,2022_Aug_03_1445,ProdSingRedoBetween,2021.2.3,59.931055313999124,
,,,,102,0,102,0,,,,,,,,,,,,,,,,,,,,,,1391.6937199,None,,,,,,,,,,,,,,,,,recall,19,103,sing,old,yellow,1388.5711551,None,1388.5711551,None,2,1.4188011000001097,1388.5711551,None,1.4188011000001097,1390.0154079,None,1390.5260856,None,1390.5260856,None,f,1.143724700000348,1390.5260856,None,1.143724700000348,,,Sing12,001,2022_Aug_03_1445,ProdSingRedoBetween,2021.2.3,59.931055313999124,
,,,,103,0,103,0,,,,,,,,,,,,,,,,,,,,,,1396.5986026,None,,,,,,,,,,,,,,,,,owner,25,104,sing,old,yellow,1392.2032025999997,None,1392.2032025999997,None,5,3.2265030000003208,1392.2032025999997,None,3.2265030000003208,1395.4490441999997,None,1395.9551244999998,None,1395.9551244999998,None,f,0.6186820000002626,1395.9551244999998,None,0.6186820000002626,,,Sing12,001,2022_Aug_03_1445,ProdSingRedoBetween,2021.2.3,59.931055313999124,
,,,,104,0,104,0,,,,,,,,,,,,,,,,,,,,,,1398.8842145999997,None,,,,,,,,,,,,,,,,,orchestra,35,105,sing,old,blue,1397.1036239999999,None,1397.1036239999999,None,1,1.030190500000117,1397.1036239999999,None,1.030190500000117,1398.1517208999999,None,1398.6674282999998,None,1398.6674282999998,None,n,0.19440799999983938,1398.6674282999998,None,0.19440799999983938,,,Sing12,001,2022_Aug_03_1445,ProdSingRedoBetween,2021.2.3,59.931055313999124,
,,,,105,0,105,0,,,,,,,,,,,,,,,,,,,,,,1401.6202303999999,None,,,,,,,,,,,,,,,,,range,92,106,sing,new,null,1399.3866258999997,None,1399.3866258999997,None,3,1.1712139999999636,1399.3866258999997,None,1.1712139999999636,1400.5859562,None,1401.0903275,None,1401.0903275,None,f,0.5075090999998793,1401.0903275,None,0.5075090999998793,,,Sing12,001,2022_Aug_03_1445,ProdSingRedoBetween,2021.2.3,59.931055313999124,
,,,,106,0,106,0,,,,,,,,,,,,,,,,,,,,,,1404.539887,None,,,,,,,,,,,,,,,,,balance,20,107,sing,old,yellow,1402.1283838999998,None,1402.1283838999998,None,1,1.7415225999998256,1402.1283838999998,None,1.7415225999998256,1403.8966433,None,1404.4066835999997,None,1404.4066835999997,None,n,0.11118629999964469,1404.4066835999997,None,0.11118629999964469,,,Sing12,001,2022_Aug_03_1445,ProdSingRedoBetween,2021.2.3,59.931055313999124,
,,,,107,0,107,0,,,,,,,,,,,,,,,,,,,,,,1415.0337451,None,,,,,,,,,,,,,,,,,angle,142,108,sing,new,null,1405.0565759,None,1405.0565759,None,3,8.949161900000036,1405.0565759,None,8.949161900000036,1414.0332854999997,None,1414.5360102999998,None,1414.5360102999998,None,f,0.477791199999956,1414.5360102999998,None,0.477791199999956,,,Sing12,001,2022_Aug_03_1445,ProdSingRedoBetween,2021.2.3,59.931055313999124,
,,,,108,0,108,0,,,,,,,,,,,,,,,,,,,,,,1417.836323,None,,,,,,,,,,,,,,,,,nature,102,109,sing,new,null,1415.5425888999998,None,1415.5425888999998,None,1,1.487356699999964,1415.5425888999998,None,1.487356699999964,1417.0521444,None,1417.55508,None,1417.55508,None,n,0.2507018000001153,1417.55508,None,0.2507018000001153,,,Sing12,001,2022_Aug_03_1445,ProdSingRedoBetween,2021.2.3,59.931055313999124,
,,,,109,0,109,0,,,,,,,,,,,,,,,,,,,,,,1421.423416,None,,,,,,,,,,,,,,,,,impact,24,110,sing,old,yellow,1418.3557016,None,1418.3557016,None,4,1.6740884999999253,1418.3557016,None,1.6740884999999253,1420.0565327,None,1420.5560587,None,1420.5560587,None,f,0.8497022999999899,1420.5560587,None,0.8497022999999899,,,Sing12,001,2022_Aug_03_1445,ProdSingRedoBetween,2021.2.3,59.931055313999124,
,,,,110,0,110,0,,,,,,,,,,,,,,,,,,,,,,1424.7601368,None,,,,,,,,,,,,,,,,,crisis,109,111,sing,new,null,1421.9412007,None,1421.9412007,None,1,1.6005971000004138,1421.9412007,None,1.6005971000004138,1423.5587735,None,1424.0594843999997,None,1424.0594843999997,None,n,0.6744315999999344,1424.0594843999997,None,0.6744315999999344,,,Sing12,001,2022_Aug_03_1445,ProdSingRedoBetween,2021.2.3,59.931055313999124,
,,,,111,0,111,0,,,,,,,,,,,,,,,,,,,,,,1427.662827,None,,,,,,,,,,,,,,,,,provision,127,112,sing,new,null,1425.2782715999997,None,1425.2782715999997,None,1,1.359624100000019,1425.2782715999997,None,1.359624100000019,1426.6635937,None,1427.1798559999997,None,1427.1798559999997,None,n,0.46590710000009494,1427.1798559999997,None,0.46590710000009494,,,Sing12,001,2022_Aug_03_1445,ProdSingRedoBetween,2021.2.3,59.931055313999124,
,,,,112,0,112,0,,,,,,,,,,,,,,,,,,,,,,1430.4491125,None,,,,,,,,,,,,,,,,,staff,45,113,sing,old,blue,1428.167707,None,1428.167707,None,1,1.4540683999998691,1428.167707,None,1.4540683999998691,1429.6536916999999,None,1430.1684962999998,None,1430.1684962999998,None,n,0.2532615000000078,1430.1684962999998,None,0.2532615000000078,,,Sing12,001,2022_Aug_03_1445,ProdSingRedoBetween,2021.2.3,59.931055313999124,
,,,,113,0,113,0,,,,,,,,,,,,,,,,,,,,,,1432.8512618,None,,,,,,,,,,,,,,,,,little,164,114,sing,new,null,1430.9557009999999,None,1430.9557009999999,None,1,1.1221096999997826,1430.9557009999999,None,1.1221096999997826,1432.1005142999998,None,1432.6040617999997,None,1432.6040617999997,None,n,0.2258083000001534,1432.6040617999997,None,0.2258083000001534,,,Sing12,001,2022_Aug_03_1445,ProdSingRedoBetween,2021.2.3,59.931055313999124,
,,,,114,0,114,0,,,,,,,,,,,,,,,,,,,,,,1435.9546461999998,None,,,,,,,,,,,,,,,,,month,91,115,sing,new,null,1433.3603926,None,1433.3603926,None,1,1.837480599999708,1433.3603926,None,1.837480599999708,1435.2251655999999,None,1435.7378113999998,None,1435.7378113999998,None,n,0.19617109999990134,1435.7378113999998,None,0.19617109999990134,,,Sing12,001,2022_Aug_03_1445,ProdSingRedoBetween,2021.2.3,59.931055313999124,
,,,,115,0,115,0,,,,,,,,,,,,,,,,,,,,,,1439.5081566,None,,,,,,,,,,,,,,,,,author,53,116,sing,old,blue,1436.4629943999998,None,1436.4629943999998,None,6,1.6708580999998048,1436.4629943999998,None,1.6708580999998048,1438.1757497999997,None,1438.6740734,None,1438.6740734,None,f,0.803741600000194,1438.6740734,None,0.803741600000194,,,Sing12,001,2022_Aug_03_1445,ProdSingRedoBetween,2021.2.3,59.931055313999124,
,,,,116,0,116,0,,,,,,,,,,,,,,,,,,,,,,1443.5121384999998,None,,,,,,,,,,,,,,,,,dream,89,117,sing,old,red,1440.0183035,None,1440.0183035,None,5,2.6035438000003523,1440.0183035,None,2.6035438000003523,1442.6465346999998,None,1443.1617499,None,1443.1617499,None,f,0.32408239999995203,1443.1617499,None,0.32408239999995203,,,Sing12,001,2022_Aug_03_1445,ProdSingRedoBetween,2021.2.3,59.931055313999124,
,,,,117,0,117,0,,,,,,,,,,,,,,,,,,,,,,1448.2668912,None,,,,,,,,,,,,,,,,,treatment,76,118,sing,old,red,1444.0138231,None,1444.0138231,None,2,2.9040697999998883,1444.0138231,None,2.9040697999998883,1446.9504450999998,None,1447.4495929,None,1447.4495929,None,f,0.7881720000000314,1447.4495929,None,0.7881720000000314,,,Sing12,001,2022_Aug_03_1445,ProdSingRedoBetween,2021.2.3,59.931055313999124,
,,,,118,0,118,0,,,,,,,,,,,,,,,,,,,,,,1450.8537754999998,None,,,,,,,,,,,,,,,,,swift,153,119,sing,new,null,1448.7756513999998,None,1448.7756513999998,None,1,1.1824255000001358,1448.7756513999998,None,1.1824255000001358,1449.9926667,None,1450.5025508999997,None,1450.5025508999997,None,n,0.31942990000015925,1450.5025508999997,None,0.31942990000015925,,,Sing12,001,2022_Aug_03_1445,ProdSingRedoBetween,2021.2.3,59.931055313999124,
,,,,119,0,119,0,,,,,,,,,,,,,,,,,,,,,,1454.5398286999998,None,,,,,,,,,,,,,,,,,hearing,79,120,sing,old,red,1451.3588166999998,None,1451.3588166999998,None,6,1.6309787999998662,1451.3588166999998,None,1.6309787999998662,1453.0068077,None,1453.5222613,None,1453.5222613,None,f,0.9956084000000374,1453.5222613,None,0.9956084000000374,,,Sing12,001,2022_Aug_03_1445,ProdSingRedoBetween,2021.2.3,59.931055313999124,
,,,,120,0,120,0,,,,,,,,,,,,,,,,,,,,,,1457.2441869,None,,,,,,,,,,,,,,,,,second,12,121,sing,old,yellow,1455.0427863,None,1455.0427863,None,1,1.2031139000000621,1455.0427863,None,1.2031139000000621,1456.2757523999999,None,1456.7778561999999,None,1456.7778561999999,None,n,0.44408419999990656,1456.7778561999999,None,0.44408419999990656,,,Sing12,001,2022_Aug_03_1445,ProdSingRedoBetween,2021.2.3,59.931055313999124,
,,,,121,0,121,0,,,,,,,,,,,,,,,,,,,,,,1460.6291937,None,,,,,,,,,,,,,,,,,pressure,41,122,sing,old,blue,1457.7597857,None,1457.7597857,None,1,1.9660733999999138,1457.7597857,None,1.9660733999999138,1459.7461736,None,1460.2524361,None,1460.2524361,None,n,0.34554519999983313,1460.2524361,None,0.34554519999983313,,,Sing12,001,2022_Aug_03_1445,ProdSingRedoBetween,2021.2.3,59.931055313999124,
,,,,122,0,122,0,,,,,,,,,,,,,,,,,,,,,,1462.9647046999999,None,,,,,,,,,,,,,,,,,rapid,50,123,sing,old,blue,1461.1332853,None,1461.1332853,None,1,0.9925524000000223,1461.1332853,None,0.9925524000000223,1462.1486637999997,None,1462.6512315999998,None,1462.6512315999998,None,n,0.2906746000003295,1462.6512315999998,None,0.2906746000003295,,,Sing12,001,2022_Aug_03_1445,ProdSingRedoBetween,2021.2.3,59.931055313999124,
,,,,123,0,123,0,,,,,,,,,,,,,,,,,,,,,,1468.1384241,None,,,,,,,,,,,,,,,,,income,63,124,sing,old,red,1463.4780056999998,None,1463.4780056999998,None,6,3.8878106000001935,1463.4780056999998,None,3.8878106000001935,1467.3857991,None,1467.8893902,None,1467.8893902,None,f,0.22032510000008187,1467.8893902,None,0.22032510000008187,,,Sing12,001,2022_Aug_03_1445,ProdSingRedoBetween,2021.2.3,59.931055313999124,
,,,,124,0,124,0,,,,,,,,,,,,,,,,,,,,,,1471.5735953999997,None,,,,,,,,,,,,,,,,,employment,113,125,sing,new,null,1468.6541195,None,1468.6541195,None,1,1.5437177999997402,1468.6541195,None,1.5437177999997402,1470.2242238999997,None,1470.7443783999997,None,1470.7443783999997,None,n,0.7973874000003889,1470.7443783999997,None,0.7973874000003889,,,Sing12,001,2022_Aug_03_1445,ProdSingRedoBetween,2021.2.3,59.931055313999124,
,,,,125,0,125,0,,,,,,,,,,,,,,,,,,,,,,1474.4597527,None,,,,,,,,,,,,,,,,,empty,117,126,sing,new,null,1472.084062,None,1472.084062,None,1,1.4257407000000057,1472.084062,None,1.4257407000000057,1473.5307494999997,None,1474.0465567,None,1474.0465567,None,n,0.39136759999973947,1474.0465567,None,0.39136759999973947,,,Sing12,001,2022_Aug_03_1445,ProdSingRedoBetween,2021.2.3,59.931055313999124,
,,,,126,0,126,0,,,,,,,,,,,,,,,,,,,,,,1477.6063700999998,None,,,,,,,,,,,,,,,,,department,118,127,sing,new,null,1474.9685437999997,None,1474.9685437999997,None,1,1.5492495999997118,1474.9685437999997,None,1.5492495999997118,1476.5460352999999,None,1477.0492807,None,1477.0492807,None,n,0.5246839999999793,1477.0492807,None,0.5246839999999793,,,Sing12,001,2022_Aug_03_1445,ProdSingRedoBetween,2021.2.3,59.931055313999124,
,,,,127,0,127,0,,,,,,,,,,,,,,,,,,,,,,1482.6846710999998,None,,,,,,,,,,,,,,,,,majority,39,128,sing,old,blue,1478.1190996999999,None,1478.1190996999999,None,1,1.342835599999944,1478.1190996999999,None,1.342835599999944,1479.4847425999997,None,1479.9987142,None,1479.9987142,None,n,2.6631287000000157,1479.9987142,None,2.6631287000000157,,,Sing12,001,2022_Aug_03_1445,ProdSingRedoBetween,2021.2.3,59.931055313999124,
,,,,128,0,128,0,,,,,,,,,,,,,,,,,,,,,,1489.8585592,None,,,,,,,,,,,,,,,,,substance,34,129,sing,old,blue,1483.2046494,None,1483.2046494,None,3,5.689182699999947,1483.2046494,None,5.689182699999947,1488.9250019,None,1489.4250674999998,None,1489.4250674999998,None,f,0.41276669999979276,1489.4250674999998,None,0.41276669999979276,,,Sing12,001,2022_Aug_03_1445,ProdSingRedoBetween,2021.2.3,59.931055313999124,
,,,,129,0,129,0,,,,,,,,,,,,,,,,,,,,,,1492.8780416,None,,,,,,,,,,,,,,,,,brief,158,130,sing,new,null,1490.3701108,None,1490.3701108,None,1,1.3956840000000739,1490.3701108,None,1.3956840000000739,1491.7942755,None,1492.294495,None,1492.294495,None,n,0.567360699999881,1492.294495,None,0.567360699999881,,,Sing12,001,2022_Aug_03_1445,ProdSingRedoBetween,2021.2.3,59.931055313999124,
,,,,130,0,130,0,,,,,,,,,,,,,,,,,,,,,,1503.2051323,None,,,,,,,,,,,,,,,,,region,107,131,sing,new,null,1493.3809188,None,1493.3809188,None,1,8.864943899999616,1493.3809188,None,8.864943899999616,1502.2706488,None,1502.7737082999997,None,1502.7737082999997,None,n,0.4082232999999178,1502.7737082999997,None,0.4082232999999178,,,Sing12,001,2022_Aug_03_1445,ProdSingRedoBetween,2021.2.3,59.931055313999124,
,,,,131,0,131,0,,,,,,,,,,,,,,,,,,,,,,1505.5241142999998,None,,,,,,,,,,,,,,,,,number,152,132,sing,new,null,1503.7147296999997,None,1503.7147296999997,None,1,1.1631538000001456,1503.7147296999997,None,1.1631538000001456,1504.9068656999998,None,1505.4120000999997,None,1505.4120000999997,None,n,0.08208160000003772,1505.4120000999997,None,0.08208160000003772,,,Sing12,001,2022_Aug_03_1445,ProdSingRedoBetween,2021.2.3,59.931055313999124,
,,,,132,0,132,0,,,,,,,,,,,,,,,,,,,,,,1508.9942547,None,,,,,,,,,,,,,,,,,motion,75,133,sing,old,red,1506.0248219999999,None,1506.0248219999999,None,4,2.133085800000117,1506.0248219999999,None,2.133085800000117,1508.1768007,None,1508.6823701999997,None,1508.6823701999997,None,f,0.2915088999998261,1508.6823701999997,None,0.2915088999998261,,,Sing12,001,2022_Aug_03_1445,ProdSingRedoBetween,2021.2.3,59.931055313999124,
,,,,133,0,133,0,,,,,,,,,,,,,,,,,,,,,,1511.9305037,None,,,,,,,,,,,,,,,,,figure,138,134,sing,new,null,1509.5100257,None,1509.5100257,None,1,1.439821800000118,1509.5100257,None,1.439821800000118,1510.9862893,None,1511.4968697,None,1511.4968697,None,n,0.4050304000002143,1511.4968697,None,0.4050304000002143,,,Sing12,001,2022_Aug_03_1445,ProdSingRedoBetween,2021.2.3,59.931055313999124,
,,,,134,0,134,0,,,,,,,,,,,,,,,,,,,,,,1514.1678689999999,None,,,,,,,,,,,,,,,,,court,104,135,sing,new,null,1512.4460276999998,None,1512.4460276999998,None,1,1.0638475999999173,1512.4460276999998,None,1.0638475999999173,1513.5380371,None,1514.0494651999998,None,1514.0494651999998,None,n,0.10044500000003609,1514.0494651999998,None,0.10044500000003609,,,Sing12,001,2022_Aug_03_1445,ProdSingRedoBetween,2021.2.3,59.931055313999124,
,,,,135,0,135,0,,,,,,,,,,,,,,,,,,,,,,1516.5350152,None,,,,,,,,,,,,,,,,,title,32,136,sing,old,blue,1514.6909717999997,None,1514.6909717999997,None,1,1.154864500000258,1514.6909717999997,None,1.154864500000258,1515.8686871999998,None,1516.3682301,None,1516.3682301,None,n,0.14953220000006695,1516.3682301,None,0.14953220000006695,,,Sing12,001,2022_Aug_03_1445,ProdSingRedoBetween,2021.2.3,59.931055313999124,
,,,,136,0,136,0,,,,,,,,,,,,,,,,,,,,,,1519.6747676,None,,,,,,,,,,,,,,,,,force,134,137,sing,new,null,1517.040947,None,1517.040947,None,1,1.8929036999998061,1517.040947,None,1.8929036999998061,1518.9558709999997,None,1519.4748716,None,1519.4748716,None,n,0.1790556999999353,1519.4748716,None,0.1790556999999353,,,Sing12,001,2022_Aug_03_1445,ProdSingRedoBetween,2021.2.3,59.931055313999124,
,,,,137,0,137,0,,,,,,,,,,,,,,,,,,,,,,1524.1619444999997,None,,,,,,,,,,,,,,,,,dance,116,138,sing,new,null,1520.1934487999997,None,1520.1934487999997,None,1,3.276456500000222,1520.1934487999997,None,3.276456500000222,1523.4954892,None,1524.0093342,None,1524.0093342,None,n,0.12468649999982517,1524.0093342,None,0.12468649999982517,,,Sing12,001,2022_Aug_03_1445,ProdSingRedoBetween,2021.2.3,59.931055313999124,
,,,,138,0,138,0,,,,,,,,,,,,,,,,,,,,,,1526.4452738,None,,,,,,,,,,,,,,,,,mankind,149,139,sing,new,null,1524.6787556999998,None,1524.6787556999998,None,1,1.0470412000004217,1524.6787556999998,None,1.0470412000004217,1525.7455304,None,1526.2572872,None,1526.2572872,None,n,0.17263709999997445,1526.2572872,None,0.17263709999997445,,,Sing12,001,2022_Aug_03_1445,ProdSingRedoBetween,2021.2.3,59.931055313999124,
,,,,139,0,139,0,,,,,,,,,,,,,,,,,,,,,,1529.3854481999997,None,,,,,,,,,,,,,,,,,research,3,140,sing,old,yellow,1526.9509565999997,None,1526.9509565999997,None,1,1.790824100000009,1526.9509565999997,None,1.790824100000009,1528.7656262,None,1529.2722584999997,None,1529.2722584999997,None,n,0.09371710000004896,1529.2722584999997,None,0.09371710000004896,,,Sing12,001,2022_Aug_03_1445,ProdSingRedoBetween,2021.2.3,59.931055313999124,
,,,,140,0,140,0,,,,,,,,,,,,,,,,,,,,,,1533.0866290999998,None,,,,,,,,,,,,,,,,,strain,9,141,sing,old,yellow,1529.9107653,None,1529.9107653,None,4,2.18307249999998,1529.9107653,None,2.18307249999998,1532.1201765,None,1532.6377743999997,None,1532.6377743999997,None,f,0.41618819999985135,1532.6377743999997,None,0.41618819999985135,,,Sing12,001,2022_Aug_03_1445,ProdSingRedoBetween,2021.2.3,59.931055313999124,
,,,,141,0,141,0,,,,,,,,,,,,,,,,,,,,,,1535.405397,None,,,,,,,,,,,,,,,,,produce,54,142,sing,old,blue,1533.6023455,None,1533.6023455,None,1,0.9795089999997799,1533.6023455,None,0.9795089999997799,1534.6053351,None,1535.1215238,None,1535.1215238,None,n,0.26045169999997597,1535.1215238,None,0.26045169999997597,,,Sing12,001,2022_Aug_03_1445,ProdSingRedoBetween,2021.2.3,59.931055313999124,
,,,,142,0,142,0,,,,,,,,,,,,,,,,,,,,,,1540.3253328,None,,,,,,,,,,,,,,,,,husband,10,143,sing,old,yellow,1535.9121851,None,1535.9121851,None,6,1.9737206999998307,1535.9121851,None,1.9737206999998307,1537.9144471,None,1538.4237619,None,1538.4237619,None,f,1.8781340999998974,1538.4237619,None,1.8781340999998974,,,Sing12,001,2022_Aug_03_1445,ProdSingRedoBetween,2021.2.3,59.931055313999124,
,,,,143,0,143,0,,,,,,,,,,,,,,,,,,,,,,1544.1458134,None,,,,,,,,,,,,,,,,,smooth,81,144,sing,old,red,1540.8299235999998,None,1540.8299235999998,None,6,2.176064700000097,1540.8299235999998,None,2.176064700000097,1543.0356764999997,None,1543.5455241999998,None,1543.5455241999998,None,f,0.5803188999998383,1543.5455241999998,None,0.5803188999998383,,,Sing12,001,2022_Aug_03_1445,ProdSingRedoBetween,2021.2.3,59.931055313999124,
,,,,144,0,144,0,,,,,,,,,,,,,,,,,,,,,,1547.9331892999999,None,,,,,,,,,,,,,,,,,listen,90,145,sing,new,null,1544.6596512,None,1544.6596512,None,2,1.6582494999997834,1544.6596512,None,1.6582494999997834,1546.3549193,None,1546.8654956,None,1546.8654956,None,n,1.0444016999999803,1546.8654956,None,1.0444016999999803,,,Sing12,001,2022_Aug_03_1445,ProdSingRedoBetween,2021.2.3,59.931055313999124,
,,,,145,0,145,0,,,,,,,,,,,,,,,,,,,,,,1550.6024834,None,,,,,,,,,,,,,,,,,member,4,146,sing,old,yellow,1548.4484930999997,None,1548.4484930999997,None,1,1.4133325000002515,1548.4484930999997,None,1.4133325000002515,1549.8850672999997,None,1550.3857926,None,1550.3857926,None,n,0.19610310000007303,1550.3857926,None,0.19610310000007303,,,Sing12,001,2022_Aug_03_1445,ProdSingRedoBetween,2021.2.3,59.931055313999124,
,,,,146,0,146,0,,,,,,,,,,,,,,,,,,,,,,1553.1047549999998,None,,,,,,,,,,,,,,,,,collection,16,147,sing,old,yellow,1551.1102216999998,None,1551.1102216999998,None,1,1.1677435000001424,1551.1102216999998,None,1.1677435000001424,1552.3050894999997,None,1552.8067535,None,1552.8067535,None,n,0.2711751000001641,1552.8067535,None,0.2711751000001641,,,Sing12,001,2022_Aug_03_1445,ProdSingRedoBetween,2021.2.3,59.931055313999124,
,,,,147,0,147,0,,,,,,,,,,,,,,,,,,,,,,1560.4970178999997,None,,,,,,,,,,,,,,,,,captain,38,148,sing,old,blue,1553.6085681999998,None,1553.6085681999998,None,1,4.741181500000039,1553.6085681999998,None,4.741181500000039,1558.3848349999998,None,1558.8941725,None,1558.8941725,None,n,1.583725399999821,1558.8941725,None,1.583725399999821,,,Sing12,001,2022_Aug_03_1445,ProdSingRedoBetween,2021.2.3,59.931055313999124,
,,,,148,0,148,0,,,,,,,,,,,,,,,,,,,,,,1564.5164101999999,None,,,,,,,,,,,,,,,,,present,56,149,sing,old,blue,1561.0026490999999,None,1561.0026490999999,None,6,1.7472161000000597,1561.0026490999999,None,1.7472161000000597,1562.7677273,None,1563.2821491999998,None,1563.2821491999998,None,f,1.2037239000001136,1563.2821491999998,None,1.2037239000001136,,,Sing12,001,2022_Aug_03_1445,ProdSingRedoBetween,2021.2.3,59.931055313999124,
,,,,149,0,149,0,,,,,,,,,,,,,,,,,,,,,,1566.9355028,None,,,,,,,,,,,,,,,,,rural,103,150,sing,new,null,1565.0332678,None,1565.0332678,None,1,1.0125348999999915,1565.0332678,None,1.0125348999999915,1566.0679663,None,1566.5779944,None,1566.5779944,None,n,0.33983519999992495,1566.5779944,None,0.33983519999992495,,,Sing12,001,2022_Aug_03_1445,ProdSingRedoBetween,2021.2.3,59.931055313999124,
,,,,150,0,150,0,,,,,,,,,,,,,,,,,,,,,,1571.3398545999999,None,,,,,,,,,,,,,,,,,meeting,70,151,sing,old,red,1567.4419428,None,1567.4419428,None,6,1.8519992000001366,1567.4419428,None,1.8519992000001366,1569.3284937999997,None,1569.8417599,None,1569.8417599,None,f,1.4680858000001535,1569.8417599,None,1.4680858000001535,,,Sing12,001,2022_Aug_03_1445,ProdSingRedoBetween,2021.2.3,59.931055313999124,
,,,,151,0,151,0,,,,,,,,,,,,,,,,,,,,,,1575.5942498,None,,,,,,,,,,,,,,,,,drove,44,152,sing,old,blue,1571.8512889999997,None,1571.8512889999997,None,6,1.3066773000000467,1571.8512889999997,None,1.3066773000000467,1573.1854724999998,None,1573.699967,None,1573.699967,None,r,1.873883300000216,1573.699967,None,1.873883300000216,,,Sing12,001,2022_Aug_03_1445,ProdSingRedoBetween,2021.2.3,59.931055313999124,
,,,,152,0,152,0,,,,,,,,,,,,,,,,,,,,,,1579.7982959,None,,,,,,,,,,,,,,,,,community,27,153,sing,old,yellow,1576.1022005999998,None,1576.1022005999998,None,4,2.567567799999779,1576.1022005999998,None,2.567567799999779,1578.6979511,None,1579.1979019,None,1579.1979019,None,f,0.5759680999999546,1579.1979019,None,0.5759680999999546,,,Sing12,001,2022_Aug_03_1445,ProdSingRedoBetween,2021.2.3,59.931055313999124,
,,,,153,0,153,0,,,,,,,,,,,,,,,,,,,,,,1583.3419857,None,,,,,,,,,,,,,,,,,judge,178,154,sing,new,null,1580.3053654,None,1580.3053654,None,1,2.284480899999835,1580.3053654,None,2.284480899999835,1582.6185640999997,None,1583.1182401,None,1583.1182401,None,n,0.191760499999873,1583.1182401,None,0.191760499999873,,,Sing12,001,2022_Aug_03_1445,ProdSingRedoBetween,2021.2.3,59.931055313999124,
,,,,154,0,154,0,,,,,,,,,,,,,,,,,,,,,,1585.5373851,None,,,,,,,,,,,,,,,,,display,169,155,sing,new,null,1583.855783,None,1583.855783,None,1,1.0460563999999977,1583.855783,None,1.0460563999999977,1584.9263473,None,1585.4445944,None,1585.4445944,None,n,0.06523059999972247,1585.4445944,None,0.06523059999972247,,,Sing12,001,2022_Aug_03_1445,ProdSingRedoBetween,2021.2.3,59.931055313999124,
,,,,155,0,155,0,,,,,,,,,,,,,,,,,,,,,,1588.8404486999998,None,,,,,,,,,,,,,,,,,benefit,128,156,sing,new,null,1586.0409338,None,1586.0409338,None,1,1.6129353000001174,1586.0409338,None,1.6129353000001174,1587.6739783999997,None,1588.1733684,None,1588.1733684,None,n,0.6484733999996024,1588.1733684,None,0.6484733999996024,,,Sing12,001,2022_Aug_03_1445,ProdSingRedoBetween,2021.2.3,59.931055313999124,
,,,,156,0,156,0,,,,,,,,,,,,,,,,,,,,,,1591.1764411999998,None,,,,,,,,,,,,,,,,,stranger,129,157,sing,new,null,1589.3516439999999,None,1589.3516439999999,None,1,1.0622410000000855,1589.3516439999999,None,1.0622410000000855,1590.4431982,None,1590.9479898,None,1590.9479898,None,n,0.20981699999992998,1590.9479898,None,0.20981699999992998,,,Sing12,001,2022_Aug_03_1445,ProdSingRedoBetween,2021.2.3,59.931055313999124,
,,,,157,0,157,0,,,,,,,,,,,,,,,,,,,,,,1595.8312284999997,None,,,,,,,,,,,,,,,,,color,60,158,sing,old,red,1591.6814021999999,None,1591.6814021999999,None,5,3.332475700000032,1591.6814021999999,None,3.332475700000032,1595.0312574999998,None,1595.5308866999999,None,1595.5308866999999,None,f,0.2829636000001301,1595.5308866999999,None,0.2829636000001301,,,Sing12,001,2022_Aug_03_1445,ProdSingRedoBetween,2021.2.3,59.931055313999124,
,,,,158,0,158,0,,,,,,,,,,,,,,,,,,,,,,1598.0496758999998,None,,,,,,,,,,,,,,,,,blind,148,159,sing,new,null,1596.3413406999998,None,1596.3413406999998,None,1,0.9925892999999633,1596.3413406999998,None,0.9925892999999633,1597.3501929,None,1597.8537649999998,None,1597.8537649999998,None,n,0.16811539999980596,1597.8537649999998,None,0.16811539999980596,,,Sing12,001,2022_Aug_03_1445,ProdSingRedoBetween,2021.2.3,59.931055313999124,
,,,,159,0,159,0,,,,,,,,,,,,,,,,,,,,,,1600.2852884,None,,,,,,,,,,,,,,,,,instrument,86,160,sing,old,red,1598.5503162,None,1598.5503162,None,1,1.1037117000000762,1598.5503162,None,1.1037117000000762,1599.6905895999998,None,1600.2022151,None,1600.2022151,None,n,0.06760380000014266,1600.2022151,None,0.06760380000014266,,,Sing12,001,2022_Aug_03_1445,ProdSingRedoBetween,2021.2.3,59.931055313999124,
,,,,160,0,160,0,,,,,,,,,,,,,,,,,,,,,,1602.6209602999998,None,,,,,,,,,,,,,,,,,contract,130,161,sing,new,null,1600.7923576999997,None,1600.7923576999997,None,1,1.021517600000152,1600.7923576999997,None,1.021517600000152,1601.838232,None,1602.3420258,None,1602.3420258,None,n,0.2638799999999719,1602.3420258,None,0.2638799999999719,,,Sing12,001,2022_Aug_03_1445,ProdSingRedoBetween,2021.2.3,59.931055313999124,
,,,,161,0,161,0,,,,,,,,,,,,,,,,,,,,,,1604.9415457999999,None,,,,,,,,,,,,,,,,,union,15,162,sing,old,yellow,1603.1372504,None,1603.1372504,None,1,1.0606474000001072,1603.1372504,None,1.0606474000001072,1604.2254678999998,None,1604.7400465,None,1604.7400465,None,n,0.17794999999978245,1604.7400465,None,0.17794999999978245,,,Sing12,001,2022_Aug_03_1445,ProdSingRedoBetween,2021.2.3,59.931055313999124,
,,,,162,0,162,0,,,,,,,,,,,,,,,,,,,,,,1607.7261728999997,None,,,,,,,,,,,,,,,,,committee,21,163,sing,old,yellow,1605.4493042999998,None,1605.4493042999998,None,6,1.5646418999999696,1605.4493042999998,None,1.5646418999999696,1607.0464051999998,None,1607.5595736999999,None,1607.5595736999999,None,f,0.15042620000031093,1607.5595736999999,None,0.15042620000031093,,,Sing12,001,2022_Aug_03_1445,ProdSingRedoBetween,2021.2.3,59.931055313999124,
,,,,163,0,163,0,,,,,,,,,,,,,,,,,,,,,,1609.9618639999999,None,,,,,,,,,,,,,,,,,portion,151,164,sing,new,null,1608.2294604999997,None,1608.2294604999997,None,1,1.144515500000125,1608.2294604999997,None,1.144515500000125,1609.3957808,None,1609.8993944999997,None,1609.8993944999997,None,n,0.04261109999970358,1609.8993944999997,None,0.04261109999970358,,,Sing12,001,2022_Aug_03_1445,ProdSingRedoBetween,2021.2.3,59.931055313999124,
,,,,164,0,164,0,,,,,,,,,,,,,,,,,,,,,,1615.4172435,None,,,,,,,,,,,,,,,,,country,28,165,sing,old,yellow,1610.4759777,None,1610.4759777,None,4,4.354039199999988,1610.4759777,None,4.354039199999988,1614.8511494999998,None,1615.3532863,None,1615.3532863,None,f,0.04460789999984627,1615.3532863,None,0.04460789999984627,,,Sing12,001,2022_Aug_03_1445,ProdSingRedoBetween,2021.2.3,59.931055313999124,
,,,,165,0,165,0,,,,,,,,,,,,,,,,,,,,,,1618.115002,None,,,,,,,,,,,,,,,,,drama,36,166,sing,old,blue,1615.9217547999997,None,1615.9217547999997,None,1,0.9721419999996215,1615.9217547999997,None,0.9721419999996215,1616.9185537999997,None,1617.4200480999998,None,1617.4200480999998,None,n,0.6659448000000339,1617.4200480999998,None,0.6659448000000339,,,Sing12,001,2022_Aug_03_1445,ProdSingRedoBetween,2021.2.3,59.931055313999124,
,,,,166,0,166,0,,,,,,,,,,,,,,,,,,,,,,1621.7069096999999,None,,,,,,,,,,,,,,,,,business,23,167,sing,old,yellow,1618.6239209,None,1618.6239209,None,1,2.4060835999998744,1618.6239209,None,2.4060835999998744,1621.0639231,None,1621.5748749999998,None,1621.5748749999998,None,n,0.1110198000001219,1621.5748749999998,None,0.1110198000001219,,,Sing12,001,2022_Aug_03_1445,ProdSingRedoBetween,2021.2.3,59.931055313999124,
,,,,167,0,167,0,,,,,,,,,,,,,,,,,,,,,,1624.4629193,None,,,,,,,,,,,,,,,,,commercial,48,168,sing,old,blue,1622.2076705,None,1622.2076705,None,6,1.5262290000000576,1622.2076705,None,1.5262290000000576,1623.7606906,None,1624.2802664,None,1624.2802664,None,r,0.1577543999997033,1624.2802664,None,0.1577543999997033,,,Sing12,001,2022_Aug_03_1445,ProdSingRedoBetween,2021.2.3,59.931055313999124,
,,,,168,0,168,0,,,,,,,,,,,,,,,,,,,,,,1626.8621432,None,,,,,,,,,,,,,,,,,volume,143,169,sing,new,null,1624.9837638,None,1624.9837638,None,1,1.1581661000000167,1624.9837638,None,1.1581661000000167,1626.1648265999997,None,1626.6786213999999,None,1626.6786213999999,None,n,0.16736420000006547,1626.6786213999999,None,0.16736420000006547,,,Sing12,001,2022_Aug_03_1445,ProdSingRedoBetween,2021.2.3,59.931055313999124,
,,,,169,0,169,0,,,,,,,,,,,,,,,,,,,,,,1630.1162672,None,,,,,,,,,,,,,,,,,signal,67,170,sing,old,red,1627.3768525,None,1627.3768525,None,1,1.8929829000003338,1627.3768525,None,1.8929829000003338,1629.2986652,None,1629.7985866,None,1629.7985866,None,n,0.2953969000000143,1629.7985866,None,0.2953969000000143,,,Sing12,001,2022_Aug_03_1445,ProdSingRedoBetween,2021.2.3,59.931055313999124,
,,,,170,0,170,0,,,,,,,,,,,,,,,,,,,,,,1638.3566997999997,None,,,,,,,,,,,,,,,,,enemy,42,171,sing,old,blue,1630.6177100999998,None,1630.6177100999998,None,3,7.10018940000009,1630.6177100999998,None,7.10018940000009,1637.7468795,None,1638.2604898,None,1638.2604898,None,f,0.07343179999998029,1638.2604898,None,0.07343179999998029,,,Sing12,001,2022_Aug_03_1445,ProdSingRedoBetween,2021.2.3,59.931055313999124,
,,,,171,0,171,0,,,,,,,,,,,,,,,,,,,,,,1641.6101998999998,None,,,,,,,,,,,,,,,,,skill,55,172,sing,old,blue,1638.8593339999998,None,1638.8593339999998,None,1,1.9465671000002658,1638.8593339999998,None,1.9465671000002658,1640.8273113999999,None,1641.3309350999998,None,1641.3309350999998,None,n,0.2589623999997457,1641.3309350999998,None,0.2589623999997457,,,Sing12,001,2022_Aug_03_1445,ProdSingRedoBetween,2021.2.3,59.931055313999124,
,,,,172,0,172,0,,,,,,,,,,,,,,,,,,,,,,1645.3137991999997,None,,,,,,,,,,,,,,,,,emergency,88,173,sing,old,red,1642.1177153999997,None,1642.1177153999997,None,6,2.0801878999996006,1642.1177153999997,None,2.0801878999996006,1644.2321391,None,1644.7467867999999,None,1644.7467867999999,None,r,0.5391488000000209,1644.7467867999999,None,0.5391488000000209,,,Sing12,001,2022_Aug_03_1445,ProdSingRedoBetween,2021.2.3,59.931055313999124,
,,,,173,0,173,0,,,,,,,,,,,,,,,,,,,,,,1650.0018163999998,None,,,,,,,,,,,,,,,,,answer,14,174,sing,old,yellow,1645.816222,None,1645.816222,None,6,2.6775588999998945,1645.816222,None,2.6775588999998945,1648.5193003999998,None,1649.0344145999998,None,1649.0344145999998,None,f,0.9395257000001038,1649.0344145999998,None,0.9395257000001038,,,Sing12,001,2022_Aug_03_1445,ProdSingRedoBetween,2021.2.3,59.931055313999124,
,,,,174,0,174,0,,,,,,,,,,,,,,,,,,,,,,1653.3219389,None,,,,,,,,,,,,,,,,,society,74,175,sing,old,red,1650.5137666,None,1650.5137666,None,1,2.124197599999661,1650.5137666,None,2.124197599999661,1652.6574673,None,1653.1725545999998,None,1653.1725545999998,None,n,0.12132160000010117,1653.1725545999998,None,0.12132160000010117,,,Sing12,001,2022_Aug_03_1445,ProdSingRedoBetween,2021.2.3,59.931055313999124,
,,,,175,0,175,0,,,,,,,,,,,,,,,,,,,,,,1655.8076207999998,None,,,,,,,,,,,,,,,,,principal,154,176,sing,new,null,1653.8422563,None,1653.8422563,None,1,1.1796633000003567,1653.8422563,None,1.1796633000003567,1655.0413994,None,1655.5408257,None,1655.5408257,None,n,0.24917240000013408,1655.5408257,None,0.24917240000013408,,,Sing12,001,2022_Aug_03_1445,ProdSingRedoBetween,2021.2.3,59.931055313999124,
,,,,176,0,176,0,,,,,,,,,,,,,,,,,,,,,,1659.2944239999997,None,,,,,,,,,,,,,,,,,bitter,93,177,sing,new,null,1656.3126615,None,1656.3126615,None,1,2.117247199999838,1656.3126615,None,2.117247199999838,1658.4617121,None,1658.9638372999998,None,1658.9638372999998,None,n,0.30606659999966723,1658.9638372999998,None,0.30606659999966723,,,Sing12,001,2022_Aug_03_1445,ProdSingRedoBetween,2021.2.3,59.931055313999124,
,,,,177,0,177,0,,,,,,,,,,,,,,,,,,,,,,1664.7498925,None,,,,,,,,,,,,,,,,,speech,125,178,sing,new,null,1659.8015664999998,None,1659.8015664999998,None,1,4.020341099999769,1659.8015664999998,None,4.020341099999769,1663.8514184,None,1664.3814920999998,None,1664.3814920999998,None,n,0.33638699999983146,1664.3814920999998,None,0.33638699999983146,,,Sing12,001,2022_Aug_03_1445,ProdSingRedoBetween,2021.2.3,59.931055313999124,
,,,,178,0,178,0,,,,,,,,,,,,,,,,,,,,,,1669.0372827,None,,,,,,,,,,,,,,,,,management,83,179,sing,old,red,1665.2505226999997,None,1665.2505226999997,None,5,1.8433721000001242,1665.2505226999997,None,1.8433721000001242,1667.118779,None,1667.6195942999998,None,1667.6195942999998,None,f,1.4022487999995974,1667.6195942999998,None,1.4022487999995974,,,Sing12,001,2022_Aug_03_1445,ProdSingRedoBetween,2021.2.3,59.931055313999124,
,,,,179,0,179,0,,,,,,,,,,,,,,,,,,,,,,1671.9905684999999,None,,,,,,,,,,,,,,,,,institute,29,180,sing,old,blue,1669.5378707999998,None,1669.5378707999998,None,6,1.748060599999917,1669.5378707999998,None,1.748060599999917,1671.3062845999998,None,1671.8074944999998,None,1671.8074944999998,None,r,0.16644429999996646,1671.8074944999998,None,0.16644429999996646,,,Sing12,001,2022_Aug_03_1445,ProdSingRedoBetween,2021.2.3,59.931055313999124,
,,,,,,,,,,,,,,,,,,,,,,,,,,,,,,,,,,,,,,,,,,,,,,,,,,,,,,,,,,,,,,,,,,,,,,,,,1672.4915888,None,,,,,,,
