StudyLoop.thisRepN,StudyLoop.thisTrialN,StudyLoop.thisN,StudyLoop.thisIndex,TestLoop.thisRepN,TestLoop.thisTrialN,TestLoop.thisN,TestLoop.thisIndex,textCondition.started,textCondition.stopped,keyCondition.keys,keyCondition.rt,keyCondition.started,keyCondition.stopped,Condition,textWelcome.started,textWelcome.stopped,keyWelcome.keys,keyWelcome.rt,keyWelcome.started,keyWelcome.stopped,textAloud.started,textAloud.stopped,textSilent.started,textSilent.stopped,textSing.started,textSing.stopped,conditional_text.started,conditional_text.stopped,textBlank500.started,textBlank500.stopped,study_word,study_num,study_order,study_type,word_color,textStudy.started,textStudy.stopped,keyStudy.keys,keyStudy.started,keyStudy.stopped,textTestInstructions.started,textTestInstructions.stopped,key_resp_3.keys,key_resp_3.rt,key_resp_3.started,key_resp_3.stopped,test_word,test_num,test_order,test_condition,old_new_test,test_word_original_color,textConf.started,textConf.stopped,textConfScale.started,textConfScale.stopped,keyConf.keys,keyConf.rt,keyConf.started,keyConf.stopped,confidence response time,textTestBlank.started,textTestBlank.stopped,textRKN.started,textRKN.stopped,textRKNScale.started,textRKNScale.stopped,keyRKN.keys,keyRKN.rt,keyRKN.started,keyRKN.stopped,rkn response time,textEnd.started,textEnd.stopped,participant,session,date,expName,psychopyVersion,frameRate,
,,,,,,,,23.10938129999886,None,c,1.495147800000268,23.10938129999886,None,,,,,,,,,,,,,,,,,,,,,,,,,,,,,,,,,,,,,,,,,,,,,,,,,,,,,,,,,,,,,,30sing,001,2023_Sep_25_1118,ProdSingRedoBetween,2021.2.3,59.951067938489864,
,,,,,,,,,,,,,,SingTest,24.662196299999778,None,space,274.5502662000017,24.662196299999778,None,,,,,,,,,,,,,,,,,,,,,,,,,,,,,,,,,,,,,,,,,,,,,,,,,,,,,,,30sing,001,2023_Sep_25_1118,ProdSingRedoBetween,2021.2.3,59.951067938489864,
0,0,0,0,,,,,,,,,,,,,,,,,,24.662196299999778,None,24.662196299999778,None,24.662196299999778,None,24.662196299999778,None,301.7562268999991,None,cousin,6,1,sing,yellow,299.74615429999903,None,None,299.74615429999903,None,,,,,,,,,,,,,,,,,,,,,,,,,,,,,,,,,,,30sing,001,2023_Sep_25_1118,ProdSingRedoBetween,2021.2.3,59.951067938489864,
1,0,1,0,,,,,,,,,,,,,,,,,,,,,,,,,,304.25787239999954,None,revolution,17,2,sing,yellow,302.2575605000002,None,None,302.2575605000002,None,,,,,,,,,,,,,,,,,,,,,,,,,,,,,,,,,,,30sing,001,2023_Sep_25_1118,ProdSingRedoBetween,2021.2.3,59.951067938489864,
2,0,2,0,,,,,,,,,,,,,,,,,,,,,,,,,,306.76046270000006,None,error,40,3,sing,blue,304.75858569999946,None,None,304.75858569999946,None,,,,,,,,,,,,,,,,,,,,,,,,,,,,,,,,,,,30sing,001,2023_Sep_25_1118,ProdSingRedoBetween,2021.2.3,59.951067938489864,
3,0,3,0,,,,,,,,,,,,,,,,,,,,,,,,,,309.27947139999924,None,testimony,70,4,sing,red,307.2673804999995,None,None,307.2673804999995,None,,,,,,,,,,,,,,,,,,,,,,,,,,,,,,,,,,,30sing,001,2023_Sep_25_1118,ProdSingRedoBetween,2021.2.3,59.951067938489864,
4,0,4,0,,,,,,,,,,,,,,,,,,,,,,,,,,311.782061599999,None,store,34,5,sing,blue,309.78000339999926,None,None,309.78000339999926,None,,,,,,,,,,,,,,,,,,,,,,,,,,,,,,,,,,,30sing,001,2023_Sep_25_1118,ProdSingRedoBetween,2021.2.3,59.951067938489864,
5,0,5,0,,,,,,,,,,,,,,,,,,,,,,,,,,314.3012794999995,None,salary,75,6,sing,red,312.2884232999986,None,None,312.2884232999986,None,,,,,,,,,,,,,,,,,,,,,,,,,,,,,,,,,,,30sing,001,2023_Sep_25_1118,ProdSingRedoBetween,2021.2.3,59.951067938489864,
6,0,6,0,,,,,,,,,,,,,,,,,,,,,,,,,,316.82032329999856,None,impact,86,7,sing,red,314.8102773999999,None,None,314.8102773999999,None,,,,,,,,,,,,,,,,,,,,,,,,,,,,,,,,,,,30sing,001,2023_Sep_25_1118,ProdSingRedoBetween,2021.2.3,59.951067938489864,
7,0,7,0,,,,,,,,,,,,,,,,,,,,,,,,,,319.33963849999964,None,break,81,8,sing,red,317.33827159999964,None,None,317.33827159999964,None,,,,,,,,,,,,,,,,,,,,,,,,,,,,,,,,,,,30sing,001,2023_Sep_25_1118,ProdSingRedoBetween,2021.2.3,59.951067938489864,
8,0,8,0,,,,,,,,,,,,,,,,,,,,,,,,,,321.85880839999845,None,command,54,9,sing,blue,319.8480724000001,None,None,319.8480724000001,None,,,,,,,,,,,,,,,,,,,,,,,,,,,,,,,,,,,30sing,001,2023_Sep_25_1118,ProdSingRedoBetween,2021.2.3,59.951067938489864,
9,0,9,0,,,,,,,,,,,,,,,,,,,,,,,,,,324.37796379999963,None,search,7,10,sing,yellow,322.37117119999857,None,None,322.37117119999857,None,,,,,,,,,,,,,,,,,,,,,,,,,,,,,,,,,,,30sing,001,2023_Sep_25_1118,ProdSingRedoBetween,2021.2.3,59.951067938489864,
10,0,10,0,,,,,,,,,,,,,,,,,,,,,,,,,,326.8804666999986,None,alert,76,11,sing,red,324.879295499999,None,None,324.879295499999,None,,,,,,,,,,,,,,,,,,,,,,,,,,,,,,,,,,,30sing,001,2023_Sep_25_1118,ProdSingRedoBetween,2021.2.3,59.951067938489864,
11,0,11,0,,,,,,,,,,,,,,,,,,,,,,,,,,329.3830399999988,None,finish,31,12,sing,blue,327.3829618,None,None,327.3829618,None,,,,,,,,,,,,,,,,,,,,,,,,,,,,,,,,,,,30sing,001,2023_Sep_25_1118,ProdSingRedoBetween,2021.2.3,59.951067938489864,
12,0,12,0,,,,,,,,,,,,,,,,,,,,,,,,,,331.88551819999884,None,empty,52,13,sing,blue,329.88543260000006,None,None,329.88543260000006,None,,,,,,,,,,,,,,,,,,,,,,,,,,,,,,,,,,,30sing,001,2023_Sep_25_1118,ProdSingRedoBetween,2021.2.3,59.951067938489864,
13,0,13,0,,,,,,,,,,,,,,,,,,,,,,,,,,334.3879864999999,None,election,38,14,sing,blue,332.38738829999966,None,None,332.38738829999966,None,,,,,,,,,,,,,,,,,,,,,,,,,,,,,,,,,,,30sing,001,2023_Sep_25_1118,ProdSingRedoBetween,2021.2.3,59.951067938489864,
14,0,14,0,,,,,,,,,,,,,,,,,,,,,,,,,,336.9072777000001,None,distance,57,15,sing,blue,334.8920177,None,None,334.8920177,None,,,,,,,,,,,,,,,,,,,,,,,,,,,,,,,,,,,30sing,001,2023_Sep_25_1118,ProdSingRedoBetween,2021.2.3,59.951067938489864,
15,0,15,0,,,,,,,,,,,,,,,,,,,,,,,,,,339.4264065999996,None,dispute,2,16,sing,yellow,337.4146217999987,None,None,337.4146217999987,None,,,,,,,,,,,,,,,,,,,,,,,,,,,,,,,,,,,30sing,001,2023_Sep_25_1118,ProdSingRedoBetween,2021.2.3,59.951067938489864,
16,0,16,0,,,,,,,,,,,,,,,,,,,,,,,,,,341.945550299999,None,history,1,17,sing,yellow,339.9300291999989,None,None,339.9300291999989,None,,,,,,,,,,,,,,,,,,,,,,,,,,,,,,,,,,,30sing,001,2023_Sep_25_1118,ProdSingRedoBetween,2021.2.3,59.951067938489864,
17,0,17,0,,,,,,,,,,,,,,,,,,,,,,,,,,344.44807070000024,None,listen,10,18,sing,yellow,342.44824659999904,None,None,342.44824659999904,None,,,,,,,,,,,,,,,,,,,,,,,,,,,,,,,,,,,30sing,001,2023_Sep_25_1118,ProdSingRedoBetween,2021.2.3,59.951067938489864,
18,0,18,0,,,,,,,,,,,,,,,,,,,,,,,,,,346.95056920000025,None,author,25,19,sing,yellow,344.95025559999885,None,None,344.95025559999885,None,,,,,,,,,,,,,,,,,,,,,,,,,,,,,,,,,,,30sing,001,2023_Sep_25_1118,ProdSingRedoBetween,2021.2.3,59.951067938489864,
19,0,19,0,,,,,,,,,,,,,,,,,,,,,,,,,,349.4696918999998,None,fashion,37,20,sing,blue,347.4570810999994,None,None,347.4570810999994,None,,,,,,,,,,,,,,,,,,,,,,,,,,,,,,,,,,,30sing,001,2023_Sep_25_1118,ProdSingRedoBetween,2021.2.3,59.951067938489864,
20,0,20,0,,,,,,,,,,,,,,,,,,,,,,,,,,351.97214039999926,None,entrance,42,21,sing,blue,349.96996880000006,None,None,349.96996880000006,None,,,,,,,,,,,,,,,,,,,,,,,,,,,,,,,,,,,30sing,001,2023_Sep_25_1118,ProdSingRedoBetween,2021.2.3,59.951067938489864,
21,0,21,0,,,,,,,,,,,,,,,,,,,,,,,,,,354.4746727999991,None,union,30,22,sing,blue,352.47278409999853,None,None,352.47278409999853,None,,,,,,,,,,,,,,,,,,,,,,,,,,,,,,,,,,,30sing,001,2023_Sep_25_1118,ProdSingRedoBetween,2021.2.3,59.951067938489864,
22,0,22,0,,,,,,,,,,,,,,,,,,,,,,,,,,356.9772639999992,None,comfort,74,23,sing,red,354.9775088999995,None,None,354.9775088999995,None,,,,,,,,,,,,,,,,,,,,,,,,,,,,,,,,,,,30sing,001,2023_Sep_25_1118,ProdSingRedoBetween,2021.2.3,59.951067938489864,
23,0,23,0,,,,,,,,,,,,,,,,,,,,,,,,,,359.49632779999956,None,background,62,24,sing,red,357.4838676999989,None,None,357.4838676999989,None,,,,,,,,,,,,,,,,,,,,,,,,,,,,,,,,,,,30sing,001,2023_Sep_25_1118,ProdSingRedoBetween,2021.2.3,59.951067938489864,
24,0,24,0,,,,,,,,,,,,,,,,,,,,,,,,,,361.9988950999996,None,point,78,25,sing,red,359.998274399999,None,None,359.998274399999,None,,,,,,,,,,,,,,,,,,,,,,,,,,,,,,,,,,,30sing,001,2023_Sep_25_1118,ProdSingRedoBetween,2021.2.3,59.951067938489864,
25,0,25,0,,,,,,,,,,,,,,,,,,,,,,,,,,364.5180834999992,None,orchestra,87,26,sing,red,362.50351799999953,None,None,362.50351799999953,None,,,,,,,,,,,,,,,,,,,,,,,,,,,,,,,,,,,30sing,001,2023_Sep_25_1118,ProdSingRedoBetween,2021.2.3,59.951067938489864,
26,0,26,0,,,,,,,,,,,,,,,,,,,,,,,,,,367.0204890999994,None,broad,55,27,sing,blue,365.01935520000006,None,None,365.01935520000006,None,,,,,,,,,,,,,,,,,,,,,,,,,,,,,,,,,,,30sing,001,2023_Sep_25_1118,ProdSingRedoBetween,2021.2.3,59.951067938489864,
27,0,27,0,,,,,,,,,,,,,,,,,,,,,,,,,,369.5399060999989,None,interior,53,28,sing,blue,367.52430529999947,None,None,367.52430529999947,None,,,,,,,,,,,,,,,,,,,,,,,,,,,,,,,,,,,30sing,001,2023_Sep_25_1118,ProdSingRedoBetween,2021.2.3,59.951067938489864,
28,0,28,0,,,,,,,,,,,,,,,,,,,,,,,,,,372.04227960000026,None,front,47,29,sing,blue,370.04011379999974,None,None,370.04011379999974,None,,,,,,,,,,,,,,,,,,,,,,,,,,,,,,,,,,,30sing,001,2023_Sep_25_1118,ProdSingRedoBetween,2021.2.3,59.951067938489864,
29,0,29,0,,,,,,,,,,,,,,,,,,,,,,,,,,374.56160329999875,None,month,83,30,sing,red,372.5501684999999,None,None,372.5501684999999,None,,,,,,,,,,,,,,,,,,,,,,,,,,,,,,,,,,,30sing,001,2023_Sep_25_1118,ProdSingRedoBetween,2021.2.3,59.951067938489864,
30,0,30,0,,,,,,,,,,,,,,,,,,,,,,,,,,377.0640138999988,None,substance,11,31,sing,yellow,375.06192479999845,None,None,375.06192479999845,None,,,,,,,,,,,,,,,,,,,,,,,,,,,,,,,,,,,30sing,001,2023_Sep_25_1118,ProdSingRedoBetween,2021.2.3,59.951067938489864,
31,0,31,0,,,,,,,,,,,,,,,,,,,,,,,,,,379.5831653999994,None,cross,50,32,sing,blue,377.56772850000016,None,None,377.56772850000016,None,,,,,,,,,,,,,,,,,,,,,,,,,,,,,,,,,,,30sing,001,2023_Sep_25_1118,ProdSingRedoBetween,2021.2.3,59.951067938489864,
32,0,32,0,,,,,,,,,,,,,,,,,,,,,,,,,,382.08570359999976,None,design,82,33,sing,red,380.0835972999994,None,None,380.0835972999994,None,,,,,,,,,,,,,,,,,,,,,,,,,,,,,,,,,,,30sing,001,2023_Sep_25_1118,ProdSingRedoBetween,2021.2.3,59.951067938489864,
33,0,33,0,,,,,,,,,,,,,,,,,,,,,,,,,,384.6048504999999,None,partner,58,34,sing,blue,382.5963983999991,None,None,382.5963983999991,None,,,,,,,,,,,,,,,,,,,,,,,,,,,,,,,,,,,30sing,001,2023_Sep_25_1118,ProdSingRedoBetween,2021.2.3,59.951067938489864,
34,0,34,0,,,,,,,,,,,,,,,,,,,,,,,,,,387.10728169999857,None,marriage,65,35,sing,red,385.10525419999976,None,None,385.10525419999976,None,,,,,,,,,,,,,,,,,,,,,,,,,,,,,,,,,,,30sing,001,2023_Sep_25_1118,ProdSingRedoBetween,2021.2.3,59.951067938489864,
35,0,35,0,,,,,,,,,,,,,,,,,,,,,,,,,,389.62657469999976,None,minute,16,36,sing,yellow,387.61921099999927,None,None,387.61921099999927,None,,,,,,,,,,,,,,,,,,,,,,,,,,,,,,,,,,,30sing,001,2023_Sep_25_1118,ProdSingRedoBetween,2021.2.3,59.951067938489864,
36,0,36,0,,,,,,,,,,,,,,,,,,,,,,,,,,392.1290283999988,None,incident,12,37,sing,yellow,390.12883689999944,None,None,390.12883689999944,None,,,,,,,,,,,,,,,,,,,,,,,,,,,,,,,,,,,30sing,001,2023_Sep_25_1118,ProdSingRedoBetween,2021.2.3,59.951067938489864,
37,0,37,0,,,,,,,,,,,,,,,,,,,,,,,,,,394.64825930000006,None,atmosphere,77,38,sing,red,392.6352337999997,None,None,392.6352337999997,None,,,,,,,,,,,,,,,,,,,,,,,,,,,,,,,,,,,30sing,001,2023_Sep_25_1118,ProdSingRedoBetween,2021.2.3,59.951067938489864,
38,0,38,0,,,,,,,,,,,,,,,,,,,,,,,,,,397.16740369999934,None,candidate,89,39,sing,red,395.1530699999985,None,None,395.1530699999985,None,,,,,,,,,,,,,,,,,,,,,,,,,,,,,,,,,,,30sing,001,2023_Sep_25_1118,ProdSingRedoBetween,2021.2.3,59.951067938489864,
39,0,39,0,,,,,,,,,,,,,,,,,,,,,,,,,,399.669879699999,None,instrument,79,40,sing,red,397.66924539999854,None,None,397.66924539999854,None,,,,,,,,,,,,,,,,,,,,,,,,,,,,,,,,,,,30sing,001,2023_Sep_25_1118,ProdSingRedoBetween,2021.2.3,59.951067938489864,
40,0,40,0,,,,,,,,,,,,,,,,,,,,,,,,,,402.1723689999999,None,passage,66,41,sing,red,400.17233919999853,None,None,400.17233919999853,None,,,,,,,,,,,,,,,,,,,,,,,,,,,,,,,,,,,30sing,001,2023_Sep_25_1118,ProdSingRedoBetween,2021.2.3,59.951067938489864,
41,0,41,0,,,,,,,,,,,,,,,,,,,,,,,,,,404.67497419999927,None,bucket,61,42,sing,red,402.6749289999989,None,None,402.6749289999989,None,,,,,,,,,,,,,,,,,,,,,,,,,,,,,,,,,,,30sing,001,2023_Sep_25_1118,ProdSingRedoBetween,2021.2.3,59.951067938489864,
42,0,42,0,,,,,,,,,,,,,,,,,,,,,,,,,,407.19419539999944,None,trial,63,43,sing,red,405.1794872999999,None,None,405.1794872999999,None,,,,,,,,,,,,,,,,,,,,,,,,,,,,,,,,,,,30sing,001,2023_Sep_25_1118,ProdSingRedoBetween,2021.2.3,59.951067938489864,
43,0,43,0,,,,,,,,,,,,,,,,,,,,,,,,,,409.7134668999988,None,device,13,44,sing,yellow,407.7015089999986,None,None,407.7015089999986,None,,,,,,,,,,,,,,,,,,,,,,,,,,,,,,,,,,,30sing,001,2023_Sep_25_1118,ProdSingRedoBetween,2021.2.3,59.951067938489864,
44,0,44,0,,,,,,,,,,,,,,,,,,,,,,,,,,412.2324116,None,angle,56,45,sing,blue,410.21912669999983,None,None,410.21912669999983,None,,,,,,,,,,,,,,,,,,,,,,,,,,,,,,,,,,,30sing,001,2023_Sep_25_1118,ProdSingRedoBetween,2021.2.3,59.951067938489864,
45,0,45,0,,,,,,,,,,,,,,,,,,,,,,,,,,414.73487679999926,None,pretty,21,46,sing,yellow,412.7327220999996,None,None,412.7327220999996,None,,,,,,,,,,,,,,,,,,,,,,,,,,,,,,,,,,,30sing,001,2023_Sep_25_1118,ProdSingRedoBetween,2021.2.3,59.951067938489864,
46,0,46,0,,,,,,,,,,,,,,,,,,,,,,,,,,417.2540835,None,victory,5,47,sing,yellow,415.2389389,None,None,415.2389389,None,,,,,,,,,,,,,,,,,,,,,,,,,,,,,,,,,,,30sing,001,2023_Sep_25_1118,ProdSingRedoBetween,2021.2.3,59.951067938489864,
47,0,47,0,,,,,,,,,,,,,,,,,,,,,,,,,,419.7732825999992,None,burden,35,48,sing,blue,417.7621159999999,None,None,417.7621159999999,None,,,,,,,,,,,,,,,,,,,,,,,,,,,,,,,,,,,30sing,001,2023_Sep_25_1118,ProdSingRedoBetween,2021.2.3,59.951067938489864,
48,0,48,0,,,,,,,,,,,,,,,,,,,,,,,,,,422.2758966000001,None,speech,84,49,sing,red,420.2737748999989,None,None,420.2737748999989,None,,,,,,,,,,,,,,,,,,,,,,,,,,,,,,,,,,,30sing,001,2023_Sep_25_1118,ProdSingRedoBetween,2021.2.3,59.951067938489864,
49,0,49,0,,,,,,,,,,,,,,,,,,,,,,,,,,424.7950624999994,None,notice,44,50,sing,blue,422.7807438999989,None,None,422.7807438999989,None,,,,,,,,,,,,,,,,,,,,,,,,,,,,,,,,,,,30sing,001,2023_Sep_25_1118,ProdSingRedoBetween,2021.2.3,59.951067938489864,
50,0,50,0,,,,,,,,,,,,,,,,,,,,,,,,,,427.31413149999935,None,owner,22,51,sing,yellow,425.30392909999864,None,None,425.30392909999864,None,,,,,,,,,,,,,,,,,,,,,,,,,,,,,,,,,,,30sing,001,2023_Sep_25_1118,ProdSingRedoBetween,2021.2.3,59.951067938489864,
51,0,51,0,,,,,,,,,,,,,,,,,,,,,,,,,,429.833410199999,None,thick,3,52,sing,yellow,427.82405839999956,None,None,427.82405839999956,None,,,,,,,,,,,,,,,,,,,,,,,,,,,,,,,,,,,30sing,001,2023_Sep_25_1118,ProdSingRedoBetween,2021.2.3,59.951067938489864,
52,0,52,0,,,,,,,,,,,,,,,,,,,,,,,,,,432.35245489999943,None,equipment,69,53,sing,red,430.33700150000004,None,None,430.33700150000004,None,,,,,,,,,,,,,,,,,,,,,,,,,,,,,,,,,,,30sing,001,2023_Sep_25_1118,ProdSingRedoBetween,2021.2.3,59.951067938489864,
53,0,53,0,,,,,,,,,,,,,,,,,,,,,,,,,,434.8716218999998,None,graduate,20,54,sing,yellow,432.85899339999924,None,None,432.85899339999924,None,,,,,,,,,,,,,,,,,,,,,,,,,,,,,,,,,,,30sing,001,2023_Sep_25_1118,ProdSingRedoBetween,2021.2.3,59.951067938489864,
54,0,54,0,,,,,,,,,,,,,,,,,,,,,,,,,,437.3742857999987,None,institute,14,55,sing,yellow,435.372056799999,None,None,435.372056799999,None,,,,,,,,,,,,,,,,,,,,,,,,,,,,,,,,,,,30sing,001,2023_Sep_25_1118,ProdSingRedoBetween,2021.2.3,59.951067938489864,
55,0,55,0,,,,,,,,,,,,,,,,,,,,,,,,,,439.8935356999991,None,death,60,56,sing,red,437.88083409999854,None,None,437.88083409999854,None,,,,,,,,,,,,,,,,,,,,,,,,,,,,,,,,,,,30sing,001,2023_Sep_25_1118,ProdSingRedoBetween,2021.2.3,59.951067938489864,
56,0,56,0,,,,,,,,,,,,,,,,,,,,,,,,,,442.3959847999995,None,place,46,57,sing,blue,440.3955963999997,None,None,440.3955963999997,None,,,,,,,,,,,,,,,,,,,,,,,,,,,,,,,,,,,30sing,001,2023_Sep_25_1118,ProdSingRedoBetween,2021.2.3,59.951067938489864,
57,0,57,0,,,,,,,,,,,,,,,,,,,,,,,,,,444.8984427999985,None,accident,45,58,sing,blue,442.8982820000001,None,None,442.8982820000001,None,,,,,,,,,,,,,,,,,,,,,,,,,,,,,,,,,,,30sing,001,2023_Sep_25_1118,ProdSingRedoBetween,2021.2.3,59.951067938489864,
58,0,58,0,,,,,,,,,,,,,,,,,,,,,,,,,,447.4009679999999,None,congress,72,59,sing,red,445.40125799999987,None,None,445.40125799999987,None,,,,,,,,,,,,,,,,,,,,,,,,,,,,,,,,,,,30sing,001,2023_Sep_25_1118,ProdSingRedoBetween,2021.2.3,59.951067938489864,
59,0,59,0,,,,,,,,,,,,,,,,,,,,,,,,,,449.9202387999994,None,tragedy,48,60,sing,blue,447.90598580000005,None,None,447.90598580000005,None,,,,,,,,,,,,,,,,,,,,,,,,,,,,,,,,,,,30sing,001,2023_Sep_25_1118,ProdSingRedoBetween,2021.2.3,59.951067938489864,
60,0,60,0,,,,,,,,,,,,,,,,,,,,,,,,,,452.4393046999994,None,population,85,61,sing,red,450.42507339999975,None,None,450.42507339999975,None,,,,,,,,,,,,,,,,,,,,,,,,,,,,,,,,,,,30sing,001,2023_Sep_25_1118,ProdSingRedoBetween,2021.2.3,59.951067938489864,
61,0,61,0,,,,,,,,,,,,,,,,,,,,,,,,,,454.9415947999987,None,dream,64,62,sing,red,452.9407061999991,None,None,452.9407061999991,None,,,,,,,,,,,,,,,,,,,,,,,,,,,,,,,,,,,30sing,001,2023_Sep_25_1118,ProdSingRedoBetween,2021.2.3,59.951067938489864,
62,0,62,0,,,,,,,,,,,,,,,,,,,,,,,,,,457.46104529999866,None,force,49,63,sing,blue,455.4464373999999,None,None,455.4464373999999,None,,,,,,,,,,,,,,,,,,,,,,,,,,,,,,,,,,,30sing,001,2023_Sep_25_1118,ProdSingRedoBetween,2021.2.3,59.951067938489864,
63,0,63,0,,,,,,,,,,,,,,,,,,,,,,,,,,459.98010429999886,None,industry,43,64,sing,blue,457.9656493000002,None,None,457.9656493000002,None,,,,,,,,,,,,,,,,,,,,,,,,,,,,,,,,,,,30sing,001,2023_Sep_25_1118,ProdSingRedoBetween,2021.2.3,59.951067938489864,
64,0,64,0,,,,,,,,,,,,,,,,,,,,,,,,,,462.4827919999989,None,judge,32,65,sing,blue,460.48376199999984,None,None,460.48376199999984,None,,,,,,,,,,,,,,,,,,,,,,,,,,,,,,,,,,,30sing,001,2023_Sep_25_1118,ProdSingRedoBetween,2021.2.3,59.951067938489864,
65,0,65,0,,,,,,,,,,,,,,,,,,,,,,,,,,465.00187319999895,None,capital,41,66,sing,blue,462.9863351999993,None,None,462.9863351999993,None,,,,,,,,,,,,,,,,,,,,,,,,,,,,,,,,,,,30sing,001,2023_Sep_25_1118,ProdSingRedoBetween,2021.2.3,59.951067938489864,
66,0,66,0,,,,,,,,,,,,,,,,,,,,,,,,,,467.5043580999991,None,edition,33,67,sing,blue,465.50435299999845,None,None,465.50435299999845,None,,,,,,,,,,,,,,,,,,,,,,,,,,,,,,,,,,,30sing,001,2023_Sep_25_1118,ProdSingRedoBetween,2021.2.3,59.951067938489864,
67,0,67,0,,,,,,,,,,,,,,,,,,,,,,,,,,470.0068565999991,None,bitter,59,68,sing,yellow,468.0066377999992,None,None,468.0066377999992,None,,,,,,,,,,,,,,,,,,,,,,,,,,,,,,,,,,,30sing,001,2023_Sep_25_1118,ProdSingRedoBetween,2021.2.3,59.951067938489864,
68,0,68,0,,,,,,,,,,,,,,,,,,,,,,,,,,472.50946920000024,None,leader,39,69,sing,blue,470.50813599999856,None,None,470.50813599999856,None,,,,,,,,,,,,,,,,,,,,,,,,,,,,,,,,,,,30sing,001,2023_Sep_25_1118,ProdSingRedoBetween,2021.2.3,59.951067938489864,
69,0,69,0,,,,,,,,,,,,,,,,,,,,,,,,,,475.0284987999985,None,safety,88,70,sing,red,473.0164702000002,None,None,473.0164702000002,None,,,,,,,,,,,,,,,,,,,,,,,,,,,,,,,,,,,30sing,001,2023_Sep_25_1118,ProdSingRedoBetween,2021.2.3,59.951067938489864,
70,0,70,0,,,,,,,,,,,,,,,,,,,,,,,,,,477.5309896999988,None,space,67,71,sing,red,475.52900109999973,None,None,475.52900109999973,None,,,,,,,,,,,,,,,,,,,,,,,,,,,,,,,,,,,30sing,001,2023_Sep_25_1118,ProdSingRedoBetween,2021.2.3,59.951067938489864,
71,0,71,0,,,,,,,,,,,,,,,,,,,,,,,,,,480.0336126000002,None,little,36,72,sing,blue,478.0324295999999,None,None,478.0324295999999,None,,,,,,,,,,,,,,,,,,,,,,,,,,,,,,,,,,,30sing,001,2023_Sep_25_1118,ProdSingRedoBetween,2021.2.3,59.951067938489864,
72,0,72,0,,,,,,,,,,,,,,,,,,,,,,,,,,482.552730899999,None,appearance,80,73,sing,red,480.5401579999998,None,None,480.5401579999998,None,,,,,,,,,,,,,,,,,,,,,,,,,,,,,,,,,,,30sing,001,2023_Sep_25_1118,ProdSingRedoBetween,2021.2.3,59.951067938489864,
73,0,73,0,,,,,,,,,,,,,,,,,,,,,,,,,,485.05524989999867,None,level,15,74,sing,yellow,483.05565639999986,None,None,483.05565639999986,None,,,,,,,,,,,,,,,,,,,,,,,,,,,,,,,,,,,30sing,001,2023_Sep_25_1118,ProdSingRedoBetween,2021.2.3,59.951067938489864,
74,0,74,0,,,,,,,,,,,,,,,,,,,,,,,,,,487.57435929999883,None,business,27,75,sing,yellow,485.55890029999864,None,None,485.55890029999864,None,,,,,,,,,,,,,,,,,,,,,,,,,,,,,,,,,,,30sing,001,2023_Sep_25_1118,ProdSingRedoBetween,2021.2.3,59.951067938489864,
75,0,75,0,,,,,,,,,,,,,,,,,,,,,,,,,,490.0935609999997,None,crime,8,76,sing,yellow,488.0813995999997,None,None,488.0813995999997,None,,,,,,,,,,,,,,,,,,,,,,,,,,,,,,,,,,,30sing,001,2023_Sep_25_1118,ProdSingRedoBetween,2021.2.3,59.951067938489864,
76,0,76,0,,,,,,,,,,,,,,,,,,,,,,,,,,492.5961564999998,None,prime,4,77,sing,yellow,490.59659589999865,None,None,490.59659589999865,None,,,,,,,,,,,,,,,,,,,,,,,,,,,,,,,,,,,30sing,001,2023_Sep_25_1118,ProdSingRedoBetween,2021.2.3,59.951067938489864,
77,0,77,0,,,,,,,,,,,,,,,,,,,,,,,,,,495.115325499999,None,frank,26,78,sing,yellow,493.10049439999966,None,None,493.10049439999966,None,,,,,,,,,,,,,,,,,,,,,,,,,,,,,,,,,,,30sing,001,2023_Sep_25_1118,ProdSingRedoBetween,2021.2.3,59.951067938489864,
78,0,78,0,,,,,,,,,,,,,,,,,,,,,,,,,,497.61782539999876,None,drama,23,79,sing,yellow,495.6185482000001,None,None,495.6185482000001,None,,,,,,,,,,,,,,,,,,,,,,,,,,,,,,,,,,,30sing,001,2023_Sep_25_1118,ProdSingRedoBetween,2021.2.3,59.951067938489864,
79,0,79,0,,,,,,,,,,,,,,,,,,,,,,,,,,500.12033899999915,None,vision,29,80,sing,blue,498.12031749999915,None,None,498.12031749999915,None,,,,,,,,,,,,,,,,,,,,,,,,,,,,,,,,,,,30sing,001,2023_Sep_25_1118,ProdSingRedoBetween,2021.2.3,59.951067938489864,
80,0,80,0,,,,,,,,,,,,,,,,,,,,,,,,,,502.6394242999995,None,fellow,0,81,sing,yellow,500.62910740000007,None,None,500.62910740000007,None,,,,,,,,,,,,,,,,,,,,,,,,,,,,,,,,,,,30sing,001,2023_Sep_25_1118,ProdSingRedoBetween,2021.2.3,59.951067938489864,
81,0,81,0,,,,,,,,,,,,,,,,,,,,,,,,,,505.1419685000001,None,ground,51,82,sing,blue,503.1399574999996,None,None,503.1399574999996,None,,,,,,,,,,,,,,,,,,,,,,,,,,,,,,,,,,,30sing,001,2023_Sep_25_1118,ProdSingRedoBetween,2021.2.3,59.951067938489864,
82,0,82,0,,,,,,,,,,,,,,,,,,,,,,,,,,507.6445015999998,None,motion,9,83,sing,yellow,505.64393930000006,None,None,505.64393930000006,None,,,,,,,,,,,,,,,,,,,,,,,,,,,,,,,,,,,30sing,001,2023_Sep_25_1118,ProdSingRedoBetween,2021.2.3,59.951067938489864,
83,0,83,0,,,,,,,,,,,,,,,,,,,,,,,,,,510.16367419999915,None,straight,68,84,sing,red,508.15143569999964,None,None,508.15143569999964,None,,,,,,,,,,,,,,,,,,,,,,,,,,,,,,,,,,,30sing,001,2023_Sep_25_1118,ProdSingRedoBetween,2021.2.3,59.951067938489864,
84,0,84,0,,,,,,,,,,,,,,,,,,,,,,,,,,512.6661982999995,None,gesture,71,85,sing,red,510.66683550000016,None,None,510.66683550000016,None,,,,,,,,,,,,,,,,,,,,,,,,,,,,,,,,,,,30sing,001,2023_Sep_25_1118,ProdSingRedoBetween,2021.2.3,59.951067938489864,
85,0,85,0,,,,,,,,,,,,,,,,,,,,,,,,,,515.1688159999994,None,right,28,86,sing,yellow,513.1688813000001,None,None,513.1688813000001,None,,,,,,,,,,,,,,,,,,,,,,,,,,,,,,,,,,,30sing,001,2023_Sep_25_1118,ProdSingRedoBetween,2021.2.3,59.951067938489864,
86,0,86,0,,,,,,,,,,,,,,,,,,,,,,,,,,517.6878359000002,None,murder,19,87,sing,yellow,515.6777069,None,None,515.6777069,None,,,,,,,,,,,,,,,,,,,,,,,,,,,,,,,,,,,30sing,001,2023_Sep_25_1118,ProdSingRedoBetween,2021.2.3,59.951067938489864,
87,0,87,0,,,,,,,,,,,,,,,,,,,,,,,,,,520.2069824999999,None,working,24,88,sing,yellow,518.1979023999993,None,None,518.1979023999993,None,,,,,,,,,,,,,,,,,,,,,,,,,,,,,,,,,,,30sing,001,2023_Sep_25_1118,ProdSingRedoBetween,2021.2.3,59.951067938489864,
88,0,88,0,,,,,,,,,,,,,,,,,,,,,,,,,,522.709528899999,None,reading,73,89,sing,red,520.7074788999998,None,None,520.7074788999998,None,,,,,,,,,,,,,,,,,,,,,,,,,,,,,,,,,,,30sing,001,2023_Sep_25_1118,ProdSingRedoBetween,2021.2.3,59.951067938489864,
89,0,89,0,,,,,,,,,,,,,,,,,,,,,,,,,,525.2286281999986,None,emergency,18,90,sing,yellow,523.213296599999,None,None,523.213296599999,None,,,,,,,,,,,,,,,,,,,,,,,,,,,,,,,,,,,30sing,001,2023_Sep_25_1118,ProdSingRedoBetween,2021.2.3,59.951067938489864,
,,,,,,,,,,,,,,,,,,,,,,,,,,,,,,,,,,,,,,,,,525.7293758999986,None,k,123.10733899999832,525.7293758999986,None,,,,,,,,,,,,,,,,,,,,,,,,,,,,,30sing,001,2023_Sep_25_1118,ProdSingRedoBetween,2021.2.3,59.951067938489864,
,,,,0,0,0,0,,,,,,,,,,,,,,,,,,,,,,665.5570644999989,None,,,,,,,,,,,,,,,,,revolution,17,1,sing,old,yellow,649.3606694999999,None,649.3606694999999,None,6,8.283982999999353,649.3606694999999,None,8.283982999999353,657.6632054000002,None,658.1868697999998,None,658.1868697999998,None,r,7.345960500000729,658.1868697999998,None,7.345960500000729,,,30sing,001,2023_Sep_25_1118,ProdSingRedoBetween,2021.2.3,59.951067938489864,
,,,,1,0,1,0,,,,,,,,,,,,,,,,,,,,,,672.392407899999,None,,,,,,,,,,,,,,,,,empty,52,2,sing,old,blue,666.0863019999997,None,666.0863019999997,None,6,4.078513599999496,666.0863019999997,None,4.078513599999496,670.196131499999,None,670.7086135999998,None,670.7086135999998,None,f,1.6560602000008657,670.7086135999998,None,1.6560602000008657,,,30sing,001,2023_Sep_25_1118,ProdSingRedoBetween,2021.2.3,59.951067938489864,
,,,,2,0,2,0,,,,,,,,,,,,,,,,,,,,,,681.4513900999991,None,,,,,,,,,,,,,,,,,whole,94,3,sing,new,null,672.9065972999997,None,672.9065972999997,None,2,4.010136099999727,672.9065972999997,None,4.010136099999727,676.9478356,None,677.4554039999985,None,677.4554039999985,None,n,3.9733264000005875,677.4554039999985,None,3.9733264000005875,,,30sing,001,2023_Sep_25_1118,ProdSingRedoBetween,2021.2.3,59.951067938489864,
,,,,3,0,3,0,,,,,,,,,,,,,,,,,,,,,,688.2916829999995,None,,,,,,,,,,,,,,,,,murder,19,4,sing,old,yellow,681.9612722999991,None,681.9612722999991,None,6,4.379498099999182,681.9612722999991,None,4.379498099999182,686.3597075999987,None,686.8736835,None,686.8736835,None,r,1.3950547000004008,686.8736835,None,1.3950547000004008,,,30sing,001,2023_Sep_25_1118,ProdSingRedoBetween,2021.2.3,59.951067938489864,
,,,,4,0,4,0,,,,,,,,,,,,,,,,,,,,,,692.8806705999996,None,,,,,,,,,,,,,,,,,edition,33,5,sing,old,blue,688.8013381000001,None,688.8013381000001,None,6,2.091340400000263,688.8013381000001,None,2.091340400000263,690.910880899999,None,691.4138623999988,None,691.4138623999988,None,f,1.4388849999995728,691.4138623999988,None,1.4388849999995728,,,30sing,001,2023_Sep_25_1118,ProdSingRedoBetween,2021.2.3,59.951067938489864,
,,,,5,0,5,0,,,,,,,,,,,,,,,,,,,,,,698.3348405999986,None,,,,,,,,,,,,,,,,,equipment,69,6,sing,old,red,693.3942214999988,None,693.3942214999988,None,6,3.2824944000003597,693.3942214999988,None,3.2824944000003597,696.7063204999995,None,697.2271157999985,None,697.2271157999985,None,r,1.08166859999983,697.2271157999985,None,1.08166859999983,,,30sing,001,2023_Sep_25_1118,ProdSingRedoBetween,2021.2.3,59.951067938489864,
,,,,6,0,6,0,,,,,,,,,,,,,,,,,,,,,,707.4438885,None,,,,,,,,,,,,,,,,,industry,43,7,sing,old,blue,698.8477967999988,None,698.8477967999988,None,6,2.357055299999047,698.8477967999988,None,2.357055299999047,701.2260338999986,None,701.7386155999993,None,701.7386155999993,None,r,5.6901629000003595,701.7386155999993,None,5.6901629000003595,,,30sing,001,2023_Sep_25_1118,ProdSingRedoBetween,2021.2.3,59.951067938489864,
,,,,7,0,7,0,,,,,,,,,,,,,,,,,,,,,,713.8338435999995,None,,,,,,,,,,,,,,,,,election,38,8,sing,old,blue,707.9461630999995,None,707.9461630999995,None,5,4.218713199999911,707.9461630999995,None,4.218713199999911,712.1933193999994,None,712.7022098999987,None,712.7022098999987,None,f,1.1026468000000023,712.7022098999987,None,1.1026468000000023,,,30sing,001,2023_Sep_25_1118,ProdSingRedoBetween,2021.2.3,59.951067938489864,
,,,,8,0,8,0,,,,,,,,,,,,,,,,,,,,,,718.9889606999986,None,,,,,,,,,,,,,,,,,treatment,112,9,sing,new,null,714.3387999999995,None,714.3387999999995,None,6,2.969942400000946,714.3387999999995,None,2.969942400000946,717.3381192999987,None,717.8405888999987,None,717.8405888999987,None,r,1.132144999999582,717.8405888999987,None,1.132144999999582,,,30sing,001,2023_Sep_25_1118,ProdSingRedoBetween,2021.2.3,59.951067938489864,
,,,,9,0,9,0,,,,,,,,,,,,,,,,,,,,,,725.7624481000003,None,,,,,,,,,,,,,,,,,congress,72,10,sing,old,red,719.499866099999,None,719.499866099999,None,6,1.913100099998701,719.499866099999,None,1.913100099998701,721.4501752999986,None,721.9724127999998,None,721.9724127999998,None,r,3.7603853000000527,721.9724127999998,None,3.7603853000000527,,,30sing,001,2023_Sep_25_1118,ProdSingRedoBetween,2021.2.3,59.951067938489864,
,,,,10,0,10,0,,,,,,,,,,,,,,,,,,,,,,734.5879769999992,None,,,,,,,,,,,,,,,,,cover,135,11,sing,new,null,726.2631624999995,None,726.2631624999995,None,3,5.309833400000571,726.2631624999995,None,5.309833400000571,731.6091202999996,None,732.1187923999987,None,732.1187923999987,None,n,2.4539823999984947,732.1187923999987,None,2.4539823999984947,,,30sing,001,2023_Sep_25_1118,ProdSingRedoBetween,2021.2.3,59.951067938489864,
,,,,11,0,11,0,,,,,,,,,,,,,,,,,,,,,,739.6440504999991,None,,,,,,,,,,,,,,,,,drink,97,12,sing,new,null,735.1049128999985,None,735.1049128999985,None,6,2.6520264000009774,735.1049128999985,None,2.6520264000009774,737.7850521,None,738.3003140000001,None,738.3003140000001,None,r,1.31254010000157,738.3003140000001,None,1.31254010000157,,,30sing,001,2023_Sep_25_1118,ProdSingRedoBetween,2021.2.3,59.951067938489864,
,,,,12,0,12,0,,,,,,,,,,,,,,,,,,,,,,743.2131983999989,None,,,,,,,,,,,,,,,,,frank,26,13,sing,old,yellow,740.1486294999995,None,740.1486294999995,None,6,1.9200741999993625,740.1486294999995,None,1.9200741999993625,742.0975655999991,None,742.6198910999992,None,742.6198910999992,None,r,0.5768055000007735,742.6198910999992,None,0.5768055000007735,,,30sing,001,2023_Sep_25_1118,ProdSingRedoBetween,2021.2.3,59.951067938489864,
,,,,13,0,13,0,,,,,,,,,,,,,,,,,,,,,,749.2356550999993,None,,,,,,,,,,,,,,,,,design,82,14,sing,old,red,743.7167456999996,None,743.7167456999996,None,5,3.960294399999839,743.7167456999996,None,3.960294399999839,747.7160889999996,None,748.2239145999993,None,748.2239145999993,None,f,0.9809681000006094,748.2239145999993,None,0.9809681000006094,,,30sing,001,2023_Sep_25_1118,ProdSingRedoBetween,2021.2.3,59.951067938489864,
,,,,14,0,14,0,,,,,,,,,,,,,,,,,,,,,,766.2362144999988,None,,,,,,,,,,,,,,,,,position,171,15,sing,new,null,749.7450448,None,749.7450448,None,2,13.787678600001527,749.7450448,None,13.787678600001527,763.5514616,None,764.0529446,None,764.0529446,None,n,2.159855100000641,764.0529446,None,2.159855100000641,,,30sing,001,2023_Sep_25_1118,ProdSingRedoBetween,2021.2.3,59.951067938489864,
,,,,15,0,15,0,,,,,,,,,,,,,,,,,,,,,,770.9575301999994,None,,,,,,,,,,,,,,,,,reading,73,16,sing,old,red,766.7448757999991,None,766.7448757999991,None,6,2.555887200000143,766.7448757999991,None,2.555887200000143,769.3235421999998,None,769.8291176000002,None,769.8291176000002,None,r,1.1036512999999104,769.8291176000002,None,1.1036512999999104,,,30sing,001,2023_Sep_25_1118,ProdSingRedoBetween,2021.2.3,59.951067938489864,
,,,,16,0,16,0,,,,,,,,,,,,,,,,,,,,,,775.3793995999986,None,,,,,,,,,,,,,,,,,right,28,17,sing,old,yellow,771.4672629999986,None,771.4672629999986,None,6,2.7855342000002565,771.4672629999986,None,2.7855342000002565,774.2807125999989,None,774.7970752000001,None,774.7970752000001,None,r,0.5517049000009138,774.7970752000001,None,0.5517049000009138,,,30sing,001,2023_Sep_25_1118,ProdSingRedoBetween,2021.2.3,59.951067938489864,
,,,,17,0,17,0,,,,,,,,,,,,,,,,,,,,,,779.6514634999985,None,,,,,,,,,,,,,,,,,leader,39,18,sing,old,blue,775.8885166,None,775.8885166,None,6,2.6044234999990294,775.8885166,None,2.6044234999990294,778.5250359999991,None,779.0352729999995,None,779.0352729999995,None,r,0.59354440000061,779.0352729999995,None,0.59354440000061,,,30sing,001,2023_Sep_25_1118,ProdSingRedoBetween,2021.2.3,59.951067938489864,
,,,,18,0,18,0,,,,,,,,,,,,,,,,,,,,,,801.1235318999989,None,,,,,,,,,,,,,,,,,mankind,134,19,sing,new,null,780.1761944999998,None,780.1761944999998,None,1,19.21271970000089,780.1761944999998,None,19.21271970000089,799.4289935999986,None,799.9414098999987,None,799.9414098999987,None,n,1.1515509000000748,799.9414098999987,None,1.1515509000000748,,,30sing,001,2023_Sep_25_1118,ProdSingRedoBetween,2021.2.3,59.951067938489864,
,,,,19,0,19,0,,,,,,,,,,,,,,,,,,,,,,805.2762514999995,None,,,,,,,,,,,,,,,,,straight,68,20,sing,old,red,801.6390431999989,None,801.6390431999989,None,6,2.4300731000002997,801.6390431999989,None,2.4300731000002997,804.0981933999992,None,804.6141651999988,None,804.6141651999988,None,r,0.6307035000008909,804.6141651999988,None,0.6307035000008909,,,30sing,001,2023_Sep_25_1118,ProdSingRedoBetween,2021.2.3,59.951067938489864,
,,,,20,0,20,0,,,,,,,,,,,,,,,,,,,,,,809.0468271999998,None,,,,,,,,,,,,,,,,,charter,98,21,sing,new,null,805.7800267000002,None,805.7800267000002,None,1,1.6411191999995935,805.7800267000002,None,1.6411191999995935,807.4531197999986,None,807.9614185999999,None,807.9614185999999,None,n,1.067390999998679,807.9614185999999,None,1.067390999998679,,,30sing,001,2023_Sep_25_1118,ProdSingRedoBetween,2021.2.3,59.951067938489864,
,,,,21,0,21,0,,,,,,,,,,,,,,,,,,,,,,812.9329803,None,,,,,,,,,,,,,,,,,individual,154,22,sing,new,null,809.5590047999995,None,809.5590047999995,None,6,2.261778400001276,809.5590047999995,None,2.261778400001276,811.8514194999989,None,812.3658161999992,None,812.3658161999992,None,r,0.5430328999991616,812.3658161999992,None,0.5430328999991616,,,30sing,001,2023_Sep_25_1118,ProdSingRedoBetween,2021.2.3,59.951067938489864,
,,,,22,0,22,0,,,,,,,,,,,,,,,,,,,,,,821.6256445999989,None,,,,,,,,,,,,,,,,,entrance,42,23,sing,old,blue,813.4365564,None,813.4365564,None,2,5.776452099999005,813.4365564,None,5.776452099999005,819.2548365000002,None,819.7608162999986,None,819.7608162999986,None,n,1.8440200000004552,819.7608162999986,None,1.8440200000004552,,,30sing,001,2023_Sep_25_1118,ProdSingRedoBetween,2021.2.3,59.951067938489864,
,,,,23,0,23,0,,,,,,,,,,,,,,,,,,,,,,830.9342545,None,,,,,,,,,,,,,,,,,junior,120,24,sing,new,null,822.1284713999994,None,822.1284713999994,None,3,6.5884685999990324,822.1284713999994,None,6.5884685999990324,828.742310399999,None,829.2494183999988,None,829.2494183999988,None,n,1.6673492999998416,829.2494183999988,None,1.6673492999998416,,,30sing,001,2023_Sep_25_1118,ProdSingRedoBetween,2021.2.3,59.951067938489864,
,,,,24,0,24,0,,,,,,,,,,,,,,,,,,,,,,836.6566165999993,None,,,,,,,,,,,,,,,,,youth,150,25,sing,new,null,831.4452055999991,None,831.4452055999991,None,4,3.1436233000003995,831.4452055999991,None,3.1436233000003995,834.6076757999999,None,835.1297433,None,835.1297433,None,f,1.4990116999997554,835.1297433,None,1.4990116999997554,,,30sing,001,2023_Sep_25_1118,ProdSingRedoBetween,2021.2.3,59.951067938489864,
,,,,25,0,25,0,,,,,,,,,,,,,,,,,,,,,,840.493779299999,None,,,,,,,,,,,,,,,,,sound,93,26,sing,new,null,837.1674923999999,None,837.1674923999999,None,6,2.221343100000013,837.1674923999999,None,2.221343100000013,839.4130256999997,None,839.9267531999994,None,839.9267531999994,None,r,0.5501100000001315,839.9267531999994,None,0.5501100000001315,,,30sing,001,2023_Sep_25_1118,ProdSingRedoBetween,2021.2.3,59.951067938489864,
,,,,26,0,26,0,,,,,,,,,,,,,,,,,,,,,,844.286548099999,None,,,,,,,,,,,,,,,,,length,121,27,sing,new,null,841.0004518999995,None,841.0004518999995,None,1,1.8043976000008115,841.0004518999995,None,1.8043976000008115,842.8316657999985,None,843.3550342999988,None,843.3550342999988,None,n,0.9060319000000163,843.3550342999988,None,0.9060319000000163,,,30sing,001,2023_Sep_25_1118,ProdSingRedoBetween,2021.2.3,59.951067938489864,
,,,,27,0,27,0,,,,,,,,,,,,,,,,,,,,,,848.9356350999988,None,,,,,,,,,,,,,,,,,partner,58,28,sing,old,blue,844.8084049999998,None,844.8084049999998,None,6,3.044540099999722,844.8084049999998,None,3.044540099999722,847.8790886999996,None,848.3869140999996,None,848.3869140999996,None,r,0.5299799000003986,848.3869140999996,None,0.5299799000003986,,,30sing,001,2023_Sep_25_1118,ProdSingRedoBetween,2021.2.3,59.951067938489864,
,,,,28,0,28,0,,,,,,,,,,,,,,,,,,,,,,855.8112375000001,None,,,,,,,,,,,,,,,,,agreement,103,29,sing,new,null,849.4452700000002,None,849.4452700000002,None,1,4.84759639999902,849.4452700000002,None,4.84759639999902,854.3261231999986,None,854.8480761999999,None,854.8480761999999,None,n,0.9329201999989891,854.8480761999999,None,0.9329201999989891,,,30sing,001,2023_Sep_25_1118,ProdSingRedoBetween,2021.2.3,59.951067938489864,
,,,,29,0,29,0,,,,,,,,,,,,,,,,,,,,,,862.4990667000002,None,,,,,,,,,,,,,,,,,drove,148,30,sing,new,null,856.3308713999995,None,856.3308713999995,None,3,4.6579676999990625,856.3308713999995,None,4.6579676999990625,861.0156294999997,None,861.5194993999994,None,861.5194993999994,None,n,0.9573252999998658,861.5194993999994,None,0.9573252999998658,,,30sing,001,2023_Sep_25_1118,ProdSingRedoBetween,2021.2.3,59.951067938489864,
,,,,30,0,30,0,,,,,,,,,,,,,,,,,,,,,,868.9222123999989,None,,,,,,,,,,,,,,,,,production,91,31,sing,new,null,863.0093999000001,None,863.0093999000001,None,6,4.667348599999968,863.0093999000001,None,4.667348599999968,867.7052456999991,None,868.2089574999991,None,868.2089574999991,None,r,0.68389709999974,868.2089574999991,None,0.68389709999974,,,30sing,001,2023_Sep_25_1118,ProdSingRedoBetween,2021.2.3,59.951067938489864,
,,,,31,0,31,0,,,,,,,,,,,,,,,,,,,,,,874.7279574999993,None,,,,,,,,,,,,,,,,,hearing,159,32,sing,new,null,869.432128299999,None,869.432128299999,None,4,3.25272650000079,869.432128299999,None,3.25272650000079,872.7164336999995,None,873.2304604000001,None,873.2304604000001,None,f,1.4783962000001338,873.2304604000001,None,1.4783962000001338,,,30sing,001,2023_Sep_25_1118,ProdSingRedoBetween,2021.2.3,59.951067938489864,
,,,,32,0,32,0,,,,,,,,,,,,,,,,,,,,,,881.1008353999987,None,,,,,,,,,,,,,,,,,institute,14,33,sing,old,yellow,875.2451188999985,None,875.2451188999985,None,6,4.223755000000892,875.2451188999985,None,4.223755000000892,879.5059717999993,None,880.0200511999992,None,880.0200511999992,None,r,1.056838600001356,880.0200511999992,None,1.056838600001356,,,30sing,001,2023_Sep_25_1118,ProdSingRedoBetween,2021.2.3,59.951067938489864,
,,,,33,0,33,0,,,,,,,,,,,,,,,,,,,,,,885.1262014999993,None,,,,,,,,,,,,,,,,,front,47,34,sing,old,blue,881.6150123999996,None,881.6150123999996,None,6,2.0617726000000403,881.6150123999996,None,2.0617726000000403,883.704388099999,None,884.2094007999985,None,884.2094007999985,None,r,0.8836264999990817,884.2094007999985,None,0.8836264999990817,,,30sing,001,2023_Sep_25_1118,ProdSingRedoBetween,2021.2.3,59.951067938489864,
,,,,34,0,34,0,,,,,,,,,,,,,,,,,,,,,,891.4994537000002,None,,,,,,,,,,,,,,,,,ground,51,35,sing,old,blue,885.6429981000001,None,885.6429981000001,None,6,2.977864000000409,885.6429981000001,None,2.977864000000409,888.6443610999995,None,889.1643625999986,None,889.1643625999986,None,f,2.3046791999986453,889.1643625999986,None,2.3046791999986453,,,30sing,001,2023_Sep_25_1118,ProdSingRedoBetween,2021.2.3,59.951067938489864,
,,,,35,0,35,0,,,,,,,,,,,,,,,,,,,,,,901.9070242999987,None,,,,,,,,,,,,,,,,,member,151,36,sing,new,null,892.0128731999994,None,892.0128731999994,None,2,7.704061500000535,892.0128731999994,None,7.704061500000535,899.7474664000001,None,900.2537176999995,None,900.2537176999995,None,n,1.631271000000197,900.2537176999995,None,1.631271000000197,,,30sing,001,2023_Sep_25_1118,ProdSingRedoBetween,2021.2.3,59.951067938489864,
,,,,36,0,36,0,,,,,,,,,,,,,,,,,,,,,,907.1602543999998,None,,,,,,,,,,,,,,,,,search,7,37,sing,old,yellow,902.4329096000001,None,902.4329096000001,None,5,3.0199666999997135,902.4329096000001,None,3.0199666999997135,905.4832428999998,None,905.9941397000002,None,905.9941397000002,None,f,1.1467233999992459,905.9941397000002,None,1.1467233999992459,,,30sing,001,2023_Sep_25_1118,ProdSingRedoBetween,2021.2.3,59.951067938489864,
,,,,37,0,37,0,,,,,,,,,,,,,,,,,,,,,,912.5004020999986,None,,,,,,,,,,,,,,,,,speech,84,38,sing,old,red,907.6660166999991,None,907.6660166999991,None,6,2.69886360000055,907.6660166999991,None,2.69886360000055,910.3837327000001,None,910.8978396999992,None,910.8978396999992,None,r,1.571084699999119,910.8978396999992,None,1.571084699999119,,,30sing,001,2023_Sep_25_1118,ProdSingRedoBetween,2021.2.3,59.951067938489864,
,,,,38,0,38,0,,,,,,,,,,,,,,,,,,,,,,926.5297851999985,None,,,,,,,,,,,,,,,,,incident,12,39,sing,old,yellow,913.0030264999987,None,913.0030264999987,None,3,11.978038799999922,913.0030264999987,None,11.978038799999922,925.0175471000002,None,925.5311934999991,None,925.5311934999991,None,f,0.9776858000004722,925.5311934999991,None,0.9776858000004722,,,30sing,001,2023_Sep_25_1118,ProdSingRedoBetween,2021.2.3,59.951067938489864,
,,,,39,0,39,0,,,,,,,,,,,,,,,,,,,,,,931.8517262999994,None,,,,,,,,,,,,,,,,,graduate,20,40,sing,old,yellow,927.0333763999988,None,927.0333763999988,None,6,3.251523000000816,927.0333763999988,None,3.251523000000816,930.303643199999,None,930.8175441999992,None,930.8175441999992,None,r,1.0112382999996044,930.8175441999992,None,1.0112382999996044,,,30sing,001,2023_Sep_25_1118,ProdSingRedoBetween,2021.2.3,59.951067938489864,
,,,,40,0,40,0,,,,,,,,,,,,,,,,,,,,,,943.763735999999,None,,,,,,,,,,,,,,,,,safety,88,41,sing,old,red,932.3643166000002,None,932.3643166000002,None,3,8.12849759999881,932.3643166000002,None,8.12849759999881,940.5115193999991,None,941.0155249999989,None,941.0155249999989,None,f,2.7173296000000846,941.0155249999989,None,2.7173296000000846,,,30sing,001,2023_Sep_25_1118,ProdSingRedoBetween,2021.2.3,59.951067938489864,
,,,,41,0,41,0,,,,,,,,,,,,,,,,,,,,,,948.8687400999988,None,,,,,,,,,,,,,,,,,listen,10,42,sing,old,yellow,944.2669293999988,None,944.2669293999988,None,6,3.729946400000699,944.2669293999988,None,3.729946400000699,948.0190569999995,None,948.5287754000001,None,948.5287754000001,None,r,0.32405910000125004,948.5287754000001,None,0.32405910000125004,,,30sing,001,2023_Sep_25_1118,ProdSingRedoBetween,2021.2.3,59.951067938489864,
,,,,42,0,42,0,,,,,,,,,,,,,,,,,,,,,,955.008206999999,None,,,,,,,,,,,,,,,,,drama,23,43,sing,old,yellow,949.3785025999987,None,949.3785025999987,None,6,4.818420199999309,949.3785025999987,None,4.818420199999309,954.2270149999986,None,954.7435975999997,None,954.7435975999997,None,r,0.2372293999997055,954.7435975999997,None,0.2372293999997055,,,30sing,001,2023_Sep_25_1118,ProdSingRedoBetween,2021.2.3,59.951067938489864,
,,,,43,0,43,0,,,,,,,,,,,,,,,,,,,,,,962.4655067999993,None,,,,,,,,,,,,,,,,,impact,86,44,sing,old,red,955.5268061999996,None,955.5268061999996,None,6,6.302068500001042,955.5268061999996,None,6.302068500001042,961.8512501999994,None,962.3680092999984,None,962.3680092999984,None,r,0.07691700000032142,962.3680092999984,None,0.07691700000032142,,,30sing,001,2023_Sep_25_1118,ProdSingRedoBetween,2021.2.3,59.951067938489864,
,,,,44,0,44,0,,,,,,,,,,,,,,,,,,,,,,967.7877727999985,None,,,,,,,,,,,,,,,,,recall,101,45,sing,new,null,962.9733448999996,None,962.9733448999996,None,1,2.719517099998484,962.9733448999996,None,2.719517099998484,965.7218252999992,None,966.2406697999995,None,966.2406697999995,None,n,1.5241860000005545,966.2406697999995,None,1.5241860000005545,,,30sing,001,2023_Sep_25_1118,ProdSingRedoBetween,2021.2.3,59.951067938489864,
,,,,45,0,45,0,,,,,,,,,,,,,,,,,,,,,,974.1106679999994,None,,,,,,,,,,,,,,,,,month,83,46,sing,old,red,968.3075314999987,None,968.3075314999987,None,5,4.3053710000003775,968.3075314999987,None,4.3053710000003775,972.6431761999993,None,973.1484598999996,None,973.1484598999996,None,f,0.9443508000003931,973.1484598999996,None,0.9443508000003931,,,30sing,001,2023_Sep_25_1118,ProdSingRedoBetween,2021.2.3,59.951067938489864,
,,,,46,0,46,0,,,,,,,,,,,,,,,,,,,,,,978.3852381999986,None,,,,,,,,,,,,,,,,,theme,143,47,sing,new,null,974.6173189000001,None,974.6173189000001,None,4,2.8676061999995,974.6173189000001,None,2.8676061999995,977.5147284999985,None,978.0168857999997,None,978.0168857999997,None,f,0.34816610000052606,978.0168857999997,None,0.34816610000052606,,,30sing,001,2023_Sep_25_1118,ProdSingRedoBetween,2021.2.3,59.951067938489864,
,,,,47,0,47,0,,,,,,,,,,,,,,,,,,,,,,981.9393459999992,None,,,,,,,,,,,,,,,,,fashion,37,48,sing,old,blue,978.905528199999,None,978.905528199999,None,6,2.1873559999985446,978.905528199999,None,2.1873559999985446,981.1217096,None,981.6406693999998,None,981.6406693999998,None,r,0.2763489999997546,981.6406693999998,None,0.2763489999997546,,,30sing,001,2023_Sep_25_1118,ProdSingRedoBetween,2021.2.3,59.951067938489864,
,,,,48,0,48,0,,,,,,,,,,,,,,,,,,,,,,985.3563180000001,None,,,,,,,,,,,,,,,,,expansion,137,49,sing,new,null,982.4574992999987,None,982.4574992999987,None,1,1.8193420000006881,982.4574992999987,None,1.8193420000006881,984.3051416999988,None,984.809697499999,None,984.809697499999,None,n,0.5152421000002505,984.809697499999,None,0.5152421000002505,,,30sing,001,2023_Sep_25_1118,ProdSingRedoBetween,2021.2.3,59.951067938489864,
,,,,49,0,49,0,,,,,,,,,,,,,,,,,,,,,,989.3426901999992,None,,,,,,,,,,,,,,,,,budget,110,50,sing,new,null,985.8601257999999,None,985.8601257999999,None,1,1.936882500000138,985.8601257999999,None,1.936882500000138,987.8322988,None,988.3453534,None,988.3453534,None,n,0.9715565999995306,988.3453534,None,0.9715565999995306,,,30sing,001,2023_Sep_25_1118,ProdSingRedoBetween,2021.2.3,59.951067938489864,
,,,,50,0,50,0,,,,,,,,,,,,,,,,,,,,,,993.2505906999995,None,,,,,,,,,,,,,,,,,victory,5,51,sing,old,yellow,989.8518777999998,None,989.8518777999998,None,4,2.4492006999989826,989.8518777999998,None,2.4492006999989826,992.3388992,None,992.8471942999986,None,992.8471942999986,None,f,0.3737877000003209,992.8471942999986,None,0.3737877000003209,,,30sing,001,2023_Sep_25_1118,ProdSingRedoBetween,2021.2.3,59.951067938489864,
,,,,51,0,51,0,,,,,,,,,,,,,,,,,,,,,,997.6043239999999,None,,,,,,,,,,,,,,,,,executive,157,52,sing,new,null,993.7738079999999,None,993.7738079999999,None,1,2.2631567000007635,993.7738079999999,None,2.2631567000007635,996.0679970000001,None,996.5866736999997,None,996.5866736999997,None,n,0.9864216000005399,996.5866736999997,None,0.9864216000005399,,,30sing,001,2023_Sep_25_1118,ProdSingRedoBetween,2021.2.3,59.951067938489864,
,,,,52,0,52,0,,,,,,,,,,,,,,,,,,,,,,1000.6038481999985,None,,,,,,,,,,,,,,,,,oxygen,90,53,sing,new,null,998.1293028,None,998.1293028,None,1,1.5474850999999035,998.1293028,None,1.5474850999999035,999.706005099999,None,1000.2290529999991,None,1000.2290529999991,None,n,0.3517815999985032,1000.2290529999991,None,0.3517815999985032,,,30sing,001,2023_Sep_25_1118,ProdSingRedoBetween,2021.2.3,59.951067938489864,
,,,,53,0,53,0,,,,,,,,,,,,,,,,,,,,,,1004.0239803999993,None,,,,,,,,,,,,,,,,,working,24,54,sing,old,yellow,1001.1192568999995,None,1001.1192568999995,None,6,2.09356359999947,1001.1192568999995,None,2.09356359999947,1003.2439564999986,None,1003.7656720999985,None,1003.7656720999985,None,r,0.2312115000004269,1003.7656720999985,None,0.2312115000004269,,,30sing,001,2023_Sep_25_1118,ProdSingRedoBetween,2021.2.3,59.951067938489864,
,,,,54,0,54,0,,,,,,,,,,,,,,,,,,,,,,1007.8644385999996,None,,,,,,,,,,,,,,,,,break,81,55,sing,old,red,1004.5338132999987,None,1004.5338132999987,None,6,1.9670454999995854,1004.5338132999987,None,1.9670454999995854,1006.5302942999988,None,1007.0556676999986,None,1007.0556676999986,None,r,0.7814234999987093,1007.0556676999986,None,0.7814234999987093,,,30sing,001,2023_Sep_25_1118,ProdSingRedoBetween,2021.2.3,59.951067938489864,
,,,,55,0,55,0,,,,,,,,,,,,,,,,,,,,,,1033.1403077999985,None,,,,,,,,,,,,,,,,,period,125,56,sing,new,null,1008.3855691999997,None,1008.3855691999997,None,3,22.595432500000243,1008.3855691999997,None,22.595432500000243,1031.0062514,None,1031.5206447,None,1031.5206447,None,n,1.596397799999977,1031.5206447,None,1.596397799999977,,,30sing,001,2023_Sep_25_1118,ProdSingRedoBetween,2021.2.3,59.951067938489864,
,,,,56,0,56,0,,,,,,,,,,,,,,,,,,,,,,1037.4579754999995,None,,,,,,,,,,,,,,,,,addition,99,57,sing,new,null,1033.6545566999994,None,1033.6545566999994,None,4,2.3666126000007353,1033.6545566999994,None,2.3666126000007353,1036.046424799999,None,1036.5566031999988,None,1036.5566031999988,None,f,0.8724019000001135,1036.5566031999988,None,0.8724019000001135,,,30sing,001,2023_Sep_25_1118,ProdSingRedoBetween,2021.2.3,59.951067938489864,
,,,,57,0,57,0,,,,,,,,,,,,,,,,,,,,,,1041.0512335999993,None,,,,,,,,,,,,,,,,,fight,146,58,sing,new,null,1037.9703690999995,None,1037.9703690999995,None,6,2.2425294000004214,1037.9703690999995,None,2.2425294000004214,1040.2450970999998,None,1040.7607441,None,1040.7607441,None,r,0.26826379999874916,1040.7607441,None,0.26826379999874916,,,30sing,001,2023_Sep_25_1118,ProdSingRedoBetween,2021.2.3,59.951067938489864,
,,,,58,0,58,0,,,,,,,,,,,,,,,,,,,,,,1044.0973397999987,None,,,,,,,,,,,,,,,,,force,49,59,sing,old,blue,1041.5656063999995,None,1041.5656063999995,None,6,1.5753488999998808,1041.5656063999995,None,1.5753488999998808,1043.1652478999986,None,1043.6803642999985,None,1043.6803642999985,None,r,0.38857719999941764,1043.6803642999985,None,0.38857719999941764,,,30sing,001,2023_Sep_25_1118,ProdSingRedoBetween,2021.2.3,59.951067938489864,
,,,,59,0,59,0,,,,,,,,,,,,,,,,,,,,,,1047.5017499999994,None,,,,,,,,,,,,,,,,,comfort,74,60,sing,old,red,1044.6082023999988,None,1044.6082023999988,None,6,2.0527302999998938,1044.6082023999988,None,2.0527302999998938,1046.690394199999,None,1047.2046409999984,None,1047.2046409999984,None,r,0.2723241000003327,1047.2046409999984,None,0.2723241000003327,,,30sing,001,2023_Sep_25_1118,ProdSingRedoBetween,2021.2.3,59.951067938489864,
,,,,60,0,60,0,,,,,,,,,,,,,,,,,,,,,,1050.6372358999997,None,,,,,,,,,,,,,,,,,point,78,61,sing,old,red,1048.0163800999999,None,1048.0163800999999,None,6,2.012751800000842,1048.0163800999999,None,2.012751800000842,1050.0544701,None,1050.5583394999994,None,1050.5583394999994,None,r,0.06267330000082438,1050.5583394999994,None,0.06267330000082438,,,30sing,001,2023_Sep_25_1118,ProdSingRedoBetween,2021.2.3,59.951067938489864,
,,,,61,0,61,0,,,,,,,,,,,,,,,,,,,,,,1056.6766382999995,None,,,,,,,,,,,,,,,,,exchange,116,62,sing,new,null,1051.1513027,None,1051.1513027,None,1,3.8455794000001333,1051.1513027,None,3.8455794000001333,1055.0257665999998,None,1055.529265199999,None,1055.529265199999,None,n,1.1316305000000284,1055.529265199999,None,1.1316305000000284,,,30sing,001,2023_Sep_25_1118,ProdSingRedoBetween,2021.2.3,59.951067938489864,
,,,,62,0,62,0,,,,,,,,,,,,,,,,,,,,,,1060.6472612999987,None,,,,,,,,,,,,,,,,,capital,41,63,sing,old,blue,1057.1925945999992,None,1057.1925945999992,None,3,2.516426500000307,1057.1925945999992,None,2.516426500000307,1059.737708999999,None,1060.2468823,None,1060.2468823,None,n,0.3819736000004923,1060.2468823,None,0.3819736000004923,,,30sing,001,2023_Sep_25_1118,ProdSingRedoBetween,2021.2.3,59.951067938489864,
,,,,63,0,63,0,,,,,,,,,,,,,,,,,,,,,,1065.3710252,None,,,,,,,,,,,,,,,,,cousin,6,64,sing,old,yellow,1061.1548576999994,None,1061.1548576999994,None,3,2.1061480999997,1061.1548576999994,None,2.1061480999997,1063.2878266999996,None,1063.8004420999987,None,1063.8004420999987,None,n,1.5406551000014588,1063.8004420999987,None,1.5406551000014588,,,30sing,001,2023_Sep_25_1118,ProdSingRedoBetween,2021.2.3,59.951067938489864,
,,,,64,0,64,0,,,,,,,,,,,,,,,,,,,,,,1070.7238923999994,None,,,,,,,,,,,,,,,,,command,54,65,sing,old,blue,1065.8908009999996,None,1065.8908009999996,None,1,3.610196799998448,1065.8908009999996,None,3.610196799998448,1069.5255309999993,None,1070.0404204999995,None,1070.0404204999995,None,n,0.6685192999993887,1070.0404204999995,None,0.6685192999993887,,,30sing,001,2023_Sep_25_1118,ProdSingRedoBetween,2021.2.3,59.951067938489864,
,,,,65,0,65,0,,,,,,,,,,,,,,,,,,,,,,1075.4137169999995,None,,,,,,,,,,,,,,,,,judge,32,66,sing,old,blue,1071.2336739000002,None,1071.2336739000002,None,6,1.7873288999999204,1071.2336739000002,None,1.7873288999999204,1073.0480019999995,None,1073.559905099999,None,1073.559905099999,None,r,1.8290622000004078,1073.559905099999,None,1.8290622000004078,,,30sing,001,2023_Sep_25_1118,ProdSingRedoBetween,2021.2.3,59.951067938489864,
,,,,66,0,66,0,,,,,,,,,,,,,,,,,,,,,,1080.0666337999992,None,,,,,,,,,,,,,,,,,distance,57,67,sing,old,blue,1075.9455765999992,None,1075.9455765999992,None,2,2.9795467000003555,1075.9455765999992,None,2.9795467000003555,1078.9603351999995,None,1079.4688055999995,None,1079.4688055999995,None,n,0.5761255999987043,1079.4688055999995,None,0.5761255999987043,,,30sing,001,2023_Sep_25_1118,ProdSingRedoBetween,2021.2.3,59.951067938489864,
,,,,67,0,67,0,,,,,,,,,,,,,,,,,,,,,,1083.9538403999995,None,,,,,,,,,,,,,,,,,patient,126,68,sing,new,null,1080.5765324999993,None,1080.5765324999993,None,5,1.9806688000007853,1080.5765324999993,None,1.9806688000007853,1082.5950801999988,None,1083.1031911999999,None,1083.1031911999999,None,f,0.8297342999994726,1083.1031911999999,None,0.8297342999994726,,,30sing,001,2023_Sep_25_1118,ProdSingRedoBetween,2021.2.3,59.951067938489864,
,,,,68,0,68,0,,,,,,,,,,,,,,,,,,,,,,1088.4418059,None,,,,,,,,,,,,,,,,,fellow,0,69,sing,old,yellow,1084.4643932,None,1084.4643932,None,1,2.3165537000004406,1084.4643932,None,2.3165537000004406,1086.8079109999999,None,1087.3144396999996,None,1087.3144396999996,None,n,1.1065679999992426,1087.3144396999996,None,1.1065679999992426,,,30sing,001,2023_Sep_25_1118,ProdSingRedoBetween,2021.2.3,59.951067938489864,
,,,,69,0,69,0,,,,,,,,,,,,,,,,,,,,,,1099.2356894999994,None,,,,,,,,,,,,,,,,,color,119,70,sing,new,null,1088.9507920999986,None,1088.9507920999986,None,6,5.9101541,1088.9507920999986,None,5.9101541,1094.8811744999985,None,1095.3945174,None,1095.3945174,None,r,3.810434000000896,1095.3945174,None,3.810434000000896,,,30sing,001,2023_Sep_25_1118,ProdSingRedoBetween,2021.2.3,59.951067938489864,
,,,,70,0,70,0,,,,,,,,,,,,,,,,,,,,,,1109.3291616999995,None,,,,,,,,,,,,,,,,,second,173,71,sing,new,null,1099.739163799999,None,1099.739163799999,None,3,8.545878199998697,1099.739163799999,None,8.545878199998697,1108.3169775999995,None,1108.8302351999992,None,1108.8302351999992,None,f,0.47878379999929166,1108.8302351999992,None,0.47878379999929166,,,30sing,001,2023_Sep_25_1118,ProdSingRedoBetween,2021.2.3,59.951067938489864,
,,,,71,0,71,0,,,,,,,,,,,,,,,,,,,,,,1112.2487462999998,None,,,,,,,,,,,,,,,,,republic,109,72,sing,new,null,1109.8459980999996,None,1109.8459980999996,None,1,1.4950363999996625,1109.8459980999996,None,1.4950363999996625,1111.370614899999,None,1111.8849776999996,None,1111.8849776999996,None,n,0.33599879999928817,1111.8849776999996,None,0.33599879999928817,,,30sing,001,2023_Sep_25_1118,ProdSingRedoBetween,2021.2.3,59.951067938489864,
,,,,72,0,72,0,,,,,,,,,,,,,,,,,,,,,,1116.569732,None,,,,,,,,,,,,,,,,,passage,66,73,sing,old,red,1112.7600607999993,None,1112.7600607999993,None,5,3.18899330000022,1112.7600607999993,None,3.18899330000022,1115.9781250999986,None,1116.4885838999999,None,1116.4885838999999,None,f,0.06040440000106173,1116.4885838999999,None,0.06040440000106173,,,30sing,001,2023_Sep_25_1118,ProdSingRedoBetween,2021.2.3,59.951067938489864,
,,,,73,0,73,0,,,,,,,,,,,,,,,,,,,,,,1124.3117989000002,None,,,,,,,,,,,,,,,,,account,139,74,sing,new,null,1117.0771303000001,None,1117.0771303000001,None,1,6.247708400000192,1117.0771303000001,None,6.247708400000192,1123.3442587999998,None,1123.849496499999,None,1123.849496499999,None,n,0.44343950000074983,1123.849496499999,None,0.44343950000074983,,,30sing,001,2023_Sep_25_1118,ProdSingRedoBetween,2021.2.3,59.951067938489864,
,,,,74,0,74,0,,,,,,,,,,,,,,,,,,,,,,1128.7360771999993,None,,,,,,,,,,,,,,,,,finish,31,75,sing,old,blue,1124.8238302999998,None,1124.8238302999998,None,6,1.693175300000803,1124.8238302999998,None,1.693175300000803,1126.5495961999986,None,1127.0716131999998,None,1127.0716131999998,None,r,1.6455306999996537,1127.0716131999998,None,1.6455306999996537,,,30sing,001,2023_Sep_25_1118,ProdSingRedoBetween,2021.2.3,59.951067938489864,
,,,,75,0,75,0,,,,,,,,,,,,,,,,,,,,,,1136.5228278999984,None,,,,,,,,,,,,,,,,,strength,132,76,sing,new,null,1129.2576788999995,None,1129.2576788999995,None,4,6.235376099999485,1129.2576788999995,None,6.235376099999485,1135.525927499999,None,1136.0432822000002,None,1136.0432822000002,None,f,0.45773189999999886,1136.0432822000002,None,0.45773189999999886,,,30sing,001,2023_Sep_25_1118,ProdSingRedoBetween,2021.2.3,59.951067938489864,
,,,,76,0,76,0,,,,,,,,,,,,,,,,,,,,,,1143.296479499999,None,,,,,,,,,,,,,,,,,alert,76,77,sing,old,red,1137.0411760999996,None,1137.0411760999996,None,1,4.563841999999568,1137.0411760999996,None,4.563841999999568,1141.6327609,None,1142.1472445,None,1142.1472445,None,n,1.1297343999995064,1142.1472445,None,1.1297343999995064,,,30sing,001,2023_Sep_25_1118,ProdSingRedoBetween,2021.2.3,59.951067938489864,
,,,,77,0,77,0,,,,,,,,,,,,,,,,,,,,,,1164.0172464999996,None,,,,,,,,,,,,,,,,,dream,64,78,sing,old,red,1143.8051840999997,None,1143.8051840999997,None,3,18.727756300000692,1143.8051840999997,None,18.727756300000692,1162.5536500999988,None,1163.0663643999997,None,1163.0663643999997,None,f,0.9306042999996862,1163.0663643999997,None,0.9306042999996862,,,30sing,001,2023_Sep_25_1118,ProdSingRedoBetween,2021.2.3,59.951067938489864,
,,,,78,0,78,0,,,,,,,,,,,,,,,,,,,,,,1170.556821099999,None,,,,,,,,,,,,,,,,,author,25,79,sing,old,yellow,1164.5326096999997,None,1164.5326096999997,None,5,5.120375799999238,1164.5326096999997,None,5.120375799999238,1169.6763211999987,None,1170.1902226000002,None,1170.1902226000002,None,f,0.3428319999984524,1170.1902226000002,None,0.3428319999984524,,,30sing,001,2023_Sep_25_1118,ProdSingRedoBetween,2021.2.3,59.951067938489864,
,,,,79,0,79,0,,,,,,,,,,,,,,,,,,,,,,1176.179333099999,None,,,,,,,,,,,,,,,,,place,46,80,sing,old,blue,1171.0700123999995,None,1171.0700123999995,None,6,3.302973600000769,1171.0700123999995,None,3.302973600000769,1174.3985912999997,None,1174.9120797999985,None,1174.9120797999985,None,r,1.2448865999995178,1174.9120797999985,None,1.2448865999995178,,,30sing,001,2023_Sep_25_1118,ProdSingRedoBetween,2021.2.3,59.951067938489864,
,,,,80,0,80,0,,,,,,,,,,,,,,,,,,,,,,1182.2879149,None,,,,,,,,,,,,,,,,,union,30,81,sing,old,blue,1176.6933515,None,1176.6933515,None,5,4.719697299999098,1176.6933515,None,4.719697299999098,1181.4369419999985,None,1181.9596734999996,None,1181.9596734999996,None,f,0.30966429999898537,1181.9596734999996,None,0.30966429999898537,,,30sing,001,2023_Sep_25_1118,ProdSingRedoBetween,2021.2.3,59.951067938489864,
,,,,81,0,81,0,,,,,,,,,,,,,,,,,,,,,,1187.4573389999987,None,,,,,,,,,,,,,,,,,figure,117,82,sing,new,null,1182.806235099999,None,1182.806235099999,None,3,2.390931300000375,1182.806235099999,None,2.390931300000375,1185.2329336000003,None,1185.7441966999995,None,1185.7441966999995,None,n,1.6849339000000327,1185.7441966999995,None,1.6849339000000327,,,30sing,001,2023_Sep_25_1118,ProdSingRedoBetween,2021.2.3,59.951067938489864,
,,,,82,0,82,0,,,,,,,,,,,,,,,,,,,,,,1192.3455393999993,None,,,,,,,,,,,,,,,,,store,34,83,sing,old,blue,1187.9667811,None,1187.9667811,None,2,2.238245200000165,1187.9667811,None,2.238245200000165,1190.2334157999994,None,1190.7439838999999,None,1190.7439838999999,None,n,1.5730323999996472,1190.7439838999999,None,1.5730323999996472,,,30sing,001,2023_Sep_25_1118,ProdSingRedoBetween,2021.2.3,59.951067938489864,
,,,,83,0,83,0,,,,,,,,,,,,,,,,,,,,,,1200.1701748999985,None,,,,,,,,,,,,,,,,,build,165,84,sing,new,null,1192.857437999999,None,1192.857437999999,None,5,6.395532800001092,1192.857437999999,None,6.395532800001092,1199.2723616999992,None,1199.7863689999995,None,1199.7863689999995,None,f,0.3626722000008158,1199.7863689999995,None,0.3626722000008158,,,30sing,001,2023_Sep_25_1118,ProdSingRedoBetween,2021.2.3,59.951067938489864,
,,,,84,0,84,0,,,,,,,,,,,,,,,,,,,,,,1204.123886899999,None,,,,,,,,,,,,,,,,,strain,100,85,sing,new,null,1200.6852342999991,None,1200.6852342999991,None,1,1.8878777000008995,1200.6852342999991,None,1.8878777000008995,1202.6039138999986,None,1203.1102799,None,1203.1102799,None,n,0.9987009999986185,1203.1102799,None,0.9987009999986185,,,30sing,001,2023_Sep_25_1118,ProdSingRedoBetween,2021.2.3,59.951067938489864,
,,,,85,0,85,0,,,,,,,,,,,,,,,,,,,,,,1207.927642999999,None,,,,,,,,,,,,,,,,,angle,56,86,sing,old,blue,1204.6370649,None,1204.6370649,None,1,2.3279730000012933,1204.6370649,None,2.3279730000012933,1206.9963351999995,None,1207.5204457,None,1207.5204457,None,n,0.3887162000009994,1207.5204457,None,0.3887162000009994,,,30sing,001,2023_Sep_25_1118,ProdSingRedoBetween,2021.2.3,59.951067938489864,
,,,,86,0,86,0,,,,,,,,,,,,,,,,,,,,,,1211.0489039999993,None,,,,,,,,,,,,,,,,,degree,108,87,sing,new,null,1208.4430379999994,None,1208.4430379999994,None,1,1.7939930000011373,1208.4430379999994,None,1.7939930000011373,1210.2716568999986,None,1210.7828584,None,1210.7828584,None,n,0.2381310000000667,1210.7828584,None,0.2381310000000667,,,30sing,001,2023_Sep_25_1118,ProdSingRedoBetween,2021.2.3,59.951067938489864,
,,,,87,0,87,0,,,,,,,,,,,,,,,,,,,,,,1215.303498199999,None,,,,,,,,,,,,,,,,,notice,44,88,sing,old,blue,1211.562898099999,None,1211.562898099999,None,2,2.5541941999999835,1211.562898099999,None,2.5541941999999835,1214.1381732999998,None,1214.6611674999986,None,1214.6611674999986,None,n,0.6158888999998453,1214.6611674999986,None,0.6158888999998453,,,30sing,001,2023_Sep_25_1118,ProdSingRedoBetween,2021.2.3,59.951067938489864,
,,,,88,0,88,0,,,,,,,,,,,,,,,,,,,,,,1218.459577399999,None,,,,,,,,,,,,,,,,,science,142,89,sing,new,null,1215.8242328999986,None,1215.8242328999986,None,1,1.6127255999999761,1215.8242328999986,None,1.6127255999999761,1217.4571168000002,None,1217.9745700999993,None,1217.9745700999993,None,n,0.4546460000001389,1217.9745700999993,None,0.4546460000001389,,,30sing,001,2023_Sep_25_1118,ProdSingRedoBetween,2021.2.3,59.951067938489864,
,,,,89,0,89,0,,,,,,,,,,,,,,,,,,,,,,1223.2430538999997,None,,,,,,,,,,,,,,,,,novel,102,90,sing,new,null,1218.9767309,None,1218.9767309,None,6,2.7883984000000055,1218.9767309,None,2.7883984000000055,1221.8011081999994,None,1222.3121623999996,None,1222.3121623999996,None,r,0.9088799000001018,1222.3121623999996,None,0.9088799000001018,,,30sing,001,2023_Sep_25_1118,ProdSingRedoBetween,2021.2.3,59.951067938489864,
,,,,90,0,90,0,,,,,,,,,,,,,,,,,,,,,,1226.6631413999985,None,,,,,,,,,,,,,,,,,sweet,176,91,sing,new,null,1223.764460299999,None,1223.764460299999,None,1,1.9287720000011177,1223.764460299999,None,1.9287720000011177,1225.7250222000002,None,1226.235829199999,None,1226.235829199999,None,n,0.4013332000013179,1226.235829199999,None,0.4013332000013179,,,30sing,001,2023_Sep_25_1118,ProdSingRedoBetween,2021.2.3,59.951067938489864,
,,,,91,0,91,0,,,,,,,,,,,,,,,,,,,,,,1232.0853744999986,None,,,,,,,,,,,,,,,,,bitter,59,92,sing,old,yellow,1227.1729364000003,None,1227.1729364000003,None,6,3.9681008999996266,1227.1729364000003,None,3.9681008999996266,1231.1684688999994,None,1231.6736653999997,None,1231.6736653999997,None,r,0.395332199999757,1231.6736653999997,None,0.395332199999757,,,30sing,001,2023_Sep_25_1118,ProdSingRedoBetween,2021.2.3,59.951067938489864,
,,,,92,0,92,0,,,,,,,,,,,,,,,,,,,,,,1235.057961999999,None,,,,,,,,,,,,,,,,,throw,175,93,sing,new,null,1232.5973372999997,None,1232.5973372999997,None,1,1.6157086000002892,1232.5973372999997,None,1.6157086000002892,1234.2386602999995,None,1234.7420997999998,None,1234.7420997999998,None,n,0.2950144000005821,1234.7420997999998,None,0.2950144000005821,,,30sing,001,2023_Sep_25_1118,ProdSingRedoBetween,2021.2.3,59.951067938489864,
,,,,93,0,93,0,,,,,,,,,,,,,,,,,,,,,,1239.8350362,None,,,,,,,,,,,,,,,,,orchestra,87,94,sing,old,red,1235.5790273000002,None,1235.5790273000002,None,6,3.3620060000012018,1235.5790273000002,None,3.3620060000012018,1238.9636981999993,None,1239.476030599999,None,1239.476030599999,None,r,0.3210994999990362,1239.476030599999,None,0.3210994999990362,,,30sing,001,2023_Sep_25_1118,ProdSingRedoBetween,2021.2.3,59.951067938489864,
,,,,94,0,94,0,,,,,,,,,,,,,,,,,,,,,,1242.8292720999998,None,,,,,,,,,,,,,,,,,salary,75,95,sing,old,red,1240.3491001000002,None,1240.3491001000002,None,1,1.6639816999995674,1240.3491001000002,None,1.6639816999995674,1242.0365530999989,None,1242.5482331999992,None,1242.5482331999992,None,n,0.2647861000004923,1242.5482331999992,None,0.2647861000004923,,,30sing,001,2023_Sep_25_1118,ProdSingRedoBetween,2021.2.3,59.951067938489864,
,,,,95,0,95,0,,,,,,,,,,,,,,,,,,,,,,1246.1197974999995,None,,,,,,,,,,,,,,,,,debate,96,96,sing,new,null,1243.3392869,None,1243.3392869,None,1,1.9218332000000373,1243.3392869,None,1.9218332000000373,1245.2951065999987,None,1245.7989711999999,None,1245.7989711999999,None,n,0.2942817000002833,1245.7989711999999,None,0.2942817000002833,,,30sing,001,2023_Sep_25_1118,ProdSingRedoBetween,2021.2.3,59.951067938489864,
,,,,96,0,96,0,,,,,,,,,,,,,,,,,,,,,,1254.9077067999988,None,,,,,,,,,,,,,,,,,trial,63,97,sing,old,red,1246.6332501999987,None,1246.6332501999987,None,5,7.179812100001072,1246.6332501999987,None,7.179812100001072,1253.8451434999988,None,1254.3584152999993,None,1254.3584152999993,None,f,0.5184530000005907,1254.3584152999993,None,0.5184530000005907,,,30sing,001,2023_Sep_25_1118,ProdSingRedoBetween,2021.2.3,59.951067938489864,
,,,,97,0,97,0,,,,,,,,,,,,,,,,,,,,,,1258.3115135999997,None,,,,,,,,,,,,,,,,,department,144,98,sing,new,null,1255.4174600999995,None,1255.4174600999995,None,1,1.8595626000005723,1255.4174600999995,None,1.8595626000005723,1257.2948521999988,None,1257.8029148999995,None,1257.8029148999995,None,n,0.4901934000008623,1257.8029148999995,None,0.4901934000008623,,,30sing,001,2023_Sep_25_1118,ProdSingRedoBetween,2021.2.3,59.951067938489864,
,,,,98,0,98,0,,,,,,,,,,,,,,,,,,,,,,1263.449971,None,,,,,,,,,,,,,,,,,atmosphere,77,99,sing,old,red,1258.8161316999995,None,1258.8161316999995,None,4,3.469073299998854,1258.8161316999995,None,3.469073299998854,1262.3264514000002,None,1262.8355890999992,None,1262.8355890999992,None,f,0.5854569999992236,1262.8355890999992,None,0.5854569999992236,,,30sing,001,2023_Sep_25_1118,ProdSingRedoBetween,2021.2.3,59.951067938489864,
,,,,99,0,99,0,,,,,,,,,,,,,,,,,,,,,,1273.067857,None,,,,,,,,,,,,,,,,,material,107,100,sing,new,null,1263.9540308999985,None,1263.9540308999985,None,3,6.099091000000044,1263.9540308999985,None,6.099091000000044,1270.0779337999993,None,1270.590527299999,None,1270.590527299999,None,n,2.446641599999566,1270.590527299999,None,2.446641599999566,,,30sing,001,2023_Sep_25_1118,ProdSingRedoBetween,2021.2.3,59.951067938489864,
,,,,100,0,100,0,,,,,,,,,,,,,,,,,,,,,,1277.7647619,None,,,,,,,,,,,,,,,,,motion,9,101,sing,old,yellow,1273.5826465999999,None,1273.5826465999999,None,3,3.142433800001527,1273.5826465999999,None,3.142433800001527,1276.7484706999985,None,1277.263890799999,None,1277.263890799999,None,n,0.46928749999824504,1277.263890799999,None,0.46928749999824504,,,30sing,001,2023_Sep_25_1118,ProdSingRedoBetween,2021.2.3,59.951067938489864,
,,,,101,0,101,0,,,,,,,,,,,,,,,,,,,,,,1282.1016738999988,None,,,,,,,,,,,,,,,,,instrument,79,102,sing,old,red,1278.2783851999993,None,1278.2783851999993,None,6,3.0866609000004246,1278.2783851999993,None,3.0866609000004246,1281.3857568999993,None,1281.8939424,None,1281.8939424,None,r,0.1911486999997578,1281.8939424,None,0.1911486999997578,,,30sing,001,2023_Sep_25_1118,ProdSingRedoBetween,2021.2.3,59.951067938489864,
,,,,102,0,102,0,,,,,,,,,,,,,,,,,,,,,,1289.0606530999994,None,,,,,,,,,,,,,,,,,interior,53,103,sing,old,blue,1282.6107863999987,None,1282.6107863999987,None,5,5.698504399999365,1282.6107863999987,None,5.698504399999365,1288.3318878999999,None,1288.8421069999986,None,1288.8421069999986,None,f,0.19500520000110555,1288.8421069999986,None,0.19500520000110555,,,30sing,001,2023_Sep_25_1118,ProdSingRedoBetween,2021.2.3,59.951067938489864,
,,,,103,0,103,0,,,,,,,,,,,,,,,,,,,,,,1292.0136721,None,,,,,,,,,,,,,,,,,foundation,155,104,sing,new,null,1289.5846712000002,None,1289.5846712000002,None,1,1.500377700000172,1289.5846712000002,None,1.500377700000172,1291.1151035999992,None,1291.644692599999,None,1291.644692599999,None,n,0.3443974000001617,1291.644692599999,None,0.3443974000001617,,,30sing,001,2023_Sep_25_1118,ProdSingRedoBetween,2021.2.3,59.951067938489864,
,,,,104,0,104,0,,,,,,,,,,,,,,,,,,,,,,1294.9492577,None,,,,,,,,,,,,,,,,,season,177,105,sing,new,null,1292.5455509999993,None,1292.5455509999993,None,6,1.7715557999999874,1292.5455509999993,None,1.7715557999999874,1294.3505300999987,None,1294.8647595000002,None,1294.8647595000002,None,r,0.060381799999959185,1294.8647595000002,None,0.060381799999959185,,,30sing,001,2023_Sep_25_1118,ProdSingRedoBetween,2021.2.3,59.951067938489864,
,,,,105,0,105,0,,,,,,,,,,,,,,,,,,,,,,1298.7849941999993,None,,,,,,,,,,,,,,,,,shape,106,106,sing,new,null,1295.461766299999,None,1295.461766299999,None,1,2.50329899999997,1295.461766299999,None,2.50329899999997,1297.9855115999999,None,1298.4897490999992,None,1298.4897490999992,None,n,0.2754148999993049,1298.4897490999992,None,0.2754148999993049,,,30sing,001,2023_Sep_25_1118,ProdSingRedoBetween,2021.2.3,59.951067938489864,
,,,,106,0,106,0,,,,,,,,,,,,,,,,,,,,,,1308.5283235999996,None,,,,,,,,,,,,,,,,,device,13,107,sing,old,yellow,1299.3000026999998,None,1299.3000026999998,None,2,8.121266000000105,1299.3000026999998,None,8.121266000000105,1307.4554555999985,None,1307.9622299000002,None,1307.9622299000002,None,n,0.5387902999991638,1307.9622299000002,None,0.5387902999991638,,,30sing,001,2023_Sep_25_1118,ProdSingRedoBetween,2021.2.3,59.951067938489864,
,,,,107,0,107,0,,,,,,,,,,,,,,,,,,,,,,1315.2513780999998,None,,,,,,,,,,,,,,,,,management,92,108,sing,new,null,1309.0402744999992,None,1309.0402744999992,None,5,4.996777099999235,1309.0402744999992,None,4.996777099999235,1314.0696637,None,1314.5895050999989,None,1314.5895050999989,None,f,0.6314151999995374,1314.5895050999989,None,0.6314151999995374,,,30sing,001,2023_Sep_25_1118,ProdSingRedoBetween,2021.2.3,59.951067938489864,
,,,,108,0,108,0,,,,,,,,,,,,,,,,,,,,,,1323.3264113999994,None,,,,,,,,,,,,,,,,,shear,124,109,sing,new,null,1315.7617599999994,None,1315.7617599999994,None,1,1.9793082000014692,1315.7617599999994,None,1.9793082000014692,1317.7728002999993,None,1318.2903582999988,None,1318.2903582999988,None,n,5.018671100000574,1318.2903582999988,None,5.018671100000574,,,30sing,001,2023_Sep_25_1118,ProdSingRedoBetween,2021.2.3,59.951067938489864,
,,,,109,0,109,0,,,,,,,,,,,,,,,,,,,,,,1329.7828801999985,None,,,,,,,,,,,,,,,,,trash,167,110,sing,new,null,1323.8353388999985,None,1323.8353388999985,None,4,5.057797400000709,1323.8353388999985,None,5.057797400000709,1328.9234627999995,None,1329.4356785,None,1329.4356785,None,f,0.32933889999912935,1329.4356785,None,0.32933889999912935,,,30sing,001,2023_Sep_25_1118,ProdSingRedoBetween,2021.2.3,59.951067938489864,
,,,,110,0,110,0,,,,,,,,,,,,,,,,,,,,,,1336.2095752999994,None,,,,,,,,,,,,,,,,,accident,45,111,sing,old,blue,1330.2919942999997,None,1330.2919942999997,None,1,1.76911950000067,1330.2919942999997,None,1.76911950000067,1332.0888121999997,None,1332.6024739999993,None,1332.6024739999993,None,n,3.5869186999989324,1332.6024739999993,None,3.5869186999989324,,,30sing,001,2023_Sep_25_1118,ProdSingRedoBetween,2021.2.3,59.951067938489864,
,,,,111,0,111,0,,,,,,,,,,,,,,,,,,,,,,1339.192272799999,None,,,,,,,,,,,,,,,,,broad,55,112,sing,old,blue,1336.7364887999993,None,1336.7364887999993,None,6,1.8526058999996167,1336.7364887999993,None,1.8526058999996167,1338.6082123999986,None,1339.1129134000003,None,1339.1129134000003,None,r,0.060206999998627,1339.1129134000003,None,0.060206999998627,,,30sing,001,2023_Sep_25_1118,ProdSingRedoBetween,2021.2.3,59.951067938489864,
,,,,112,0,112,0,,,,,,,,,,,,,,,,,,,,,,1344.1302388999993,None,,,,,,,,,,,,,,,,,error,40,113,sing,old,blue,1339.7066741999988,None,1339.7066741999988,None,6,2.6665993000005983,1339.7066741999988,None,2.6665993000005983,1342.4071910000002,None,1342.914625899999,None,1342.914625899999,None,r,1.1863627999991877,1342.914625899999,None,1.1863627999991877,,,30sing,001,2023_Sep_25_1118,ProdSingRedoBetween,2021.2.3,59.951067938489864,
,,,,113,0,113,0,,,,,,,,,,,,,,,,,,,,,,1346.916681499999,None,,,,,,,,,,,,,,,,,public,145,114,sing,new,null,1344.6421881999995,None,1344.6421881999995,None,6,1.6349090000003343,1344.6421881999995,None,1.6349090000003343,1346.3035165000001,None,1346.8202036000002,None,1346.8202036000002,None,r,0.08092300000134856,1346.8202036000002,None,0.08092300000134856,,,30sing,001,2023_Sep_25_1118,ProdSingRedoBetween,2021.2.3,59.951067938489864,
,,,,114,0,114,0,,,,,,,,,,,,,,,,,,,,,,1350.8372462999996,None,,,,,,,,,,,,,,,,,relation,122,115,sing,new,null,1347.4318024999993,None,1347.4318024999993,None,4,2.7412652999992133,1347.4318024999993,None,2.7412652999992133,1350.2039494,None,1350.7066465999997,None,1350.7066465999997,None,f,0.11437099999966449,1350.7066465999997,None,0.11437099999966449,,,30sing,001,2023_Sep_25_1118,ProdSingRedoBetween,2021.2.3,59.951067938489864,
,,,,115,0,115,0,,,,,,,,,,,,,,,,,,,,,,1355.728342299999,None,,,,,,,,,,,,,,,,,space,67,116,sing,old,red,1351.3439149999995,None,1351.3439149999995,None,5,3.6932121999998344,1351.3439149999995,None,3.6932121999998344,1355.0637670999986,None,1355.5764232000001,None,1355.5764232000001,None,r,0.13289819999954489,1355.5764232000001,None,0.13289819999954489,,,30sing,001,2023_Sep_25_1118,ProdSingRedoBetween,2021.2.3,59.951067938489864,
,,,,116,0,116,0,,,,,,,,,,,,,,,,,,,,,,1361.9149949000002,None,,,,,,,,,,,,,,,,,breath,95,117,sing,new,null,1356.2487012000001,None,1356.2487012000001,None,1,3.100330600000234,1356.2487012000001,None,3.100330600000234,1359.3805412000002,None,1359.8867175999985,None,1359.8867175999985,None,n,2.0063656000002084,1359.8867175999985,None,2.0063656000002084,,,30sing,001,2023_Sep_25_1118,ProdSingRedoBetween,2021.2.3,59.951067938489864,
,,,,117,0,117,0,,,,,,,,,,,,,,,,,,,,,,1364.9858886999991,None,,,,,,,,,,,,,,,,,blind,156,118,sing,new,null,1362.4195870999993,None,1362.4195870999993,None,4,1.8894928999998228,1362.4195870999993,None,1.8894928999998228,1364.3341051999996,None,1364.8363575999992,None,1364.8363575999992,None,f,0.12083129999882658,1364.8363575999992,None,0.12083129999882658,,,30sing,001,2023_Sep_25_1118,ProdSingRedoBetween,2021.2.3,59.951067938489864,
,,,,118,0,118,0,,,,,,,,,,,,,,,,,,,,,,1371.9248099999986,None,,,,,,,,,,,,,,,,,territory,129,119,sing,new,null,1365.4938456,None,1365.4938456,None,1,4.91926180000155,1365.4938456,None,4.91926180000155,1370.4433273999985,None,1370.9654403999994,None,1370.9654403999994,None,n,0.935706599999321,1370.9654403999994,None,0.935706599999321,,,30sing,001,2023_Sep_25_1118,ProdSingRedoBetween,2021.2.3,59.951067938489864,
,,,,119,0,119,0,,,,,,,,,,,,,,,,,,,,,,1376.2792799999988,None,,,,,,,,,,,,,,,,,corner,104,120,sing,new,null,1372.4357369999998,None,1372.4357369999998,None,4,2.7855540000000474,1372.4357369999998,None,2.7855540000000474,1375.2514463999996,None,1375.762247999999,None,1375.762247999999,None,f,0.49874780000027386,1375.762247999999,None,0.49874780000027386,,,30sing,001,2023_Sep_25_1118,ProdSingRedoBetween,2021.2.3,59.951067938489864,
,,,,120,0,120,0,,,,,,,,,,,,,,,,,,,,,,1379.899393399999,None,,,,,,,,,,,,,,,,,waste,127,121,sing,new,null,1376.7840652999985,None,1376.7840652999985,None,6,2.437071599999399,1376.7840652999985,None,2.437071599999399,1379.2567774,None,1379.7662643999993,None,1379.7662643999993,None,r,0.10290419999910227,1379.7662643999993,None,0.10290419999910227,,,30sing,001,2023_Sep_25_1118,ProdSingRedoBetween,2021.2.3,59.951067938489864,
,,,,121,0,121,0,,,,,,,,,,,,,,,,,,,,,,1409.2476162999992,None,,,,,,,,,,,,,,,,,tragedy,48,122,sing,old,blue,1380.4151141000002,None,1380.4151141000002,None,3,26.493972300000678,1380.4151141000002,None,26.493972300000678,1406.9279766,None,1407.4371558000003,None,1407.4371558000003,None,f,1.7921686000008776,1407.4371558000003,None,1.7921686000008776,,,30sing,001,2023_Sep_25_1118,ProdSingRedoBetween,2021.2.3,59.951067938489864,
,,,,122,0,122,0,,,,,,,,,,,,,,,,,,,,,,1413.9336492000002,None,,,,,,,,,,,,,,,,,owner,22,123,sing,old,yellow,1409.769233699999,None,1409.769233699999,None,6,2.947975299999598,1409.769233699999,None,2.947975299999598,1412.7426730999996,None,1413.250985499999,None,1413.250985499999,None,r,0.6662754000008135,1413.250985499999,None,0.6662754000008135,,,30sing,001,2023_Sep_25_1118,ProdSingRedoBetween,2021.2.3,59.951067938489864,
,,,,123,0,123,0,,,,,,,,,,,,,,,,,,,,,,1418.7050741999992,None,,,,,,,,,,,,,,,,,report,178,124,sing,new,null,1414.4444091999994,None,1414.4444091999994,None,4,2.289119400000345,1414.4444091999994,None,2.289119400000345,1416.7565899,None,1417.278140299999,None,1417.278140299999,None,f,1.4069868999995379,1417.278140299999,None,1.4069868999995379,,,30sing,001,2023_Sep_25_1118,ProdSingRedoBetween,2021.2.3,59.951067938489864,
,,,,124,0,124,0,,,,,,,,,,,,,,,,,,,,,,1424.5776188,None,,,,,,,,,,,,,,,,,substance,11,125,sing,old,yellow,1419.2142886000001,None,1419.2142886000001,None,5,4.471037700001034,1419.2142886000001,None,4.471037700001034,1423.717437199999,None,1424.2281852999986,None,1424.2281852999986,None,f,0.3289555000010296,1424.2281852999986,None,0.3289555000010296,,,30sing,001,2023_Sep_25_1118,ProdSingRedoBetween,2021.2.3,59.951067938489864,
,,,,125,0,125,0,,,,,,,,,,,,,,,,,,,,,,1428.0319530999986,None,,,,,,,,,,,,,,,,,testimony,70,126,sing,old,red,1425.0977753999996,None,1425.0977753999996,None,6,2.0597073000008095,1425.0977753999996,None,2.0597073000008095,1427.1860923999993,None,1427.703311199999,None,1427.703311199999,None,r,0.3099136000000726,1427.703311199999,None,0.3099136000000726,,,30sing,001,2023_Sep_25_1118,ProdSingRedoBetween,2021.2.3,59.951067938489864,
,,,,126,0,126,0,,,,,,,,,,,,,,,,,,,,,,1432.8525958999999,None,,,,,,,,,,,,,,,,,cross,50,127,sing,old,blue,1428.5348847999994,None,1428.5348847999994,None,1,2.9022552000005817,1428.5348847999994,None,2.9022552000005817,1431.4678249999997,None,1431.9761393999997,None,1431.9761393999997,None,n,0.8529919000011432,1431.9761393999997,None,0.8529919000011432,,,30sing,001,2023_Sep_25_1118,ProdSingRedoBetween,2021.2.3,59.951067938489864,
,,,,127,0,127,0,,,,,,,,,,,,,,,,,,,,,,1438.2118907999993,None,,,,,,,,,,,,,,,,,sight,130,128,sing,new,null,1433.3629431999998,None,1433.3629431999998,None,3,2.4900875999992422,1433.3629431999998,None,2.4900875999992422,1435.8907153,None,1436.3934786999998,None,1436.3934786999998,None,f,1.7960383000008733,1436.3934786999998,None,1.7960383000008733,,,30sing,001,2023_Sep_25_1118,ProdSingRedoBetween,2021.2.3,59.951067938489864,
,,,,128,0,128,0,,,,,,,,,,,,,,,,,,,,,,1441.847622199999,None,,,,,,,,,,,,,,,,,quarter,133,129,sing,new,null,1438.7337888999991,None,1438.7337888999991,None,1,1.94333000000006,1438.7337888999991,None,1.94333000000006,1440.6948589999993,None,1441.1982602999997,None,1441.1982602999997,None,n,0.6309727999996539,1441.1982602999997,None,0.6309727999996539,,,30sing,001,2023_Sep_25_1118,ProdSingRedoBetween,2021.2.3,59.951067938489864,
,,,,129,0,129,0,,,,,,,,,,,,,,,,,,,,,,1445.7652645999988,None,,,,,,,,,,,,,,,,,burden,35,130,sing,old,blue,1442.3671356999985,None,1442.3671356999985,None,3,2.222226199999568,1442.3671356999985,None,2.222226199999568,1444.6188102999986,None,1445.1343244,None,1445.1343244,None,n,0.6148797999994713,1445.1343244,None,0.6148797999994713,,,30sing,001,2023_Sep_25_1118,ProdSingRedoBetween,2021.2.3,59.951067938489864,
,,,,130,0,130,0,,,,,,,,,,,,,,,,,,,,,,1450.2065937999996,None,,,,,,,,,,,,,,,,,general,158,131,sing,new,null,1446.2746029999998,None,1446.2746029999998,None,6,3.0586781000001793,1446.2746029999998,None,3.0586781000001793,1449.3590518,None,1449.869741299999,None,1449.869741299999,None,r,0.303649100000257,1449.869741299999,None,0.303649100000257,,,30sing,001,2023_Sep_25_1118,ProdSingRedoBetween,2021.2.3,59.951067938489864,
,,,,131,0,131,0,,,,,,,,,,,,,,,,,,,,,,1456.2831761999987,None,,,,,,,,,,,,,,,,,title,123,132,sing,new,null,1450.7245867000001,None,1450.7245867000001,None,3,1.8567493999998987,1450.7245867000001,None,1.8567493999998987,1452.6147337000002,None,1453.1322497,None,1453.1322497,None,f,3.1290076000004774,1453.1322497,None,3.1290076000004774,,,30sing,001,2023_Sep_25_1118,ProdSingRedoBetween,2021.2.3,59.951067938489864,
,,,,132,0,132,0,,,,,,,,,,,,,,,,,,,,,,1459.8460221999994,None,,,,,,,,,,,,,,,,,power,160,133,sing,new,null,1456.7963067,None,1456.7963067,None,4,1.9609533000002557,1456.7963067,None,1.9609533000002557,1458.7886409999992,None,1459.3036458999995,None,1459.3036458999995,None,f,0.5175763999995979,1459.3036458999995,None,0.5175763999995979,,,30sing,001,2023_Sep_25_1118,ProdSingRedoBetween,2021.2.3,59.951067938489864,
,,,,133,0,133,0,,,,,,,,,,,,,,,,,,,,,,1463.0521625000001,None,,,,,,,,,,,,,,,,,profession,153,134,sing,new,null,1460.3509596999993,None,1460.3509596999993,None,1,1.5262318999994022,1460.3509596999993,None,1.5262318999994022,1461.9016938999994,None,1462.4324877,None,1462.4324877,None,n,0.596776399999726,1462.4324877,None,0.596776399999726,,,30sing,001,2023_Sep_25_1118,ProdSingRedoBetween,2021.2.3,59.951067938489864,
,,,,134,0,134,0,,,,,,,,,,,,,,,,,,,,,,1466.8865752000002,None,,,,,,,,,,,,,,,,,turkey,152,135,sing,new,null,1463.5723371999993,None,1463.5723371999993,None,1,1.4249710999993113,1463.5723371999993,None,1.4249710999993113,1465.0245275999987,None,1465.5413813999985,None,1465.5413813999985,None,n,1.3277672000003804,1465.5413813999985,None,1.3277672000003804,,,30sing,001,2023_Sep_25_1118,ProdSingRedoBetween,2021.2.3,59.951067938489864,
,,,,135,0,135,0,,,,,,,,,,,,,,,,,,,,,,1471.6913750999993,None,,,,,,,,,,,,,,,,,appearance,80,136,sing,old,red,1467.3913116999993,None,1467.3913116999993,None,3,2.70989340000051,1467.3913116999993,None,2.70989340000051,1470.1262535999995,None,1470.6460551,None,1470.6460551,None,n,1.0233518000004551,1470.6460551,None,1.0233518000004551,,,30sing,001,2023_Sep_25_1118,ProdSingRedoBetween,2021.2.3,59.951067938489864,
,,,,136,0,136,0,,,,,,,,,,,,,,,,,,,,,,1475.0999610999988,None,,,,,,,,,,,,,,,,,society,136,137,sing,new,null,1472.2030637999997,None,1472.2030637999997,None,6,1.8980854000001273,1472.2030637999997,None,1.8980854000001273,1474.1283743999993,None,1474.634827599999,None,1474.634827599999,None,r,0.4424737000008463,1474.634827599999,None,0.4424737000008463,,,30sing,001,2023_Sep_25_1118,ProdSingRedoBetween,2021.2.3,59.951067938489864,
,,,,137,0,137,0,,,,,,,,,,,,,,,,,,,,,,1479.8828520999996,None,,,,,,,,,,,,,,,,,phrase,131,138,sing,new,null,1475.6271011999997,None,1475.6271011999997,None,3,2.7541594999984227,1475.6271011999997,None,2.7541594999984227,1478.4055446999992,None,1478.916446199999,None,1478.916446199999,None,n,0.9449958000004699,1478.916446199999,None,0.9449958000004699,,,30sing,001,2023_Sep_25_1118,ProdSingRedoBetween,2021.2.3,59.951067938489864,
,,,,138,0,138,0,,,,,,,,,,,,,,,,,,,,,,1486.5928781999992,None,,,,,,,,,,,,,,,,,citizen,170,139,sing,new,null,1480.4024836999997,None,1480.4024836999997,None,2,5.154840499999409,1480.4024836999997,None,5.154840499999409,1485.6003468999988,None,1486.1120913999985,None,1486.1120913999985,None,n,0.4530845000008412,1486.1120913999985,None,0.4530845000008412,,,30sing,001,2023_Sep_25_1118,ProdSingRedoBetween,2021.2.3,59.951067938489864,
,,,,139,0,139,0,,,,,,,,,,,,,,,,,,,,,,1491.3777278999987,None,,,,,,,,,,,,,,,,,spoke,114,140,sing,new,null,1487.1115347999985,None,1487.1115347999985,None,4,2.9096855000007054,1487.1115347999985,None,2.9096855000007054,1490.0512098999989,None,1490.5621105999999,None,1490.5621105999999,None,f,0.7870662000004813,1490.5621105999999,None,0.7870662000004813,,,30sing,001,2023_Sep_25_1118,ProdSingRedoBetween,2021.2.3,59.951067938489864,
,,,,140,0,140,0,,,,,,,,,,,,,,,,,,,,,,1495.348403599999,None,,,,,,,,,,,,,,,,,count,172,141,sing,new,null,1491.8842449999993,None,1491.8842449999993,None,6,2.608941700000287,1491.8842449999993,None,2.608941700000287,1494.5168861000002,None,1495.0367749999987,None,1495.0367749999987,None,r,0.2964009999996051,1495.0367749999987,None,0.2964009999996051,,,30sing,001,2023_Sep_25_1118,ProdSingRedoBetween,2021.2.3,59.951067938489864,
,,,,141,0,141,0,,,,,,,,,,,,,,,,,,,,,,1499.7193843999994,None,,,,,,,,,,,,,,,,,thick,3,142,sing,old,yellow,1495.8549131,None,1495.8549131,None,6,3.0942805000013323,1495.8549131,None,3.0942805000013323,1498.9698480999996,None,1499.4722232999993,None,1499.4722232999993,None,r,0.2288886000005732,1499.4722232999993,None,0.2288886000005732,,,30sing,001,2023_Sep_25_1118,ProdSingRedoBetween,2021.2.3,59.951067938489864,
,,,,142,0,142,0,,,,,,,,,,,,,,,,,,,,,,1503.7231558999993,None,,,,,,,,,,,,,,,,,solution,118,143,sing,new,null,1500.2202017,None,1500.2202017,None,1,2.393103300000803,1500.2202017,None,2.393103300000803,1502.6461282,None,1503.1644512000003,None,1503.1644512000003,None,n,0.5288110000001325,1503.1644512000003,None,0.5288110000001325,,,30sing,001,2023_Sep_25_1118,ProdSingRedoBetween,2021.2.3,59.951067938489864,
,,,,143,0,143,0,,,,,,,,,,,,,,,,,,,,,,1510.4346291000002,None,,,,,,,,,,,,,,,,,display,115,144,sing,new,null,1504.2343756999999,None,1504.2343756999999,None,5,5.322843899999498,1504.2343756999999,None,5.322843899999498,1509.5824808999987,None,1510.098544299999,None,1510.098544299999,None,f,0.3066644999998971,1510.098544299999,None,0.3066644999998971,,,30sing,001,2023_Sep_25_1118,ProdSingRedoBetween,2021.2.3,59.951067938489864,
,,,,144,0,144,0,,,,,,,,,,,,,,,,,,,,,,1513.4694261999994,None,,,,,,,,,,,,,,,,,short,138,145,sing,new,null,1510.961998499999,None,1510.961998499999,None,5,1.5631566000010935,1510.961998499999,None,1.5631566000010935,1512.5499815999992,None,1513.0543816999998,None,1513.0543816999998,None,f,0.3909454000004189,1513.0543816999998,None,0.3909454000004189,,,30sing,001,2023_Sep_25_1118,ProdSingRedoBetween,2021.2.3,59.951067938489864,
,,,,145,0,145,0,,,,,,,,,,,,,,,,,,,,,,1521.0406941,None,,,,,,,,,,,,,,,,,number,164,146,sing,new,null,1513.9990775999995,None,1513.9990775999995,None,3,5.902191400000447,1513.9990775999995,None,5.902191400000447,1519.9300141999993,None,1520.4421733,None,1520.4421733,None,n,0.5709669000007125,1520.4421733,None,0.5709669000007125,,,30sing,001,2023_Sep_25_1118,ProdSingRedoBetween,2021.2.3,59.951067938489864,
,,,,146,0,146,0,,,,,,,,,,,,,,,,,,,,,,1525.928738999999,None,,,,,,,,,,,,,,,,,dispute,2,147,sing,old,yellow,1521.5484545999989,None,1521.5484545999989,None,4,3.5767390000000887,1521.5484545999989,None,3.5767390000000887,1525.1459624,None,1525.6511893999996,None,1525.6511893999996,None,f,0.24998650000088674,1525.6511893999996,None,0.24998650000088674,,,30sing,001,2023_Sep_25_1118,ProdSingRedoBetween,2021.2.3,59.951067938489864,
,,,,147,0,147,0,,,,,,,,,,,,,,,,,,,,,,1529.1360694999985,None,,,,,,,,,,,,,,,,,history,1,148,sing,old,yellow,1526.4383127,None,1526.4383127,None,6,1.679151999998794,1526.4383127,None,1.679151999998794,1528.1573293000001,None,1528.6704704999993,None,1528.6704704999993,None,r,0.43889390000003914,1528.6704704999993,None,0.43889390000003914,,,30sing,001,2023_Sep_25_1118,ProdSingRedoBetween,2021.2.3,59.951067938489864,
,,,,148,0,148,0,,,,,,,,,,,,,,,,,,,,,,1546.8832305999986,None,,,,,,,,,,,,,,,,,candidate,89,149,sing,old,red,1529.6611319999993,None,1529.6611319999993,None,1,16.248037000001204,1529.6611319999993,None,16.248037000001204,1545.9349040999987,None,1546.4518047000001,None,1546.4518047000001,None,n,0.40949820000059844,1546.4518047000001,None,0.40949820000059844,,,30sing,001,2023_Sep_25_1118,ProdSingRedoBetween,2021.2.3,59.951067938489864,
,,,,149,0,149,0,,,,,,,,,,,,,,,,,,,,,,1552.2720121000002,None,,,,,,,,,,,,,,,,,state,174,150,sing,new,null,1547.3930703999995,None,1547.3930703999995,None,5,3.100094800000079,1547.3930703999995,None,3.100094800000079,1550.5213846999995,None,1551.0290237999998,None,1551.0290237999998,None,f,1.2161215000014636,1551.0290237999998,None,1.2161215000014636,,,30sing,001,2023_Sep_25_1118,ProdSingRedoBetween,2021.2.3,59.951067938489864,
,,,,150,0,150,0,,,,,,,,,,,,,,,,,,,,,,1560.8135657999992,None,,,,,,,,,,,,,,,,,division,128,151,sing,new,null,1552.7881056999995,None,1552.7881056999995,None,4,5.977193000000625,1552.7881056999995,None,5.977193000000625,1558.804860799999,None,1559.3123995999995,None,1559.3123995999995,None,f,1.4848836000001029,1559.3123995999995,None,1.4848836000001029,,,30sing,001,2023_Sep_25_1118,ProdSingRedoBetween,2021.2.3,59.951067938489864,
,,,,151,0,151,0,,,,,,,,,,,,,,,,,,,,,,1564.7344606999995,None,,,,,,,,,,,,,,,,,marriage,65,152,sing,old,red,1561.3235227999994,None,1561.3235227999994,None,6,1.9057310999996844,1561.3235227999994,None,1.9057310999996844,1563.2540026999995,None,1563.7668605999988,None,1563.7668605999988,None,r,0.9424242000004597,1563.7668605999988,None,0.9424242000004597,,,30sing,001,2023_Sep_25_1118,ProdSingRedoBetween,2021.2.3,59.951067938489864,
,,,,152,0,152,0,,,,,,,,,,,,,,,,,,,,,,1571.8623963999999,None,,,,,,,,,,,,,,,,,literature,169,153,sing,new,null,1565.2401396999994,None,1565.2401396999994,None,1,5.669052699999156,1565.2401396999994,None,5.669052699999156,1570.9265823999995,None,1571.4429435000002,None,1571.4429435000002,None,n,0.3945223000009719,1571.4429435000002,None,0.3945223000009719,,,30sing,001,2023_Sep_25_1118,ProdSingRedoBetween,2021.2.3,59.951067938489864,
,,,,153,0,153,0,,,,,,,,,,,,,,,,,,,,,,1577.4137394999998,None,,,,,,,,,,,,,,,,,emergency,18,154,sing,old,yellow,1572.3850656999984,None,1572.3850656999984,None,3,3.028269000000364,1572.3850656999984,None,3.028269000000364,1575.444628199999,None,1575.9477396999991,None,1575.9477396999991,None,f,1.441459699999541,1575.9477396999991,None,1.441459699999541,,,30sing,001,2023_Sep_25_1118,ProdSingRedoBetween,2021.2.3,59.951067938489864,
,,,,154,0,154,0,,,,,,,,,,,,,,,,,,,,,,1581.3675423999994,None,,,,,,,,,,,,,,,,,guard,163,155,sing,new,null,1577.9216491999996,None,1577.9216491999996,None,6,2.4755920999996306,1577.9216491999996,None,2.4755920999996306,1580.416499699999,None,1580.9213337,None,1580.9213337,None,r,0.4198384999999689,1580.9213337,None,0.4198384999999689,,,30sing,001,2023_Sep_25_1118,ProdSingRedoBetween,2021.2.3,59.951067938489864,
,,,,155,0,155,0,,,,,,,,,,,,,,,,,,,,,,1586.2392798,None,,,,,,,,,,,,,,,,,level,15,156,sing,old,yellow,1581.883977399999,None,1581.883977399999,None,5,3.297222299999703,1581.883977399999,None,3.297222299999703,1585.2057539999987,None,1585.7081117999987,None,1585.7081117999987,None,f,0.5053564999998343,1585.7081117999987,None,0.5053564999998343,,,30sing,001,2023_Sep_25_1118,ProdSingRedoBetween,2021.2.3,59.951067938489864,
,,,,156,0,156,0,,,,,,,,,,,,,,,,,,,,,,1590.7436638999989,None,,,,,,,,,,,,,,,,,background,62,157,sing,old,red,1586.7552741,None,1586.7552741,None,3,2.9939500000000407,1586.7552741,None,2.9939500000000407,1589.7804034,None,1590.2976903999988,None,1590.2976903999988,None,f,0.4195600999992166,1590.2976903999988,None,0.4195600999992166,,,30sing,001,2023_Sep_25_1118,ProdSingRedoBetween,2021.2.3,59.951067938489864,
,,,,157,0,157,0,,,,,,,,,,,,,,,,,,,,,,1605.8588295999998,None,,,,,,,,,,,,,,,,,bucket,61,158,sing,old,red,1591.2593337999988,None,1591.2593337999988,None,3,13.6978653999995,1591.2593337999988,None,13.6978653999995,1604.9757087999988,None,1605.479527399999,None,1605.479527399999,None,f,0.34974270000020624,1605.479527399999,None,0.34974270000020624,,,30sing,001,2023_Sep_25_1118,ProdSingRedoBetween,2021.2.3,59.951067938489864,
,,,,158,0,158,0,,,,,,,,,,,,,,,,,,,,,,1611.8177278999992,None,,,,,,,,,,,,,,,,,brilliant,162,159,sing,new,null,1606.3622237,None,1606.3622237,None,3,3.723010899999281,1606.3622237,None,3.723010899999281,1610.115836699999,None,1610.6368825999998,None,1610.6368825999998,None,n,1.1604447000008804,1610.6368825999998,None,1.1604447000008804,,,30sing,001,2023_Sep_25_1118,ProdSingRedoBetween,2021.2.3,59.951067938489864,
,,,,159,0,159,0,,,,,,,,,,,,,,,,,,,,,,1616.5695201999988,None,,,,,,,,,,,,,,,,,shock,141,160,sing,new,null,1612.3453893999995,None,1612.3453893999995,None,5,3.3883592000001954,1612.3453893999995,None,3.3883592000001954,1615.7638835999987,None,1616.2693420999985,None,1616.2693420999985,None,r,0.2799085999995441,1616.2693420999985,None,0.2799085999995441,,,30sing,001,2023_Sep_25_1118,ProdSingRedoBetween,2021.2.3,59.951067938489864,
,,,,160,0,160,0,,,,,,,,,,,,,,,,,,,,,,1629.8994609000001,None,,,,,,,,,,,,,,,,,gesture,71,161,sing,old,red,1617.085775399999,None,1617.085775399999,None,6,4.527481099999932,1617.085775399999,None,4.527481099999932,1621.6440224999988,None,1622.1620723999986,None,1622.1620723999986,None,r,7.707202300000063,1622.1620723999986,None,7.707202300000063,,,30sing,001,2023_Sep_25_1118,ProdSingRedoBetween,2021.2.3,59.951067938489864,
,,,,161,0,161,0,,,,,,,,,,,,,,,,,,,,,,1632.8690616999993,None,,,,,,,,,,,,,,,,,death,60,162,sing,old,red,1630.4026326999992,None,1630.4026326999992,None,6,1.4346580000001268,1630.4026326999992,None,1.4346580000001268,1631.8722528999988,None,1632.3865807999991,None,1632.3865807999991,None,r,0.4667644000001019,1632.3865807999991,None,0.4667644000001019,,,30sing,001,2023_Sep_25_1118,ProdSingRedoBetween,2021.2.3,59.951067938489864,
,,,,162,0,162,0,,,,,,,,,,,,,,,,,,,,,,1635.9746858999988,None,,,,,,,,,,,,,,,,,minute,16,163,sing,old,yellow,1633.3713374,None,1633.3713374,None,6,1.6660247999989224,1633.3713374,None,1.6660247999989224,1635.0610927999987,None,1635.578765799999,None,1635.578765799999,None,r,0.37861270000030345,1635.578765799999,None,0.37861270000030345,,,30sing,001,2023_Sep_25_1118,ProdSingRedoBetween,2021.2.3,59.951067938489864,
,,,,163,0,163,0,,,,,,,,,,,,,,,,,,,,,,1638.7959440999985,None,,,,,,,,,,,,,,,,,danger,168,164,sing,new,null,1636.4919954999987,None,1636.4919954999987,None,6,1.4173008000016125,1636.4919954999987,None,1.4173008000016125,1637.925079499999,None,1638.4287418999993,None,1638.4287418999993,None,r,0.3445905999997194,1638.4287418999993,None,0.3445905999997194,,,30sing,001,2023_Sep_25_1118,ProdSingRedoBetween,2021.2.3,59.951067938489864,
,,,,164,0,164,0,,,,,,,,,,,,,,,,,,,,,,1643.8634704999986,None,,,,,,,,,,,,,,,,,population,85,165,sing,old,red,1639.3141741,None,1639.3141741,None,4,3.675086500001271,1639.3141741,None,3.675086500001271,1643.0159573,None,1643.5371997000002,None,1643.5371997000002,None,f,0.3000484999993205,1643.5371997000002,None,0.3000484999993205,,,30sing,001,2023_Sep_25_1118,ProdSingRedoBetween,2021.2.3,59.951067938489864,
,,,,165,0,165,0,,,,,,,,,,,,,,,,,,,,,,1649.2085226,None,,,,,,,,,,,,,,,,,height,140,166,sing,new,null,1644.3711824000002,None,1644.3711824000002,None,1,1.7542035999995278,1644.3711824000002,None,1.7542035999995278,1646.1570768000001,None,1646.6705418000001,None,1646.6705418000001,None,n,2.502937799999927,1646.6705418000001,None,2.502937799999927,,,30sing,001,2023_Sep_25_1118,ProdSingRedoBetween,2021.2.3,59.951067938489864,
,,,,166,0,166,0,,,,,,,,,,,,,,,,,,,,,,1656.8765736999994,None,,,,,,,,,,,,,,,,,service,179,167,sing,new,null,1649.7287956,None,1649.7287956,None,4,5.292599300000802,1649.7287956,None,5.292599300000802,1655.0535579999996,None,1655.563658699999,None,1655.563658699999,None,f,1.2976118000005954,1655.563658699999,None,1.2976118000005954,,,30sing,001,2023_Sep_25_1118,ProdSingRedoBetween,2021.2.3,59.951067938489864,
,,,,167,0,167,0,,,,,,,,,,,,,,,,,,,,,,1663.4663726999988,None,,,,,,,,,,,,,,,,,council,161,168,sing,new,null,1657.3933799999995,None,1657.3933799999995,None,4,5.108097199999975,1657.3933799999995,None,5.108097199999975,1662.5374135000002,None,1663.0526764999995,None,1663.0526764999995,None,f,0.38466019999941636,1663.0526764999995,None,0.38466019999941636,,,30sing,001,2023_Sep_25_1118,ProdSingRedoBetween,2021.2.3,59.951067938489864,
,,,,168,0,168,0,,,,,,,,,,,,,,,,,,,,,,1668.9916938999995,None,,,,,,,,,,,,,,,,,trend,113,169,sing,new,null,1663.9768055999994,None,1663.9768055999994,None,3,3.1085280000006605,1663.9768055999994,None,3.1085280000006605,1667.1056555999985,None,1667.6305166000002,None,1667.6305166000002,None,n,1.3348296000003756,1667.6305166000002,None,1.3348296000003756,,,30sing,001,2023_Sep_25_1118,ProdSingRedoBetween,2021.2.3,59.951067938489864,
,,,,169,0,169,0,,,,,,,,,,,,,,,,,,,,,,1676.1624777999987,None,,,,,,,,,,,,,,,,,business,27,170,sing,old,yellow,1669.5093226999998,None,1669.5093226999998,None,3,5.93605750000097,1669.5093226999998,None,5.93605750000097,1675.465062199999,None,1675.9835456,None,1675.9835456,None,n,0.14981299999999464,1675.9835456,None,0.14981299999999464,,,30sing,001,2023_Sep_25_1118,ProdSingRedoBetween,2021.2.3,59.951067938489864,
,,,,170,0,170,0,,,,,,,,,,,,,,,,,,,,,,1682.6355882999997,None,,,,,,,,,,,,,,,,,track,149,171,sing,new,null,1676.6710918999997,None,1676.6710918999997,None,6,5.35024870000052,1676.6710918999997,None,5.35024870000052,1682.059486099999,None,1682.574107299999,None,1682.574107299999,None,f,0.03122369999982766,1682.574107299999,None,0.03122369999982766,,,30sing,001,2023_Sep_25_1118,ProdSingRedoBetween,2021.2.3,59.951067938489864,
,,,,171,0,171,0,,,,,,,,,,,,,,,,,,,,,,1688.2946431,None,,,,,,,,,,,,,,,,,running,147,172,sing,new,null,1683.1451493999994,None,1683.1451493999994,None,3,3.6921595000003435,1683.1451493999994,None,3.6921595000003435,1686.8564833,None,1687.357058399999,None,1687.357058399999,None,f,0.9043676000001142,1687.357058399999,None,0.9043676000001142,,,30sing,001,2023_Sep_25_1118,ProdSingRedoBetween,2021.2.3,59.951067938489864,
,,,,172,0,172,0,,,,,,,,,,,,,,,,,,,,,,1693.9802702999987,None,,,,,,,,,,,,,,,,,pretty,21,173,sing,old,yellow,1688.8150884999995,None,1688.8150884999995,None,6,4.174307500001305,1688.8150884999995,None,4.174307500001305,1693.0194076999996,None,1693.5333962999994,None,1693.5333962999994,None,r,0.4319364000002679,1693.5333962999994,None,0.4319364000002679,,,30sing,001,2023_Sep_25_1118,ProdSingRedoBetween,2021.2.3,59.951067938489864,
,,,,173,0,173,0,,,,,,,,,,,,,,,,,,,,,,1696.9666082999993,None,,,,,,,,,,,,,,,,,crime,8,174,sing,old,yellow,1694.4900963,None,1694.4900963,None,6,1.643240199999127,1694.4900963,None,1.643240199999127,1696.156144999999,None,1696.6745852999993,None,1696.6745852999993,None,r,0.27475109999977576,1696.6745852999993,None,0.27475109999977576,,,30sing,001,2023_Sep_25_1118,ProdSingRedoBetween,2021.2.3,59.951067938489864,
,,,,174,0,174,0,,,,,,,,,,,,,,,,,,,,,,1706.5594714999988,None,,,,,,,,,,,,,,,,,little,36,175,sing,old,blue,1697.4725506999985,None,1697.4725506999985,None,4,7.748709899999085,1697.4725506999985,None,7.748709899999085,1705.2415707,None,1705.7427051999985,None,1705.7427051999985,None,f,0.7984605000001466,1705.7427051999985,None,0.7984605000001466,,,30sing,001,2023_Sep_25_1118,ProdSingRedoBetween,2021.2.3,59.951067938489864,
,,,,175,0,175,0,,,,,,,,,,,,,,,,,,,,,,1714.018229899999,None,,,,,,,,,,,,,,,,,broke,105,176,sing,new,null,1707.0696466999998,None,1707.0696466999998,None,6,6.215629000000263,1707.0696466999998,None,6.215629000000263,1713.3184385999994,None,1713.8335162999992,None,1713.8335162999992,None,r,0.16402729999936128,1713.8335162999992,None,0.16402729999936128,,,30sing,001,2023_Sep_25_1118,ProdSingRedoBetween,2021.2.3,59.951067938489864,
,,,,176,0,176,0,,,,,,,,,,,,,,,,,,,,,,1718.7047081,None,,,,,,,,,,,,,,,,,series,166,177,sing,new,null,1714.5212299999985,None,1714.5212299999985,None,3,2.876122600000599,1714.5212299999985,None,2.876122600000599,1717.425310999999,None,1717.9410129999997,None,1717.9410129999997,None,n,0.7443232000005082,1717.9410129999997,None,0.7443232000005082,,,30sing,001,2023_Sep_25_1118,ProdSingRedoBetween,2021.2.3,59.951067938489864,
,,,,177,0,177,0,,,,,,,,,,,,,,,,,,,,,,1722.4263801999987,None,,,,,,,,,,,,,,,,,prime,4,178,sing,old,yellow,1719.2196564999995,None,1719.2196564999995,None,6,2.329732399999557,1719.2196564999995,None,2.329732399999557,1721.578219699999,None,1722.1023593999998,None,1722.1023593999998,None,r,0.29505149999931746,1722.1023593999998,None,0.29505149999931746,,,30sing,001,2023_Sep_25_1118,ProdSingRedoBetween,2021.2.3,59.951067938489864,
,,,,178,0,178,0,,,,,,,,,,,,,,,,,,,,,,1733.2528938999985,None,,,,,,,,,,,,,,,,,vision,29,179,sing,old,blue,1722.9413678,None,1722.9413678,None,4,9.495974699999351,1722.9413678,None,9.495974699999351,1732.4721659999996,None,1732.9878954999986,None,1732.9878954999986,None,f,0.24942670000018552,1732.9878954999986,None,0.24942670000018552,,,30sing,001,2023_Sep_25_1118,ProdSingRedoBetween,2021.2.3,59.951067938489864,
,,,,179,0,179,0,,,,,,,,,,,,,,,,,,,,,,1747.2167422000002,None,,,,,,,,,,,,,,,,,narrow,111,180,sing,new,null,1733.7601611999999,None,1733.7601611999999,None,1,12.045291600001292,1733.7601611999999,None,12.045291600001292,1745.841386,None,1746.3503676,None,1746.3503676,None,n,0.8388994000015373,1746.3503676,None,0.8388994000015373,,,30sing,001,2023_Sep_25_1118,ProdSingRedoBetween,2021.2.3,59.951067938489864,
,,,,,,,,,,,,,,,,,,,,,,,,,,,,,,,,,,,,,,,,,,,,,,,,,,,,,,,,,,,,,,,,,,,,,,,,,1747.717953199999,None,,,,,,,
