StudyLoop.thisRepN,StudyLoop.thisTrialN,StudyLoop.thisN,StudyLoop.thisIndex,TestLoop.thisRepN,TestLoop.thisTrialN,TestLoop.thisN,TestLoop.thisIndex,textCondition.started,textCondition.stopped,keyCondition.keys,keyCondition.rt,keyCondition.started,keyCondition.stopped,Condition,textWelcome.started,textWelcome.stopped,keyWelcome.keys,keyWelcome.rt,keyWelcome.started,keyWelcome.stopped,textAloud.started,textAloud.stopped,textSilent.started,textSilent.stopped,textSing.started,textSing.stopped,conditional_text.started,conditional_text.stopped,textBlank500.started,textBlank500.stopped,study_word,study_num,study_order,study_type,word_color,textStudy.started,textStudy.stopped,keyStudy.keys,keyStudy.started,keyStudy.stopped,textTestInstructions.started,textTestInstructions.stopped,key_resp_3.keys,key_resp_3.rt,key_resp_3.started,key_resp_3.stopped,test_word,test_num,test_order,test_condition,old_new_test,test_word_original_color,textConf.started,textConf.stopped,textConfScale.started,textConfScale.stopped,keyConf.keys,keyConf.rt,keyConf.started,keyConf.stopped,confidence response time,textTestBlank.started,textTestBlank.stopped,textRKN.started,textRKN.stopped,textRKNScale.started,textRKNScale.stopped,keyRKN.keys,keyRKN.rt,keyRKN.started,keyRKN.stopped,rkn response time,textEnd.started,textEnd.stopped,participant,session,date,expName,psychopyVersion,frameRate,
,,,,,,,,42.01267349999398,None,c,4.139663299996755,42.01267349999398,None,,,,,,,,,,,,,,,,,,,,,,,,,,,,,,,,,,,,,,,,,,,,,,,,,,,,,,,,,,,,,,131Sing,001,2023_Sep_28_0955,ProdSingRedoBetween,2021.2.3,59.80238898663877,
,,,,,,,,,,,,,,SingTest,46.23130569999921,None,space,253.4892269999982,46.23130569999921,None,,,,,,,,,,,,,,,,,,,,,,,,,,,,,,,,,,,,,,,,,,,,,,,,,,,,,,,131Sing,001,2023_Sep_28_0955,ProdSingRedoBetween,2021.2.3,59.80238898663877,
0,0,0,0,,,,,,,,,,,,,,,,,,46.23130569999921,None,46.23130569999921,None,46.23130569999921,None,46.23130569999921,None,302.27274939999916,None,payment,31,1,sing,blue,300.26533510000445,None,None,300.26533510000445,None,,,,,,,,,,,,,,,,,,,,,,,,,,,,,,,,,,,131Sing,001,2023_Sep_28_0955,ProdSingRedoBetween,2021.2.3,59.80238898663877,
1,0,1,0,,,,,,,,,,,,,,,,,,,,,,,,,,304.77547629999754,None,drama,70,2,sing,red,302.77344679999806,None,None,302.77344679999806,None,,,,,,,,,,,,,,,,,,,,,,,,,,,,,,,,,,,131Sing,001,2023_Sep_28_0955,ProdSingRedoBetween,2021.2.3,59.80238898663877,
2,0,2,0,,,,,,,,,,,,,,,,,,,,,,,,,,307.277728999994,None,recall,37,3,sing,blue,305.27555340000254,None,None,305.27555340000254,None,,,,,,,,,,,,,,,,,,,,,,,,,,,,,,,,,,,131Sing,001,2023_Sep_28_0955,ProdSingRedoBetween,2021.2.3,59.80238898663877,
3,0,3,0,,,,,,,,,,,,,,,,,,,,,,,,,,309.7967137999949,None,permit,67,4,sing,red,307.79179479999584,None,None,307.79179479999584,None,,,,,,,,,,,,,,,,,,,,,,,,,,,,,,,,,,,131Sing,001,2023_Sep_28_0955,ProdSingRedoBetween,2021.2.3,59.80238898663877,
4,0,4,0,,,,,,,,,,,,,,,,,,,,,,,,,,312.29860019999614,None,phrase,35,5,sing,blue,310.297281799998,None,None,310.297281799998,None,,,,,,,,,,,,,,,,,,,,,,,,,,,,,,,,,,,131Sing,001,2023_Sep_28_0955,ProdSingRedoBetween,2021.2.3,59.80238898663877,
5,0,5,0,,,,,,,,,,,,,,,,,,,,,,,,,,314.80090469999413,None,relation,28,6,sing,yellow,312.7989560999995,None,None,312.7989560999995,None,,,,,,,,,,,,,,,,,,,,,,,,,,,,,,,,,,,131Sing,001,2023_Sep_28_0955,ProdSingRedoBetween,2021.2.3,59.80238898663877,
6,0,6,0,,,,,,,,,,,,,,,,,,,,,,,,,,317.3201759999938,None,trail,74,7,sing,red,315.3058127999975,None,None,315.3058127999975,None,,,,,,,,,,,,,,,,,,,,,,,,,,,,,,,,,,,131Sing,001,2023_Sep_28_0955,ProdSingRedoBetween,2021.2.3,59.80238898663877,
7,0,7,0,,,,,,,,,,,,,,,,,,,,,,,,,,319.8227203999995,None,tennis,85,8,sing,red,317.82368650000717,None,None,317.82368650000717,None,,,,,,,,,,,,,,,,,,,,,,,,,,,,,,,,,,,131Sing,001,2023_Sep_28_0955,ProdSingRedoBetween,2021.2.3,59.80238898663877,
8,0,8,0,,,,,,,,,,,,,,,,,,,,,,,,,,322.34181640000315,None,division,80,9,sing,red,320.32688710000366,None,None,320.32688710000366,None,,,,,,,,,,,,,,,,,,,,,,,,,,,,,,,,,,,131Sing,001,2023_Sep_28_0955,ProdSingRedoBetween,2021.2.3,59.80238898663877,
9,0,9,0,,,,,,,,,,,,,,,,,,,,,,,,,,324.86095050000586,None,personnel,39,10,sing,blue,322.853345800002,None,None,322.853345800002,None,,,,,,,,,,,,,,,,,,,,,,,,,,,,,,,,,,,131Sing,001,2023_Sep_28_0955,ProdSingRedoBetween,2021.2.3,59.80238898663877,
10,0,10,0,,,,,,,,,,,,,,,,,,,,,,,,,,327.3637261999975,None,state,48,11,sing,blue,325.36178500000096,None,None,325.36178500000096,None,,,,,,,,,,,,,,,,,,,,,,,,,,,,,,,,,,,131Sing,001,2023_Sep_28_0955,ProdSingRedoBetween,2021.2.3,59.80238898663877,
11,0,11,0,,,,,,,,,,,,,,,,,,,,,,,,,,329.866328899996,None,surprise,30,12,sing,blue,327.8641195999953,None,None,327.8641195999953,None,,,,,,,,,,,,,,,,,,,,,,,,,,,,,,,,,,,131Sing,001,2023_Sep_28_0955,ProdSingRedoBetween,2021.2.3,59.80238898663877,
12,0,12,0,,,,,,,,,,,,,,,,,,,,,,,,,,332.3848556000012,None,dozen,44,13,sing,blue,330.38331079999625,None,None,330.38331079999625,None,,,,,,,,,,,,,,,,,,,,,,,,,,,,,,,,,,,131Sing,001,2023_Sep_28_0955,ProdSingRedoBetween,2021.2.3,59.80238898663877,
13,0,13,0,,,,,,,,,,,,,,,,,,,,,,,,,,334.88797820000036,None,patient,24,14,sing,yellow,332.8860291000019,None,None,332.8860291000019,None,,,,,,,,,,,,,,,,,,,,,,,,,,,,,,,,,,,131Sing,001,2023_Sep_28_0955,ProdSingRedoBetween,2021.2.3,59.80238898663877,
14,0,14,0,,,,,,,,,,,,,,,,,,,,,,,,,,337.3903336999938,None,light,89,15,sing,red,335.3882195000042,None,None,335.3882195000042,None,,,,,,,,,,,,,,,,,,,,,,,,,,,,,,,,,,,131Sing,001,2023_Sep_28_0955,ProdSingRedoBetween,2021.2.3,59.80238898663877,
15,0,15,0,,,,,,,,,,,,,,,,,,,,,,,,,,339.909410399996,None,quantity,15,16,sing,yellow,337.9038628999988,None,None,337.9038628999988,None,,,,,,,,,,,,,,,,,,,,,,,,,,,,,,,,,,,131Sing,001,2023_Sep_28_0955,ProdSingRedoBetween,2021.2.3,59.80238898663877,
16,0,16,0,,,,,,,,,,,,,,,,,,,,,,,,,,342.4286754000059,None,comedy,60,17,sing,red,340.41465760000574,None,None,340.41465760000574,None,,,,,,,,,,,,,,,,,,,,,,,,,,,,,,,,,,,131Sing,001,2023_Sep_28_0955,ProdSingRedoBetween,2021.2.3,59.80238898663877,
17,0,17,0,,,,,,,,,,,,,,,,,,,,,,,,,,344.9311172000016,None,crime,59,18,sing,yellow,342.9291344999947,None,None,342.9291344999947,None,,,,,,,,,,,,,,,,,,,,,,,,,,,,,,,,,,,131Sing,001,2023_Sep_28_0955,ProdSingRedoBetween,2021.2.3,59.80238898663877,
18,0,18,0,,,,,,,,,,,,,,,,,,,,,,,,,,347.4501681999973,None,account,47,19,sing,blue,345.4384427000041,None,None,345.4384427000041,None,,,,,,,,,,,,,,,,,,,,,,,,,,,,,,,,,,,131Sing,001,2023_Sep_28_0955,ProdSingRedoBetween,2021.2.3,59.80238898663877,
19,0,19,0,,,,,,,,,,,,,,,,,,,,,,,,,,349.96975499999826,None,disease,79,20,sing,red,347.95462170000246,None,None,347.95462170000246,None,,,,,,,,,,,,,,,,,,,,,,,,,,,,,,,,,,,131Sing,001,2023_Sep_28_0955,ProdSingRedoBetween,2021.2.3,59.80238898663877,
20,0,20,0,,,,,,,,,,,,,,,,,,,,,,,,,,352.4721244999964,None,report,5,21,sing,yellow,350.4697712000052,None,None,350.4697712000052,None,,,,,,,,,,,,,,,,,,,,,,,,,,,,,,,,,,,131Sing,001,2023_Sep_28_0955,ProdSingRedoBetween,2021.2.3,59.80238898663877,
21,0,21,0,,,,,,,,,,,,,,,,,,,,,,,,,,354.974306899996,None,guest,78,22,sing,red,352.97448299999814,None,None,352.97448299999814,None,,,,,,,,,,,,,,,,,,,,,,,,,,,,,,,,,,,131Sing,001,2023_Sep_28_0955,ProdSingRedoBetween,2021.2.3,59.80238898663877,
22,0,22,0,,,,,,,,,,,,,,,,,,,,,,,,,,357.49377050000476,None,candidate,82,23,sing,red,355.4784612000076,None,None,355.4784612000076,None,,,,,,,,,,,,,,,,,,,,,,,,,,,,,,,,,,,131Sing,001,2023_Sep_28_0955,ProdSingRedoBetween,2021.2.3,59.80238898663877,
23,0,23,0,,,,,,,,,,,,,,,,,,,,,,,,,,359.99630670000624,None,death,36,24,sing,blue,357.9940376000013,None,None,357.9940376000013,None,,,,,,,,,,,,,,,,,,,,,,,,,,,,,,,,,,,131Sing,001,2023_Sep_28_0955,ProdSingRedoBetween,2021.2.3,59.80238898663877,
24,0,24,0,,,,,,,,,,,,,,,,,,,,,,,,,,362.49854450000566,None,goose,43,25,sing,blue,360.4987598000007,None,None,360.4987598000007,None,,,,,,,,,,,,,,,,,,,,,,,,,,,,,,,,,,,131Sing,001,2023_Sep_28_0955,ProdSingRedoBetween,2021.2.3,59.80238898663877,
25,0,25,0,,,,,,,,,,,,,,,,,,,,,,,,,,365.0010406000074,None,range,22,26,sing,yellow,363.000835800005,None,None,363.000835800005,None,,,,,,,,,,,,,,,,,,,,,,,,,,,,,,,,,,,131Sing,001,2023_Sep_28_0955,ProdSingRedoBetween,2021.2.3,59.80238898663877,
26,0,26,0,,,,,,,,,,,,,,,,,,,,,,,,,,367.503907899998,None,school,19,27,sing,yellow,365.5016753999953,None,None,365.5016753999953,None,,,,,,,,,,,,,,,,,,,,,,,,,,,,,,,,,,,131Sing,001,2023_Sep_28_0955,ProdSingRedoBetween,2021.2.3,59.80238898663877,
27,0,27,0,,,,,,,,,,,,,,,,,,,,,,,,,,370.00605359999463,None,drink,23,28,sing,yellow,368.00508479999553,None,None,368.00508479999553,None,,,,,,,,,,,,,,,,,,,,,,,,,,,,,,,,,,,131Sing,001,2023_Sep_28_0955,ProdSingRedoBetween,2021.2.3,59.80238898663877,
28,0,28,0,,,,,,,,,,,,,,,,,,,,,,,,,,372.52552920000744,None,citizen,55,29,sing,blue,370.5146139999997,None,None,370.5146139999997,None,,,,,,,,,,,,,,,,,,,,,,,,,,,,,,,,,,,131Sing,001,2023_Sep_28_0955,ProdSingRedoBetween,2021.2.3,59.80238898663877,
29,0,29,0,,,,,,,,,,,,,,,,,,,,,,,,,,375.0279589999991,None,subject,58,30,sing,blue,373.02566600000137,None,None,373.02566600000137,None,,,,,,,,,,,,,,,,,,,,,,,,,,,,,,,,,,,131Sing,001,2023_Sep_28_0955,ProdSingRedoBetween,2021.2.3,59.80238898663877,
30,0,30,0,,,,,,,,,,,,,,,,,,,,,,,,,,377.53028419999464,None,atmosphere,4,31,sing,yellow,375.52846149999823,None,None,375.52846149999823,None,,,,,,,,,,,,,,,,,,,,,,,,,,,,,,,,,,,131Sing,001,2023_Sep_28_0955,ProdSingRedoBetween,2021.2.3,59.80238898663877,
31,0,31,0,,,,,,,,,,,,,,,,,,,,,,,,,,380.0497342000017,None,measure,84,32,sing,red,378.0372736999998,None,None,378.0372736999998,None,,,,,,,,,,,,,,,,,,,,,,,,,,,,,,,,,,,131Sing,001,2023_Sep_28_0955,ProdSingRedoBetween,2021.2.3,59.80238898663877,
32,0,32,0,,,,,,,,,,,,,,,,,,,,,,,,,,382.5519593000063,None,broke,45,33,sing,blue,380.549781099995,None,None,380.549781099995,None,,,,,,,,,,,,,,,,,,,,,,,,,,,,,,,,,,,131Sing,001,2023_Sep_28_0955,ProdSingRedoBetween,2021.2.3,59.80238898663877,
33,0,33,0,,,,,,,,,,,,,,,,,,,,,,,,,,385.07104660000186,None,block,34,34,sing,blue,383.061203499994,None,None,383.061203499994,None,,,,,,,,,,,,,,,,,,,,,,,,,,,,,,,,,,,131Sing,001,2023_Sep_28_0955,ProdSingRedoBetween,2021.2.3,59.80238898663877,
34,0,34,0,,,,,,,,,,,,,,,,,,,,,,,,,,387.59012389999407,None,figure,56,35,sing,blue,385.5770041000069,None,None,385.5770041000069,None,,,,,,,,,,,,,,,,,,,,,,,,,,,,,,,,,,,131Sing,001,2023_Sep_28_0955,ProdSingRedoBetween,2021.2.3,59.80238898663877,
35,0,35,0,,,,,,,,,,,,,,,,,,,,,,,,,,390.09309130000474,None,marriage,21,36,sing,yellow,388.09082460000354,None,None,388.09082460000354,None,,,,,,,,,,,,,,,,,,,,,,,,,,,,,,,,,,,131Sing,001,2023_Sep_28_0955,ProdSingRedoBetween,2021.2.3,59.80238898663877,
36,0,36,0,,,,,,,,,,,,,,,,,,,,,,,,,,392.6121101000026,None,safety,32,37,sing,blue,390.5989938999992,None,None,390.5989938999992,None,,,,,,,,,,,,,,,,,,,,,,,,,,,,,,,,,,,131Sing,001,2023_Sep_28_0955,ProdSingRedoBetween,2021.2.3,59.80238898663877,
37,0,37,0,,,,,,,,,,,,,,,,,,,,,,,,,,395.1315420000028,None,carry,86,38,sing,red,393.11688840000716,None,None,393.11688840000716,None,,,,,,,,,,,,,,,,,,,,,,,,,,,,,,,,,,,131Sing,001,2023_Sep_28_0955,ProdSingRedoBetween,2021.2.3,59.80238898663877,
38,0,38,0,,,,,,,,,,,,,,,,,,,,,,,,,,397.63399230000505,None,mankind,2,39,sing,yellow,395.63168900000164,None,None,395.63168900000164,None,,,,,,,,,,,,,,,,,,,,,,,,,,,,,,,,,,,131Sing,001,2023_Sep_28_0955,ProdSingRedoBetween,2021.2.3,59.80238898663877,
39,0,39,0,,,,,,,,,,,,,,,,,,,,,,,,,,400.15286590000323,None,pancakes,1,40,sing,yellow,398.14094519999344,None,None,398.14094519999344,None,,,,,,,,,,,,,,,,,,,,,,,,,,,,,,,,,,,131Sing,001,2023_Sep_28_0955,ProdSingRedoBetween,2021.2.3,59.80238898663877,
40,0,40,0,,,,,,,,,,,,,,,,,,,,,,,,,,402.66251520000515,None,direction,50,41,sing,blue,400.6552381000074,None,None,400.6552381000074,None,,,,,,,,,,,,,,,,,,,,,,,,,,,,,,,,,,,131Sing,001,2023_Sep_28_0955,ProdSingRedoBetween,2021.2.3,59.80238898663877,
41,0,41,0,,,,,,,,,,,,,,,,,,,,,,,,,,405.17497490000096,None,bicycle,0,42,sing,yellow,403.17250879999483,None,None,403.17250879999483,None,,,,,,,,,,,,,,,,,,,,,,,,,,,,,,,,,,,131Sing,001,2023_Sep_28_0955,ProdSingRedoBetween,2021.2.3,59.80238898663877,
42,0,42,0,,,,,,,,,,,,,,,,,,,,,,,,,,407.6937120999937,None,break,62,43,sing,red,405.6863607999985,None,None,405.6863607999985,None,,,,,,,,,,,,,,,,,,,,,,,,,,,,,,,,,,,131Sing,001,2023_Sep_28_0955,ProdSingRedoBetween,2021.2.3,59.80238898663877,
43,0,43,0,,,,,,,,,,,,,,,,,,,,,,,,,,410.21312050000415,None,produce,13,44,sing,yellow,408.1984311999986,None,None,408.1984311999986,None,,,,,,,,,,,,,,,,,,,,,,,,,,,,,,,,,,,131Sing,001,2023_Sep_28_0955,ProdSingRedoBetween,2021.2.3,59.80238898663877,
44,0,44,0,,,,,,,,,,,,,,,,,,,,,,,,,,412.71543969999766,None,cousin,71,45,sing,red,410.7134292999981,None,None,410.7134292999981,None,,,,,,,,,,,,,,,,,,,,,,,,,,,,,,,,,,,131Sing,001,2023_Sep_28_0955,ProdSingRedoBetween,2021.2.3,59.80238898663877,
45,0,45,0,,,,,,,,,,,,,,,,,,,,,,,,,,415.21798970000236,None,dance,14,46,sing,yellow,413.21583180000016,None,None,413.21583180000016,None,,,,,,,,,,,,,,,,,,,,,,,,,,,,,,,,,,,131Sing,001,2023_Sep_28_0955,ProdSingRedoBetween,2021.2.3,59.80238898663877,
46,0,46,0,,,,,,,,,,,,,,,,,,,,,,,,,,417.7204639999982,None,second,17,47,sing,yellow,415.7184708999994,None,None,415.7184708999994,None,,,,,,,,,,,,,,,,,,,,,,,,,,,,,,,,,,,131Sing,001,2023_Sep_28_0955,ProdSingRedoBetween,2021.2.3,59.80238898663877,
47,0,47,0,,,,,,,,,,,,,,,,,,,,,,,,,,420.2229052000039,None,broad,49,48,sing,blue,418.2207900000067,None,None,418.2207900000067,None,,,,,,,,,,,,,,,,,,,,,,,,,,,,,,,,,,,131Sing,001,2023_Sep_28_0955,ProdSingRedoBetween,2021.2.3,59.80238898663877,
48,0,48,0,,,,,,,,,,,,,,,,,,,,,,,,,,422.74226319999434,None,error,63,49,sing,red,420.7319004000019,None,None,420.7319004000019,None,,,,,,,,,,,,,,,,,,,,,,,,,,,,,,,,,,,131Sing,001,2023_Sep_28_0955,ProdSingRedoBetween,2021.2.3,59.80238898663877,
49,0,49,0,,,,,,,,,,,,,,,,,,,,,,,,,,425.24455170000147,None,education,12,50,sing,yellow,423.2452568000008,None,None,423.2452568000008,None,,,,,,,,,,,,,,,,,,,,,,,,,,,,,,,,,,,131Sing,001,2023_Sep_28_0955,ProdSingRedoBetween,2021.2.3,59.80238898663877,
50,0,50,0,,,,,,,,,,,,,,,,,,,,,,,,,,427.74730669999553,None,beginning,83,51,sing,red,425.7451873999962,None,None,425.7451873999962,None,,,,,,,,,,,,,,,,,,,,,,,,,,,,,,,,,,,131Sing,001,2023_Sep_28_0955,ProdSingRedoBetween,2021.2.3,59.80238898663877,
51,0,51,0,,,,,,,,,,,,,,,,,,,,,,,,,,430.2494710000028,None,sight,54,52,sing,blue,428.2476617000066,None,None,428.2476617000066,None,,,,,,,,,,,,,,,,,,,,,,,,,,,,,,,,,,,131Sing,001,2023_Sep_28_0955,ProdSingRedoBetween,2021.2.3,59.80238898663877,
52,0,52,0,,,,,,,,,,,,,,,,,,,,,,,,,,432.76877359999344,None,search,61,53,sing,red,430.75287349999417,None,None,430.75287349999417,None,,,,,,,,,,,,,,,,,,,,,,,,,,,,,,,,,,,131Sing,001,2023_Sep_28_0955,ProdSingRedoBetween,2021.2.3,59.80238898663877,
53,0,53,0,,,,,,,,,,,,,,,,,,,,,,,,,,435.2712659999961,None,present,52,54,sing,blue,433.2691824000067,None,None,433.2691824000067,None,,,,,,,,,,,,,,,,,,,,,,,,,,,,,,,,,,,131Sing,001,2023_Sep_28_0955,ProdSingRedoBetween,2021.2.3,59.80238898663877,
54,0,54,0,,,,,,,,,,,,,,,,,,,,,,,,,,437.77365740000096,None,guide,11,55,sing,yellow,435.7717618000024,None,None,435.7717618000024,None,,,,,,,,,,,,,,,,,,,,,,,,,,,,,,,,,,,131Sing,001,2023_Sep_28_0955,ProdSingRedoBetween,2021.2.3,59.80238898663877,
55,0,55,0,,,,,,,,,,,,,,,,,,,,,,,,,,440.2762158999976,None,frank,25,56,sing,yellow,438.274525300003,None,None,438.274525300003,None,,,,,,,,,,,,,,,,,,,,,,,,,,,,,,,,,,,131Sing,001,2023_Sep_28_0955,ProdSingRedoBetween,2021.2.3,59.80238898663877,
56,0,56,0,,,,,,,,,,,,,,,,,,,,,,,,,,442.7789911,None,trial,9,57,sing,yellow,440.77691400000185,None,None,440.77691400000185,None,,,,,,,,,,,,,,,,,,,,,,,,,,,,,,,,,,,131Sing,001,2023_Sep_28_0955,ProdSingRedoBetween,2021.2.3,59.80238898663877,
57,0,57,0,,,,,,,,,,,,,,,,,,,,,,,,,,445.2812647999963,None,working,41,58,sing,blue,443.2792010999983,None,None,443.2792010999983,None,,,,,,,,,,,,,,,,,,,,,,,,,,,,,,,,,,,131Sing,001,2023_Sep_28_0955,ProdSingRedoBetween,2021.2.3,59.80238898663877,
58,0,58,0,,,,,,,,,,,,,,,,,,,,,,,,,,447.783772099996,None,charter,68,59,sing,red,445.7819339999987,None,None,445.7819339999987,None,,,,,,,,,,,,,,,,,,,,,,,,,,,,,,,,,,,131Sing,001,2023_Sep_28_0955,ProdSingRedoBetween,2021.2.3,59.80238898663877,
59,0,59,0,,,,,,,,,,,,,,,,,,,,,,,,,,450.28633970000374,None,color,10,60,sing,yellow,448.2842129000055,None,None,448.2842129000055,None,,,,,,,,,,,,,,,,,,,,,,,,,,,,,,,,,,,131Sing,001,2023_Sep_28_0955,ProdSingRedoBetween,2021.2.3,59.80238898663877,
60,0,60,0,,,,,,,,,,,,,,,,,,,,,,,,,,452.78868529999454,None,little,40,61,sing,blue,450.78686979999475,None,None,450.78686979999475,None,,,,,,,,,,,,,,,,,,,,,,,,,,,,,,,,,,,131Sing,001,2023_Sep_28_0955,ProdSingRedoBetween,2021.2.3,59.80238898663877,
61,0,61,0,,,,,,,,,,,,,,,,,,,,,,,,,,455.29120639999746,None,scene,75,62,sing,red,453.2892867000046,None,None,453.2892867000046,None,,,,,,,,,,,,,,,,,,,,,,,,,,,,,,,,,,,131Sing,001,2023_Sep_28_0955,ProdSingRedoBetween,2021.2.3,59.80238898663877,
62,0,62,0,,,,,,,,,,,,,,,,,,,,,,,,,,457.7938656000042,None,health,81,63,sing,red,455.79177470000286,None,None,455.79177470000286,None,,,,,,,,,,,,,,,,,,,,,,,,,,,,,,,,,,,131Sing,001,2023_Sep_28_0955,ProdSingRedoBetween,2021.2.3,59.80238898663877,
63,0,63,0,,,,,,,,,,,,,,,,,,,,,,,,,,460.2962908000045,None,partner,77,64,sing,red,458.2941015999968,None,None,458.2941015999968,None,,,,,,,,,,,,,,,,,,,,,,,,,,,,,,,,,,,131Sing,001,2023_Sep_28_0955,ProdSingRedoBetween,2021.2.3,59.80238898663877,
64,0,64,0,,,,,,,,,,,,,,,,,,,,,,,,,,462.81560800000443,None,election,42,65,sing,blue,460.80495069999597,None,None,460.80495069999597,None,,,,,,,,,,,,,,,,,,,,,,,,,,,,,,,,,,,131Sing,001,2023_Sep_28_0955,ProdSingRedoBetween,2021.2.3,59.80238898663877,
65,0,65,0,,,,,,,,,,,,,,,,,,,,,,,,,,465.33486420000554,None,story,7,66,sing,yellow,463.3271364999964,None,None,463.3271364999964,None,,,,,,,,,,,,,,,,,,,,,,,,,,,,,,,,,,,131Sing,001,2023_Sep_28_0955,ProdSingRedoBetween,2021.2.3,59.80238898663877,
66,0,66,0,,,,,,,,,,,,,,,,,,,,,,,,,,467.83742840000195,None,company,76,67,sing,red,465.8352018000005,None,None,465.8352018000005,None,,,,,,,,,,,,,,,,,,,,,,,,,,,,,,,,,,,131Sing,001,2023_Sep_28_0955,ProdSingRedoBetween,2021.2.3,59.80238898663877,
67,0,67,0,,,,,,,,,,,,,,,,,,,,,,,,,,470.3562884999992,None,opening,69,68,sing,red,468.3428375000076,None,None,468.3428375000076,None,,,,,,,,,,,,,,,,,,,,,,,,,,,,,,,,,,,131Sing,001,2023_Sep_28_0955,ProdSingRedoBetween,2021.2.3,59.80238898663877,
68,0,68,0,,,,,,,,,,,,,,,,,,,,,,,,,,472.87573250000423,None,pretty,6,69,sing,yellow,470.86151170000085,None,None,470.86151170000085,None,,,,,,,,,,,,,,,,,,,,,,,,,,,,,,,,,,,131Sing,001,2023_Sep_28_0955,ProdSingRedoBetween,2021.2.3,59.80238898663877,
69,0,69,0,,,,,,,,,,,,,,,,,,,,,,,,,,475.37817959999666,None,design,57,70,sing,blue,473.3757973000029,None,None,473.3757973000029,None,,,,,,,,,,,,,,,,,,,,,,,,,,,,,,,,,,,131Sing,001,2023_Sep_28_0955,ProdSingRedoBetween,2021.2.3,59.80238898663877,
70,0,70,0,,,,,,,,,,,,,,,,,,,,,,,,,,477.8972031000012,None,sleep,33,71,sing,blue,475.8892843000067,None,None,475.8892843000067,None,,,,,,,,,,,,,,,,,,,,,,,,,,,,,,,,,,,131Sing,001,2023_Sep_28_0955,ProdSingRedoBetween,2021.2.3,59.80238898663877,
71,0,71,0,,,,,,,,,,,,,,,,,,,,,,,,,,480.40029279999726,None,meeting,16,72,sing,yellow,478.39884720000555,None,None,478.39884720000555,None,,,,,,,,,,,,,,,,,,,,,,,,,,,,,,,,,,,131Sing,001,2023_Sep_28_0955,ProdSingRedoBetween,2021.2.3,59.80238898663877,
72,0,72,0,,,,,,,,,,,,,,,,,,,,,,,,,,482.9023004000046,None,trend,20,73,sing,yellow,480.9002829999954,None,None,480.9002829999954,None,,,,,,,,,,,,,,,,,,,,,,,,,,,,,,,,,,,131Sing,001,2023_Sep_28_0955,ProdSingRedoBetween,2021.2.3,59.80238898663877,
73,0,73,0,,,,,,,,,,,,,,,,,,,,,,,,,,485.4214884999965,None,welcome,73,74,sing,red,483.4068005000008,None,None,483.4068005000008,None,,,,,,,,,,,,,,,,,,,,,,,,,,,,,,,,,,,131Sing,001,2023_Sep_28_0955,ProdSingRedoBetween,2021.2.3,59.80238898663877,
74,0,74,0,,,,,,,,,,,,,,,,,,,,,,,,,,487.9237785000005,None,command,66,75,sing,red,485.922298999998,None,None,485.922298999998,None,,,,,,,,,,,,,,,,,,,,,,,,,,,,,,,,,,,131Sing,001,2023_Sep_28_0955,ProdSingRedoBetween,2021.2.3,59.80238898663877,
75,0,75,0,,,,,,,,,,,,,,,,,,,,,,,,,,490.4266262000019,None,stand,27,76,sing,yellow,488.42421009999816,None,None,488.42421009999816,None,,,,,,,,,,,,,,,,,,,,,,,,,,,,,,,,,,,131Sing,001,2023_Sep_28_0955,ProdSingRedoBetween,2021.2.3,59.80238898663877,
76,0,76,0,,,,,,,,,,,,,,,,,,,,,,,,,,492.9453995000076,None,drove,8,77,sing,yellow,490.9310739000066,None,None,490.9310739000066,None,,,,,,,,,,,,,,,,,,,,,,,,,,,,,,,,,,,131Sing,001,2023_Sep_28_0955,ProdSingRedoBetween,2021.2.3,59.80238898663877,
77,0,77,0,,,,,,,,,,,,,,,,,,,,,,,,,,495.46462329999486,None,scale,64,78,sing,red,493.4504037000006,None,None,493.4504037000006,None,,,,,,,,,,,,,,,,,,,,,,,,,,,,,,,,,,,131Sing,001,2023_Sep_28_0955,ProdSingRedoBetween,2021.2.3,59.80238898663877,
78,0,78,0,,,,,,,,,,,,,,,,,,,,,,,,,,497.9674648000073,None,clear,72,79,sing,red,495.9653279000049,None,None,495.9653279000049,None,,,,,,,,,,,,,,,,,,,,,,,,,,,,,,,,,,,131Sing,001,2023_Sep_28_0955,ProdSingRedoBetween,2021.2.3,59.80238898663877,
79,0,79,0,,,,,,,,,,,,,,,,,,,,,,,,,,500.4864111000061,None,interior,53,80,sing,blue,498.47898220000206,None,None,498.47898220000206,None,,,,,,,,,,,,,,,,,,,,,,,,,,,,,,,,,,,131Sing,001,2023_Sep_28_0955,ProdSingRedoBetween,2021.2.3,59.80238898663877,
80,0,80,0,,,,,,,,,,,,,,,,,,,,,,,,,,503.0056218999962,None,contract,29,81,sing,blue,500.9900018000044,None,None,500.9900018000044,None,,,,,,,,,,,,,,,,,,,,,,,,,,,,,,,,,,,131Sing,001,2023_Sep_28_0955,ProdSingRedoBetween,2021.2.3,59.80238898663877,
81,0,81,0,,,,,,,,,,,,,,,,,,,,,,,,,,505.5083311000053,None,shock,46,82,sing,blue,503.50607149999996,None,None,503.50607149999996,None,,,,,,,,,,,,,,,,,,,,,,,,,,,,,,,,,,,131Sing,001,2023_Sep_28_0955,ProdSingRedoBetween,2021.2.3,59.80238898663877,
82,0,82,0,,,,,,,,,,,,,,,,,,,,,,,,,,508.0108341000014,None,quiet,87,83,sing,red,506.0085633999988,None,None,506.0085633999988,None,,,,,,,,,,,,,,,,,,,,,,,,,,,,,,,,,,,131Sing,001,2023_Sep_28_0955,ProdSingRedoBetween,2021.2.3,59.80238898663877,
83,0,83,0,,,,,,,,,,,,,,,,,,,,,,,,,,510.5133849999984,None,fashion,26,84,sing,yellow,508.5111290000059,None,None,508.5111290000059,None,,,,,,,,,,,,,,,,,,,,,,,,,,,,,,,,,,,131Sing,001,2023_Sep_28_0955,ProdSingRedoBetween,2021.2.3,59.80238898663877,
84,0,84,0,,,,,,,,,,,,,,,,,,,,,,,,,,513.0155348999979,None,narrow,88,85,sing,red,511.01376469999377,None,None,511.01376469999377,None,,,,,,,,,,,,,,,,,,,,,,,,,,,,,,,,,,,131Sing,001,2023_Sep_28_0955,ProdSingRedoBetween,2021.2.3,59.80238898663877,
85,0,85,0,,,,,,,,,,,,,,,,,,,,,,,,,,515.5182257999986,None,position,38,86,sing,blue,513.516260999997,None,None,513.516260999997,None,,,,,,,,,,,,,,,,,,,,,,,,,,,,,,,,,,,131Sing,001,2023_Sep_28_0955,ProdSingRedoBetween,2021.2.3,59.80238898663877,
86,0,86,0,,,,,,,,,,,,,,,,,,,,,,,,,,518.0205562000046,None,sunset,51,87,sing,blue,516.0186551999941,None,None,516.0186551999941,None,,,,,,,,,,,,,,,,,,,,,,,,,,,,,,,,,,,131Sing,001,2023_Sep_28_0955,ProdSingRedoBetween,2021.2.3,59.80238898663877,
87,0,87,0,,,,,,,,,,,,,,,,,,,,,,,,,,520.5398165999941,None,people,3,88,sing,yellow,518.527039099994,None,None,518.527039099994,None,,,,,,,,,,,,,,,,,,,,,,,,,,,,,,,,,,,131Sing,001,2023_Sep_28_0955,ProdSingRedoBetween,2021.2.3,59.80238898663877,
88,0,88,0,,,,,,,,,,,,,,,,,,,,,,,,,,523.0426261999964,None,budget,18,89,sing,yellow,521.0406076000072,None,None,521.0406076000072,None,,,,,,,,,,,,,,,,,,,,,,,,,,,,,,,,,,,131Sing,001,2023_Sep_28_0955,ProdSingRedoBetween,2021.2.3,59.80238898663877,
89,0,89,0,,,,,,,,,,,,,,,,,,,,,,,,,,525.5446840000077,None,display,65,90,sing,red,523.5428321000072,None,None,523.5428321000072,None,,,,,,,,,,,,,,,,,,,,,,,,,,,,,,,,,,,131Sing,001,2023_Sep_28_0955,ProdSingRedoBetween,2021.2.3,59.80238898663877,
,,,,,,,,,,,,,,,,,,,,,,,,,,,,,,,,,,,,,,,,,526.0456596000004,None,k,169.3470612999954,526.0456596000004,None,,,,,,,,,,,,,,,,,,,,,,,,,,,,,131Sing,001,2023_Sep_28_0955,ProdSingRedoBetween,2021.2.3,59.80238898663877,
,,,,0,0,0,0,,,,,,,,,,,,,,,,,,,,,,714.5680885000038,None,,,,,,,,,,,,,,,,,dozen,44,1,sing,old,blue,695.9160463000007,None,695.9160463000007,None,6,7.844287799991434,695.9160463000007,None,7.844287799991434,703.7914760999993,None,704.3066227999952,None,704.3066227999952,None,r,10.237882899993565,704.3066227999952,None,10.237882899993565,,,131Sing,001,2023_Sep_28_0955,ProdSingRedoBetween,2021.2.3,59.80238898663877,
,,,,1,0,1,0,,,,,,,,,,,,,,,,,,,,,,723.0588838999975,None,,,,,,,,,,,,,,,,,broke,45,2,sing,old,blue,715.0676657000004,None,715.0676657000004,None,3,5.276892499998212,715.0676657000004,None,5.276892499998212,720.3739318000007,None,720.8795746999967,None,720.8795746999967,None,f,2.1607666999916546,720.8795746999967,None,2.1607666999916546,,,131Sing,001,2023_Sep_28_0955,ProdSingRedoBetween,2021.2.3,59.80238898663877,
,,,,2,0,2,0,,,,,,,,,,,,,,,,,,,,,,728.8145570000052,None,,,,,,,,,,,,,,,,,block,34,3,sing,old,blue,723.5720099000027,None,723.5720099000027,None,3,2.9644165999925463,723.5720099000027,None,2.9644165999925463,726.5647471999982,None,727.0795985000004,None,727.0795985000004,None,f,1.7048072999896249,727.0795985000004,None,1.7048072999896249,,,131Sing,001,2023_Sep_28_0955,ProdSingRedoBetween,2021.2.3,59.80238898663877,
,,,,3,0,3,0,,,,,,,,,,,,,,,,,,,,,,736.2054532000038,None,,,,,,,,,,,,,,,,,substance,93,4,sing,new,null,729.3319105999981,None,729.3319105999981,None,3,4.084453899995424,729.3319105999981,None,4.084453899995424,733.4360791999934,None,733.9452501000051,None,733.9452501000051,None,f,2.2310717000073055,733.9452501000051,None,2.2310717000073055,,,131Sing,001,2023_Sep_28_0955,ProdSingRedoBetween,2021.2.3,59.80238898663877,
,,,,4,0,4,0,,,,,,,,,,,,,,,,,,,,,,743.7462170000072,None,,,,,,,,,,,,,,,,,length,95,5,sing,new,null,736.715391699996,None,736.715391699996,None,3,4.981232399994042,736.715391699996,None,4.981232399994042,741.7277048999968,None,742.2282649999979,None,742.2282649999979,None,f,1.5002091000060318,742.2282649999979,None,1.5002091000060318,,,131Sing,001,2023_Sep_28_0955,ProdSingRedoBetween,2021.2.3,59.80238898663877,
,,,,5,0,5,0,,,,,,,,,,,,,,,,,,,,,,749.1517403000034,None,,,,,,,,,,,,,,,,,little,40,6,sing,old,blue,744.2468397000048,None,744.2468397000048,None,3,2.8736006999970414,744.2468397000048,None,2.8736006999970414,747.1495523000049,None,747.6579559999955,None,747.6579559999955,None,f,1.4626152999990154,747.6579559999955,None,1.4626152999990154,,,131Sing,001,2023_Sep_28_0955,ProdSingRedoBetween,2021.2.3,59.80238898663877,
,,,,6,0,6,0,,,,,,,,,,,,,,,,,,,,,,756.0917275999964,None,,,,,,,,,,,,,,,,,working,41,7,sing,old,blue,749.6521903999965,None,749.6521903999965,None,6,3.932329100003699,749.6521903999965,None,3.932329100003699,753.6063607999968,None,754.1152440000005,None,754.1152440000005,None,r,1.9491159000026528,754.1152440000005,None,1.9491159000026528,,,131Sing,001,2023_Sep_28_0955,ProdSingRedoBetween,2021.2.3,59.80238898663877,
,,,,7,0,7,0,,,,,,,,,,,,,,,,,,,,,,763.6495502000034,None,,,,,,,,,,,,,,,,,defeat,108,8,sing,new,null,756.5924310999981,None,756.5924310999981,None,3,3.8078912000055425,756.5924310999981,None,3.8078912000055425,760.4295285999979,None,760.930171400003,None,760.930171400003,None,f,2.6943077000032645,760.930171400003,None,2.6943077000032645,,,131Sing,001,2023_Sep_28_0955,ProdSingRedoBetween,2021.2.3,59.80238898663877,
,,,,8,0,8,0,,,,,,,,,,,,,,,,,,,,,,774.0814893000061,None,,,,,,,,,,,,,,,,,trend,20,9,sing,old,yellow,764.1627724999998,None,764.1627724999998,None,3,6.853674600002705,764.1627724999998,None,6.853674600002705,771.0404035999964,None,771.5442351999955,None,771.5442351999955,None,f,2.504373800009489,771.5442351999955,None,2.504373800009489,,,131Sing,001,2023_Sep_28_0955,ProdSingRedoBetween,2021.2.3,59.80238898663877,
,,,,9,0,9,0,,,,,,,,,,,,,,,,,,,,,,781.5026199999993,None,,,,,,,,,,,,,,,,,tough,147,10,sing,new,null,774.6054090999969,None,774.6054090999969,None,3,3.2351070000004256,774.6054090999969,None,3.2351070000004256,777.8671308000048,None,778.3841301000066,None,778.3841301000066,None,f,3.0964739000046393,778.3841301000066,None,3.0964739000046393,,,131Sing,001,2023_Sep_28_0955,ProdSingRedoBetween,2021.2.3,59.80238898663877,
,,,,10,0,10,0,,,,,,,,,,,,,,,,,,,,,,787.3463596000074,None,,,,,,,,,,,,,,,,,candidate,82,11,sing,old,red,782.0229339999933,None,782.0229339999933,None,6,2.9855846999998903,782.0229339999933,None,2.9855846999998903,785.0399447999953,None,785.561480400007,None,785.561480400007,None,r,1.7590644000010798,785.561480400007,None,1.7590644000010798,,,131Sing,001,2023_Sep_28_0955,ProdSingRedoBetween,2021.2.3,59.80238898663877,
,,,,11,0,11,0,,,,,,,,,,,,,,,,,,,,,,792.4633848999947,None,,,,,,,,,,,,,,,,,chief,163,12,sing,new,null,787.8579423000047,None,787.8579423000047,None,2,1.8785383999929763,787.8579423000047,None,1.8785383999929763,789.7607826000021,None,790.2808684000047,None,790.2808684000047,None,f,2.1516913999948883,790.2808684000047,None,2.1516913999948883,,,131Sing,001,2023_Sep_28_0955,ProdSingRedoBetween,2021.2.3,59.80238898663877,
,,,,12,0,12,0,,,,,,,,,,,,,,,,,,,,,,797.0160622999974,None,,,,,,,,,,,,,,,,,judge,169,13,sing,new,null,792.9789600000076,None,792.9789600000076,None,5,2.8216719000047306,792.9789600000076,None,2.8216719000047306,795.8318083000049,None,796.3440334000043,None,796.3440334000043,None,r,0.6565531000087503,796.3440334000043,None,0.6565531000087503,,,131Sing,001,2023_Sep_28_0955,ProdSingRedoBetween,2021.2.3,59.80238898663877,
,,,,13,0,13,0,,,,,,,,,,,,,,,,,,,,,,805.8917320000037,None,,,,,,,,,,,,,,,,,instrument,94,14,sing,new,null,797.5258804000041,None,797.5258804000041,None,2,3.9546958999999333,797.5258804000041,None,3.9546958999999333,801.5129719999968,None,802.0232817000069,None,802.0232817000069,None,f,3.8492133999970974,802.0232817000069,None,3.8492133999970974,,,131Sing,001,2023_Sep_28_0955,ProdSingRedoBetween,2021.2.3,59.80238898663877,
,,,,14,0,14,0,,,,,,,,,,,,,,,,,,,,,,810.8634138000052,None,,,,,,,,,,,,,,,,,force,178,15,sing,new,null,806.4018994999933,None,806.4018994999933,None,2,2.574584899994079,806.4018994999933,None,2.574584899994079,808.9986748999945,None,809.5231490000006,None,809.5231490000006,None,f,1.3173535000096308,809.5231490000006,None,1.3173535000096308,,,131Sing,001,2023_Sep_28_0955,ProdSingRedoBetween,2021.2.3,59.80238898663877,
,,,,15,0,15,0,,,,,,,,,,,,,,,,,,,,,,816.2187581000035,None,,,,,,,,,,,,,,,,,close,134,16,sing,new,null,811.3676247999974,None,811.3676247999974,None,2,2.4328113999945344,811.3676247999974,None,2.4328113999945344,813.8236239999969,None,814.3367872999952,None,814.3367872999952,None,f,1.8636152999970363,814.3367872999952,None,1.8636152999970363,,,131Sing,001,2023_Sep_28_0955,ProdSingRedoBetween,2021.2.3,59.80238898663877,
,,,,16,0,16,0,,,,,,,,,,,,,,,,,,,,,,819.8390293999983,None,,,,,,,,,,,,,,,,,light,89,17,sing,old,red,816.7295343000005,None,816.7295343000005,None,2,1.350992599996971,816.7295343000005,None,1.350992599996971,818.110350899995,None,818.6212597999984,None,818.6212597999984,None,f,1.1951910000061616,818.6212597999984,None,1.1951910000061616,,,131Sing,001,2023_Sep_28_0955,ProdSingRedoBetween,2021.2.3,59.80238898663877,
,,,,17,0,17,0,,,,,,,,,,,,,,,,,,,,,,823.0107201000064,None,,,,,,,,,,,,,,,,,century,104,18,sing,new,null,820.3547454999934,None,820.3547454999934,None,2,1.397717100000591,820.3547454999934,None,1.397717100000591,821.7757261999941,None,822.2750925,None,822.2750925,None,f,0.7095010000048205,822.2750925,None,0.7095010000048205,,,131Sing,001,2023_Sep_28_0955,ProdSingRedoBetween,2021.2.3,59.80238898663877,
,,,,18,0,18,0,,,,,,,,,,,,,,,,,,,,,,826.7125069000031,None,,,,,,,,,,,,,,,,,search,61,19,sing,old,red,823.5387943999958,None,823.5387943999958,None,3,1.6776667999947676,823.5387943999958,None,1.6776667999947676,825.2444009000028,None,825.7450574999966,None,825.7450574999966,None,f,0.9513524999929359,825.7450574999966,None,0.9513524999929359,,,131Sing,001,2023_Sep_28_0955,ProdSingRedoBetween,2021.2.3,59.80238898663877,
,,,,19,0,19,0,,,,,,,,,,,,,,,,,,,,,,835.5547388999985,None,,,,,,,,,,,,,,,,,article,124,20,sing,new,null,827.2210914000025,None,827.2210914000025,None,1,6.011401299998397,827.2210914000025,None,6.011401299998397,833.252249600002,None,833.7574300999986,None,833.7574300999986,None,f,1.7790096999960952,833.7574300999986,None,1.7790096999960952,,,131Sing,001,2023_Sep_28_0955,ProdSingRedoBetween,2021.2.3,59.80238898663877,
,,,,20,0,20,0,,,,,,,,,,,,,,,,,,,,,,841.4773436999967,None,,,,,,,,,,,,,,,,,territory,97,21,sing,new,null,836.0751449999952,None,836.0751449999952,None,4,2.909306600005948,836.0751449999952,None,2.909306600005948,839.0123222999973,None,839.5324924000015,None,839.5324924000015,None,r,1.916024300007848,839.5324924000015,None,1.916024300007848,,,131Sing,001,2023_Sep_28_0955,ProdSingRedoBetween,2021.2.3,59.80238898663877,
,,,,21,0,21,0,,,,,,,,,,,,,,,,,,,,,,846.2819117000035,None,,,,,,,,,,,,,,,,,mechanical,99,22,sing,new,null,841.9867308999965,None,841.9867308999965,None,2,1.5977708999998868,841.9867308999965,None,1.5977708999998868,843.6135216999974,None,844.1155722999974,None,844.1155722999974,None,f,2.1410395999992033,844.1155722999974,None,2.1410395999992033,,,131Sing,001,2023_Sep_28_0955,ProdSingRedoBetween,2021.2.3,59.80238898663877,
,,,,22,0,22,0,,,,,,,,,,,,,,,,,,,,,,850.6031223000027,None,,,,,,,,,,,,,,,,,spoke,119,23,sing,new,null,846.7943760000053,None,846.7943760000053,None,2,1.9421361999993678,846.7943760000053,None,1.9421361999993678,848.770915400004,None,849.2904993999982,None,849.2904993999982,None,f,1.285904099990148,849.2904993999982,None,1.285904099990148,,,131Sing,001,2023_Sep_28_0955,ProdSingRedoBetween,2021.2.3,59.80238898663877,
,,,,23,0,23,0,,,,,,,,,,,,,,,,,,,,,,854.2566667000065,None,,,,,,,,,,,,,,,,,dispute,162,24,sing,new,null,851.1176377999946,None,851.1176377999946,None,2,1.7788375999953132,851.1176377999946,None,1.7788375999953132,852.9237925000052,None,853.4392458000075,None,853.4392458000075,None,f,0.7932593999867095,853.4392458000075,None,0.7932593999867095,,,131Sing,001,2023_Sep_28_0955,ProdSingRedoBetween,2021.2.3,59.80238898663877,
,,,,24,0,24,0,,,,,,,,,,,,,,,,,,,,,,857.9437528999988,None,,,,,,,,,,,,,,,,,equipment,129,25,sing,new,null,854.7692537999974,None,854.7692537999974,None,3,1.5031995000026654,854.7692537999974,None,1.5031995000026654,856.2948378000001,None,856.8180093999981,None,856.8180093999981,None,f,1.0945297999860486,856.8180093999981,None,1.0945297999860486,,,131Sing,001,2023_Sep_28_0955,ProdSingRedoBetween,2021.2.3,59.80238898663877,
,,,,25,0,25,0,,,,,,,,,,,,,,,,,,,,,,861.9644466000027,None,,,,,,,,,,,,,,,,,suggestion,138,26,sing,new,null,858.4535208000016,None,858.4535208000016,None,1,2.402957199999946,858.4535208000016,None,2.402957199999946,860.8821136000042,None,861.4017737999966,None,861.4017737999966,None,f,0.5346962000039639,861.4017737999966,None,0.5346962000039639,,,131Sing,001,2023_Sep_28_0955,ProdSingRedoBetween,2021.2.3,59.80238898663877,
,,,,26,0,26,0,,,,,,,,,,,,,,,,,,,,,,866.3188166000036,None,,,,,,,,,,,,,,,,,native,148,27,sing,new,null,862.474128899994,None,862.474128899994,None,1,1.6705419000063557,862.474128899994,None,1.6705419000063557,864.1806439000065,None,864.6877666000073,None,864.6877666000073,None,f,1.6087262999935774,864.6877666000073,None,1.6087262999935774,,,131Sing,001,2023_Sep_28_0955,ProdSingRedoBetween,2021.2.3,59.80238898663877,
,,,,27,0,27,0,,,,,,,,,,,,,,,,,,,,,,870.1726678999985,None,,,,,,,,,,,,,,,,,republic,156,28,sing,new,null,866.8301733999979,None,866.8301733999979,None,1,1.9545844999956898,866.8301733999979,None,1.9545844999956898,868.8085878999991,None,869.3264269000065,None,869.3264269000065,None,f,0.8260431000089739,869.3264269000065,None,0.8260431000089739,,,131Sing,001,2023_Sep_28_0955,ProdSingRedoBetween,2021.2.3,59.80238898663877,
,,,,28,0,28,0,,,,,,,,,,,,,,,,,,,,,,873.676215200001,None,,,,,,,,,,,,,,,,,society,136,29,sing,new,null,870.6975596999982,None,870.6975596999982,None,1,1.6630117999884533,870.6975596999982,None,1.6630117999884533,872.3923665000038,None,872.8978361000045,None,872.8978361000045,None,f,0.7586794000089867,872.8978361000045,None,0.7586794000089867,,,131Sing,001,2023_Sep_28_0955,ProdSingRedoBetween,2021.2.3,59.80238898663877,
,,,,29,0,29,0,,,,,,,,,,,,,,,,,,,,,,878.1139391000033,None,,,,,,,,,,,,,,,,,minor,128,30,sing,new,null,874.1950530000031,None,874.1950530000031,None,2,2.8214134000008926,874.1950530000031,None,2.8214134000008926,877.0463061000046,None,877.5516352999985,None,877.5516352999985,None,f,0.5448370000085561,877.5516352999985,None,0.5448370000085561,,,131Sing,001,2023_Sep_28_0955,ProdSingRedoBetween,2021.2.3,59.80238898663877,
,,,,30,0,30,0,,,,,,,,,,,,,,,,,,,,,,881.4838642999966,None,,,,,,,,,,,,,,,,,narrow,88,31,sing,old,red,878.6255174999969,None,878.6255174999969,None,3,1.5751027999940561,878.6255174999969,None,1.5751027999940561,880.2266847999999,None,880.7358145000035,None,880.7358145000035,None,f,0.7286651999893365,880.7358145000035,None,0.7286651999893365,,,131Sing,001,2023_Sep_28_0955,ProdSingRedoBetween,2021.2.3,59.80238898663877,
,,,,31,0,31,0,,,,,,,,,,,,,,,,,,,,,,885.5547490000026,None,,,,,,,,,,,,,,,,,breath,141,32,sing,new,null,881.9935034999944,None,881.9935034999944,None,2,2.3349539000046207,881.9935034999944,None,2.3349539000046207,884.3533325000026,None,884.858181100004,None,884.858181100004,None,f,0.6781698999984656,884.858181100004,None,0.6781698999984656,,,131Sing,001,2023_Sep_28_0955,ProdSingRedoBetween,2021.2.3,59.80238898663877,
,,,,32,0,32,0,,,,,,,,,,,,,,,,,,,,,,889.1083074000053,None,,,,,,,,,,,,,,,,,display,65,33,sing,old,red,886.0585047000059,None,886.0585047000059,None,5,1.9899036999995587,886.0585047000059,None,1.9899036999995587,888.076129699999,None,888.5949043,None,888.5949043,None,r,0.48561740000150166,888.5949043,None,0.48561740000150166,,,131Sing,001,2023_Sep_28_0955,ProdSingRedoBetween,2021.2.3,59.80238898663877,
,,,,33,0,33,0,,,,,,,,,,,,,,,,,,,,,,892.912087699995,None,,,,,,,,,,,,,,,,,suspect,143,34,sing,new,null,889.6251690000063,None,889.6251690000063,None,2,1.9433435999962967,889.6251690000063,None,1.9433435999962967,891.5989322999958,None,892.1113235999946,None,892.1113235999946,None,f,0.7851723999920068,892.1113235999946,None,0.7851723999920068,,,131Sing,001,2023_Sep_28_0955,ProdSingRedoBetween,2021.2.3,59.80238898663877,
,,,,34,0,34,0,,,,,,,,,,,,,,,,,,,,,,895.6356863999972,None,,,,,,,,,,,,,,,,,reach,142,35,sing,new,null,893.4258664999943,None,893.4258664999943,None,2,1.3666462999972282,893.4258664999943,None,1.3666462999972282,894.8193959000055,None,895.3354370000015,None,895.3354370000015,None,f,0.28120789999957196,895.3354370000015,None,0.28120789999957196,,,131Sing,001,2023_Sep_28_0955,ProdSingRedoBetween,2021.2.3,59.80238898663877,
,,,,35,0,35,0,,,,,,,,,,,,,,,,,,,,,,900.6030765000032,None,,,,,,,,,,,,,,,,,revolution,140,36,sing,new,null,896.1604280000029,None,896.1604280000029,None,1,3.664064500000677,896.1604280000029,None,3.664064500000677,899.8579373999964,None,900.3772351999942,None,900.3772351999942,None,f,0.19928419998905156,900.3772351999942,None,0.19928419998905156,,,131Sing,001,2023_Sep_28_0955,ProdSingRedoBetween,2021.2.3,59.80238898663877,
,,,,36,0,36,0,,,,,,,,,,,,,,,,,,,,,,904.5236554000003,None,,,,,,,,,,,,,,,,,problem,152,37,sing,new,null,901.1181370999984,None,901.1181370999984,None,3,1.610274999999092,901.1181370999984,None,1.610274999999092,902.7580599000066,None,903.2748961000034,None,903.2748961000034,None,f,1.22152650001226,903.2748961000034,None,1.22152650001226,,,131Sing,001,2023_Sep_28_0955,ProdSingRedoBetween,2021.2.3,59.80238898663877,
,,,,37,0,37,0,,,,,,,,,,,,,,,,,,,,,,907.0428621000028,None,,,,,,,,,,,,,,,,,story,7,38,sing,old,yellow,905.0394958999968,None,905.0394958999968,None,2,1.2410631999955513,905.0394958999968,None,1.2410631999955513,906.3103816999937,None,906.834875200002,None,906.834875200002,None,f,0.18960949999745935,906.834875200002,None,0.18960949999745935,,,131Sing,001,2023_Sep_28_0955,ProdSingRedoBetween,2021.2.3,59.80238898663877,
,,,,38,0,38,0,,,,,,,,,,,,,,,,,,,,,,910.0625313000055,None,,,,,,,,,,,,,,,,,error,63,39,sing,old,red,907.5479855000012,None,907.5479855000012,None,6,1.6604721000039717,907.5479855000012,None,1.6604721000039717,909.2293502999964,None,909.7336374000006,None,909.7336374000006,None,r,0.3068673999950988,909.7336374000006,None,0.3068673999950988,,,131Sing,001,2023_Sep_28_0955,ProdSingRedoBetween,2021.2.3,59.80238898663877,
,,,,39,0,39,0,,,,,,,,,,,,,,,,,,,,,,917.5045776000043,None,,,,,,,,,,,,,,,,,income,175,40,sing,new,null,910.5751762,None,910.5751762,None,5,5.169306099996902,910.5751762,None,5.169306099996902,915.768221899998,None,916.2729932999937,None,916.2729932999937,None,r,1.1995851000101538,916.2729932999937,None,1.1995851000101538,,,131Sing,001,2023_Sep_28_0955,ProdSingRedoBetween,2021.2.3,59.80238898663877,
,,,,40,0,40,0,,,,,,,,,,,,,,,,,,,,,,925.6212126000028,None,,,,,,,,,,,,,,,,,color,10,41,sing,old,yellow,918.017416600007,None,918.017416600007,None,2,2.9670945999969263,918.017416600007,None,2.9670945999969263,921.0090530000016,None,921.5339664000057,None,921.5339664000057,None,f,4.050679899999523,921.5339664000057,None,4.050679899999523,,,131Sing,001,2023_Sep_28_0955,ProdSingRedoBetween,2021.2.3,59.80238898663877,
,,,,41,0,41,0,,,,,,,,,,,,,,,,,,,,,,933.3024127999961,None,,,,,,,,,,,,,,,,,bicycle,0,42,sing,old,yellow,926.1391765000008,None,926.1391765000008,None,6,3.613351399995736,926.1391765000008,None,3.613351399995736,929.7869782000053,None,930.3060230999981,None,930.3060230999981,None,r,2.966442200005986,930.3060230999981,None,2.966442200005986,,,131Sing,001,2023_Sep_28_0955,ProdSingRedoBetween,2021.2.3,59.80238898663877,
,,,,42,0,42,0,,,,,,,,,,,,,,,,,,,,,,936.4918460000044,None,,,,,,,,,,,,,,,,,attack,107,43,sing,new,null,933.8109503000014,None,933.8109503000014,None,6,1.9494956999988062,933.8109503000014,None,1.9494956999988062,935.7883934999991,None,936.293221400003,None,936.293221400003,None,r,0.17953389999456704,936.293221400003,None,0.17953389999456704,,,131Sing,001,2023_Sep_28_0955,ProdSingRedoBetween,2021.2.3,59.80238898663877,
,,,,43,0,43,0,,,,,,,,,,,,,,,,,,,,,,943.012012799998,None,,,,,,,,,,,,,,,,,report,5,44,sing,old,yellow,937.0135728000023,None,937.0135728000023,None,2,2.546958300008555,937.0135728000023,None,2.546958300008555,939.5789783999935,None,940.1009625000006,None,940.1009625000006,None,f,2.883542399998987,940.1009625000006,None,2.883542399998987,,,131Sing,001,2023_Sep_28_0955,ProdSingRedoBetween,2021.2.3,59.80238898663877,
,,,,44,0,44,0,,,,,,,,,,,,,,,,,,,,,,945.1550466000044,None,,,,,,,,,,,,,,,,,straight,123,45,sing,new,null,943.5242199000058,None,943.5242199000058,None,2,1.0522843999933684,943.5242199000058,None,1.0522843999933684,944.6007611999958,None,945.1249314000015,None,945.1249314000015,None,f,0.011563399995793588,945.1249314000015,None,0.011563399995793588,,,131Sing,001,2023_Sep_28_0955,ProdSingRedoBetween,2021.2.3,59.80238898663877,
,,,,45,0,45,0,,,,,,,,,,,,,,,,,,,,,,949.368762099999,None,,,,,,,,,,,,,,,,,partner,77,46,sing,old,red,945.6751510000031,None,945.6751510000031,None,6,2.781275599991204,945.6751510000031,None,2.781275599991204,948.4854142999975,None,948.990397600006,None,948.990397600006,None,r,0.3620738000026904,948.990397600006,None,0.3620738000026904,,,131Sing,001,2023_Sep_28_0955,ProdSingRedoBetween,2021.2.3,59.80238898663877,
,,,,46,0,46,0,,,,,,,,,,,,,,,,,,,,,,951.9710178999958,None,,,,,,,,,,,,,,,,,broad,49,47,sing,old,blue,949.8761649999942,None,949.8761649999942,None,6,1.324454200002947,949.8761649999942,None,1.324454200002947,951.2343048000039,None,951.7408457999991,None,951.7408457999991,None,r,0.21162449999246746,951.7408457999991,None,0.21162449999246746,,,131Sing,001,2023_Sep_28_0955,ProdSingRedoBetween,2021.2.3,59.80238898663877,
,,,,47,0,47,0,,,,,,,,,,,,,,,,,,,,,,956.4755809000053,None,,,,,,,,,,,,,,,,,death,36,48,sing,old,blue,952.4771782000025,None,952.4771782000025,None,6,1.5153620000055525,952.4771782000025,None,1.5153620000055525,954.0261730000057,None,954.5446697000007,None,954.5446697000007,None,r,1.9038253000035184,954.5446697000007,None,1.9038253000035184,,,131Sing,001,2023_Sep_28_0955,ProdSingRedoBetween,2021.2.3,59.80238898663877,
,,,,48,0,48,0,,,,,,,,,,,,,,,,,,,,,,959.7622727999988,None,,,,,,,,,,,,,,,,,clear,72,49,sing,old,red,956.994302799998,None,956.994302799998,None,6,2.1661430000094697,956.994302799998,None,2.1661430000094697,959.1797741000046,None,959.6846990000049,None,959.6846990000049,None,r,0.05979230000230018,959.6846990000049,None,0.05979230000230018,,,131Sing,001,2023_Sep_28_0955,ProdSingRedoBetween,2021.2.3,59.80238898663877,
,,,,49,0,49,0,,,,,,,,,,,,,,,,,,,,,,962.4979961000063,None,,,,,,,,,,,,,,,,,dance,14,50,sing,old,yellow,960.2747806999978,None,960.2747806999978,None,6,1.6376111999998102,960.2747806999978,None,1.6376111999998102,961.9321158999956,None,962.4357084000076,None,962.4357084000076,None,r,0.036739399991347454,962.4357084000076,None,0.036739399991347454,,,131Sing,001,2023_Sep_28_0955,ProdSingRedoBetween,2021.2.3,59.80238898663877,
,,,,50,0,50,0,,,,,,,,,,,,,,,,,,,,,,965.401168299999,None,,,,,,,,,,,,,,,,,sunset,51,51,sing,old,blue,963.0023176999966,None,963.0023176999966,None,2,1.2463169999973616,963.0023176999966,None,1.2463169999973616,964.279899000001,None,964.7888525000017,None,964.7888525000017,None,f,0.5877448999963235,964.7888525000017,None,0.5877448999963235,,,131Sing,001,2023_Sep_28_0955,ProdSingRedoBetween,2021.2.3,59.80238898663877,
,,,,51,0,51,0,,,,,,,,,,,,,,,,,,,,,,968.5565046999982,None,,,,,,,,,,,,,,,,,tragedy,159,52,sing,new,null,965.9134713999956,None,965.9134713999956,None,2,1.40703940000094,965.9134713999956,None,1.40703940000094,967.3398283999995,None,967.8554268000007,None,967.8554268000007,None,f,0.6731335000076797,967.8554268000007,None,0.6731335000076797,,,131Sing,001,2023_Sep_28_0955,ProdSingRedoBetween,2021.2.3,59.80238898663877,
,,,,52,0,52,0,,,,,,,,,,,,,,,,,,,,,,970.7897974999942,None,,,,,,,,,,,,,,,,,atmosphere,4,53,sing,old,yellow,969.0780191999947,None,969.0780191999947,None,1,1.0584721000050195,969.0780191999947,None,1.0584721000050195,970.1587870999938,None,970.679733099998,None,970.679733099998,None,f,0.08073450000665616,970.679733099998,None,0.08073450000665616,,,131Sing,001,2023_Sep_28_0955,ProdSingRedoBetween,2021.2.3,59.80238898663877,
,,,,53,0,53,0,,,,,,,,,,,,,,,,,,,,,,974.2609280000033,None,,,,,,,,,,,,,,,,,second,17,54,sing,old,yellow,971.3002491999941,None,971.3002491999941,None,1,1.588355700005195,971.3002491999941,None,1.588355700005195,972.9098741000053,None,973.4135220000026,None,973.4135220000026,None,f,0.8190111000003526,973.4135220000026,None,0.8190111000003526,,,131Sing,001,2023_Sep_28_0955,ProdSingRedoBetween,2021.2.3,59.80238898663877,
,,,,54,0,54,0,,,,,,,,,,,,,,,,,,,,,,976.5289813999989,None,,,,,,,,,,,,,,,,,people,3,55,sing,old,yellow,974.7643952999933,None,974.7643952999933,None,1,0.9800839999952586,974.7643952999933,None,0.9800839999952586,975.7645842000056,None,976.2831749000034,None,976.2831749000034,None,f,0.22939349999069236,976.2831749000034,None,0.22939349999069236,,,131Sing,001,2023_Sep_28_0955,ProdSingRedoBetween,2021.2.3,59.80238898663877,
,,,,55,0,55,0,,,,,,,,,,,,,,,,,,,,,,980.4022411000042,None,,,,,,,,,,,,,,,,,blind,109,56,sing,new,null,977.0426922000042,None,977.0426922000042,None,1,2.109865099992021,977.0426922000042,None,2.109865099992021,979.1829804000008,None,979.6844597000018,None,979.6844597000018,None,f,0.7002318000013474,979.6844597000018,None,0.7002318000013474,,,131Sing,001,2023_Sep_28_0955,ProdSingRedoBetween,2021.2.3,59.80238898663877,
,,,,56,0,56,0,,,,,,,,,,,,,,,,,,,,,,983.202234700002,None,,,,,,,,,,,,,,,,,direction,50,57,sing,old,blue,980.9241345000046,None,980.9241345000046,None,3,1.540403899998637,980.9241345000046,None,1.540403899998637,982.4858714000002,None,982.985488499995,None,982.985488499995,None,f,0.19901329999265727,982.985488499995,None,0.19901329999265727,,,131Sing,001,2023_Sep_28_0955,ProdSingRedoBetween,2021.2.3,59.80238898663877,
,,,,57,0,57,0,,,,,,,,,,,,,,,,,,,,,,989.0762230999972,None,,,,,,,,,,,,,,,,,figure,56,58,sing,old,blue,983.7130414999992,None,983.7130414999992,None,2,4.455483600002481,983.7130414999992,None,4.455483600002481,988.1932854000042,None,988.7076176999981,None,988.7076176999981,None,f,0.3408779000019422,988.7076176999981,None,0.3408779000019422,,,131Sing,001,2023_Sep_28_0955,ProdSingRedoBetween,2021.2.3,59.80238898663877,
,,,,58,0,58,0,,,,,,,,,,,,,,,,,,,,,,993.8328961999941,None,,,,,,,,,,,,,,,,,cousin,71,59,sing,old,red,989.5897208999959,None,989.5897208999959,None,6,2.386970699997619,989.5897208999959,None,2.386970699997619,992.0044195999944,None,992.5124976999941,None,992.5124976999941,None,r,1.2882225000066683,992.5124976999941,None,1.2882225000066683,,,131Sing,001,2023_Sep_28_0955,ProdSingRedoBetween,2021.2.3,59.80238898663877,
,,,,59,0,59,0,,,,,,,,,,,,,,,,,,,,,,997.6331708999933,None,,,,,,,,,,,,,,,,,safety,32,60,sing,old,blue,994.3598486999981,None,994.3598486999981,None,2,2.4808341000025393,994.3598486999981,None,2.4808341000025393,996.8736729999946,None,997.3866606999945,None,997.3866606999945,None,f,0.22995490000175778,997.3866606999945,None,0.22995490000175778,,,131Sing,001,2023_Sep_28_0955,ProdSingRedoBetween,2021.2.3,59.80238898663877,
,,,,60,0,60,0,,,,,,,,,,,,,,,,,,,,,,1001.7706177999935,None,,,,,,,,,,,,,,,,,recall,37,61,sing,old,blue,998.137015500004,None,998.137015500004,None,2,2.0157829000090715,998.137015500004,None,2.0157829000090715,1000.1794227000064,None,1000.6863269000023,None,1000.6863269000023,None,f,1.0581480000109877,1000.6863269000023,None,1.0581480000109877,,,131Sing,001,2023_Sep_28_0955,ProdSingRedoBetween,2021.2.3,59.80238898663877,
,,,,61,0,61,0,,,,,,,,,,,,,,,,,,,,,,1004.8092595000053,None,,,,,,,,,,,,,,,,,election,42,62,sing,old,blue,1002.282587099995,None,1002.282587099995,None,2,1.2619253999873763,1002.282587099995,None,1.2619253999873763,1003.5734808999987,None,1004.0732736000064,None,1004.0732736000064,None,f,0.7113428999873577,1004.0732736000064,None,0.7113428999873577,,,131Sing,001,2023_Sep_28_0955,ProdSingRedoBetween,2021.2.3,59.80238898663877,
,,,,62,0,62,0,,,,,,,,,,,,,,,,,,,,,,1012.2312582000013,None,,,,,,,,,,,,,,,,,school,19,63,sing,old,yellow,1005.3378971000056,None,1005.3378971000056,None,6,6.014753399998881,1005.3378971000056,None,6.014753399998881,1011.3904610000027,None,1011.9027780000033,None,1011.9027780000033,None,r,0.3137076000130037,1011.9027780000033,None,0.3137076000130037,,,131Sing,001,2023_Sep_28_0955,ProdSingRedoBetween,2021.2.3,59.80238898663877,
,,,,63,0,63,0,,,,,,,,,,,,,,,,,,,,,,1015.8181882000063,None,,,,,,,,,,,,,,,,,level,132,64,sing,new,null,1012.7426808000018,None,1012.7426808000018,None,2,1.985923799991724,1012.7426808000018,None,1.985923799991724,1014.7534305000008,None,1015.272220400002,None,1015.272220400002,None,f,0.5202773000055458,1015.272220400002,None,0.5202773000055458,,,131Sing,001,2023_Sep_28_0955,ProdSingRedoBetween,2021.2.3,59.80238898663877,
,,,,64,0,64,0,,,,,,,,,,,,,,,,,,,,,,1017.7866259000002,None,,,,,,,,,,,,,,,,,division,80,65,sing,old,red,1016.3359134000057,None,1016.3359134000057,None,2,0.8807805999967968,1016.3359134000057,None,0.8807805999967968,1017.2448495999997,None,1017.7552519000019,None,1017.7552519000019,None,f,0.005347900005290285,1017.7552519000019,None,0.005347900005290285,,,131Sing,001,2023_Sep_28_0955,ProdSingRedoBetween,2021.2.3,59.80238898663877,
,,,,65,0,65,0,,,,,,,,,,,,,,,,,,,,,,1022.3914732999983,None,,,,,,,,,,,,,,,,,individual,96,66,sing,new,null,1018.2967154000071,None,1018.2967154000071,None,5,2.9519405999890296,1018.2967154000071,None,2.9519405999890296,1021.2857662000024,None,1021.7956027000037,None,1021.7956027000037,None,r,0.5728910000034375,1021.7956027000037,None,0.5728910000034375,,,131Sing,001,2023_Sep_28_0955,ProdSingRedoBetween,2021.2.3,59.80238898663877,
,,,,66,0,66,0,,,,,,,,,,,,,,,,,,,,,,1026.7958654999966,None,,,,,,,,,,,,,,,,,crisis,174,67,sing,new,null,1022.9027922999958,None,1022.9027922999958,None,2,2.377739000003203,1022.9027922999958,None,2.377739000003203,1025.314479499997,None,1025.8283069000026,None,1025.8283069000026,None,f,0.9481809999997495,1025.8283069000026,None,0.9481809999997495,,,131Sing,001,2023_Sep_28_0955,ProdSingRedoBetween,2021.2.3,59.80238898663877,
,,,,67,0,67,0,,,,,,,,,,,,,,,,,,,,,,1030.0873278999934,None,,,,,,,,,,,,,,,,,taste,130,68,sing,new,null,1027.3065073000034,None,1027.3065073000034,None,1,2.1900217000074917,1027.3065073000034,None,2.1900217000074917,1029.516889999999,None,1030.039510100003,None,1030.039510100003,None,f,0.017243500013137236,1030.039510100003,None,0.017243500013137236,,,131Sing,001,2023_Sep_28_0955,ProdSingRedoBetween,2021.2.3,59.80238898663877,
,,,,68,0,68,0,,,,,,,,,,,,,,,,,,,,,,1034.8705743000028,None,,,,,,,,,,,,,,,,,front,145,69,sing,new,null,1030.6089925999986,None,1030.6089925999986,None,5,1.8875927000044612,1030.6089925999986,None,1.8875927000044612,1032.5279919000022,None,1033.0415986000007,None,1033.0415986000007,None,r,1.7989434999908553,1033.0415986000007,None,1.7989434999908553,,,131Sing,001,2023_Sep_28_0955,ProdSingRedoBetween,2021.2.3,59.80238898663877,
,,,,69,0,69,0,,,,,,,,,,,,,,,,,,,,,,1039.9796118999948,None,,,,,,,,,,,,,,,,,contract,29,70,sing,old,blue,1035.373818699998,None,1035.373818699998,None,4,2.346725499999593,1035.373818699998,None,2.346725499999593,1037.746612300005,None,1038.2616867000033,None,1038.2616867000033,None,r,1.698872200009646,1038.2616867000033,None,1.698872200009646,,,131Sing,001,2023_Sep_28_0955,ProdSingRedoBetween,2021.2.3,59.80238898663877,
,,,,70,0,70,0,,,,,,,,,,,,,,,,,,,,,,1043.5458386999962,None,,,,,,,,,,,,,,,,,drink,23,71,sing,old,yellow,1040.5032917000062,None,1040.5032917000062,None,6,1.761322399994242,1040.5032917000062,None,1.761322399994242,1042.3020690999983,None,1042.8133113000076,None,1042.8133113000076,None,r,0.7151714000065112,1042.8133113000076,None,0.7151714000065112,,,131Sing,001,2023_Sep_28_0955,ProdSingRedoBetween,2021.2.3,59.80238898663877,
,,,,71,0,71,0,,,,,,,,,,,,,,,,,,,,,,1049.8855726000038,None,,,,,,,,,,,,,,,,,congress,118,72,sing,new,null,1044.0578172999958,None,1044.0578172999958,None,2,4.518781200007652,1044.0578172999958,None,4.518781200007652,1048.6145426000003,None,1049.120447399997,None,1049.120447399997,None,f,0.7440366000082577,1049.120447399997,None,0.7440366000082577,,,131Sing,001,2023_Sep_28_0955,ProdSingRedoBetween,2021.2.3,59.80238898663877,
,,,,72,0,72,0,,,,,,,,,,,,,,,,,,,,,,1055.894053600001,None,,,,,,,,,,,,,,,,,goose,43,73,sing,old,blue,1050.398795000001,None,1050.398795000001,None,6,4.418050599997514,1050.398795000001,None,4.418050599997514,1054.8529258000053,None,1055.3599130000075,None,1055.3599130000075,None,r,0.5128595999995014,1055.3599130000075,None,0.5128595999995014,,,131Sing,001,2023_Sep_28_0955,ProdSingRedoBetween,2021.2.3,59.80238898663877,
,,,,73,0,73,0,,,,,,,,,,,,,,,,,,,,,,1058.8122737999947,None,,,,,,,,,,,,,,,,,budget,18,74,sing,old,yellow,1056.4126108000055,None,1056.4126108000055,None,6,1.4121693000051891,1056.4126108000055,None,1.4121693000051891,1057.8534583,None,1058.3640658999939,None,1058.3640658999939,None,r,0.4205108000023756,1058.3640658999939,None,0.4205108000023756,,,131Sing,001,2023_Sep_28_0955,ProdSingRedoBetween,2021.2.3,59.80238898663877,
,,,,74,0,74,0,,,,,,,,,,,,,,,,,,,,,,1063.1321671000042,None,,,,,,,,,,,,,,,,,mankind,2,75,sing,old,yellow,1059.3286069000023,None,1059.3286069000023,None,2,3.0479605000000447,1059.3286069000023,None,3.0479605000000447,1062.405677799994,None,1062.9209082000016,None,1062.9209082000016,None,f,0.1915694000053918,1062.9209082000016,None,0.1915694000053918,,,131Sing,001,2023_Sep_28_0955,ProdSingRedoBetween,2021.2.3,59.80238898663877,
,,,,75,0,75,0,,,,,,,,,,,,,,,,,,,,,,1065.1532258999941,None,,,,,,,,,,,,,,,,,machinery,171,76,sing,new,null,1063.6513399999967,None,1063.6513399999967,None,2,0.8372476000076858,1063.6513399999967,None,0.8372476000076858,1064.5228120999964,None,1065.039226199995,None,1065.039226199995,None,f,0.0815947000082815,1065.039226199995,None,0.0815947000082815,,,131Sing,001,2023_Sep_28_0955,ProdSingRedoBetween,2021.2.3,59.80238898663877,
,,,,76,0,76,0,,,,,,,,,,,,,,,,,,,,,,1066.7721990999999,None,,,,,,,,,,,,,,,,,music,125,77,sing,new,null,1065.6778709000064,None,1065.6778709000064,None,1,0.48266520000470337,1065.6778709000064,None,0.48266520000470337,1066.1889354000014,None,1066.7073858000076,None,1066.7073858000076,None,f,0.03729089999978896,1066.7073858000076,None,0.03729089999978896,,,131Sing,001,2023_Sep_28_0955,ProdSingRedoBetween,2021.2.3,59.80238898663877,
,,,,77,0,77,0,,,,,,,,,,,,,,,,,,,,,,1070.322820500005,None,,,,,,,,,,,,,,,,,personnel,39,78,sing,old,blue,1067.2908691000048,None,1067.2908691000048,None,3,2.029620299988892,1067.2908691000048,None,2.029620299988892,1069.3393341000046,None,1069.8473170999932,None,1069.8473170999932,None,f,0.45715000000200234,1069.8473170999932,None,0.45715000000200234,,,131Sing,001,2023_Sep_28_0955,ProdSingRedoBetween,2021.2.3,59.80238898663877,
,,,,78,0,78,0,,,,,,,,,,,,,,,,,,,,,,1073.9929963000031,None,,,,,,,,,,,,,,,,,trial,9,79,sing,old,yellow,1070.828530800005,None,1070.828530800005,None,6,2.1399579999997513,1070.828530800005,None,2.1399579999997513,1072.9917108999944,None,1073.4950365999975,None,1073.4950365999975,None,r,0.4815595999971265,1073.4950365999975,None,0.4815595999971265,,,131Sing,001,2023_Sep_28_0955,ProdSingRedoBetween,2021.2.3,59.80238898663877,
,,,,79,0,79,0,,,,,,,,,,,,,,,,,,,,,,1078.5307668000023,None,,,,,,,,,,,,,,,,,health,81,80,sing,old,red,1074.4952044999955,None,1074.4952044999955,None,6,2.041456899998593,1074.4952044999955,None,2.041456899998593,1076.565772700007,None,1077.0838143,None,1077.0838143,None,r,1.4286855999962427,1077.0838143,None,1.4286855999962427,,,131Sing,001,2023_Sep_28_0955,ProdSingRedoBetween,2021.2.3,59.80238898663877,
,,,,80,0,80,0,,,,,,,,,,,,,,,,,,,,,,1083.969622100005,None,,,,,,,,,,,,,,,,,research,120,81,sing,new,null,1079.0403824999958,None,1079.0403824999958,None,2,3.040110600006301,1079.0403824999958,None,3.040110600006301,1082.103935799998,None,1082.6184091000032,None,1082.6184091000032,None,f,1.3261383000062779,1082.6184091000032,None,1.3261383000062779,,,131Sing,001,2023_Sep_28_0955,ProdSingRedoBetween,2021.2.3,59.80238898663877,
,,,,81,0,81,0,,,,,,,,,,,,,,,,,,,,,,1087.007712000006,None,,,,,,,,,,,,,,,,,command,66,82,sing,old,red,1084.480317499998,None,1084.480317499998,None,1,1.3522584000020288,1084.480317499998,None,1.3522584000020288,1085.8545756999956,None,1086.3614352000004,None,1086.3614352000004,None,f,0.6150992000038968,1086.3614352000004,None,0.6150992000038968,,,131Sing,001,2023_Sep_28_0955,ProdSingRedoBetween,2021.2.3,59.80238898663877,
,,,,82,0,82,0,,,,,,,,,,,,,,,,,,,,,,1090.1257927999977,None,,,,,,,,,,,,,,,,,worker,153,83,sing,new,null,1087.5285113999998,None,1087.5285113999998,None,3,1.5680883999884827,1087.5285113999998,None,1.5680883999884827,1089.1329072999943,None,1089.6430240000045,None,1089.6430240000045,None,f,0.4614570999983698,1089.6430240000045,None,0.4614570999983698,,,131Sing,001,2023_Sep_28_0955,ProdSingRedoBetween,2021.2.3,59.80238898663877,
,,,,83,0,83,0,,,,,,,,,,,,,,,,,,,,,,1093.8962099000055,None,,,,,,,,,,,,,,,,,collection,114,84,sing,new,null,1090.635630100005,None,1090.635630100005,None,2,2.612880300002871,1090.635630100005,None,2.612880300002871,1093.2789137000073,None,1093.7795902999933,None,1093.7795902999933,None,f,0.10110320000967477,1093.7795902999933,None,0.10110320000967477,,,131Sing,001,2023_Sep_28_0955,ProdSingRedoBetween,2021.2.3,59.80238898663877,
,,,,84,0,84,0,,,,,,,,,,,,,,,,,,,,,,1096.0983220000053,None,,,,,,,,,,,,,,,,,account,47,85,sing,old,blue,1094.4076912000019,None,1094.4076912000019,None,1,0.9928142999997362,1094.4076912000019,None,0.9928142999997362,1095.4317393999954,None,1095.9316334000032,None,1095.9316334000032,None,f,0.14886410000326578,1095.9316334000032,None,0.14886410000326578,,,131Sing,001,2023_Sep_28_0955,ProdSingRedoBetween,2021.2.3,59.80238898663877,
,,,,85,0,85,0,,,,,,,,,,,,,,,,,,,,,,1099.1180412999965,None,,,,,,,,,,,,,,,,,charter,68,86,sing,old,red,1096.6079369999934,None,1096.6079369999934,None,6,1.6005798999976832,1096.6079369999934,None,1.6005798999976832,1098.2360122999962,None,1098.7532284000044,None,1098.7532284000044,None,r,0.34329479999723844,1098.7532284000044,None,0.34329479999723844,,,131Sing,001,2023_Sep_28_0955,ProdSingRedoBetween,2021.2.3,59.80238898663877,
,,,,86,0,86,0,,,,,,,,,,,,,,,,,,,,,,1102.805138900003,None,,,,,,,,,,,,,,,,,scene,75,87,sing,old,red,1099.6302230000001,None,1099.6302230000001,None,5,2.5863070000050357,1099.6302230000001,None,2.5863070000050357,1102.241897800006,None,1102.7666025000071,None,1102.7666025000071,None,r,0.017878600003314205,1102.7666025000071,None,0.017878600003314205,,,131Sing,001,2023_Sep_28_0955,ProdSingRedoBetween,2021.2.3,59.80238898663877,
,,,,87,0,87,0,,,,,,,,,,,,,,,,,,,,,,1105.3909684999962,None,,,,,,,,,,,,,,,,,weather,111,88,sing,new,null,1103.3145083999989,None,1103.3145083999989,None,1,0.9981453999935184,1103.3145083999989,None,0.9981453999935184,1104.350944100006,None,1104.859012300003,None,1104.859012300003,None,f,0.5094761999935145,1104.859012300003,None,0.5094761999935145,,,131Sing,001,2023_Sep_28_0955,ProdSingRedoBetween,2021.2.3,59.80238898663877,
,,,,88,0,88,0,,,,,,,,,,,,,,,,,,,,,,1110.2963160000072,None,,,,,,,,,,,,,,,,,youth,173,89,sing,new,null,1105.8953469999979,None,1105.8953469999979,None,1,3.289161399996374,1105.8953469999979,None,3.289161399996374,1109.214155900001,None,1109.728801300007,None,1109.728801300007,None,f,0.5438054000114789,1109.728801300007,None,0.5438054000114789,,,131Sing,001,2023_Sep_28_0955,ProdSingRedoBetween,2021.2.3,59.80238898663877,
,,,,89,0,89,0,,,,,,,,,,,,,,,,,,,,,,1114.049653199996,None,,,,,,,,,,,,,,,,,state,48,90,sing,old,blue,1110.809330300006,None,1110.809330300006,None,6,1.4790341000043554,1110.809330300006,None,1.4790341000043554,1112.3160420000058,None,1112.8191355000017,None,1112.8191355000017,None,r,1.205372200012789,1112.8191355000017,None,1.205372200012789,,,131Sing,001,2023_Sep_28_0955,ProdSingRedoBetween,2021.2.3,59.80238898663877,
,,,,90,0,90,0,,,,,,,,,,,,,,,,,,,,,,1117.504619200001,None,,,,,,,,,,,,,,,,,finish,151,91,sing,new,null,1114.5610613000026,None,1114.5610613000026,None,2,1.4954353000066476,1114.5610613000026,None,1.4954353000066476,1116.085989900006,None,1116.5970514999935,None,1116.5970514999935,None,f,0.8754772999964189,1116.5970514999935,None,0.8754772999964189,,,131Sing,001,2023_Sep_28_0955,ProdSingRedoBetween,2021.2.3,59.80238898663877,
,,,,91,0,91,0,,,,,,,,,,,,,,,,,,,,,,1122.7763097999996,None,,,,,,,,,,,,,,,,,crime,59,92,sing,old,yellow,1118.0173230000073,None,1118.0173230000073,None,6,2.447331599993049,1118.0173230000073,None,2.447331599993049,1120.4988499000028,None,1121.0067375000071,None,1121.0067375000071,None,f,1.737863300004392,1121.0067375000071,None,1.737863300004392,,,131Sing,001,2023_Sep_28_0955,ProdSingRedoBetween,2021.2.3,59.80238898663877,
,,,,92,0,92,0,,,,,,,,,,,,,,,,,,,,,,1128.2304589999985,None,,,,,,,,,,,,,,,,,produce,13,93,sing,old,yellow,1123.2807250000042,None,1123.2807250000042,None,2,3.039795199991204,1123.2807250000042,None,3.039795199991204,1126.350200700006,None,1126.8656434000004,None,1126.8656434000004,None,f,1.3428867000038736,1126.8656434000004,None,1.3428867000038736,,,131Sing,001,2023_Sep_28_0955,ProdSingRedoBetween,2021.2.3,59.80238898663877,
,,,,93,0,93,0,,,,,,,,,,,,,,,,,,,,,,1130.8831595999945,None,,,,,,,,,,,,,,,,,meeting,16,94,sing,old,yellow,1128.739924900001,None,1128.739924900001,None,3,1.4448181000043405,1128.739924900001,None,1.4448181000043405,1130.2238516999932,None,1130.7363175000064,None,1130.7363175000064,None,f,0.12021100000129081,1130.7363175000064,None,0.12021100000129081,,,131Sing,001,2023_Sep_28_0955,ProdSingRedoBetween,2021.2.3,59.80238898663877,
,,,,94,0,94,0,,,,,,,,,,,,,,,,,,,,,,1133.3855655999942,None,,,,,,,,,,,,,,,,,smooth,98,95,sing,new,null,1131.3929517999932,None,1131.3929517999932,None,1,1.3195735000044806,1131.3929517999932,None,1.3195735000044806,1132.7366712999938,None,1133.2553407999949,None,1133.2553407999949,None,f,0.10546550000435673,1133.2553407999949,None,0.10546550000435673,,,131Sing,001,2023_Sep_28_0955,ProdSingRedoBetween,2021.2.3,59.80238898663877,
,,,,95,0,95,0,,,,,,,,,,,,,,,,,,,,,,1136.390587700007,None,,,,,,,,,,,,,,,,,emergency,105,96,sing,new,null,1133.8976173999981,None,1133.8976173999981,None,1,1.4149000999896089,1133.8976173999981,None,1.4149000999896089,1135.338863500001,None,1135.845157200005,None,1135.845157200005,None,f,0.5235172999964561,1135.845157200005,None,0.5235172999964561,,,131Sing,001,2023_Sep_28_0955,ProdSingRedoBetween,2021.2.3,59.80238898663877,
,,,,96,0,96,0,,,,,,,,,,,,,,,,,,,,,,1140.4259601999947,None,,,,,,,,,,,,,,,,,opening,69,97,sing,old,red,1136.906202500002,None,1136.906202500002,None,2,2.342391999991378,1136.906202500002,None,2.342391999991378,1139.2746196999942,None,1139.778747400007,None,1139.778747400007,None,f,0.6217780000006314,1139.778747400007,None,0.6217780000006314,,,131Sing,001,2023_Sep_28_0955,ProdSingRedoBetween,2021.2.3,59.80238898663877,
,,,,97,0,97,0,,,,,,,,,,,,,,,,,,,,,,1149.902090500007,None,,,,,,,,,,,,,,,,,present,52,98,sing,old,blue,1140.9343676999997,None,1140.9343676999997,None,6,6.834232099994551,1140.9343676999997,None,6.834232099994551,1147.7891788999987,None,1148.3006414999982,None,1148.3006414999982,None,r,1.5718492000014521,1148.3006414999982,None,1.5718492000014521,,,131Sing,001,2023_Sep_28_0955,ProdSingRedoBetween,2021.2.3,59.80238898663877,
,,,,98,0,98,0,,,,,,,,,,,,,,,,,,,,,,1152.9383052000048,None,,,,,,,,,,,,,,,,,bright,165,99,sing,new,null,1150.412240000005,None,1150.412240000005,None,6,1.4043503000139026,1150.412240000005,None,1.4043503000139026,1151.8431502000021,None,1152.3595588000026,None,1152.3595588000026,None,r,0.5530598000041209,1152.3595588000026,None,0.5530598000041209,,,131Sing,001,2023_Sep_28_0955,ProdSingRedoBetween,2021.2.3,59.80238898663877,
,,,,99,0,99,0,,,,,,,,,,,,,,,,,,,,,,1156.4752967999957,None,,,,,,,,,,,,,,,,,capital,158,100,sing,new,null,1153.4496398000047,None,1153.4496398000047,None,6,2.374856299997191,1153.4496398000047,None,2.374856299997191,1155.845971799994,None,1156.3667959000013,None,1156.3667959000013,None,r,0.08980090000841301,1156.3667959000013,None,0.08980090000841301,,,131Sing,001,2023_Sep_28_0955,ProdSingRedoBetween,2021.2.3,59.80238898663877,
,,,,100,0,100,0,,,,,,,,,,,,,,,,,,,,,,1159.8117893000017,None,,,,,,,,,,,,,,,,,permit,67,101,sing,old,red,1156.980481599996,None,1156.980481599996,None,6,1.8042073999968125,1156.980481599996,None,1.8042073999968125,1158.8179682000045,None,1159.3336514999974,None,1159.3336514999974,None,r,0.4587638999946648,1159.3336514999974,None,0.4587638999946648,,,131Sing,001,2023_Sep_28_0955,ProdSingRedoBetween,2021.2.3,59.80238898663877,
,,,,101,0,101,0,,,,,,,,,,,,,,,,,,,,,,1163.200335600006,None,,,,,,,,,,,,,,,,,prime,154,102,sing,new,null,1160.3260713000054,None,1160.3260713000054,None,5,1.0186150000081398,1160.3260713000054,None,1.0186150000081398,1161.3803264000016,None,1161.8824924999935,None,1161.8824924999935,None,r,1.2941335000068648,1161.8824924999935,None,1.2941335000068648,,,131Sing,001,2023_Sep_28_0955,ProdSingRedoBetween,2021.2.3,59.80238898663877,
,,,,102,0,102,0,,,,,,,,,,,,,,,,,,,,,,1166.818828500007,None,,,,,,,,,,,,,,,,,quiet,87,103,sing,old,red,1163.7196135999984,None,1163.7196135999984,None,2,2.06490230000054,1163.7196135999984,None,2.06490230000054,1165.805205800003,None,1166.3301130000036,None,1166.3301130000036,None,f,0.47031520000018645,1166.3301130000036,None,0.47031520000018645,,,131Sing,001,2023_Sep_28_0955,ProdSingRedoBetween,2021.2.3,59.80238898663877,
,,,,103,0,103,0,,,,,,,,,,,,,,,,,,,,,,1176.3285580999946,None,,,,,,,,,,,,,,,,,frank,25,104,sing,old,yellow,1167.3349317999964,None,1167.3349317999964,None,5,7.921691000010469,1167.3349317999964,None,7.921691000010469,1175.2875709000073,None,1175.798251500004,None,1175.798251500004,None,r,0.5062585999985458,1175.798251500004,None,0.5062585999985458,,,131Sing,001,2023_Sep_28_0955,ProdSingRedoBetween,2021.2.3,59.80238898663877,
,,,,104,0,104,0,,,,,,,,,,,,,,,,,,,,,,1188.6074969000038,None,,,,,,,,,,,,,,,,,guide,11,105,sing,old,yellow,1176.8380034000002,None,1176.8380034000002,None,2,8.930688499996904,1176.8380034000002,None,8.930688499996904,1185.795250700001,None,1186.3053228000063,None,1186.3053228000063,None,f,2.2712249999894993,1186.3053228000063,None,2.2712249999894993,,,131Sing,001,2023_Sep_28_0955,ProdSingRedoBetween,2021.2.3,59.80238898663877,
,,,,105,0,105,0,,,,,,,,,,,,,,,,,,,,,,1196.0315548000071,None,,,,,,,,,,,,,,,,,range,22,106,sing,old,yellow,1189.1163650999952,None,1189.1163650999952,None,3,3.7401628000079654,1189.1163650999952,None,3.7401628000079654,1192.8782099999953,None,1193.3831325000065,None,1193.3831325000065,None,r,2.6175485999992816,1193.3831325000065,None,2.6175485999992816,,,131Sing,001,2023_Sep_28_0955,ProdSingRedoBetween,2021.2.3,59.80238898663877,
,,,,106,0,106,0,,,,,,,,,,,,,,,,,,,,,,1202.7716464999976,None,,,,,,,,,,,,,,,,,beauty,170,107,sing,new,null,1196.5357279000018,None,1196.5357279000018,None,5,4.289030100000673,1196.5357279000018,None,4.289030100000673,1200.865720899994,None,1201.3709994999954,None,1201.3709994999954,None,r,1.3734364000119967,1201.3709994999954,None,1.3734364000119967,,,131Sing,001,2023_Sep_28_0955,ProdSingRedoBetween,2021.2.3,59.80238898663877,
,,,,107,0,107,0,,,,,,,,,,,,,,,,,,,,,,1206.6088144999958,None,,,,,,,,,,,,,,,,,subject,58,108,sing,old,blue,1203.2832337,None,1203.2832337,None,6,1.8534274999983609,1203.2832337,None,1.8534274999983609,1205.1669981000014,None,1205.6782532999932,None,1205.6782532999932,None,r,0.9062693000014406,1205.6782532999932,None,0.9062693000014406,,,131Sing,001,2023_Sep_28_0955,ProdSingRedoBetween,2021.2.3,59.80238898663877,
,,,,108,0,108,0,,,,,,,,,,,,,,,,,,,,,,1212.8999520999932,None,,,,,,,,,,,,,,,,,pancakes,1,109,sing,old,yellow,1207.1196889999992,None,1207.1196889999992,None,1,1.760805199999595,1207.1196889999992,None,1.760805199999595,1208.9131433000002,None,1209.433784199995,None,1209.433784199995,None,f,3.4468869999982417,1209.433784199995,None,3.4468869999982417,,,131Sing,001,2023_Sep_28_0955,ProdSingRedoBetween,2021.2.3,59.80238898663877,
,,,,109,0,109,0,,,,,,,,,,,,,,,,,,,,,,1219.3048388000025,None,,,,,,,,,,,,,,,,,appearance,117,110,sing,new,null,1213.4151662000077,None,1213.4151662000077,None,5,3.3213610999955563,1213.4151662000077,None,3.3213610999955563,1216.755636700007,None,1217.2723992999963,None,1217.2723992999963,None,f,2.008162500002072,1217.2723992999963,None,2.008162500002072,,,131Sing,001,2023_Sep_28_0955,ProdSingRedoBetween,2021.2.3,59.80238898663877,
,,,,110,0,110,0,,,,,,,,,,,,,,,,,,,,,,1224.4430107999942,None,,,,,,,,,,,,,,,,,minute,172,111,sing,new,null,1219.8121793000028,None,1219.8121793000028,None,5,2.588380100001814,1219.8121793000028,None,2.588380100001814,1222.4330190000037,None,1222.9437149000005,None,1222.9437149000005,None,f,1.4808776999998372,1222.9437149000005,None,1.4808776999998372,,,131Sing,001,2023_Sep_28_0955,ProdSingRedoBetween,2021.2.3,59.80238898663877,
,,,,111,0,111,0,,,,,,,,,,,,,,,,,,,,,,1228.0468965000036,None,,,,,,,,,,,,,,,,,heavy,110,112,sing,new,null,1224.9545897000062,None,1224.9545897000062,None,5,1.3659259000123711,1224.9545897000062,None,1.3659259000123711,1226.3468185999955,None,1226.8686790000065,None,1226.8686790000065,None,f,1.1478474000032293,1226.8686790000065,None,1.1478474000032293,,,131Sing,001,2023_Sep_28_0955,ProdSingRedoBetween,2021.2.3,59.80238898663877,
,,,,112,0,112,0,,,,,,,,,,,,,,,,,,,,,,1231.9858777000045,None,,,,,,,,,,,,,,,,,strain,103,113,sing,new,null,1228.552006900005,None,1228.552006900005,None,6,2.776651399995899,1228.552006900005,None,2.776651399995899,1231.3573923999938,None,1231.8733396000025,None,1231.8733396000025,None,r,0.09537209999689367,1231.8733396000025,None,0.09537209999689367,,,131Sing,001,2023_Sep_28_0955,ProdSingRedoBetween,2021.2.3,59.80238898663877,
,,,,113,0,113,0,,,,,,,,,,,,,,,,,,,,,,1234.9383800000069,None,,,,,,,,,,,,,,,,,production,161,114,sing,new,null,1232.5063044999988,None,1232.5063044999988,None,6,1.2302091000019573,1232.5063044999988,None,1.2302091000019573,1233.7541977999936,None,1234.2613845000014,None,1234.2613845000014,None,r,0.6512730000104057,1234.2613845000014,None,0.6512730000104057,,,131Sing,001,2023_Sep_28_0955,ProdSingRedoBetween,2021.2.3,59.80238898663877,
,,,,114,0,114,0,,,,,,,,,,,,,,,,,,,,,,1239.074579799999,None,,,,,,,,,,,,,,,,,measure,84,115,sing,old,red,1235.441457599998,None,1235.441457599998,None,6,1.8471923000033712,1235.441457599998,None,1.8471923000033712,1237.3176551999932,None,1237.8319514000032,None,1237.8319514000032,None,r,1.224517399998149,1237.8319514000032,None,1.224517399998149,,,131Sing,001,2023_Sep_28_0955,ProdSingRedoBetween,2021.2.3,59.80238898663877,
,,,,115,0,115,0,,,,,,,,,,,,,,,,,,,,,,1241.8290792000043,None,,,,,,,,,,,,,,,,,citizen,55,116,sing,old,blue,1239.5806534000003,None,1239.5806534000003,None,6,1.4919168000051286,1239.5806534000003,None,1.4919168000051286,1241.0979367999971,None,1241.6115212000004,None,1241.6115212000004,None,r,0.19721870000648778,1241.6115212000004,None,0.19721870000648778,,,131Sing,001,2023_Sep_28_0955,ProdSingRedoBetween,2021.2.3,59.80238898663877,
,,,,116,0,116,0,,,,,,,,,,,,,,,,,,,,,,1249.0023705000058,None,,,,,,,,,,,,,,,,,guest,78,117,sing,old,red,1242.3475526999973,None,1242.3475526999973,None,2,4.781037599997944,1242.3475526999973,None,4.781037599997944,1247.1547993999993,None,1247.6737304999988,None,1247.6737304999988,None,f,1.3028136999928392,1247.6737304999988,None,1.3028136999928392,,,131Sing,001,2023_Sep_28_0955,ProdSingRedoBetween,2021.2.3,59.80238898663877,
,,,,117,0,117,0,,,,,,,,,,,,,,,,,,,,,,1252.2376872000023,None,,,,,,,,,,,,,,,,,disease,79,118,sing,old,red,1249.5057611999946,None,1249.5057611999946,None,1,1.3668872999987798,1249.5057611999946,None,1.3668872999987798,1250.914151200006,None,1251.423365900002,None,1251.423365900002,None,f,0.7851467000000412,1251.423365900002,None,0.7851467000000412,,,131Sing,001,2023_Sep_28_0955,ProdSingRedoBetween,2021.2.3,59.80238898663877,
,,,,118,0,118,0,,,,,,,,,,,,,,,,,,,,,,1259.2613204999943,None,,,,,,,,,,,,,,,,,religion,155,119,sing,new,null,1252.7430857,None,1252.7430857,None,1,5.2494062000041595,1252.7430857,None,5.2494062000041595,1258.0122099,None,1258.5335383000056,None,1258.5335383000056,None,f,0.6990993000072194,1258.5335383000056,None,0.6990993000072194,,,131Sing,001,2023_Sep_28_0955,ProdSingRedoBetween,2021.2.3,59.80238898663877,
,,,,119,0,119,0,,,,,,,,,,,,,,,,,,,,,,1264.6167296000058,None,,,,,,,,,,,,,,,,,comedy,60,120,sing,old,red,1259.7736244999978,None,1259.7736244999978,None,1,3.20291079999879,1259.7736244999978,None,3.20291079999879,1262.999867999999,None,1263.5064630999987,None,1263.5064630999987,None,f,1.0861064000055194,1263.5064630999987,None,1.0861064000055194,,,131Sing,001,2023_Sep_28_0955,ProdSingRedoBetween,2021.2.3,59.80238898663877,
,,,,120,0,120,0,,,,,,,,,,,,,,,,,,,,,,1269.473143700001,None,,,,,,,,,,,,,,,,,raise,168,121,sing,new,null,1265.1212491000042,None,1265.1212491000042,None,3,2.4232822000049055,1265.1212491000042,None,2.4232822000049055,1267.5769058000005,None,1268.0966870999982,None,1268.0966870999982,None,f,1.359928999998374,1268.0966870999982,None,1.359928999998374,,,131Sing,001,2023_Sep_28_0955,ProdSingRedoBetween,2021.2.3,59.80238898663877,
,,,,121,0,121,0,,,,,,,,,,,,,,,,,,,,,,1272.2910643000068,None,,,,,,,,,,,,,,,,,debate,106,122,sing,new,null,1269.9766222000035,None,1269.9766222000035,None,2,1.6079485000082059,1269.9766222000035,None,1.6079485000082059,1271.6133435999946,None,1272.1277988000074,None,1272.1277988000074,None,f,0.14469820000522304,1272.1277988000074,None,0.14469820000522304,,,131Sing,001,2023_Sep_28_0955,ProdSingRedoBetween,2021.2.3,59.80238898663877,
,,,,122,0,122,0,,,,,,,,,,,,,,,,,,,,,,1280.3322831999976,None,,,,,,,,,,,,,,,,,portion,150,123,sing,new,null,1272.814841200001,None,1272.814841200001,None,2,6.081757300009485,1272.814841200001,None,6.081757300009485,1278.9177930000005,None,1279.435025800005,None,1279.435025800005,None,f,0.869477399988682,1279.435025800005,None,0.869477399988682,,,131Sing,001,2023_Sep_28_0955,ProdSingRedoBetween,2021.2.3,59.80238898663877,
,,,,123,0,123,0,,,,,,,,,,,,,,,,,,,,,,1284.6701745000028,None,,,,,,,,,,,,,,,,,payment,31,124,sing,old,blue,1280.847052099998,None,1280.847052099998,None,2,1.4335275999910664,1280.847052099998,None,1.4335275999910664,1282.3084320000053,None,1282.8233982999955,None,1282.8233982999955,None,f,1.8171447999920929,1282.8233982999955,None,1.8171447999920929,,,131Sing,001,2023_Sep_28_0955,ProdSingRedoBetween,2021.2.3,59.80238898663877,
,,,,124,0,124,0,,,,,,,,,,,,,,,,,,,,,,1288.9074495999957,None,,,,,,,,,,,,,,,,,order,115,125,sing,new,null,1285.180869799995,None,1285.180869799995,None,1,2.451635699995677,1285.180869799995,None,2.451635699995677,1287.6589476999943,None,1288.1742623000027,None,1288.1742623000027,None,f,0.7063077999919187,1288.1742623000027,None,0.7063077999919187,,,131Sing,001,2023_Sep_28_0955,ProdSingRedoBetween,2021.2.3,59.80238898663877,
,,,,125,0,125,0,,,,,,,,,,,,,,,,,,,,,,1291.477084099999,None,,,,,,,,,,,,,,,,,right,126,126,sing,new,null,1289.4156158999976,None,1289.4156158999976,None,3,1.400866700001643,1289.4156158999976,None,1.400866700001643,1290.842740299995,None,1291.3487863000046,None,1291.3487863000046,None,f,0.10782870001276024,1291.3487863000046,None,0.10782870001276024,,,131Sing,001,2023_Sep_28_0955,ProdSingRedoBetween,2021.2.3,59.80238898663877,
,,,,126,0,126,0,,,,,,,,,,,,,,,,,,,,,,1294.7151346000028,None,,,,,,,,,,,,,,,,,trail,74,127,sing,old,red,1291.9828995999997,None,1291.9828995999997,None,5,1.7856009000097401,1291.9828995999997,None,1.7856009000097401,1293.7959157000005,None,1294.3050388999982,None,1294.3050388999982,None,r,0.39160120001179166,1294.3050388999982,None,0.39160120001179166,,,131Sing,001,2023_Sep_28_0955,ProdSingRedoBetween,2021.2.3,59.80238898663877,
,,,,127,0,127,0,,,,,,,,,,,,,,,,,,,,,,1298.1002309000032,None,,,,,,,,,,,,,,,,,entrance,139,128,sing,new,null,1295.2352465000004,None,1295.2352465000004,None,6,1.6692664000001969,1295.2352465000004,None,1.6692664000001969,1296.935766399998,None,1297.4561302999937,None,1297.4561302999937,None,r,0.6163496999943163,1297.4561302999937,None,0.6163496999943163,,,131Sing,001,2023_Sep_28_0955,ProdSingRedoBetween,2021.2.3,59.80238898663877,
,,,,128,0,128,0,,,,,,,,,,,,,,,,,,,,,,1301.3868761000049,None,,,,,,,,,,,,,,,,,education,12,129,sing,old,yellow,1298.610772400003,None,1298.610772400003,None,3,2.013973499997519,1298.610772400003,None,2.013973499997519,1300.6596919000003,None,1301.1776067000028,None,1301.1776067000028,None,f,0.1829678999929456,1301.1776067000028,None,0.1829678999929456,,,131Sing,001,2023_Sep_28_0955,ProdSingRedoBetween,2021.2.3,59.80238898663877,
,,,,129,0,129,0,,,,,,,,,,,,,,,,,,,,,,1305.392459499999,None,,,,,,,,,,,,,,,,,committee,116,130,sing,new,null,1301.9010861999996,None,1301.9010861999996,None,5,2.2834818999981508,1301.9010861999996,None,2.2834818999981508,1304.2085183000017,None,1304.724893000006,None,1304.724893000006,None,r,0.635674499993911,1304.724893000006,None,0.635674499993911,,,131Sing,001,2023_Sep_28_0955,ProdSingRedoBetween,2021.2.3,59.80238898663877,
,,,,130,0,130,0,,,,,,,,,,,,,,,,,,,,,,1308.5607202999963,None,,,,,,,,,,,,,,,,,shock,46,131,sing,old,blue,1305.9245455000055,None,1305.9245455000055,None,2,2.052026499994099,1305.9245455000055,None,2.052026499994099,1308.0021418999968,None,1308.5145697999978,None,1308.5145697999978,None,f,0.02198340000177268,1308.5145697999978,None,0.02198340000177268,,,131Sing,001,2023_Sep_28_0955,ProdSingRedoBetween,2021.2.3,59.80238898663877,
,,,,131,0,131,0,,,,,,,,,,,,,,,,,,,,,,1311.7643471000047,None,,,,,,,,,,,,,,,,,hearing,176,132,sing,new,null,1309.0712211000064,None,1309.0712211000064,None,2,1.6893980999884661,1309.0712211000064,None,1.6893980999884661,1310.7793447000004,None,1311.2843014999962,None,1311.2843014999962,None,f,0.45212859999446664,1311.2843014999962,None,0.45212859999446664,,,131Sing,001,2023_Sep_28_0955,ProdSingRedoBetween,2021.2.3,59.80238898663877,
,,,,132,0,132,0,,,,,,,,,,,,,,,,,,,,,,1315.1685680999944,None,,,,,,,,,,,,,,,,,beginning,83,133,sing,old,red,1312.2774424999952,None,1312.2774424999952,None,3,1.5312525000044843,1312.2774424999952,None,1.5312525000044843,1313.8406285999954,None,1314.3528062999976,None,1314.3528062999976,None,f,0.7918439999921247,1314.3528062999976,None,0.7918439999921247,,,131Sing,001,2023_Sep_28_0955,ProdSingRedoBetween,2021.2.3,59.80238898663877,
,,,,133,0,133,0,,,,,,,,,,,,,,,,,,,,,,1318.8709654999984,None,,,,,,,,,,,,,,,,,stand,27,134,sing,old,yellow,1315.6760996999947,None,1315.6760996999947,None,6,2.5087652999936836,1315.6760996999947,None,2.5087652999936836,1318.2281213999959,None,1318.742535199999,None,1318.742535199999,None,r,0.10601609999139328,1318.742535199999,None,0.10601609999139328,,,131Sing,001,2023_Sep_28_0955,ProdSingRedoBetween,2021.2.3,59.80238898663877,
,,,,134,0,134,0,,,,,,,,,,,,,,,,,,,,,,1324.3765740999952,None,,,,,,,,,,,,,,,,,management,112,135,sing,new,null,1319.3793422000017,None,1319.3793422000017,None,1,3.8131403000006685,1319.3793422000017,None,3.8131403000006685,1323.2108029999945,None,1323.7357522999955,None,1323.7357522999955,None,r,0.6246805999981007,1323.7357522999955,None,0.6246805999981007,,,131Sing,001,2023_Sep_28_0955,ProdSingRedoBetween,2021.2.3,59.80238898663877,
,,,,135,0,135,0,,,,,,,,,,,,,,,,,,,,,,1328.4005512000003,None,,,,,,,,,,,,,,,,,session,121,136,sing,new,null,1324.8852484999952,None,1324.8852484999952,None,6,2.811296999992919,1324.8852484999952,None,2.811296999992919,1327.7142462000047,None,1328.2179572000023,None,1328.2179572000023,None,f,0.1508635000063805,1328.2179572000023,None,0.1508635000063805,,,131Sing,001,2023_Sep_28_0955,ProdSingRedoBetween,2021.2.3,59.80238898663877,
,,,,136,0,136,0,,,,,,,,,,,,,,,,,,,,,,1332.3677673000057,None,,,,,,,,,,,,,,,,,quarter,160,137,sing,new,null,1328.9210297999962,None,1328.9210297999962,None,2,1.999776299999212,1328.9210297999962,None,1.999776299999212,1330.9574095999997,None,1331.472437000004,None,1331.472437000004,None,r,0.8800668000039877,1331.472437000004,None,0.8800668000039877,,,131Sing,001,2023_Sep_28_0955,ProdSingRedoBetween,2021.2.3,59.80238898663877,
,,,,137,0,137,0,,,,,,,,,,,,,,,,,,,,,,1336.157111499997,None,,,,,,,,,,,,,,,,,sleep,33,138,sing,old,blue,1332.8741475999996,None,1332.8741475999996,None,6,2.1427108000061708,1332.8741475999996,None,2.1427108000061708,1335.0445963999955,None,1335.5544965000008,None,1335.5544965000008,None,r,0.5740923999983352,1335.5544965000008,None,0.5740923999983352,,,131Sing,001,2023_Sep_28_0955,ProdSingRedoBetween,2021.2.3,59.80238898663877,
,,,,138,0,138,0,,,,,,,,,,,,,,,,,,,,,,1343.2954249000031,None,,,,,,,,,,,,,,,,,pretty,6,139,sing,old,yellow,1336.6847719999932,None,1336.6847719999932,None,6,4.7318093000067165,1336.6847719999932,None,4.7318093000067165,1341.448612799999,None,1341.9639720999985,None,1341.9639720999985,None,r,1.3165420000004815,1341.9639720999985,None,1.3165420000004815,,,131Sing,001,2023_Sep_28_0955,ProdSingRedoBetween,2021.2.3,59.80238898663877,
,,,,139,0,139,0,,,,,,,,,,,,,,,,,,,,,,1347.2493283000076,None,,,,,,,,,,,,,,,,,solution,113,140,sing,new,null,1343.8084639000008,None,1343.8084639000008,None,2,2.480166699999245,1343.8084639000008,None,2.480166699999245,1346.3189886000036,None,1346.8405635999952,None,1346.8405635999952,None,f,0.38410779999685474,1346.8405635999952,None,0.38410779999685474,,,131Sing,001,2023_Sep_28_0955,ProdSingRedoBetween,2021.2.3,59.80238898663877,
,,,,140,0,140,0,,,,,,,,,,,,,,,,,,,,,,1357.142519400004,None,,,,,,,,,,,,,,,,,position,38,141,sing,old,blue,1347.763692499997,None,1347.763692499997,None,6,5.332868299999973,1347.763692499997,None,5.332868299999973,1353.1234166000067,None,1353.6295744999952,None,1353.6295744999952,None,f,3.4830138999968767,1353.6295744999952,None,3.4830138999968767,,,131Sing,001,2023_Sep_28_0955,ProdSingRedoBetween,2021.2.3,59.80238898663877,
,,,,141,0,141,0,,,,,,,,,,,,,,,,,,,,,,1359.8451791999978,None,,,,,,,,,,,,,,,,,nation,164,142,sing,new,null,1357.6605380999972,None,1357.6605380999972,None,5,1.2920503000059398,1357.6605380999972,None,1.2920503000059398,1358.9826286000025,None,1359.4950415000058,None,1359.4950415000058,None,r,0.32160309999017045,1359.4950415000058,None,0.32160309999017045,,,131Sing,001,2023_Sep_28_0955,ProdSingRedoBetween,2021.2.3,59.80238898663877,
,,,,142,0,142,0,,,,,,,,,,,,,,,,,,,,,,1370.1785741000058,None,,,,,,,,,,,,,,,,,shear,133,143,sing,new,null,1360.3575719999935,None,1360.3575719999935,None,6,2.595035700011067,1360.3575719999935,None,2.595035700011067,1362.9859777999955,None,1363.5030454999942,None,1363.5030454999942,None,n,6.641631399994367,1363.5030454999942,None,6.641631399994367,,,131Sing,001,2023_Sep_28_0955,ProdSingRedoBetween,2021.2.3,59.80238898663877,
,,,,143,0,143,0,,,,,,,,,,,,,,,,,,,,,,1375.678684700004,None,,,,,,,,,,,,,,,,,owner,127,144,sing,new,null,1370.7001846000057,None,1370.7001846000057,None,3,2.428446099991561,1370.7001846000057,None,2.428446099991561,1373.1606717999966,None,1373.6808459000022,None,1373.6808459000022,None,f,1.9678994999994757,1373.6808459000022,None,1.9678994999994757,,,131Sing,001,2023_Sep_28_0955,ProdSingRedoBetween,2021.2.3,59.80238898663877,
,,,,144,0,144,0,,,,,,,,,,,,,,,,,,,,,,1378.9474599999958,None,,,,,,,,,,,,,,,,,rapid,92,145,sing,new,null,1376.1840436000057,None,1376.1840436000057,None,3,1.8006320999993477,1376.1840436000057,None,1.8006320999993477,1378.0206456000014,None,1378.5368933999998,None,1378.5368933999998,None,f,0.38367500000458676,1378.5368933999998,None,0.38367500000458676,,,131Sing,001,2023_Sep_28_0955,ProdSingRedoBetween,2021.2.3,59.80238898663877,
,,,,145,0,145,0,,,,,,,,,,,,,,,,,,,,,,1382.100825600006,None,,,,,,,,,,,,,,,,,split,100,146,sing,new,null,1379.4592286999978,None,1379.4592286999978,None,2,1.4694521999917924,1379.4592286999978,None,1.4694521999917924,1380.960861700005,None,1381.4717711999983,None,1381.4717711999983,None,f,0.6087739999929909,1381.4717711999983,None,0.6087739999929909,,,131Sing,001,2023_Sep_28_0955,ProdSingRedoBetween,2021.2.3,59.80238898663877,
,,,,146,0,146,0,,,,,,,,,,,,,,,,,,,,,,1385.470822000003,None,,,,,,,,,,,,,,,,,career,137,147,sing,new,null,1382.6145530000067,None,1382.6145530000067,None,1,2.0900391999894055,1382.6145530000067,None,2.0900391999894055,1384.7214480999974,None,1385.2207108000002,None,1385.2207108000002,None,f,0.21992699999827892,1385.2207108000002,None,0.21992699999827892,,,131Sing,001,2023_Sep_28_0955,ProdSingRedoBetween,2021.2.3,59.80238898663877,
,,,,147,0,147,0,,,,,,,,,,,,,,,,,,,,,,1388.8409584000037,None,,,,,,,,,,,,,,,,,escape,102,148,sing,new,null,1385.9826500000054,None,1385.9826500000054,None,6,1.6019373000017367,1385.9826500000054,None,1.6019373000017367,1387.6101150000031,None,1388.1235203999968,None,1388.1235203999968,None,r,0.701037599996198,1388.1235203999968,None,0.701037599996198,,,131Sing,001,2023_Sep_28_0955,ProdSingRedoBetween,2021.2.3,59.80238898663877,
,,,,148,0,148,0,,,,,,,,,,,,,,,,,,,,,,1391.9773193,None,,,,,,,,,,,,,,,,,surprise,30,149,sing,old,blue,1389.343042499997,None,1389.343042499997,None,5,1.5535585000034189,1389.343042499997,None,1.5535585000034189,1390.931593500005,None,1391.4435995999957,None,1391.4435995999957,None,r,0.5089448999933666,1391.4435995999957,None,0.5089448999933666,,,131Sing,001,2023_Sep_28_0955,ProdSingRedoBetween,2021.2.3,59.80238898663877,
,,,,149,0,149,0,,,,,,,,,,,,,,,,,,,,,,1395.4308332999935,None,,,,,,,,,,,,,,,,,fashion,26,150,sing,old,yellow,1392.4852444999997,None,1392.4852444999997,None,6,2.3232988999952795,1392.4852444999997,None,2.3232988999952795,1394.8319396000006,None,1395.3503935000044,None,1395.3503935000044,None,r,0.0502212999999756,1395.3503935000044,None,0.0502212999999756,,,131Sing,001,2023_Sep_28_0955,ProdSingRedoBetween,2021.2.3,59.80238898663877,
,,,,150,0,150,0,,,,,,,,,,,,,,,,,,,,,,1398.7007486000075,None,,,,,,,,,,,,,,,,,interior,53,151,sing,old,blue,1395.9421599000052,None,1395.9421599000052,None,1,1.9305381000012858,1395.9421599000052,None,1.9305381000012858,1397.9086352000013,None,1398.4199310999975,None,1398.4199310999975,None,f,0.26063459999568295,1398.4199310999975,None,0.26063459999568295,,,131Sing,001,2023_Sep_28_0955,ProdSingRedoBetween,2021.2.3,59.80238898663877,
,,,,151,0,151,0,,,,,,,,,,,,,,,,,,,,,,1401.7704721000046,None,,,,,,,,,,,,,,,,,watch,90,152,sing,new,null,1399.2102737999958,None,1399.2102737999958,None,2,1.8305247999960557,1399.2102737999958,None,1.8305247999960557,1401.0823798000056,None,1401.5927891000028,None,1401.5927891000028,None,f,0.15975640001124702,1401.5927891000028,None,0.15975640001124702,,,131Sing,001,2023_Sep_28_0955,ProdSingRedoBetween,2021.2.3,59.80238898663877,
,,,,152,0,152,0,,,,,,,,,,,,,,,,,,,,,,1406.4097648000024,None,,,,,,,,,,,,,,,,,dream,146,153,sing,new,null,1402.2772960000002,None,1402.2772960000002,None,6,3.1474061000044458,1402.2772960000002,None,3.1474061000044458,1405.4507673000044,None,1405.9580922000023,None,1405.9580922000023,None,r,0.4265056000003824,1405.9580922000023,None,0.4265056000003824,,,131Sing,001,2023_Sep_28_0955,ProdSingRedoBetween,2021.2.3,59.80238898663877,
,,,,153,0,153,0,,,,,,,,,,,,,,,,,,,,,,1409.861869100001,None,,,,,,,,,,,,,,,,,phrase,35,154,sing,old,blue,1406.9198812999966,None,1406.9198812999966,None,2,2.1928124999976717,1406.9198812999966,None,2.1928124999976717,1409.1371493000042,None,1409.6513702999946,None,1409.6513702999946,None,f,0.1893813000060618,1409.6513702999946,None,0.1893813000060618,,,131Sing,001,2023_Sep_28_0955,ProdSingRedoBetween,2021.2.3,59.80238898663877,
,,,,154,0,154,0,,,,,,,,,,,,,,,,,,,,,,1414.0356513000006,None,,,,,,,,,,,,,,,,,member,157,155,sing,new,null,1410.371394899994,None,1410.371394899994,None,3,2.67719329999818,1410.371394899994,None,2.67719329999818,1413.0683942000032,None,1413.582435599994,None,1413.582435599994,None,f,0.42618599999696016,1413.582435599994,None,0.42618599999696016,,,131Sing,001,2023_Sep_28_0955,ProdSingRedoBetween,2021.2.3,59.80238898663877,
,,,,155,0,155,0,,,,,,,,,,,,,,,,,,,,,,1416.935611199995,None,,,,,,,,,,,,,,,,,scale,64,156,sing,old,red,1414.564654300004,None,1414.564654300004,None,2,1.7798909000121057,1414.564654300004,None,1.7798909000121057,1416.3700533999945,None,1416.8903148999962,None,1416.8903148999962,None,f,0.02223470000899397,1416.8903148999962,None,0.02223470000899397,,,131Sing,001,2023_Sep_28_0955,ProdSingRedoBetween,2021.2.3,59.80238898663877,
,,,,156,0,156,0,,,,,,,,,,,,,,,,,,,,,,1419.6730246999941,None,,,,,,,,,,,,,,,,,signal,101,157,sing,new,null,1417.451556400003,None,1417.451556400003,None,1,1.3409965000028023,1417.451556400003,None,1.3409965000028023,1418.8220028000069,None,1419.3259667999955,None,1419.3259667999955,None,f,0.33060139999724925,1419.3259667999955,None,0.33060139999724925,,,131Sing,001,2023_Sep_28_0955,ProdSingRedoBetween,2021.2.3,59.80238898663877,
,,,,157,0,157,0,,,,,,,,,,,,,,,,,,,,,,1424.5932927999966,None,,,,,,,,,,,,,,,,,material,149,158,sing,new,null,1420.181400100002,None,1420.181400100002,None,2,1.3871914999908768,1420.181400100002,None,1.3871914999908768,1421.5934393000061,None,1422.1075954999978,None,1422.1075954999978,None,f,2.468971700000111,1422.1075954999978,None,2.468971700000111,,,131Sing,001,2023_Sep_28_0955,ProdSingRedoBetween,2021.2.3,59.80238898663877,
,,,,158,0,158,0,,,,,,,,,,,,,,,,,,,,,,1429.464828199998,None,,,,,,,,,,,,,,,,,waste,167,159,sing,new,null,1425.1073754999961,None,1425.1073754999961,None,5,1.8611567999905674,1425.1073754999961,None,1.8611567999905674,1427.003925900004,None,1427.5226003999996,None,1427.5226003999996,None,r,1.9260497999930521,1427.5226003999996,None,1.9260497999930521,,,131Sing,001,2023_Sep_28_0955,ProdSingRedoBetween,2021.2.3,59.80238898663877,
,,,,159,0,159,0,,,,,,,,,,,,,,,,,,,,,,1432.1675303999946,None,,,,,,,,,,,,,,,,,company,76,160,sing,old,red,1429.9762719999999,None,1429.9762719999999,None,6,1.584174500007066,1429.9762719999999,None,1.584174500007066,1431.5843942000065,None,1432.0883418000012,None,1432.0883418000012,None,r,0.04837309999857098,1432.0883418000012,None,0.04837309999857098,,,131Sing,001,2023_Sep_28_0955,ProdSingRedoBetween,2021.2.3,59.80238898663877,
,,,,160,0,160,0,,,,,,,,,,,,,,,,,,,,,,1437.0557864000002,None,,,,,,,,,,,,,,,,,design,57,161,sing,old,blue,1432.6740909000073,None,1432.6740909000073,None,6,3.550493299990194,1432.6740909000073,None,3.550493299990194,1436.2648031999997,None,1436.7854267000075,None,1436.7854267000075,None,r,0.2472464000020409,1436.7854267000075,None,0.2472464000020409,,,131Sing,001,2023_Sep_28_0955,ProdSingRedoBetween,2021.2.3,59.80238898663877,
,,,,161,0,161,0,,,,,,,,,,,,,,,,,,,,,,1449.3680135000031,None,,,,,,,,,,,,,,,,,quantity,15,162,sing,old,yellow,1437.5745414999983,None,1437.5745414999983,None,2,1.6100559000042267,1437.5745414999983,None,1.6100559000042267,1439.2122588000057,None,1439.7325347000005,None,1439.7325347000005,None,f,9.62001150001015,1439.7325347000005,None,9.62001150001015,,,131Sing,001,2023_Sep_28_0955,ProdSingRedoBetween,2021.2.3,59.80238898663877,
,,,,162,0,162,0,,,,,,,,,,,,,,,,,,,,,,1452.7714126000064,None,,,,,,,,,,,,,,,,,drove,8,163,sing,old,yellow,1449.8779037000058,None,1449.8779037000058,None,2,2.010671000010916,1449.8779037000058,None,2.010671000010916,1451.907531200006,None,1452.4244364000042,None,1452.4244364000042,None,f,0.3282016000011936,1452.4244364000042,None,0.3282016000011936,,,131Sing,001,2023_Sep_28_0955,ProdSingRedoBetween,2021.2.3,59.80238898663877,
,,,,163,0,163,0,,,,,,,,,,,,,,,,,,,,,,1455.0085751000006,None,,,,,,,,,,,,,,,,,relation,28,164,sing,old,yellow,1453.2839079999976,None,1453.2839079999976,None,2,0.804673399994499,1453.2839079999976,None,0.804673399994499,1454.111642200005,None,1454.6306406999938,None,1454.6306406999938,None,f,0.3459506000071997,1454.6306406999938,None,0.3459506000071997,,,131Sing,001,2023_Sep_28_0955,ProdSingRedoBetween,2021.2.3,59.80238898663877,
,,,,164,0,164,0,,,,,,,,,,,,,,,,,,,,,,1456.9755379999988,None,,,,,,,,,,,,,,,,,carry,86,165,sing,old,red,1455.5270130999997,None,1455.5270130999997,None,2,0.8415743999939878,1455.5270130999997,None,0.8415743999939878,1456.3920752999984,None,1456.8957204000035,None,1456.8957204000035,None,f,0.04899480000312906,1456.8957204000035,None,0.04899480000312906,,,131Sing,001,2023_Sep_28_0955,ProdSingRedoBetween,2021.2.3,59.80238898663877,
,,,,165,0,165,0,,,,,,,,,,,,,,,,,,,,,,1462.2142071999988,None,,,,,,,,,,,,,,,,,evidence,91,166,sing,new,null,1457.4839341000043,None,1457.4839341000043,None,6,3.556649699996342,1457.4839341000043,None,3.556649699996342,1461.066803099995,None,1461.5981433999987,None,1461.5981433999987,None,r,0.5944216000061715,1461.5981433999987,None,0.5944216000061715,,,131Sing,001,2023_Sep_28_0955,ProdSingRedoBetween,2021.2.3,59.80238898663877,
,,,,166,0,166,0,,,,,,,,,,,,,,,,,,,,,,1466.2347842000017,None,,,,,,,,,,,,,,,,,marriage,21,167,sing,old,yellow,1462.7224543000048,None,1462.7224543000048,None,6,2.701974399999017,1462.7224543000048,None,2.701974399999017,1465.451780000003,None,1465.9550121000066,None,1465.9550121000066,None,r,0.2615680000017164,1465.9550121000066,None,0.2615680000017164,,,131Sing,001,2023_Sep_28_0955,ProdSingRedoBetween,2021.2.3,59.80238898663877,
,,,,167,0,167,0,,,,,,,,,,,,,,,,,,,,,,1470.8438064999937,None,,,,,,,,,,,,,,,,,author,131,168,sing,new,null,1466.7507789999945,None,1466.7507789999945,None,6,1.1937726000032853,1466.7507789999945,None,1.1937726000032853,1467.9732717000006,None,1468.4891012000007,None,1468.4891012000007,None,r,2.3195667999971192,1468.4891012000007,None,2.3195667999971192,,,131Sing,001,2023_Sep_28_0955,ProdSingRedoBetween,2021.2.3,59.80238898663877,
,,,,168,0,168,0,,,,,,,,,,,,,,,,,,,,,,1477.6215894000052,None,,,,,,,,,,,,,,,,,interview,135,169,sing,new,null,1471.3693286000052,None,1471.3693286000052,None,6,4.927280999996583,1471.3693286000052,None,4.927280999996583,1476.3181143999973,None,1476.8287167999952,None,1476.8287167999952,None,r,0.7559938999911537,1476.8287167999952,None,0.7559938999911537,,,131Sing,001,2023_Sep_28_0955,ProdSingRedoBetween,2021.2.3,59.80238898663877,
,,,,169,0,169,0,,,,,,,,,,,,,,,,,,,,,,1480.5544370999996,None,,,,,,,,,,,,,,,,,patient,24,170,sing,old,yellow,1478.1364399000013,None,1478.1364399000013,None,6,1.760307600008673,1478.1364399000013,None,1.760307600008673,1479.9232485999964,None,1480.4368832000036,None,1480.4368832000036,None,r,0.08388989999366459,1480.4368832000036,None,0.08388989999366459,,,131Sing,001,2023_Sep_28_0955,ProdSingRedoBetween,2021.2.3,59.80238898663877,
,,,,170,0,170,0,,,,,,,,,,,,,,,,,,,,,,1483.902462500002,None,,,,,,,,,,,,,,,,,build,122,171,sing,new,null,1481.0727690000058,None,1481.0727690000058,None,6,2.0078693000104977,1481.0727690000058,None,2.0078693000104977,1483.106149500003,None,1483.6190413000004,None,1483.6190413000004,None,r,0.26156430000264663,1483.6190413000004,None,0.26156430000264663,,,131Sing,001,2023_Sep_28_0955,ProdSingRedoBetween,2021.2.3,59.80238898663877,
,,,,171,0,171,0,,,,,,,,,,,,,,,,,,,,,,1486.7050908999954,None,,,,,,,,,,,,,,,,,tennis,85,172,sing,old,red,1484.4200682999945,None,1484.4200682999945,None,6,0.7884836000012001,1484.4200682999945,None,0.7884836000012001,1485.2382923999976,None,1485.7421043000068,None,1485.7421043000068,None,r,0.9463725000096019,1485.7421043000068,None,0.9463725000096019,,,131Sing,001,2023_Sep_28_0955,ProdSingRedoBetween,2021.2.3,59.80238898663877,
,,,,172,0,172,0,,,,,,,,,,,,,,,,,,,,,,1489.5955123000022,None,,,,,,,,,,,,,,,,,union,179,173,sing,new,null,1487.2135872000072,None,1487.2135872000072,None,4,1.4590690000040922,1487.2135872000072,None,1.4590690000040922,1488.6939488000062,None,1489.212814700004,None,1489.212814700004,None,r,0.3639868999889586,1489.212814700004,None,0.3639868999889586,,,131Sing,001,2023_Sep_28_0955,ProdSingRedoBetween,2021.2.3,59.80238898663877,
,,,,173,0,173,0,,,,,,,,,,,,,,,,,,,,,,1493.862448800006,None,,,,,,,,,,,,,,,,,welcome,73,174,sing,old,red,1490.124930399994,None,1490.124930399994,None,6,2.5796095999976387,1490.124930399994,None,2.5796095999976387,1492.729416400005,None,1493.2333598999976,None,1493.2333598999976,None,r,0.5992460999987088,1493.2333598999976,None,0.5992460999987088,,,131Sing,001,2023_Sep_28_0955,ProdSingRedoBetween,2021.2.3,59.80238898663877,
,,,,174,0,174,0,,,,,,,,,,,,,,,,,,,,,,1497.5994803000067,None,,,,,,,,,,,,,,,,,impact,166,175,sing,new,null,1494.374287700004,None,1494.374287700004,None,6,2.658362899994245,1494.374287700004,None,2.658362899994245,1497.0519482999953,None,1497.5680557000014,None,1497.5680557000014,None,r,0.016492800001287833,1497.5680557000014,None,0.016492800001287833,,,131Sing,001,2023_Sep_28_0955,ProdSingRedoBetween,2021.2.3,59.80238898663877,
,,,,175,0,175,0,,,,,,,,,,,,,,,,,,,,,,1499.8533760999999,None,,,,,,,,,,,,,,,,,drama,70,176,sing,old,red,1498.101836700007,None,1498.101836700007,None,6,0.7948386000061873,1498.101836700007,None,0.7948386000061873,1498.9237734000053,None,1499.4359917999973,None,1499.4359917999973,None,r,0.3969567000021925,1499.4359917999973,None,0.3969567000021925,,,131Sing,001,2023_Sep_28_0955,ProdSingRedoBetween,2021.2.3,59.80238898663877,
,,,,176,0,176,0,,,,,,,,,,,,,,,,,,,,,,1501.9054789000074,None,,,,,,,,,,,,,,,,,sight,54,177,sing,old,blue,1500.3646671000024,None,1500.3646671000024,None,6,0.8039718000072753,1500.3646671000024,None,0.8039718000072753,1501.1903822000022,None,1501.7144699000055,None,1501.7144699000055,None,r,0.1740948000078788,1501.7144699000055,None,0.1740948000078788,,,131Sing,001,2023_Sep_28_0955,ProdSingRedoBetween,2021.2.3,59.80238898663877,
,,,,177,0,177,0,,,,,,,,,,,,,,,,,,,,,,1503.8071615999943,None,,,,,,,,,,,,,,,,,break,62,178,sing,old,red,1502.4266026999976,None,1502.4266026999976,None,6,0.5178889000089839,1502.4266026999976,None,0.5178889000089839,1502.9726094999933,None,1503.4791255000018,None,1503.4791255000018,None,r,0.30553499999223277,1503.4791255000018,None,0.30553499999223277,,,131Sing,001,2023_Sep_28_0955,ProdSingRedoBetween,2021.2.3,59.80238898663877,
