StudyLoop.thisRepN,StudyLoop.thisTrialN,StudyLoop.thisN,StudyLoop.thisIndex,TestLoop.thisRepN,TestLoop.thisTrialN,TestLoop.thisN,TestLoop.thisIndex,textCondition.started,textCondition.stopped,keyCondition.keys,keyCondition.rt,keyCondition.started,keyCondition.stopped,Condition,textWelcome.started,textWelcome.stopped,keyWelcome.keys,keyWelcome.rt,keyWelcome.started,keyWelcome.stopped,textAloud.started,textAloud.stopped,textSilent.started,textSilent.stopped,textSing.started,textSing.stopped,conditional_text.started,conditional_text.stopped,textBlank500.started,textBlank500.stopped,study_word,study_num,study_order,study_type,word_color,textStudy.started,textStudy.stopped,keyStudy.keys,keyStudy.started,keyStudy.stopped,textTestInstructions.started,textTestInstructions.stopped,key_resp_3.keys,key_resp_3.rt,key_resp_3.started,key_resp_3.stopped,test_word,test_num,test_order,test_condition,old_new_test,test_word_original_color,textConf.started,textConf.stopped,textConfScale.started,textConfScale.stopped,keyConf.keys,keyConf.rt,keyConf.started,keyConf.stopped,confidence response time,textTestBlank.started,textTestBlank.stopped,textRKN.started,textRKN.stopped,textRKNScale.started,textRKNScale.stopped,keyRKN.keys,keyRKN.rt,keyRKN.started,keyRKN.stopped,rkn response time,textEnd.started,textEnd.stopped,participant,session,date,expName,psychopyVersion,frameRate,
,,,,,,,,20.392168700000013,None,b,2.9124138000000244,20.392168700000013,None,,,,,,,,,,,,,,,,,,,,,,,,,,,,,,,,,,,,,,,,,,,,,,,,,,,,,,,,,,,,,,132,001,2023_Sep_28_1136,ProdSingRedoBetween,2021.2.3,59.934790947463895,
,,,,,,,,,,,,,,AloudTest,23.38475249999999,None,space,1090.7684244,23.38475249999999,None,,,,,,,,,,,,,,,,,,,,,,,,,,,,,,,,,,,,,,,,,,,,,,,,,,,,,,,132,001,2023_Sep_28_1136,ProdSingRedoBetween,2021.2.3,59.934790947463895,
0,0,0,0,,,,,,,,,,,,,,,,,,23.38475249999999,None,23.38475249999999,None,23.38475249999999,None,23.38475249999999,None,1116.6891957,None,sweet,44,1,aloud,blue,1114.6778564,None,None,1114.6778564,None,,,,,,,,,,,,,,,,,,,,,,,,,,,,,,,,,,,132,001,2023_Sep_28_1136,ProdSingRedoBetween,2021.2.3,59.934790947463895,
1,0,1,0,,,,,,,,,,,,,,,,,,,,,,,,,,1119.1914456,None,waste,6,2,aloud,yellow,1117.1920648,None,None,1117.1920648,None,,,,,,,,,,,,,,,,,,,,,,,,,,,,,,,,,,,132,001,2023_Sep_28_1136,ProdSingRedoBetween,2021.2.3,59.934790947463895,
2,0,2,0,,,,,,,,,,,,,,,,,,,,,,,,,,1121.7098317,None,author,41,3,aloud,blue,1119.6946233,None,None,1119.6946233,None,,,,,,,,,,,,,,,,,,,,,,,,,,,,,,,,,,,132,001,2023_Sep_28_1136,ProdSingRedoBetween,2021.2.3,59.934790947463895,
3,0,3,0,,,,,,,,,,,,,,,,,,,,,,,,,,1124.2120077,None,weight,0,4,aloud,yellow,1122.2104397,None,None,1122.2104397,None,,,,,,,,,,,,,,,,,,,,,,,,,,,,,,,,,,,132,001,2023_Sep_28_1136,ProdSingRedoBetween,2021.2.3,59.934790947463895,
4,0,4,0,,,,,,,,,,,,,,,,,,,,,,,,,,1126.7147873000001,None,addition,51,5,aloud,blue,1124.7127192,None,None,1124.7127192,None,,,,,,,,,,,,,,,,,,,,,,,,,,,,,,,,,,,132,001,2023_Sep_28_1136,ProdSingRedoBetween,2021.2.3,59.934790947463895,
5,0,5,0,,,,,,,,,,,,,,,,,,,,,,,,,,1129.2172583,None,election,87,6,aloud,red,1127.2153087,None,None,1127.2153087,None,,,,,,,,,,,,,,,,,,,,,,,,,,,,,,,,,,,132,001,2023_Sep_28_1136,ProdSingRedoBetween,2021.2.3,59.934790947463895,
6,0,6,0,,,,,,,,,,,,,,,,,,,,,,,,,,1131.7198047,None,breath,64,7,aloud,red,1129.7177715,None,None,1129.7177715,None,,,,,,,,,,,,,,,,,,,,,,,,,,,,,,,,,,,132,001,2023_Sep_28_1136,ProdSingRedoBetween,2021.2.3,59.934790947463895,
7,0,7,0,,,,,,,,,,,,,,,,,,,,,,,,,,1134.2222674,None,plane,32,8,aloud,blue,1132.220618,None,None,1132.220618,None,,,,,,,,,,,,,,,,,,,,,,,,,,,,,,,,,,,132,001,2023_Sep_28_1136,ProdSingRedoBetween,2021.2.3,59.934790947463895,
8,0,8,0,,,,,,,,,,,,,,,,,,,,,,,,,,1136.7415057,None,point,89,9,aloud,red,1134.7299565,None,None,1134.7299565,None,,,,,,,,,,,,,,,,,,,,,,,,,,,,,,,,,,,132,001,2023_Sep_28_1136,ProdSingRedoBetween,2021.2.3,59.934790947463895,
9,0,9,0,,,,,,,,,,,,,,,,,,,,,,,,,,1139.2440687,None,oxygen,23,10,aloud,yellow,1137.2419637,None,None,1137.2419637,None,,,,,,,,,,,,,,,,,,,,,,,,,,,,,,,,,,,132,001,2023_Sep_28_1136,ProdSingRedoBetween,2021.2.3,59.934790947463895,
10,0,10,0,,,,,,,,,,,,,,,,,,,,,,,,,,1141.763137,None,notice,22,11,aloud,yellow,1139.7483832,None,None,1139.7483832,None,,,,,,,,,,,,,,,,,,,,,,,,,,,,,,,,,,,132,001,2023_Sep_28_1136,ProdSingRedoBetween,2021.2.3,59.934790947463895,
11,0,11,0,,,,,,,,,,,,,,,,,,,,,,,,,,1144.2656583,None,graduate,61,12,aloud,red,1142.2636627,None,None,1142.2636627,None,,,,,,,,,,,,,,,,,,,,,,,,,,,,,,,,,,,132,001,2023_Sep_28_1136,ProdSingRedoBetween,2021.2.3,59.934790947463895,
12,0,12,0,,,,,,,,,,,,,,,,,,,,,,,,,,1146.7681206,None,entrance,76,13,aloud,red,1144.7661431,None,None,1144.7661431,None,,,,,,,,,,,,,,,,,,,,,,,,,,,,,,,,,,,132,001,2023_Sep_28_1136,ProdSingRedoBetween,2021.2.3,59.934790947463895,
13,0,13,0,,,,,,,,,,,,,,,,,,,,,,,,,,1149.2706458,None,military,11,14,aloud,yellow,1147.2690335,None,None,1147.2690335,None,,,,,,,,,,,,,,,,,,,,,,,,,,,,,,,,,,,132,001,2023_Sep_28_1136,ProdSingRedoBetween,2021.2.3,59.934790947463895,
14,0,14,0,,,,,,,,,,,,,,,,,,,,,,,,,,1151.7731705,None,corner,7,15,aloud,yellow,1149.7739286,None,None,1149.7739286,None,,,,,,,,,,,,,,,,,,,,,,,,,,,,,,,,,,,132,001,2023_Sep_28_1136,ProdSingRedoBetween,2021.2.3,59.934790947463895,
15,0,15,0,,,,,,,,,,,,,,,,,,,,,,,,,,1154.2924222,None,victory,80,16,aloud,red,1152.2885019,None,None,1152.2885019,None,,,,,,,,,,,,,,,,,,,,,,,,,,,,,,,,,,,132,001,2023_Sep_28_1136,ProdSingRedoBetween,2021.2.3,59.934790947463895,
16,0,16,0,,,,,,,,,,,,,,,,,,,,,,,,,,1156.7948695,None,weather,3,17,aloud,yellow,1154.7931780000001,None,None,1154.7931780000001,None,,,,,,,,,,,,,,,,,,,,,,,,,,,,,,,,,,,132,001,2023_Sep_28_1136,ProdSingRedoBetween,2021.2.3,59.934790947463895,
17,0,17,0,,,,,,,,,,,,,,,,,,,,,,,,,,1159.314033,None,spoke,78,18,aloud,red,1157.3023667,None,None,1157.3023667,None,,,,,,,,,,,,,,,,,,,,,,,,,,,,,,,,,,,132,001,2023_Sep_28_1136,ProdSingRedoBetween,2021.2.3,59.934790947463895,
18,0,18,0,,,,,,,,,,,,,,,,,,,,,,,,,,1161.8331811,None,silence,40,19,aloud,blue,1159.8202606,None,None,1159.8202606,None,,,,,,,,,,,,,,,,,,,,,,,,,,,,,,,,,,,132,001,2023_Sep_28_1136,ProdSingRedoBetween,2021.2.3,59.934790947463895,
19,0,19,0,,,,,,,,,,,,,,,,,,,,,,,,,,1164.3523554,None,smooth,82,20,aloud,red,1162.3420762,None,None,1162.3420762,None,,,,,,,,,,,,,,,,,,,,,,,,,,,,,,,,,,,132,001,2023_Sep_28_1136,ProdSingRedoBetween,2021.2.3,59.934790947463895,
20,0,20,0,,,,,,,,,,,,,,,,,,,,,,,,,,1166.854909,None,substance,9,21,aloud,yellow,1164.8558428000001,None,None,1164.8558428000001,None,,,,,,,,,,,,,,,,,,,,,,,,,,,,,,,,,,,132,001,2023_Sep_28_1136,ProdSingRedoBetween,2021.2.3,59.934790947463895,
21,0,21,0,,,,,,,,,,,,,,,,,,,,,,,,,,1169.3741784000001,None,watch,34,22,aloud,blue,1167.3647342,None,None,1167.3647342,None,,,,,,,,,,,,,,,,,,,,,,,,,,,,,,,,,,,132,001,2023_Sep_28_1136,ProdSingRedoBetween,2021.2.3,59.934790947463895,
22,0,22,0,,,,,,,,,,,,,,,,,,,,,,,,,,1171.8766064000001,None,bucket,55,23,aloud,blue,1169.8744707,None,None,1169.8744707,None,,,,,,,,,,,,,,,,,,,,,,,,,,,,,,,,,,,132,001,2023_Sep_28_1136,ProdSingRedoBetween,2021.2.3,59.934790947463895,
23,0,23,0,,,,,,,,,,,,,,,,,,,,,,,,,,1174.3958736,None,gesture,49,24,aloud,blue,1172.3841257,None,None,1172.3841257,None,,,,,,,,,,,,,,,,,,,,,,,,,,,,,,,,,,,132,001,2023_Sep_28_1136,ProdSingRedoBetween,2021.2.3,59.934790947463895,
24,0,24,0,,,,,,,,,,,,,,,,,,,,,,,,,,1176.8983175,None,population,74,25,aloud,red,1174.8973194,None,None,1174.8973194,None,,,,,,,,,,,,,,,,,,,,,,,,,,,,,,,,,,,132,001,2023_Sep_28_1136,ProdSingRedoBetween,2021.2.3,59.934790947463895,
25,0,25,0,,,,,,,,,,,,,,,,,,,,,,,,,,1179.4174323,None,review,43,26,aloud,blue,1177.406071,None,None,1177.406071,None,,,,,,,,,,,,,,,,,,,,,,,,,,,,,,,,,,,132,001,2023_Sep_28_1136,ProdSingRedoBetween,2021.2.3,59.934790947463895,
26,0,26,0,,,,,,,,,,,,,,,,,,,,,,,,,,1181.9198536000001,None,goose,57,27,aloud,blue,1179.9180179,None,None,1179.9180179,None,,,,,,,,,,,,,,,,,,,,,,,,,,,,,,,,,,,132,001,2023_Sep_28_1136,ProdSingRedoBetween,2021.2.3,59.934790947463895,
27,0,27,0,,,,,,,,,,,,,,,,,,,,,,,,,,1184.4223595,None,scale,83,28,aloud,red,1182.4230313,None,None,1182.4230313,None,,,,,,,,,,,,,,,,,,,,,,,,,,,,,,,,,,,132,001,2023_Sep_28_1136,ProdSingRedoBetween,2021.2.3,59.934790947463895,
28,0,28,0,,,,,,,,,,,,,,,,,,,,,,,,,,1186.9249223,None,finish,15,29,aloud,yellow,1184.925043,None,None,1184.925043,None,,,,,,,,,,,,,,,,,,,,,,,,,,,,,,,,,,,132,001,2023_Sep_28_1136,ProdSingRedoBetween,2021.2.3,59.934790947463895,
29,0,29,0,,,,,,,,,,,,,,,,,,,,,,,,,,1189.4274047000001,None,drove,24,30,aloud,yellow,1187.4253659,None,None,1187.4253659,None,,,,,,,,,,,,,,,,,,,,,,,,,,,,,,,,,,,132,001,2023_Sep_28_1136,ProdSingRedoBetween,2021.2.3,59.934790947463895,
30,0,30,0,,,,,,,,,,,,,,,,,,,,,,,,,,1191.9465789,None,captain,39,31,aloud,blue,1189.9320964,None,None,1189.9320964,None,,,,,,,,,,,,,,,,,,,,,,,,,,,,,,,,,,,132,001,2023_Sep_28_1136,ProdSingRedoBetween,2021.2.3,59.934790947463895,
31,0,31,0,,,,,,,,,,,,,,,,,,,,,,,,,,1194.4656881,None,century,79,32,aloud,red,1192.4519086,None,None,1192.4519086,None,,,,,,,,,,,,,,,,,,,,,,,,,,,,,,,,,,,132,001,2023_Sep_28_1136,ProdSingRedoBetween,2021.2.3,59.934790947463895,
32,0,32,0,,,,,,,,,,,,,,,,,,,,,,,,,,1196.9681595,None,thick,50,33,aloud,blue,1194.9662536,None,None,1194.9662536,None,,,,,,,,,,,,,,,,,,,,,,,,,,,,,,,,,,,132,001,2023_Sep_28_1136,ProdSingRedoBetween,2021.2.3,59.934790947463895,
33,0,33,0,,,,,,,,,,,,,,,,,,,,,,,,,,1199.4875152,None,expansion,12,34,aloud,yellow,1197.4806314,None,None,1197.4806314,None,,,,,,,,,,,,,,,,,,,,,,,,,,,,,,,,,,,132,001,2023_Sep_28_1136,ProdSingRedoBetween,2021.2.3,59.934790947463895,
34,0,34,0,,,,,,,,,,,,,,,,,,,,,,,,,,1201.990006,None,clear,70,35,aloud,red,1199.9880066,None,None,1199.9880066,None,,,,,,,,,,,,,,,,,,,,,,,,,,,,,,,,,,,132,001,2023_Sep_28_1136,ProdSingRedoBetween,2021.2.3,59.934790947463895,
35,0,35,0,,,,,,,,,,,,,,,,,,,,,,,,,,1204.5091881,None,surface,38,36,aloud,blue,1202.4946369,None,None,1202.4946369,None,,,,,,,,,,,,,,,,,,,,,,,,,,,,,,,,,,,132,001,2023_Sep_28_1136,ProdSingRedoBetween,2021.2.3,59.934790947463895,
36,0,36,0,,,,,,,,,,,,,,,,,,,,,,,,,,1207.0116572,None,answer,20,37,aloud,yellow,1205.0124896,None,None,1205.0124896,None,,,,,,,,,,,,,,,,,,,,,,,,,,,,,,,,,,,132,001,2023_Sep_28_1136,ProdSingRedoBetween,2021.2.3,59.934790947463895,
37,0,37,0,,,,,,,,,,,,,,,,,,,,,,,,,,1209.5308212,None,dream,48,38,aloud,blue,1207.5154417,None,None,1207.5154417,None,,,,,,,,,,,,,,,,,,,,,,,,,,,,,,,,,,,132,001,2023_Sep_28_1136,ProdSingRedoBetween,2021.2.3,59.934790947463895,
38,0,38,0,,,,,,,,,,,,,,,,,,,,,,,,,,1212.0334174,None,comfort,67,39,aloud,red,1210.0313358,None,None,1210.0313358,None,,,,,,,,,,,,,,,,,,,,,,,,,,,,,,,,,,,132,001,2023_Sep_28_1136,ProdSingRedoBetween,2021.2.3,59.934790947463895,
39,0,39,0,,,,,,,,,,,,,,,,,,,,,,,,,,1214.5358822,None,marriage,62,40,aloud,red,1212.5362191,None,None,1212.5362191,None,,,,,,,,,,,,,,,,,,,,,,,,,,,,,,,,,,,132,001,2023_Sep_28_1136,ProdSingRedoBetween,2021.2.3,59.934790947463895,
40,0,40,0,,,,,,,,,,,,,,,,,,,,,,,,,,1217.0383174,None,drama,69,41,aloud,red,1215.0380433,None,None,1215.0380433,None,,,,,,,,,,,,,,,,,,,,,,,,,,,,,,,,,,,132,001,2023_Sep_28_1136,ProdSingRedoBetween,2021.2.3,59.934790947463895,
41,0,41,0,,,,,,,,,,,,,,,,,,,,,,,,,,1219.5575019,None,safety,75,42,aloud,red,1217.5424885,None,None,1217.5424885,None,,,,,,,,,,,,,,,,,,,,,,,,,,,,,,,,,,,132,001,2023_Sep_28_1136,ProdSingRedoBetween,2021.2.3,59.934790947463895,
42,0,42,0,,,,,,,,,,,,,,,,,,,,,,,,,,1222.0766047,None,edition,26,43,aloud,yellow,1220.0623584,None,None,1220.0623584,None,,,,,,,,,,,,,,,,,,,,,,,,,,,,,,,,,,,132,001,2023_Sep_28_1136,ProdSingRedoBetween,2021.2.3,59.934790947463895,
43,0,43,0,,,,,,,,,,,,,,,,,,,,,,,,,,1224.5791374,None,health,88,44,aloud,red,1222.5771255,None,None,1222.5771255,None,,,,,,,,,,,,,,,,,,,,,,,,,,,,,,,,,,,132,001,2023_Sep_28_1136,ProdSingRedoBetween,2021.2.3,59.934790947463895,
44,0,44,0,,,,,,,,,,,,,,,,,,,,,,,,,,1227.0983567,None,tragedy,58,45,aloud,blue,1225.0836009,None,None,1225.0836009,None,,,,,,,,,,,,,,,,,,,,,,,,,,,,,,,,,,,132,001,2023_Sep_28_1136,ProdSingRedoBetween,2021.2.3,59.934790947463895,
45,0,45,0,,,,,,,,,,,,,,,,,,,,,,,,,,1229.6008454,None,fashion,47,46,aloud,blue,1227.601757,None,None,1227.601757,None,,,,,,,,,,,,,,,,,,,,,,,,,,,,,,,,,,,132,001,2023_Sep_28_1136,ProdSingRedoBetween,2021.2.3,59.934790947463895,
46,0,46,0,,,,,,,,,,,,,,,,,,,,,,,,,,1232.1200336,None,commercial,16,47,aloud,yellow,1230.1044931000001,None,None,1230.1044931000001,None,,,,,,,,,,,,,,,,,,,,,,,,,,,,,,,,,,,132,001,2023_Sep_28_1136,ProdSingRedoBetween,2021.2.3,59.934790947463895,
47,0,47,0,,,,,,,,,,,,,,,,,,,,,,,,,,1234.6393377,None,equipment,14,48,aloud,yellow,1232.6254693,None,None,1232.6254693,None,,,,,,,,,,,,,,,,,,,,,,,,,,,,,,,,,,,132,001,2023_Sep_28_1136,ProdSingRedoBetween,2021.2.3,59.934790947463895,
48,0,48,0,,,,,,,,,,,,,,,,,,,,,,,,,,1237.1416393,None,broke,65,49,aloud,red,1235.140684,None,None,1235.140684,None,,,,,,,,,,,,,,,,,,,,,,,,,,,,,,,,,,,132,001,2023_Sep_28_1136,ProdSingRedoBetween,2021.2.3,59.934790947463895,
49,0,49,0,,,,,,,,,,,,,,,,,,,,,,,,,,1239.6608823,None,store,42,50,aloud,blue,1237.6535864,None,None,1237.6535864,None,,,,,,,,,,,,,,,,,,,,,,,,,,,,,,,,,,,132,001,2023_Sep_28_1136,ProdSingRedoBetween,2021.2.3,59.934790947463895,
50,0,50,0,,,,,,,,,,,,,,,,,,,,,,,,,,1242.1633583,None,career,60,51,aloud,red,1240.1613805,None,None,1240.1613805,None,,,,,,,,,,,,,,,,,,,,,,,,,,,,,,,,,,,132,001,2023_Sep_28_1136,ProdSingRedoBetween,2021.2.3,59.934790947463895,
51,0,51,0,,,,,,,,,,,,,,,,,,,,,,,,,,1244.6658924,None,thing,77,52,aloud,red,1242.6649111,None,None,1242.6649111,None,,,,,,,,,,,,,,,,,,,,,,,,,,,,,,,,,,,132,001,2023_Sep_28_1136,ProdSingRedoBetween,2021.2.3,59.934790947463895,
52,0,52,0,,,,,,,,,,,,,,,,,,,,,,,,,,1247.1850599,None,division,4,53,aloud,yellow,1245.174049,None,None,1245.174049,None,,,,,,,,,,,,,,,,,,,,,,,,,,,,,,,,,,,132,001,2023_Sep_28_1136,ProdSingRedoBetween,2021.2.3,59.934790947463895,
53,0,53,0,,,,,,,,,,,,,,,,,,,,,,,,,,1249.6874887,None,fight,28,54,aloud,yellow,1247.6886923,None,None,1247.6886923,None,,,,,,,,,,,,,,,,,,,,,,,,,,,,,,,,,,,132,001,2023_Sep_28_1136,ProdSingRedoBetween,2021.2.3,59.934790947463895,
54,0,54,0,,,,,,,,,,,,,,,,,,,,,,,,,,1252.2067331,None,business,33,55,aloud,blue,1250.1972298,None,None,1250.1972298,None,,,,,,,,,,,,,,,,,,,,,,,,,,,,,,,,,,,132,001,2023_Sep_28_1136,ProdSingRedoBetween,2021.2.3,59.934790947463895,
55,0,55,0,,,,,,,,,,,,,,,,,,,,,,,,,,1254.7092354000001,None,place,66,56,aloud,red,1252.7095307,None,None,1252.7095307,None,,,,,,,,,,,,,,,,,,,,,,,,,,,,,,,,,,,132,001,2023_Sep_28_1136,ProdSingRedoBetween,2021.2.3,59.934790947463895,
56,0,56,0,,,,,,,,,,,,,,,,,,,,,,,,,,1257.2118126,None,subject,46,57,aloud,blue,1255.211186,None,None,1255.211186,None,,,,,,,,,,,,,,,,,,,,,,,,,,,,,,,,,,,132,001,2023_Sep_28_1136,ProdSingRedoBetween,2021.2.3,59.934790947463895,
57,0,57,0,,,,,,,,,,,,,,,,,,,,,,,,,,1259.7309847,None,quiet,35,58,aloud,blue,1257.7209727,None,None,1257.7209727,None,,,,,,,,,,,,,,,,,,,,,,,,,,,,,,,,,,,132,001,2023_Sep_28_1136,ProdSingRedoBetween,2021.2.3,59.934790947463895,
58,0,58,0,,,,,,,,,,,,,,,,,,,,,,,,,,1262.2500679,None,brilliant,72,59,aloud,red,1260.2354798000001,None,None,1260.2354798000001,None,,,,,,,,,,,,,,,,,,,,,,,,,,,,,,,,,,,132,001,2023_Sep_28_1136,ProdSingRedoBetween,2021.2.3,59.934790947463895,
59,0,59,0,,,,,,,,,,,,,,,,,,,,,,,,,,1264.7694141,None,message,21,60,aloud,yellow,1262.764711,None,None,1262.764711,None,,,,,,,,,,,,,,,,,,,,,,,,,,,,,,,,,,,132,001,2023_Sep_28_1136,ProdSingRedoBetween,2021.2.3,59.934790947463895,
60,0,60,0,,,,,,,,,,,,,,,,,,,,,,,,,,1267.2716299,None,distance,45,61,aloud,blue,1265.2696962,None,None,1265.2696962,None,,,,,,,,,,,,,,,,,,,,,,,,,,,,,,,,,,,132,001,2023_Sep_28_1136,ProdSingRedoBetween,2021.2.3,59.934790947463895,
61,0,61,0,,,,,,,,,,,,,,,,,,,,,,,,,,1269.7909577,None,general,68,62,aloud,red,1267.7779387,None,None,1267.7779387,None,,,,,,,,,,,,,,,,,,,,,,,,,,,,,,,,,,,132,001,2023_Sep_28_1136,ProdSingRedoBetween,2021.2.3,59.934790947463895,
62,0,62,0,,,,,,,,,,,,,,,,,,,,,,,,,,1272.2947678,None,count,1,63,aloud,yellow,1270.2914403,None,None,1270.2914403,None,,,,,,,,,,,,,,,,,,,,,,,,,,,,,,,,,,,132,001,2023_Sep_28_1136,ProdSingRedoBetween,2021.2.3,59.934790947463895,
63,0,63,0,,,,,,,,,,,,,,,,,,,,,,,,,,1274.8127161,None,straight,19,64,aloud,yellow,1272.8054578,None,None,1272.8054578,None,,,,,,,,,,,,,,,,,,,,,,,,,,,,,,,,,,,132,001,2023_Sep_28_1136,ProdSingRedoBetween,2021.2.3,59.934790947463895,
64,0,64,0,,,,,,,,,,,,,,,,,,,,,,,,,,1277.3150014,None,company,13,65,aloud,yellow,1275.3131843,None,None,1275.3131843,None,,,,,,,,,,,,,,,,,,,,,,,,,,,,,,,,,,,132,001,2023_Sep_28_1136,ProdSingRedoBetween,2021.2.3,59.934790947463895,
65,0,65,0,,,,,,,,,,,,,,,,,,,,,,,,,,1279.8175291,None,sleep,63,66,aloud,red,1277.8167508,None,None,1277.8167508,None,,,,,,,,,,,,,,,,,,,,,,,,,,,,,,,,,,,132,001,2023_Sep_28_1136,ProdSingRedoBetween,2021.2.3,59.934790947463895,
66,0,66,0,,,,,,,,,,,,,,,,,,,,,,,,,,1282.3201938,None,signal,5,67,aloud,yellow,1280.318834,None,None,1280.318834,None,,,,,,,,,,,,,,,,,,,,,,,,,,,,,,,,,,,132,001,2023_Sep_28_1136,ProdSingRedoBetween,2021.2.3,59.934790947463895,
67,0,67,0,,,,,,,,,,,,,,,,,,,,,,,,,,1284.8393057,None,surprise,10,68,aloud,yellow,1282.8352898,None,None,1282.8352898,None,,,,,,,,,,,,,,,,,,,,,,,,,,,,,,,,,,,132,001,2023_Sep_28_1136,ProdSingRedoBetween,2021.2.3,59.934790947463895,
68,0,68,0,,,,,,,,,,,,,,,,,,,,,,,,,,1287.3585022,None,worker,71,69,aloud,red,1285.3444971000001,None,None,1285.3444971000001,None,,,,,,,,,,,,,,,,,,,,,,,,,,,,,,,,,,,132,001,2023_Sep_28_1136,ProdSingRedoBetween,2021.2.3,59.934790947463895,
69,0,69,0,,,,,,,,,,,,,,,,,,,,,,,,,,1289.8776396,None,welcome,81,70,aloud,red,1287.8691803,None,None,1287.8691803,None,,,,,,,,,,,,,,,,,,,,,,,,,,,,,,,,,,,132,001,2023_Sep_28_1136,ProdSingRedoBetween,2021.2.3,59.934790947463895,
70,0,70,0,,,,,,,,,,,,,,,,,,,,,,,,,,1292.3801827,None,break,86,71,aloud,red,1290.3789816,None,None,1290.3789816,None,,,,,,,,,,,,,,,,,,,,,,,,,,,,,,,,,,,132,001,2023_Sep_28_1136,ProdSingRedoBetween,2021.2.3,59.934790947463895,
71,0,71,0,,,,,,,,,,,,,,,,,,,,,,,,,,1294.8993689000001,None,angle,31,72,aloud,blue,1292.890043,None,None,1292.890043,None,,,,,,,,,,,,,,,,,,,,,,,,,,,,,,,,,,,132,001,2023_Sep_28_1136,ProdSingRedoBetween,2021.2.3,59.934790947463895,
72,0,72,0,,,,,,,,,,,,,,,,,,,,,,,,,,1297.4019871,None,trail,29,73,aloud,blue,1295.3998163,None,None,1295.3998163,None,,,,,,,,,,,,,,,,,,,,,,,,,,,,,,,,,,,132,001,2023_Sep_28_1136,ProdSingRedoBetween,2021.2.3,59.934790947463895,
73,0,73,0,,,,,,,,,,,,,,,,,,,,,,,,,,1299.9042965,None,candidate,2,74,aloud,yellow,1297.9026898,None,None,1297.9026898,None,,,,,,,,,,,,,,,,,,,,,,,,,,,,,,,,,,,132,001,2023_Sep_28_1136,ProdSingRedoBetween,2021.2.3,59.934790947463895,
74,0,74,0,,,,,,,,,,,,,,,,,,,,,,,,,,1302.406794,None,style,52,75,aloud,blue,1300.4063019,None,None,1300.4063019,None,,,,,,,,,,,,,,,,,,,,,,,,,,,,,,,,,,,132,001,2023_Sep_28_1136,ProdSingRedoBetween,2021.2.3,59.934790947463895,
75,0,75,0,,,,,,,,,,,,,,,,,,,,,,,,,,1304.9261073,None,space,27,76,aloud,yellow,1302.9176387,None,None,1302.9176387,None,,,,,,,,,,,,,,,,,,,,,,,,,,,,,,,,,,,132,001,2023_Sep_28_1136,ProdSingRedoBetween,2021.2.3,59.934790947463895,
76,0,76,0,,,,,,,,,,,,,,,,,,,,,,,,,,1307.4285511,None,report,36,77,aloud,blue,1305.4292662,None,None,1305.4292662,None,,,,,,,,,,,,,,,,,,,,,,,,,,,,,,,,,,,132,001,2023_Sep_28_1136,ProdSingRedoBetween,2021.2.3,59.934790947463895,
77,0,77,0,,,,,,,,,,,,,,,,,,,,,,,,,,1309.9477372000001,None,capital,56,78,aloud,blue,1307.9340436,None,None,1307.9340436,None,,,,,,,,,,,,,,,,,,,,,,,,,,,,,,,,,,,132,001,2023_Sep_28_1136,ProdSingRedoBetween,2021.2.3,59.934790947463895,
78,0,78,0,,,,,,,,,,,,,,,,,,,,,,,,,,1312.4670089,None,portion,37,79,aloud,blue,1310.4553601,None,None,1310.4553601,None,,,,,,,,,,,,,,,,,,,,,,,,,,,,,,,,,,,132,001,2023_Sep_28_1136,ProdSingRedoBetween,2021.2.3,59.934790947463895,
79,0,79,0,,,,,,,,,,,,,,,,,,,,,,,,,,1314.9693562,None,threat,59,80,aloud,yellow,1312.967285,None,None,1312.967285,None,,,,,,,,,,,,,,,,,,,,,,,,,,,,,,,,,,,132,001,2023_Sep_28_1136,ProdSingRedoBetween,2021.2.3,59.934790947463895,
80,0,80,0,,,,,,,,,,,,,,,,,,,,,,,,,,1317.4719044,None,fellow,84,81,aloud,red,1315.4724792,None,None,1315.4724792,None,,,,,,,,,,,,,,,,,,,,,,,,,,,,,,,,,,,132,001,2023_Sep_28_1136,ProdSingRedoBetween,2021.2.3,59.934790947463895,
81,0,81,0,,,,,,,,,,,,,,,,,,,,,,,,,,1319.9910002,None,republic,25,82,aloud,yellow,1317.9782686,None,None,1317.9782686,None,,,,,,,,,,,,,,,,,,,,,,,,,,,,,,,,,,,132,001,2023_Sep_28_1136,ProdSingRedoBetween,2021.2.3,59.934790947463895,
82,0,82,0,,,,,,,,,,,,,,,,,,,,,,,,,,1322.4935301,None,engineer,85,83,aloud,red,1320.4915221,None,None,1320.4915221,None,,,,,,,,,,,,,,,,,,,,,,,,,,,,,,,,,,,132,001,2023_Sep_28_1136,ProdSingRedoBetween,2021.2.3,59.934790947463895,
83,0,83,0,,,,,,,,,,,,,,,,,,,,,,,,,,1324.9961113,None,crowd,73,84,aloud,red,1322.9953198,None,None,1322.9953198,None,,,,,,,,,,,,,,,,,,,,,,,,,,,,,,,,,,,132,001,2023_Sep_28_1136,ProdSingRedoBetween,2021.2.3,59.934790947463895,
84,0,84,0,,,,,,,,,,,,,,,,,,,,,,,,,,1327.4985362,None,death,30,85,aloud,blue,1325.4986771000001,None,None,1325.4986771000001,None,,,,,,,,,,,,,,,,,,,,,,,,,,,,,,,,,,,132,001,2023_Sep_28_1136,ProdSingRedoBetween,2021.2.3,59.934790947463895,
85,0,85,0,,,,,,,,,,,,,,,,,,,,,,,,,,1330.0176667,None,employment,17,86,aloud,yellow,1328.0047469,None,None,1328.0047469,None,,,,,,,,,,,,,,,,,,,,,,,,,,,,,,,,,,,132,001,2023_Sep_28_1136,ProdSingRedoBetween,2021.2.3,59.934790947463895,
86,0,86,0,,,,,,,,,,,,,,,,,,,,,,,,,,1332.5368748,None,series,8,87,aloud,yellow,1330.5234094,None,None,1330.5234094,None,,,,,,,,,,,,,,,,,,,,,,,,,,,,,,,,,,,132,001,2023_Sep_28_1136,ProdSingRedoBetween,2021.2.3,59.934790947463895,
87,0,87,0,,,,,,,,,,,,,,,,,,,,,,,,,,1335.0393497,None,south,53,88,aloud,blue,1333.0392585,None,None,1333.0392585,None,,,,,,,,,,,,,,,,,,,,,,,,,,,,,,,,,,,132,001,2023_Sep_28_1136,ProdSingRedoBetween,2021.2.3,59.934790947463895,
88,0,88,0,,,,,,,,,,,,,,,,,,,,,,,,,,1337.5419739,None,short,54,89,aloud,blue,1335.5413227,None,None,1335.5413227,None,,,,,,,,,,,,,,,,,,,,,,,,,,,,,,,,,,,132,001,2023_Sep_28_1136,ProdSingRedoBetween,2021.2.3,59.934790947463895,
89,0,89,0,,,,,,,,,,,,,,,,,,,,,,,,,,1340.061069,None,executive,18,90,aloud,yellow,1338.0495643,None,None,1338.0495643,None,,,,,,,,,,,,,,,,,,,,,,,,,,,,,,,,,,,132,001,2023_Sep_28_1136,ProdSingRedoBetween,2021.2.3,59.934790947463895,
,,,,,,,,,,,,,,,,,,,,,,,,,,,,,,,,,,,,,,,,,1340.5617809,None,k,27.487167,1340.5617809,None,,,,,,,,,,,,,,,,,,,,,,,,,,,,,132,001,2023_Sep_28_1136,ProdSingRedoBetween,2021.2.3,59.934790947463895,
,,,,0,0,0,0,,,,,,,,,,,,,,,,,,,,,,1464.6714113,None,,,,,,,,,,,,,,,,,stand,165,1,aloud,new,null,1368.5892388,None,1368.5892388,None,2,50.18734530000006,1368.5892388,None,50.18734530000006,1418.8104267,None,1419.3372987,None,1419.3372987,None,n,45.303356099999974,1419.3372987,None,45.303356099999974,,,132,001,2023_Sep_28_1136,ProdSingRedoBetween,2021.2.3,59.934790947463895,
,,,,1,0,1,0,,,,,,,,,,,,,,,,,,,,,,1486.1233693,None,,,,,,,,,,,,,,,,,safety,75,2,aloud,old,red,1465.1985921,None,1465.1985921,None,6,18.545982000000095,1465.1985921,None,18.545982000000095,1483.7724929,None,1484.2717172,None,1484.2717172,None,r,1.824717499999906,1484.2717172,None,1.824717499999906,,,132,001,2023_Sep_28_1136,ProdSingRedoBetween,2021.2.3,59.934790947463895,
,,,,2,0,2,0,,,,,,,,,,,,,,,,,,,,,,1491.5621926000001,None,,,,,,,,,,,,,,,,,partner,146,3,aloud,new,null,1486.6373104,None,1486.6373104,None,5,3.3071486999999706,1486.6373104,None,3.3071486999999706,1489.9618304,None,1490.461649,None,1490.461649,None,f,1.0828488000001926,1490.461649,None,1.0828488000001926,,,132,001,2023_Sep_28_1136,ProdSingRedoBetween,2021.2.3,59.934790947463895,
,,,,3,0,3,0,,,,,,,,,,,,,,,,,,,,,,1496.0887053,None,,,,,,,,,,,,,,,,,title,124,4,aloud,new,null,1492.0669747,None,1492.0669747,None,1,2.6214583999999377,1492.0669747,None,2.6214583999999377,1494.7176886,None,1495.2341553,None,1495.2341553,None,n,0.8305310000000645,1495.2341553,None,0.8305310000000645,,,132,001,2023_Sep_28_1136,ProdSingRedoBetween,2021.2.3,59.934790947463895,
,,,,4,0,4,0,,,,,,,,,,,,,,,,,,,,,,1502.0726489,None,,,,,,,,,,,,,,,,,ground,154,5,aloud,new,null,1496.6064388,None,1496.6064388,None,2,2.9140345999999226,1496.6064388,None,2.9140345999999226,1499.5366834,None,1500.0438169,None,1500.0438169,None,n,2.012533699999949,1500.0438169,None,2.012533699999949,,,132,001,2023_Sep_28_1136,ProdSingRedoBetween,2021.2.3,59.934790947463895,
,,,,5,0,5,0,,,,,,,,,,,,,,,,,,,,,,1510.4810876,None,,,,,,,,,,,,,,,,,chief,145,6,aloud,new,null,1502.5840067,None,1502.5840067,None,3,4.7687155000000985,1502.5840067,None,4.7687155000000985,1507.3826889,None,1507.8983626,None,1507.8983626,None,f,2.5661368999999468,1507.8983626,None,2.5661368999999468,,,132,001,2023_Sep_28_1136,ProdSingRedoBetween,2021.2.3,59.934790947463895,
,,,,6,0,6,0,,,,,,,,,,,,,,,,,,,,,,1520.6289921,None,,,,,,,,,,,,,,,,,resistance,97,7,aloud,new,null,1510.9967215,None,1510.9967215,None,6,8.019690200000014,1510.9967215,None,8.019690200000014,1519.0413412,None,1519.5467553,None,1519.5467553,None,r,1.0616187999999056,1519.5467553,None,1.0616187999999056,,,132,001,2023_Sep_28_1136,ProdSingRedoBetween,2021.2.3,59.934790947463895,
,,,,7,0,7,0,,,,,,,,,,,,,,,,,,,,,,1525.9632292000001,None,,,,,,,,,,,,,,,,,military,11,8,aloud,old,yellow,1521.1529382,None,1521.1529382,None,6,3.6314910999999483,1521.1529382,None,3.6314910999999483,1524.813893,None,1525.336627,None,1525.336627,None,r,0.6079612999999426,1525.336627,None,0.6079612999999426,,,132,001,2023_Sep_28_1136,ProdSingRedoBetween,2021.2.3,59.934790947463895,
,,,,8,0,8,0,,,,,,,,,,,,,,,,,,,,,,1530.4178624,None,,,,,,,,,,,,,,,,,session,157,9,aloud,new,null,1526.4734283,None,1526.4734283,None,4,2.8470744999999624,1526.4734283,None,2.8470744999999624,1529.3554104,None,1529.8683387,None,1529.8683387,None,f,0.5243021000001136,1529.8683387,None,0.5243021000001136,,,132,001,2023_Sep_28_1136,ProdSingRedoBetween,2021.2.3,59.934790947463895,
,,,,9,0,9,0,,,,,,,,,,,,,,,,,,,,,,1536.7070958,None,,,,,,,,,,,,,,,,,gesture,49,10,aloud,old,blue,1530.9257594,None,1530.9257594,None,5,2.778800399999909,1530.9257594,None,2.778800399999909,1533.7288797,None,1534.2432583,None,1534.2432583,None,r,2.445122999999967,1534.2432583,None,2.445122999999967,,,132,001,2023_Sep_28_1136,ProdSingRedoBetween,2021.2.3,59.934790947463895,
,,,,10,0,10,0,,,,,,,,,,,,,,,,,,,,,,1542.5145127,None,,,,,,,,,,,,,,,,,beginning,122,11,aloud,new,null,1537.214713,None,1537.214713,None,5,3.521767200000113,1537.214713,None,3.521767200000113,1540.7638533,None,1541.2786681,None,1541.2786681,None,f,1.217867999999953,1541.2786681,None,1.217867999999953,,,132,001,2023_Sep_28_1136,ProdSingRedoBetween,2021.2.3,59.934790947463895,
,,,,11,0,11,0,,,,,,,,,,,,,,,,,,,,,,1546.5686975,None,,,,,,,,,,,,,,,,,bicycle,119,12,aloud,new,null,1543.0190487,None,1543.0190487,None,1,1.6933867000000191,1543.0190487,None,1.6933867000000191,1544.7332318,None,1545.2389772,None,1545.2389772,None,n,1.297454000000016,1545.2389772,None,1.297454000000016,,,132,001,2023_Sep_28_1136,ProdSingRedoBetween,2021.2.3,59.934790947463895,
,,,,12,0,12,0,,,,,,,,,,,,,,,,,,,,,,1550.6378344,None,,,,,,,,,,,,,,,,,height,134,13,aloud,new,null,1547.0807808,None,1547.0807808,None,2,2.391621100000066,1547.0807808,None,2.391621100000066,1549.5063892,None,1550.0247508,None,1550.0247508,None,n,0.5916856999999709,1550.0247508,None,0.5916856999999709,,,132,001,2023_Sep_28_1136,ProdSingRedoBetween,2021.2.3,59.934790947463895,
,,,,13,0,13,0,,,,,,,,,,,,,,,,,,,,,,1555.4092855000001,None,,,,,,,,,,,,,,,,,contract,91,14,aloud,new,null,1551.1448937,None,1551.1448937,None,6,2.06346439999993,1551.1448937,None,2.06346439999993,1553.2235842,None,1553.7331535,None,1553.7331535,None,r,1.6512884000001122,1553.7331535,None,1.6512884000001122,,,132,001,2023_Sep_28_1136,ProdSingRedoBetween,2021.2.3,59.934790947463895,
,,,,14,0,14,0,,,,,,,,,,,,,,,,,,,,,,1560.6978782,None,,,,,,,,,,,,,,,,,republic,25,15,aloud,old,yellow,1555.9132633,None,1555.9132633,None,6,3.7271801000001687,1555.9132633,None,3.7271801000001687,1559.6664514,None,1560.1843489,None,1560.1843489,None,r,0.48808899999994537,1560.1843489,None,0.48808899999994537,,,132,001,2023_Sep_28_1136,ProdSingRedoBetween,2021.2.3,59.934790947463895,
,,,,15,0,15,0,,,,,,,,,,,,,,,,,,,,,,1565.6695033,None,,,,,,,,,,,,,,,,,balance,109,16,aloud,new,null,1561.2073594,None,1561.2073594,None,3,2.5690973999999187,1561.2073594,None,2.5690973999999187,1563.8061659,None,1564.3184603,None,1564.3184603,None,f,1.3220789000001787,1564.3184603,None,1.3220789000001787,,,132,001,2023_Sep_28_1136,ProdSingRedoBetween,2021.2.3,59.934790947463895,
,,,,16,0,16,0,,,,,,,,,,,,,,,,,,,,,,1570.5766896,None,,,,,,,,,,,,,,,,,murder,92,17,aloud,new,null,1566.1822796,None,1566.1822796,None,1,3.250119799999993,1566.1822796,None,3.250119799999993,1569.4564043,None,1569.9612378,None,1569.9612378,None,n,0.5833327999998801,1569.9612378,None,0.5833327999998801,,,132,001,2023_Sep_28_1136,ProdSingRedoBetween,2021.2.3,59.934790947463895,
,,,,17,0,17,0,,,,,,,,,,,,,,,,,,,,,,1574.1133773,None,,,,,,,,,,,,,,,,,science,136,18,aloud,new,null,1571.1002202,None,1571.1002202,None,2,2.012216999999964,1571.1002202,None,2.012216999999964,1573.153589,None,1573.6680063000001,None,1573.6680063000001,None,n,0.41259850000005827,1573.6680063000001,None,0.41259850000005827,,,132,001,2023_Sep_28_1136,ProdSingRedoBetween,2021.2.3,59.934790947463895,
,,,,18,0,18,0,,,,,,,,,,,,,,,,,,,,,,1577.481266,None,,,,,,,,,,,,,,,,,company,13,19,aloud,old,yellow,1574.6347327,None,1574.6347327,None,6,1.7499045999998089,1574.6347327,None,1.7499045999998089,1576.4254888,None,1576.9384012,None,1576.9384012,None,f,0.5180595000001631,1576.9384012,None,0.5180595000001631,,,132,001,2023_Sep_28_1136,ProdSingRedoBetween,2021.2.3,59.934790947463895,
,,,,19,0,19,0,,,,,,,,,,,,,,,,,,,,,,1582.2360149,None,,,,,,,,,,,,,,,,,dream,48,20,aloud,old,blue,1577.9909879,None,1577.9909879,None,6,2.3213974000000235,1577.9909879,None,2.3213974000000235,1580.3351923,None,1580.8373785,None,1580.8373785,None,r,1.3790126000001237,1580.8373785,None,1.3790126000001237,,,132,001,2023_Sep_28_1136,ProdSingRedoBetween,2021.2.3,59.934790947463895,
,,,,20,0,20,0,,,,,,,,,,,,,,,,,,,,,,1586.4235852,None,,,,,,,,,,,,,,,,,watch,34,21,aloud,old,blue,1582.7484996,None,1582.7484996,None,5,2.6119072999999844,1582.7484996,None,2.6119072999999844,1585.3905323,None,1585.8971818,None,1585.8971818,None,f,0.5112420000000384,1585.8971818,None,0.5112420000000384,,,132,001,2023_Sep_28_1136,ProdSingRedoBetween,2021.2.3,59.934790947463895,
,,,,21,0,21,0,,,,,,,,,,,,,,,,,,,,,,1590.4274794,None,,,,,,,,,,,,,,,,,number,139,22,aloud,new,null,1586.9329456,None,1586.9329456,None,2,2.5794601000000057,1586.9329456,None,2.5794601000000057,1589.5433965,None,1590.0475778,None,1590.0475778,None,f,0.36086550000004536,1590.0475778,None,0.36086550000004536,,,132,001,2023_Sep_28_1136,ProdSingRedoBetween,2021.2.3,59.934790947463895,
,,,,22,0,22,0,,,,,,,,,,,,,,,,,,,,,,1594.1830636,None,,,,,,,,,,,,,,,,,division,4,23,aloud,old,yellow,1590.9333688,None,1590.9333688,None,6,2.091094699999985,1590.9333688,None,2.091094699999985,1593.0531103,None,1593.5680414,None,1593.5680414,None,r,0.5925416000000041,1593.5680414,None,0.5925416000000041,,,132,001,2023_Sep_28_1136,ProdSingRedoBetween,2021.2.3,59.934790947463895,
,,,,23,0,23,0,,,,,,,,,,,,,,,,,,,,,,1598.5292532,None,,,,,,,,,,,,,,,,,primary,156,24,aloud,new,null,1594.6999128,None,1594.6999128,None,2,2.436631400000124,1594.6999128,None,2.436631400000124,1597.1690589,None,1597.672712,None,1597.672712,None,n,0.8240120000000388,1597.672712,None,0.8240120000000388,,,132,001,2023_Sep_28_1136,ProdSingRedoBetween,2021.2.3,59.934790947463895,
,,,,24,0,24,0,,,,,,,,,,,,,,,,,,,,,,1601.7554799,None,,,,,,,,,,,,,,,,,point,89,25,aloud,old,red,1599.0401517,None,1599.0401517,None,2,1.4322880999998233,1599.0401517,None,1.4322880999998233,1600.4933535,None,1601.0049751,None,1601.0049751,None,n,0.7314238999999816,1601.0049751,None,0.7314238999999816,,,132,001,2023_Sep_28_1136,ProdSingRedoBetween,2021.2.3,59.934790947463895,
,,,,25,0,25,0,,,,,,,,,,,,,,,,,,,,,,1605.6095424,None,,,,,,,,,,,,,,,,,finish,15,26,aloud,old,yellow,1602.2600311,None,1602.2600311,None,6,2.2604357000000164,1602.2600311,None,2.2604357000000164,1604.5469242,None,1605.058959,None,1605.058959,None,r,0.5255750999999691,1605.058959,None,0.5255750999999691,,,132,001,2023_Sep_28_1136,ProdSingRedoBetween,2021.2.3,59.934790947463895,
,,,,26,0,26,0,,,,,,,,,,,,,,,,,,,,,,1609.6967689,None,,,,,,,,,,,,,,,,,thing,77,27,aloud,old,red,1606.1163251,None,1606.1163251,None,3,2.692300899999964,1606.1163251,None,2.692300899999964,1608.8331498,None,1609.3489909,None,1609.3489909,None,f,0.3234122999999727,1609.3489909,None,0.3234122999999727,,,132,001,2023_Sep_28_1136,ProdSingRedoBetween,2021.2.3,59.934790947463895,
,,,,27,0,27,0,,,,,,,,,,,,,,,,,,,,,,1614.484809,None,,,,,,,,,,,,,,,,,employment,17,28,aloud,old,yellow,1610.2140918,None,1610.2140918,None,6,2.3782754999999725,1610.2140918,None,2.3782754999999725,1612.6178315,None,1613.122996,None,1613.122996,None,r,1.3334098999998787,1613.122996,None,1.3334098999998787,,,132,001,2023_Sep_28_1136,ProdSingRedoBetween,2021.2.3,59.934790947463895,
,,,,28,0,28,0,,,,,,,,,,,,,,,,,,,,,,1619.456523,None,,,,,,,,,,,,,,,,,nation,140,29,aloud,new,null,1614.9974382,None,1614.9974382,None,1,3.3390220000001136,1614.9974382,None,3.3390220000001136,1618.3572548,None,1618.8766252,None,1618.8766252,None,n,0.5638275999999678,1618.8766252,None,0.5638275999999678,,,132,001,2023_Sep_28_1136,ProdSingRedoBetween,2021.2.3,59.934790947463895,
,,,,29,0,29,0,,,,,,,,,,,,,,,,,,,,,,1629.271702,None,,,,,,,,,,,,,,,,,fashion,47,30,aloud,old,blue,1619.9793175,None,1619.9793175,None,5,8.013048499999968,1619.9793175,None,8.013048499999968,1628.0183797,None,1628.5391844,None,1628.5391844,None,f,0.7093747000001258,1628.5391844,None,0.7093747000001258,,,132,001,2023_Sep_28_1136,ProdSingRedoBetween,2021.2.3,59.934790947463895,
,,,,30,0,30,0,,,,,,,,,,,,,,,,,,,,,,1632.7195151,None,,,,,,,,,,,,,,,,,goose,57,31,aloud,old,blue,1629.7988155,None,1629.7988155,None,6,1.5855947000000015,1629.7988155,None,1.5855947000000015,1631.4086089,None,1631.9275902,None,1631.9275902,None,r,0.7609743999998955,1631.9275902,None,0.7609743999998955,,,132,001,2023_Sep_28_1136,ProdSingRedoBetween,2021.2.3,59.934790947463895,
,,,,31,0,31,0,,,,,,,,,,,,,,,,,,,,,,1635.8263743,None,,,,,,,,,,,,,,,,,broke,65,32,aloud,old,red,1633.2381471,None,1633.2381471,None,6,1.5061419000001024,1633.2381471,None,1.5061419000001024,1634.7746632,None,1635.2939765,None,1635.2939765,None,r,0.49866980000001604,1635.2939765,None,0.49866980000001604,,,132,001,2023_Sep_28_1136,ProdSingRedoBetween,2021.2.3,59.934790947463895,
,,,,32,0,32,0,,,,,,,,,,,,,,,,,,,,,,1639.1428881,None,,,,,,,,,,,,,,,,,route,163,33,aloud,new,null,1636.3437333,None,1636.3437333,None,2,1.6885414999999284,1636.3437333,None,1.6885414999999284,1638.0610818,None,1638.5777974,None,1638.5777974,None,n,0.5345417000000907,1638.5777974,None,0.5345417000000907,,,132,001,2023_Sep_28_1136,ProdSingRedoBetween,2021.2.3,59.934790947463895,
,,,,33,0,33,0,,,,,,,,,,,,,,,,,,,,,,1643.664078,None,,,,,,,,,,,,,,,,,shear,161,34,aloud,new,null,1639.6547721,None,1639.6547721,None,1,1.4335587999999007,1639.6547721,None,1.4335587999999007,1641.1136641,None,1641.6286287,None,1641.6286287,None,n,2.0197260999998434,1641.6286287,None,2.0197260999998434,,,132,001,2023_Sep_28_1136,ProdSingRedoBetween,2021.2.3,59.934790947463895,
,,,,34,0,34,0,,,,,,,,,,,,,,,,,,,,,,1646.9005876,None,,,,,,,,,,,,,,,,,music,160,35,aloud,new,null,1644.1798914,None,1644.1798914,None,6,1.7404917999999725,1644.1798914,None,1.7404917999999725,1645.9550427,None,1646.4710903,None,1646.4710903,None,f,0.40126550000013594,1646.4710903,None,0.40126550000013594,,,132,001,2023_Sep_28_1136,ProdSingRedoBetween,2021.2.3,59.934790947463895,
,,,,35,0,35,0,,,,,,,,,,,,,,,,,,,,,,1650.2372726,None,,,,,,,,,,,,,,,,,trail,29,36,aloud,old,blue,1647.4162314,None,1647.4162314,None,4,1.8880830000000515,1647.4162314,None,1.8880830000000515,1649.320672,None,1649.824786,None,1649.824786,None,f,0.3915362999998706,1649.824786,None,0.3915362999998706,,,132,001,2023_Sep_28_1136,ProdSingRedoBetween,2021.2.3,59.934790947463895,
,,,,36,0,36,0,,,,,,,,,,,,,,,,,,,,,,1653.7907821000001,None,,,,,,,,,,,,,,,,,little,162,37,aloud,new,null,1650.7472961,None,1650.7472961,None,2,2.0210172000001876,1650.7472961,None,2.0210172000001876,1652.7923925,None,1653.3095927,None,1653.3095927,None,n,0.4587543000000096,1653.3095927,None,0.4587543000000096,,,132,001,2023_Sep_28_1136,ProdSingRedoBetween,2021.2.3,59.934790947463895,
,,,,37,0,37,0,,,,,,,,,,,,,,,,,,,,,,1658.6623157,None,,,,,,,,,,,,,,,,,research,135,38,aloud,new,null,1654.3068474,None,1654.3068474,None,3,2.0774366999999074,1654.3068474,None,2.0774366999999074,1656.4142682,None,1656.9352563,None,1656.9352563,None,n,1.7050505999998222,1656.9352563,None,1.7050505999998222,,,132,001,2023_Sep_28_1136,ProdSingRedoBetween,2021.2.3,59.934790947463895,
,,,,38,0,38,0,,,,,,,,,,,,,,,,,,,,,,1664.4709134,None,,,,,,,,,,,,,,,,,solution,170,39,aloud,new,null,1659.1721424,None,1659.1721424,None,5,3.9722078000002057,1659.1721424,None,3.9722078000002057,1663.1726817,None,1663.68627,None,1663.68627,None,f,0.7620862000001125,1663.68627,None,0.7620862000001125,,,132,001,2023_Sep_28_1136,ProdSingRedoBetween,2021.2.3,59.934790947463895,
,,,,39,0,39,0,,,,,,,,,,,,,,,,,,,,,,1667.4042889,None,,,,,,,,,,,,,,,,,detective,152,40,aloud,new,null,1664.9990796,None,1664.9990796,None,1,1.401201599999922,1664.9990796,None,1.401201599999922,1666.4279025,None,1666.9409831,None,1666.9409831,None,n,0.43532840000011674,1666.9409831,None,0.43532840000011674,,,132,001,2023_Sep_28_1136,ProdSingRedoBetween,2021.2.3,59.934790947463895,
,,,,40,0,40,0,,,,,,,,,,,,,,,,,,,,,,1670.5327696,None,,,,,,,,,,,,,,,,,benefit,107,41,aloud,new,null,1667.9092665,None,1667.9092665,None,2,1.4270383000000493,1667.9092665,None,1.4270383000000493,1669.3596605,None,1669.8772647,None,1669.8772647,None,n,0.6191512999998849,1669.8772647,None,0.6191512999998849,,,132,001,2023_Sep_28_1136,ProdSingRedoBetween,2021.2.3,59.934790947463895,
,,,,41,0,41,0,,,,,,,,,,,,,,,,,,,,,,1674.1110938,None,,,,,,,,,,,,,,,,,empty,147,42,aloud,new,null,1671.0468362,None,1671.0468362,None,6,2.0176111999999193,1671.0468362,None,2.0176111999999193,1673.0967597000001,None,1673.6119857,None,1673.6119857,None,f,0.4682919000001675,1673.6119857,None,0.4682919000001675,,,132,001,2023_Sep_28_1136,ProdSingRedoBetween,2021.2.3,59.934790947463895,
,,,,42,0,42,0,,,,,,,,,,,,,,,,,,,,,,1677.7672827000001,None,,,,,,,,,,,,,,,,,fight,28,43,aloud,old,yellow,1674.6215852,None,1674.6215852,None,6,2.122716999999966,1674.6215852,None,2.122716999999966,1676.7642535,None,1677.2698728,None,1677.2698728,None,f,0.4747729000000618,1677.2698728,None,0.4747729000000618,,,132,001,2023_Sep_28_1136,ProdSingRedoBetween,2021.2.3,59.934790947463895,
,,,,43,0,43,0,,,,,,,,,,,,,,,,,,,,,,1681.169737,None,,,,,,,,,,,,,,,,,breath,64,44,aloud,old,red,1678.2929049,None,1678.2929049,None,6,1.8514554000000771,1678.2929049,None,1.8514554000000771,1680.17206,None,1680.6840884,None,1680.6840884,None,r,0.45210419999989426,1680.6840884,None,0.45210419999989426,,,132,001,2023_Sep_28_1136,ProdSingRedoBetween,2021.2.3,59.934790947463895,
,,,,44,0,44,0,,,,,,,,,,,,,,,,,,,,,,1686.3899134,None,,,,,,,,,,,,,,,,,signal,5,45,aloud,old,yellow,1681.6880155000001,None,1681.6880155000001,None,5,3.7843654000000697,1681.6880155000001,None,3.7843654000000697,1685.4927779,None,1686.009789,None,1686.009789,None,f,0.3584747999998399,1686.009789,None,0.3584747999998399,,,132,001,2023_Sep_28_1136,ProdSingRedoBetween,2021.2.3,59.934790947463895,
,,,,45,0,45,0,,,,,,,,,,,,,,,,,,,,,,1689.6933689,None,,,,,,,,,,,,,,,,,weather,3,46,aloud,old,yellow,1686.9013697,None,1686.9013697,None,5,2.0349145000000135,1686.9013697,None,2.0349145000000135,1688.9606729,None,1689.4682834,None,1689.4682834,None,f,0.20408659999998235,1689.4682834,None,0.20408659999998235,,,132,001,2023_Sep_28_1136,ProdSingRedoBetween,2021.2.3,59.934790947463895,
,,,,46,0,46,0,,,,,,,,,,,,,,,,,,,,,,1694.9986187,None,,,,,,,,,,,,,,,,,general,68,47,aloud,old,red,1690.2143419,None,1690.2143419,None,6,3.8500397999998768,1690.2143419,None,3.8500397999998768,1694.0884025,None,1694.5983039,None,1694.5983039,None,r,0.37808509999990747,1694.5983039,None,0.37808509999990747,,,132,001,2023_Sep_28_1136,ProdSingRedoBetween,2021.2.3,59.934790947463895,
,,,,47,0,47,0,,,,,,,,,,,,,,,,,,,,,,1697.9515514,None,,,,,,,,,,,,,,,,,native,108,48,aloud,new,null,1695.5144519,None,1695.5144519,None,3,1.493833400000085,1695.5144519,None,1.493833400000085,1697.0420792,None,1697.5563145,None,1697.5563145,None,n,0.38003649999996014,1697.5563145,None,0.38003649999996014,,,132,001,2023_Sep_28_1136,ProdSingRedoBetween,2021.2.3,59.934790947463895,
,,,,48,0,48,0,,,,,,,,,,,,,,,,,,,,,,1701.8752162,None,,,,,,,,,,,,,,,,,portion,37,49,aloud,old,blue,1698.4634924,None,1698.4634924,None,4,2.3288773000001584,1698.4634924,None,2.3288773000001584,1700.8312206,None,1701.3425967,None,1701.3425967,None,f,0.5136214999999993,1701.3425967,None,0.5136214999999993,,,132,001,2023_Sep_28_1136,ProdSingRedoBetween,2021.2.3,59.934790947463895,
,,,,49,0,49,0,,,,,,,,,,,,,,,,,,,,,,1706.0428207,None,,,,,,,,,,,,,,,,,silence,40,50,aloud,old,blue,1702.3981456,None,1702.3981456,None,6,2.474200099999962,1702.3981456,None,2.474200099999962,1704.8956814,None,1705.4176965,None,1705.4176965,None,r,0.5985948999998527,1705.4176965,None,0.5985948999998527,,,132,001,2023_Sep_28_1136,ProdSingRedoBetween,2021.2.3,59.934790947463895,
,,,,50,0,50,0,,,,,,,,,,,,,,,,,,,,,,1713.657662,None,,,,,,,,,,,,,,,,,death,30,51,aloud,old,blue,1706.5523611,None,1706.5523611,None,6,6.103878699999996,1706.5523611,None,6.103878699999996,1712.6851876,None,1713.2029128,None,1713.2029128,None,r,0.4295038000000204,1713.2029128,None,0.4295038000000204,,,132,001,2023_Sep_28_1136,ProdSingRedoBetween,2021.2.3,59.934790947463895,
,,,,51,0,51,0,,,,,,,,,,,,,,,,,,,,,,1719.3562456,None,,,,,,,,,,,,,,,,,light,138,52,aloud,new,null,1714.1733309,None,1714.1733309,None,4,4.210897400000022,1714.1733309,None,4.210897400000022,1718.4050045,None,1718.9103813,None,1718.9103813,None,f,0.4258813999999802,1718.9103813,None,0.4258813999999802,,,132,001,2023_Sep_28_1136,ProdSingRedoBetween,2021.2.3,59.934790947463895,
,,,,52,0,52,0,,,,,,,,,,,,,,,,,,,,,,1722.4773952,None,,,,,,,,,,,,,,,,,message,21,53,aloud,old,yellow,1719.8676110000001,None,1719.8676110000001,None,2,1.7167036000000735,1719.8676110000001,None,1.7167036000000735,1721.6138537,None,1722.1373724,None,1722.1373724,None,n,0.3189513999998326,1722.1373724,None,0.3189513999998326,,,132,001,2023_Sep_28_1136,ProdSingRedoBetween,2021.2.3,59.934790947463895,
,,,,53,0,53,0,,,,,,,,,,,,,,,,,,,,,,1731.1012761,None,,,,,,,,,,,,,,,,,notice,22,54,aloud,old,yellow,1722.9805901,None,1722.9805901,None,5,7.179649499999869,1722.9805901,None,7.179649499999869,1730.1854605,None,1730.7008957,None,1730.7008957,None,f,0.3714108000001488,1730.7008957,None,0.3714108000001488,,,132,001,2023_Sep_28_1136,ProdSingRedoBetween,2021.2.3,59.934790947463895,
,,,,54,0,54,0,,,,,,,,,,,,,,,,,,,,,,1735.0886372,None,,,,,,,,,,,,,,,,,weight,0,55,aloud,old,yellow,1731.6149312,None,1731.6149312,None,4,2.4253055000001496,1731.6149312,None,2.4253055000001496,1734.0718549,None,1734.5811948,None,1734.5811948,None,f,0.49105819999999767,1734.5811948,None,0.49105819999999767,,,132,001,2023_Sep_28_1136,ProdSingRedoBetween,2021.2.3,59.934790947463895,
,,,,55,0,55,0,,,,,,,,,,,,,,,,,,,,,,1738.9590687,None,,,,,,,,,,,,,,,,,smooth,82,56,aloud,old,red,1735.5930134,None,1735.5930134,None,6,2.2552952000000914,1735.5930134,None,2.2552952000000914,1737.8848727,None,1738.3960483,None,1738.3960483,None,r,0.5320887000000312,1738.3960483,None,0.5320887000000312,,,132,001,2023_Sep_28_1136,ProdSingRedoBetween,2021.2.3,59.934790947463895,
,,,,56,0,56,0,,,,,,,,,,,,,,,,,,,,,,1743.9807758,None,,,,,,,,,,,,,,,,,clear,70,57,aloud,old,red,1739.4712962,None,1739.4712962,None,1,3.2728566999999202,1739.4712962,None,3.2728566999999202,1742.7646131,None,1743.2694711,None,1743.2694711,None,n,0.6828510999998798,1743.2694711,None,0.6828510999998798,,,132,001,2023_Sep_28_1136,ProdSingRedoBetween,2021.2.3,59.934790947463895,
,,,,57,0,57,0,,,,,,,,,,,,,,,,,,,,,,1747.4676105,None,,,,,,,,,,,,,,,,,meeting,104,58,aloud,new,null,1744.4830842000001,None,1744.4830842000001,None,5,1.9092280999998366,1744.4830842000001,None,1.9092280999998366,1746.4235046000001,None,1746.9338725,None,1746.9338725,None,f,0.5143837000000531,1746.9338725,None,0.5143837000000531,,,132,001,2023_Sep_28_1136,ProdSingRedoBetween,2021.2.3,59.934790947463895,
,,,,58,0,58,0,,,,,,,,,,,,,,,,,,,,,,1751.6394607,None,,,,,,,,,,,,,,,,,edition,26,59,aloud,old,yellow,1747.9796207,None,1747.9796207,None,6,1.9725707000000057,1747.9796207,None,1.9725707000000057,1749.9727243,None,1750.4929011,None,1750.4929011,None,r,1.1154796999999235,1750.4929011,None,1.1154796999999235,,,132,001,2023_Sep_28_1136,ProdSingRedoBetween,2021.2.3,59.934790947463895,
,,,,59,0,59,0,,,,,,,,,,,,,,,,,,,,,,1755.3614779,None,,,,,,,,,,,,,,,,,education,120,60,aloud,new,null,1752.1440636,None,1752.1440636,None,2,2.320121499999914,1752.1440636,None,2.320121499999914,1754.4935792,None,1755.0177382,None,1755.0177382,None,n,0.31076889999985724,1755.0177382,None,0.31076889999985724,,,132,001,2023_Sep_28_1136,ProdSingRedoBetween,2021.2.3,59.934790947463895,
,,,,60,0,60,0,,,,,,,,,,,,,,,,,,,,,,1761.7486038000002,None,,,,,,,,,,,,,,,,,review,43,61,aloud,old,blue,1755.8838514,None,1755.8838514,None,3,4.684400900000128,1755.8838514,None,4.684400900000128,1760.5997487999998,None,1761.1218792,None,1761.1218792,None,n,0.5983977000000777,1761.1218792,None,0.5983977000000777,,,132,001,2023_Sep_28_1136,ProdSingRedoBetween,2021.2.3,59.934790947463895,
,,,,61,0,61,0,,,,,,,,,,,,,,,,,,,,,,1766.6033671,None,,,,,,,,,,,,,,,,,skill,105,62,aloud,new,null,1762.2519131,None,1762.2519131,None,2,2.18045149999989,1762.2519131,None,2.18045149999989,1764.4583542,None,1764.9758496,None,1764.9758496,None,n,1.6003814999999122,1764.9758496,None,1.6003814999999122,,,132,001,2023_Sep_28_1136,ProdSingRedoBetween,2021.2.3,59.934790947463895,
,,,,62,0,62,0,,,,,,,,,,,,,,,,,,,,,,1772.6927890000002,None,,,,,,,,,,,,,,,,,reach,130,63,aloud,new,null,1767.1099703999998,None,1767.1099703999998,None,3,3.9542265999998563,1767.1099703999998,None,3.9542265999998563,1771.0930076,None,1771.6131226000002,None,1771.6131226000002,None,n,1.0590852999998788,1771.6131226000002,None,1.0590852999998788,,,132,001,2023_Sep_28_1136,ProdSingRedoBetween,2021.2.3,59.934790947463895,
,,,,63,0,63,0,,,,,,,,,,,,,,,,,,,,,,1777.0969174000002,None,,,,,,,,,,,,,,,,,color,172,64,aloud,new,null,1773.2049627000001,None,1773.2049627000001,None,1,2.5232163000000583,1773.2049627000001,None,2.5232163000000583,1775.7455599999998,None,1776.2490056000001,None,1776.2490056000001,None,n,0.8311232000000928,1776.2490056000001,None,0.8311232000000928,,,132,001,2023_Sep_28_1136,ProdSingRedoBetween,2021.2.3,59.934790947463895,
,,,,64,0,64,0,,,,,,,,,,,,,,,,,,,,,,1780.3017547,None,,,,,,,,,,,,,,,,,quiet,35,65,aloud,old,blue,1777.6035445000002,None,1777.6035445000002,None,6,1.6285828000000038,1777.6035445000002,None,1.6285828000000038,1779.252317,None,1779.7703348999999,None,1779.7703348999999,None,f,0.510074799999984,1779.7703348999999,None,0.510074799999984,,,132,001,2023_Sep_28_1136,ProdSingRedoBetween,2021.2.3,59.934790947463895,
,,,,65,0,65,0,,,,,,,,,,,,,,,,,,,,,,1793.6303010000001,None,,,,,,,,,,,,,,,,,scene,93,66,aloud,new,null,1780.8121448000002,None,1780.8121448000002,None,2,11.131992500000251,1780.8121448000002,None,11.131992500000251,1791.9651086,None,1792.4790404,None,1792.4790404,None,n,1.1291340000002492,1792.4790404,None,1.1291340000002492,,,132,001,2023_Sep_28_1136,ProdSingRedoBetween,2021.2.3,59.934790947463895,
,,,,66,0,66,0,,,,,,,,,,,,,,,,,,,,,,1799.5194877,None,,,,,,,,,,,,,,,,,addition,51,67,aloud,old,blue,1794.1365134000002,None,1794.1365134000002,None,5,4.519697000000178,1794.1365134000002,None,4.519697000000178,1798.6853669000002,None,1799.2018379,None,1799.2018379,None,f,0.30233810000027006,1799.2018379,None,0.30233810000027006,,,132,001,2023_Sep_28_1136,ProdSingRedoBetween,2021.2.3,59.934790947463895,
,,,,67,0,67,0,,,,,,,,,,,,,,,,,,,,,,1803.6069828,None,,,,,,,,,,,,,,,,,capital,56,68,aloud,old,blue,1800.0322155,None,1800.0322155,None,6,2.2159434999998666,1800.0322155,None,2.2159434999998666,1802.2751165,None,1802.7934359,None,1802.7934359,None,r,0.7987609000001612,1802.7934359,None,0.7987609000001612,,,132,001,2023_Sep_28_1136,ProdSingRedoBetween,2021.2.3,59.934790947463895,
,,,,68,0,68,0,,,,,,,,,,,,,,,,,,,,,,1807.6609655000002,None,,,,,,,,,,,,,,,,,distance,45,69,aloud,old,blue,1804.1155463999999,None,1804.1155463999999,None,4,2.540710499999932,1804.1155463999999,None,2.540710499999932,1806.6820556000002,None,1807.1939370999999,None,1807.1939370999999,None,f,0.43825809999998455,1807.1939370999999,None,0.43825809999998455,,,132,001,2023_Sep_28_1136,ProdSingRedoBetween,2021.2.3,59.934790947463895,
,,,,69,0,69,0,,,,,,,,,,,,,,,,,,,,,,1813.2498882999998,None,,,,,,,,,,,,,,,,,guide,131,70,aloud,new,null,1808.1709468,None,1808.1709468,None,5,3.91723200000024,1808.1709468,None,3.91723200000024,1812.1187568,None,1812.6327319000002,None,1812.6327319000002,None,f,0.5914788000000044,1812.6327319000002,None,0.5914788000000044,,,132,001,2023_Sep_28_1136,ProdSingRedoBetween,2021.2.3,59.934790947463895,
,,,,70,0,70,0,,,,,,,,,,,,,,,,,,,,,,1817.9879987,None,,,,,,,,,,,,,,,,,author,41,71,aloud,old,blue,1813.7569065000002,None,1813.7569065000002,None,2,3.1872175999997125,1813.7569065000002,None,3.1872175999997125,1816.9713840999998,None,1817.4710260000002,None,1817.4710260000002,None,n,0.4891056000001299,1817.4710260000002,None,0.4891056000001299,,,132,001,2023_Sep_28_1136,ProdSingRedoBetween,2021.2.3,59.934790947463895,
,,,,71,0,71,0,,,,,,,,,,,,,,,,,,,,,,1821.4581108000002,None,,,,,,,,,,,,,,,,,pretty,174,72,aloud,new,null,1818.4995675,None,1818.4995675,None,2,1.8765472000000045,1818.4995675,None,1.8765472000000045,1820.4072909000001,None,1820.9107518,None,1820.9107518,None,n,0.5214436999999634,1820.9107518,None,0.5214436999999634,,,132,001,2023_Sep_28_1136,ProdSingRedoBetween,2021.2.3,59.934790947463895,
,,,,72,0,72,0,,,,,,,,,,,,,,,,,,,,,,1825.2283081,None,,,,,,,,,,,,,,,,,budget,169,73,aloud,new,null,1821.9650658,None,1821.9650658,None,4,2.235059199999796,1821.9650658,None,2.235059199999796,1824.2316766,None,1824.7448208,None,1824.7448208,None,f,0.45543259999976726,1824.7448208,None,0.45543259999976726,,,132,001,2023_Sep_28_1136,ProdSingRedoBetween,2021.2.3,59.934790947463895,
,,,,73,0,73,0,,,,,,,,,,,,,,,,,,,,,,1829.2322697999998,None,,,,,,,,,,,,,,,,,split,129,74,aloud,new,null,1825.7288761999998,None,1825.7288761999998,None,5,2.5673083000001498,1825.7288761999998,None,2.5673083000001498,1828.3182487,None,1828.8346293999998,None,1828.8346293999998,None,f,0.3735418999999638,1828.8346293999998,None,0.3735418999999638,,,132,001,2023_Sep_28_1136,ProdSingRedoBetween,2021.2.3,59.934790947463895,
,,,,74,0,74,0,,,,,,,,,,,,,,,,,,,,,,1832.1687806,None,,,,,,,,,,,,,,,,,guard,113,75,aloud,new,null,1829.7330416,None,1829.7330416,None,6,1.3393458999998984,1829.7330416,None,1.3393458999998984,1831.1060552,None,1831.618324,None,1831.618324,None,r,0.5258364999999685,1831.618324,None,0.5258364999999685,,,132,001,2023_Sep_28_1136,ProdSingRedoBetween,2021.2.3,59.934790947463895,
,,,,75,0,75,0,,,,,,,,,,,,,,,,,,,,,,1835.0382746,None,,,,,,,,,,,,,,,,,collection,121,76,aloud,new,null,1832.6786723999999,None,1832.6786723999999,None,2,1.4095548000000235,1832.6786723999999,None,1.4095548000000235,1834.1134613,None,1834.6249653999998,None,1834.6249653999998,None,n,0.3911566000001585,1834.6249653999998,None,0.3911566000001585,,,132,001,2023_Sep_28_1136,ProdSingRedoBetween,2021.2.3,59.934790947463895,
,,,,76,0,76,0,,,,,,,,,,,,,,,,,,,,,,1840.1600601999999,None,,,,,,,,,,,,,,,,,exchange,132,77,aloud,new,null,1835.5507169000002,None,1835.5507169000002,None,5,3.665298200000052,1835.5507169000002,None,3.665298200000052,1839.2442363,None,1839.7434048,None,1839.7434048,None,f,0.40071469999975307,1839.7434048,None,0.40071469999975307,,,132,001,2023_Sep_28_1136,ProdSingRedoBetween,2021.2.3,59.934790947463895,
,,,,77,0,77,0,,,,,,,,,,,,,,,,,,,,,,1844.1807557000002,None,,,,,,,,,,,,,,,,,tragedy,58,78,aloud,old,blue,1840.6731765,None,1840.6731765,None,4,2.526984700000412,1840.6731765,None,2.526984700000412,1843.2369715,None,1843.7503668,None,1843.7503668,None,f,0.4018224999999802,1843.7503668,None,0.4018224999999802,,,132,001,2023_Sep_28_1136,ProdSingRedoBetween,2021.2.3,59.934790947463895,
,,,,78,0,78,0,,,,,,,,,,,,,,,,,,,,,,1846.9669023000001,None,,,,,,,,,,,,,,,,,candidate,2,79,aloud,old,yellow,1844.6828991000002,None,1844.6828991000002,None,6,1.237358299999869,1844.6828991000002,None,1.237358299999869,1845.9521776000001,None,1846.4665163999998,None,1846.4665163999998,None,r,0.4776409999999487,1846.4665163999998,None,0.4776409999999487,,,132,001,2023_Sep_28_1136,ProdSingRedoBetween,2021.2.3,59.934790947463895,
,,,,79,0,79,0,,,,,,,,,,,,,,,,,,,,,,1849.955144,None,,,,,,,,,,,,,,,,,space,27,80,aloud,old,yellow,1847.484998,None,1847.484998,None,6,1.5871102000000974,1847.484998,None,1.5871102000000974,1849.1034083999998,None,1849.6093986,None,1849.6093986,None,r,0.31875209999998333,1849.6093986,None,0.31875209999998333,,,132,001,2023_Sep_28_1136,ProdSingRedoBetween,2021.2.3,59.934790947463895,
,,,,80,0,80,0,,,,,,,,,,,,,,,,,,,,,,1853.1397087,None,,,,,,,,,,,,,,,,,patient,159,81,aloud,new,null,1850.4743308000002,None,1850.4743308000002,None,6,1.7418862999998055,1850.4743308000002,None,1.7418862999998055,1852.2492997,None,1852.7642922,None,1852.7642922,None,r,0.3558272999998735,1852.7642922,None,0.3558272999998735,,,132,001,2023_Sep_28_1136,ProdSingRedoBetween,2021.2.3,59.934790947463895,
,,,,81,0,81,0,,,,,,,,,,,,,,,,,,,,,,1855.7256373999999,None,,,,,,,,,,,,,,,,,marriage,62,82,aloud,old,red,1853.6428799999999,None,1853.6428799999999,None,6,1.0774796000000606,1853.6428799999999,None,1.0774796000000606,1854.7479232,None,1855.2587394000002,None,1855.2587394000002,None,r,0.44542749999982334,1855.2587394000002,None,0.44542749999982334,,,132,001,2023_Sep_28_1136,ProdSingRedoBetween,2021.2.3,59.934790947463895,
,,,,82,0,82,0,,,,,,,,,,,,,,,,,,,,,,1858.3813053,None,,,,,,,,,,,,,,,,,frank,164,83,aloud,new,null,1856.2308673000002,None,1856.2308673000002,None,1,1.2013670999999704,1856.2308673000002,None,1.2013670999999704,1857.471212,None,1857.9815966,None,1857.9815966,None,n,0.3786135000000286,1857.9815966,None,0.3786135000000286,,,132,001,2023_Sep_28_1136,ProdSingRedoBetween,2021.2.3,59.934790947463895,
,,,,83,0,83,0,,,,,,,,,,,,,,,,,,,,,,1862.885992,None,,,,,,,,,,,,,,,,,motion,102,84,aloud,new,null,1858.8999528999998,None,1858.8999528999998,None,3,2.820361999999932,1858.8999528999998,None,2.820361999999932,1861.7576530000001,None,1862.2676084999998,None,1862.2676084999998,None,n,0.5965901999998096,1862.2676084999998,None,0.5965901999998096,,,132,001,2023_Sep_28_1136,ProdSingRedoBetween,2021.2.3,59.934790947463895,
,,,,84,0,84,0,,,,,,,,,,,,,,,,,,,,,,1867.2431606999999,None,,,,,,,,,,,,,,,,,graduate,61,85,aloud,old,red,1863.4063928,None,1863.4063928,None,6,1.8579953999997088,1863.4063928,None,1.8579953999997088,1865.2884098,None,1865.8179117,None,1865.8179117,None,r,1.3984328999999889,1865.8179117,None,1.3984328999999889,,,132,001,2023_Sep_28_1136,ProdSingRedoBetween,2021.2.3,59.934790947463895,
,,,,85,0,85,0,,,,,,,,,,,,,,,,,,,,,,1872.2587923,None,,,,,,,,,,,,,,,,,executive,18,86,aloud,old,yellow,1867.7620278,None,1867.7620278,None,6,3.3661031999999977,1867.7620278,None,3.3661031999999977,1871.1616939,None,1871.6828541999998,None,1871.6828541999998,None,r,0.5492939000000661,1871.6828541999998,None,0.5492939000000661,,,132,001,2023_Sep_28_1136,ProdSingRedoBetween,2021.2.3,59.934790947463895,
,,,,86,0,86,0,,,,,,,,,,,,,,,,,,,,,,1874.9614889999998,None,,,,,,,,,,,,,,,,,equipment,14,87,aloud,old,yellow,1872.7682194,None,1872.7682194,None,2,1.3279775999999401,1872.7682194,None,1.3279775999999401,1874.129778,None,1874.651578,None,1874.651578,None,n,0.28454809999993813,1874.651578,None,0.28454809999993813,,,132,001,2023_Sep_28_1136,ProdSingRedoBetween,2021.2.3,59.934790947463895,
,,,,87,0,87,0,,,,,,,,,,,,,,,,,,,,,,1878.3312609,None,,,,,,,,,,,,,,,,,mechanical,137,88,aloud,new,null,1875.4655182000001,None,1875.4655182000001,None,1,1.5505972999999358,1875.4655182000001,None,1.5505972999999358,1877.0499353999999,None,1877.5685273,None,1877.5685273,None,n,0.7355962999999974,1877.5685273,None,0.7355962999999974,,,132,001,2023_Sep_28_1136,ProdSingRedoBetween,2021.2.3,59.934790947463895,
,,,,88,0,88,0,,,,,,,,,,,,,,,,,,,,,,1881.3529933,None,,,,,,,,,,,,,,,,,reading,118,89,aloud,new,null,1878.8365985,None,1878.8365985,None,1,1.4114518999999746,1878.8365985,None,1.4114518999999746,1880.2666233,None,1880.7681609,None,1880.7681609,None,n,0.5601614000001973,1880.7681609,None,0.5601614000001973,,,132,001,2023_Sep_28_1136,ProdSingRedoBetween,2021.2.3,59.934790947463895,
,,,,89,0,89,0,,,,,,,,,,,,,,,,,,,,,,1884.2874296999998,None,,,,,,,,,,,,,,,,,poetry,96,90,aloud,new,null,1881.8741300000002,None,1881.8741300000002,None,3,1.477878900000178,1881.8741300000002,None,1.477878900000178,1883.371192,None,1883.8797371,None,1883.8797371,None,n,0.37639309999985926,1883.8797371,None,0.37639309999985926,,,132,001,2023_Sep_28_1136,ProdSingRedoBetween,2021.2.3,59.934790947463895,
,,,,90,0,90,0,,,,,,,,,,,,,,,,,,,,,,1888.3747032,None,,,,,,,,,,,,,,,,,recall,125,91,aloud,new,null,1884.7971819999998,None,1884.7971819999998,None,1,2.5069069999999556,1884.7971819999998,None,2.5069069999999556,1887.3249305,None,1887.8296848999998,None,1887.8296848999998,None,n,0.5144053999997595,1887.8296848999998,None,0.5144053999997595,,,132,001,2023_Sep_28_1136,ProdSingRedoBetween,2021.2.3,59.934790947463895,
,,,,91,0,91,0,,,,,,,,,,,,,,,,,,,,,,1891.5946880000001,None,,,,,,,,,,,,,,,,,subject,46,92,aloud,old,blue,1888.8810697,None,1888.8810697,None,5,1.6870159999998577,1888.8810697,None,1.6870159999998577,1890.5955743,None,1891.1181514,None,1891.1181514,None,f,0.4578326000000743,1891.1181514,None,0.4578326000000743,,,132,001,2023_Sep_28_1136,ProdSingRedoBetween,2021.2.3,59.934790947463895,
,,,,92,0,92,0,,,,,,,,,,,,,,,,,,,,,,1897.9181724999999,None,,,,,,,,,,,,,,,,,damage,98,93,aloud,new,null,1892.1057821999998,None,1892.1057821999998,None,3,4.846333299999969,1892.1057821999998,None,4.846333299999969,1896.9834623000002,None,1897.4881123999999,None,1897.4881123999999,None,n,0.40804709999974875,1897.4881123999999,None,0.40804709999974875,,,132,001,2023_Sep_28_1136,ProdSingRedoBetween,2021.2.3,59.934790947463895,
,,,,93,0,93,0,,,,,,,,,,,,,,,,,,,,,,1904.9427469000002,None,,,,,,,,,,,,,,,,,incident,128,94,aloud,new,null,1898.4303656000002,None,1898.4303656000002,None,6,5.553729400000066,1898.4303656000002,None,5.553729400000066,1904.0134492000002,None,1904.5279136,None,1904.5279136,None,f,0.38423969999985275,1904.5279136,None,0.38423969999985275,,,132,001,2023_Sep_28_1136,ProdSingRedoBetween,2021.2.3,59.934790947463895,
,,,,94,0,94,0,,,,,,,,,,,,,,,,,,,,,,1908.1613287999999,None,,,,,,,,,,,,,,,,,waste,6,95,aloud,old,yellow,1905.446715,None,1905.446715,None,6,1.6173909999997704,1905.446715,None,1.6173909999997704,1907.0989058,None,1907.6158657,None,1907.6158657,None,f,0.5281379999996716,1907.6158657,None,0.5281379999996716,,,132,001,2023_Sep_28_1136,ProdSingRedoBetween,2021.2.3,59.934790947463895,
,,,,95,0,95,0,,,,,,,,,,,,,,,,,,,,,,1911.2496884000002,None,,,,,,,,,,,,,,,,,spoke,78,96,aloud,old,red,1908.6676103,None,1908.6676103,None,6,1.5724436999998943,1908.6676103,None,1.5724436999998943,1910.2652899,None,1910.7837573000002,None,1910.7837573000002,None,r,0.4405483999998978,1910.7837573000002,None,0.4405483999998978,,,132,001,2023_Sep_28_1136,ProdSingRedoBetween,2021.2.3,59.934790947463895,
,,,,96,0,96,0,,,,,,,,,,,,,,,,,,,,,,1914.7369014,None,,,,,,,,,,,,,,,,,trash,116,97,aloud,new,null,1911.7693453000002,None,1911.7693453000002,None,3,1.7267031999999745,1911.7693453000002,None,1.7267031999999745,1913.5186651,None,1914.0368791,None,1914.0368791,None,f,0.6753813000000264,1914.0368791,None,0.6753813000000264,,,132,001,2023_Sep_28_1136,ProdSingRedoBetween,2021.2.3,59.934790947463895,
,,,,97,0,97,0,,,,,,,,,,,,,,,,,,,,,,1917.7372504999998,None,,,,,,,,,,,,,,,,,danger,114,98,aloud,new,null,1915.2647035999998,None,1915.2647035999998,None,4,1.4712973000000602,1915.2647035999998,None,1.4712973000000602,1916.7542899,None,1917.2575207999998,None,1917.2575207999998,None,f,0.4626613999998881,1917.2575207999998,None,0.4626613999998881,,,132,001,2023_Sep_28_1136,ProdSingRedoBetween,2021.2.3,59.934790947463895,
,,,,98,0,98,0,,,,,,,,,,,,,,,,,,,,,,1932.4187926,None,,,,,,,,,,,,,,,,,business,33,99,aloud,old,blue,1918.2476726999998,None,1918.2476726999998,None,5,13.20847189999995,1918.2476726999998,None,13.20847189999995,1931.4914013000002,None,1932.0059236000002,None,1932.0059236000002,None,f,0.38606909999998607,1932.0059236000002,None,0.38606909999998607,,,132,001,2023_Sep_28_1136,ProdSingRedoBetween,2021.2.3,59.934790947463895,
,,,,99,0,99,0,,,,,,,,,,,,,,,,,,,,,,1937.3429953,None,,,,,,,,,,,,,,,,,still,176,100,aloud,new,null,1932.9291807,None,1932.9291807,None,6,1.9030342999999448,1932.9291807,None,1.9030342999999448,1934.864372,None,1935.3718978000002,None,1935.3718978000002,None,r,1.940331000000242,1935.3718978000002,None,1.940331000000242,,,132,001,2023_Sep_28_1136,ProdSingRedoBetween,2021.2.3,59.934790947463895,
,,,,100,0,100,0,,,,,,,,,,,,,,,,,,,,,,1943.9636452,None,,,,,,,,,,,,,,,,,bureau,117,101,aloud,new,null,1937.8675428000001,None,1937.8675428000001,None,1,5.052525399999922,1937.8675428000001,None,5.052525399999922,1942.9480767,None,1943.4630048,None,1943.4630048,None,n,0.47298670000009224,1943.4630048,None,0.47298670000009224,,,132,001,2023_Sep_28_1136,ProdSingRedoBetween,2021.2.3,59.934790947463895,
,,,,101,0,101,0,,,,,,,,,,,,,,,,,,,,,,1947.5839366999999,None,,,,,,,,,,,,,,,,,husband,166,102,aloud,new,null,1944.4660158000002,None,1944.4660158000002,None,2,2.253987099999904,1944.4660158000002,None,2.253987099999904,1946.7507432000002,None,1947.2567101999998,None,1947.2567101999998,None,n,0.31131709999999657,1947.2567101999998,None,0.31131709999999657,,,132,001,2023_Sep_28_1136,ProdSingRedoBetween,2021.2.3,59.934790947463895,
,,,,102,0,102,0,,,,,,,,,,,,,,,,,,,,,,1950.2866853,None,,,,,,,,,,,,,,,,,plane,32,103,aloud,old,blue,1948.0966447,None,1948.0966447,None,6,1.1913076000000729,1948.0966447,None,1.1913076000000729,1949.3216553000002,None,1949.8389945,None,1949.8389945,None,r,0.4249769000002743,1949.8389945,None,0.4249769000002743,,,132,001,2023_Sep_28_1136,ProdSingRedoBetween,2021.2.3,59.934790947463895,
,,,,103,0,103,0,,,,,,,,,,,,,,,,,,,,,,1956.3275766000002,None,,,,,,,,,,,,,,,,,health,88,104,aloud,old,red,1950.7919569,None,1950.7919569,None,4,4.656159399999979,1950.7919569,None,4.656159399999979,1955.4813284000002,None,1955.9924817,None,1955.9924817,None,f,0.31163040000001274,1955.9924817,None,0.31163040000001274,,,132,001,2023_Sep_28_1136,ProdSingRedoBetween,2021.2.3,59.934790947463895,
,,,,104,0,104,0,,,,,,,,,,,,,,,,,,,,,,1959.1355804999998,None,,,,,,,,,,,,,,,,,south,53,105,aloud,old,blue,1956.8388194,None,1956.8388194,None,1,1.3931898999999248,1956.8388194,None,1.3931898999999248,1958.2664332999998,None,1958.7816622999999,None,1958.7816622999999,None,n,0.3303635999996004,1958.7816622999999,None,0.3303635999996004,,,132,001,2023_Sep_28_1136,ProdSingRedoBetween,2021.2.3,59.934790947463895,
,,,,105,0,105,0,,,,,,,,,,,,,,,,,,,,,,1963.1514373999998,None,,,,,,,,,,,,,,,,,scale,83,106,aloud,old,red,1959.6520655,None,1959.6520655,None,6,2.6759742999997798,1959.6520655,None,2.6759742999997798,1962.3523145,None,1962.8761125,None,1962.8761125,None,f,0.2519972999998572,1962.8761125,None,0.2519972999998572,,,132,001,2023_Sep_28_1136,ProdSingRedoBetween,2021.2.3,59.934790947463895,
,,,,106,0,106,0,,,,,,,,,,,,,,,,,,,,,,1967.3870679000001,None,,,,,,,,,,,,,,,,,sleep,63,107,aloud,old,red,1963.6751668000002,None,1963.6751668000002,None,6,1.9408101000003626,1963.6751668000002,None,1.9408101000003626,1965.6356340000002,None,1966.1416092,None,1966.1416092,None,f,1.2265204000000267,1966.1416092,None,1.2265204000000267,,,132,001,2023_Sep_28_1136,ProdSingRedoBetween,2021.2.3,59.934790947463895,
,,,,107,0,107,0,,,,,,,,,,,,,,,,,,,,,,1970.7071515000002,None,,,,,,,,,,,,,,,,,report,36,108,aloud,old,blue,1967.9004675,None,1967.9004675,None,5,1.8914918000000398,1967.9004675,None,1.8914918000000398,1969.8242512000002,None,1970.3285351999998,None,1970.3285351999998,None,f,0.35960720000002766,1970.3285351999998,None,0.35960720000002766,,,132,001,2023_Sep_28_1136,ProdSingRedoBetween,2021.2.3,59.934790947463895,
,,,,108,0,108,0,,,,,,,,,,,,,,,,,,,,,,1975.0313692999998,None,,,,,,,,,,,,,,,,,principal,167,109,aloud,new,null,1971.2256455000002,None,1971.2256455000002,None,6,3.1263456000001497,1971.2256455000002,None,3.1263456000001497,1974.3785174,None,1974.8838945000002,None,1974.8838945000002,None,r,0.11628960000007282,1974.8838945000002,None,0.11628960000007282,,,132,001,2023_Sep_28_1136,ProdSingRedoBetween,2021.2.3,59.934790947463895,
,,,,109,0,109,0,,,,,,,,,,,,,,,,,,,,,,1977.7140513,None,,,,,,,,,,,,,,,,,theme,178,110,aloud,new,null,1975.5582125,None,1975.5582125,None,2,1.385820099999819,1975.5582125,None,1.385820099999819,1976.9666386,None,1977.4890590999998,None,1977.4890590999998,None,n,0.20686879999993835,1977.4890590999998,None,0.20686879999993835,,,132,001,2023_Sep_28_1136,ProdSingRedoBetween,2021.2.3,59.934790947463895,
,,,,110,0,110,0,,,,,,,,,,,,,,,,,,,,,,1981.2843414,None,,,,,,,,,,,,,,,,,expansion,12,111,aloud,old,yellow,1978.2331355000001,None,1978.2331355000001,None,5,2.166853799999899,1978.2331355000001,None,2.166853799999899,1980.4383753000002,None,1980.9505166,None,1980.9505166,None,f,0.30553599999984726,1980.9505166,None,0.30553599999984726,,,132,001,2023_Sep_28_1136,ProdSingRedoBetween,2021.2.3,59.934790947463895,
,,,,111,0,111,0,,,,,,,,,,,,,,,,,,,,,,1985.3883738999998,None,,,,,,,,,,,,,,,,,answer,20,112,aloud,old,yellow,1981.792892,None,1981.792892,None,3,2.183043600000019,1981.792892,None,2.183043600000019,1984.0066255000002,None,1984.5210066999998,None,1984.5210066999998,None,f,0.8390554000002339,1984.5210066999998,None,0.8390554000002339,,,132,001,2023_Sep_28_1136,ProdSingRedoBetween,2021.2.3,59.934790947463895,
,,,,112,0,112,0,,,,,,,,,,,,,,,,,,,,,,1989.7104989,None,,,,,,,,,,,,,,,,,right,95,113,aloud,new,null,1985.891611,None,1985.891611,None,5,2.5003391000000192,1985.891611,None,2.5003391000000192,1988.4113911999998,None,1988.9253580999998,None,1988.9253580999998,None,f,0.754752499999995,1988.9253580999998,None,0.754752499999995,,,132,001,2023_Sep_28_1136,ProdSingRedoBetween,2021.2.3,59.934790947463895,
,,,,113,0,113,0,,,,,,,,,,,,,,,,,,,,,,1992.5288168000002,None,,,,,,,,,,,,,,,,,touch,168,114,aloud,new,null,1990.2157828,None,1990.2157828,None,2,1.496364199999789,1990.2157828,None,1.496364199999789,1991.7376846000002,None,1992.2493356999998,None,1992.2493356999998,None,n,0.25463399999989633,1992.2493356999998,None,0.25463399999989633,,,132,001,2023_Sep_28_1136,ProdSingRedoBetween,2021.2.3,59.934790947463895,
,,,,114,0,114,0,,,,,,,,,,,,,,,,,,,,,,1995.6319223,None,,,,,,,,,,,,,,,,,century,79,115,aloud,old,red,1993.0412012000002,None,1993.0412012000002,None,6,1.6949223000001439,1993.0412012000002,None,1.6949223000001439,1994.7764603,None,1995.2818305,None,1995.2818305,None,f,0.32617430000027525,1995.2818305,None,0.32617430000027525,,,132,001,2023_Sep_28_1136,ProdSingRedoBetween,2021.2.3,59.934790947463895,
,,,,115,0,115,0,,,,,,,,,,,,,,,,,,,,,,1999.0852826999999,None,,,,,,,,,,,,,,,,,household,158,116,aloud,new,null,1996.1433751999998,None,1996.1433751999998,None,2,2.0647461000003204,1996.1433751999998,None,2.0647461000003204,1998.2458189,None,1998.7549952999998,None,1998.7549952999998,None,n,0.30899490000001606,1998.7549952999998,None,0.30899490000001606,,,132,001,2023_Sep_28_1136,ProdSingRedoBetween,2021.2.3,59.934790947463895,
,,,,116,0,116,0,,,,,,,,,,,,,,,,,,,,,,2006.2591696999998,None,,,,,,,,,,,,,,,,,present,143,117,aloud,new,null,1999.5976815,None,1999.5976815,None,6,5.738265099999808,1999.5976815,None,5.738265099999808,2005.3611915000001,None,2005.8802342,None,2005.8802342,None,r,0.35173970000005284,2005.8802342,None,0.35173970000005284,,,132,001,2023_Sep_28_1136,ProdSingRedoBetween,2021.2.3,59.934790947463895,
,,,,117,0,117,0,,,,,,,,,,,,,,,,,,,,,,2009.4623581,None,,,,,,,,,,,,,,,,,discovery,150,118,aloud,new,null,2006.7819774,None,2006.7819774,None,4,1.762125300000207,2006.7819774,None,1.762125300000207,2008.5697785000002,None,2009.0867732000002,None,2009.0867732000002,None,f,0.34523929999977554,2009.0867732000002,None,0.34523929999977554,,,132,001,2023_Sep_28_1136,ProdSingRedoBetween,2021.2.3,59.934790947463895,
,,,,118,0,118,0,,,,,,,,,,,,,,,,,,,,,,2013.5998043999998,None,,,,,,,,,,,,,,,,,cover,179,119,aloud,new,null,2009.9652062999999,None,2009.9652062999999,None,3,1.9148041999997076,2009.9652062999999,None,1.9148041999997076,2011.8988758,None,2012.4043667,None,2012.4043667,None,f,1.171578099999806,2012.4043667,None,1.171578099999806,,,132,001,2023_Sep_28_1136,ProdSingRedoBetween,2021.2.3,59.934790947463895,
,,,,119,0,119,0,,,,,,,,,,,,,,,,,,,,,,2017.9742489999999,None,,,,,,,,,,,,,,,,,harmony,142,120,aloud,new,null,2014.1167547,None,2014.1167547,None,1,2.86735120000003,2014.1167547,None,2.86735120000003,2017.0142150000001,None,2017.5256212,None,2017.5256212,None,n,0.4184594000003017,2017.5256212,None,0.4184594000003017,,,132,001,2023_Sep_28_1136,ProdSingRedoBetween,2021.2.3,59.934790947463895,
,,,,120,0,120,0,,,,,,,,,,,,,,,,,,,,,,2026.5293497000002,None,,,,,,,,,,,,,,,,,bitter,171,121,aloud,new,null,2018.508804,None,2018.508804,None,4,7.235307699999794,2018.508804,None,7.235307699999794,2025.7689083,None,2026.2792573000002,None,2026.2792573000002,None,f,0.23263500000030035,2026.2792573000002,None,0.23263500000030035,,,132,001,2023_Sep_28_1136,ProdSingRedoBetween,2021.2.3,59.934790947463895,
,,,,121,0,121,0,,,,,,,,,,,,,,,,,,,,,,2029.5657065999999,None,,,,,,,,,,,,,,,,,election,87,122,aloud,old,red,2027.0397494,None,2027.0397494,None,6,1.4483213999997133,2027.0397494,None,1.4483213999997133,2028.5241304,None,2029.0317405,None,2029.0317405,None,r,0.5121558999999252,2029.0317405,None,0.5121558999999252,,,132,001,2023_Sep_28_1136,ProdSingRedoBetween,2021.2.3,59.934790947463895,
,,,,122,0,122,0,,,,,,,,,,,,,,,,,,,,,,2032.5521278,None,,,,,,,,,,,,,,,,,management,126,123,aloud,new,null,2030.0738603999998,None,2030.0738603999998,None,6,1.5342225999997936,2030.0738603999998,None,1.5342225999997936,2031.6436705,None,2032.1524911000001,None,2032.1524911000001,None,r,0.37574599999970815,2032.1524911000001,None,0.37574599999970815,,,132,001,2023_Sep_28_1136,ProdSingRedoBetween,2021.2.3,59.934790947463895,
,,,,123,0,123,0,,,,,,,,,,,,,,,,,,,,,,2035.7564852,None,,,,,,,,,,,,,,,,,short,54,124,aloud,old,blue,2033.0585975,None,2033.0585975,None,6,1.701300899999751,2033.0585975,None,1.701300899999751,2034.7904757000001,None,2035.3049265999998,None,2035.3049265999998,None,r,0.43101320000005217,2035.3049265999998,None,0.43101320000005217,,,132,001,2023_Sep_28_1136,ProdSingRedoBetween,2021.2.3,59.934790947463895,
,,,,124,0,124,0,,,,,,,,,,,,,,,,,,,,,,2038.7249283,None,,,,,,,,,,,,,,,,,leader,133,125,aloud,new,null,2036.2618991,None,2036.2618991,None,2,1.4021834999998646,2036.2618991,None,1.4021834999998646,2037.6998440000002,None,2038.2078372,None,2038.2078372,None,n,0.4882210999999188,2038.2078372,None,0.4882210999999188,,,132,001,2023_Sep_28_1136,ProdSingRedoBetween,2021.2.3,59.934790947463895,
,,,,125,0,125,0,,,,,,,,,,,,,,,,,,,,,,2046.7661748,None,,,,,,,,,,,,,,,,,place,66,126,aloud,old,red,2039.2380192,None,2039.2380192,None,4,6.689861199999996,2039.2380192,None,6.689861199999996,2045.9496603000002,None,2046.4567490999998,None,2046.4567490999998,None,f,0.28729299999986324,2046.4567490999998,None,0.28729299999986324,,,132,001,2023_Sep_28_1136,ProdSingRedoBetween,2021.2.3,59.934790947463895,
,,,,126,0,126,0,,,,,,,,,,,,,,,,,,,,,,2049.3855142,None,,,,,,,,,,,,,,,,,power,123,127,aloud,new,null,2047.2734965,None,2047.2734965,None,1,1.1664537999999993,2047.2734965,None,1.1664537999999993,2048.4701288,None,2048.9885173000002,None,2048.9885173000002,None,n,0.37935860000015964,2048.9885173000002,None,0.37935860000015964,,,132,001,2023_Sep_28_1136,ProdSingRedoBetween,2021.2.3,59.934790947463895,
,,,,127,0,127,0,,,,,,,,,,,,,,,,,,,,,,2052.8888368,None,,,,,,,,,,,,,,,,,series,8,128,aloud,old,yellow,2049.8891319,None,2049.8891319,None,3,2.2067713999999796,2049.8891319,None,2.2067713999999796,2052.1218478,None,2052.627121,None,2052.627121,None,f,0.2368373999997857,2052.627121,None,0.2368373999997857,,,132,001,2023_Sep_28_1136,ProdSingRedoBetween,2021.2.3,59.934790947463895,
,,,,128,0,128,0,,,,,,,,,,,,,,,,,,,,,,2057.0096485,None,,,,,,,,,,,,,,,,,career,60,129,aloud,old,red,2053.3917482,None,2053.3917482,None,6,2.7761515000001964,2053.3917482,None,2.7761515000001964,2056.1934757,None,2056.6981218,None,2056.6981218,None,f,0.28581709999980376,2056.6981218,None,0.28581709999980376,,,132,001,2023_Sep_28_1136,ProdSingRedoBetween,2021.2.3,59.934790947463895,
,,,,129,0,129,0,,,,,,,,,,,,,,,,,,,,,,2061.297431,None,,,,,,,,,,,,,,,,,store,42,130,aloud,old,blue,2057.5257034,None,2057.5257034,None,6,2.922266699999909,2057.5257034,None,2.922266699999909,2060.469988,None,2060.9831905,None,2060.9831905,None,r,0.29670579999992697,2060.9831905,None,0.29670579999992697,,,132,001,2023_Sep_28_1136,ProdSingRedoBetween,2021.2.3,59.934790947463895,
,,,,130,0,130,0,,,,,,,,,,,,,,,,,,,,,,2064.271152,None,,,,,,,,,,,,,,,,,agreement,144,131,aloud,new,null,2061.8067131,None,2061.8067131,None,4,1.7294216000000233,2061.8067131,None,1.7294216000000233,2063.5789025,None,2064.0994239,None,2064.0994239,None,f,0.1483711000000767,2064.0994239,None,0.1483711000000767,,,132,001,2023_Sep_28_1136,ProdSingRedoBetween,2021.2.3,59.934790947463895,
,,,,131,0,131,0,,,,,,,,,,,,,,,,,,,,,,2067.0532322,None,,,,,,,,,,,,,,,,,cousin,115,132,aloud,new,null,2064.7951815,None,2064.7951815,None,1,1.4926702000002479,2064.7951815,None,1.4926702000002479,2066.3218238,None,2066.8389624,None,2066.8389624,None,n,0.19298509999998714,2066.8389624,None,0.19298509999998714,,,132,001,2023_Sep_28_1136,ProdSingRedoBetween,2021.2.3,59.934790947463895,
,,,,132,0,132,0,,,,,,,,,,,,,,,,,,,,,,2070.6233246,None,,,,,,,,,,,,,,,,,oxygen,23,133,aloud,old,yellow,2067.5635116,None,2067.5635116,None,6,2.2763285999999425,2067.5635116,None,2.2763285999999425,2069.8635239,None,2070.379297,None,2070.379297,None,r,0.2286128999999164,2070.379297,None,0.2286128999999164,,,132,001,2023_Sep_28_1136,ProdSingRedoBetween,2021.2.3,59.934790947463895,
,,,,133,0,133,0,,,,,,,,,,,,,,,,,,,,,,2073.6931521,None,,,,,,,,,,,,,,,,,brilliant,72,134,aloud,old,red,2071.1379058,None,2071.1379058,None,6,1.734003699999903,2071.1379058,None,1.734003699999903,2072.8941206,None,2073.3984228,None,2073.3984228,None,r,0.27344840000023396,2073.3984228,None,0.27344840000023396,,,132,001,2023_Sep_28_1136,ProdSingRedoBetween,2021.2.3,59.934790947463895,
,,,,134,0,134,0,,,,,,,,,,,,,,,,,,,,,,2076.4292142,None,,,,,,,,,,,,,,,,,worker,71,135,aloud,old,red,2074.2054095,None,2074.2054095,None,5,1.4824680000001536,2074.2054095,None,1.4824680000001536,2075.7139314,None,2076.2291819,None,2076.2291819,None,f,0.1707621000000472,2076.2291819,None,0.1707621000000472,,,132,001,2023_Sep_28_1136,ProdSingRedoBetween,2021.2.3,59.934790947463895,
,,,,135,0,135,0,,,,,,,,,,,,,,,,,,,,,,2082.5687445,None,,,,,,,,,,,,,,,,,break,86,136,aloud,old,red,2076.9307718,None,2076.9307718,None,3,4.821072700000059,2076.9307718,None,4.821072700000059,2081.769202,None,2082.2692377,None,2082.2692377,None,f,0.28258040000037,2082.2692377,None,0.28258040000037,,,132,001,2023_Sep_28_1136,ProdSingRedoBetween,2021.2.3,59.934790947463895,
,,,,136,0,136,0,,,,,,,,,,,,,,,,,,,,,,2085.7050539,None,,,,,,,,,,,,,,,,,bucket,55,137,aloud,old,blue,2083.0759914,None,2083.0759914,None,5,1.8838662000002842,2083.0759914,None,1.8838662000002842,2084.9890457,None,2085.4939845,None,2085.4939845,None,f,0.1859158999995998,2085.4939845,None,0.1859158999995998,,,132,001,2023_Sep_28_1136,ProdSingRedoBetween,2021.2.3,59.934790947463895,
,,,,137,0,137,0,,,,,,,,,,,,,,,,,,,,,,2088.5078989,None,,,,,,,,,,,,,,,,,substance,9,138,aloud,old,yellow,2086.2089905,None,2086.2089905,None,6,1.4870903000000908,2086.2089905,None,1.4870903000000908,2087.737203,None,2088.2473842,None,2088.2473842,None,r,0.23250559999996767,2088.2473842,None,0.23250559999996767,,,132,001,2023_Sep_28_1136,ProdSingRedoBetween,2021.2.3,59.934790947463895,
,,,,138,0,138,0,,,,,,,,,,,,,,,,,,,,,,2090.9937396,None,,,,,,,,,,,,,,,,,engineer,85,139,aloud,old,red,2089.0173009,None,2089.0173009,None,6,1.1824793000000682,2089.0173009,None,1.1824793000000682,2090.2261914,None,2090.7314105,None,2090.7314105,None,r,0.24439329999995607,2090.7314105,None,0.24439329999995607,,,132,001,2023_Sep_28_1136,ProdSingRedoBetween,2021.2.3,59.934790947463895,
,,,,139,0,139,0,,,,,,,,,,,,,,,,,,,,,,2094.5166781,None,,,,,,,,,,,,,,,,,angle,31,140,aloud,old,blue,2091.4989235,None,2091.4989235,None,6,2.1009556999997585,2091.4989235,None,2.1009556999997585,2093.6325207,None,2094.1561185,None,2094.1561185,None,r,0.3396373999999014,2094.1561185,None,0.3396373999999014,,,132,001,2023_Sep_28_1136,ProdSingRedoBetween,2021.2.3,59.934790947463895,
,,,,140,0,140,0,,,,,,,,,,,,,,,,,,,,,,2097.366767,None,,,,,,,,,,,,,,,,,count,1,141,aloud,old,yellow,2095.0371615,None,2095.0371615,None,6,1.5466966999997567,2095.0371615,None,1.5466966999997567,2096.5990673,None,2097.1003342,None,2097.1003342,None,f,0.2436124999999265,2097.1003342,None,0.2436124999999265,,,132,001,2023_Sep_28_1136,ProdSingRedoBetween,2021.2.3,59.934790947463895,
,,,,141,0,141,0,,,,,,,,,,,,,,,,,,,,,,2101.9562904,None,,,,,,,,,,,,,,,,,working,177,142,aloud,new,null,2097.8862416,None,2097.8862416,None,1,3.3455998999997973,2097.8862416,None,3.3455998999997973,2101.2572663,None,2101.7822639,None,2101.7822639,None,n,0.1536654000001363,2101.7822639,None,0.1536654000001363,,,132,001,2023_Sep_28_1136,ProdSingRedoBetween,2021.2.3,59.934790947463895,
,,,,142,0,142,0,,,,,,,,,,,,,,,,,,,,,,2106.1609378,None,,,,,,,,,,,,,,,,,passage,175,143,aloud,new,null,2102.4628333,None,2102.4628333,None,2,2.6090070000000196,2102.4628333,None,2.6090070000000196,2105.0925088,None,2105.5975147,None,2105.5975147,None,n,0.5383901000000151,2105.5975147,None,0.5383901000000151,,,132,001,2023_Sep_28_1136,ProdSingRedoBetween,2021.2.3,59.934790947463895,
,,,,143,0,143,0,,,,,,,,,,,,,,,,,,,,,,2110.0460924,None,,,,,,,,,,,,,,,,,thick,50,144,aloud,old,blue,2106.6849845,None,2106.6849845,None,6,2.2589522999996916,2106.6849845,None,2.2589522999996916,2108.9658261,None,2109.4790333,None,2109.4790333,None,r,0.536804100000154,2109.4790333,None,0.536804100000154,,,132,001,2023_Sep_28_1136,ProdSingRedoBetween,2021.2.3,59.934790947463895,
,,,,144,0,144,0,,,,,,,,,,,,,,,,,,,,,,2115.134525,None,,,,,,,,,,,,,,,,,fellow,84,145,aloud,old,red,2110.5598116,None,2110.5598116,None,5,3.7682643000002827,2110.5598116,None,3.7682643000002827,2114.3586963,None,2114.867685,None,2114.867685,None,f,0.2441939000000275,2114.867685,None,0.2441939000000275,,,132,001,2023_Sep_28_1136,ProdSingRedoBetween,2021.2.3,59.934790947463895,
,,,,145,0,145,0,,,,,,,,,,,,,,,,,,,,,,2118.1875286,None,,,,,,,,,,,,,,,,,drove,24,146,aloud,old,yellow,2115.6482352,None,2115.6482352,None,2,1.639595499999814,2115.6482352,None,1.639595499999814,2117.3050784,None,2117.8243809,None,2117.8243809,None,n,0.34349939999992785,2117.8243809,None,0.34349939999992785,,,132,001,2023_Sep_28_1136,ProdSingRedoBetween,2021.2.3,59.934790947463895,
,,,,146,0,146,0,,,,,,,,,,,,,,,,,,,,,,2122.5085882,None,,,,,,,,,,,,,,,,,victory,80,147,aloud,old,red,2118.7071075,None,2118.7071075,None,6,3.100880999999845,2118.7071075,None,3.100880999999845,2121.8332215,None,2122.3449895,None,2122.3449895,None,f,0.14284189999989394,2122.3449895,None,0.14284189999989394,,,132,001,2023_Sep_28_1136,ProdSingRedoBetween,2021.2.3,59.934790947463895,
,,,,147,0,147,0,,,,,,,,,,,,,,,,,,,,,,2126.662596,None,,,,,,,,,,,,,,,,,suggestion,100,148,aloud,new,null,2123.0285427,None,2123.0285427,None,5,1.971325699999852,2123.0285427,None,1.971325699999852,2125.0278418,None,2125.5363852,None,2125.5363852,None,f,1.103428200000053,2125.5363852,None,1.103428200000053,,,132,001,2023_Sep_28_1136,ProdSingRedoBetween,2021.2.3,59.934790947463895,
,,,,148,0,148,0,,,,,,,,,,,,,,,,,,,,,,2131.2506609,None,,,,,,,,,,,,,,,,,surprise,10,149,aloud,old,yellow,2127.1740381,None,2127.1740381,None,6,3.153784000000087,2127.1740381,None,3.153784000000087,2130.3516403,None,2130.8735167,None,2130.8735167,None,r,0.35833009999987553,2130.8735167,None,0.35833009999987553,,,132,001,2023_Sep_28_1136,ProdSingRedoBetween,2021.2.3,59.934790947463895,
,,,,149,0,149,0,,,,,,,,,,,,,,,,,,,,,,2134.1368079,None,,,,,,,,,,,,,,,,,commercial,16,150,aloud,old,yellow,2131.7647551,None,2131.7647551,None,6,1.4510372999998253,2131.7647551,None,1.4510372999998253,2133.2377233,None,2133.7595185,None,2133.7595185,None,r,0.36031880000018646,2133.7595185,None,0.36031880000018646,,,132,001,2023_Sep_28_1136,ProdSingRedoBetween,2021.2.3,59.934790947463895,
,,,,150,0,150,0,,,,,,,,,,,,,,,,,,,,,,2137.1228836,None,,,,,,,,,,,,,,,,,quantity,151,151,aloud,new,null,2134.6494713,None,2134.6494713,None,2,1.5903783000003386,2134.6494713,None,1.5903783000003386,2136.2633373,None,2136.7801066,None,2136.7801066,None,n,0.32377180000003136,2136.7801066,None,0.32377180000003136,,,132,001,2023_Sep_28_1136,ProdSingRedoBetween,2021.2.3,59.934790947463895,
,,,,151,0,151,0,,,,,,,,,,,,,,,,,,,,,,2140.2475956,None,,,,,,,,,,,,,,,,,burden,149,152,aloud,new,null,2137.6321588,None,2137.6321588,None,1,1.767658300000221,2137.6321588,None,1.767658300000221,2139.4254025,None,2139.931999,None,2139.931999,None,n,0.2840132999999696,2139.931999,None,0.2840132999999696,,,132,001,2023_Sep_28_1136,ProdSingRedoBetween,2021.2.3,59.934790947463895,
,,,,152,0,152,0,,,,,,,,,,,,,,,,,,,,,,2143.4127032,None,,,,,,,,,,,,,,,,,citizen,94,153,aloud,new,null,2140.7731251,None,2140.7731251,None,6,1.7628944999996747,2140.7731251,None,1.7628944999996747,2142.5674811,None,2143.0946351000002,None,2143.0946351000002,None,r,0.2971625000000131,2143.0946351000002,None,0.2971625000000131,,,132,001,2023_Sep_28_1136,ProdSingRedoBetween,2021.2.3,59.934790947463895,
,,,,153,0,153,0,,,,,,,,,,,,,,,,,,,,,,2146.3322888,None,,,,,,,,,,,,,,,,,hearing,106,154,aloud,new,null,2143.9197711,None,2143.9197711,None,2,1.5520228000000316,2143.9197711,None,1.5520228000000316,2145.4978811,None,2146.0018774,None,2146.0018774,None,n,0.30990250000013475,2146.0018774,None,0.30990250000013475,,,132,001,2023_Sep_28_1136,ProdSingRedoBetween,2021.2.3,59.934790947463895,
,,,,154,0,154,0,,,,,,,,,,,,,,,,,,,,,,2149.1714371,None,,,,,,,,,,,,,,,,,captain,39,155,aloud,old,blue,2146.8456513,None,2146.8456513,None,6,1.3301849999998012,2146.8456513,None,1.3301849999998012,2148.2021464,None,2148.7074983,None,2148.7074983,None,r,0.43632949999982884,2148.7074983,None,0.43632949999982884,,,132,001,2023_Sep_28_1136,ProdSingRedoBetween,2021.2.3,59.934790947463895,
,,,,155,0,155,0,,,,,,,,,,,,,,,,,,,,,,2152.6719703,None,,,,,,,,,,,,,,,,,drama,69,156,aloud,old,red,2149.6985384,None,2149.6985384,None,6,1.9652702999997018,2149.6985384,None,1.9652702999997018,2151.6895499,None,2152.2090009,None,2152.2090009,None,r,0.4387864999998783,2152.2090009,None,0.4387864999998783,,,132,001,2023_Sep_28_1136,ProdSingRedoBetween,2021.2.3,59.934790947463895,
,,,,156,0,156,0,,,,,,,,,,,,,,,,,,,,,,2159.8290764,None,,,,,,,,,,,,,,,,,straight,19,157,aloud,old,yellow,2153.1848076,None,2153.1848076,None,6,5.7109959999997955,2153.1848076,None,5.7109959999997955,2158.9128368,None,2159.4146402,None,2159.4146402,None,r,0.39312020000033954,2159.4146402,None,0.39312020000033954,,,132,001,2023_Sep_28_1136,ProdSingRedoBetween,2021.2.3,59.934790947463895,
,,,,157,0,157,0,,,,,,,,,,,,,,,,,,,,,,2162.8988541,None,,,,,,,,,,,,,,,,,dispute,110,158,aloud,new,null,2160.3439395,None,2160.3439395,None,2,1.6239482999999382,2160.3439395,None,1.6239482999999382,2161.999918,None,2162.5152395,None,2162.5152395,None,n,0.36469850000003134,2162.5152395,None,0.36469850000003134,,,132,001,2023_Sep_28_1136,ProdSingRedoBetween,2021.2.3,59.934790947463895,
,,,,158,0,158,0,,,,,,,,,,,,,,,,,,,,,,2166.9860074,None,,,,,,,,,,,,,,,,,generation,101,159,aloud,new,null,2163.4091778,None,2163.4091778,None,4,2.766536300000098,2163.4091778,None,2.766536300000098,2166.2019643,None,2166.7066769,None,2166.7066769,None,f,0.26106120000031297,2166.7066769,None,0.26106120000031297,,,132,001,2023_Sep_28_1136,ProdSingRedoBetween,2021.2.3,59.934790947463895,
,,,,159,0,159,0,,,,,,,,,,,,,,,,,,,,,,2170.608634,None,,,,,,,,,,,,,,,,,welcome,81,160,aloud,old,red,2167.502144,None,2167.502144,None,6,2.233624399999826,2167.502144,None,2.233624399999826,2169.7569244,None,2170.2606725,None,2170.2606725,None,r,0.3153585000000021,2170.2606725,None,0.3153585000000021,,,132,001,2023_Sep_28_1136,ProdSingRedoBetween,2021.2.3,59.934790947463895,
,,,,160,0,160,0,,,,,,,,,,,,,,,,,,,,,,2179.5821648,None,,,,,,,,,,,,,,,,,comfort,67,161,aloud,old,red,2171.1253658,None,2171.1253658,None,3,7.698496400000295,2171.1253658,None,7.698496400000295,2178.8547249,None,2179.3734825,None,2179.3734825,None,f,0.1782650999998623,2179.3734825,None,0.1782650999998623,,,132,001,2023_Sep_28_1136,ProdSingRedoBetween,2021.2.3,59.934790947463895,
,,,,161,0,161,0,,,,,,,,,,,,,,,,,,,,,,2183.2191494,None,,,,,,,,,,,,,,,,,surface,38,162,aloud,old,blue,2180.1014436,None,2180.1014436,None,2,2.042496999999912,2180.1014436,None,2.042496999999912,2182.1716183,None,2182.6887869,None,2182.6887869,None,n,0.5111351999998988,2182.6887869,None,0.5111351999998988,,,132,001,2023_Sep_28_1136,ProdSingRedoBetween,2021.2.3,59.934790947463895,
,,,,162,0,162,0,,,,,,,,,,,,,,,,,,,,,,2191.2295629,None,,,,,,,,,,,,,,,,,build,90,163,aloud,new,null,2183.7287163,None,2183.7287163,None,2,5.951115200000004,2183.7287163,None,5.951115200000004,2189.712824,None,2190.2260185,None,2190.2260185,None,f,0.9738704999999754,2190.2260185,None,0.9738704999999754,,,132,001,2023_Sep_28_1136,ProdSingRedoBetween,2021.2.3,59.934790947463895,
,,,,163,0,163,0,,,,,,,,,,,,,,,,,,,,,,2194.5971934,None,,,,,,,,,,,,,,,,,brief,155,164,aloud,new,null,2191.7493589,None,2191.7493589,None,5,2.050363500000003,2191.7493589,None,2.050363500000003,2193.8311679,None,2194.3364054,None,2194.3364054,None,f,0.23933369999986098,2194.3364054,None,0.23933369999986098,,,132,001,2023_Sep_28_1136,ProdSingRedoBetween,2021.2.3,59.934790947463895,
,,,,164,0,164,0,,,,,,,,,,,,,,,,,,,,,,2197.5167331000002,None,,,,,,,,,,,,,,,,,childhood,141,165,aloud,new,null,2195.109833,None,2195.109833,None,1,1.5780087999996795,2195.109833,None,1.5780087999996795,2196.7202391,None,2197.237295,None,2197.237295,None,n,0.2584842999999637,2197.237295,None,0.2584842999999637,,,132,001,2023_Sep_28_1136,ProdSingRedoBetween,2021.2.3,59.934790947463895,
,,,,165,0,165,0,,,,,,,,,,,,,,,,,,,,,,2200.6364873,None,,,,,,,,,,,,,,,,,entrance,76,166,aloud,old,red,2198.0269689,None,2198.0269689,None,5,1.9407512000002498,2198.0269689,None,1.9407512000002498,2199.9869218,None,2200.4928313,None,2200.4928313,None,f,0.11493190000010145,2200.4928313,None,0.11493190000010145,,,132,001,2023_Sep_28_1136,ProdSingRedoBetween,2021.2.3,59.934790947463895,
,,,,166,0,166,0,,,,,,,,,,,,,,,,,,,,,,2203.6562092,None,,,,,,,,,,,,,,,,,medicine,148,167,aloud,new,null,2201.1459246,None,2201.1459246,None,5,1.7178756000002977,2201.1459246,None,1.7178756000002977,2202.8954482,None,2203.4060499,None,2203.4060499,None,f,0.22575619999997798,2203.4060499,None,0.22575619999997798,,,132,001,2023_Sep_28_1136,ProdSingRedoBetween,2021.2.3,59.934790947463895,
,,,,167,0,167,0,,,,,,,,,,,,,,,,,,,,,,2208.7112133,None,,,,,,,,,,,,,,,,,raise,103,168,aloud,new,null,2204.1605657,None,2204.1605657,None,4,3.8472603999998682,2204.1605657,None,3.8472603999998682,2208.0326462,None,2208.5495398,None,2208.5495398,None,f,0.13819809999995414,2208.5495398,None,0.13819809999995414,,,132,001,2023_Sep_28_1136,ProdSingRedoBetween,2021.2.3,59.934790947463895,
,,,,168,0,168,0,,,,,,,,,,,,,,,,,,,,,,2211.2637557,None,,,,,,,,,,,,,,,,,style,52,169,aloud,old,blue,2209.2187644,None,2209.2187644,None,6,1.1650487000001704,2209.2187644,None,1.1650487000001704,2210.4130571,None,2210.9202245,None,2210.9202245,None,r,0.3195405000001301,2210.9202245,None,0.3195405000001301,,,132,001,2023_Sep_28_1136,ProdSingRedoBetween,2021.2.3,59.934790947463895,
,,,,169,0,169,0,,,,,,,,,,,,,,,,,,,,,,2214.2667949,None,,,,,,,,,,,,,,,,,figure,173,170,aloud,new,null,2211.7734059,None,2211.7734059,None,3,1.7547952999998415,2211.7734059,None,1.7547952999998415,2213.5609836,None,2214.0664904,None,2214.0664904,None,n,0.18124070000021675,2214.0664904,None,0.18124070000021675,,,132,001,2023_Sep_28_1136,ProdSingRedoBetween,2021.2.3,59.934790947463895,
,,,,170,0,170,0,,,,,,,,,,,,,,,,,,,,,,2218.9879379,None,,,,,,,,,,,,,,,,,youth,99,171,aloud,new,null,2214.7761593,None,2214.7761593,None,1,3.5276324000001296,2214.7761593,None,3.5276324000001296,2218.3281265,None,2218.8381207,None,2218.8381207,None,n,0.12961040000027424,2218.8381207,None,0.12961040000027424,,,132,001,2023_Sep_28_1136,ProdSingRedoBetween,2021.2.3,59.934790947463895,
,,,,171,0,171,0,,,,,,,,,,,,,,,,,,,,,,2222.2413471,None,,,,,,,,,,,,,,,,,sweet,44,172,aloud,old,blue,2219.501418,None,2219.501418,None,2,1.9704489999999169,2219.501418,None,1.9704489999999169,2221.4985407,None,2222.0094646000002,None,2222.0094646000002,None,n,0.2063847999997961,2222.0094646000002,None,0.2063847999997961,,,132,001,2023_Sep_28_1136,ProdSingRedoBetween,2021.2.3,59.934790947463895,
,,,,172,0,172,0,,,,,,,,,,,,,,,,,,,,,,2226.0156359000002,None,,,,,,,,,,,,,,,,,population,74,173,aloud,old,red,2222.7452727,None,2222.7452727,None,5,1.9505462000001899,2222.7452727,None,1.9505462000001899,2224.7177732,None,2225.2364923,None,2225.2364923,None,f,0.7473227000000406,2225.2364923,None,0.7473227000000406,,,132,001,2023_Sep_28_1136,ProdSingRedoBetween,2021.2.3,59.934790947463895,
,,,,173,0,173,0,,,,,,,,,,,,,,,,,,,,,,2234.674884,None,,,,,,,,,,,,,,,,,debate,153,174,aloud,new,null,2226.5290368,None,2226.5290368,None,6,7.462778600000092,2226.5290368,None,7.462778600000092,2234.0241061,None,2234.538429,None,2234.538429,None,f,0.10155329999997775,2234.538429,None,0.10155329999997775,,,132,001,2023_Sep_28_1136,ProdSingRedoBetween,2021.2.3,59.934790947463895,
,,,,174,0,174,0,,,,,,,,,,,,,,,,,,,,,,2237.677511,None,,,,,,,,,,,,,,,,,corner,7,175,aloud,old,yellow,2235.1967803000002,None,2235.1967803000002,None,5,1.8429453000003377,2235.1967803000002,None,1.8429453000003377,2237.0559493,None,2237.5592227,None,2237.5592227,None,f,0.09671739999976126,2237.5592227,None,0.09671739999976126,,,132,001,2023_Sep_28_1136,ProdSingRedoBetween,2021.2.3,59.934790947463895,
,,,,175,0,175,0,,,,,,,,,,,,,,,,,,,,,,2241.7850009,None,,,,,,,,,,,,,,,,,express,127,176,aloud,new,null,2238.1978324,None,2238.1978324,None,4,2.9938300000003437,2238.1978324,None,2.9938300000003437,2241.2116282,None,2241.7154528,None,2241.7154528,None,f,0.04452880000008008,2241.7154528,None,0.04452880000008008,,,132,001,2023_Sep_28_1136,ProdSingRedoBetween,2021.2.3,59.934790947463895,
,,,,176,0,176,0,,,,,,,,,,,,,,,,,,,,,,2244.813956,None,,,,,,,,,,,,,,,,,article,112,177,aloud,new,null,2242.3012677,None,2242.3012677,None,3,1.8744235999997727,2242.3012677,None,1.8744235999997727,2244.1977327,None,2244.7014968,None,2244.7014968,None,f,0.08218740000029356,2244.7014968,None,0.08218740000029356,,,132,001,2023_Sep_28_1136,ProdSingRedoBetween,2021.2.3,59.934790947463895,
,,,,177,0,177,0,,,,,,,,,,,,,,,,,,,,,,2250.2745656,None,,,,,,,,,,,,,,,,,threat,59,178,aloud,old,yellow,2245.3437938,None,2245.3437938,None,5,3.9119809999997415,2245.3437938,None,3.9119809999997415,2249.2857112,None,2249.7910218,None,2249.7910218,None,f,0.4569466000002649,2249.7910218,None,0.4569466000002649,,,132,001,2023_Sep_28_1136,ProdSingRedoBetween,2021.2.3,59.934790947463895,
,,,,178,0,178,0,,,,,,,,,,,,,,,,,,,,,,2252.8719504,None,,,,,,,,,,,,,,,,,crowd,73,179,aloud,old,red,2250.7947514,None,2250.7947514,None,6,1.4292420000001584,2250.7947514,None,1.4292420000001584,2252.2659063,None,2252.7719673,None,2252.7719673,None,r,0.08369609999999739,2252.7719673,None,0.08369609999999739,,,132,001,2023_Sep_28_1136,ProdSingRedoBetween,2021.2.3,59.934790947463895,
,,,,179,0,179,0,,,,,,,,,,,,,,,,,,,,,,2259.144871,None,,,,,,,,,,,,,,,,,council,111,180,aloud,new,null,2253.3800376,None,2253.3800376,None,2,5.091841800000111,2253.3800376,None,5.091841800000111,2258.4990625,None,2259.0116271,None,2259.0116271,None,n,0.10808779999979379,2259.0116271,None,0.10808779999979379,,,132,001,2023_Sep_28_1136,ProdSingRedoBetween,2021.2.3,59.934790947463895,
,,,,,,,,,,,,,,,,,,,,,,,,,,,,,,,,,,,,,,,,,,,,,,,,,,,,,,,,,,,,,,,,,,,,,,,,,2259.6458371,None,,,,,,,
