StudyLoop.thisRepN,StudyLoop.thisTrialN,StudyLoop.thisN,StudyLoop.thisIndex,TestLoop.thisRepN,TestLoop.thisTrialN,TestLoop.thisN,TestLoop.thisIndex,textCondition.started,textCondition.stopped,keyCondition.keys,keyCondition.rt,keyCondition.started,keyCondition.stopped,Condition,textWelcome.started,textWelcome.stopped,keyWelcome.keys,keyWelcome.rt,keyWelcome.started,keyWelcome.stopped,textAloud.started,textAloud.stopped,textSilent.started,textSilent.stopped,textSing.started,textSing.stopped,conditional_text.started,conditional_text.stopped,textBlank500.started,textBlank500.stopped,study_word,study_num,study_order,study_type,word_color,textStudy.started,textStudy.stopped,keyStudy.keys,keyStudy.started,keyStudy.stopped,textTestInstructions.started,textTestInstructions.stopped,key_resp_3.keys,key_resp_3.rt,key_resp_3.started,key_resp_3.stopped,test_word,test_num,test_order,test_condition,old_new_test,test_word_original_color,textConf.started,textConf.stopped,textConfScale.started,textConfScale.stopped,keyConf.keys,keyConf.rt,keyConf.started,keyConf.stopped,confidence response time,textTestBlank.started,textTestBlank.stopped,textRKN.started,textRKN.stopped,textRKNScale.started,textRKNScale.stopped,keyRKN.keys,keyRKN.rt,keyRKN.started,keyRKN.stopped,rkn response time,textEnd.started,textEnd.stopped,participant,session,date,expName,psychopyVersion,frameRate,
,,,,,,,,62.68027979999988,None,c,609.3748765,62.68027979999988,None,,,,,,,,,,,,,,,,,,,,,,,,,,,,,,,,,,,,,,,,,,,,,,,,,,,,,,,,,,,,,,133,001,2023_Sep_28_1313,ProdSingRedoBetween,2021.2.3,59.93263571743291,
,,,,,,,,,,,,,,SingTest,672.1084411000002,None,space,81.9867263999995,672.1084411000002,None,,,,,,,,,,,,,,,,,,,,,,,,,,,,,,,,,,,,,,,,,,,,,,,,,,,,,,,133,001,2023_Sep_28_1313,ProdSingRedoBetween,2021.2.3,59.93263571743291,
0,0,0,0,,,,,,,,,,,,,,,,,,672.1084411000002,None,672.1084411000002,None,672.1084411000002,None,672.1084411000002,None,756.6335127000002,None,brief,11,1,sing,yellow,754.6273332999999,None,None,754.6273332999999,None,,,,,,,,,,,,,,,,,,,,,,,,,,,,,,,,,,,133,001,2023_Sep_28_1313,ProdSingRedoBetween,2021.2.3,59.93263571743291,
1,0,1,0,,,,,,,,,,,,,,,,,,,,,,,,,,759.1524073999999,None,payment,14,2,sing,yellow,757.1418949999997,None,None,757.1418949999997,None,,,,,,,,,,,,,,,,,,,,,,,,,,,,,,,,,,,133,001,2023_Sep_28_1313,ProdSingRedoBetween,2021.2.3,59.93263571743291,
2,0,2,0,,,,,,,,,,,,,,,,,,,,,,,,,,761.6548616,None,poetry,17,3,sing,yellow,759.6557776,None,None,759.6557776,None,,,,,,,,,,,,,,,,,,,,,,,,,,,,,,,,,,,133,001,2023_Sep_28_1313,ProdSingRedoBetween,2021.2.3,59.93263571743291,
3,0,3,0,,,,,,,,,,,,,,,,,,,,,,,,,,764.1740474999997,None,quick,1,4,sing,yellow,762.1634849000002,None,None,762.1634849000002,None,,,,,,,,,,,,,,,,,,,,,,,,,,,,,,,,,,,133,001,2023_Sep_28_1313,ProdSingRedoBetween,2021.2.3,59.93263571743291,
4,0,4,0,,,,,,,,,,,,,,,,,,,,,,,,,,766.6763344999999,None,error,88,5,sing,red,764.6745204999997,None,None,764.6745204999997,None,,,,,,,,,,,,,,,,,,,,,,,,,,,,,,,,,,,133,001,2023_Sep_28_1313,ProdSingRedoBetween,2021.2.3,59.93263571743291,
5,0,5,0,,,,,,,,,,,,,,,,,,,,,,,,,,769.1957689000001,None,phrase,81,6,sing,red,767.1831258000002,None,None,767.1831258000002,None,,,,,,,,,,,,,,,,,,,,,,,,,,,,,,,,,,,133,001,2023_Sep_28_1313,ProdSingRedoBetween,2021.2.3,59.93263571743291,
6,0,6,0,,,,,,,,,,,,,,,,,,,,,,,,,,771.7148913999999,None,benefit,42,7,sing,blue,769.7005590999997,None,None,769.7005590999997,None,,,,,,,,,,,,,,,,,,,,,,,,,,,,,,,,,,,133,001,2023_Sep_28_1313,ProdSingRedoBetween,2021.2.3,59.93263571743291,
7,0,7,0,,,,,,,,,,,,,,,,,,,,,,,,,,774.2340874000001,None,instrument,16,8,sing,yellow,772.2267818999999,None,None,772.2267818999999,None,,,,,,,,,,,,,,,,,,,,,,,,,,,,,,,,,,,133,001,2023_Sep_28_1313,ProdSingRedoBetween,2021.2.3,59.93263571743291,
8,0,8,0,,,,,,,,,,,,,,,,,,,,,,,,,,776.7366723000005,None,carry,5,9,sing,yellow,774.7376981999996,None,None,774.7376981999996,None,,,,,,,,,,,,,,,,,,,,,,,,,,,,,,,,,,,133,001,2023_Sep_28_1313,ProdSingRedoBetween,2021.2.3,59.93263571743291,
9,0,9,0,,,,,,,,,,,,,,,,,,,,,,,,,,779.2391088000004,None,grade,8,10,sing,yellow,777.2389616,None,None,777.2389616,None,,,,,,,,,,,,,,,,,,,,,,,,,,,,,,,,,,,133,001,2023_Sep_28_1313,ProdSingRedoBetween,2021.2.3,59.93263571743291,
10,0,10,0,,,,,,,,,,,,,,,,,,,,,,,,,,781.7415161999998,None,silence,48,11,sing,blue,779.7404838000002,None,None,779.7404838000002,None,,,,,,,,,,,,,,,,,,,,,,,,,,,,,,,,,,,133,001,2023_Sep_28_1313,ProdSingRedoBetween,2021.2.3,59.93263571743291,
11,0,11,0,,,,,,,,,,,,,,,,,,,,,,,,,,784.2440186000003,None,beauty,36,12,sing,blue,782.2427467999996,None,None,782.2427467999996,None,,,,,,,,,,,,,,,,,,,,,,,,,,,,,,,,,,,133,001,2023_Sep_28_1313,ProdSingRedoBetween,2021.2.3,59.93263571743291,
12,0,12,0,,,,,,,,,,,,,,,,,,,,,,,,,,786.7632057000001,None,story,80,13,sing,red,784.7480384999999,None,None,784.7480384999999,None,,,,,,,,,,,,,,,,,,,,,,,,,,,,,,,,,,,133,001,2023_Sep_28_1313,ProdSingRedoBetween,2021.2.3,59.93263571743291,
13,0,13,0,,,,,,,,,,,,,,,,,,,,,,,,,,789.2657372000003,None,foundation,34,14,sing,blue,787.2637175,None,None,787.2637175,None,,,,,,,,,,,,,,,,,,,,,,,,,,,,,,,,,,,133,001,2023_Sep_28_1313,ProdSingRedoBetween,2021.2.3,59.93263571743291,
14,0,14,0,,,,,,,,,,,,,,,,,,,,,,,,,,791.7849261000001,None,passage,9,15,sing,yellow,789.7697951,None,None,789.7697951,None,,,,,,,,,,,,,,,,,,,,,,,,,,,,,,,,,,,133,001,2023_Sep_28_1313,ProdSingRedoBetween,2021.2.3,59.93263571743291,
15,0,15,0,,,,,,,,,,,,,,,,,,,,,,,,,,794.2873841999999,None,bureau,31,16,sing,blue,792.2881975,None,None,792.2881975,None,,,,,,,,,,,,,,,,,,,,,,,,,,,,,,,,,,,133,001,2023_Sep_28_1313,ProdSingRedoBetween,2021.2.3,59.93263571743291,
16,0,16,0,,,,,,,,,,,,,,,,,,,,,,,,,,796.8062188000004,None,message,26,17,sing,yellow,794.7911223000001,None,None,794.7911223000001,None,,,,,,,,,,,,,,,,,,,,,,,,,,,,,,,,,,,133,001,2023_Sep_28_1313,ProdSingRedoBetween,2021.2.3,59.93263571743291,
17,0,17,0,,,,,,,,,,,,,,,,,,,,,,,,,,799.3091510000004,None,captain,40,18,sing,blue,797.3070717999999,None,None,797.3070717999999,None,,,,,,,,,,,,,,,,,,,,,,,,,,,,,,,,,,,133,001,2023_Sep_28_1313,ProdSingRedoBetween,2021.2.3,59.93263571743291,
18,0,18,0,,,,,,,,,,,,,,,,,,,,,,,,,,801.8116922999998,None,committee,60,19,sing,red,799.812613,None,None,799.812613,None,,,,,,,,,,,,,,,,,,,,,,,,,,,,,,,,,,,133,001,2023_Sep_28_1313,ProdSingRedoBetween,2021.2.3,59.93263571743291,
19,0,19,0,,,,,,,,,,,,,,,,,,,,,,,,,,804.3307528000005,None,beginning,75,20,sing,red,802.3163051000001,None,None,802.3163051000001,None,,,,,,,,,,,,,,,,,,,,,,,,,,,,,,,,,,,133,001,2023_Sep_28_1313,ProdSingRedoBetween,2021.2.3,59.93263571743291,
20,0,20,0,,,,,,,,,,,,,,,,,,,,,,,,,,806.8499628,None,match,83,21,sing,red,804.8366342999998,None,None,804.8366342999998,None,,,,,,,,,,,,,,,,,,,,,,,,,,,,,,,,,,,133,001,2023_Sep_28_1313,ProdSingRedoBetween,2021.2.3,59.93263571743291,
21,0,21,0,,,,,,,,,,,,,,,,,,,,,,,,,,809.3523205000001,None,discussion,71,22,sing,red,807.3524917000004,None,None,807.3524917000004,None,,,,,,,,,,,,,,,,,,,,,,,,,,,,,,,,,,,133,001,2023_Sep_28_1313,ProdSingRedoBetween,2021.2.3,59.93263571743291,
22,0,22,0,,,,,,,,,,,,,,,,,,,,,,,,,,811.8717014000003,None,personnel,45,23,sing,blue,809.8564330999998,None,None,809.8564330999998,None,,,,,,,,,,,,,,,,,,,,,,,,,,,,,,,,,,,133,001,2023_Sep_28_1313,ProdSingRedoBetween,2021.2.3,59.93263571743291,
23,0,23,0,,,,,,,,,,,,,,,,,,,,,,,,,,814.3908586999996,None,atmosphere,25,24,sing,yellow,812.3813513000005,None,None,812.3813513000005,None,,,,,,,,,,,,,,,,,,,,,,,,,,,,,,,,,,,133,001,2023_Sep_28_1313,ProdSingRedoBetween,2021.2.3,59.93263571743291,
24,0,24,0,,,,,,,,,,,,,,,,,,,,,,,,,,816.9099686999998,None,count,38,25,sing,blue,814.8996843000004,None,None,814.8996843000004,None,,,,,,,,,,,,,,,,,,,,,,,,,,,,,,,,,,,133,001,2023_Sep_28_1313,ProdSingRedoBetween,2021.2.3,59.93263571743291,
25,0,25,0,,,,,,,,,,,,,,,,,,,,,,,,,,819.4125057000001,None,council,76,26,sing,red,817.4104758000003,None,None,817.4104758000003,None,,,,,,,,,,,,,,,,,,,,,,,,,,,,,,,,,,,133,001,2023_Sep_28_1313,ProdSingRedoBetween,2021.2.3,59.93263571743291,
26,0,26,0,,,,,,,,,,,,,,,,,,,,,,,,,,821.9316927,None,course,55,27,sing,blue,819.9165669000004,None,None,819.9165669000004,None,,,,,,,,,,,,,,,,,,,,,,,,,,,,,,,,,,,133,001,2023_Sep_28_1313,ProdSingRedoBetween,2021.2.3,59.93263571743291,
27,0,27,0,,,,,,,,,,,,,,,,,,,,,,,,,,824.4341876999997,None,background,18,28,sing,yellow,822.4350185000003,None,None,822.4350185000003,None,,,,,,,,,,,,,,,,,,,,,,,,,,,,,,,,,,,133,001,2023_Sep_28_1313,ProdSingRedoBetween,2021.2.3,59.93263571743291,
28,0,28,0,,,,,,,,,,,,,,,,,,,,,,,,,,826.9530353999999,None,danger,6,29,sing,yellow,824.9384405000001,None,None,824.9384405000001,None,,,,,,,,,,,,,,,,,,,,,,,,,,,,,,,,,,,133,001,2023_Sep_28_1313,ProdSingRedoBetween,2021.2.3,59.93263571743291,
29,0,29,0,,,,,,,,,,,,,,,,,,,,,,,,,,829.4725752000004,None,subject,33,30,sing,blue,827.4632288000003,None,None,827.4632288000003,None,,,,,,,,,,,,,,,,,,,,,,,,,,,,,,,,,,,133,001,2023_Sep_28_1313,ProdSingRedoBetween,2021.2.3,59.93263571743291,
30,0,30,0,,,,,,,,,,,,,,,,,,,,,,,,,,831.9917322000001,None,session,10,31,sing,yellow,829.9776142000001,None,None,829.9776142000001,None,,,,,,,,,,,,,,,,,,,,,,,,,,,,,,,,,,,133,001,2023_Sep_28_1313,ProdSingRedoBetween,2021.2.3,59.93263571743291,
31,0,31,0,,,,,,,,,,,,,,,,,,,,,,,,,,834.4942319000002,None,opening,22,32,sing,yellow,832.4951824,None,None,832.4951824,None,,,,,,,,,,,,,,,,,,,,,,,,,,,,,,,,,,,133,001,2023_Sep_28_1313,ProdSingRedoBetween,2021.2.3,59.93263571743291,
32,0,32,0,,,,,,,,,,,,,,,,,,,,,,,,,,836.9967652000005,None,style,70,33,sing,red,834.9965658000001,None,None,834.9965658000001,None,,,,,,,,,,,,,,,,,,,,,,,,,,,,,,,,,,,133,001,2023_Sep_28_1313,ProdSingRedoBetween,2021.2.3,59.93263571743291,
33,0,33,0,,,,,,,,,,,,,,,,,,,,,,,,,,839.5158546000002,None,mankind,59,34,sing,yellow,837.5009498999998,None,None,837.5009498999998,None,,,,,,,,,,,,,,,,,,,,,,,,,,,,,,,,,,,133,001,2023_Sep_28_1313,ProdSingRedoBetween,2021.2.3,59.93263571743291,
34,0,34,0,,,,,,,,,,,,,,,,,,,,,,,,,,842.0184553999998,None,present,32,35,sing,blue,840.0163646000001,None,None,840.0163646000001,None,,,,,,,,,,,,,,,,,,,,,,,,,,,,,,,,,,,133,001,2023_Sep_28_1313,ProdSingRedoBetween,2021.2.3,59.93263571743291,
35,0,35,0,,,,,,,,,,,,,,,,,,,,,,,,,,844.5375248999999,None,scene,74,36,sing,red,842.5257541000001,None,None,842.5257541000001,None,,,,,,,,,,,,,,,,,,,,,,,,,,,,,,,,,,,133,001,2023_Sep_28_1313,ProdSingRedoBetween,2021.2.3,59.93263571743291,
36,0,36,0,,,,,,,,,,,,,,,,,,,,,,,,,,847.0400396000005,None,problem,79,37,sing,red,845.0381017999998,None,None,845.0381017999998,None,,,,,,,,,,,,,,,,,,,,,,,,,,,,,,,,,,,133,001,2023_Sep_28_1313,ProdSingRedoBetween,2021.2.3,59.93263571743291,
37,0,37,0,,,,,,,,,,,,,,,,,,,,,,,,,,849.5425751000002,None,straight,65,38,sing,red,847.5431724999999,None,None,847.5431724999999,None,,,,,,,,,,,,,,,,,,,,,,,,,,,,,,,,,,,133,001,2023_Sep_28_1313,ProdSingRedoBetween,2021.2.3,59.93263571743291,
38,0,38,0,,,,,,,,,,,,,,,,,,,,,,,,,,852.0617855,None,surprise,72,39,sing,red,850.0486896000002,None,None,850.0486896000002,None,,,,,,,,,,,,,,,,,,,,,,,,,,,,,,,,,,,133,001,2023_Sep_28_1313,ProdSingRedoBetween,2021.2.3,59.93263571743291,
39,0,39,0,,,,,,,,,,,,,,,,,,,,,,,,,,854.5809191999997,None,master,13,40,sing,yellow,852.5666130999998,None,None,852.5666130999998,None,,,,,,,,,,,,,,,,,,,,,,,,,,,,,,,,,,,133,001,2023_Sep_28_1313,ProdSingRedoBetween,2021.2.3,59.93263571743291,
40,0,40,0,,,,,,,,,,,,,,,,,,,,,,,,,,857.0834516000004,None,quantity,41,41,sing,blue,855.0811667999997,None,None,855.0811667999997,None,,,,,,,,,,,,,,,,,,,,,,,,,,,,,,,,,,,133,001,2023_Sep_28_1313,ProdSingRedoBetween,2021.2.3,59.93263571743291,
41,0,41,0,,,,,,,,,,,,,,,,,,,,,,,,,,859.6025998000005,None,height,51,42,sing,blue,857.5912786999997,None,None,857.5912786999997,None,,,,,,,,,,,,,,,,,,,,,,,,,,,,,,,,,,,133,001,2023_Sep_28_1313,ProdSingRedoBetween,2021.2.3,59.93263571743291,
42,0,42,0,,,,,,,,,,,,,,,,,,,,,,,,,,862.1217745000004,None,article,84,43,sing,red,860.1115165000001,None,None,860.1115165000001,None,,,,,,,,,,,,,,,,,,,,,,,,,,,,,,,,,,,133,001,2023_Sep_28_1313,ProdSingRedoBetween,2021.2.3,59.93263571743291,
43,0,43,0,,,,,,,,,,,,,,,,,,,,,,,,,,864.6242195000004,None,edition,62,44,sing,red,862.6232468999997,None,None,862.6232468999997,None,,,,,,,,,,,,,,,,,,,,,,,,,,,,,,,,,,,133,001,2023_Sep_28_1313,ProdSingRedoBetween,2021.2.3,59.93263571743291,
44,0,44,0,,,,,,,,,,,,,,,,,,,,,,,,,,867.1268743999999,None,science,37,45,sing,blue,865.1267919000002,None,None,865.1267919000002,None,,,,,,,,,,,,,,,,,,,,,,,,,,,,,,,,,,,133,001,2023_Sep_28_1313,ProdSingRedoBetween,2021.2.3,59.93263571743291,
45,0,45,0,,,,,,,,,,,,,,,,,,,,,,,,,,869.6460030999997,None,worker,24,46,sing,yellow,867.6394534000001,None,None,867.6394534000001,None,,,,,,,,,,,,,,,,,,,,,,,,,,,,,,,,,,,133,001,2023_Sep_28_1313,ProdSingRedoBetween,2021.2.3,59.93263571743291,
46,0,46,0,,,,,,,,,,,,,,,,,,,,,,,,,,872.1484583000001,None,watch,4,47,sing,yellow,870.1466612000004,None,None,870.1466612000004,None,,,,,,,,,,,,,,,,,,,,,,,,,,,,,,,,,,,133,001,2023_Sep_28_1313,ProdSingRedoBetween,2021.2.3,59.93263571743291,
47,0,47,0,,,,,,,,,,,,,,,,,,,,,,,,,,874.6510556000003,None,measure,28,48,sing,yellow,872.6519938000001,None,None,872.6519938000001,None,,,,,,,,,,,,,,,,,,,,,,,,,,,,,,,,,,,133,001,2023_Sep_28_1313,ProdSingRedoBetween,2021.2.3,59.93263571743291,
48,0,48,0,,,,,,,,,,,,,,,,,,,,,,,,,,877.1534574999996,None,century,89,49,sing,red,875.1539724000004,None,None,875.1539724000004,None,,,,,,,,,,,,,,,,,,,,,,,,,,,,,,,,,,,133,001,2023_Sep_28_1313,ProdSingRedoBetween,2021.2.3,59.93263571743291,
49,0,49,0,,,,,,,,,,,,,,,,,,,,,,,,,,879.6726132000003,None,answer,57,50,sing,blue,877.6574882000004,None,None,877.6574882000004,None,,,,,,,,,,,,,,,,,,,,,,,,,,,,,,,,,,,133,001,2023_Sep_28_1313,ProdSingRedoBetween,2021.2.3,59.93263571743291,
50,0,50,0,,,,,,,,,,,,,,,,,,,,,,,,,,882.1917068000002,None,majority,27,51,sing,yellow,880.1770146999997,None,None,880.1770146999997,None,,,,,,,,,,,,,,,,,,,,,,,,,,,,,,,,,,,133,001,2023_Sep_28_1313,ProdSingRedoBetween,2021.2.3,59.93263571743291,
51,0,51,0,,,,,,,,,,,,,,,,,,,,,,,,,,884.6942001999996,None,people,46,52,sing,blue,882.6923217000003,None,None,882.6923217000003,None,,,,,,,,,,,,,,,,,,,,,,,,,,,,,,,,,,,133,001,2023_Sep_28_1313,ProdSingRedoBetween,2021.2.3,59.93263571743291,
52,0,52,0,,,,,,,,,,,,,,,,,,,,,,,,,,887.1968092999996,None,school,44,53,sing,blue,885.1972612999998,None,None,885.1972612999998,None,,,,,,,,,,,,,,,,,,,,,,,,,,,,,,,,,,,133,001,2023_Sep_28_1313,ProdSingRedoBetween,2021.2.3,59.93263571743291,
53,0,53,0,,,,,,,,,,,,,,,,,,,,,,,,,,889.7160279999998,None,broad,47,54,sing,blue,887.7018811999997,None,None,887.7018811999997,None,,,,,,,,,,,,,,,,,,,,,,,,,,,,,,,,,,,133,001,2023_Sep_28_1313,ProdSingRedoBetween,2021.2.3,59.93263571743291,
54,0,54,0,,,,,,,,,,,,,,,,,,,,,,,,,,892.2184991000004,None,front,50,55,sing,blue,890.2184161000005,None,None,890.2184161000005,None,,,,,,,,,,,,,,,,,,,,,,,,,,,,,,,,,,,133,001,2023_Sep_28_1313,ProdSingRedoBetween,2021.2.3,59.93263571743291,
55,0,55,0,,,,,,,,,,,,,,,,,,,,,,,,,,894.7377474000004,None,center,86,56,sing,red,892.7231057999998,None,None,892.7231057999998,None,,,,,,,,,,,,,,,,,,,,,,,,,,,,,,,,,,,133,001,2023_Sep_28_1313,ProdSingRedoBetween,2021.2.3,59.93263571743291,
56,0,56,0,,,,,,,,,,,,,,,,,,,,,,,,,,897.2567978999996,None,tragedy,7,57,sing,yellow,895.2446712999999,None,None,895.2446712999999,None,,,,,,,,,,,,,,,,,,,,,,,,,,,,,,,,,,,133,001,2023_Sep_28_1313,ProdSingRedoBetween,2021.2.3,59.93263571743291,
57,0,57,0,,,,,,,,,,,,,,,,,,,,,,,,,,899.759344,None,heavy,29,58,sing,blue,897.7588646000004,None,None,897.7588646000004,None,,,,,,,,,,,,,,,,,,,,,,,,,,,,,,,,,,,133,001,2023_Sep_28_1313,ProdSingRedoBetween,2021.2.3,59.93263571743291,
58,0,58,0,,,,,,,,,,,,,,,,,,,,,,,,,,902.2785469,None,signal,78,59,sing,red,900.2633761999996,None,None,900.2633761999996,None,,,,,,,,,,,,,,,,,,,,,,,,,,,,,,,,,,,133,001,2023_Sep_28_1313,ProdSingRedoBetween,2021.2.3,59.93263571743291,
59,0,59,0,,,,,,,,,,,,,,,,,,,,,,,,,,904.7810086999998,None,length,21,60,sing,yellow,902.7814939,None,None,902.7814939,None,,,,,,,,,,,,,,,,,,,,,,,,,,,,,,,,,,,133,001,2023_Sep_28_1313,ProdSingRedoBetween,2021.2.3,59.93263571743291,
60,0,60,0,,,,,,,,,,,,,,,,,,,,,,,,,,907.2835532999998,None,under,23,61,sing,yellow,905.2823922999996,None,None,905.2823922999996,None,,,,,,,,,,,,,,,,,,,,,,,,,,,,,,,,,,,133,001,2023_Sep_28_1313,ProdSingRedoBetween,2021.2.3,59.93263571743291,
61,0,61,0,,,,,,,,,,,,,,,,,,,,,,,,,,909.8026848,None,stranger,20,62,sing,yellow,907.7875572000003,None,None,907.7875572000003,None,,,,,,,,,,,,,,,,,,,,,,,,,,,,,,,,,,,133,001,2023_Sep_28_1313,ProdSingRedoBetween,2021.2.3,59.93263571743291,
62,0,62,0,,,,,,,,,,,,,,,,,,,,,,,,,,912.3051924000001,None,exchange,35,63,sing,blue,910.3059890000004,None,None,910.3059890000004,None,,,,,,,,,,,,,,,,,,,,,,,,,,,,,,,,,,,133,001,2023_Sep_28_1313,ProdSingRedoBetween,2021.2.3,59.93263571743291,
63,0,63,0,,,,,,,,,,,,,,,,,,,,,,,,,,914.8243690999998,None,member,56,64,sing,blue,912.8101613999997,None,None,912.8101613999997,None,,,,,,,,,,,,,,,,,,,,,,,,,,,,,,,,,,,133,001,2023_Sep_28_1313,ProdSingRedoBetween,2021.2.3,59.93263571743291,
64,0,64,0,,,,,,,,,,,,,,,,,,,,,,,,,,917.3434989999996,None,device,85,65,sing,red,915.3366913999998,None,None,915.3366913999998,None,,,,,,,,,,,,,,,,,,,,,,,,,,,,,,,,,,,133,001,2023_Sep_28_1313,ProdSingRedoBetween,2021.2.3,59.93263571743291,
65,0,65,0,,,,,,,,,,,,,,,,,,,,,,,,,,919.8460069000002,None,profession,58,66,sing,blue,917.8440976000002,None,None,917.8440976000002,None,,,,,,,,,,,,,,,,,,,,,,,,,,,,,,,,,,,133,001,2023_Sep_28_1313,ProdSingRedoBetween,2021.2.3,59.93263571743291,
66,0,66,0,,,,,,,,,,,,,,,,,,,,,,,,,,922.3651527000002,None,fight,19,67,sing,yellow,920.3536082999999,None,None,920.3536082999999,None,,,,,,,,,,,,,,,,,,,,,,,,,,,,,,,,,,,133,001,2023_Sep_28_1313,ProdSingRedoBetween,2021.2.3,59.93263571743291,
67,0,67,0,,,,,,,,,,,,,,,,,,,,,,,,,,924.8677439000003,None,period,49,68,sing,blue,922.8657258000003,None,None,922.8657258000003,None,,,,,,,,,,,,,,,,,,,,,,,,,,,,,,,,,,,133,001,2023_Sep_28_1313,ProdSingRedoBetween,2021.2.3,59.93263571743291,
68,0,68,0,,,,,,,,,,,,,,,,,,,,,,,,,,927.3869182999997,None,provision,77,69,sing,red,925.3806427999998,None,None,925.3806427999998,None,,,,,,,,,,,,,,,,,,,,,,,,,,,,,,,,,,,133,001,2023_Sep_28_1313,ProdSingRedoBetween,2021.2.3,59.93263571743291,
69,0,69,0,,,,,,,,,,,,,,,,,,,,,,,,,,929.9061201000004,None,touch,12,70,sing,yellow,927.8954130000002,None,None,927.8954130000002,None,,,,,,,,,,,,,,,,,,,,,,,,,,,,,,,,,,,133,001,2023_Sep_28_1313,ProdSingRedoBetween,2021.2.3,59.93263571743291,
70,0,70,0,,,,,,,,,,,,,,,,,,,,,,,,,,932.4252882000001,None,minor,87,71,sing,red,930.4099727000003,None,None,930.4099727000003,None,,,,,,,,,,,,,,,,,,,,,,,,,,,,,,,,,,,133,001,2023_Sep_28_1313,ProdSingRedoBetween,2021.2.3,59.93263571743291,
71,0,71,0,,,,,,,,,,,,,,,,,,,,,,,,,,934.9281205999996,None,charter,69,72,sing,red,932.9265809999997,None,None,932.9265809999997,None,,,,,,,,,,,,,,,,,,,,,,,,,,,,,,,,,,,133,001,2023_Sep_28_1313,ProdSingRedoBetween,2021.2.3,59.93263571743291,
72,0,72,0,,,,,,,,,,,,,,,,,,,,,,,,,,937.430276,None,dance,43,73,sing,blue,935.4282747999996,None,None,935.4282747999996,None,,,,,,,,,,,,,,,,,,,,,,,,,,,,,,,,,,,133,001,2023_Sep_28_1313,ProdSingRedoBetween,2021.2.3,59.93263571743291,
73,0,73,0,,,,,,,,,,,,,,,,,,,,,,,,,,939.9328252000005,None,bitter,39,74,sing,blue,937.9329625,None,None,937.9329625,None,,,,,,,,,,,,,,,,,,,,,,,,,,,,,,,,,,,133,001,2023_Sep_28_1313,ProdSingRedoBetween,2021.2.3,59.93263571743291,
74,0,74,0,,,,,,,,,,,,,,,,,,,,,,,,,,942.4353050999998,None,month,53,75,sing,blue,940.4350045000001,None,None,940.4350045000001,None,,,,,,,,,,,,,,,,,,,,,,,,,,,,,,,,,,,133,001,2023_Sep_28_1313,ProdSingRedoBetween,2021.2.3,59.93263571743291,
75,0,75,0,,,,,,,,,,,,,,,,,,,,,,,,,,944.9378876000001,None,symbol,73,76,sing,red,942.9385899999997,None,None,942.9385899999997,None,,,,,,,,,,,,,,,,,,,,,,,,,,,,,,,,,,,133,001,2023_Sep_28_1313,ProdSingRedoBetween,2021.2.3,59.93263571743291,
76,0,76,0,,,,,,,,,,,,,,,,,,,,,,,,,,947.4569763999998,None,fellow,30,77,sing,blue,945.4427771999999,None,None,945.4427771999999,None,,,,,,,,,,,,,,,,,,,,,,,,,,,,,,,,,,,133,001,2023_Sep_28_1313,ProdSingRedoBetween,2021.2.3,59.93263571743291,
77,0,77,0,,,,,,,,,,,,,,,,,,,,,,,,,,949.9594784999999,None,power,63,78,sing,red,947.9571253000004,None,None,947.9571253000004,None,,,,,,,,,,,,,,,,,,,,,,,,,,,,,,,,,,,133,001,2023_Sep_28_1313,ProdSingRedoBetween,2021.2.3,59.93263571743291,
78,0,78,0,,,,,,,,,,,,,,,,,,,,,,,,,,952.4786452999997,None,comfort,82,79,sing,red,950.4642757000001,None,None,950.4642757000001,None,,,,,,,,,,,,,,,,,,,,,,,,,,,,,,,,,,,133,001,2023_Sep_28_1313,ProdSingRedoBetween,2021.2.3,59.93263571743291,
79,0,79,0,,,,,,,,,,,,,,,,,,,,,,,,,,954.9813049000004,None,track,52,80,sing,blue,952.9791022999998,None,None,952.9791022999998,None,,,,,,,,,,,,,,,,,,,,,,,,,,,,,,,,,,,133,001,2023_Sep_28_1313,ProdSingRedoBetween,2021.2.3,59.93263571743291,
80,0,80,0,,,,,,,,,,,,,,,,,,,,,,,,,,957.5004065000003,None,trend,68,81,sing,red,955.4854771,None,None,955.4854771,None,,,,,,,,,,,,,,,,,,,,,,,,,,,,,,,,,,,133,001,2023_Sep_28_1313,ProdSingRedoBetween,2021.2.3,59.93263571743291,
81,0,81,0,,,,,,,,,,,,,,,,,,,,,,,,,,960.0028591,None,accident,66,82,sing,red,958.0032142999999,None,None,958.0032142999999,None,,,,,,,,,,,,,,,,,,,,,,,,,,,,,,,,,,,133,001,2023_Sep_28_1313,ProdSingRedoBetween,2021.2.3,59.93263571743291,
82,0,82,0,,,,,,,,,,,,,,,,,,,,,,,,,,962.5220048000001,None,business,2,83,sing,yellow,960.5070861000004,None,None,960.5070861000004,None,,,,,,,,,,,,,,,,,,,,,,,,,,,,,,,,,,,133,001,2023_Sep_28_1313,ProdSingRedoBetween,2021.2.3,59.93263571743291,
83,0,83,0,,,,,,,,,,,,,,,,,,,,,,,,,,965.0411868000001,None,property,3,84,sing,yellow,963.0273177999998,None,None,963.0273177999998,None,,,,,,,,,,,,,,,,,,,,,,,,,,,,,,,,,,,133,001,2023_Sep_28_1313,ProdSingRedoBetween,2021.2.3,59.93263571743291,
84,0,84,0,,,,,,,,,,,,,,,,,,,,,,,,,,967.5436511999997,None,clean,15,85,sing,yellow,965.5416109999996,None,None,965.5416109999996,None,,,,,,,,,,,,,,,,,,,,,,,,,,,,,,,,,,,133,001,2023_Sep_28_1313,ProdSingRedoBetween,2021.2.3,59.93263571743291,
85,0,85,0,,,,,,,,,,,,,,,,,,,,,,,,,,970.0461794000003,None,raise,67,86,sing,red,968.0469042000004,None,None,968.0469042000004,None,,,,,,,,,,,,,,,,,,,,,,,,,,,,,,,,,,,133,001,2023_Sep_28_1313,ProdSingRedoBetween,2021.2.3,59.93263571743291,
86,0,86,0,,,,,,,,,,,,,,,,,,,,,,,,,,972.5652803000003,None,estate,61,87,sing,red,970.5522123999999,None,None,970.5522123999999,None,,,,,,,,,,,,,,,,,,,,,,,,,,,,,,,,,,,133,001,2023_Sep_28_1313,ProdSingRedoBetween,2021.2.3,59.93263571743291,
87,0,87,0,,,,,,,,,,,,,,,,,,,,,,,,,,975.0845083000004,None,pancakes,54,88,sing,blue,973.0759709000004,None,None,973.0759709000004,None,,,,,,,,,,,,,,,,,,,,,,,,,,,,,,,,,,,133,001,2023_Sep_28_1313,ProdSingRedoBetween,2021.2.3,59.93263571743291,
88,0,88,0,,,,,,,,,,,,,,,,,,,,,,,,,,977.5870149000002,None,column,0,89,sing,yellow,975.5859100999996,None,None,975.5859100999996,None,,,,,,,,,,,,,,,,,,,,,,,,,,,,,,,,,,,133,001,2023_Sep_28_1313,ProdSingRedoBetween,2021.2.3,59.93263571743291,
89,0,89,0,,,,,,,,,,,,,,,,,,,,,,,,,,980.0895340999996,None,short,64,90,sing,red,978.0899594000002,None,None,978.0899594000002,None,,,,,,,,,,,,,,,,,,,,,,,,,,,,,,,,,,,133,001,2023_Sep_28_1313,ProdSingRedoBetween,2021.2.3,59.93263571743291,
,,,,,,,,,,,,,,,,,,,,,,,,,,,,,,,,,,,,,,,,,980.5902489,None,k,11.096800199999961,980.5902489,None,,,,,,,,,,,,,,,,,,,,,,,,,,,,,133,001,2023_Sep_28_1313,ProdSingRedoBetween,2021.2.3,59.93263571743291,
,,,,0,0,0,0,,,,,,,,,,,,,,,,,,,,,,1102.0632022999998,None,,,,,,,,,,,,,,,,,broad,47,1,sing,old,blue,992.2351612000002,None,992.2351612000002,None,6,39.16369500000019,992.2351612000002,None,39.16369500000019,1031.4250283000001,None,1031.9297446,None,1031.9297446,None,r,70.10111890000007,1031.9297446,None,70.10111890000007,,,133,001,2023_Sep_28_1313,ProdSingRedoBetween,2021.2.3,59.93263571743291,
,,,,1,0,1,0,,,,,,,,,,,,,,,,,,,,,,1108.9772823000003,None,,,,,,,,,,,,,,,,,error,88,2,sing,old,red,1102.5868679000005,None,1102.5868679000005,None,6,3.299889500000063,1102.5868679000005,None,3.299889500000063,1105.9169488999996,None,1106.4383611000003,None,1106.4383611000003,None,f,2.5125491999997394,1106.4383611000003,None,2.5125491999997394,,,133,001,2023_Sep_28_1313,ProdSingRedoBetween,2021.2.3,59.93263571743291,
,,,,2,0,2,0,,,,,,,,,,,,,,,,,,,,,,1117.8952071000003,None,,,,,,,,,,,,,,,,,direction,173,3,sing,new,null,1109.4953698999998,None,1109.4953698999998,None,2,4.295360199999777,1109.4953698999998,None,4.295360199999777,1113.8072540000003,None,1114.3104304999997,None,1114.3104304999997,None,n,3.5683996000007028,1114.3104304999997,None,3.5683996000007028,,,133,001,2023_Sep_28_1313,ProdSingRedoBetween,2021.2.3,59.93263571743291,
,,,,3,0,3,0,,,,,,,,,,,,,,,,,,,,,,1123.2822778,None,,,,,,,,,,,,,,,,,victory,111,4,sing,new,null,1118.4143814999998,None,1118.4143814999998,None,1,2.4563105000006544,1118.4143814999998,None,2.4563105000006544,1120.8997926000002,None,1121.4194857000002,None,1121.4194857000002,None,n,1.8351951999993616,1121.4194857000002,None,1.8351951999993616,,,133,001,2023_Sep_28_1313,ProdSingRedoBetween,2021.2.3,59.93263571743291,
,,,,4,0,4,0,,,,,,,,,,,,,,,,,,,,,,1131.1401800000003,None,,,,,,,,,,,,,,,,,front,50,5,sing,old,blue,1123.7946560999999,None,1123.7946560999999,None,4,5.028125699999691,1123.7946560999999,None,5.028125699999691,1128.8417442,None,1129.3603603000001,None,1129.3603603000001,None,n,1.7503663000006782,1129.3603603000001,None,1.7503663000006782,,,133,001,2023_Sep_28_1313,ProdSingRedoBetween,2021.2.3,59.93263571743291,
,,,,5,0,5,0,,,,,,,,,,,,,,,,,,,,,,1139.8331329000002,None,,,,,,,,,,,,,,,,,industry,135,6,sing,new,null,1131.6509937,None,1131.6509937,None,3,5.003710699999829,1131.6509937,None,5.003710699999829,1136.6818765999997,None,1137.1963524000003,None,1137.1963524000003,None,n,2.6104232999996384,1137.1963524000003,None,2.6104232999996384,,,133,001,2023_Sep_28_1313,ProdSingRedoBetween,2021.2.3,59.93263571743291,
,,,,6,0,6,0,,,,,,,,,,,,,,,,,,,,,,1153.3323177000002,None,,,,,,,,,,,,,,,,,message,26,7,sing,old,yellow,1140.3371196999997,None,1140.3371196999997,None,4,7.47758149999936,1140.3371196999997,None,7.47758149999936,1147.8411846999998,None,1148.3473170999996,None,1148.3473170999996,None,f,4.9554136999995535,1148.3473170999996,None,4.9554136999995535,,,133,001,2023_Sep_28_1313,ProdSingRedoBetween,2021.2.3,59.93263571743291,
,,,,7,0,7,0,,,,,,,,,,,,,,,,,,,,,,1159.0865903000004,None,,,,,,,,,,,,,,,,,member,56,8,sing,old,blue,1153.8547933,None,1153.8547933,None,5,3.0398872000005213,1153.8547933,None,3.0398872000005213,1156.9176748,None,1157.4392091,None,1157.4392091,None,f,1.6155404000001,1157.4392091,None,1.6155404000001,,,133,001,2023_Sep_28_1313,ProdSingRedoBetween,2021.2.3,59.93263571743291,
,,,,8,0,8,0,,,,,,,,,,,,,,,,,,,,,,1163.7060248999996,None,,,,,,,,,,,,,,,,,business,2,9,sing,old,yellow,1159.6076604999998,None,1159.6076604999998,None,6,2.462980499999503,1159.6076604999998,None,2.462980499999503,1162.0917883000002,None,1162.609437,None,1162.609437,None,f,1.0772385000000213,1162.609437,None,1.0772385000000213,,,133,001,2023_Sep_28_1313,ProdSingRedoBetween,2021.2.3,59.93263571743291,
,,,,9,0,9,0,,,,,,,,,,,,,,,,,,,,,,1169.0966394999996,None,,,,,,,,,,,,,,,,,symbol,73,10,sing,old,red,1164.2168443,None,1164.2168443,None,5,3.1417756999999256,1164.2168443,None,3.1417756999999256,1167.3777091000002,None,1167.8808869000004,None,1167.8808869000004,None,n,1.1898290999997698,1167.8808869000004,None,1.1898290999997698,,,133,001,2023_Sep_28_1313,ProdSingRedoBetween,2021.2.3,59.93263571743291,
,,,,10,0,10,0,,,,,,,,,,,,,,,,,,,,,,1174.9512567000002,None,,,,,,,,,,,,,,,,,dance,43,11,sing,old,blue,1169.6226082000003,None,1169.6226082000003,None,1,3.576017200000024,1169.6226082000003,None,3.576017200000024,1173.2161060999997,None,1173.7186137999997,None,1173.7186137999997,None,n,1.2159956999994392,1173.7186137999997,None,1.2159956999994392,,,133,001,2023_Sep_28_1313,ProdSingRedoBetween,2021.2.3,59.93263571743291,
,,,,11,0,11,0,,,,,,,,,,,,,,,,,,,,,,1180.0584003000004,None,,,,,,,,,,,,,,,,,background,18,12,sing,old,yellow,1175.4577404000001,None,1175.4577404000001,None,6,2.7090125000004264,1175.4577404000001,None,2.7090125000004264,1178.1953467000003,None,1178.7070156999998,None,1178.7070156999998,None,r,1.3237527000001137,1178.7070156999998,None,1.3237527000001137,,,133,001,2023_Sep_28_1313,ProdSingRedoBetween,2021.2.3,59.93263571743291,
,,,,12,0,12,0,,,,,,,,,,,,,,,,,,,,,,1186.1644759,None,,,,,,,,,,,,,,,,,interview,140,13,sing,new,null,1180.5805030000001,None,1180.5805030000001,None,3,3.6421511999997165,1180.5805030000001,None,3.6421511999997165,1184.2455557000003,None,1184.7605460000004,None,1184.7605460000004,None,n,1.374237600000015,1184.7605460000004,None,1.374237600000015,,,133,001,2023_Sep_28_1313,ProdSingRedoBetween,2021.2.3,59.93263571743291,
,,,,13,0,13,0,,,,,,,,,,,,,,,,,,,,,,1189.9653619,None,,,,,,,,,,,,,,,,,session,10,14,sing,old,yellow,1186.6906586000005,None,1186.6906586000005,None,6,1.7481426000003921,1186.6906586000005,None,1.7481426000003921,1188.4706248000002,None,1188.9886233999996,None,1188.9886233999996,None,r,0.9619107999997141,1188.9886233999996,None,0.9619107999997141,,,133,001,2023_Sep_28_1313,ProdSingRedoBetween,2021.2.3,59.93263571743291,
,,,,14,0,14,0,,,,,,,,,,,,,,,,,,,,,,1194.9705628000002,None,,,,,,,,,,,,,,,,,instrument,16,15,sing,old,yellow,1190.4776992999996,None,1190.4776992999996,None,1,2.9928829000000405,1190.4776992999996,None,2.9928829000000405,1193.4882866999997,None,1194.0075952999996,None,1194.0075952999996,None,n,0.9430523000000903,1194.0075952999996,None,0.9430523000000903,,,133,001,2023_Sep_28_1313,ProdSingRedoBetween,2021.2.3,59.93263571743291,
,,,,15,0,15,0,,,,,,,,,,,,,,,,,,,,,,1199.2746404999998,None,,,,,,,,,,,,,,,,,master,13,16,sing,old,yellow,1195.4858777999998,None,1195.4858777999998,None,6,2.3688333000000057,1195.4858777999998,None,2.3688333000000057,1197.8772059000003,None,1198.3935327,None,1198.3935327,None,r,0.8611627000000226,1198.3935327,None,0.8611627000000226,,,133,001,2023_Sep_28_1313,ProdSingRedoBetween,2021.2.3,59.93263571743291,
,,,,16,0,16,0,,,,,,,,,,,,,,,,,,,,,,1202.5445903999998,None,,,,,,,,,,,,,,,,,poetry,17,17,sing,old,yellow,1199.7864643000003,None,1199.7864643000003,None,6,1.5641349999996237,1199.7864643000003,None,1.5641349999996237,1201.3802506000002,None,1201.9011375999999,None,1201.9011375999999,None,r,0.6175268000006326,1201.9011375999999,None,0.6175268000006326,,,133,001,2023_Sep_28_1313,ProdSingRedoBetween,2021.2.3,59.93263571743291,
,,,,17,0,17,0,,,,,,,,,,,,,,,,,,,,,,1206.6656259000001,None,,,,,,,,,,,,,,,,,safety,149,18,sing,new,null,1203.0546612999997,None,1203.0546612999997,None,1,2.3120607000000746,1203.0546612999997,None,2.3120607000000746,1205.3985192999999,None,1205.9019753000002,None,1205.9019753000002,None,n,0.7366130999998859,1205.9019753000002,None,0.7366130999998859,,,133,001,2023_Sep_28_1313,ProdSingRedoBetween,2021.2.3,59.93263571743291,
,,,,18,0,18,0,,,,,,,,,,,,,,,,,,,,,,1211.8040422000004,None,,,,,,,,,,,,,,,,,stranger,20,19,sing,old,yellow,1207.1782913999996,None,1207.1782913999996,None,4,2.7163626000001386,1207.1782913999996,None,2.7163626000001386,1209.9220563999997,None,1210.4361006,None,1210.4361006,None,n,1.3385331999998016,1210.4361006,None,1.3385331999998016,,,133,001,2023_Sep_28_1313,ProdSingRedoBetween,2021.2.3,59.93263571743291,
,,,,19,0,19,0,,,,,,,,,,,,,,,,,,,,,,1217.3762524000003,None,,,,,,,,,,,,,,,,,atmosphere,25,20,sing,old,yellow,1212.3127167000002,None,1212.3127167000002,None,5,3.5899209999997765,1212.3127167000002,None,3.5899209999997765,1215.9289453000001,None,1216.4461094999997,None,1216.4461094999997,None,f,0.9045009000001301,1216.4461094999997,None,0.9045009000001301,,,133,001,2023_Sep_28_1313,ProdSingRedoBetween,2021.2.3,59.93263571743291,
,,,,20,0,20,0,,,,,,,,,,,,,,,,,,,,,,1222.9359796999997,None,,,,,,,,,,,,,,,,,distance,94,21,sing,new,null,1217.8816686,None,1217.8816686,None,2,3.668920799999796,1217.8816686,None,3.668920799999796,1221.5816025000004,None,1222.086636,None,1222.086636,None,n,0.8161982000001444,1222.086636,None,0.8161982000001444,,,133,001,2023_Sep_28_1313,ProdSingRedoBetween,2021.2.3,59.93263571743291,
,,,,21,0,21,0,,,,,,,,,,,,,,,,,,,,,,1226.9538198,None,,,,,,,,,,,,,,,,,management,138,22,sing,new,null,1223.458345,None,1223.458345,None,1,2.1323536999998396,1223.458345,None,2.1323536999998396,1225.6329487000003,None,1226.1390276000002,None,1226.1390276000002,None,n,0.7876648000001296,1226.1390276000002,None,0.7876648000001296,,,133,001,2023_Sep_28_1313,ProdSingRedoBetween,2021.2.3,59.93263571743291,
,,,,22,0,22,0,,,,,,,,,,,,,,,,,,,,,,1233.6422599999996,None,,,,,,,,,,,,,,,,,center,86,23,sing,old,red,1227.4597304999998,None,1227.4597304999998,None,4,2.6108156000000236,1227.4597304999998,None,2.6108156000000236,1230.0908876000003,None,1230.6066149999997,None,1230.6066149999997,None,n,3.008004900000742,1230.6066149999997,None,3.008004900000742,,,133,001,2023_Sep_28_1313,ProdSingRedoBetween,2021.2.3,59.93263571743291,
,,,,23,0,23,0,,,,,,,,,,,,,,,,,,,,,,1239.4342078,None,,,,,,,,,,,,,,,,,childhood,105,24,sing,new,null,1234.1505353000002,None,1234.1505353000002,None,1,3.672093400000449,1234.1505353000002,None,3.672093400000449,1237.8535044999999,None,1238.3640169,None,1238.3640169,None,n,1.0426390000002357,1238.3640169,None,1.0426390000002357,,,133,001,2023_Sep_28_1313,ProdSingRedoBetween,2021.2.3,59.93263571743291,
,,,,24,0,24,0,,,,,,,,,,,,,,,,,,,,,,1244.7575156000003,None,,,,,,,,,,,,,,,,,pancakes,54,25,sing,old,blue,1239.9576237,None,1239.9576237,None,6,1.5929764000002251,1239.9576237,None,1.5929764000002251,1241.5684844999996,None,1242.0789925999998,None,1242.0789925999998,None,r,2.6557167999999365,1242.0789925999998,None,2.6557167999999365,,,133,001,2023_Sep_28_1313,ProdSingRedoBetween,2021.2.3,59.93263571743291,
,,,,25,0,25,0,,,,,,,,,,,,,,,,,,,,,,1249.4257297000004,None,,,,,,,,,,,,,,,,,curve,101,26,sing,new,null,1245.2733681,None,1245.2733681,None,1,1.4932264000008217,1245.2733681,None,1.4932264000008217,1246.7903059999999,None,1247.2937772000005,None,1247.2937772000005,None,n,2.1048375000000306,1247.2937772000005,None,2.1048375000000306,,,133,001,2023_Sep_28_1313,ProdSingRedoBetween,2021.2.3,59.93263571743291,
,,,,26,0,26,0,,,,,,,,,,,,,,,,,,,,,,1252.9512469000001,None,,,,,,,,,,,,,,,,,place,119,27,sing,new,null,1249.9254305000004,None,1249.9254305000004,None,1,1.4574862999998004,1249.9254305000004,None,1.4574862999998004,1251.4184474000003,None,1251.9289546,None,1251.9289546,None,n,0.9976775000004636,1251.9289546,None,0.9976775000004636,,,133,001,2023_Sep_28_1313,ProdSingRedoBetween,2021.2.3,59.93263571743291,
,,,,27,0,27,0,,,,,,,,,,,,,,,,,,,,,,1256.0813798,None,,,,,,,,,,,,,,,,,trail,109,28,sing,new,null,1253.4621808000002,None,1253.4621808000002,None,1,1.3044341000004351,1253.4621808000002,None,1.3044341000004351,1254.8018433999996,None,1255.3204333000003,None,1255.3204333000003,None,n,0.7341539999997622,1255.3204333000003,None,0.7341539999997622,,,133,001,2023_Sep_28_1313,ProdSingRedoBetween,2021.2.3,59.93263571743291,
,,,,28,0,28,0,,,,,,,,,,,,,,,,,,,,,,1260.2690593999996,None,,,,,,,,,,,,,,,,,school,44,29,sing,old,blue,1256.5935599000004,None,1256.5935599000004,None,6,2.6130974999996397,1256.5935599000004,None,2.6130974999996397,1259.2378557000002,None,1259.7520670000004,None,1259.7520670000004,None,r,0.49456479999935254,1259.7520670000004,None,0.49456479999935254,,,133,001,2023_Sep_28_1313,ProdSingRedoBetween,2021.2.3,59.93263571743291,
,,,,29,0,29,0,,,,,,,,,,,,,,,,,,,,,,1266.0595291999998,None,,,,,,,,,,,,,,,,,length,21,30,sing,old,yellow,1260.7785955999998,None,1260.7785955999998,None,5,4.355970600000546,1260.7785955999998,None,4.355970600000546,1265.1582356,None,1265.6613141999997,None,1265.6613141999997,None,f,0.36925069999961124,1265.6613141999997,None,0.36925069999961124,,,133,001,2023_Sep_28_1313,ProdSingRedoBetween,2021.2.3,59.93263571743291,
,,,,30,0,30,0,,,,,,,,,,,,,,,,,,,,,,1269.8962645000001,None,,,,,,,,,,,,,,,,,strain,126,31,sing,new,null,1266.5720284,None,1266.5720284,None,1,1.4345263000004707,1266.5720284,None,1.4345263000004707,1268.0280473000003,None,1268.5360115000003,None,1268.5360115000003,None,n,1.342599099999461,1268.5360115000003,None,1.342599099999461,,,133,001,2023_Sep_28_1313,ProdSingRedoBetween,2021.2.3,59.93263571743291,
,,,,31,0,31,0,,,,,,,,,,,,,,,,,,,,,,1274.4999165999998,None,,,,,,,,,,,,,,,,,comfort,82,32,sing,old,red,1270.4019924000004,None,1270.4019924000004,None,1,2.868527599999652,1270.4019924000004,None,2.868527599999652,1273.3005323999996,None,1273.8181040999998,None,1273.8181040999998,None,n,0.6525338999999803,1273.8181040999998,None,0.6525338999999803,,,133,001,2023_Sep_28_1313,ProdSingRedoBetween,2021.2.3,59.93263571743291,
,,,,32,0,32,0,,,,,,,,,,,,,,,,,,,,,,1277.4195074,None,,,,,,,,,,,,,,,,,people,46,33,sing,old,blue,1275.0122235,None,1275.0122235,None,1,1.4823512000002665,1275.0122235,None,1.4823512000002665,1276.5199343000004,None,1277.0219458000001,None,1277.0219458000001,None,n,0.37666210000043066,1277.0219458000001,None,0.37666210000043066,,,133,001,2023_Sep_28_1313,ProdSingRedoBetween,2021.2.3,59.93263571743291,
,,,,33,0,33,0,,,,,,,,,,,,,,,,,,,,,,1279.9218670999999,None,,,,,,,,,,,,,,,,,reach,120,34,sing,new,null,1277.9255094,None,1277.9255094,None,1,1.369070799999463,1277.9255094,None,1.369070799999463,1279.3234405000003,None,1279.8386552000002,None,1279.8386552000002,None,n,0.0644614000002548,1279.8386552000002,None,0.0644614000002548,,,133,001,2023_Sep_28_1313,ProdSingRedoBetween,2021.2.3,59.93263571743291,
,,,,34,0,34,0,,,,,,,,,,,,,,,,,,,,,,1284.9270593,None,,,,,,,,,,,,,,,,,store,91,35,sing,new,null,1280.4411633,None,1280.4411633,None,1,1.365401899999597,1280.4411633,None,1.365401899999597,1281.8256540000002,None,1282.3463578,None,1282.3463578,None,n,2.5642483999999968,1282.3463578,None,2.5642483999999968,,,133,001,2023_Sep_28_1313,ProdSingRedoBetween,2021.2.3,59.93263571743291,
,,,,35,0,35,0,,,,,,,,,,,,,,,,,,,,,,1289.5816570999996,None,,,,,,,,,,,,,,,,,nation,168,36,sing,new,null,1285.4346038000003,None,1285.4346038000003,None,4,2.811883499999567,1285.4346038000003,None,2.811883499999567,1288.2665966000004,None,1288.7819680000002,None,1288.7819680000002,None,f,0.7686444000000847,1288.7819680000002,None,0.7686444000000847,,,133,001,2023_Sep_28_1313,ProdSingRedoBetween,2021.2.3,59.93263571743291,
,,,,36,0,36,0,,,,,,,,,,,,,,,,,,,,,,1292.8682681,None,,,,,,,,,,,,,,,,,rough,108,37,sing,new,null,1290.0912361,None,1290.0912361,None,1,1.5873042000002897,1290.0912361,None,1.5873042000002897,1291.7030922000004,None,1292.2194069999996,None,1292.2194069999996,None,n,0.6271739000003436,1292.2194069999996,None,0.6271739000003436,,,133,001,2023_Sep_28_1313,ProdSingRedoBetween,2021.2.3,59.93263571743291,
,,,,37,0,37,0,,,,,,,,,,,,,,,,,,,,,,1296.1547373000003,None,,,,,,,,,,,,,,,,,voice,90,38,sing,new,null,1293.3718043,None,1293.3718043,None,1,1.7067192999993495,1293.3718043,None,1.7067192999993495,1295.1077211000002,None,1295.6212037000005,None,1295.6212037000005,None,n,0.5133852999997544,1295.6212037000005,None,0.5133852999997544,,,133,001,2023_Sep_28_1313,ProdSingRedoBetween,2021.2.3,59.93263571743291,
,,,,38,0,38,0,,,,,,,,,,,,,,,,,,,,,,1301.7271399,None,,,,,,,,,,,,,,,,,foundation,34,39,sing,old,blue,1296.6572966000003,None,1296.6572966000003,None,3,3.893261700000039,1296.6572966000003,None,3.893261700000039,1300.5790721000003,None,1301.0962362999999,None,1301.0962362999999,None,n,0.6063287000006312,1301.0962362999999,None,0.6063287000006312,,,133,001,2023_Sep_28_1313,ProdSingRedoBetween,2021.2.3,59.93263571743291,
,,,,39,0,39,0,,,,,,,,,,,,,,,,,,,,,,1305.1500941000004,None,,,,,,,,,,,,,,,,,quick,1,40,sing,old,yellow,1302.2379313000001,None,1302.2379313000001,None,1,1.6805560000002515,1302.2379313000001,None,1.6805560000002515,1303.948754,None,1304.4728699999996,None,1304.4728699999996,None,n,0.6537312000000384,1304.4728699999996,None,0.6537312000000384,,,133,001,2023_Sep_28_1313,ProdSingRedoBetween,2021.2.3,59.93263571743291,
,,,,40,0,40,0,,,,,,,,,,,,,,,,,,,,,,1308.2503321000004,None,,,,,,,,,,,,,,,,,husband,118,41,sing,new,null,1305.6798771000003,None,1305.6798771000003,None,1,1.4306439000001774,1305.6798771000003,None,1.4306439000001774,1307.1336136999998,None,1307.6404781,None,1307.6404781,None,n,0.5820577999993475,1307.6404781,None,0.5820577999993475,,,133,001,2023_Sep_28_1313,ProdSingRedoBetween,2021.2.3,59.93263571743291,
,,,,41,0,41,0,,,,,,,,,,,,,,,,,,,,,,1314.0611200000003,None,,,,,,,,,,,,,,,,,benefit,42,42,sing,old,blue,1308.7672334,None,1308.7672334,None,3,3.791445599999861,1308.7672334,None,3.791445599999861,1312.5982463,None,1313.1125327999998,None,1313.1125327999998,None,n,0.9180200000000696,1313.1125327999998,None,0.9180200000000696,,,133,001,2023_Sep_28_1313,ProdSingRedoBetween,2021.2.3,59.93263571743291,
,,,,42,0,42,0,,,,,,,,,,,,,,,,,,,,,,1317.2592064,None,,,,,,,,,,,,,,,,,grade,8,43,sing,old,yellow,1314.5759304000003,None,1314.5759304000003,None,1,1.5425861000003351,1314.5759304000003,None,1.5425861000003351,1316.1425362999998,None,1316.6446342,None,1316.6446342,None,n,0.5938763999993171,1316.6446342,None,0.5938763999993171,,,133,001,2023_Sep_28_1313,ProdSingRedoBetween,2021.2.3,59.93263571743291,
,,,,43,0,43,0,,,,,,,,,,,,,,,,,,,,,,1322.3664838000004,None,,,,,,,,,,,,,,,,,point,100,44,sing,new,null,1317.7694184000002,None,1317.7694184000002,None,1,3.5971097999999984,1317.7694184000002,None,3.5971097999999984,1321.3981301000003,None,1321.9088904,None,1321.9088904,None,n,0.4258325999999215,1321.9088904,None,0.4258325999999215,,,133,001,2023_Sep_28_1313,ProdSingRedoBetween,2021.2.3,59.93263571743291,
,,,,44,0,44,0,,,,,,,,,,,,,,,,,,,,,,1326.0346749,None,,,,,,,,,,,,,,,,,division,122,45,sing,new,null,1322.8892210000004,None,1322.8892210000004,None,1,1.8853140000001076,1322.8892210000004,None,1.8853140000001076,1324.8013792000002,None,1325.3068266,None,1325.3068266,None,n,0.707709899999827,1325.3068266,None,0.707709899999827,,,133,001,2023_Sep_28_1313,ProdSingRedoBetween,2021.2.3,59.93263571743291,
,,,,45,0,45,0,,,,,,,,,,,,,,,,,,,,,,1331.9761332999997,None,,,,,,,,,,,,,,,,,style,70,46,sing,old,red,1326.5481507000004,None,1326.5481507000004,None,4,3.946441300000515,1326.5481507000004,None,3.946441300000515,1330.5363028000002,None,1331.0422227999998,None,1331.0422227999998,None,f,0.9005422000000181,1331.0422227999998,None,0.9005422000000181,,,133,001,2023_Sep_28_1313,ProdSingRedoBetween,2021.2.3,59.93263571743291,
,,,,46,0,46,0,,,,,,,,,,,,,,,,,,,,,,1335.5284726,None,,,,,,,,,,,,,,,,,series,106,47,sing,new,null,1332.4984813,None,1332.4984813,None,1,1.4759716999997181,1332.4984813,None,1.4759716999997181,1333.9939395000001,None,1334.5006039999998,None,1334.5006039999998,None,n,1.0099513000004663,1334.5006039999998,None,1.0099513000004663,,,133,001,2023_Sep_28_1313,ProdSingRedoBetween,2021.2.3,59.93263571743291,
,,,,47,0,47,0,,,,,,,,,,,,,,,,,,,,,,1338.7161005999997,None,,,,,,,,,,,,,,,,,drove,174,48,sing,new,null,1336.0324243000005,None,1336.0324243000005,None,1,1.486035100000663,1336.0324243000005,None,1.486035100000663,1337.5471166999996,None,1338.0497477,None,1338.0497477,None,n,0.6447454999997717,1338.0497477,None,0.6447454999997717,,,133,001,2023_Sep_28_1313,ProdSingRedoBetween,2021.2.3,59.93263571743291,
,,,,48,0,48,0,,,,,,,,,,,,,,,,,,,,,,1342.4843582000003,None,,,,,,,,,,,,,,,,,listen,123,49,sing,new,null,1339.2366536999998,None,1339.2366536999998,None,1,1.617858200000228,1339.2366536999998,None,1.617858200000228,1340.8838162000002,None,1341.3890883000004,None,1341.3890883000004,None,n,1.0653456999998525,1341.3890883000004,None,1.0653456999998525,,,133,001,2023_Sep_28_1313,ProdSingRedoBetween,2021.2.3,59.93263571743291,
,,,,49,0,49,0,,,,,,,,,,,,,,,,,,,,,,1345.6887723999998,None,,,,,,,,,,,,,,,,,brief,11,50,sing,old,yellow,1342.9934243999996,None,1342.9934243999996,None,1,1.6210480999998254,1342.9934243999996,None,1.6210480999998254,1344.6438177999999,None,1345.1537018,None,1345.1537018,None,n,0.5168501999996806,1345.1537018,None,0.5168501999996806,,,133,001,2023_Sep_28_1313,ProdSingRedoBetween,2021.2.3,59.93263571743291,
,,,,50,0,50,0,,,,,,,,,,,,,,,,,,,,,,1351.6936046,None,,,,,,,,,,,,,,,,,century,89,51,sing,old,red,1346.1970891,None,1346.1970891,None,3,4.505452299999888,1346.1970891,None,4.505452299999888,1350.7258209000001,None,1351.2347631000002,None,1351.2347631000002,None,f,0.4357411000000866,1351.2347631000002,None,0.4357411000000866,,,133,001,2023_Sep_28_1313,ProdSingRedoBetween,2021.2.3,59.93263571743291,
,,,,51,0,51,0,,,,,,,,,,,,,,,,,,,,,,1356.3492047999998,None,,,,,,,,,,,,,,,,,working,115,52,sing,new,null,1352.2045486999996,None,1352.2045486999996,None,1,3.201936000000387,1352.2045486999996,None,3.201936000000387,1355.4319855000003,None,1355.9424356999998,None,1355.9424356999998,None,n,0.3760659999998097,1355.9424356999998,None,0.3760659999998097,,,133,001,2023_Sep_28_1313,ProdSingRedoBetween,2021.2.3,59.93263571743291,
,,,,52,0,52,0,,,,,,,,,,,,,,,,,,,,,,1359.9351892000004,None,,,,,,,,,,,,,,,,,count,38,53,sing,old,blue,1356.8517825999998,None,1356.8517825999998,None,6,2.24268579999989,1356.8517825999998,None,2.24268579999989,1359.1174972,None,1359.6228694000001,None,1359.6228694000001,None,r,0.29565460000048915,1359.6228694000001,None,0.29565460000048915,,,133,001,2023_Sep_28_1313,ProdSingRedoBetween,2021.2.3,59.93263571743291,
,,,,53,0,53,0,,,,,,,,,,,,,,,,,,,,,,1364.5731308000004,None,,,,,,,,,,,,,,,,,payment,14,54,sing,old,yellow,1360.4411492999998,None,1360.4411492999998,None,1,2.0374455999999554,1360.4411492999998,None,2.0374455999999554,1362.513801,None,1363.0243038999997,None,1363.0243038999997,None,n,1.5261602999999013,1363.0243038999997,None,1.5261602999999013,,,133,001,2023_Sep_28_1313,ProdSingRedoBetween,2021.2.3,59.93263571743291,
,,,,54,0,54,0,,,,,,,,,,,,,,,,,,,,,,1367.7262547,None,,,,,,,,,,,,,,,,,sleep,121,55,sing,new,null,1365.0820700000004,None,1365.0820700000004,None,1,1.284392200000184,1365.0820700000004,None,1.284392200000184,1366.3927550999997,None,1366.8964165999996,None,1366.8964165999996,None,n,0.8140577000003759,1366.8964165999996,None,0.8140577000003759,,,133,001,2023_Sep_28_1313,ProdSingRedoBetween,2021.2.3,59.93263571743291,
,,,,55,0,55,0,,,,,,,,,,,,,,,,,,,,,,1370.8484313999998,None,,,,,,,,,,,,,,,,,fashion,127,56,sing,new,null,1368.2370005000002,None,1368.2370005000002,None,1,1.3454528000002028,1368.2370005000002,None,1.3454528000002028,1369.6123293,None,1370.1173761999999,None,1370.1173761999999,None,n,0.7130294999997204,1370.1173761999999,None,0.7130294999997204,,,133,001,2023_Sep_28_1313,ProdSingRedoBetween,2021.2.3,59.93263571743291,
,,,,56,0,56,0,,,,,,,,,,,,,,,,,,,,,,1374.1492802000002,None,,,,,,,,,,,,,,,,,opening,22,57,sing,old,yellow,1371.3751891000002,None,1371.3751891000002,None,1,1.3673335000003135,1371.3751891000002,None,1.3673335000003135,1372.7693774,None,1373.2870990000001,None,1373.2870990000001,None,n,0.8314861999997447,1373.2870990000001,None,0.8314861999997447,,,133,001,2023_Sep_28_1313,ProdSingRedoBetween,2021.2.3,59.93263571743291,
,,,,57,0,57,0,,,,,,,,,,,,,,,,,,,,,,1377.2709044000003,None,,,,,,,,,,,,,,,,,blind,145,58,sing,new,null,1374.6540671000002,None,1374.6540671000002,None,1,1.2643346000004385,1374.6540671000002,None,1.2643346000004385,1375.9370571999998,None,1376.4517802,None,1376.4517802,None,n,0.7947419000001901,1376.4517802,None,0.7947419000001901,,,133,001,2023_Sep_28_1313,ProdSingRedoBetween,2021.2.3,59.93263571743291,
,,,,58,0,58,0,,,,,,,,,,,,,,,,,,,,,,1381.4900152999999,None,,,,,,,,,,,,,,,,,short,64,59,sing,old,red,1377.7915113,None,1377.7915113,None,6,2.5989449999997305,1377.7915113,None,2.5989449999997305,1380.4078585999996,None,1380.9229287999997,None,1380.9229287999997,None,r,0.5395411999998032,1380.9229287999997,None,0.5395411999998032,,,133,001,2023_Sep_28_1313,ProdSingRedoBetween,2021.2.3,59.93263571743291,
,,,,59,0,59,0,,,,,,,,,,,,,,,,,,,,,,1384.8934440000003,None,,,,,,,,,,,,,,,,,title,171,60,sing,new,null,1381.9914740000004,None,1381.9914740000004,None,1,1.6390380000002551,1381.9914740000004,None,1.6390380000002551,1383.6616714000002,None,1384.1775472,None,1384.1775472,None,n,0.6848815000003015,1384.1775472,None,0.6848815000003015,,,133,001,2023_Sep_28_1313,ProdSingRedoBetween,2021.2.3,59.93263571743291,
,,,,60,0,60,0,,,,,,,,,,,,,,,,,,,,,,1388.4303009000005,None,,,,,,,,,,,,,,,,,beginning,75,61,sing,old,red,1385.3952264999998,None,1385.3952264999998,None,6,1.9712398000001485,1385.3952264999998,None,1.9712398000001485,1387.3959524000002,None,1387.9000959000005,None,1387.9000959000005,None,r,0.5143115000000762,1387.9000959000005,None,0.5143115000000762,,,133,001,2023_Sep_28_1313,ProdSingRedoBetween,2021.2.3,59.93263571743291,
,,,,61,0,61,0,,,,,,,,,,,,,,,,,,,,,,1391.3666958000003,None,,,,,,,,,,,,,,,,,beauty,36,62,sing,old,blue,1388.9355586000001,None,1388.9355586000001,None,1,1.4309996000001775,1388.9355586000001,None,1.4309996000001775,1390.3892337999996,None,1390.9030199,None,1390.9030199,None,n,0.43951279999964754,1390.9030199,None,0.43951279999964754,,,133,001,2023_Sep_28_1313,ProdSingRedoBetween,2021.2.3,59.93263571743291,
,,,,62,0,62,0,,,,,,,,,,,,,,,,,,,,,,1397.6748428,None,,,,,,,,,,,,,,,,,subject,33,63,sing,old,blue,1391.8906456000004,None,1391.8906456000004,None,3,4.899870600000213,1391.8906456000004,None,4.899870600000213,1396.8125165000001,None,1397.3304527,None,1397.3304527,None,f,0.3160402999992584,1397.3304527,None,0.3160402999992584,,,133,001,2023_Sep_28_1313,ProdSingRedoBetween,2021.2.3,59.93263571743291,
,,,,63,0,63,0,,,,,,,,,,,,,,,,,,,,,,1404.4796299999998,None,,,,,,,,,,,,,,,,,track,52,64,sing,old,blue,1398.1977720000004,None,1398.1977720000004,None,4,5.3688498999999865,1398.1977720000004,None,5.3688498999999865,1403.6010847999996,None,1404.1127150000002,None,1404.1127150000002,None,f,0.34171990000049846,1404.1127150000002,None,0.34171990000049846,,,133,001,2023_Sep_28_1313,ProdSingRedoBetween,2021.2.3,59.93263571743291,
,,,,64,0,64,0,,,,,,,,,,,,,,,,,,,,,,1407.5834304999998,None,,,,,,,,,,,,,,,,,write,169,65,sing,new,null,1404.9911801999997,None,1404.9911801999997,None,1,1.2552224999999453,1404.9911801999997,None,1.2552224999999453,1406.2696121,None,1406.7881139,None,1406.7881139,None,n,0.7785007000002224,1406.7881139,None,0.7785007000002224,,,133,001,2023_Sep_28_1313,ProdSingRedoBetween,2021.2.3,59.93263571743291,
,,,,65,0,65,0,,,,,,,,,,,,,,,,,,,,,,1412.9233669000005,None,,,,,,,,,,,,,,,,,captain,40,66,sing,old,blue,1408.0918115000004,None,1408.0918115000004,None,1,1.3466263000000254,1408.0918115000004,None,1.3466263000000254,1409.4689317000002,None,1409.9746787000004,None,1409.9746787000004,None,n,2.9278450000001612,1409.9746787000004,None,2.9278450000001612,,,133,001,2023_Sep_28_1313,ProdSingRedoBetween,2021.2.3,59.93263571743291,
,,,,66,0,66,0,,,,,,,,,,,,,,,,,,,,,,1420.2006779000003,None,,,,,,,,,,,,,,,,,service,125,67,sing,new,null,1413.4606744000002,None,1413.4606744000002,None,4,5.833822399999917,1413.4606744000002,None,5.833822399999917,1419.3245072,None,1419.8356967,None,1419.8356967,None,f,0.33078629999999976,1419.8356967,None,0.33078629999999976,,,133,001,2023_Sep_28_1313,ProdSingRedoBetween,2021.2.3,59.93263571743291,
,,,,67,0,67,0,,,,,,,,,,,,,,,,,,,,,,1423.2983757000002,None,,,,,,,,,,,,,,,,,disease,110,68,sing,new,null,1420.7148144000003,None,1420.7148144000003,None,1,1.179764200000136,1420.7148144000003,None,1.179764200000136,1421.9229561000002,None,1422.4313820999996,None,1422.4313820999996,None,n,0.8390349999999671,1422.4313820999996,None,0.8390349999999671,,,133,001,2023_Sep_28_1313,ProdSingRedoBetween,2021.2.3,59.93263571743291,
,,,,68,0,68,0,,,,,,,,,,,,,,,,,,,,,,1428.3869082,None,,,,,,,,,,,,,,,,,institute,153,69,sing,new,null,1423.8093822,None,1423.8093822,None,1,3.6690833000002385,1423.8093822,None,3.6690833000002385,1427.5085208,None,1428.0199028999996,None,1428.0199028999996,None,n,0.3465530999992552,1428.0199028999996,None,0.3465530999992552,,,133,001,2023_Sep_28_1313,ProdSingRedoBetween,2021.2.3,59.93263571743291,
,,,,69,0,69,0,,,,,,,,,,,,,,,,,,,,,,1431.3895334,None,,,,,,,,,,,,,,,,,minor,87,70,sing,old,red,1428.9018939999996,None,1428.9018939999996,None,6,1.5524056000003839,1428.9018939999996,None,1.5524056000003839,1430.4733889999998,None,1430.9867751000002,None,1430.9867751000002,None,r,0.37952320000022155,1430.9867751000002,None,0.37952320000022155,,,133,001,2023_Sep_28_1313,ProdSingRedoBetween,2021.2.3,59.93263571743291,
,,,,70,0,70,0,,,,,,,,,,,,,,,,,,,,,,1436.6785323000004,None,,,,,,,,,,,,,,,,,block,124,71,sing,new,null,1431.910551,None,1431.910551,None,1,3.8797826999998506,1431.910551,None,3.8797826999998506,1435.8121680000004,None,1436.3115350999997,None,1436.3115350999997,None,n,0.3429159000006621,1436.3115350999997,None,0.3429159000006621,,,133,001,2023_Sep_28_1313,ProdSingRedoBetween,2021.2.3,59.93263571743291,
,,,,71,0,71,0,,,,,,,,,,,,,,,,,,,,,,1444.1213218000003,None,,,,,,,,,,,,,,,,,council,76,72,sing,old,red,1437.1804854000002,None,1437.1804854000002,None,4,5.713987300000554,1437.1804854000002,None,5.713987300000554,1442.9219919999996,None,1443.4371848,None,1443.4371848,None,f,0.6573227999997471,1443.4371848,None,0.6573227999997471,,,133,001,2023_Sep_28_1313,ProdSingRedoBetween,2021.2.3,59.93263571743291,
,,,,72,0,72,0,,,,,,,,,,,,,,,,,,,,,,1446.9886574000002,None,,,,,,,,,,,,,,,,,figure,146,73,sing,new,null,1444.6430805999998,None,1444.6430805999998,None,1,1.2993544999999358,1444.6430805999998,None,1.2993544999999358,1445.9740885,None,1446.493555,None,1446.493555,None,n,0.4648197999995318,1446.493555,None,0.4648197999995318,,,133,001,2023_Sep_28_1313,ProdSingRedoBetween,2021.2.3,59.93263571743291,
,,,,73,0,73,0,,,,,,,,,,,,,,,,,,,,,,1452.0101977000004,None,,,,,,,,,,,,,,,,,accident,66,74,sing,old,red,1447.4979417000004,None,1447.4979417000004,None,4,3.6763815999993312,1447.4979417000004,None,3.6763815999993312,1451.1956342000003,None,1451.7167503,None,1451.7167503,None,f,0.26560519999929966,1451.7167503,None,0.26560519999929966,,,133,001,2023_Sep_28_1313,ProdSingRedoBetween,2021.2.3,59.93263571743291,
,,,,74,0,74,0,,,,,,,,,,,,,,,,,,,,,,1457.3988138000004,None,,,,,,,,,,,,,,,,,provision,77,75,sing,old,red,1452.5231043000003,None,1452.5231043000003,None,2,3.1953787000002194,1452.5231043000003,None,3.1953787000002194,1455.757095,None,1456.2717912999997,None,1456.2717912999997,None,n,1.1025775999996767,1456.2717912999997,None,1.1025775999996767,,,133,001,2023_Sep_28_1313,ProdSingRedoBetween,2021.2.3,59.93263571743291,
,,,,75,0,75,0,,,,,,,,,,,,,,,,,,,,,,1469.1788708000004,None,,,,,,,,,,,,,,,,,edition,62,76,sing,old,red,1457.8996751000004,None,1457.8996751000004,None,2,9.530727299999853,1457.8996751000004,None,9.530727299999853,1467.4637161,None,1467.9764518000002,None,1467.9764518000002,None,n,1.1822200000005978,1467.9764518000002,None,1.1822200000005978,,,133,001,2023_Sep_28_1313,ProdSingRedoBetween,2021.2.3,59.93263571743291,
,,,,76,0,76,0,,,,,,,,,,,,,,,,,,,,,,1472.1469967000003,None,,,,,,,,,,,,,,,,,prime,142,77,sing,new,null,1469.6810317,None,1469.6810317,None,1,1.509334299999864,1469.6810317,None,1.509334299999864,1471.2141412,None,1471.7135071000002,None,1471.7135071000002,None,n,0.40495389999978215,1471.7135071000002,None,0.40495389999978215,,,133,001,2023_Sep_28_1313,ProdSingRedoBetween,2021.2.3,59.93263571743291,
,,,,77,0,77,0,,,,,,,,,,,,,,,,,,,,,,1475.3336439000004,None,,,,,,,,,,,,,,,,,straight,65,78,sing,old,red,1472.6534326,None,1472.6534326,None,1,1.7289794999996957,1472.6534326,None,1.7289794999996957,1474.4078117999998,None,1474.9189705,None,1474.9189705,None,n,0.3834102000000712,1474.9189705,None,0.3834102000000712,,,133,001,2023_Sep_28_1313,ProdSingRedoBetween,2021.2.3,59.93263571743291,
,,,,78,0,78,0,,,,,,,,,,,,,,,,,,,,,,1477.8027283000001,None,,,,,,,,,,,,,,,,,smooth,170,79,sing,new,null,1475.8443027000003,None,1475.8443027000003,None,1,1.2183310000000347,1475.8443027000003,None,1.2183310000000347,1477.0935165,None,1477.6085461000002,None,1477.6085461000002,None,n,0.1737742999994225,1477.6085461000002,None,0.1737742999994225,,,133,001,2023_Sep_28_1313,ProdSingRedoBetween,2021.2.3,59.93263571743291,
,,,,79,0,79,0,,,,,,,,,,,,,,,,,,,,,,1480.5910845999997,None,,,,,,,,,,,,,,,,,leader,99,80,sing,new,null,1478.3137238999998,None,1478.3137238999998,None,1,1.5646606000000247,1478.3137238999998,None,1.5646606000000247,1479.9126440999999,None,1480.4222682999998,None,1480.4222682999998,None,n,0.13610330000028625,1480.4222682999998,None,0.13610330000028625,,,133,001,2023_Sep_28_1313,ProdSingRedoBetween,2021.2.3,59.93263571743291,
,,,,80,0,80,0,,,,,,,,,,,,,,,,,,,,,,1484.6647160000002,None,,,,,,,,,,,,,,,,,history,178,81,sing,new,null,1481.1131238999997,None,1481.1131238999997,None,1,1.1973673000002236,1481.1131238999997,None,1.1973673000002236,1482.3463539000004,None,1482.8611025999999,None,1482.8611025999999,None,n,1.777356200000213,1482.8611025999999,None,1.777356200000213,,,133,001,2023_Sep_28_1313,ProdSingRedoBetween,2021.2.3,59.93263571743291,
,,,,81,0,81,0,,,,,,,,,,,,,,,,,,,,,,1487.6793779,None,,,,,,,,,,,,,,,,,growth,151,82,sing,new,null,1485.1914827,None,1485.1914827,None,1,1.4229110000005676,1485.1914827,None,1.4229110000005676,1486.6505401000004,None,1487.1622556000002,None,1487.1622556000002,None,n,0.5000905999995666,1487.1622556000002,None,0.5000905999995666,,,133,001,2023_Sep_28_1313,ProdSingRedoBetween,2021.2.3,59.93263571743291,
,,,,82,0,82,0,,,,,,,,,,,,,,,,,,,,,,1490.4333284000004,None,,,,,,,,,,,,,,,,,enemy,131,83,sing,new,null,1488.1928337,None,1488.1928337,None,1,1.2055710000004183,1488.1928337,None,1.2055710000004183,1489.4251752,None,1489.9315238,None,1489.9315238,None,n,0.4748884000000544,1489.9315238,None,0.4748884000000544,,,133,001,2023_Sep_28_1313,ProdSingRedoBetween,2021.2.3,59.93263571743291,
,,,,83,0,83,0,,,,,,,,,,,,,,,,,,,,,,1493.1379900000002,None,,,,,,,,,,,,,,,,,trend,68,84,sing,old,red,1490.9399074000003,None,1490.9399074000003,None,1,1.2824165000001813,1490.9399074000003,None,1.2824165000001813,1492.2505511,None,1492.7601273999999,None,1492.7601273999999,None,n,0.3583896000000095,1492.7601273999999,None,0.3583896000000095,,,133,001,2023_Sep_28_1313,ProdSingRedoBetween,2021.2.3,59.93263571743291,
,,,,84,0,84,0,,,,,,,,,,,,,,,,,,,,,,1497.5892409999997,None,,,,,,,,,,,,,,,,,income,130,85,sing,new,null,1493.6590648000001,None,1493.6590648000001,None,1,3.011192900000424,1493.6590648000001,None,3.011192900000424,1496.6911252999998,None,1497.2090062999996,None,1497.2090062999996,None,n,0.36535099999946397,1497.2090062999996,None,0.36535099999946397,,,133,001,2023_Sep_28_1313,ProdSingRedoBetween,2021.2.3,59.93263571743291,
,,,,85,0,85,0,,,,,,,,,,,,,,,,,,,,,,1500.725735,None,,,,,,,,,,,,,,,,,under,23,86,sing,old,yellow,1498.0947267000001,None,1498.0947267000001,None,1,1.8396996999999828,1498.0947267000001,None,1.8396996999999828,1499.9629916000004,None,1500.4826678999998,None,1500.4826678999998,None,n,0.22769329999937327,1500.4826678999998,None,0.22769329999937327,,,133,001,2023_Sep_28_1313,ProdSingRedoBetween,2021.2.3,59.93263571743291,
,,,,86,0,86,0,,,,,,,,,,,,,,,,,,,,,,1505.4971112000003,None,,,,,,,,,,,,,,,,,majority,27,87,sing,old,yellow,1501.243743,None,1501.243743,None,2,3.3785735999999815,1501.243743,None,3.3785735999999815,1504.6504825000002,None,1505.1635204000004,None,1505.1635204000004,None,n,0.3068010000006325,1505.1635204000004,None,0.3068010000006325,,,133,001,2023_Sep_28_1313,ProdSingRedoBetween,2021.2.3,59.93263571743291,
,,,,87,0,87,0,,,,,,,,,,,,,,,,,,,,,,1508.2497673999997,None,,,,,,,,,,,,,,,,,judge,165,88,sing,new,null,1506.0105535000002,None,1506.0105535000002,None,1,1.4918501000001925,1506.0105535000002,None,1.4918501000001925,1507.5348370000002,None,1508.0534857000002,None,1508.0534857000002,None,n,0.16886390000036045,1508.0534857000002,None,0.16886390000036045,,,133,001,2023_Sep_28_1313,ProdSingRedoBetween,2021.2.3,59.93263571743291,
,,,,88,0,88,0,,,,,,,,,,,,,,,,,,,,,,1510.9023168000003,None,,,,,,,,,,,,,,,,,device,85,89,sing,old,red,1508.7591117000002,None,1508.7591117000002,None,1,1.3192798000000039,1508.7591117000002,None,1.3192798000000039,1510.1078539999999,None,1510.6231342,None,1510.6231342,None,n,0.25515829999949347,1510.6231342,None,0.25515829999949347,,,133,001,2023_Sep_28_1313,ProdSingRedoBetween,2021.2.3,59.93263571743291,
,,,,89,0,89,0,,,,,,,,,,,,,,,,,,,,,,1513.6909438000002,None,,,,,,,,,,,,,,,,,charter,69,90,sing,old,red,1511.4091455999996,None,1511.4091455999996,None,1,1.3811302000003707,1511.4091455999996,None,1.3811302000003707,1512.8228669999999,None,1513.3446021999998,None,1513.3446021999998,None,n,0.31774290000066685,1513.3446021999998,None,0.31774290000066685,,,133,001,2023_Sep_28_1313,ProdSingRedoBetween,2021.2.3,59.93263571743291,
,,,,90,0,90,0,,,,,,,,,,,,,,,,,,,,,,1519.0121952999998,None,,,,,,,,,,,,,,,,,course,55,91,sing,old,blue,1514.2180982999998,None,1514.2180982999998,None,5,3.8123045000002094,1514.2180982999998,None,3.8123045000002094,1518.0707681000004,None,1518.5767923000003,None,1518.5767923000003,None,f,0.4136160000007294,1518.5767923000003,None,0.4136160000007294,,,133,001,2023_Sep_28_1313,ProdSingRedoBetween,2021.2.3,59.93263571743291,
,,,,91,0,91,0,,,,,,,,,,,,,,,,,,,,,,1522.4788779,None,,,,,,,,,,,,,,,,,month,53,92,sing,old,blue,1519.5339814,None,1519.5339814,None,1,1.688410899999326,1519.5339814,None,1.688410899999326,1521.2523527000003,None,1521.7631454000002,None,1521.7631454000002,None,n,0.6752693999997064,1521.7631454000002,None,0.6752693999997064,,,133,001,2023_Sep_28_1313,ProdSingRedoBetween,2021.2.3,59.93263571743291,
,,,,92,0,92,0,,,,,,,,,,,,,,,,,,,,,,1526.5013946,None,,,,,,,,,,,,,,,,,watch,4,93,sing,old,yellow,1522.9932841,None,1522.9932841,None,4,2.7890393999996377,1522.9932841,None,2.7890393999996377,1525.8057393999998,None,1526.3180547000002,None,1526.3180547000002,None,f,0.16030200000022887,1526.3180547000002,None,0.16030200000022887,,,133,001,2023_Sep_28_1313,ProdSingRedoBetween,2021.2.3,59.93263571743291,
,,,,93,0,93,0,,,,,,,,,,,,,,,,,,,,,,1532.9412119999997,None,,,,,,,,,,,,,,,,,bureau,31,94,sing,old,blue,1527.0038974,None,1527.0038974,None,6,5.026418299999932,1527.0038974,None,5.026418299999932,1532.0616563000003,None,1532.5762164999996,None,1532.5762164999996,None,r,0.342047599999205,1532.5762164999996,None,0.342047599999205,,,133,001,2023_Sep_28_1313,ProdSingRedoBetween,2021.2.3,59.93263571743291,
,,,,94,0,94,0,,,,,,,,,,,,,,,,,,,,,,1536.3134464000004,None,,,,,,,,,,,,,,,,,defeat,129,95,sing,new,null,1533.4519102000004,None,1533.4519102000004,None,1,2.082376600000316,1533.4519102000004,None,2.082376600000316,1535.5667866000003,None,1536.0777576,None,1536.0777576,None,n,0.21654799999942043,1536.0777576,None,0.21654799999942043,,,133,001,2023_Sep_28_1313,ProdSingRedoBetween,2021.2.3,59.93263571743291,
,,,,95,0,95,0,,,,,,,,,,,,,,,,,,,,,,1540.9825410000003,None,,,,,,,,,,,,,,,,,discussion,71,96,sing,old,red,1536.8456157,None,1536.8456157,None,4,3.5127283000001626,1536.8456157,None,3.5127283000001626,1540.3910298,None,1540.9005925000001,None,1540.9005925000001,None,f,0.05779919999986305,1540.9005925000001,None,0.05779919999986305,,,133,001,2023_Sep_28_1313,ProdSingRedoBetween,2021.2.3,59.93263571743291,
,,,,96,0,96,0,,,,,,,,,,,,,,,,,,,,,,1543.9020886999997,None,,,,,,,,,,,,,,,,,conference,179,97,sing,new,null,1541.4951355000003,None,1541.4951355000003,None,1,1.5273469000003388,1541.4951355000003,None,1.5273469000003388,1543.0622479000003,None,1543.5711973999996,None,1543.5711973999996,None,n,0.3151756999995996,1543.5711973999996,None,0.3151756999995996,,,133,001,2023_Sep_28_1313,ProdSingRedoBetween,2021.2.3,59.93263571743291,
,,,,97,0,97,0,,,,,,,,,,,,,,,,,,,,,,1546.8550819000002,None,,,,,,,,,,,,,,,,,fellow,30,98,sing,old,blue,1544.4132563000003,None,1544.4132563000003,None,1,1.3290422000000035,1544.4132563000003,None,1.3290422000000035,1545.7714613999997,None,1546.2761174999996,None,1546.2761174999996,None,n,0.5621098000001439,1546.2761174999996,None,0.5621098000001439,,,133,001,2023_Sep_28_1313,ProdSingRedoBetween,2021.2.3,59.93263571743291,
,,,,98,0,98,0,,,,,,,,,,,,,,,,,,,,,,1549.4910264999999,None,,,,,,,,,,,,,,,,,broke,167,99,sing,new,null,1547.358674,None,1547.358674,None,1,1.1516529999998966,1547.358674,None,1.1516529999998966,1548.5448063000003,None,1549.0596849000003,None,1549.0596849000003,None,n,0.41061619999982213,1549.0596849000003,None,0.41061619999982213,,,133,001,2023_Sep_28_1313,ProdSingRedoBetween,2021.2.3,59.93263571743291,
,,,,99,0,99,0,,,,,,,,,,,,,,,,,,,,,,1552.2770852000003,None,,,,,,,,,,,,,,,,,fight,19,100,sing,old,yellow,1550.0010300000004,None,1550.0010300000004,None,1,1.2852781999999934,1550.0010300000004,None,1.2852781999999934,1551.3119496999998,None,1551.8264827000003,None,1551.8264827000003,None,n,0.4357804000001124,1551.8264827000003,None,0.4357804000001124,,,133,001,2023_Sep_28_1313,ProdSingRedoBetween,2021.2.3,59.93263571743291,
,,,,100,0,100,0,,,,,,,,,,,,,,,,,,,,,,1557.2652294999998,None,,,,,,,,,,,,,,,,,committee,60,101,sing,old,red,1552.7864736000001,None,1552.7864736000001,None,3,3.2518700999999055,1552.7864736000001,None,3.2518700999999055,1556.0704644999996,None,1556.5873849,None,1556.5873849,None,n,0.6509186000002956,1556.5873849,None,0.6509186000002956,,,133,001,2023_Sep_28_1313,ProdSingRedoBetween,2021.2.3,59.93263571743291,
,,,,101,0,101,0,,,,,,,,,,,,,,,,,,,,,,1560.3199229000002,None,,,,,,,,,,,,,,,,,surprise,72,102,sing,old,red,1557.7789653,None,1557.7789653,None,6,1.52349680000043,1557.7789653,None,1.52349680000043,1559.3247842,None,1559.8346579999998,None,1559.8346579999998,None,r,0.4677425999998377,1559.8346579999998,None,0.4677425999998377,,,133,001,2023_Sep_28_1313,ProdSingRedoBetween,2021.2.3,59.93263571743291,
,,,,102,0,102,0,,,,,,,,,,,,,,,,,,,,,,1563.9720460999997,None,,,,,,,,,,,,,,,,,property,3,103,sing,old,yellow,1560.8234052999996,None,1560.8234052999996,None,2,2.1747894000000088,1560.8234052999996,None,2.1747894000000088,1563.0241607999997,None,1563.5413975000001,None,1563.5413975000001,None,n,0.40895540000019537,1563.5413975000001,None,0.40895540000019537,,,133,001,2023_Sep_28_1313,ProdSingRedoBetween,2021.2.3,59.93263571743291,
,,,,103,0,103,0,,,,,,,,,,,,,,,,,,,,,,1566.8583040000003,None,,,,,,,,,,,,,,,,,theme,95,104,sing,new,null,1564.4811633,None,1564.4811633,None,1,1.3011138000001665,1564.4811633,None,1.3011138000001665,1565.8072683,None,1566.3117091000004,None,1566.3117091000004,None,n,0.5266320000000633,1566.3117091000004,None,0.5266320000000633,,,133,001,2023_Sep_28_1313,ProdSingRedoBetween,2021.2.3,59.93263571743291,
,,,,104,0,104,0,,,,,,,,,,,,,,,,,,,,,,1569.5977280999996,None,,,,,,,,,,,,,,,,,problem,79,105,sing,old,red,1567.3614864,None,1567.3614864,None,1,1.204734300000382,1567.3614864,None,1.204734300000382,1568.5944179999997,None,1569.1012582000003,None,1569.1012582000003,None,n,0.4732477999996263,1569.1012582000003,None,0.4732477999996263,,,133,001,2023_Sep_28_1313,ProdSingRedoBetween,2021.2.3,59.93263571743291,
,,,,105,0,105,0,,,,,,,,,,,,,,,,,,,,,,1574.0321942,None,,,,,,,,,,,,,,,,,clean,15,106,sing,old,yellow,1570.1158384999999,None,1570.1158384999999,None,5,3.0184086999997817,1570.1158384999999,None,3.0184086999997817,1573.1645902,None,1573.6659535,None,1573.6659535,None,f,0.34824980000030337,1573.6659535,None,0.34824980000030337,,,133,001,2023_Sep_28_1313,ProdSingRedoBetween,2021.2.3,59.93263571743291,
,,,,106,0,106,0,,,,,,,,,,,,,,,,,,,,,,1576.9517458,None,,,,,,,,,,,,,,,,,answer,57,107,sing,old,blue,1574.5359736999999,None,1574.5359736999999,None,1,1.4703525999993872,1574.5359736999999,None,1.4703525999993872,1576.0378176000004,None,1576.5519648999998,None,1576.5519648999998,None,n,0.382303100000172,1576.5519648999998,None,0.382303100000172,,,133,001,2023_Sep_28_1313,ProdSingRedoBetween,2021.2.3,59.93263571743291,
,,,,107,0,107,0,,,,,,,,,,,,,,,,,,,,,,1579.9398078000004,None,,,,,,,,,,,,,,,,,population,176,108,sing,new,null,1577.4617872999997,None,1577.4617872999997,None,1,1.5924545999996553,1577.4617872999997,None,1.5924545999996553,1579.071771,None,1579.5752241999999,None,1579.5752241999999,None,n,0.3350375999998505,1579.5752241999999,None,0.3350375999998505,,,133,001,2023_Sep_28_1313,ProdSingRedoBetween,2021.2.3,59.93263571743291,
,,,,108,0,108,0,,,,,,,,,,,,,,,,,,,,,,1583.9260605,None,,,,,,,,,,,,,,,,,story,80,109,sing,old,red,1580.4715618999999,None,1580.4715618999999,None,4,2.5666700000001583,1580.4715618999999,None,2.5666700000001583,1583.0592055999996,None,1583.5617419,None,1583.5617419,None,f,0.33263979999992443,1583.5617419,None,0.33263979999992443,,,133,001,2023_Sep_28_1313,ProdSingRedoBetween,2021.2.3,59.93263571743291,
,,,,109,0,109,0,,,,,,,,,,,,,,,,,,,,,,1586.5136249999996,None,,,,,,,,,,,,,,,,,light,177,110,sing,new,null,1584.4361164000002,None,1584.4361164000002,None,1,1.194275099999686,1584.4361164000002,None,1.194275099999686,1585.6658718999997,None,1586.1790285999996,None,1586.1790285999996,None,n,0.3073249000008218,1586.1790285999996,None,0.3073249000008218,,,133,001,2023_Sep_28_1313,ProdSingRedoBetween,2021.2.3,59.93263571743291,
,,,,110,0,110,0,,,,,,,,,,,,,,,,,,,,,,1589.6175671,None,,,,,,,,,,,,,,,,,employment,144,111,sing,new,null,1587.0343236999997,None,1587.0343236999997,None,1,1.6518677000003663,1587.0343236999997,None,1.6518677000003663,1588.7145421000005,None,1589.2206935000004,None,1589.2206935000004,None,n,0.3776817999996638,1589.2206935000004,None,0.3776817999996638,,,133,001,2023_Sep_28_1313,ProdSingRedoBetween,2021.2.3,59.93263571743291,
,,,,111,0,111,0,,,,,,,,,,,,,,,,,,,,,,1592.4505848,None,,,,,,,,,,,,,,,,,tough,117,112,sing,new,null,1590.1356005999996,None,1590.1356005999996,None,1,1.502641500000209,1590.1356005999996,None,1.502641500000209,1591.6671158,None,1592.1697898000002,None,1592.1697898000002,None,n,0.25248569999985193,1592.1697898000002,None,0.25248569999985193,,,133,001,2023_Sep_28_1313,ProdSingRedoBetween,2021.2.3,59.93263571743291,
,,,,112,0,112,0,,,,,,,,,,,,,,,,,,,,,,1595.0727968,None,,,,,,,,,,,,,,,,,worker,24,113,sing,old,yellow,1592.9675888000002,None,1592.9675888000002,None,1,1.3665032999997493,1592.9675888000002,None,1.3665032999997493,1594.3534753000004,None,1594.8578041,None,1594.8578041,None,n,0.1965918000005331,1594.8578041,None,0.1965918000005331,,,133,001,2023_Sep_28_1313,ProdSingRedoBetween,2021.2.3,59.93263571743291,
,,,,113,0,113,0,,,,,,,,,,,,,,,,,,,,,,1597.8903002999996,None,,,,,,,,,,,,,,,,,appeal,166,114,sing,new,null,1595.5915109999996,None,1595.5915109999996,None,1,1.5107445000003281,1595.5915109999996,None,1.5107445000003281,1597.1246420999996,None,1597.6391568999998,None,1597.6391568999998,None,n,0.23109999999996944,1597.6391568999998,None,0.23109999999996944,,,133,001,2023_Sep_28_1313,ProdSingRedoBetween,2021.2.3,59.93263571743291,
,,,,114,0,114,0,,,,,,,,,,,,,,,,,,,,,,1600.5418295999998,None,,,,,,,,,,,,,,,,,solution,148,115,sing,new,null,1598.3941242,None,1598.3941242,None,1,1.2360532000002422,1598.3941242,None,1.2360532000002422,1599.6615402999996,None,1600.1790634,None,1600.1790634,None,n,0.33915089999936754,1600.1790634,None,0.33915089999936754,,,133,001,2023_Sep_28_1313,ProdSingRedoBetween,2021.2.3,59.93263571743291,
,,,,115,0,115,0,,,,,,,,,,,,,,,,,,,,,,1606.6980875999998,None,,,,,,,,,,,,,,,,,article,84,116,sing,old,red,1601.0495339,None,1601.0495339,None,6,4.828725500000473,1601.0495339,None,4.828725500000473,1605.8995004999997,None,1606.4159694999998,None,1606.4159694999998,None,r,0.26224229999934323,1606.4159694999998,None,0.26224229999934323,,,133,001,2023_Sep_28_1313,ProdSingRedoBetween,2021.2.3,59.93263571743291,
,,,,116,0,116,0,,,,,,,,,,,,,,,,,,,,,,1609.4508425000004,None,,,,,,,,,,,,,,,,,danger,6,117,sing,old,yellow,1607.2075169999998,None,1607.2075169999998,None,1,1.2948019000004933,1607.2075169999998,None,1.2948019000004933,1608.5393911,None,1609.0544812999997,None,1609.0544812999997,None,n,0.3757240000004458,1609.0544812999997,None,0.3757240000004458,,,133,001,2023_Sep_28_1313,ProdSingRedoBetween,2021.2.3,59.93263571743291,
,,,,117,0,117,0,,,,,,,,,,,,,,,,,,,,,,1612.7040256,None,,,,,,,,,,,,,,,,,tragedy,7,118,sing,old,yellow,1609.9612247000005,None,1609.9612247000005,None,6,1.6849945999992997,1609.9612247000005,None,1.6849945999992997,1611.6727498,None,1612.186984,None,1612.186984,None,r,0.4911836000001131,1612.186984,None,0.4911836000001131,,,133,001,2023_Sep_28_1313,ProdSingRedoBetween,2021.2.3,59.93263571743291,
,,,,118,0,118,0,,,,,,,,,,,,,,,,,,,,,,1615.5235791000005,None,,,,,,,,,,,,,,,,,route,133,119,sing,new,null,1613.2169127999996,None,1613.2169127999996,None,1,1.365572699999575,1613.2169127999996,None,1.365572699999575,1614.6178363,None,1615.1234198000002,None,1615.1234198000002,None,n,0.3709332999997059,1615.1234198000002,None,0.3709332999997059,,,133,001,2023_Sep_28_1313,ProdSingRedoBetween,2021.2.3,59.93263571743291,
,,,,119,0,119,0,,,,,,,,,,,,,,,,,,,,,,1618.2931939999999,None,,,,,,,,,,,,,,,,,primary,128,120,sing,new,null,1616.0383961999996,None,1616.0383961999996,None,1,1.4079091000003245,1616.0383961999996,None,1.4079091000003245,1617.4773555000002,None,1617.9928304000005,None,1617.9928304000005,None,n,0.2693570000001273,1617.9928304000005,None,0.2693570000001273,,,133,001,2023_Sep_28_1313,ProdSingRedoBetween,2021.2.3,59.93263571743291,
,,,,120,0,120,0,,,,,,,,,,,,,,,,,,,,,,1621.4795328999999,None,,,,,,,,,,,,,,,,,science,37,121,sing,old,blue,1618.7988563999997,None,1618.7988563999997,None,6,1.671352399999705,1618.7988563999997,None,1.671352399999705,1620.4964573999996,None,1621.0016871999997,None,1621.0016871999997,None,r,0.4525499999999738,1621.0016871999997,None,0.4525499999999738,,,133,001,2023_Sep_28_1313,ProdSingRedoBetween,2021.2.3,59.93263571743291,
,,,,121,0,121,0,,,,,,,,,,,,,,,,,,,,,,1625.3941347,None,,,,,,,,,,,,,,,,,match,83,122,sing,old,red,1621.9814383000003,None,1621.9814383000003,None,5,2.2247268000000986,1621.9814383000003,None,2.2247268000000986,1624.2322111000003,None,1624.7411806999999,None,1624.7411806999999,None,f,0.6170747999995001,1624.7411806999999,None,0.6170747999995001,,,133,001,2023_Sep_28_1313,ProdSingRedoBetween,2021.2.3,59.93263571743291,
,,,,122,0,122,0,,,,,,,,,,,,,,,,,,,,,,1630.0879187,None,,,,,,,,,,,,,,,,,religion,163,123,sing,new,null,1625.9122938,None,1625.9122938,None,3,2.917878400000518,1625.9122938,None,2.917878400000518,1628.8536806000002,None,1629.3580085000003,None,1629.3580085000003,None,n,0.7041475000005448,1629.3580085000003,None,0.7041475000005448,,,133,001,2023_Sep_28_1313,ProdSingRedoBetween,2021.2.3,59.93263571743291,
,,,,123,0,123,0,,,,,,,,,,,,,,,,,,,,,,1633.5248846000004,None,,,,,,,,,,,,,,,,,present,32,124,sing,old,blue,1630.5991873000003,None,1630.5991873000003,None,6,1.9109871000000567,1630.5991873000003,None,1.9109871000000567,1632.5415384999997,None,1633.0452993,None,1633.0452993,None,r,0.44890790000044944,1633.0452993,None,0.44890790000044944,,,133,001,2023_Sep_28_1313,ProdSingRedoBetween,2021.2.3,59.93263571743291,
,,,,124,0,124,0,,,,,,,,,,,,,,,,,,,,,,1637.2452413,None,,,,,,,,,,,,,,,,,scene,74,125,sing,old,red,1634.0380616000002,None,1634.0380616000002,None,1,1.4081089999999676,1634.0380616000002,None,1.4081089999999676,1635.4776590000001,None,1635.9808626000004,None,1635.9808626000004,None,n,1.2493064000000231,1635.9808626000004,None,1.2493064000000231,,,133,001,2023_Sep_28_1313,ProdSingRedoBetween,2021.2.3,59.93263571743291,
,,,,125,0,125,0,,,,,,,,,,,,,,,,,,,,,,1640.8215867999997,None,,,,,,,,,,,,,,,,,generation,159,126,sing,new,null,1637.7547593999998,None,1637.7547593999998,None,1,1.891392100000303,1637.7547593999998,None,1.891392100000303,1639.6653011999997,None,1640.1743912000002,None,1640.1743912000002,None,n,0.6238136000001759,1640.1743912000002,None,0.6238136000001759,,,133,001,2023_Sep_28_1313,ProdSingRedoBetween,2021.2.3,59.93263571743291,
,,,,126,0,126,0,,,,,,,,,,,,,,,,,,,,,,1644.662295,None,,,,,,,,,,,,,,,,,carry,5,127,sing,old,yellow,1641.3362901,None,1641.3362901,None,6,1.5740173000003779,1641.3362901,None,1.5740173000003779,1642.9417783,None,1643.4515709999996,None,1643.4515709999996,None,r,1.1707042000007277,1643.4515709999996,None,1.1707042000007277,,,133,001,2023_Sep_28_1313,ProdSingRedoBetween,2021.2.3,59.93263571743291,
,,,,127,0,127,0,,,,,,,,,,,,,,,,,,,,,,1649.2585666000004,None,,,,,,,,,,,,,,,,,question,155,128,sing,new,null,1645.1850530000002,None,1645.1850530000002,None,3,2.509137799999735,1645.1850530000002,None,2.509137799999735,1647.7236318000005,None,1648.2305454999996,None,1648.2305454999996,None,n,0.9996135000001232,1648.2305454999996,None,0.9996135000001232,,,133,001,2023_Sep_28_1313,ProdSingRedoBetween,2021.2.3,59.93263571743291,
,,,,128,0,128,0,,,,,,,,,,,,,,,,,,,,,,1653.111124,None,,,,,,,,,,,,,,,,,quantity,41,129,sing,old,blue,1649.7759581,None,1649.7759581,None,6,2.4862109999994573,1649.7759581,None,2.4862109999994573,1652.2785303,None,1652.7848382000002,None,1652.7848382000002,None,r,0.3093166000007841,1652.7848382000002,None,0.3093166000007841,,,133,001,2023_Sep_28_1313,ProdSingRedoBetween,2021.2.3,59.93263571743291,
,,,,129,0,129,0,,,,,,,,,,,,,,,,,,,,,,1656.7341844000002,None,,,,,,,,,,,,,,,,,break,160,130,sing,new,null,1653.6192732,None,1653.6192732,None,4,1.9548764999999548,1653.6192732,None,1.9548764999999548,1655.5979502,None,1656.1011921,None,1656.1011921,None,n,0.6092256000001726,1656.1011921,None,0.6092256000001726,,,133,001,2023_Sep_28_1313,ProdSingRedoBetween,2021.2.3,59.93263571743291,
,,,,130,0,130,0,,,,,,,,,,,,,,,,,,,,,,1661.570893,None,,,,,,,,,,,,,,,,,color,93,131,sing,new,null,1657.2487271,None,1657.2487271,None,1,2.181494399999792,1657.2487271,None,2.181494399999792,1659.4539242,None,1659.9696092000004,None,1659.9696092000004,None,n,1.580578200000673,1659.9696092000004,None,1.580578200000673,,,133,001,2023_Sep_28_1313,ProdSingRedoBetween,2021.2.3,59.93263571743291,
,,,,131,0,131,0,,,,,,,,,,,,,,,,,,,,,,1664.7060483000005,None,,,,,,,,,,,,,,,,,region,175,132,sing,new,null,1662.0799723,None,1662.0799723,None,1,1.6941814000001614,1662.0799723,None,1.6941814000001614,1663.8071458000004,None,1664.3223957,None,1664.3223957,None,n,0.3638076999995974,1664.3223957,None,0.3638076999995974,,,133,001,2023_Sep_28_1313,ProdSingRedoBetween,2021.2.3,59.93263571743291,
,,,,132,0,132,0,,,,,,,,,,,,,,,,,,,,,,1667.4753603,None,,,,,,,,,,,,,,,,,mankind,59,133,sing,old,yellow,1665.2105307000002,None,1665.2105307000002,None,6,1.3076740999995309,1665.2105307000002,None,1.3076740999995309,1666.5469661999996,None,1667.0621559,None,1667.0621559,None,r,0.3920407999994495,1667.0621559,None,0.3920407999994495,,,133,001,2023_Sep_28_1313,ProdSingRedoBetween,2021.2.3,59.93263571743291,
,,,,133,0,133,0,,,,,,,,,,,,,,,,,,,,,,1672.7347455,None,,,,,,,,,,,,,,,,,passage,9,134,sing,old,yellow,1667.9839043000002,None,1667.9839043000002,None,4,3.150468799999544,1667.9839043000002,None,3.150468799999544,1671.1688600999996,None,1671.6891174000002,None,1671.6891174000002,None,f,1.0209254000001238,1671.6891174000002,None,1.0209254000001238,,,133,001,2023_Sep_28_1313,ProdSingRedoBetween,2021.2.3,59.93263571743291,
,,,,134,0,134,0,,,,,,,,,,,,,,,,,,,,,,1679.8375501,None,,,,,,,,,,,,,,,,,court,107,135,sing,new,null,1673.2540466,None,1673.2540466,None,5,5.360081699999682,1673.2540466,None,5.360081699999682,1678.6363521000003,None,1679.1423535000004,None,1679.1423535000004,None,f,0.6640262000000803,1679.1423535000004,None,0.6640262000000803,,,133,001,2023_Sep_28_1313,ProdSingRedoBetween,2021.2.3,59.93263571743291,
,,,,135,0,135,0,,,,,,,,,,,,,,,,,,,,,,1683.9083326999998,None,,,,,,,,,,,,,,,,,raise,67,136,sing,old,red,1680.3474328000002,None,1680.3474328000002,None,3,1.9867549000000508,1680.3474328000002,None,1.9867549000000508,1682.3619442999998,None,1682.881499,None,1682.881499,None,n,1.0046787999999651,1682.881499,None,1.0046787999999651,,,133,001,2023_Sep_28_1313,ProdSingRedoBetween,2021.2.3,59.93263571743291,
,,,,136,0,136,0,,,,,,,,,,,,,,,,,,,,,,1686.9448614000003,None,,,,,,,,,,,,,,,,,escape,114,137,sing,new,null,1684.4172686000002,None,1684.4172686000002,None,1,1.4368525999998383,1684.4172686000002,None,1.4368525999998383,1685.8783165000004,None,1686.38328,None,1686.38328,None,n,0.5347797000003993,1686.38328,None,0.5347797000003993,,,133,001,2023_Sep_28_1313,ProdSingRedoBetween,2021.2.3,59.93263571743291,
,,,,137,0,137,0,,,,,,,,,,,,,,,,,,,,,,1689.8811169,None,,,,,,,,,,,,,,,,,phrase,81,138,sing,old,red,1687.4527513000003,None,1687.4527513000003,None,1,1.6173336000001655,1687.4527513000003,None,1.6173336000001655,1689.1007643000003,None,1689.6179333,None,1689.6179333,None,n,0.236135899999681,1689.6179333,None,0.236135899999681,,,133,001,2023_Sep_28_1313,ProdSingRedoBetween,2021.2.3,59.93263571743291,
,,,,138,0,138,0,,,,,,,,,,,,,,,,,,,,,,1692.4336833999996,None,,,,,,,,,,,,,,,,,welcome,137,139,sing,new,null,1690.3954767000005,None,1690.3954767000005,None,1,1.3147234999996726,1690.3954767000005,None,1.3147234999996726,1691.7386617000002,None,1692.2520664000003,None,1692.2520664000003,None,n,0.16205420000005688,1692.2520664000003,None,0.16205420000005688,,,133,001,2023_Sep_28_1313,ProdSingRedoBetween,2021.2.3,59.93263571743291,
,,,,139,0,139,0,,,,,,,,,,,,,,,,,,,,,,1696.1712653000004,None,,,,,,,,,,,,,,,,,silence,48,140,sing,old,blue,1692.9413072999996,None,1692.9413072999996,None,3,2.0090781000008064,1692.9413072999996,None,2.0090781000008064,1694.9792423,None,1695.4881409,None,1695.4881409,None,n,0.65405439999995,1695.4881409,None,0.65405439999995,,,133,001,2023_Sep_28_1313,ProdSingRedoBetween,2021.2.3,59.93263571743291,
,,,,140,0,140,0,,,,,,,,,,,,,,,,,,,,,,1699.9411003000005,None,,,,,,,,,,,,,,,,,weather,157,141,sing,new,null,1696.6820211000004,None,1696.6820211000004,None,5,2.2840887000002112,1696.6820211000004,None,2.2840887000002112,1698.9912365,None,1699.4966131,None,1699.4966131,None,f,0.42959220000011555,1699.4966131,None,0.42959220000011555,,,133,001,2023_Sep_28_1313,ProdSingRedoBetween,2021.2.3,59.93263571743291,
,,,,141,0,141,0,,,,,,,,,,,,,,,,,,,,,,1703.3112033999996,None,,,,,,,,,,,,,,,,,exchange,35,142,sing,old,blue,1700.4521817000004,None,1700.4521817000004,None,3,1.985957199999575,1700.4521817000004,None,1.985957199999575,1702.4614591999998,None,1702.9608193000004,None,1702.9608193000004,None,n,0.32546199999978853,1702.9608193000004,None,0.32546199999978853,,,133,001,2023_Sep_28_1313,ProdSingRedoBetween,2021.2.3,59.93263571743291,
,,,,142,0,142,0,,,,,,,,,,,,,,,,,,,,,,1706.9028116999998,None,,,,,,,,,,,,,,,,,strength,96,143,sing,new,null,1703.8270506999997,None,1703.8270506999997,None,3,2.195289600000251,1703.8270506999997,None,2.195289600000251,1706.0549601000002,None,1706.5657090000004,None,1706.5657090000004,None,n,0.30459869999958755,1706.5657090000004,None,0.30459869999958755,,,133,001,2023_Sep_28_1313,ProdSingRedoBetween,2021.2.3,59.93263571743291,
,,,,143,0,143,0,,,,,,,,,,,,,,,,,,,,,,1709.7342006,None,,,,,,,,,,,,,,,,,period,49,144,sing,old,blue,1707.4271522,None,1707.4271522,None,6,1.2909600000002683,1707.4271522,None,1.2909600000002683,1708.7382298000002,None,1709.2583192000002,None,1709.2583192000002,None,r,0.45980779999990773,1709.2583192000002,None,0.45980779999990773,,,133,001,2023_Sep_28_1313,ProdSingRedoBetween,2021.2.3,59.93263571743291,
,,,,144,0,144,0,,,,,,,,,,,,,,,,,,,,,,1712.3034909999997,None,,,,,,,,,,,,,,,,,crime,161,145,sing,new,null,1710.2493133999997,None,1710.2493133999997,None,1,1.3328060999992886,1710.2493133999997,None,1.3328060999992886,1711.6051620999997,None,1712.1200353000004,None,1712.1200353000004,None,n,0.16619150000042282,1712.1200353000004,None,0.16619150000042282,,,133,001,2023_Sep_28_1313,ProdSingRedoBetween,2021.2.3,59.93263571743291,
,,,,145,0,145,0,,,,,,,,,,,,,,,,,,,,,,1717.3602073000002,None,,,,,,,,,,,,,,,,,signal,78,146,sing,old,red,1712.8213329,None,1712.8213329,None,5,2.408814600000369,1712.8213329,None,2.408814600000369,1715.2623019000002,None,1715.7737594,None,1715.7737594,None,f,1.5685555000000022,1715.7737594,None,1.5685555000000022,,,133,001,2023_Sep_28_1313,ProdSingRedoBetween,2021.2.3,59.93263571743291,
,,,,146,0,146,0,,,,,,,,,,,,,,,,,,,,,,1722.7139083000002,None,,,,,,,,,,,,,,,,,heavy,29,147,sing,old,blue,1717.8812574000003,None,1717.8812574000003,None,1,1.4208473999997295,1717.8812574000003,None,1.4208473999997295,1719.3287282000001,None,1719.8325433999998,None,1719.8325433999998,None,n,2.861579100000199,1719.8325433999998,None,2.861579100000199,,,133,001,2023_Sep_28_1313,ProdSingRedoBetween,2021.2.3,59.93263571743291,
,,,,147,0,147,0,,,,,,,,,,,,,,,,,,,,,,1729.0726475000001,None,,,,,,,,,,,,,,,,,touch,12,148,sing,old,yellow,1723.2265638999997,None,1723.2265638999997,None,1,4.819516000000476,1723.2265638999997,None,4.819516000000476,1728.0691892000004,None,1728.5725037000002,None,1728.5725037000002,None,n,0.48148810000020603,1728.5725037000002,None,0.48148810000020603,,,133,001,2023_Sep_28_1313,ProdSingRedoBetween,2021.2.3,59.93263571743291,
,,,,148,0,148,0,,,,,,,,,,,,,,,,,,,,,,1731.8911557000001,None,,,,,,,,,,,,,,,,,power,63,149,sing,old,red,1729.5938230000002,None,1729.5938230000002,None,1,1.4522720999993908,1729.5938230000002,None,1.4522720999993908,1731.0733762,None,1731.5733465000003,None,1731.5733465000003,None,n,0.29681259999961185,1731.5733465000003,None,0.29681259999961185,,,133,001,2023_Sep_28_1313,ProdSingRedoBetween,2021.2.3,59.93263571743291,
,,,,149,0,149,0,,,,,,,,,,,,,,,,,,,,,,1734.6273388999998,None,,,,,,,,,,,,,,,,,public,92,150,sing,new,null,1732.3937310000001,None,1732.3937310000001,None,1,1.476563499999429,1732.3937310000001,None,1.476563499999429,1733.8991544,None,1734.4090093000004,None,1734.4090093000004,None,n,0.1972810000006575,1734.4090093000004,None,0.1972810000006575,,,133,001,2023_Sep_28_1313,ProdSingRedoBetween,2021.2.3,59.93263571743291,
,,,,150,0,150,0,,,,,,,,,,,,,,,,,,,,,,1738.3125761000001,None,,,,,,,,,,,,,,,,,government,172,151,sing,new,null,1735.1364651000004,None,1735.1364651000004,None,6,2.269848799999636,1735.1364651000004,None,2.269848799999636,1737.4355990000004,None,1737.9520024000003,None,1737.9520024000003,None,r,0.33409500000016124,1737.9520024000003,None,0.33409500000016124,,,133,001,2023_Sep_28_1313,ProdSingRedoBetween,2021.2.3,59.93263571743291,
,,,,151,0,151,0,,,,,,,,,,,,,,,,,,,,,,1740.9325927,None,,,,,,,,,,,,,,,,,ground,103,152,sing,new,null,1738.8164362999996,None,1738.8164362999996,None,1,1.381762100000742,1738.8164362999996,None,1.381762100000742,1740.2202522999996,None,1740.7373620999997,None,1740.7373620999997,None,n,0.16472969999995257,1740.7373620999997,None,0.16472969999995257,,,133,001,2023_Sep_28_1313,ProdSingRedoBetween,2021.2.3,59.93263571743291,
,,,,152,0,152,0,,,,,,,,,,,,,,,,,,,,,,1744.3697638000003,None,,,,,,,,,,,,,,,,,position,164,153,sing,new,null,1741.4480882999997,None,1741.4480882999997,None,3,2.0458740999993097,1741.4480882999997,None,2.0458740999993097,1743.5186968999997,None,1744.0298743000003,None,1744.0298743000003,None,n,0.3122341000007509,1744.0298743000003,None,0.3122341000007509,,,133,001,2023_Sep_28_1313,ProdSingRedoBetween,2021.2.3,59.93263571743291,
,,,,153,0,153,0,,,,,,,,,,,,,,,,,,,,,,1746.9547745999998,None,,,,,,,,,,,,,,,,,cousin,150,154,sing,new,null,1744.8724751,None,1744.8724751,None,1,1.3018213000004835,1744.8724751,None,1.3018213000004835,1746.2133014,None,1746.7230640999996,None,1746.7230640999996,None,n,0.20302409999931115,1746.7230640999996,None,0.20302409999931115,,,133,001,2023_Sep_28_1313,ProdSingRedoBetween,2021.2.3,59.93263571743291,
,,,,154,0,154,0,,,,,,,,,,,,,,,,,,,,,,1751.0421537000002,None,,,,,,,,,,,,,,,,,dozen,158,155,sing,new,null,1747.4672258,None,1747.4672258,None,1,1.3387709000007817,1747.4672258,None,1.3387709000007817,1748.8245047,None,1749.3367009000003,None,1749.3367009000003,None,n,1.677594799999497,1749.3367009000003,None,1.677594799999497,,,133,001,2023_Sep_28_1313,ProdSingRedoBetween,2021.2.3,59.93263571743291,
,,,,155,0,155,0,,,,,,,,,,,,,,,,,,,,,,1761.3189743000003,None,,,,,,,,,,,,,,,,,estate,61,156,sing,old,red,1751.5440344999997,None,1751.5440344999997,None,4,8.40601179999976,1751.5440344999997,None,8.40601179999976,1759.9707509999998,None,1760.4919954999996,None,1760.4919954999996,None,n,0.8020608000006177,1760.4919954999996,None,0.8020608000006177,,,133,001,2023_Sep_28_1313,ProdSingRedoBetween,2021.2.3,59.93263571743291,
,,,,156,0,156,0,,,,,,,,,,,,,,,,,,,,,,1764.1219087,None,,,,,,,,,,,,,,,,,review,139,157,sing,new,null,1761.8227681999997,None,1761.8227681999997,None,1,1.4552315999999337,1761.8227681999997,None,1.4552315999999337,1763.3205976,None,1763.8292322999996,None,1763.8292322999996,None,n,0.2728703000002497,1763.8292322999996,None,0.2728703000002497,,,133,001,2023_Sep_28_1313,ProdSingRedoBetween,2021.2.3,59.93263571743291,
,,,,157,0,157,0,,,,,,,,,,,,,,,,,,,,,,1766.7076057000004,None,,,,,,,,,,,,,,,,,split,154,158,sing,new,null,1764.6255435000003,None,1764.6255435000003,None,1,1.3165163000003304,1764.6255435000003,None,1.3165163000003304,1765.9582987000003,None,1766.4611037000004,None,1766.4611037000004,None,n,0.21693990000039776,1766.4611037000004,None,0.21693990000039776,,,133,001,2023_Sep_28_1313,ProdSingRedoBetween,2021.2.3,59.93263571743291,
,,,,158,0,158,0,,,,,,,,,,,,,,,,,,,,,,1769.5278761,None,,,,,,,,,,,,,,,,,column,0,159,sing,old,yellow,1767.2144872,None,1767.2144872,None,1,1.5995921000003364,1767.2144872,None,1.5995921000003364,1768.8432321999999,None,1769.3516683999997,None,1769.3516683999997,None,n,0.15841790000013134,1769.3516683999997,None,0.15841790000013134,,,133,001,2023_Sep_28_1313,ProdSingRedoBetween,2021.2.3,59.93263571743291,
,,,,159,0,159,0,,,,,,,,,,,,,,,,,,,,,,1772.0631910000002,None,,,,,,,,,,,,,,,,,hearing,156,160,sing,new,null,1770.0382743999999,None,1770.0382743999999,None,1,1.216077399999449,1770.0382743999999,None,1.216077399999449,1771.2797140000002,None,1771.7816694000003,None,1771.7816694000003,None,n,0.26437900000019,1771.7816694000003,None,0.26437900000019,,,133,001,2023_Sep_28_1313,ProdSingRedoBetween,2021.2.3,59.93263571743291,
,,,,160,0,160,0,,,,,,,,,,,,,,,,,,,,,,1776.4507692999996,None,,,,,,,,,,,,,,,,,production,141,161,sing,new,null,1772.5783123,None,1772.5783123,None,3,2.9157469000001583,1772.5783123,None,2.9157469000001583,1775.5211858000002,None,1776.0394058000002,None,1776.0394058000002,None,n,0.3826379000001907,1776.0394058000002,None,0.3826379000001907,,,133,001,2023_Sep_28_1313,ProdSingRedoBetween,2021.2.3,59.93263571743291,
,,,,161,0,161,0,,,,,,,,,,,,,,,,,,,,,,1781.9229894,None,,,,,,,,,,,,,,,,,height,51,162,sing,old,blue,1776.9640952999998,None,1776.9640952999998,None,2,3.7779528000000937,1776.9640952999998,None,3.7779528000000937,1780.7737661,None,1781.2891144000005,None,1781.2891144000005,None,n,0.6129569999993691,1781.2891144000005,None,0.6129569999993691,,,133,001,2023_Sep_28_1313,ProdSingRedoBetween,2021.2.3,59.93263571743291,
,,,,162,0,162,0,,,,,,,,,,,,,,,,,,,,,,1784.6944230999998,None,,,,,,,,,,,,,,,,,tennis,132,163,sing,new,null,1782.4251637999996,None,1782.4251637999996,None,1,1.3007996999995157,1782.4251637999996,None,1.3007996999995157,1783.7467730999997,None,1784.2587314000002,None,1784.2587314000002,None,n,0.4113608999996359,1784.2587314000002,None,0.4113608999996359,,,133,001,2023_Sep_28_1313,ProdSingRedoBetween,2021.2.3,59.93263571743291,
,,,,163,0,163,0,,,,,,,,,,,,,,,,,,,,,,1787.9623234,None,,,,,,,,,,,,,,,,,universal,104,164,sing,new,null,1785.210704,None,1785.210704,None,1,1.8273794000006092,1785.210704,None,1.8273794000006092,1787.0668388000004,None,1787.5840471000001,None,1787.5840471000001,None,n,0.34997740000017075,1787.5840471000001,None,0.34997740000017075,,,133,001,2023_Sep_28_1313,ProdSingRedoBetween,2021.2.3,59.93263571743291,
,,,,164,0,164,0,,,,,,,,,,,,,,,,,,,,,,1791.0694163999997,None,,,,,,,,,,,,,,,,,bitter,39,165,sing,old,blue,1788.4699114000005,None,1788.4699114000005,None,5,1.664129700000558,1788.4699114000005,None,1.664129700000558,1790.1694884999997,None,1790.6819451000001,None,1790.6819451000001,None,f,0.3642139000003226,1790.6819451000001,None,0.3642139000003226,,,133,001,2023_Sep_28_1313,ProdSingRedoBetween,2021.2.3,59.93263571743291,
,,,,165,0,165,0,,,,,,,,,,,,,,,,,,,,,,1801.6592713,None,,,,,,,,,,,,,,,,,whole,98,166,sing,new,null,1791.5961291000003,None,1791.5961291000003,None,1,6.921926099999837,1791.5961291000003,None,6.921926099999837,1798.5432276000001,None,1799.0586849000001,None,1799.0586849000001,None,n,2.571327399999973,1799.0586849000001,None,2.571327399999973,,,133,001,2023_Sep_28_1313,ProdSingRedoBetween,2021.2.3,59.93263571743291,
,,,,166,0,166,0,,,,,,,,,,,,,,,,,,,,,,1804.8291594000002,None,,,,,,,,,,,,,,,,,meeting,152,167,sing,new,null,1802.1668938000003,None,1802.1668938000003,None,1,1.6073448000006465,1802.1668938000003,None,1.6073448000006465,1803.8018192999998,None,1804.3149417000004,None,1804.3149417000004,None,n,0.48303349999969214,1804.3149417000004,None,0.48303349999969214,,,133,001,2023_Sep_28_1313,ProdSingRedoBetween,2021.2.3,59.93263571743291,
,,,,167,0,167,0,,,,,,,,,,,,,,,,,,,,,,1807.9989750000004,None,,,,,,,,,,,,,,,,,education,112,168,sing,new,null,1805.337426,None,1805.337426,None,1,1.6607804999994187,1805.337426,None,1.6607804999994187,1807.0252956000004,None,1807.5358330999998,None,1807.5358330999998,None,n,0.44611129999975674,1807.5358330999998,None,0.44611129999975674,,,133,001,2023_Sep_28_1313,ProdSingRedoBetween,2021.2.3,59.93263571743291,
,,,,168,0,168,0,,,,,,,,,,,,,,,,,,,,,,1810.7849929000004,None,,,,,,,,,,,,,,,,,little,162,169,sing,new,null,1808.5085844000005,None,1808.5085844000005,None,1,1.3936456999999791,1808.5085844000005,None,1.3936456999999791,1809.9234139,None,1810.4349695,None,1810.4349695,None,n,0.33100999999987835,1810.4349695,None,0.33100999999987835,,,133,001,2023_Sep_28_1313,ProdSingRedoBetween,2021.2.3,59.93263571743291,
,,,,169,0,169,0,,,,,,,,,,,,,,,,,,,,,,1816.1404513999996,None,,,,,,,,,,,,,,,,,build,136,170,sing,new,null,1811.2928517999999,None,1811.2928517999999,None,1,3.6251908000003823,1811.2928517999999,None,3.6251908000003823,1814.9459009000002,None,1815.456456,None,1815.456456,None,n,0.6615762999999788,1815.456456,None,0.6615762999999788,,,133,001,2023_Sep_28_1313,ProdSingRedoBetween,2021.2.3,59.93263571743291,
,,,,170,0,170,0,,,,,,,,,,,,,,,,,,,,,,1819.0934749999997,None,,,,,,,,,,,,,,,,,command,143,171,sing,new,null,1816.6461711000002,None,1816.6461711000002,None,1,1.4239489999999932,1816.6461711000002,None,1.4239489999999932,1818.0924277000004,None,1818.5986966,None,1818.5986966,None,n,0.47934319999967556,1818.5986966,None,0.47934319999967556,,,133,001,2023_Sep_28_1313,ProdSingRedoBetween,2021.2.3,59.93263571743291,
,,,,171,0,171,0,,,,,,,,,,,,,,,,,,,,,,1825.2380673999996,None,,,,,,,,,,,,,,,,,entrance,116,172,sing,new,null,1819.5957521,None,1819.5957521,None,3,4.698547299999518,1819.5957521,None,4.698547299999518,1824.3230038000002,None,1824.8325783,None,1824.8325783,None,n,0.3814660999996704,1824.8325783,None,0.3814660999996704,,,133,001,2023_Sep_28_1313,ProdSingRedoBetween,2021.2.3,59.93263571743291,
,,,,172,0,172,0,,,,,,,,,,,,,,,,,,,,,,1830.6725686,None,,,,,,,,,,,,,,,,,personnel,45,173,sing,old,blue,1825.7554699000002,None,1825.7554699000002,None,6,4.002567800000179,1825.7554699000002,None,4.002567800000179,1829.7929224999998,None,1830.3096901,None,1830.3096901,None,r,0.33631900000000314,1830.3096901,None,0.33631900000000314,,,133,001,2023_Sep_28_1313,ProdSingRedoBetween,2021.2.3,59.93263571743291,
,,,,173,0,173,0,,,,,,,,,,,,,,,,,,,,,,1833.5244641,None,,,,,,,,,,,,,,,,,murder,113,174,sing,new,null,1831.1752548000004,None,1831.1752548000004,None,1,1.622764200000347,1831.1752548000004,None,1.622764200000347,1832.828122,None,1833.3416542000004,None,1833.3416542000004,None,n,0.15234159999999974,1833.3416542000004,None,0.15234159999999974,,,133,001,2023_Sep_28_1313,ProdSingRedoBetween,2021.2.3,59.93263571743291,
,,,,174,0,174,0,,,,,,,,,,,,,,,,,,,,,,1836.1103494999998,None,,,,,,,,,,,,,,,,,stand,97,175,sing,new,null,1834.0385570999997,None,1834.0385570999997,None,1,1.4876354999996693,1834.0385570999997,None,1.4876354999996693,1835.5533238999997,None,1836.0602723000002,None,1836.0602723000002,None,n,0.03370399999948859,1836.0602723000002,None,0.03370399999948859,,,133,001,2023_Sep_28_1313,ProdSingRedoBetween,2021.2.3,59.93263571743291,
,,,,175,0,175,0,,,,,,,,,,,,,,,,,,,,,,1839.3969672000003,None,,,,,,,,,,,,,,,,,profession,58,176,sing,old,blue,1836.6221831000003,None,1836.6221831000003,None,4,1.8240483999998105,1836.6221831000003,None,1.8240483999998105,1838.4676069999996,None,1838.9837559999996,None,1838.9837559999996,None,n,0.3824206999997841,1838.9837559999996,None,0.3824206999997841,,,133,001,2023_Sep_28_1313,ProdSingRedoBetween,2021.2.3,59.93263571743291,
,,,,176,0,176,0,,,,,,,,,,,,,,,,,,,,,,1843.1173697000004,None,,,,,,,,,,,,,,,,,measure,28,177,sing,old,yellow,1839.9082962000002,None,1839.9082962000002,None,1,1.5216749999999593,1839.9082962000002,None,1.5216749999999593,1841.4518366000002,None,1841.9781095999997,None,1841.9781095999997,None,n,1.1238358000000517,1841.9781095999997,None,1.1238358000000517,,,133,001,2023_Sep_28_1313,ProdSingRedoBetween,2021.2.3,59.93263571743291,
,,,,177,0,177,0,,,,,,,,,,,,,,,,,,,,,,1846.4707337,None,,,,,,,,,,,,,,,,,career,147,178,sing,new,null,1843.6210099999998,None,1843.6210099999998,None,3,1.8329615000002377,1843.6210099999998,None,1.8329615000002377,1845.4708409000004,None,1845.9725766000001,None,1845.9725766000001,None,n,0.48145169999952486,1845.9725766000001,None,0.48145169999952486,,,133,001,2023_Sep_28_1313,ProdSingRedoBetween,2021.2.3,59.93263571743291,
,,,,178,0,178,0,,,,,,,,,,,,,,,,,,,,,,1849.7072687999998,None,,,,,,,,,,,,,,,,,marriage,102,179,sing,new,null,1846.9800553000005,None,1846.9800553000005,None,1,1.5859528999999384,1846.9800553000005,None,1.5859528999999384,1848.5926816,None,1849.1148518,None,1849.1148518,None,n,0.5710965999996915,1849.1148518,None,0.5710965999996915,,,133,001,2023_Sep_28_1313,ProdSingRedoBetween,2021.2.3,59.93263571743291,
,,,,179,0,179,0,,,,,,,,,,,,,,,,,,,,,,1852.7850398,None,,,,,,,,,,,,,,,,,material,134,180,sing,new,null,1850.2160826999998,None,1850.2160826999998,None,1,1.597845199999938,1850.2160826999998,None,1.597845199999938,1851.8434085999997,None,1852.3497913,None,1852.3497913,None,n,0.40855699999974604,1852.3497913,None,0.40855699999974604,,,133,001,2023_Sep_28_1313,ProdSingRedoBetween,2021.2.3,59.93263571743291,
,,,,,,,,,,,,,,,,,,,,,,,,,,,,,,,,,,,,,,,,,,,,,,,,,,,,,,,,,,,,,,,,,,,,,,,,,1853.2945308999997,None,,,,,,,
