StudyLoop.thisRepN,StudyLoop.thisTrialN,StudyLoop.thisN,StudyLoop.thisIndex,TestLoop.thisRepN,TestLoop.thisTrialN,TestLoop.thisN,TestLoop.thisIndex,textCondition.started,textCondition.stopped,keyCondition.keys,keyCondition.rt,keyCondition.started,keyCondition.stopped,Condition,textWelcome.started,textWelcome.stopped,keyWelcome.keys,keyWelcome.rt,keyWelcome.started,keyWelcome.stopped,textAloud.started,textAloud.stopped,textSilent.started,textSilent.stopped,textSing.started,textSing.stopped,conditional_text.started,conditional_text.stopped,textBlank500.started,textBlank500.stopped,study_word,study_num,study_order,study_type,word_color,textStudy.started,textStudy.stopped,keyStudy.keys,keyStudy.started,keyStudy.stopped,textTestInstructions.started,textTestInstructions.stopped,key_resp_3.keys,key_resp_3.rt,key_resp_3.started,key_resp_3.stopped,test_word,test_num,test_order,test_condition,old_new_test,test_word_original_color,textConf.started,textConf.stopped,textConfScale.started,textConfScale.stopped,keyConf.keys,keyConf.rt,keyConf.started,keyConf.stopped,confidence response time,textTestBlank.started,textTestBlank.stopped,textRKN.started,textRKN.stopped,textRKNScale.started,textRKNScale.stopped,keyRKN.keys,keyRKN.rt,keyRKN.started,keyRKN.stopped,rkn response time,textEnd.started,textEnd.stopped,participant,session,date,expName,psychopyVersion,frameRate,
,,,,,,,,24.201288599986583,None,c,5.486175399972126,24.201288599986583,None,,,,,,,,,,,,,,,,,,,,,,,,,,,,,,,,,,,,,,,,,,,,,,,,,,,,,,,,,,,,,,134Sing,001,2023_Oct_06_1155,ProdSingRedoBetween,2021.2.3,59.97641724677587,
,,,,,,,,,,,,,,SingTest,29.754160700016655,None,space,694.4051996000344,29.754160700016655,None,,,,,,,,,,,,,,,,,,,,,,,,,,,,,,,,,,,,,,,,,,,,,,,,,,,,,,,134Sing,001,2023_Oct_06_1155,ProdSingRedoBetween,2021.2.3,59.97641724677587,
0,0,0,0,,,,,,,,,,,,,,,,,,29.754160700016655,None,29.754160700016655,None,29.754160700016655,None,29.754160700016655,None,726.7052111999365,None,mankind,74,1,sing,red,724.704888499924,None,None,724.704888499924,None,,,,,,,,,,,,,,,,,,,,,,,,,,,,,,,,,,,134Sing,001,2023_Oct_06_1155,ProdSingRedoBetween,2021.2.3,59.97641724677587,
1,0,1,0,,,,,,,,,,,,,,,,,,,,,,,,,,729.224518999923,None,signal,16,2,sing,yellow,727.2107301999349,None,None,727.2107301999349,None,,,,,,,,,,,,,,,,,,,,,,,,,,,,,,,,,,,134Sing,001,2023_Oct_06_1155,ProdSingRedoBetween,2021.2.3,59.97641724677587,
2,0,2,0,,,,,,,,,,,,,,,,,,,,,,,,,,731.7271753000095,None,partner,4,3,sing,yellow,729.7250679000281,None,None,729.7250679000281,None,,,,,,,,,,,,,,,,,,,,,,,,,,,,,,,,,,,134Sing,001,2023_Oct_06_1155,ProdSingRedoBetween,2021.2.3,59.97641724677587,
3,0,3,0,,,,,,,,,,,,,,,,,,,,,,,,,,734.2295646999264,None,profession,53,4,sing,blue,732.2304682999384,None,None,732.2304682999384,None,,,,,,,,,,,,,,,,,,,,,,,,,,,,,,,,,,,134Sing,001,2023_Oct_06_1155,ProdSingRedoBetween,2021.2.3,59.97641724677587,
4,0,4,0,,,,,,,,,,,,,,,,,,,,,,,,,,736.7320765999611,None,range,88,5,sing,red,734.7307195999892,None,None,734.7307195999892,None,,,,,,,,,,,,,,,,,,,,,,,,,,,,,,,,,,,134Sing,001,2023_Oct_06_1155,ProdSingRedoBetween,2021.2.3,59.97641724677587,
5,0,5,0,,,,,,,,,,,,,,,,,,,,,,,,,,739.2346107999329,None,production,22,6,sing,yellow,737.2343901999993,None,None,737.2343901999993,None,,,,,,,,,,,,,,,,,,,,,,,,,,,,,,,,,,,134Sing,001,2023_Oct_06_1155,ProdSingRedoBetween,2021.2.3,59.97641724677587,
6,0,6,0,,,,,,,,,,,,,,,,,,,,,,,,,,741.7370296999579,None,health,56,7,sing,blue,739.7359226000262,None,None,739.7359226000262,None,,,,,,,,,,,,,,,,,,,,,,,,,,,,,,,,,,,134Sing,001,2023_Oct_06_1155,ProdSingRedoBetween,2021.2.3,59.97641724677587,
7,0,7,0,,,,,,,,,,,,,,,,,,,,,,,,,,744.256220899988,None,raise,68,8,sing,red,742.2445002000313,None,None,742.2445002000313,None,,,,,,,,,,,,,,,,,,,,,,,,,,,,,,,,,,,134Sing,001,2023_Oct_06_1155,ProdSingRedoBetween,2021.2.3,59.97641724677587,
8,0,8,0,,,,,,,,,,,,,,,,,,,,,,,,,,746.7586329999613,None,smell,21,9,sing,yellow,744.7565317000262,None,None,744.7565317000262,None,,,,,,,,,,,,,,,,,,,,,,,,,,,,,,,,,,,134Sing,001,2023_Oct_06_1155,ProdSingRedoBetween,2021.2.3,59.97641724677587,
9,0,9,0,,,,,,,,,,,,,,,,,,,,,,,,,,749.2779412999516,None,escape,82,10,sing,red,747.2626720999833,None,None,747.2626720999833,None,,,,,,,,,,,,,,,,,,,,,,,,,,,,,,,,,,,134Sing,001,2023_Oct_06_1155,ProdSingRedoBetween,2021.2.3,59.97641724677587,
10,0,10,0,,,,,,,,,,,,,,,,,,,,,,,,,,751.7804798999568,None,meeting,58,11,sing,blue,749.780786999967,None,None,749.780786999967,None,,,,,,,,,,,,,,,,,,,,,,,,,,,,,,,,,,,134Sing,001,2023_Oct_06_1155,ProdSingRedoBetween,2021.2.3,59.97641724677587,
11,0,11,0,,,,,,,,,,,,,,,,,,,,,,,,,,754.2996459000278,None,listen,55,12,sing,blue,752.2841443999205,None,None,752.2841443999205,None,,,,,,,,,,,,,,,,,,,,,,,,,,,,,,,,,,,134Sing,001,2023_Oct_06_1155,ProdSingRedoBetween,2021.2.3,59.97641724677587,
12,0,12,0,,,,,,,,,,,,,,,,,,,,,,,,,,756.8187782999594,None,budget,67,13,sing,red,754.8050596999237,None,None,754.8050596999237,None,,,,,,,,,,,,,,,,,,,,,,,,,,,,,,,,,,,134Sing,001,2023_Oct_06_1155,ProdSingRedoBetween,2021.2.3,59.97641724677587,
13,0,13,0,,,,,,,,,,,,,,,,,,,,,,,,,,759.3215124999406,None,employment,35,14,sing,blue,757.3202588999411,None,None,757.3202588999411,None,,,,,,,,,,,,,,,,,,,,,,,,,,,,,,,,,,,134Sing,001,2023_Oct_06_1155,ProdSingRedoBetween,2021.2.3,59.97641724677587,
14,0,14,0,,,,,,,,,,,,,,,,,,,,,,,,,,761.8404993999284,None,shear,60,15,sing,red,759.8349949999247,None,None,759.8349949999247,None,,,,,,,,,,,,,,,,,,,,,,,,,,,,,,,,,,,134Sing,001,2023_Oct_06_1155,ProdSingRedoBetween,2021.2.3,59.97641724677587,
15,0,15,0,,,,,,,,,,,,,,,,,,,,,,,,,,764.3430106999585,None,afternoon,31,16,sing,blue,762.3429430000251,None,None,762.3429430000251,None,,,,,,,,,,,,,,,,,,,,,,,,,,,,,,,,,,,134Sing,001,2023_Oct_06_1155,ProdSingRedoBetween,2021.2.3,59.97641724677587,
16,0,16,0,,,,,,,,,,,,,,,,,,,,,,,,,,766.862177999923,None,worker,86,17,sing,red,764.8481132999295,None,None,764.8481132999295,None,,,,,,,,,,,,,,,,,,,,,,,,,,,,,,,,,,,134Sing,001,2023_Oct_06_1155,ProdSingRedoBetween,2021.2.3,59.97641724677587,
17,0,17,0,,,,,,,,,,,,,,,,,,,,,,,,,,769.3813626000192,None,level,59,18,sing,yellow,767.3675530999899,None,None,767.3675530999899,None,,,,,,,,,,,,,,,,,,,,,,,,,,,,,,,,,,,134Sing,001,2023_Oct_06_1155,ProdSingRedoBetween,2021.2.3,59.97641724677587,
18,0,18,0,,,,,,,,,,,,,,,,,,,,,,,,,,771.9002795999404,None,exchange,6,19,sing,yellow,769.8915850999765,None,None,769.8915850999765,None,,,,,,,,,,,,,,,,,,,,,,,,,,,,,,,,,,,134Sing,001,2023_Oct_06_1155,ProdSingRedoBetween,2021.2.3,59.97641724677587,
19,0,19,0,,,,,,,,,,,,,,,,,,,,,,,,,,774.4030261000153,None,appearance,46,20,sing,blue,772.40235879994,None,None,772.40235879994,None,,,,,,,,,,,,,,,,,,,,,,,,,,,,,,,,,,,134Sing,001,2023_Oct_06_1155,ProdSingRedoBetween,2021.2.3,59.97641724677587,
20,0,20,0,,,,,,,,,,,,,,,,,,,,,,,,,,776.9053940000013,None,bicycle,23,21,sing,yellow,774.9064048000146,None,None,774.9064048000146,None,,,,,,,,,,,,,,,,,,,,,,,,,,,,,,,,,,,134Sing,001,2023_Oct_06_1155,ProdSingRedoBetween,2021.2.3,59.97641724677587,
21,0,21,0,,,,,,,,,,,,,,,,,,,,,,,,,,779.4082388000097,None,contract,14,22,sing,yellow,777.4090627999976,None,None,777.4090627999976,None,,,,,,,,,,,,,,,,,,,,,,,,,,,,,,,,,,,134Sing,001,2023_Oct_06_1155,ProdSingRedoBetween,2021.2.3,59.97641724677587,
22,0,22,0,,,,,,,,,,,,,,,,,,,,,,,,,,781.9271771999775,None,season,61,23,sing,red,779.918255400029,None,None,779.918255400029,None,,,,,,,,,,,,,,,,,,,,,,,,,,,,,,,,,,,134Sing,001,2023_Oct_06_1155,ProdSingRedoBetween,2021.2.3,59.97641724677587,
23,0,23,0,,,,,,,,,,,,,,,,,,,,,,,,,,784.4463698000181,None,ground,18,24,sing,yellow,782.4308361000149,None,None,782.4308361000149,None,,,,,,,,,,,,,,,,,,,,,,,,,,,,,,,,,,,134Sing,001,2023_Oct_06_1155,ProdSingRedoBetween,2021.2.3,59.97641724677587,
24,0,24,0,,,,,,,,,,,,,,,,,,,,,,,,,,786.9489426999353,None,harmony,48,25,sing,blue,784.9470129000256,None,None,784.9470129000256,None,,,,,,,,,,,,,,,,,,,,,,,,,,,,,,,,,,,134Sing,001,2023_Oct_06_1155,ProdSingRedoBetween,2021.2.3,59.97641724677587,
25,0,25,0,,,,,,,,,,,,,,,,,,,,,,,,,,789.468308600015,None,murder,52,26,sing,blue,787.4614384999732,None,None,787.4614384999732,None,,,,,,,,,,,,,,,,,,,,,,,,,,,,,,,,,,,134Sing,001,2023_Oct_06_1155,ProdSingRedoBetween,2021.2.3,59.97641724677587,
26,0,26,0,,,,,,,,,,,,,,,,,,,,,,,,,,791.9870457999641,None,military,8,27,sing,yellow,789.9756047999253,None,None,789.9756047999253,None,,,,,,,,,,,,,,,,,,,,,,,,,,,,,,,,,,,134Sing,001,2023_Oct_06_1155,ProdSingRedoBetween,2021.2.3,59.97641724677587,
27,0,27,0,,,,,,,,,,,,,,,,,,,,,,,,,,794.5063168000197,None,skill,33,28,sing,blue,792.4925930999452,None,None,792.4925930999452,None,,,,,,,,,,,,,,,,,,,,,,,,,,,,,,,,,,,134Sing,001,2023_Oct_06_1155,ProdSingRedoBetween,2021.2.3,59.97641724677587,
28,0,28,0,,,,,,,,,,,,,,,,,,,,,,,,,,797.0090383000206,None,split,83,29,sing,red,795.0072523999261,None,None,795.0072523999261,None,,,,,,,,,,,,,,,,,,,,,,,,,,,,,,,,,,,134Sing,001,2023_Oct_06_1155,ProdSingRedoBetween,2021.2.3,59.97641724677587,
29,0,29,0,,,,,,,,,,,,,,,,,,,,,,,,,,799.5282250000164,None,clean,36,30,sing,blue,797.5130303999176,None,None,797.5130303999176,None,,,,,,,,,,,,,,,,,,,,,,,,,,,,,,,,,,,134Sing,001,2023_Oct_06_1155,ProdSingRedoBetween,2021.2.3,59.97641724677587,
30,0,30,0,,,,,,,,,,,,,,,,,,,,,,,,,,802.0305460999953,None,strength,7,31,sing,yellow,800.0300803999417,None,None,800.0300803999417,None,,,,,,,,,,,,,,,,,,,,,,,,,,,,,,,,,,,134Sing,001,2023_Oct_06_1155,ProdSingRedoBetween,2021.2.3,59.97641724677587,
31,0,31,0,,,,,,,,,,,,,,,,,,,,,,,,,,804.5329651000211,None,strain,12,32,sing,yellow,802.5335492999293,None,None,802.5335492999293,None,,,,,,,,,,,,,,,,,,,,,,,,,,,,,,,,,,,134Sing,001,2023_Oct_06_1155,ProdSingRedoBetween,2021.2.3,59.97641724677587,
32,0,32,0,,,,,,,,,,,,,,,,,,,,,,,,,,807.0356748999329,None,nature,66,33,sing,red,805.0348488999298,None,None,805.0348488999298,None,,,,,,,,,,,,,,,,,,,,,,,,,,,,,,,,,,,134Sing,001,2023_Oct_06_1155,ProdSingRedoBetween,2021.2.3,59.97641724677587,
33,0,33,0,,,,,,,,,,,,,,,,,,,,,,,,,,809.5546482999343,None,curve,76,34,sing,red,807.540564200026,None,None,807.540564200026,None,,,,,,,,,,,,,,,,,,,,,,,,,,,,,,,,,,,134Sing,001,2023_Oct_06_1155,ProdSingRedoBetween,2021.2.3,59.97641724677587,
34,0,34,0,,,,,,,,,,,,,,,,,,,,,,,,,,812.0740464000264,None,search,24,35,sing,yellow,810.0609264000086,None,None,810.0609264000086,None,,,,,,,,,,,,,,,,,,,,,,,,,,,,,,,,,,,134Sing,001,2023_Oct_06_1155,ProdSingRedoBetween,2021.2.3,59.97641724677587,
35,0,35,0,,,,,,,,,,,,,,,,,,,,,,,,,,814.5932936000172,None,weather,81,36,sing,red,812.5846961999778,None,None,812.5846961999778,None,,,,,,,,,,,,,,,,,,,,,,,,,,,,,,,,,,,134Sing,001,2023_Oct_06_1155,ProdSingRedoBetween,2021.2.3,59.97641724677587,
36,0,36,0,,,,,,,,,,,,,,,,,,,,,,,,,,817.1125373999821,None,series,40,37,sing,blue,815.0973700999748,None,None,815.0973700999748,None,,,,,,,,,,,,,,,,,,,,,,,,,,,,,,,,,,,134Sing,001,2023_Oct_06_1155,ProdSingRedoBetween,2021.2.3,59.97641724677587,
37,0,37,0,,,,,,,,,,,,,,,,,,,,,,,,,,819.6149478999432,None,under,87,38,sing,red,817.6154295000015,None,None,817.6154295000015,None,,,,,,,,,,,,,,,,,,,,,,,,,,,,,,,,,,,134Sing,001,2023_Oct_06_1155,ProdSingRedoBetween,2021.2.3,59.97641724677587,
38,0,38,0,,,,,,,,,,,,,,,,,,,,,,,,,,822.1174760999857,None,fight,28,39,sing,yellow,820.1159366000211,None,None,820.1159366000211,None,,,,,,,,,,,,,,,,,,,,,,,,,,,,,,,,,,,134Sing,001,2023_Oct_06_1155,ProdSingRedoBetween,2021.2.3,59.97641724677587,
39,0,39,0,,,,,,,,,,,,,,,,,,,,,,,,,,824.6365662999451,None,tragedy,30,40,sing,blue,822.6239800999174,None,None,822.6239800999174,None,,,,,,,,,,,,,,,,,,,,,,,,,,,,,,,,,,,134Sing,001,2023_Oct_06_1155,ProdSingRedoBetween,2021.2.3,59.97641724677587,
40,0,40,0,,,,,,,,,,,,,,,,,,,,,,,,,,827.1392153999768,None,income,85,41,sing,red,825.1370023000054,None,None,825.1370023000054,None,,,,,,,,,,,,,,,,,,,,,,,,,,,,,,,,,,,134Sing,001,2023_Oct_06_1155,ProdSingRedoBetween,2021.2.3,59.97641724677587,
41,0,41,0,,,,,,,,,,,,,,,,,,,,,,,,,,829.6580326999538,None,accident,26,42,sing,yellow,827.6434360999847,None,None,827.6434360999847,None,,,,,,,,,,,,,,,,,,,,,,,,,,,,,,,,,,,134Sing,001,2023_Oct_06_1155,ProdSingRedoBetween,2021.2.3,59.97641724677587,
42,0,42,0,,,,,,,,,,,,,,,,,,,,,,,,,,832.1775136999786,None,executive,39,43,sing,blue,830.1696829999564,None,None,830.1696829999564,None,,,,,,,,,,,,,,,,,,,,,,,,,,,,,,,,,,,134Sing,001,2023_Oct_06_1155,ProdSingRedoBetween,2021.2.3,59.97641724677587,
43,0,43,0,,,,,,,,,,,,,,,,,,,,,,,,,,834.6800178999547,None,running,84,44,sing,red,832.6780153999571,None,None,832.6780153999571,None,,,,,,,,,,,,,,,,,,,,,,,,,,,,,,,,,,,134Sing,001,2023_Oct_06_1155,ProdSingRedoBetween,2021.2.3,59.97641724677587,
44,0,44,0,,,,,,,,,,,,,,,,,,,,,,,,,,837.1824629999464,None,crime,63,45,sing,red,835.1809096999932,None,None,835.1809096999932,None,,,,,,,,,,,,,,,,,,,,,,,,,,,,,,,,,,,134Sing,001,2023_Oct_06_1155,ProdSingRedoBetween,2021.2.3,59.97641724677587,
45,0,45,0,,,,,,,,,,,,,,,,,,,,,,,,,,839.7014161000261,None,husband,69,46,sing,red,837.6867748999503,None,None,837.6867748999503,None,,,,,,,,,,,,,,,,,,,,,,,,,,,,,,,,,,,134Sing,001,2023_Oct_06_1155,ProdSingRedoBetween,2021.2.3,59.97641724677587,
46,0,46,0,,,,,,,,,,,,,,,,,,,,,,,,,,842.2208935000235,None,election,25,47,sing,yellow,840.2076214000117,None,None,840.2076214000117,None,,,,,,,,,,,,,,,,,,,,,,,,,,,,,,,,,,,134Sing,001,2023_Oct_06_1155,ProdSingRedoBetween,2021.2.3,59.97641724677587,
47,0,47,0,,,,,,,,,,,,,,,,,,,,,,,,,,844.7234167000279,None,command,27,48,sing,yellow,842.7223832999589,None,None,842.7223832999589,None,,,,,,,,,,,,,,,,,,,,,,,,,,,,,,,,,,,134Sing,001,2023_Oct_06_1155,ProdSingRedoBetween,2021.2.3,59.97641724677587,
48,0,48,0,,,,,,,,,,,,,,,,,,,,,,,,,,847.2423779999372,None,engineer,32,49,sing,blue,845.2291778000072,None,None,845.2291778000072,None,,,,,,,,,,,,,,,,,,,,,,,,,,,,,,,,,,,134Sing,001,2023_Oct_06_1155,ProdSingRedoBetween,2021.2.3,59.97641724677587,
49,0,49,0,,,,,,,,,,,,,,,,,,,,,,,,,,849.745184200001,None,length,10,50,sing,yellow,847.7430450000102,None,None,847.7430450000102,None,,,,,,,,,,,,,,,,,,,,,,,,,,,,,,,,,,,134Sing,001,2023_Oct_06_1155,ProdSingRedoBetween,2021.2.3,59.97641724677587,
50,0,50,0,,,,,,,,,,,,,,,,,,,,,,,,,,852.2475700000068,None,month,75,51,sing,red,850.2484712000005,None,None,850.2484712000005,None,,,,,,,,,,,,,,,,,,,,,,,,,,,,,,,,,,,134Sing,001,2023_Oct_06_1155,ProdSingRedoBetween,2021.2.3,59.97641724677587,
51,0,51,0,,,,,,,,,,,,,,,,,,,,,,,,,,854.7667751000263,None,universal,43,52,sing,blue,852.7582095999969,None,None,852.7582095999969,None,,,,,,,,,,,,,,,,,,,,,,,,,,,,,,,,,,,134Sing,001,2023_Oct_06_1155,ProdSingRedoBetween,2021.2.3,59.97641724677587,
52,0,52,0,,,,,,,,,,,,,,,,,,,,,,,,,,857.2691686999751,None,break,62,53,sing,red,855.2670418999624,None,None,855.2670418999624,None,,,,,,,,,,,,,,,,,,,,,,,,,,,,,,,,,,,134Sing,001,2023_Oct_06_1155,ProdSingRedoBetween,2021.2.3,59.97641724677587,
53,0,53,0,,,,,,,,,,,,,,,,,,,,,,,,,,859.771704499959,None,suspect,72,54,sing,red,857.7725247999188,None,None,857.7725247999188,None,,,,,,,,,,,,,,,,,,,,,,,,,,,,,,,,,,,134Sing,001,2023_Oct_06_1155,ProdSingRedoBetween,2021.2.3,59.97641724677587,
54,0,54,0,,,,,,,,,,,,,,,,,,,,,,,,,,862.2906508999877,None,junior,78,55,sing,red,860.2838320999872,None,None,860.2838320999872,None,,,,,,,,,,,,,,,,,,,,,,,,,,,,,,,,,,,134Sing,001,2023_Oct_06_1155,ProdSingRedoBetween,2021.2.3,59.97641724677587,
55,0,55,0,,,,,,,,,,,,,,,,,,,,,,,,,,864.7935205999529,None,cousin,15,56,sing,yellow,862.791211499949,None,None,862.791211499949,None,,,,,,,,,,,,,,,,,,,,,,,,,,,,,,,,,,,134Sing,001,2023_Oct_06_1155,ProdSingRedoBetween,2021.2.3,59.97641724677587,
56,0,56,0,,,,,,,,,,,,,,,,,,,,,,,,,,867.3125586999813,None,country,3,57,sing,yellow,865.3039800999686,None,None,865.3039800999686,None,,,,,,,,,,,,,,,,,,,,,,,,,,,,,,,,,,,134Sing,001,2023_Oct_06_1155,ProdSingRedoBetween,2021.2.3,59.97641724677587,
57,0,57,0,,,,,,,,,,,,,,,,,,,,,,,,,,869.8148864000104,None,dance,17,58,sing,yellow,867.8131404999876,None,None,867.8131404999876,None,,,,,,,,,,,,,,,,,,,,,,,,,,,,,,,,,,,134Sing,001,2023_Oct_06_1155,ProdSingRedoBetween,2021.2.3,59.97641724677587,
58,0,58,0,,,,,,,,,,,,,,,,,,,,,,,,,,872.3175661999267,None,second,44,59,sing,blue,870.3169641999993,None,None,870.3169641999993,None,,,,,,,,,,,,,,,,,,,,,,,,,,,,,,,,,,,134Sing,001,2023_Oct_06_1155,ProdSingRedoBetween,2021.2.3,59.97641724677587,
59,0,59,0,,,,,,,,,,,,,,,,,,,,,,,,,,874.8199354999233,None,frank,77,60,sing,red,872.8204451999627,None,None,872.8204451999627,None,,,,,,,,,,,,,,,,,,,,,,,,,,,,,,,,,,,134Sing,001,2023_Oct_06_1155,ProdSingRedoBetween,2021.2.3,59.97641724677587,
60,0,60,0,,,,,,,,,,,,,,,,,,,,,,,,,,877.3390776999295,None,stranger,73,61,sing,red,875.3242015999276,None,None,875.3242015999276,None,,,,,,,,,,,,,,,,,,,,,,,,,,,,,,,,,,,134Sing,001,2023_Oct_06_1155,ProdSingRedoBetween,2021.2.3,59.97641724677587,
61,0,61,0,,,,,,,,,,,,,,,,,,,,,,,,,,879.8584409999894,None,couch,64,62,sing,red,877.8438231999753,None,None,877.8438231999753,None,,,,,,,,,,,,,,,,,,,,,,,,,,,,,,,,,,,134Sing,001,2023_Oct_06_1155,ProdSingRedoBetween,2021.2.3,59.97641724677587,
62,0,62,0,,,,,,,,,,,,,,,,,,,,,,,,,,882.3609919999726,None,theme,47,63,sing,blue,880.3586009999271,None,None,880.3586009999271,None,,,,,,,,,,,,,,,,,,,,,,,,,,,,,,,,,,,134Sing,001,2023_Oct_06_1155,ProdSingRedoBetween,2021.2.3,59.97641724677587,
63,0,63,0,,,,,,,,,,,,,,,,,,,,,,,,,,884.8802062999457,None,defeat,41,64,sing,blue,882.8711109999567,None,None,882.8711109999567,None,,,,,,,,,,,,,,,,,,,,,,,,,,,,,,,,,,,134Sing,001,2023_Oct_06_1155,ProdSingRedoBetween,2021.2.3,59.97641724677587,
64,0,64,0,,,,,,,,,,,,,,,,,,,,,,,,,,887.3993690999923,None,shape,0,65,sing,yellow,885.3843568000011,None,None,885.3843568000011,None,,,,,,,,,,,,,,,,,,,,,,,,,,,,,,,,,,,134Sing,001,2023_Oct_06_1155,ProdSingRedoBetween,2021.2.3,59.97641724677587,
65,0,65,0,,,,,,,,,,,,,,,,,,,,,,,,,,889.9185265999986,None,congress,54,66,sing,blue,887.9087149000261,None,None,887.9087149000261,None,,,,,,,,,,,,,,,,,,,,,,,,,,,,,,,,,,,134Sing,001,2023_Oct_06_1155,ProdSingRedoBetween,2021.2.3,59.97641724677587,
66,0,66,0,,,,,,,,,,,,,,,,,,,,,,,,,,892.4375040000305,None,alert,1,67,sing,yellow,890.4239133999217,None,None,890.4239133999217,None,,,,,,,,,,,,,,,,,,,,,,,,,,,,,,,,,,,134Sing,001,2023_Oct_06_1155,ProdSingRedoBetween,2021.2.3,59.97641724677587,
67,0,67,0,,,,,,,,,,,,,,,,,,,,,,,,,,894.9568131000269,None,private,34,68,sing,blue,892.9494849999901,None,None,892.9494849999901,None,,,,,,,,,,,,,,,,,,,,,,,,,,,,,,,,,,,134Sing,001,2023_Oct_06_1155,ProdSingRedoBetween,2021.2.3,59.97641724677587,
68,0,68,0,,,,,,,,,,,,,,,,,,,,,,,,,,897.4616256000008,None,management,89,69,sing,red,895.4573948999168,None,None,895.4573948999168,None,,,,,,,,,,,,,,,,,,,,,,,,,,,,,,,,,,,134Sing,001,2023_Oct_06_1155,ProdSingRedoBetween,2021.2.3,59.97641724677587,
69,0,69,0,,,,,,,,,,,,,,,,,,,,,,,,,,899.9950348000275,None,heavy,51,70,sing,blue,897.98820719996,None,None,897.98820719996,None,,,,,,,,,,,,,,,,,,,,,,,,,,,,,,,,,,,134Sing,001,2023_Oct_06_1155,ProdSingRedoBetween,2021.2.3,59.97641724677587,
70,0,70,0,,,,,,,,,,,,,,,,,,,,,,,,,,902.4976093999576,None,display,11,71,sing,yellow,900.4966454999521,None,None,900.4966454999521,None,,,,,,,,,,,,,,,,,,,,,,,,,,,,,,,,,,,134Sing,001,2023_Oct_06_1155,ProdSingRedoBetween,2021.2.3,59.97641724677587,
71,0,71,0,,,,,,,,,,,,,,,,,,,,,,,,,,905.0168988999212,None,disease,9,72,sing,yellow,903.002778199967,None,None,903.002778199967,None,,,,,,,,,,,,,,,,,,,,,,,,,,,,,,,,,,,134Sing,001,2023_Oct_06_1155,ProdSingRedoBetween,2021.2.3,59.97641724677587,
72,0,72,0,,,,,,,,,,,,,,,,,,,,,,,,,,907.5190598999616,None,music,19,73,sing,yellow,905.5172438999871,None,None,905.5172438999871,None,,,,,,,,,,,,,,,,,,,,,,,,,,,,,,,,,,,134Sing,001,2023_Oct_06_1155,ProdSingRedoBetween,2021.2.3,59.97641724677587,
73,0,73,0,,,,,,,,,,,,,,,,,,,,,,,,,,910.0387665999588,None,column,70,74,sing,red,908.0275145999622,None,None,908.0275145999622,None,,,,,,,,,,,,,,,,,,,,,,,,,,,,,,,,,,,134Sing,001,2023_Oct_06_1155,ProdSingRedoBetween,2021.2.3,59.97641724677587,
74,0,74,0,,,,,,,,,,,,,,,,,,,,,,,,,,912.5409440000076,None,concern,38,75,sing,blue,910.5390813000267,None,None,910.5390813000267,None,,,,,,,,,,,,,,,,,,,,,,,,,,,,,,,,,,,134Sing,001,2023_Oct_06_1155,ProdSingRedoBetween,2021.2.3,59.97641724677587,
75,0,75,0,,,,,,,,,,,,,,,,,,,,,,,,,,915.0434961999999,None,union,29,76,sing,blue,913.0417949999683,None,None,913.0417949999683,None,,,,,,,,,,,,,,,,,,,,,,,,,,,,,,,,,,,134Sing,001,2023_Oct_06_1155,ProdSingRedoBetween,2021.2.3,59.97641724677587,
76,0,76,0,,,,,,,,,,,,,,,,,,,,,,,,,,917.5458719999297,None,conference,49,77,sing,blue,915.5455453000031,None,None,915.5455453000031,None,,,,,,,,,,,,,,,,,,,,,,,,,,,,,,,,,,,134Sing,001,2023_Oct_06_1155,ProdSingRedoBetween,2021.2.3,59.97641724677587,
77,0,77,0,,,,,,,,,,,,,,,,,,,,,,,,,,920.0653312000213,None,point,45,78,sing,blue,918.0555528999539,None,None,918.0555528999539,None,,,,,,,,,,,,,,,,,,,,,,,,,,,,,,,,,,,134Sing,001,2023_Oct_06_1155,ProdSingRedoBetween,2021.2.3,59.97641724677587,
78,0,78,0,,,,,,,,,,,,,,,,,,,,,,,,,,922.5679452000186,None,attack,13,79,sing,yellow,920.5655953999376,None,None,920.5655953999376,None,,,,,,,,,,,,,,,,,,,,,,,,,,,,,,,,,,,134Sing,001,2023_Oct_06_1155,ProdSingRedoBetween,2021.2.3,59.97641724677587,
79,0,79,0,,,,,,,,,,,,,,,,,,,,,,,,,,925.0870810999768,None,bureau,65,80,sing,red,923.0767589999596,None,None,923.0767589999596,None,,,,,,,,,,,,,,,,,,,,,,,,,,,,,,,,,,,134Sing,001,2023_Oct_06_1155,ProdSingRedoBetween,2021.2.3,59.97641724677587,
80,0,80,0,,,,,,,,,,,,,,,,,,,,,,,,,,927.5894238000037,None,finish,2,81,sing,yellow,925.5896504999837,None,None,925.5896504999837,None,,,,,,,,,,,,,,,,,,,,,,,,,,,,,,,,,,,134Sing,001,2023_Oct_06_1155,ProdSingRedoBetween,2021.2.3,59.97641724677587,
81,0,81,0,,,,,,,,,,,,,,,,,,,,,,,,,,930.0918112000218,None,provision,42,82,sing,blue,928.0924911999609,None,None,928.0924911999609,None,,,,,,,,,,,,,,,,,,,,,,,,,,,,,,,,,,,134Sing,001,2023_Oct_06_1155,ProdSingRedoBetween,2021.2.3,59.97641724677587,
82,0,82,0,,,,,,,,,,,,,,,,,,,,,,,,,,932.5942910999293,None,throw,80,83,sing,red,930.5944234000053,None,None,930.5944234000053,None,,,,,,,,,,,,,,,,,,,,,,,,,,,,,,,,,,,134Sing,001,2023_Oct_06_1155,ProdSingRedoBetween,2021.2.3,59.97641724677587,
83,0,83,0,,,,,,,,,,,,,,,,,,,,,,,,,,935.1136601999169,None,personnel,37,84,sing,blue,933.0993746999884,None,None,933.0993746999884,None,,,,,,,,,,,,,,,,,,,,,,,,,,,,,,,,,,,134Sing,001,2023_Oct_06_1155,ProdSingRedoBetween,2021.2.3,59.97641724677587,
84,0,84,0,,,,,,,,,,,,,,,,,,,,,,,,,,937.6325331999687,None,sight,5,85,sing,yellow,935.6170055000111,None,None,935.6170055000111,None,,,,,,,,,,,,,,,,,,,,,,,,,,,,,,,,,,,134Sing,001,2023_Oct_06_1155,ProdSingRedoBetween,2021.2.3,59.97641724677587,
85,0,85,0,,,,,,,,,,,,,,,,,,,,,,,,,,940.1520841999445,None,solution,57,86,sing,blue,938.1368569999468,None,None,938.1368569999468,None,,,,,,,,,,,,,,,,,,,,,,,,,,,,,,,,,,,134Sing,001,2023_Oct_06_1155,ProdSingRedoBetween,2021.2.3,59.97641724677587,
86,0,86,0,,,,,,,,,,,,,,,,,,,,,,,,,,942.6546624000184,None,character,20,87,sing,yellow,940.6522779000225,None,None,940.6522779000225,None,,,,,,,,,,,,,,,,,,,,,,,,,,,,,,,,,,,134Sing,001,2023_Oct_06_1155,ProdSingRedoBetween,2021.2.3,59.97641724677587,
87,0,87,0,,,,,,,,,,,,,,,,,,,,,,,,,,945.1738568999572,None,death,71,88,sing,red,943.1620129999937,None,None,943.1620129999937,None,,,,,,,,,,,,,,,,,,,,,,,,,,,,,,,,,,,134Sing,001,2023_Oct_06_1155,ProdSingRedoBetween,2021.2.3,59.97641724677587,
88,0,88,0,,,,,,,,,,,,,,,,,,,,,,,,,,947.6762184000108,None,interior,79,89,sing,red,945.6751303999918,None,None,945.6751303999918,None,,,,,,,,,,,,,,,,,,,,,,,,,,,,,,,,,,,134Sing,001,2023_Oct_06_1155,ProdSingRedoBetween,2021.2.3,59.97641724677587,
89,0,89,0,,,,,,,,,,,,,,,,,,,,,,,,,,950.1787656999659,None,scene,50,90,sing,blue,948.1795156999724,None,None,948.1795156999724,None,,,,,,,,,,,,,,,,,,,,,,,,,,,,,,,,,,,134Sing,001,2023_Oct_06_1155,ProdSingRedoBetween,2021.2.3,59.97641724677587,
,,,,,,,,,,,,,,,,,,,,,,,,,,,,,,,,,,,,,,,,,950.6791757999454,None,k,148.64852520008571,950.6791757999454,None,,,,,,,,,,,,,,,,,,,,,,,,,,,,,134Sing,001,2023_Oct_06_1155,ProdSingRedoBetween,2021.2.3,59.97641724677587,
,,,,0,0,0,0,,,,,,,,,,,,,,,,,,,,,,1107.9219237000216,None,,,,,,,,,,,,,,,,,management,89,1,sing,old,red,1099.8652678999351,None,1099.8652678999351,None,5,5.230407700059004,1099.8652678999351,None,5.230407700059004,1105.125391199952,None,1105.639696200029,None,1105.639696200029,None,f,2.263870299910195,1105.639696200029,None,2.263870299910195,,,134Sing,001,2023_Oct_06_1155,ProdSingRedoBetween,2021.2.3,59.97641724677587,
,,,,1,0,1,0,,,,,,,,,,,,,,,,,,,,,,1112.1623102999292,None,,,,,,,,,,,,,,,,,split,83,2,sing,old,red,1108.4486985999392,None,1108.4486985999392,None,6,2.4388468000106514,1108.4486985999392,None,2.4388468000106514,1110.9148046999471,None,1111.4301086999476,None,1111.4301086999476,None,r,0.6975219000596553,1111.4301086999476,None,0.6975219000596553,,,134Sing,001,2023_Oct_06_1155,ProdSingRedoBetween,2021.2.3,59.97641724677587,
,,,,2,0,2,0,,,,,,,,,,,,,,,,,,,,,,1117.212317300029,None,,,,,,,,,,,,,,,,,bicycle,23,3,sing,old,yellow,1112.6789064999903,None,1112.6789064999903,None,5,3.328691100003198,1112.6789064999903,None,3.328691100003198,1116.0367929999484,None,1116.5503256999655,None,1116.5503256999655,None,f,0.6413021999178454,1116.5503256999655,None,0.6413021999178454,,,134Sing,001,2023_Oct_06_1155,ProdSingRedoBetween,2021.2.3,59.97641724677587,
,,,,3,0,3,0,,,,,,,,,,,,,,,,,,,,,,1121.5672923999373,None,,,,,,,,,,,,,,,,,listen,55,4,sing,old,blue,1117.7259871999267,None,1117.7259871999267,None,3,2.369547800044529,1117.7259871999267,None,2.369547800044529,1120.116170699941,None,1120.618199300021,None,1120.618199300021,None,n,0.9332300999667495,1120.618199300021,None,0.9332300999667495,,,134Sing,001,2023_Oct_06_1155,ProdSingRedoBetween,2021.2.3,59.97641724677587,
,,,,4,0,4,0,,,,,,,,,,,,,,,,,,,,,,1125.9877360999817,None,,,,,,,,,,,,,,,,,health,56,5,sing,old,blue,1122.0775215999456,None,1122.0775215999456,None,6,2.0021202000789344,1122.0775215999456,None,2.0021202000789344,1124.112405300024,None,1124.621345099993,None,1124.621345099993,None,r,1.338201200007461,1124.621345099993,None,1.338201200007461,,,134Sing,001,2023_Oct_06_1155,ProdSingRedoBetween,2021.2.3,59.97641724677587,
,,,,5,0,5,0,,,,,,,,,,,,,,,,,,,,,,1130.7258432999952,None,,,,,,,,,,,,,,,,,tragedy,30,6,sing,old,blue,1126.4907549999189,None,1126.4907549999189,None,4,3.0767699000425637,1126.4907549999189,None,3.0767699000425637,1129.5923924000235,None,1130.095811199979,None,1130.095811199979,None,f,0.5997795999282971,1130.095811199979,None,0.5997795999282971,,,134Sing,001,2023_Oct_06_1155,ProdSingRedoBetween,2021.2.3,59.97641724677587,
,,,,6,0,6,0,,,,,,,,,,,,,,,,,,,,,,1135.8809382999316,None,,,,,,,,,,,,,,,,,detective,167,7,sing,new,null,1131.2366435999284,None,1131.2366435999284,None,2,3.115085000055842,1131.2366435999284,None,3.115085000055842,1134.3926271999953,None,1134.9007531999378,None,1134.9007531999378,None,n,0.9548015000764281,1134.9007531999378,None,0.9548015000764281,,,134Sing,001,2023_Oct_06_1155,ProdSingRedoBetween,2021.2.3,59.97641724677587,
,,,,7,0,7,0,,,,,,,,,,,,,,,,,,,,,,1139.668042999925,None,,,,,,,,,,,,,,,,,death,71,8,sing,old,red,1136.389271199936,None,1136.389271199936,None,6,1.7304917000001296,1136.389271199936,None,1.7304917000001296,1138.1559408999747,None,1138.6672571999952,None,1138.6672571999952,None,r,0.9723562999861315,1138.6672571999952,None,0.9723562999861315,,,134Sing,001,2023_Oct_06_1155,ProdSingRedoBetween,2021.2.3,59.97641724677587,
,,,,8,0,8,0,,,,,,,,,,,,,,,,,,,,,,1144.258868200006,None,,,,,,,,,,,,,,,,,mankind,74,9,sing,old,red,1140.1849586999742,None,1140.1849586999742,None,4,2.966662499937229,1140.1849586999742,None,2.966662499937229,1143.1786078999285,None,1143.6933558000019,None,1143.6933558000019,None,n,0.5382373000029474,1143.6933558000019,None,0.5382373000029474,,,134Sing,001,2023_Oct_06_1155,ProdSingRedoBetween,2021.2.3,59.97641724677587,
,,,,9,0,9,0,,,,,,,,,,,,,,,,,,,,,,1147.9760294000152,None,,,,,,,,,,,,,,,,,display,11,10,sing,old,yellow,1144.7777415999444,None,1144.7777415999444,None,3,1.6377981998957694,1144.7777415999444,None,1.6377981998957694,1146.4427552999696,None,1146.9483966999687,None,1146.9483966999687,None,n,1.0031764999730512,1146.9483966999687,None,1.0031764999730512,,,134Sing,001,2023_Oct_06_1155,ProdSingRedoBetween,2021.2.3,59.97641724677587,
,,,,10,0,10,0,,,,,,,,,,,,,,,,,,,,,,1152.266446899972,None,,,,,,,,,,,,,,,,,shear,60,11,sing,old,red,1148.4907396999188,None,1148.4907396999188,None,2,2.020886700018309,1148.4907396999188,None,2.020886700018309,1150.5361352999462,None,1151.0473068000283,None,1151.0473068000283,None,n,1.2004537000320852,1151.0473068000283,None,1.2004537000320852,,,134Sing,001,2023_Oct_06_1155,ProdSingRedoBetween,2021.2.3,59.97641724677587,
,,,,11,0,11,0,,,,,,,,,,,,,,,,,,,,,,1155.5170444999821,None,,,,,,,,,,,,,,,,,dozen,164,12,sing,new,null,1152.7943240000168,None,1152.7943240000168,None,1,1.3812381000025198,1152.7943240000168,None,1.3812381000025198,1154.2014258999843,None,1154.722444199957,None,1154.722444199957,None,n,0.7731722999596968,1154.722444199957,None,0.7731722999596968,,,134Sing,001,2023_Oct_06_1155,ProdSingRedoBetween,2021.2.3,59.97641724677587,
,,,,12,0,12,0,,,,,,,,,,,,,,,,,,,,,,1162.4574469999643,None,,,,,,,,,,,,,,,,,month,75,13,sing,old,red,1156.0294089999516,None,1156.0294089999516,None,4,4.194258200004697,1156.0294089999516,None,4.194258200004697,1160.2429222000064,None,1160.7631824000273,None,1160.7631824000273,None,f,1.6763765000505373,1160.7631824000273,None,1.6763765000505373,,,134Sing,001,2023_Oct_06_1155,ProdSingRedoBetween,2021.2.3,59.97641724677587,
,,,,13,0,13,0,,,,,,,,,,,,,,,,,,,,,,1166.7284590000054,None,,,,,,,,,,,,,,,,,brilliant,122,14,sing,new,null,1162.959037499968,None,1162.959037499968,None,2,2.712690299958922,1162.959037499968,None,2.712690299958922,1165.7174431999447,None,1166.2295082999626,None,1166.2295082999626,None,n,0.47407050000038,1166.2295082999626,None,0.47407050000038,,,134Sing,001,2023_Oct_06_1155,ProdSingRedoBetween,2021.2.3,59.97641724677587,
,,,,14,0,14,0,,,,,,,,,,,,,,,,,,,,,,1171.536678000004,None,,,,,,,,,,,,,,,,,crime,63,15,sing,old,red,1167.2368059,None,1167.2368059,None,6,1.9068916001124308,1167.2368059,None,1.9068916001124308,1169.171591399936,None,1169.6821034000022,None,1169.6821034000022,None,f,1.8216010000323877,1169.6821034000022,None,1.8216010000323877,,,134Sing,001,2023_Oct_06_1155,ProdSingRedoBetween,2021.2.3,59.97641724677587,
,,,,15,0,15,0,,,,,,,,,,,,,,,,,,,,,,1175.8041579999262,None,,,,,,,,,,,,,,,,,country,3,16,sing,old,yellow,1172.0527675999328,None,1172.0527675999328,None,4,2.1388562999200076,1172.0527675999328,None,2.1388562999200076,1174.226223799982,None,1174.736540199956,None,1174.736540199956,None,f,1.0390387999359518,1174.736540199956,None,1.0390387999359518,,,134Sing,001,2023_Oct_06_1155,ProdSingRedoBetween,2021.2.3,59.97641724677587,
,,,,16,0,16,0,,,,,,,,,,,,,,,,,,,,,,1178.9250664999709,None,,,,,,,,,,,,,,,,,income,85,17,sing,old,red,1176.3141028999817,None,1176.3141028999817,None,2,1.5095582000212744,1176.3141028999817,None,1.5095582000212744,1177.844711999991,None,1178.356902499916,None,1178.356902499916,None,n,0.5388155999826267,1178.356902499916,None,0.5388155999826267,,,134Sing,001,2023_Oct_06_1155,ProdSingRedoBetween,2021.2.3,59.97641724677587,
,,,,17,0,17,0,,,,,,,,,,,,,,,,,,,,,,1182.4455957999453,None,,,,,,,,,,,,,,,,,session,94,18,sing,new,null,1179.4243274999317,None,1179.4243274999317,None,2,2.1113779000006616,1179.4243274999317,None,2.1113779000006616,1181.5683089999948,None,1182.083312899922,None,1182.083312899922,None,n,0.3322781000752002,1182.083312899922,None,0.3322781000752002,,,134Sing,001,2023_Oct_06_1155,ProdSingRedoBetween,2021.2.3,59.97641724677587,
,,,,18,0,18,0,,,,,,,,,,,,,,,,,,,,,,1186.1997153999982,None,,,,,,,,,,,,,,,,,fight,28,19,sing,old,yellow,1182.9579984999727,None,1182.9579984999727,None,3,2.4656843000557274,1182.9579984999727,None,2.4656843000557274,1185.4586082999595,None,1185.9658361999318,None,1185.9658361999318,None,n,0.2098940999712795,1185.9658361999318,None,0.2098940999712795,,,134Sing,001,2023_Oct_06_1155,ProdSingRedoBetween,2021.2.3,59.97641724677587,
,,,,19,0,19,0,,,,,,,,,,,,,,,,,,,,,,1189.7181378999958,None,,,,,,,,,,,,,,,,,volume,137,20,sing,new,null,1186.7200569999404,None,1186.7200569999404,None,1,1.6236470000585541,1186.7200569999404,None,1.6236470000585541,1188.3738567000255,None,1188.8885946000228,None,1188.8885946000228,None,n,0.8069677000166848,1188.8885946000228,None,0.8069677000166848,,,134Sing,001,2023_Oct_06_1155,ProdSingRedoBetween,2021.2.3,59.97641724677587,
,,,,20,0,20,0,,,,,,,,,,,,,,,,,,,,,,1193.1212892999174,None,,,,,,,,,,,,,,,,,corner,140,21,sing,new,null,1190.2275294000283,None,1190.2275294000283,None,1,2.028080499963835,1190.2275294000283,None,2.028080499963835,1192.272666899953,None,1192.7877081999322,None,1192.7877081999322,None,n,0.30786870000883937,1192.7877081999322,None,0.30786870000883937,,,134Sing,001,2023_Oct_06_1155,ProdSingRedoBetween,2021.2.3,59.97641724677587,
,,,,21,0,21,0,,,,,,,,,,,,,,,,,,,,,,1197.2950598000316,None,,,,,,,,,,,,,,,,,stranger,73,22,sing,old,red,1193.6246248999378,None,1193.6246248999378,None,3,1.799015700002201,1193.6246248999378,None,1.799015700002201,1195.4475203999318,None,1195.965310200001,None,1195.965310200001,None,n,1.3063912000507116,1195.965310200001,None,1.3063912000507116,,,134Sing,001,2023_Oct_06_1155,ProdSingRedoBetween,2021.2.3,59.97641724677587,
,,,,22,0,22,0,,,,,,,,,,,,,,,,,,,,,,1200.3120888000121,None,,,,,,,,,,,,,,,,,music,19,23,sing,old,yellow,1197.8122411000077,None,1197.8122411000077,None,6,1.7152817000169307,1197.8122411000077,None,1.7152817000169307,1199.5449375000317,None,1200.048951899982,None,1200.048951899982,None,r,0.24672559997998178,1200.048951899982,None,0.24672559997998178,,,134Sing,001,2023_Oct_06_1155,ProdSingRedoBetween,2021.2.3,59.97641724677587,
,,,,23,0,23,0,,,,,,,,,,,,,,,,,,,,,,1204.0657202999573,None,,,,,,,,,,,,,,,,,sleep,120,24,sing,new,null,1200.8265771999722,None,1200.8265771999722,None,3,2.476931600016542,1200.8265771999722,None,2.476931600016542,1203.3323706999654,None,1203.8397817999357,None,1203.8397817999357,None,n,0.19986219995189458,1203.8397817999357,None,0.19986219995189458,,,134Sing,001,2023_Oct_06_1155,ProdSingRedoBetween,2021.2.3,59.97641724677587,
,,,,24,0,24,0,,,,,,,,,,,,,,,,,,,,,,1206.5847756000003,None,,,,,,,,,,,,,,,,,harmony,48,25,sing,old,blue,1204.581231100019,None,1204.581231100019,None,6,1.2262546999845654,1204.581231100019,None,1.2262546999845654,1205.836982299923,None,1206.3562351999572,None,1206.3562351999572,None,r,0.2034414999652654,1206.3562351999572,None,0.2034414999652654,,,134Sing,001,2023_Oct_06_1155,ProdSingRedoBetween,2021.2.3,59.97641724677587,
,,,,25,0,25,0,,,,,,,,,,,,,,,,,,,,,,1211.0447215000167,None,,,,,,,,,,,,,,,,,finish,2,26,sing,old,yellow,1207.0959110999247,None,1207.0959110999247,None,4,2.3275462000165135,1207.0959110999247,None,2.3275462000165135,1209.4598554000258,None,1209.9749659999507,None,1209.9749659999507,None,f,1.048738899989985,1209.9749659999507,None,1.048738899989985,,,134Sing,001,2023_Oct_06_1155,ProdSingRedoBetween,2021.2.3,59.97641724677587,
,,,,26,0,26,0,,,,,,,,,,,,,,,,,,,,,,1213.5418971999316,None,,,,,,,,,,,,,,,,,dispute,148,27,sing,new,null,1211.562320200028,None,1211.562320200028,None,1,1.1573535000206903,1211.562320200028,None,1.1573535000206903,1212.7497521999758,None,1213.2613401999697,None,1213.2613401999697,None,n,0.25827400002162904,1213.2613401999697,None,0.25827400002162904,,,134Sing,001,2023_Oct_06_1155,ProdSingRedoBetween,2021.2.3,59.97641724677587,
,,,,27,0,27,0,,,,,,,,,,,,,,,,,,,,,,1217.4457209999673,None,,,,,,,,,,,,,,,,,still,144,28,sing,new,null,1214.050126099959,None,1214.050126099959,None,3,1.9334881999529898,1214.050126099959,None,1.9334881999529898,1216.0139787999215,None,1216.5389958999585,None,1216.5389958999585,None,f,0.8846766999922693,1216.5389958999585,None,0.8846766999922693,,,134Sing,001,2023_Oct_06_1155,ProdSingRedoBetween,2021.2.3,59.97641724677587,
,,,,28,0,28,0,,,,,,,,,,,,,,,,,,,,,,1222.5341232999926,None,,,,,,,,,,,,,,,,,interior,79,29,sing,old,red,1217.9547335000243,None,1217.9547335000243,None,3,3.6769134000642225,1217.9547335000243,None,3.6769134000642225,1221.6509755000006,None,1222.154537800001,None,1222.154537800001,None,f,0.35716140002477914,1222.154537800001,None,0.35716140002477914,,,134Sing,001,2023_Oct_06_1155,ProdSingRedoBetween,2021.2.3,59.97641724677587,
,,,,29,0,29,0,,,,,,,,,,,,,,,,,,,,,,1226.072512499988,None,,,,,,,,,,,,,,,,,column,70,30,sing,old,red,1223.039154900005,None,1223.039154900005,None,2,2.200707899988629,1223.039154900005,None,2.200707899988629,1225.2763271000003,None,1225.793792399927,None,1225.793792399927,None,n,0.261867200024426,1225.793792399927,None,0.261867200024426,,,134Sing,001,2023_Oct_06_1155,ProdSingRedoBetween,2021.2.3,59.97641724677587,
,,,,30,0,30,0,,,,,,,,,,,,,,,,,,,,,,1229.4911568999523,None,,,,,,,,,,,,,,,,,straight,162,31,sing,new,null,1226.5758300999878,None,1226.5758300999878,None,1,2.3198137999279425,1226.5758300999878,None,2.3198137999279425,1228.9290704999585,None,1229.443411599961,None,1229.443411599961,None,n,0.020288100000470877,1229.443411599961,None,0.020288100000470877,,,134Sing,001,2023_Oct_06_1155,ProdSingRedoBetween,2021.2.3,59.97641724677587,
,,,,31,0,31,0,,,,,,,,,,,,,,,,,,,,,,1232.7944595000008,None,,,,,,,,,,,,,,,,,skill,33,32,sing,old,blue,1230.0052429999923,None,1230.0052429999923,None,2,1.6984233000548556,1230.0052429999923,None,1.6984233000548556,1231.7341161000077,None,1232.2502119999845,None,1232.2502119999845,None,n,0.5254803999559954,1232.2502119999845,None,0.5254803999559954,,,134Sing,001,2023_Oct_06_1155,ProdSingRedoBetween,2021.2.3,59.97641724677587,
,,,,32,0,32,0,,,,,,,,,,,,,,,,,,,,,,1237.05000129994,None,,,,,,,,,,,,,,,,,election,25,33,sing,old,yellow,1233.2976603999268,None,1233.2976603999268,None,2,2.997935099992901,1233.2976603999268,None,2.997935099992901,1236.3145068000304,None,1236.8201002000133,None,1236.8201002000133,None,n,0.21151269995607436,1236.8201002000133,None,0.21151269995607436,,,134Sing,001,2023_Oct_06_1155,ProdSingRedoBetween,2021.2.3,59.97641724677587,
,,,,33,0,33,0,,,,,,,,,,,,,,,,,,,,,,1240.235030699987,None,,,,,,,,,,,,,,,,,youth,130,34,sing,new,null,1237.5660261999583,None,1237.5660261999583,None,2,1.833546799956821,1237.5660261999583,None,1.833546799956821,1239.4227950000204,None,1239.9348247000016,None,1239.9348247000016,None,n,0.2809110999805853,1239.9348247000016,None,0.2809110999805853,,,134Sing,001,2023_Oct_06_1155,ProdSingRedoBetween,2021.2.3,59.97641724677587,
,,,,34,0,34,0,,,,,,,,,,,,,,,,,,,,,,1243.0380060999887,None,,,,,,,,,,,,,,,,,republic,95,35,sing,new,null,1240.7454668999417,None,1240.7454668999417,None,2,1.3740905999438837,1240.7454668999417,None,1.3740905999438837,1242.1393484999426,None,1242.661494,None,1242.661494,None,n,0.3540922000538558,1242.661494,None,0.3540922000538558,,,134Sing,001,2023_Oct_06_1155,ProdSingRedoBetween,2021.2.3,59.97641724677587,
,,,,35,0,35,0,,,,,,,,,,,,,,,,,,,,,,1246.3747353999643,None,,,,,,,,,,,,,,,,,place,134,36,sing,new,null,1243.5493137999438,None,1243.5493137999438,None,4,1.3863881999859586,1243.5493137999438,None,1.3863881999859586,1244.9649288000073,None,1245.4856287000002,None,1245.4856287000002,None,f,0.8581304999534041,1245.4856287000002,None,0.8581304999534041,,,134Sing,001,2023_Oct_06_1155,ProdSingRedoBetween,2021.2.3,59.97641724677587,
,,,,36,0,36,0,,,,,,,,,,,,,,,,,,,,,,1249.4611176999751,None,,,,,,,,,,,,,,,,,signal,16,37,sing,old,yellow,1246.8825307999505,None,1246.8825307999505,None,2,1.9253752999939024,1246.8825307999505,None,1.9253752999939024,1248.8398487999802,None,1249.348604699946,None,1249.348604699946,None,n,0.083076799986884,1249.348604699946,None,0.083076799986884,,,134Sing,001,2023_Oct_06_1155,ProdSingRedoBetween,2021.2.3,59.97641724677587,
,,,,37,0,37,0,,,,,,,,,,,,,,,,,,,,,,1251.7312307999237,None,,,,,,,,,,,,,,,,,charter,145,38,sing,new,null,1249.9708041999256,None,1249.9708041999256,None,1,1.1328457000199705,1249.9708041999256,None,1.1328457000199705,1251.1352009000257,None,1251.6475670000073,None,1251.6475670000073,None,n,0.05614400003105402,1251.6475670000073,None,0.05614400003105402,,,134Sing,001,2023_Oct_06_1155,ProdSingRedoBetween,2021.2.3,59.97641724677587,
,,,,38,0,38,0,,,,,,,,,,,,,,,,,,,,,,1257.2686914999504,None,,,,,,,,,,,,,,,,,emergency,106,39,sing,new,null,1252.2421825999627,None,1252.2421825999627,None,4,3.325310399988666,1252.2421825999627,None,3.325310399988666,1255.5848977999995,None,1256.0898747999454,None,1256.0898747999454,None,f,1.1500353999435902,1256.0898747999454,None,1.1500353999435902,,,134Sing,001,2023_Oct_06_1155,ProdSingRedoBetween,2021.2.3,59.97641724677587,
,,,,39,0,39,0,,,,,,,,,,,,,,,,,,,,,,1259.8925990000134,None,,,,,,,,,,,,,,,,,search,24,40,sing,old,yellow,1257.775729099987,None,1257.775729099987,None,2,1.2719874000176787,1257.775729099987,None,1.2719874000176787,1259.0806261999533,None,1259.5934555999702,None,1259.5934555999702,None,n,0.2702127000084147,1259.5934555999702,None,0.2702127000084147,,,134Sing,001,2023_Oct_06_1155,ProdSingRedoBetween,2021.2.3,59.97641724677587,
,,,,40,0,40,0,,,,,,,,,,,,,,,,,,,,,,1263.0271994000068,None,,,,,,,,,,,,,,,,,suspect,72,41,sing,old,red,1260.4171818000032,None,1260.4171818000032,None,1,1.9583865000167862,1260.4171818000032,None,1.9583865000167862,1262.3920595999807,None,1262.8935589999892,None,1262.8935589999892,None,n,0.11413210001774132,1262.8935589999892,None,0.11413210001774132,,,134Sing,001,2023_Oct_06_1155,ProdSingRedoBetween,2021.2.3,59.97641724677587,
,,,,41,0,41,0,,,,,,,,,,,,,,,,,,,,,,1266.127827599994,None,,,,,,,,,,,,,,,,,ground,18,42,sing,old,yellow,1263.551604899927,None,1263.551604899927,None,1,1.68816679995507,1263.551604899927,None,1.68816679995507,1265.2687619000208,None,1265.7800670999568,None,1265.7800670999568,None,n,0.3235215999884531,1265.7800670999568,None,0.3235215999884531,,,134Sing,001,2023_Oct_06_1155,ProdSingRedoBetween,2021.2.3,59.97641724677587,
,,,,42,0,42,0,,,,,,,,,,,,,,,,,,,,,,1269.9498111000285,None,,,,,,,,,,,,,,,,,pressure,175,43,sing,new,null,1266.6396487000166,None,1266.6396487000166,None,3,2.3599651999538764,1266.6396487000166,None,2.3599651999538764,1269.0333897999953,None,1269.5504382000072,None,1269.5504382000072,None,n,0.3770627999911085,1269.5504382000072,None,0.3770627999911085,,,134Sing,001,2023_Oct_06_1155,ProdSingRedoBetween,2021.2.3,59.97641724677587,
,,,,43,0,43,0,,,,,,,,,,,,,,,,,,,,,,1272.8511353000067,None,,,,,,,,,,,,,,,,,quick,165,44,sing,new,null,1270.476279299939,None,1270.476279299939,None,2,1.2754030000651255,1270.476279299939,None,1.2754030000651255,1271.7704448000295,None,1272.2886700999225,None,1272.2886700999225,None,n,0.5348571999929845,1272.2886700999225,None,0.5348571999929845,,,134Sing,001,2023_Oct_06_1155,ProdSingRedoBetween,2021.2.3,59.97641724677587,
,,,,44,0,44,0,,,,,,,,,,,,,,,,,,,,,,1276.2059076000005,None,,,,,,,,,,,,,,,,,point,45,45,sing,old,blue,1273.360701299971,None,1273.360701299971,None,4,1.6309166999999434,1273.360701299971,None,1.6309166999999434,1275.0204995999811,None,1275.5250180999283,None,1275.5250180999283,None,f,0.6507187000242993,1275.5250180999283,None,0.6507187000242993,,,134Sing,001,2023_Oct_06_1155,ProdSingRedoBetween,2021.2.3,59.97641724677587,
,,,,45,0,45,0,,,,,,,,,,,,,,,,,,,,,,1279.7747250000248,None,,,,,,,,,,,,,,,,,grade,161,46,sing,new,null,1276.710862500011,None,1276.710862500011,None,2,1.3769887000089511,1276.710862500011,None,1.3769887000089511,1278.1148680999177,None,1278.6279419999337,None,1278.6279419999337,None,n,1.1236509999725968,1278.6279419999337,None,1.1236509999725968,,,134Sing,001,2023_Oct_06_1155,ProdSingRedoBetween,2021.2.3,59.97641724677587,
,,,,46,0,46,0,,,,,,,,,,,,,,,,,,,,,,1282.010297599947,None,,,,,,,,,,,,,,,,,style,157,47,sing,new,null,1280.2831397999544,None,1280.2831397999544,None,2,1.0685834999894723,1280.2831397999544,None,1.0685834999894723,1281.3869564000051,None,1281.8953472999856,None,1281.8953472999856,None,n,0.09635290002916008,1281.8953472999856,None,0.09635290002916008,,,134Sing,001,2023_Oct_06_1155,ProdSingRedoBetween,2021.2.3,59.97641724677587,
,,,,47,0,47,0,,,,,,,,,,,,,,,,,,,,,,1285.1634425999364,None,,,,,,,,,,,,,,,,,author,149,48,sing,new,null,1282.5194599999813,None,1282.5194599999813,None,1,1.6962109999731183,1282.5194599999813,None,1.6962109999731183,1284.2483230999205,None,1284.7631481999997,None,1284.7631481999997,None,n,0.3805329999886453,1284.7631481999997,None,0.3805329999886453,,,134Sing,001,2023_Oct_06_1155,ProdSingRedoBetween,2021.2.3,59.97641724677587,
,,,,48,0,48,0,,,,,,,,,,,,,,,,,,,,,,1289.0840350999497,None,,,,,,,,,,,,,,,,,business,91,49,sing,new,null,1285.6788339000195,None,1285.6788339000195,None,4,2.432751900050789,1285.6788339000195,None,2.432751900050789,1288.1341941999272,None,1288.633531200001,None,1288.633531200001,None,f,0.4301630000118166,1288.633531200001,None,0.4301630000118166,,,134Sing,001,2023_Oct_06_1155,ProdSingRedoBetween,2021.2.3,59.97641724677587,
,,,,49,0,49,0,,,,,,,,,,,,,,,,,,,,,,1291.93672290002,None,,,,,,,,,,,,,,,,,story,124,50,sing,new,null,1289.5921005000127,None,1289.5921005000127,None,1,1.7516522000078112,1289.5921005000127,None,1.7516522000078112,1291.3738086000085,None,1291.890199400019,None,1291.890199400019,None,n,0.021424199920147657,1291.890199400019,None,0.021424199920147657,,,134Sing,001,2023_Oct_06_1155,ProdSingRedoBetween,2021.2.3,59.97641724677587,
,,,,50,0,50,0,,,,,,,,,,,,,,,,,,,,,,1295.7384877000004,None,,,,,,,,,,,,,,,,,escape,82,51,sing,old,red,1292.4480989000294,None,1292.4480989000294,None,2,1.551516899955459,1292.4480989000294,None,1.551516899955459,1294.0245326999575,None,1294.543620100012,None,1294.543620100012,None,n,1.1600920999189839,1294.543620100012,None,1.1600920999189839,,,134Sing,001,2023_Oct_06_1155,ProdSingRedoBetween,2021.2.3,59.97641724677587,
,,,,51,0,51,0,,,,,,,,,,,,,,,,,,,,,,1298.8605532000074,None,,,,,,,,,,,,,,,,,nature,66,52,sing,old,red,1296.2485464999918,None,1296.2485464999918,None,2,1.6232207999564707,1296.2485464999918,None,1.6232207999564707,1297.900920499931,None,1298.4099700999213,None,1298.4099700999213,None,n,0.4296907999087125,1298.4099700999213,None,0.4296907999087125,,,134Sing,001,2023_Oct_06_1155,ProdSingRedoBetween,2021.2.3,59.97641724677587,
,,,,52,0,52,0,,,,,,,,,,,,,,,,,,,,,,1302.0633941999404,None,,,,,,,,,,,,,,,,,subject,156,53,sing,new,null,1299.3704481999157,None,1299.3704481999157,None,3,1.1252052000490949,1299.3704481999157,None,1.1252052000490949,1300.5142586999573,None,1301.0333821999375,None,1301.0333821999375,None,n,1.0142345000058413,1301.0333821999375,None,1.0142345000058413,,,134Sing,001,2023_Oct_06_1155,ProdSingRedoBetween,2021.2.3,59.97641724677587,
,,,,53,0,53,0,,,,,,,,,,,,,,,,,,,,,,1304.9332267999416,None,,,,,,,,,,,,,,,,,husband,69,54,sing,old,red,1302.5776633999776,None,1302.5776633999776,None,1,1.1504748000297695,1302.5776633999776,None,1.1504748000297695,1303.7626563999802,None,1304.278089499916,None,1304.278089499916,None,n,0.6336090000113472,1304.278089499916,None,0.6336090000113472,,,134Sing,001,2023_Oct_06_1155,ProdSingRedoBetween,2021.2.3,59.97641724677587,
,,,,54,0,54,0,,,,,,,,,,,,,,,,,,,,,,1308.6367666999577,None,,,,,,,,,,,,,,,,,provision,42,55,sing,old,blue,1305.4381179999327,None,1305.4381179999327,None,3,1.7857264999765903,1305.4381179999327,None,1.7857264999765903,1307.2634132999228,None,1307.7734846000094,None,1307.7734846000094,None,f,0.8423581999959424,1307.7734846000094,None,0.8423581999959424,,,134Sing,001,2023_Oct_06_1155,ProdSingRedoBetween,2021.2.3,59.97641724677587,
,,,,55,0,55,0,,,,,,,,,,,,,,,,,,,,,,1311.3894851999357,None,,,,,,,,,,,,,,,,,comfort,177,56,sing,new,null,1309.1481978999218,None,1309.1481978999218,None,2,1.41176569997333,1309.1481978999218,None,1.41176569997333,1310.5946525000036,None,1311.1113627000013,None,1311.1113627000013,None,n,0.24819109996315092,1311.1113627000013,None,0.24819109996315092,,,134Sing,001,2023_Oct_06_1155,ProdSingRedoBetween,2021.2.3,59.97641724677587,
,,,,56,0,56,0,,,,,,,,,,,,,,,,,,,,,,1314.96495579998,None,,,,,,,,,,,,,,,,,incident,174,57,sing,new,null,1311.9014388999203,None,1311.9014388999203,None,3,1.7061774999601766,1311.9014388999203,None,1.7061774999601766,1313.6295429000165,None,1314.1425623999676,None,1314.1425623999676,None,f,0.801281200023368,1314.1425623999676,None,0.801281200023368,,,134Sing,001,2023_Oct_06_1155,ProdSingRedoBetween,2021.2.3,59.97641724677587,
,,,,57,0,57,0,,,,,,,,,,,,,,,,,,,,,,1317.3954725000076,None,,,,,,,,,,,,,,,,,swift,111,58,sing,new,null,1315.4922189000063,None,1315.4922189000063,None,2,1.0753207999514416,1315.4922189000063,None,1.0753207999514416,1316.5953499999596,None,1317.0954838999314,None,1317.0954838999314,None,n,0.2722154998918995,1317.0954838999314,None,0.2722154998918995,,,134Sing,001,2023_Oct_06_1155,ProdSingRedoBetween,2021.2.3,59.97641724677587,
,,,,58,0,58,0,,,,,,,,,,,,,,,,,,,,,,1321.4186919999775,None,,,,,,,,,,,,,,,,,cousin,15,59,sing,old,yellow,1317.9050318999216,None,1317.9050318999216,None,4,2.18250390002504,1317.9050318999216,None,2.18250390002504,1320.1159843999194,None,1320.6228798999218,None,1320.6228798999218,None,f,0.7769163999473676,1320.6228798999218,None,0.7769163999473676,,,134Sing,001,2023_Oct_06_1155,ProdSingRedoBetween,2021.2.3,59.97641724677587,
,,,,59,0,59,0,,,,,,,,,,,,,,,,,,,,,,1325.272167099989,None,,,,,,,,,,,,,,,,,employment,35,60,sing,old,blue,1321.944329299964,None,1321.944329299964,None,6,2.239511299994774,1321.944329299964,None,2.239511299994774,1324.2137822000077,None,1324.7209797999822,None,1324.7209797999822,None,r,0.5187534000724554,1324.7209797999822,None,0.5187534000724554,,,134Sing,001,2023_Oct_06_1155,ProdSingRedoBetween,2021.2.3,59.97641724677587,
,,,,60,0,60,0,,,,,,,,,,,,,,,,,,,,,,1327.8728448000038,None,,,,,,,,,,,,,,,,,universal,43,61,sing,old,blue,1325.7949372000294,None,1325.7949372000294,None,1,1.2286834999686107,1325.7949372000294,None,1.2286834999686107,1327.0410578999436,None,1327.562301500002,None,1327.562301500002,None,n,0.2932785999728367,1327.562301500002,None,0.2932785999728367,,,134Sing,001,2023_Oct_06_1155,ProdSingRedoBetween,2021.2.3,59.97641724677587,
,,,,61,0,61,0,,,,,,,,,,,,,,,,,,,,,,1330.209483099985,None,,,,,,,,,,,,,,,,,break,62,62,sing,old,red,1328.3797192999627,None,1328.3797192999627,None,2,1.1159345000050962,1328.3797192999627,None,1.1159345000050962,1329.5252991999732,None,1330.0323741999455,None,1330.0323741999455,None,n,0.14334539999254048,1330.0323741999455,None,0.14334539999254048,,,134Sing,001,2023_Oct_06_1155,ProdSingRedoBetween,2021.2.3,59.97641724677587,
,,,,62,0,62,0,,,,,,,,,,,,,,,,,,,,,,1332.594123799936,None,,,,,,,,,,,,,,,,,school,142,63,sing,new,null,1330.7214453999186,None,1330.7214453999186,None,3,1.1582253000233322,1330.7214453999186,None,1.1582253000233322,1331.9112951999996,None,1332.4106163999531,None,1332.4106163999531,None,n,0.1570242999587208,1332.4106163999531,None,0.1570242999587208,,,134Sing,001,2023_Oct_06_1155,ProdSingRedoBetween,2021.2.3,59.97641724677587,
,,,,63,0,63,0,,,,,,,,,,,,,,,,,,,,,,1335.8138038999168,None,,,,,,,,,,,,,,,,,raise,68,64,sing,old,red,1333.1137280999683,None,1333.1137280999683,None,3,1.8620143999578431,1333.1137280999683,None,1.8620143999578431,1335.003114299965,None,1335.5194952000165,None,1335.5194952000165,None,n,0.2722237999550998,1335.5194952000165,None,0.2722237999550998,,,134Sing,001,2023_Oct_06_1155,ProdSingRedoBetween,2021.2.3,59.97641724677587,
,,,,64,0,64,0,,,,,,,,,,,,,,,,,,,,,,1338.2164757000282,None,,,,,,,,,,,,,,,,,surface,112,65,sing,new,null,1336.3249743999913,None,1336.3249743999913,None,3,1.1546624000184238,1336.3249743999913,None,1.1546624000184238,1337.5001879999181,None,1338.0052859999705,None,1338.0052859999705,None,n,0.18632550002075732,1338.0052859999705,None,0.18632550002075732,,,134Sing,001,2023_Oct_06_1155,ProdSingRedoBetween,2021.2.3,59.97641724677587,
,,,,65,0,65,0,,,,,,,,,,,,,,,,,,,,,,1340.9690361999674,None,,,,,,,,,,,,,,,,,second,44,66,sing,old,blue,1338.726044400013,None,1338.726044400013,None,2,1.545747400028631,1338.726044400013,None,1.545747400028631,1340.3114168000175,None,1340.8217754999641,None,1340.8217754999641,None,n,0.1298522000433877,1340.8217754999641,None,0.1298522000433877,,,134Sing,001,2023_Oct_06_1155,ProdSingRedoBetween,2021.2.3,59.97641724677587,
,,,,66,0,66,0,,,,,,,,,,,,,,,,,,,,,,1344.5390937000047,None,,,,,,,,,,,,,,,,,attack,13,67,sing,old,yellow,1341.4874532999238,None,1341.4874532999238,None,5,2.2001123999943957,1341.4874532999238,None,2.2001123999943957,1343.7070333999582,None,1344.2225452000275,None,1344.2225452000275,None,f,0.2971333999885246,1344.2225452000275,None,0.2971333999885246,,,134Sing,001,2023_Oct_06_1155,ProdSingRedoBetween,2021.2.3,59.97641724677587,
,,,,67,0,67,0,,,,,,,,,,,,,,,,,,,,,,1347.7593914000317,None,,,,,,,,,,,,,,,,,contract,14,68,sing,old,yellow,1345.0587369999848,None,1345.0587369999848,None,3,2.0449251000536606,1345.0587369999848,None,2.0449251000536606,1347.1303365000058,None,1347.648685800028,None,1347.648685800028,None,f,0.08703449997119606,1347.648685800028,None,0.08703449997119606,,,134Sing,001,2023_Oct_06_1155,ProdSingRedoBetween,2021.2.3,59.97641724677587,
,,,,68,0,68,0,,,,,,,,,,,,,,,,,,,,,,1350.3967013999354,None,,,,,,,,,,,,,,,,,level,59,69,sing,old,yellow,1348.272012099973,None,1348.272012099973,None,2,1.2476942000212148,1348.272012099973,None,1.2476942000212148,1349.5489548000041,None,1350.0667753999587,None,1350.0667753999587,None,n,0.30893669999204576,1350.0667753999587,None,0.30893669999204576,,,134Sing,001,2023_Oct_06_1155,ProdSingRedoBetween,2021.2.3,59.97641724677587,
,,,,69,0,69,0,,,,,,,,,,,,,,,,,,,,,,1354.517323100008,None,,,,,,,,,,,,,,,,,hearing,158,70,sing,new,null,1350.9017084999941,None,1350.9017084999941,None,2,2.7940074999351054,1350.9017084999941,None,2.7940074999351054,1353.7152452999726,None,1354.2178874999518,None,1354.2178874999518,None,n,0.2778833000920713,1354.2178874999518,None,0.2778833000920713,,,134Sing,001,2023_Oct_06_1155,ProdSingRedoBetween,2021.2.3,59.97641724677587,
,,,,70,0,70,0,,,,,,,,,,,,,,,,,,,,,,1357.352269600029,None,,,,,,,,,,,,,,,,,scene,50,71,sing,old,blue,1355.0226091999793,None,1355.0226091999793,None,3,1.60095029999502,1355.0226091999793,None,1.60095029999502,1356.6537541999714,None,1357.172545999987,None,1357.172545999987,None,n,0.15510079998057336,1357.172545999987,None,0.15510079998057336,,,134Sing,001,2023_Oct_06_1155,ProdSingRedoBetween,2021.2.3,59.97641724677587,
,,,,71,0,71,0,,,,,,,,,,,,,,,,,,,,,,1361.506116500008,None,,,,,,,,,,,,,,,,,curve,76,72,sing,old,red,1357.8618209999986,None,1357.8618209999986,None,2,2.818000700091943,1357.8618209999986,None,2.818000700091943,1360.7068061999744,None,1361.2072129999287,None,1361.2072129999287,None,n,0.28062660002615303,1361.2072129999287,None,0.28062660002615303,,,134Sing,001,2023_Oct_06_1155,ProdSingRedoBetween,2021.2.3,59.97641724677587,
,,,,72,0,72,0,,,,,,,,,,,,,,,,,,,,,,1364.1087882999564,None,,,,,,,,,,,,,,,,,budget,67,73,sing,old,red,1362.0094619999873,None,1362.0094619999873,None,4,1.3423254999797791,1362.0094619999873,None,1.3423254999797791,1363.3855986000272,None,1363.8922702999553,None,1363.8922702999553,None,f,0.18751570000313222,1363.8922702999553,None,0.18751570000313222,,,134Sing,001,2023_Oct_06_1155,ProdSingRedoBetween,2021.2.3,59.97641724677587,
,,,,73,0,73,0,,,,,,,,,,,,,,,,,,,,,,1367.0451967000263,None,,,,,,,,,,,,,,,,,range,88,74,sing,old,red,1364.6218798999907,None,1364.6218798999907,None,2,1.545754799968563,1364.6218798999907,None,1.545754799968563,1366.198298299918,None,1366.7187512000091,None,1366.7187512000091,None,n,0.2969432999379933,1366.7187512000091,None,0.2969432999379933,,,134Sing,001,2023_Oct_06_1155,ProdSingRedoBetween,2021.2.3,59.97641724677587,
,,,,74,0,74,0,,,,,,,,,,,,,,,,,,,,,,1369.4643791000126,None,,,,,,,,,,,,,,,,,burden,102,75,sing,new,null,1367.560924999998,None,1367.560924999998,None,1,1.2707555000670254,1367.560924999998,None,1.2707555000670254,1368.850045899977,None,1369.3702691999497,None,1369.3702691999497,None,n,0.06940320006106049,1369.3702691999497,None,0.06940320006106049,,,134Sing,001,2023_Oct_06_1155,ProdSingRedoBetween,2021.2.3,59.97641724677587,
,,,,75,0,75,0,,,,,,,,,,,,,,,,,,,,,,1372.0030227999669,None,,,,,,,,,,,,,,,,,rural,119,76,sing,new,null,1369.9736797999358,None,1369.9736797999358,None,1,1.3460153000196442,1369.9736797999358,None,1.3460153000196442,1371.3537031000014,None,1371.8667850999627,None,1371.8667850999627,None,n,0.10891880001872778,1371.8667850999627,None,0.10891880001872778,,,134Sing,001,2023_Oct_06_1155,ProdSingRedoBetween,2021.2.3,59.97641724677587,
,,,,76,0,76,0,,,,,,,,,,,,,,,,,,,,,,1374.6283751999727,None,,,,,,,,,,,,,,,,,bureau,65,77,sing,old,red,1372.5193645999534,None,1372.5193645999534,None,6,1.3605513999937102,1372.5193645999534,None,1.3605513999937102,1373.909863699926,None,1374.4249862999422,None,1374.4249862999422,None,r,0.17487240000627935,1374.4249862999422,None,0.17487240000627935,,,134Sing,001,2023_Oct_06_1155,ProdSingRedoBetween,2021.2.3,59.97641724677587,
,,,,77,0,77,0,,,,,,,,,,,,,,,,,,,,,,1377.0553796999156,None,,,,,,,,,,,,,,,,,brief,135,78,sing,new,null,1375.146977599943,None,1375.146977599943,None,2,1.236535400035791,1375.146977599943,None,1.236535400035791,1376.4053791000042,None,1376.9115848999936,None,1376.9115848999936,None,n,0.12014829996041954,1376.9115848999936,None,0.12014829996041954,,,134Sing,001,2023_Oct_06_1155,ProdSingRedoBetween,2021.2.3,59.97641724677587,
,,,,78,0,78,0,,,,,,,,,,,,,,,,,,,,,,1379.5417936999584,None,,,,,,,,,,,,,,,,,growth,152,79,sing,new,null,1377.5634218999185,None,1377.5634218999185,None,2,1.3882485000649467,1377.5634218999185,None,1.3882485000649467,1378.9756031000288,None,1379.491147599998,None,1379.491147599998,None,n,0.020540300058200955,1379.491147599998,None,0.020540300058200955,,,134Sing,001,2023_Oct_06_1155,ProdSingRedoBetween,2021.2.3,59.97641724677587,
,,,,79,0,79,0,,,,,,,,,,,,,,,,,,,,,,1383.7451296999352,None,,,,,,,,,,,,,,,,,division,104,80,sing,new,null,1380.050409700023,None,1380.050409700023,None,2,2.8132983000250533,1380.050409700023,None,2.8132983000250533,1382.9068086999469,None,1383.4163157999283,None,1383.4163157999283,None,n,0.3113320000702515,1383.4163157999283,None,0.3113320000702515,,,134Sing,001,2023_Oct_06_1155,ProdSingRedoBetween,2021.2.3,59.97641724677587,
,,,,80,0,80,0,,,,,,,,,,,,,,,,,,,,,,1386.8834666999755,None,,,,,,,,,,,,,,,,,express,99,81,sing,new,null,1384.2626562999794,None,1384.2626562999794,None,1,1.8730920000234619,1384.2626562999794,None,1.8730920000234619,1386.1702502999688,None,1386.6815802999772,None,1386.6815802999772,None,n,0.1820644000545144,1386.6815802999772,None,0.1820644000545144,,,134Sing,001,2023_Oct_06_1155,ProdSingRedoBetween,2021.2.3,59.97641724677587,
,,,,81,0,81,0,,,,,,,,,,,,,,,,,,,,,,1389.3839482999174,None,,,,,,,,,,,,,,,,,build,139,82,sing,new,null,1387.3929021999938,None,1387.3929021999938,None,4,1.1909600000362843,1387.3929021999938,None,1.1909600000362843,1388.603339800029,None,1389.1255070000188,None,1389.1255070000188,None,f,0.24233909999020398,1389.1255070000188,None,0.24233909999020398,,,134Sing,001,2023_Oct_06_1155,ProdSingRedoBetween,2021.2.3,59.97641724677587,
,,,,82,0,82,0,,,,,,,,,,,,,,,,,,,,,,1392.807065299945,None,,,,,,,,,,,,,,,,,angle,166,83,sing,new,null,1389.8895112000173,None,1389.8895112000173,None,2,2.2623131999280304,1389.8895112000173,None,2.2623131999280304,1392.1772052999586,None,1392.6877350999275,None,1392.6877350999275,None,n,0.09601729991845787,1392.6877350999275,None,0.09601729991845787,,,134Sing,001,2023_Oct_06_1155,ProdSingRedoBetween,2021.2.3,59.97641724677587,
,,,,83,0,83,0,,,,,,,,,,,,,,,,,,,,,,1396.8285661999835,None,,,,,,,,,,,,,,,,,engineer,32,84,sing,old,blue,1393.3230042000068,None,1393.3230042000068,None,3,2.9245796999894083,1393.3230042000068,None,2.9245796999894083,1396.2751411999343,None,1396.7797006999608,None,1396.7797006999608,None,n,0.020123500027693808,1396.7797006999608,None,0.020123500027693808,,,134Sing,001,2023_Oct_06_1155,ProdSingRedoBetween,2021.2.3,59.97641724677587,
,,,,84,0,84,0,,,,,,,,,,,,,,,,,,,,,,1400.4118235999485,None,,,,,,,,,,,,,,,,,weather,81,85,sing,old,red,1397.3508806999307,None,1397.3508806999307,None,2,2.192812600056641,1397.3508806999307,None,2.192812600056641,1399.5621084999293,None,1400.0673738999758,None,1400.0673738999758,None,n,0.3243492000037804,1400.0673738999758,None,0.3243492000037804,,,134Sing,001,2023_Oct_06_1155,ProdSingRedoBetween,2021.2.3,59.97641724677587,
,,,,85,0,85,0,,,,,,,,,,,,,,,,,,,,,,1402.9833468999714,None,,,,,,,,,,,,,,,,,welcome,160,86,sing,new,null,1400.9212803000119,None,1400.9212803000119,None,2,1.1024292999645695,1400.9212803000119,None,1.1024292999645695,1402.054520900012,None,1402.5681001999183,None,1402.5681001999183,None,n,0.38361550006084144,1402.5681001999183,None,0.38361550006084144,,,134Sing,001,2023_Oct_06_1155,ProdSingRedoBetween,2021.2.3,59.97641724677587,
,,,,86,0,86,0,,,,,,,,,,,,,,,,,,,,,,1405.5572636999423,None,,,,,,,,,,,,,,,,,disease,9,87,sing,old,yellow,1403.5039008000167,None,1403.5039008000167,None,3,1.3439302999759093,1403.5039008000167,None,1.3439302999759093,1404.8739152000053,None,1405.3877530000173,None,1405.3877530000173,None,n,0.14000749995466322,1405.3877530000173,None,0.14000749995466322,,,134Sing,001,2023_Oct_06_1155,ProdSingRedoBetween,2021.2.3,59.97641724677587,
,,,,87,0,87,0,,,,,,,,,,,,,,,,,,,,,,1409.957594599924,None,,,,,,,,,,,,,,,,,space,100,88,sing,new,null,1406.0740044999402,None,1406.0740044999402,None,3,3.069575900095515,1406.0740044999402,None,3.069575900095515,1409.1736338000046,None,1409.6992582000094,None,1409.6992582000094,None,n,0.23651189997326583,1409.6992582000094,None,0.23651189997326583,,,134Sing,001,2023_Oct_06_1155,ProdSingRedoBetween,2021.2.3,59.97641724677587,
,,,,88,0,88,0,,,,,,,,,,,,,,,,,,,,,,1412.4589427999454,None,,,,,,,,,,,,,,,,,length,10,89,sing,old,yellow,1410.4877243000083,None,1410.4877243000083,None,3,1.2400323000038043,1410.4877243000083,None,1.2400323000038043,1411.7604489999358,None,1412.2801761999726,None,1412.2801761999726,None,n,0.15148970007430762,1412.2801761999726,None,0.15148970007430762,,,134Sing,001,2023_Oct_06_1155,ProdSingRedoBetween,2021.2.3,59.97641724677587,
,,,,89,0,89,0,,,,,,,,,,,,,,,,,,,,,,1418.4134503999958,None,,,,,,,,,,,,,,,,,member,115,90,sing,new,null,1412.9751116000116,None,1412.9751116000116,None,3,4.736533300019801,1412.9751116000116,None,4.736533300019801,1417.7312133000232,None,1418.2494102999335,None,1418.2494102999335,None,n,0.13427659997250885,1418.2494102999335,None,0.13427659997250885,,,134Sing,001,2023_Oct_06_1155,ProdSingRedoBetween,2021.2.3,59.97641724677587,
,,,,90,0,90,0,,,,,,,,,,,,,,,,,,,,,,1422.3338848999701,None,,,,,,,,,,,,,,,,,portion,113,91,sing,new,null,1418.920440100017,None,1418.920440100017,None,2,1.5912258999887854,1418.920440100017,None,1.5912258999887854,1420.5332582999254,None,1421.032542699948,None,1421.032542699948,None,n,1.2791196000762284,1421.032542699948,None,1.2791196000762284,,,134Sing,001,2023_Oct_06_1155,ProdSingRedoBetween,2021.2.3,59.97641724677587,
,,,,91,0,91,0,,,,,,,,,,,,,,,,,,,,,,1425.5551494000247,None,,,,,,,,,,,,,,,,,strength,7,92,sing,old,yellow,1422.8342818999663,None,1422.8342818999663,None,4,2.1493894999148324,1422.8342818999663,None,2.1493894999148324,1425.006232899963,None,1425.5225683000172,None,1425.5225683000172,None,f,0.013288899906910956,1425.5225683000172,None,0.013288899906910956,,,134Sing,001,2023_Oct_06_1155,ProdSingRedoBetween,2021.2.3,59.97641724677587,
,,,,92,0,92,0,,,,,,,,,,,,,,,,,,,,,,1428.3426733999513,None,,,,,,,,,,,,,,,,,reach,105,93,sing,new,null,1426.0706734999549,None,1426.0706734999549,None,2,1.3850807999260724,1426.0706734999549,None,1.3850807999260724,1427.4791887999745,None,1427.999220800004,None,1427.999220800004,None,n,0.3206949000013992,1427.999220800004,None,0.3206949000013992,,,134Sing,001,2023_Oct_06_1155,ProdSingRedoBetween,2021.2.3,59.97641724677587,
,,,,93,0,93,0,,,,,,,,,,,,,,,,,,,,,,1431.2928782999516,None,,,,,,,,,,,,,,,,,theme,47,94,sing,old,blue,1428.8619410999818,None,1428.8619410999818,None,3,1.4579680999740958,1428.8619410999818,None,1.4579680999740958,1430.3477888000198,None,1430.859202099964,None,1430.859202099964,None,n,0.41275979997590184,1430.859202099964,None,0.41275979997590184,,,134Sing,001,2023_Oct_06_1155,ProdSingRedoBetween,2021.2.3,59.97641724677587,
,,,,94,0,94,0,,,,,,,,,,,,,,,,,,,,,,1434.7295491999248,None,,,,,,,,,,,,,,,,,track,97,95,sing,new,null,1431.7954893999267,None,1431.7954893999267,None,3,1.7801902000792325,1431.7954893999267,None,1.7801902000792325,1433.597294199979,None,1434.112253799918,None,1434.112253799918,None,n,0.5914555999916047,1434.112253799918,None,0.5914555999916047,,,134Sing,001,2023_Oct_06_1155,ProdSingRedoBetween,2021.2.3,59.97641724677587,
,,,,95,0,95,0,,,,,,,,,,,,,,,,,,,,,,1439.1505034000147,None,,,,,,,,,,,,,,,,,course,153,96,sing,new,null,1435.2368653999874,None,1435.2368653999874,None,2,1.3308459999971092,1435.2368653999874,None,1.3308459999971092,1436.5989476999966,None,1437.102399699972,None,1437.102399699972,None,n,2.033372199977748,1437.102399699972,None,2.033372199977748,,,134Sing,001,2023_Oct_06_1155,ProdSingRedoBetween,2021.2.3,59.97641724677587,
,,,,96,0,96,0,,,,,,,,,,,,,,,,,,,,,,1442.303803900024,None,,,,,,,,,,,,,,,,,individual,147,97,sing,new,null,1439.6623250999255,None,1439.6623250999255,None,2,1.9535000000614673,1439.6623250999255,None,1.9535000000614673,1441.6487599000102,None,1442.1586246999213,None,1442.1586246999213,None,n,0.12887819996103644,1442.1586246999213,None,0.12887819996103644,,,134Sing,001,2023_Oct_06_1155,ProdSingRedoBetween,2021.2.3,59.97641724677587,
,,,,97,0,97,0,,,,,,,,,,,,,,,,,,,,,,1445.8098525999812,None,,,,,,,,,,,,,,,,,series,40,98,sing,old,blue,1442.8163890999276,None,1442.8163890999276,None,3,2.2634254000149667,1442.8163890999276,None,2.2634254000149667,1445.113458000007,None,1445.6293202999514,None,1445.6293202999514,None,f,0.1544626000104472,1445.6293202999514,None,0.1544626000104472,,,134Sing,001,2023_Oct_06_1155,ProdSingRedoBetween,2021.2.3,59.97641724677587,
,,,,98,0,98,0,,,,,,,,,,,,,,,,,,,,,,1453.3813916000072,None,,,,,,,,,,,,,,,,,concern,38,99,sing,old,blue,1446.3289946999867,None,1446.3289946999867,None,3,5.742693300009705,1446.3289946999867,None,5.742693300009705,1452.098339100019,None,1452.609759700019,None,1452.609759700019,None,n,0.7499195999698713,1452.609759700019,None,0.7499195999698713,,,134Sing,001,2023_Oct_06_1155,ProdSingRedoBetween,2021.2.3,59.97641724677587,
,,,,99,0,99,0,,,,,,,,,,,,,,,,,,,,,,1457.6859321999364,None,,,,,,,,,,,,,,,,,clean,36,100,sing,old,blue,1453.8939206999494,None,1453.8939206999494,None,2,3.0497451000846922,1453.8939206999494,None,3.0497451000846922,1456.9702979000285,None,1457.4901508999756,None,1457.4901508999756,None,n,0.1735814999556169,1457.4901508999756,None,0.1735814999556169,,,134Sing,001,2023_Oct_06_1155,ProdSingRedoBetween,2021.2.3,59.97641724677587,
,,,,100,0,100,0,,,,,,,,,,,,,,,,,,,,,,1460.605553100002,None,,,,,,,,,,,,,,,,,childhood,116,101,sing,new,null,1458.1963910999475,None,1458.1963910999475,None,1,1.7392666999949142,1458.1963910999475,None,1.7392666999949142,1459.9574396000244,None,1460.4729666999774,None,1460.4729666999774,None,n,0.10276089992839843,1460.4729666999774,None,0.10276089992839843,,,134Sing,001,2023_Oct_06_1155,ProdSingRedoBetween,2021.2.3,59.97641724677587,
,,,,101,0,101,0,,,,,,,,,,,,,,,,,,,,,,1463.4584081999492,None,,,,,,,,,,,,,,,,,mayor,132,102,sing,new,null,1461.1227427999256,None,1461.1227427999256,None,2,1.7649145000614226,1461.1227427999256,None,1.7649145000614226,1462.909092499991,None,1463.4081972999265,None,1463.4081972999265,None,n,0.03154609992634505,1463.4081972999265,None,0.03154609992634505,,,134Sing,001,2023_Oct_06_1155,ProdSingRedoBetween,2021.2.3,59.97641724677587,
,,,,102,0,102,0,,,,,,,,,,,,,,,,,,,,,,1467.963738200022,None,,,,,,,,,,,,,,,,,territory,127,103,sing,new,null,1463.972752599977,None,1463.972752599977,None,3,1.8590612000552937,1463.972752599977,None,1.8590612000552937,1465.8659752999665,None,1466.385017600027,None,1466.385017600027,None,n,1.558905400102958,1466.385017600027,None,1.558905400102958,,,134Sing,001,2023_Oct_06_1155,ProdSingRedoBetween,2021.2.3,59.97641724677587,
,,,,103,0,103,0,,,,,,,,,,,,,,,,,,,,,,1470.381972400006,None,,,,,,,,,,,,,,,,,worker,86,104,sing,old,red,1468.4793483000249,None,1468.4793483000249,None,2,1.2485688999295235,1468.4793483000249,None,1.2485688999295235,1469.7558169999393,None,1470.2669843999902,None,1470.2669843999902,None,n,0.08477920002769679,1470.2669843999902,None,0.08477920002769679,,,134Sing,001,2023_Oct_06_1155,ProdSingRedoBetween,2021.2.3,59.97641724677587,
,,,,104,0,104,0,,,,,,,,,,,,,,,,,,,,,,1472.7843197999755,None,,,,,,,,,,,,,,,,,goose,154,105,sing,new,null,1470.8918493000092,None,1470.8918493000092,None,1,1.2998483000556007,1470.8918493000092,None,1.2998483000556007,1472.2205128999194,None,1472.7431152999634,None,1472.7431152999634,None,n,0.024650399922393262,1472.7431152999634,None,0.024650399922393262,,,134Sing,001,2023_Oct_06_1155,ProdSingRedoBetween,2021.2.3,59.97641724677587,
,,,,105,0,105,0,,,,,,,,,,,,,,,,,,,,,,1475.6704705000157,None,,,,,,,,,,,,,,,,,executive,39,106,sing,old,blue,1473.2968135999981,None,1473.2968135999981,None,6,1.7909050000598654,1473.2968135999981,None,1.7909050000598654,1475.111676099943,None,1475.6247500999598,None,1475.6247500999598,None,r,0.022986100055277348,1475.6247500999598,None,0.022986100055277348,,,134Sing,001,2023_Oct_06_1155,ProdSingRedoBetween,2021.2.3,59.97641724677587,
,,,,106,0,106,0,,,,,,,,,,,,,,,,,,,,,,1478.3231676999712,None,,,,,,,,,,,,,,,,,command,27,107,sing,old,yellow,1476.179867799976,None,1476.179867799976,None,3,1.5560037998948246,1476.179867799976,None,1.5560037998948246,1477.7670640000142,None,1478.27818569995,None,1478.27818569995,None,n,0.025546499993652105,1478.27818569995,None,0.025546499993652105,,,134Sing,001,2023_Oct_06_1155,ProdSingRedoBetween,2021.2.3,59.97641724677587,
,,,,107,0,107,0,,,,,,,,,,,,,,,,,,,,,,1480.7968738999916,None,,,,,,,,,,,,,,,,,answer,107,108,sing,new,null,1478.8327310000313,None,1478.8327310000313,None,2,1.0550040999660268,1478.8327310000313,None,1.0550040999660268,1479.9159518999513,None,1480.431481699925,None,1480.431481699925,None,n,0.33627909992355853,1480.431481699925,None,0.33627909992355853,,,134Sing,001,2023_Oct_06_1155,ProdSingRedoBetween,2021.2.3,59.97641724677587,
,,,,108,0,108,0,,,,,,,,,,,,,,,,,,,,,,1484.8878410999896,None,,,,,,,,,,,,,,,,,scale,171,109,sing,new,null,1481.3248822999885,None,1481.3248822999885,None,3,2.5867799000116065,1481.3248822999885,None,2.5867799000116065,1483.9311925999355,None,1484.4480398999294,None,1484.4480398999294,None,n,0.4156989000039175,1484.4480398999294,None,0.4156989000039175,,,134Sing,001,2023_Oct_06_1155,ProdSingRedoBetween,2021.2.3,59.97641724677587,
,,,,109,0,109,0,,,,,,,,,,,,,,,,,,,,,,1487.3155122000026,None,,,,,,,,,,,,,,,,,phrase,128,110,sing,new,null,1485.4050305000274,None,1485.4050305000274,None,3,1.234653600025922,1485.4050305000274,None,1.234653600025922,1486.667107300018,None,1487.1876511999872,None,1487.1876511999872,None,n,0.09996099991258234,1487.1876511999872,None,0.09996099991258234,,,134Sing,001,2023_Oct_06_1155,ProdSingRedoBetween,2021.2.3,59.97641724677587,
,,,,110,0,110,0,,,,,,,,,,,,,,,,,,,,,,1491.656595599954,None,,,,,,,,,,,,,,,,,fashion,117,111,sing,new,null,1487.828735899995,None,1487.828735899995,None,2,1.9711264999350533,1487.828735899995,None,1.9711264999350533,1489.8345021000132,None,1490.3467099999543,None,1490.3467099999543,None,n,1.277122600004077,1490.3467099999543,None,1.277122600004077,,,134Sing,001,2023_Oct_06_1155,ProdSingRedoBetween,2021.2.3,59.97641724677587,
,,,,111,0,111,0,,,,,,,,,,,,,,,,,,,,,,1494.05560349999,None,,,,,,,,,,,,,,,,,beginning,169,112,sing,new,null,1492.1747896999586,None,1492.1747896999586,None,1,1.0410135000711307,1492.1747896999586,None,1.0410135000711307,1493.2441945000319,None,1493.7591713999864,None,1493.7591713999864,None,n,0.27256389998365194,1493.7591713999864,None,0.27256389998365194,,,134Sing,001,2023_Oct_06_1155,ProdSingRedoBetween,2021.2.3,59.97641724677587,
,,,,112,0,112,0,,,,,,,,,,,,,,,,,,,,,,1496.5926237999229,None,,,,,,,,,,,,,,,,,history,179,113,sing,new,null,1494.5641189999878,None,1494.5641189999878,None,2,1.2916037000250071,1494.5641189999878,None,1.2916037000250071,1495.8752247999655,None,1496.3814306999557,None,1496.3814306999557,None,n,0.18637780006974936,1496.3814306999557,None,0.18637780006974936,,,134Sing,001,2023_Oct_06_1155,ProdSingRedoBetween,2021.2.3,59.97641724677587,
,,,,113,0,113,0,,,,,,,,,,,,,,,,,,,,,,1498.9104735000292,None,,,,,,,,,,,,,,,,,candidate,96,114,sing,new,null,1497.0947185999248,None,1497.0947185999248,None,2,1.073152899974957,1497.0947185999248,None,1.073152899974957,1498.2040817999514,None,1498.7126344999997,None,1498.7126344999997,None,n,0.1830927999690175,1498.7126344999997,None,0.1830927999690175,,,134Sing,001,2023_Oct_06_1155,ProdSingRedoBetween,2021.2.3,59.97641724677587,
,,,,114,0,114,0,,,,,,,,,,,,,,,,,,,,,,1501.262653499958,None,,,,,,,,,,,,,,,,,weight,98,115,sing,new,null,1499.4216416999698,None,1499.4216416999698,None,1,1.0421603999566287,1499.4216416999698,None,1.0421603999566287,1500.4896572999423,None,1500.9987212999258,None,1500.9987212999258,None,n,0.23299669998232275,1500.9987212999258,None,0.23299669998232275,,,134Sing,001,2023_Oct_06_1155,ProdSingRedoBetween,2021.2.3,59.97641724677587,
,,,,115,0,115,0,,,,,,,,,,,,,,,,,,,,,,1504.8496895999415,None,,,,,,,,,,,,,,,,,balance,155,116,sing,new,null,1501.780630299938,None,1501.780630299938,None,5,2.2351170999463648,1501.780630299938,None,2.2351170999463648,1504.0346078999573,None,1504.5510214000242,None,1504.5510214000242,None,f,0.2806980999885127,1504.5510214000242,None,0.2806980999885127,,,134Sing,001,2023_Oct_06_1155,ProdSingRedoBetween,2021.2.3,59.97641724677587,
,,,,116,0,116,0,,,,,,,,,,,,,,,,,,,,,,1507.687661999953,None,,,,,,,,,,,,,,,,,afternoon,31,117,sing,old,blue,1505.3624361000257,None,1505.3624361000257,None,2,1.5413894000230357,1505.3624361000257,None,1.5413894000230357,1506.9390681999503,None,1507.4614861999871,None,1507.4614861999871,None,n,0.20227720006369054,1507.4614861999871,None,0.20227720006369054,,,134Sing,001,2023_Oct_06_1155,ProdSingRedoBetween,2021.2.3,59.97641724677587,
,,,,117,0,117,0,,,,,,,,,,,,,,,,,,,,,,1510.4946170999901,None,,,,,,,,,,,,,,,,,couch,64,118,sing,old,red,1508.2150166999782,None,1508.2150166999782,None,1,1.4567290999693796,1508.2150166999782,None,1.4567290999693796,1509.6912715999642,None,1510.209940599976,None,1510.209940599976,None,n,0.2618052000179887,1510.209940599976,None,0.2618052000179887,,,134Sing,001,2023_Oct_06_1155,ProdSingRedoBetween,2021.2.3,59.97641724677587,
,,,,118,0,118,0,,,,,,,,,,,,,,,,,,,,,,1514.464949099929,None,,,,,,,,,,,,,,,,,appearance,46,119,sing,old,blue,1511.020464799949,None,1511.020464799949,None,1,2.243131799972616,1511.020464799949,None,2.243131799972616,1513.2949868999422,None,1513.8154125999426,None,1513.8154125999426,None,n,0.6244100999319926,1513.8154125999426,None,0.6244100999319926,,,134Sing,001,2023_Oct_06_1155,ProdSingRedoBetween,2021.2.3,59.97641724677587,
,,,,119,0,119,0,,,,,,,,,,,,,,,,,,,,,,1517.864709299989,None,,,,,,,,,,,,,,,,,number,170,120,sing,new,null,1514.9815073999343,None,1514.9815073999343,None,4,1.7221955000422895,1514.9815073999343,None,1.7221955000422895,1516.729279399966,None,1517.232808599947,None,1517.232808599947,None,f,0.6149199999636039,1517.232808599947,None,0.6149199999636039,,,134Sing,001,2023_Oct_06_1155,ProdSingRedoBetween,2021.2.3,59.97641724677587,
,,,,120,0,120,0,,,,,,,,,,,,,,,,,,,,,,1520.3088834999362,None,,,,,,,,,,,,,,,,,trial,118,121,sing,new,null,1518.396743600024,None,1518.396743600024,None,3,0.9470109000103548,1518.396743600024,None,0.9470109000103548,1519.3695602000225,None,1519.8815816999413,None,1519.8815816999413,None,n,0.3982865000143647,1519.8815816999413,None,0.3982865000143647,,,134Sing,001,2023_Oct_06_1155,ProdSingRedoBetween,2021.2.3,59.97641724677587,
,,,,121,0,121,0,,,,,,,,,,,,,,,,,,,,,,1524.1189000000013,None,,,,,,,,,,,,,,,,,quiet,126,122,sing,new,null,1520.8192877999973,None,1520.8192877999973,None,2,2.0444874999811873,1520.8192877999973,None,2.0444874999811873,1522.8926407999825,None,1523.4056072999956,None,1523.4056072999956,None,n,0.6900799000868574,1523.4056072999956,None,0.6900799000868574,,,134Sing,001,2023_Oct_06_1155,ProdSingRedoBetween,2021.2.3,59.97641724677587,
,,,,122,0,122,0,,,,,,,,,,,,,,,,,,,,,,1528.559057699982,None,,,,,,,,,,,,,,,,,under,87,123,sing,old,red,1524.6335932000075,None,1524.6335932000075,None,5,1.5100214999401942,1524.6335932000075,None,1.5100214999401942,1526.171290999977,None,1526.676466899924,None,1526.676466899924,None,f,1.8513365000253543,1526.676466899924,None,1.8513365000253543,,,134Sing,001,2023_Oct_06_1155,ProdSingRedoBetween,2021.2.3,59.97641724677587,
,,,,123,0,123,0,,,,,,,,,,,,,,,,,,,,,,1531.3444220999954,None,,,,,,,,,,,,,,,,,problem,108,124,sing,new,null,1529.081972099957,None,1529.081972099957,None,4,1.4698164999717847,1529.081972099957,None,1.4698164999717847,1530.5845135999843,None,1531.0931981999893,None,1531.0931981999893,None,n,0.23467819998040795,1531.0931981999893,None,0.23467819998040795,,,134Sing,001,2023_Oct_06_1155,ProdSingRedoBetween,2021.2.3,59.97641724677587,
,,,,124,0,124,0,,,,,,,,,,,,,,,,,,,,,,1539.5058565000072,None,,,,,,,,,,,,,,,,,front,146,125,sing,new,null,1531.8654603000032,None,1531.8654603000032,None,2,6.72641120001208,1531.8654603000032,None,6.72641120001208,1538.6249114000238,None,1539.1340924999677,None,1539.1340924999677,None,n,0.33782240003347397,1539.1340924999677,None,0.33782240003347397,,,134Sing,001,2023_Oct_06_1155,ProdSingRedoBetween,2021.2.3,59.97641724677587,
,,,,125,0,125,0,,,,,,,,,,,,,,,,,,,,,,1541.9868734999327,None,,,,,,,,,,,,,,,,,science,123,126,sing,new,null,1540.0303484000033,None,1540.0303484000033,None,1,1.305371900089085,1540.0303484000033,None,1.305371900089085,1541.3607727999333,None,1541.8698117999593,None,1541.8698117999593,None,n,0.09791529993526638,1541.8698117999593,None,0.09791529993526638,,,134Sing,001,2023_Oct_06_1155,ProdSingRedoBetween,2021.2.3,59.97641724677587,
,,,,126,0,126,0,,,,,,,,,,,,,,,,,,,,,,1545.773935599951,None,,,,,,,,,,,,,,,,,sight,5,127,sing,old,yellow,1542.4982977999607,None,1542.4982977999607,None,2,2.5814609000226483,1542.4982977999607,None,2.5814609000226483,1545.114029099932,None,1545.627977999975,None,1545.627977999975,None,n,0.11587450001388788,1545.627977999975,None,0.11587450001388788,,,134Sing,001,2023_Oct_06_1155,ProdSingRedoBetween,2021.2.3,59.97641724677587,
,,,,127,0,127,0,,,,,,,,,,,,,,,,,,,,,,1548.5599905999843,None,,,,,,,,,,,,,,,,,exchange,6,128,sing,old,yellow,1546.2874702999834,None,1546.2874702999834,None,4,1.680278200074099,1546.2874702999834,None,1.680278200074099,1547.9961984999245,None,1548.5140473999782,None,1548.5140473999782,None,f,0.021762200049124658,1548.5140473999782,None,0.021762200049124658,,,134Sing,001,2023_Oct_06_1155,ProdSingRedoBetween,2021.2.3,59.97641724677587,
,,,,128,0,128,0,,,,,,,,,,,,,,,,,,,,,,1551.646372099989,None,,,,,,,,,,,,,,,,,military,8,129,sing,old,yellow,1549.072639400023,None,1549.072639400023,None,6,1.6710254000499845,1549.072639400023,None,1.6710254000499845,1550.765297499951,None,1551.2867712000152,None,1551.2867712000152,None,r,0.3369494000216946,1551.2867712000152,None,0.3369494000216946,,,134Sing,001,2023_Oct_06_1155,ProdSingRedoBetween,2021.2.3,59.97641724677587,
,,,,129,0,129,0,,,,,,,,,,,,,,,,,,,,,,1556.3344849999994,None,,,,,,,,,,,,,,,,,heavy,51,130,sing,old,blue,1552.1542016000021,None,1552.1542016000021,None,3,2.7655652000103146,1552.1542016000021,None,2.7655652000103146,1554.9551778000314,None,1555.4717108999612,None,1555.4717108999612,None,n,0.847994799958542,1555.4717108999612,None,0.847994799958542,,,134Sing,001,2023_Oct_06_1155,ProdSingRedoBetween,2021.2.3,59.97641724677587,
,,,,130,0,130,0,,,,,,,,,,,,,,,,,,,,,,1560.5238534000237,None,,,,,,,,,,,,,,,,,dream,129,131,sing,new,null,1556.8467670999235,None,1556.8467670999235,None,2,2.177058400004171,1556.8467670999235,None,2.177058400004171,1559.0580862999195,None,1559.5788244999712,None,1559.5788244999712,None,n,0.9250650000758469,1559.5788244999712,None,0.9250650000758469,,,134Sing,001,2023_Oct_06_1155,ProdSingRedoBetween,2021.2.3,59.97641724677587,
,,,,131,0,131,0,,,,,,,,,,,,,,,,,,,,,,1562.974457699922,None,,,,,,,,,,,,,,,,,direction,125,132,sing,new,null,1561.0481385999592,None,1561.0481385999592,None,1,1.0876152999699116,1561.0481385999592,None,1.0876152999699116,1562.1635404999834,None,1562.6754354999866,None,1562.6754354999866,None,n,0.28427990002091974,1562.6754354999866,None,0.28427990002091974,,,134Sing,001,2023_Oct_06_1155,ProdSingRedoBetween,2021.2.3,59.97641724677587,
,,,,132,0,132,0,,,,,,,,,,,,,,,,,,,,,,1565.9274024999468,None,,,,,,,,,,,,,,,,,carry,136,133,sing,new,null,1563.4860837999731,None,1563.4860837999731,None,3,1.7217211000388488,1563.4860837999731,None,1.7217211000388488,1565.2279708000133,None,1565.7318483999697,None,1565.7318483999697,None,n,0.17995369993150234,1565.7318483999697,None,0.17995369993150234,,,134Sing,001,2023_Oct_06_1155,ProdSingRedoBetween,2021.2.3,59.97641724677587,
,,,,133,0,133,0,,,,,,,,,,,,,,,,,,,,,,1569.2503868999192,None,,,,,,,,,,,,,,,,,atmosphere,143,134,sing,new,null,1566.4280405999161,None,1566.4280405999161,None,2,2.139758800039999,1566.4280405999161,None,2.139758800039999,1568.5983931999654,None,1569.101404099958,None,1569.101404099958,None,n,0.1224106999579817,1569.101404099958,None,0.1224106999579817,,,134Sing,001,2023_Oct_06_1155,ProdSingRedoBetween,2021.2.3,59.97641724677587,
,,,,134,0,134,0,,,,,,,,,,,,,,,,,,,,,,1572.9843960999278,None,,,,,,,,,,,,,,,,,reading,101,135,sing,new,null,1569.773807200021,None,1569.773807200021,None,2,2.4979344999883324,1569.773807200021,None,2.4979344999883324,1572.3024477999425,None,1572.8178716999246,None,1572.8178716999246,None,n,0.14195050008129328,1572.8178716999246,None,0.14195050008129328,,,134Sing,001,2023_Oct_06_1155,ProdSingRedoBetween,2021.2.3,59.97641724677587,
,,,,135,0,135,0,,,,,,,,,,,,,,,,,,,,,,1576.4546076999977,None,,,,,,,,,,,,,,,,,production,22,136,sing,old,yellow,1573.496259199921,None,1573.496259199921,None,6,2.3034597999649122,1573.496259199921,None,2.3034597999649122,1575.8234113999642,None,1576.3446077000117,None,1576.3446077000117,None,r,0.07906160003039986,1576.3446077000117,None,0.07906160003039986,,,134Sing,001,2023_Oct_06_1155,ProdSingRedoBetween,2021.2.3,59.97641724677587,
,,,,136,0,136,0,,,,,,,,,,,,,,,,,,,,,,1582.2002426999388,None,,,,,,,,,,,,,,,,,shape,0,137,sing,old,yellow,1576.9680591999786,None,1576.9680591999786,None,2,4.663756099995226,1576.9680591999786,None,4.663756099995226,1581.6667613999452,None,1582.1818195999367,None,1582.1818195999367,None,n,0.0020270999521017075,1582.1818195999367,None,0.0020270999521017075,,,134Sing,001,2023_Oct_06_1155,ProdSingRedoBetween,2021.2.3,59.97641724677587,
,,,,137,0,137,0,,,,,,,,,,,,,,,,,,,,,,1584.7968717999756,None,,,,,,,,,,,,,,,,,guest,163,138,sing,new,null,1582.7264362999704,None,1582.7264362999704,None,3,1.1693289999384433,1582.7264362999704,None,1.1693289999384433,1583.9151573999552,None,1584.4334956000093,None,1584.4334956000093,None,n,0.33422909991350025,1584.4334956000093,None,0.33422909991350025,,,134Sing,001,2023_Oct_06_1155,ProdSingRedoBetween,2021.2.3,59.97641724677587,
,,,,138,0,138,0,,,,,,,,,,,,,,,,,,,,,,1587.265498499968,None,,,,,,,,,,,,,,,,,speech,131,139,sing,new,null,1585.3017830000026,None,1585.3017830000026,None,3,1.3942069000331685,1585.3017830000026,None,1.3942069000331685,1586.7208276999881,None,1587.2321105999872,None,1587.2321105999872,None,n,0.007736800005659461,1587.2321105999872,None,0.007736800005659461,,,134Sing,001,2023_Oct_06_1155,ProdSingRedoBetween,2021.2.3,59.97641724677587,
,,,,139,0,139,0,,,,,,,,,,,,,,,,,,,,,,1590.3269752999768,None,,,,,,,,,,,,,,,,,close,133,140,sing,new,null,1587.7743050999707,None,1587.7743050999707,None,3,1.945594499935396,1587.7743050999707,None,1.945594499935396,1589.74721089995,None,1590.2606733000139,None,1590.2606733000139,None,n,0.027219500043429434,1590.2606733000139,None,0.027219500043429434,,,134Sing,001,2023_Oct_06_1155,ProdSingRedoBetween,2021.2.3,59.97641724677587,
,,,,140,0,140,0,,,,,,,,,,,,,,,,,,,,,,1593.2231216999935,None,,,,,,,,,,,,,,,,,solution,57,141,sing,old,blue,1590.8494586999295,None,1590.8494586999295,None,4,1.3823349999729544,1590.8494586999295,None,1.3823349999729544,1592.2594155999832,None,1592.7754331999458,None,1592.7754331999458,None,f,0.42437419993802905,1592.7754331999458,None,0.42437419993802905,,,134Sing,001,2023_Oct_06_1155,ProdSingRedoBetween,2021.2.3,59.97641724677587,
,,,,141,0,141,0,,,,,,,,,,,,,,,,,,,,,,1595.7738508000039,None,,,,,,,,,,,,,,,,,degree,159,142,sing,new,null,1593.748247499927,None,1593.748247499927,None,4,1.275442700018175,1593.748247499927,None,1.275442700018175,1595.0413212999701,None,1595.5404221999925,None,1595.5404221999925,None,f,0.21143140003550798,1595.5404221999925,None,0.21143140003550798,,,134Sing,001,2023_Oct_06_1155,ProdSingRedoBetween,2021.2.3,59.97641724677587,
,,,,142,0,142,0,,,,,,,,,,,,,,,,,,,,,,1598.4932937999256,None,,,,,,,,,,,,,,,,,private,34,143,sing,old,blue,1596.2783584999852,None,1596.2783584999852,None,4,1.4895027000457048,1596.2783584999852,None,1.4895027000457048,1597.809795100009,None,1598.319251399953,None,1598.319251399953,None,f,0.15259099996183068,1598.319251399953,None,0.15259099996183068,,,134Sing,001,2023_Oct_06_1155,ProdSingRedoBetween,2021.2.3,59.97641724677587,
,,,,143,0,143,0,,,,,,,,,,,,,,,,,,,,,,1601.145909999963,None,,,,,,,,,,,,,,,,,conference,49,144,sing,old,blue,1599.0075339999748,None,1599.0075339999748,None,2,1.4002119000069797,1599.0075339999748,None,1.4002119000069797,1600.4319109999342,None,1600.9551566999871,None,1600.9551566999871,None,n,0.16455690003931522,1600.9551566999871,None,0.16455690003931522,,,134Sing,001,2023_Oct_06_1155,ProdSingRedoBetween,2021.2.3,59.97641724677587,
,,,,144,0,144,0,,,,,,,,,,,,,,,,,,,,,,1603.5157252999488,None,,,,,,,,,,,,,,,,,research,172,145,sing,new,null,1601.6575955000008,None,1601.6575955000008,None,3,1.1581232000607997,1601.6575955000008,None,1.1581232000607997,1602.8330880999565,None,1603.3480394999497,None,1603.3480394999497,None,n,0.14765880000777543,1603.3480394999497,None,0.14765880000777543,,,134Sing,001,2023_Oct_06_1155,ProdSingRedoBetween,2021.2.3,59.97641724677587,
,,,,145,0,145,0,,,,,,,,,,,,,,,,,,,,,,1605.9197120999452,None,,,,,,,,,,,,,,,,,murder,52,146,sing,old,blue,1604.0245258000214,None,1604.0245258000214,None,6,1.2071522999322042,1604.0245258000214,None,1.2071522999322042,1605.2499583000317,None,1605.752500899951,None,1605.752500899951,None,r,0.13537679996807128,1605.752500899951,None,0.13537679996807128,,,134Sing,001,2023_Oct_06_1155,ProdSingRedoBetween,2021.2.3,59.97641724677587,
,,,,146,0,146,0,,,,,,,,,,,,,,,,,,,,,,1608.8703319999622,None,,,,,,,,,,,,,,,,,meeting,58,147,sing,old,blue,1606.4383430000162,None,1606.4383430000162,None,4,1.7454448000062257,1606.4383430000162,None,1.7454448000062257,1608.2092967999633,None,1608.7234753000084,None,1608.7234753000084,None,f,0.11632409994490445,1608.7234753000084,None,0.11632409994490445,,,134Sing,001,2023_Oct_06_1155,ProdSingRedoBetween,2021.2.3,59.97641724677587,
,,,,147,0,147,0,,,,,,,,,,,,,,,,,,,,,,1611.1621665999992,None,,,,,,,,,,,,,,,,,smell,21,148,sing,old,yellow,1609.3897102000192,None,1609.3897102000192,None,2,1.034265200025402,1609.3897102000192,None,1.034265200025402,1610.462501199916,None,1610.9758477000287,None,1610.9758477000287,None,n,0.1600550999864936,1610.9758477000287,None,0.1600550999864936,,,134Sing,001,2023_Oct_06_1155,ProdSingRedoBetween,2021.2.3,59.97641724677587,
,,,,148,0,148,0,,,,,,,,,,,,,,,,,,,,,,1613.6416672000196,None,,,,,,,,,,,,,,,,,graduate,93,149,sing,new,null,1611.683333999943,None,1611.683333999943,None,3,1.308360500028357,1611.683333999943,None,1.308360500028357,1613.0084209999768,None,1613.5139708999777,None,1613.5139708999777,None,n,0.10209739999845624,1613.5139708999777,None,0.10209739999845624,,,134Sing,001,2023_Oct_06_1155,ProdSingRedoBetween,2021.2.3,59.97641724677587,
,,,,149,0,149,0,,,,,,,,,,,,,,,,,,,,,,1616.530518900021,None,,,,,,,,,,,,,,,,,machinery,114,150,sing,new,null,1614.1596016000258,None,1614.1596016000258,None,2,1.6721887999447063,1614.1596016000258,None,1.6721887999447063,1615.8637969000265,None,1616.378959499998,None,1616.378959499998,None,n,0.13274999998975545,1616.378959499998,None,0.13274999998975545,,,134Sing,001,2023_Oct_06_1155,ProdSingRedoBetween,2021.2.3,59.97641724677587,
,,,,150,0,150,0,,,,,,,,,,,,,,,,,,,,,,1619.2306850999594,None,,,,,,,,,,,,,,,,,threat,176,151,sing,new,null,1617.0574779999442,None,1617.0574779999442,None,3,1.5744012999348342,1617.0574779999442,None,1.5744012999348342,1618.6500933999196,None,1619.168448099983,None,1619.168448099983,None,n,0.03941209998447448,1619.168448099983,None,0.03941209998447448,,,134Sing,001,2023_Oct_06_1155,ProdSingRedoBetween,2021.2.3,59.97641724677587,
,,,,151,0,151,0,,,,,,,,,,,,,,,,,,,,,,1623.9707371999975,None,,,,,,,,,,,,,,,,,alert,1,152,sing,old,yellow,1619.7397590000182,None,1619.7397590000182,None,3,3.532078000018373,1619.7397590000182,None,3.532078000018373,1623.3068400999764,None,1623.8225647999207,None,1623.8225647999207,None,n,0.12919240002520382,1623.8225647999207,None,0.12919240002520382,,,134Sing,001,2023_Oct_06_1155,ProdSingRedoBetween,2021.2.3,59.97641724677587,
,,,,152,0,152,0,,,,,,,,,,,,,,,,,,,,,,1627.990744199953,None,,,,,,,,,,,,,,,,,partner,4,153,sing,old,yellow,1624.503736799932,None,1624.503736799932,None,3,2.872055000043474,1624.503736799932,None,2.872055000043474,1627.4082301999442,None,1627.9290763000026,None,1627.9290763000026,None,n,0.03871770005207509,1627.9290763000026,None,0.03871770005207509,,,134Sing,001,2023_Oct_06_1155,ProdSingRedoBetween,2021.2.3,59.97641724677587,
,,,,153,0,153,0,,,,,,,,,,,,,,,,,,,,,,1630.3750041000312,None,,,,,,,,,,,,,,,,,season,61,154,sing,old,red,1628.496290699928,None,1628.496290699928,None,4,0.9833867000415921,1628.496290699928,None,0.9833867000415921,1629.5083432999672,None,1630.0082276000176,None,1630.0082276000176,None,n,0.3515979000367224,1630.0082276000176,None,0.3515979000367224,,,134Sing,001,2023_Oct_06_1155,ProdSingRedoBetween,2021.2.3,59.97641724677587,
,,,,154,0,154,0,,,,,,,,,,,,,,,,,,,,,,1634.914437899948,None,,,,,,,,,,,,,,,,,throw,80,155,sing,old,red,1630.8921014999505,None,1630.8921014999505,None,5,3.4196470000315458,1630.8921014999505,None,3.4196470000315458,1634.3360105999745,None,1634.8548717999365,None,1634.8548717999365,None,f,0.03293159999884665,1634.8548717999365,None,0.03293159999884665,,,134Sing,001,2023_Oct_06_1155,ProdSingRedoBetween,2021.2.3,59.97641724677587,
,,,,155,0,155,0,,,,,,,,,,,,,,,,,,,,,,1637.5154631999321,None,,,,,,,,,,,,,,,,,pancakes,92,156,sing,new,null,1635.4218287999975,None,1635.4218287999975,None,1,1.161957599921152,1635.4218287999975,None,1.161957599921152,1636.616874499945,None,1637.139217799995,None,1637.139217799995,None,n,0.35664269991684705,1637.139217799995,None,0.35664269991684705,,,134Sing,001,2023_Oct_06_1155,ProdSingRedoBetween,2021.2.3,59.97641724677587,
,,,,156,0,156,0,,,,,,,,,,,,,,,,,,,,,,1640.0514965999173,None,,,,,,,,,,,,,,,,,frank,77,157,sing,old,red,1638.024179799948,None,1638.024179799948,None,2,1.1439803000539541,1638.024179799948,None,1.1439803000539541,1639.19453410001,None,1639.7123108999804,None,1639.7123108999804,None,n,0.31944930006284267,1639.7123108999804,None,0.31944930006284267,,,134Sing,001,2023_Oct_06_1155,ProdSingRedoBetween,2021.2.3,59.97641724677587,
,,,,157,0,157,0,,,,,,,,,,,,,,,,,,,,,,1643.4425485000247,None,,,,,,,,,,,,,,,,,bright,168,158,sing,new,null,1640.5658301999792,None,1640.5658301999792,None,3,2.1139886000892147,1640.5658301999792,None,2.1139886000892147,1642.7105915999273,None,1643.2243532999419,None,1643.2243532999419,None,n,0.18349379999563098,1643.2243532999419,None,0.18349379999563098,,,134Sing,001,2023_Oct_06_1155,ProdSingRedoBetween,2021.2.3,59.97641724677587,
,,,,158,0,158,0,,,,,,,,,,,,,,,,,,,,,,1645.9920987000223,None,,,,,,,,,,,,,,,,,dance,17,159,sing,old,yellow,1643.9710557999788,None,1643.9710557999788,None,2,1.2447751000290737,1643.9710557999788,None,1.2447751000290737,1645.247731499956,None,1645.7573497999692,None,1645.7573497999692,None,n,0.21851190004963428,1645.7573497999692,None,0.21851190004963428,,,134Sing,001,2023_Oct_06_1155,ProdSingRedoBetween,2021.2.3,59.97641724677587,
,,,,159,0,159,0,,,,,,,,,,,,,,,,,,,,,,1648.3850395999616,None,,,,,,,,,,,,,,,,,minor,121,160,sing,new,null,1646.4986020999495,None,1646.4986020999495,None,2,1.1651548000518233,1646.4986020999495,None,1.1651548000518233,1647.694834999973,None,1648.2096058999887,None,1648.2096058999887,None,n,0.14220699993893504,1648.2096058999887,None,0.14220699993893504,,,134Sing,001,2023_Oct_06_1155,ProdSingRedoBetween,2021.2.3,59.97641724677587,
,,,,160,0,160,0,,,,,,,,,,,,,,,,,,,,,,1651.2293673999375,None,,,,,,,,,,,,,,,,,smooth,138,161,sing,new,null,1648.9013650999404,None,1648.9013650999404,None,2,1.6584567000390962,1648.9013650999404,None,1.6584567000390962,1650.5815692999167,None,1651.1010482999263,None,1651.1010482999263,None,n,0.09884109999984503,1651.1010482999263,None,0.09884109999984503,,,134Sing,001,2023_Oct_06_1155,ProdSingRedoBetween,2021.2.3,59.97641724677587,
,,,,161,0,161,0,,,,,,,,,,,,,,,,,,,,,,1654.4158813999966,None,,,,,,,,,,,,,,,,,profession,53,162,sing,old,blue,1651.7384799999418,None,1651.7384799999418,None,4,2.0054943000432104,1651.7384799999418,None,2.0054943000432104,1653.7663119999925,None,1654.2657301999861,None,1654.2657301999861,None,f,0.13401799998246133,1654.2657301999861,None,0.13401799998246133,,,134Sing,001,2023_Oct_06_1155,ProdSingRedoBetween,2021.2.3,59.97641724677587,
,,,,162,0,162,0,,,,,,,,,,,,,,,,,,,,,,1657.0185115999775,None,,,,,,,,,,,,,,,,,personnel,37,163,sing,old,blue,1654.927108899923,None,1654.927108899923,None,6,1.3686584000242874,1654.927108899923,None,1.3686584000242874,1656.3195314999903,None,1656.836562099983,None,1656.836562099983,None,r,0.15511870000045747,1656.836562099983,None,0.15511870000045747,,,134Sing,001,2023_Oct_06_1155,ProdSingRedoBetween,2021.2.3,59.97641724677587,
,,,,163,0,163,0,,,,,,,,,,,,,,,,,,,,,,1660.955724200001,None,,,,,,,,,,,,,,,,,commercial,90,164,sing,new,null,1657.529295300017,None,1657.529295300017,None,4,2.5106112000066787,1657.529295300017,None,2.5106112000066787,1660.0807789999526,None,1660.5909504999872,None,1660.5909504999872,None,f,0.34480429999530315,1660.5909504999872,None,0.34480429999530315,,,134Sing,001,2023_Oct_06_1155,ProdSingRedoBetween,2021.2.3,59.97641724677587,
,,,,164,0,164,0,,,,,,,,,,,,,,,,,,,,,,1667.1518328000093,None,,,,,,,,,,,,,,,,,strain,12,165,sing,old,yellow,1661.4640047999565,None,1661.4640047999565,None,3,4.13578749995213,1661.4640047999565,None,4.13578749995213,1665.6314704000251,None,1666.1448081999552,None,1666.1448081999552,None,n,0.9751142000313848,1666.1448081999552,None,0.9751142000313848,,,134Sing,001,2023_Oct_06_1155,ProdSingRedoBetween,2021.2.3,59.97641724677587,
,,,,165,0,165,0,,,,,,,,,,,,,,,,,,,,,,1669.6996643999591,None,,,,,,,,,,,,,,,,,region,150,166,sing,new,null,1667.6755354999332,None,1667.6755354999332,None,2,1.0764630999183282,1667.6755354999332,None,1.0764630999183282,1668.7895902999444,None,1669.3008431999478,None,1669.3008431999478,None,n,0.3789374999469146,1669.3008431999478,None,0.3789374999469146,,,134Sing,001,2023_Oct_06_1155,ProdSingRedoBetween,2021.2.3,59.97641724677587,
,,,,166,0,166,0,,,,,,,,,,,,,,,,,,,,,,1672.2520278999582,None,,,,,,,,,,,,,,,,,junior,78,167,sing,old,red,1670.2265917999903,None,1670.2265917999903,None,2,1.181304799974896,1670.2265917999903,None,1.181304799974896,1671.440348199918,None,1671.9554211000213,None,1671.9554211000213,None,n,0.2683279999764636,1671.9554211000213,None,0.2683279999764636,,,134Sing,001,2023_Oct_06_1155,ProdSingRedoBetween,2021.2.3,59.97641724677587,
,,,,167,0,167,0,,,,,,,,,,,,,,,,,,,,,,1674.9377014000202,None,,,,,,,,,,,,,,,,,resistance,173,168,sing,new,null,1672.7834797999822,None,1672.7834797999822,None,3,1.4403602000093088,1672.7834797999822,None,1.4403602000093088,1674.2575934999622,None,1674.7840293999761,None,1674.7840293999761,None,n,0.1358028999529779,1674.7840293999761,None,0.1358028999529779,,,134Sing,001,2023_Oct_06_1155,ProdSingRedoBetween,2021.2.3,59.97641724677587,
,,,,168,0,168,0,,,,,,,,,,,,,,,,,,,,,,1677.071867199964,None,,,,,,,,,,,,,,,,,institute,109,169,sing,new,null,1675.449097399949,None,1675.449097399949,None,4,0.9027362000197172,1675.449097399949,None,0.9027362000197172,1676.3735471999971,None,1676.8900813999353,None,1676.8900813999353,None,f,0.1655870999675244,1676.8900813999353,None,0.1655870999675244,,,134Sing,001,2023_Oct_06_1155,ProdSingRedoBetween,2021.2.3,59.97641724677587,
,,,,169,0,169,0,,,,,,,,,,,,,,,,,,,,,,1679.6411151000066,None,,,,,,,,,,,,,,,,,congress,54,170,sing,old,blue,1677.5800173999742,None,1677.5800173999742,None,6,1.2599077000049874,1677.5800173999742,None,1.2599077000049874,1678.8688358999789,None,1679.3794062000234,None,1679.3794062000234,None,r,0.2443722999887541,1679.3794062000234,None,0.2443722999887541,,,134Sing,001,2023_Oct_06_1155,ProdSingRedoBetween,2021.2.3,59.97641724677587,
,,,,170,0,170,0,,,,,,,,,,,,,,,,,,,,,,1682.5604029999813,None,,,,,,,,,,,,,,,,,colonel,151,171,sing,new,null,1680.1530955999624,None,1680.1530955999624,None,1,1.6709449000190943,1680.1530955999624,None,1.6709449000190943,1681.8543889999855,None,1682.3604803999187,None,1682.3604803999187,None,n,0.18330810009501874,1682.3604803999187,None,0.18330810009501874,,,134Sing,001,2023_Oct_06_1155,ProdSingRedoBetween,2021.2.3,59.97641724677587,
,,,,171,0,171,0,,,,,,,,,,,,,,,,,,,,,,1685.029522500001,None,,,,,,,,,,,,,,,,,article,103,172,sing,new,null,1683.063952299999,None,1683.063952299999,None,2,1.0399753999663517,1683.063952299999,None,1.0399753999663517,1684.1372890999774,None,1684.6486175999744,None,1684.6486175999744,None,n,0.35123919998295605,1684.6486175999744,None,0.35123919998295605,,,134Sing,001,2023_Oct_06_1155,ProdSingRedoBetween,2021.2.3,59.97641724677587,
,,,,172,0,172,0,,,,,,,,,,,,,,,,,,,,,,1689.1672129000071,None,,,,,,,,,,,,,,,,,accident,26,173,sing,old,yellow,1685.5345215999987,None,1685.5345215999987,None,4,3.03332050004974,1685.5345215999987,None,3.03332050004974,1688.587990000029,None,1689.105967200012,None,1689.105967200012,None,f,0.0458088000304997,1689.105967200012,None,0.0458088000304997,,,134Sing,001,2023_Oct_06_1155,ProdSingRedoBetween,2021.2.3,59.97641724677587,
,,,,173,0,173,0,,,,,,,,,,,,,,,,,,,,,,1691.6708347999956,None,,,,,,,,,,,,,,,,,union,29,174,sing,old,blue,1689.6743147999514,None,1689.6743147999514,None,5,1.3894628999987617,1689.6743147999514,None,1.3894628999987617,1691.0868753999239,None,1691.590263799997,None,1691.590263799997,None,f,0.05758809996768832,1691.590263799997,None,0.05758809996768832,,,134Sing,001,2023_Oct_06_1155,ProdSingRedoBetween,2021.2.3,59.97641724677587,
,,,,174,0,174,0,,,,,,,,,,,,,,,,,,,,,,1694.5727227999596,None,,,,,,,,,,,,,,,,,running,84,175,sing,old,red,1692.1861565000145,None,1692.1861565000145,None,3,1.8056373000144958,1692.1861565000145,None,1.8056373000144958,1694.0232979999855,None,1694.5293570000213,None,1694.5293570000213,None,n,0.014383099973201752,1694.5293570000213,None,0.014383099973201752,,,134Sing,001,2023_Oct_06_1155,ProdSingRedoBetween,2021.2.3,59.97641724677587,
,,,,175,0,175,0,,,,,,,,,,,,,,,,,,,,,,1697.2920767000178,None,,,,,,,,,,,,,,,,,character,20,176,sing,old,yellow,1695.086511499947,None,1695.086511499947,None,5,1.529272900079377,1695.086511499947,None,1.529272900079377,1696.643312899978,None,1697.1587281000102,None,1697.1587281000102,None,f,0.11305519996676594,1697.1587281000102,None,0.11305519996676594,,,134Sing,001,2023_Oct_06_1155,ProdSingRedoBetween,2021.2.3,59.97641724677587,
