StudyLoop.thisRepN,StudyLoop.thisTrialN,StudyLoop.thisN,StudyLoop.thisIndex,TestLoop.thisRepN,TestLoop.thisTrialN,TestLoop.thisN,TestLoop.thisIndex,textCondition.started,textCondition.stopped,keyCondition.keys,keyCondition.rt,keyCondition.started,keyCondition.stopped,Condition,textWelcome.started,textWelcome.stopped,keyWelcome.keys,keyWelcome.rt,keyWelcome.started,keyWelcome.stopped,textAloud.started,textAloud.stopped,textSilent.started,textSilent.stopped,textSing.started,textSing.stopped,conditional_text.started,conditional_text.stopped,textBlank500.started,textBlank500.stopped,study_word,study_num,study_order,study_type,word_color,textStudy.started,textStudy.stopped,keyStudy.keys,keyStudy.started,keyStudy.stopped,textTestInstructions.started,textTestInstructions.stopped,key_resp_3.keys,key_resp_3.rt,key_resp_3.started,key_resp_3.stopped,test_word,test_num,test_order,test_condition,old_new_test,test_word_original_color,textConf.started,textConf.stopped,textConfScale.started,textConfScale.stopped,keyConf.keys,keyConf.rt,keyConf.started,keyConf.stopped,confidence response time,textTestBlank.started,textTestBlank.stopped,textRKN.started,textRKN.stopped,textRKNScale.started,textRKNScale.stopped,keyRKN.keys,keyRKN.rt,keyRKN.started,keyRKN.stopped,rkn response time,textEnd.started,textEnd.stopped,participant,session,date,expName,psychopyVersion,frameRate,
,,,,,,,,24.844889999978477,None,a,3.465813499991782,24.844889999978477,None,,,,,,,,,,,,,,,,,,,,,,,,,,,,,,,,,,,,,,,,,,,,,,,,,,,,,,,,,,,,,,135Silent,001,2023_Oct_26_0837,ProdSingRedoBetween,2021.2.3,59.921000155251505,
,,,,,,,,,,,,,,SilentTest,28.37132809998002,None,space,175.97940879999078,28.37132809998002,None,,,,,,,,,,,,,,,,,,,,,,,,,,,,,,,,,,,,,,,,,,,,,,,,,,,,,,,135Silent,001,2023_Oct_26_0837,ProdSingRedoBetween,2021.2.3,59.921000155251505,
0,0,0,0,,,,,,,,,,,,,,,,,,28.37132809998002,None,28.37132809998002,None,28.37132809998002,None,28.37132809998002,None,206.8949666999979,None,orchestra,89,1,silent,red,204.88078649999807,None,None,204.88078649999807,None,,,,,,,,,,,,,,,,,,,,,,,,,,,,,,,,,,,135Silent,001,2023_Oct_26_0837,ProdSingRedoBetween,2021.2.3,59.921000155251505,
1,0,1,0,,,,,,,,,,,,,,,,,,,,,,,,,,209.39755259998492,None,property,85,2,silent,red,207.39595409997855,None,None,207.39595409997855,None,,,,,,,,,,,,,,,,,,,,,,,,,,,,,,,,,,,135Silent,001,2023_Oct_26_0837,ProdSingRedoBetween,2021.2.3,59.921000155251505,
2,0,2,0,,,,,,,,,,,,,,,,,,,,,,,,,,211.9002283999871,None,review,68,3,silent,red,209.89813059999142,None,None,209.89813059999142,None,,,,,,,,,,,,,,,,,,,,,,,,,,,,,,,,,,,135Silent,001,2023_Oct_26_0837,ProdSingRedoBetween,2021.2.3,59.921000155251505,
3,0,3,0,,,,,,,,,,,,,,,,,,,,,,,,,,214.4028435999935,None,dance,84,4,silent,red,212.40074159999494,None,None,212.40074159999494,None,,,,,,,,,,,,,,,,,,,,,,,,,,,,,,,,,,,135Silent,001,2023_Oct_26_0837,ProdSingRedoBetween,2021.2.3,59.921000155251505,
4,0,4,0,,,,,,,,,,,,,,,,,,,,,,,,,,216.90520779998042,None,citizen,34,5,silent,blue,214.90301429998362,None,None,214.90301429998362,None,,,,,,,,,,,,,,,,,,,,,,,,,,,,,,,,,,,135Silent,001,2023_Oct_26_0837,ProdSingRedoBetween,2021.2.3,59.921000155251505,
5,0,5,0,,,,,,,,,,,,,,,,,,,,,,,,,,219.4076196999813,None,partner,40,6,silent,blue,217.4057464999787,None,None,217.4057464999787,None,,,,,,,,,,,,,,,,,,,,,,,,,,,,,,,,,,,135Silent,001,2023_Oct_26_0837,ProdSingRedoBetween,2021.2.3,59.921000155251505,
6,0,6,0,,,,,,,,,,,,,,,,,,,,,,,,,,221.92686229999526,None,attack,12,7,silent,yellow,219.9178385999985,None,None,219.9178385999985,None,,,,,,,,,,,,,,,,,,,,,,,,,,,,,,,,,,,135Silent,001,2023_Oct_26_0837,ProdSingRedoBetween,2021.2.3,59.921000155251505,
7,0,7,0,,,,,,,,,,,,,,,,,,,,,,,,,,224.42921370000113,None,production,35,8,silent,blue,222.42731139998068,None,None,222.42731139998068,None,,,,,,,,,,,,,,,,,,,,,,,,,,,,,,,,,,,135Silent,001,2023_Oct_26_0837,ProdSingRedoBetween,2021.2.3,59.921000155251505,
8,0,8,0,,,,,,,,,,,,,,,,,,,,,,,,,,226.93187460000627,None,comedy,42,9,silent,blue,224.9297042999824,None,None,224.9297042999824,None,,,,,,,,,,,,,,,,,,,,,,,,,,,,,,,,,,,135Silent,001,2023_Oct_26_0837,ProdSingRedoBetween,2021.2.3,59.921000155251505,
9,0,9,0,,,,,,,,,,,,,,,,,,,,,,,,,,229.43443530000513,None,fellow,4,10,silent,yellow,227.43214759998955,None,None,227.43214759998955,None,,,,,,,,,,,,,,,,,,,,,,,,,,,,,,,,,,,135Silent,001,2023_Oct_26_0837,ProdSingRedoBetween,2021.2.3,59.921000155251505,
10,0,10,0,,,,,,,,,,,,,,,,,,,,,,,,,,231.93680949998088,None,comfort,48,11,silent,blue,229.9350102999888,None,None,229.9350102999888,None,,,,,,,,,,,,,,,,,,,,,,,,,,,,,,,,,,,135Silent,001,2023_Oct_26_0837,ProdSingRedoBetween,2021.2.3,59.921000155251505,
11,0,11,0,,,,,,,,,,,,,,,,,,,,,,,,,,234.43915809999453,None,resistance,59,12,silent,yellow,232.43750470000668,None,None,232.43750470000668,None,,,,,,,,,,,,,,,,,,,,,,,,,,,,,,,,,,,135Silent,001,2023_Oct_26_0837,ProdSingRedoBetween,2021.2.3,59.921000155251505,
12,0,12,0,,,,,,,,,,,,,,,,,,,,,,,,,,236.94175470000482,None,junior,54,13,silent,blue,234.93988099999842,None,None,234.93988099999842,None,,,,,,,,,,,,,,,,,,,,,,,,,,,,,,,,,,,135Silent,001,2023_Oct_26_0837,ProdSingRedoBetween,2021.2.3,59.921000155251505,
13,0,13,0,,,,,,,,,,,,,,,,,,,,,,,,,,239.44455949999974,None,problem,62,14,silent,red,237.44249759998638,None,None,237.44249759998638,None,,,,,,,,,,,,,,,,,,,,,,,,,,,,,,,,,,,135Silent,001,2023_Oct_26_0837,ProdSingRedoBetween,2021.2.3,59.921000155251505,
14,0,14,0,,,,,,,,,,,,,,,,,,,,,,,,,,241.9470716000069,None,ground,2,15,silent,yellow,239.94488209998235,None,None,239.94488209998235,None,,,,,,,,,,,,,,,,,,,,,,,,,,,,,,,,,,,135Silent,001,2023_Oct_26_0837,ProdSingRedoBetween,2021.2.3,59.921000155251505,
15,0,15,0,,,,,,,,,,,,,,,,,,,,,,,,,,244.4493514999922,None,taste,57,16,silent,blue,242.44732449998264,None,None,242.44732449998264,None,,,,,,,,,,,,,,,,,,,,,,,,,,,,,,,,,,,135Silent,001,2023_Oct_26_0837,ProdSingRedoBetween,2021.2.3,59.921000155251505,
16,0,16,0,,,,,,,,,,,,,,,,,,,,,,,,,,246.95169069999247,None,industry,9,17,silent,yellow,244.94974019998335,None,None,244.94974019998335,None,,,,,,,,,,,,,,,,,,,,,,,,,,,,,,,,,,,135Silent,001,2023_Oct_26_0837,ProdSingRedoBetween,2021.2.3,59.921000155251505,
17,0,17,0,,,,,,,,,,,,,,,,,,,,,,,,,,249.45432849999634,None,drove,29,18,silent,blue,247.45234970000456,None,None,247.45234970000456,None,,,,,,,,,,,,,,,,,,,,,,,,,,,,,,,,,,,135Silent,001,2023_Oct_26_0837,ProdSingRedoBetween,2021.2.3,59.921000155251505,
18,0,18,0,,,,,,,,,,,,,,,,,,,,,,,,,,251.95685029999004,None,volume,55,19,silent,blue,249.95792009998695,None,None,249.95792009998695,None,,,,,,,,,,,,,,,,,,,,,,,,,,,,,,,,,,,135Silent,001,2023_Oct_26_0837,ProdSingRedoBetween,2021.2.3,59.921000155251505,
19,0,19,0,,,,,,,,,,,,,,,,,,,,,,,,,,254.4595139999874,None,skill,81,20,silent,red,252.45752739999443,None,None,252.45752739999443,None,,,,,,,,,,,,,,,,,,,,,,,,,,,,,,,,,,,135Silent,001,2023_Oct_26_0837,ProdSingRedoBetween,2021.2.3,59.921000155251505,
20,0,20,0,,,,,,,,,,,,,,,,,,,,,,,,,,256.96209570000065,None,trail,73,21,silent,red,254.9598299000063,None,None,254.9598299000063,None,,,,,,,,,,,,,,,,,,,,,,,,,,,,,,,,,,,135Silent,001,2023_Oct_26_0837,ProdSingRedoBetween,2021.2.3,59.921000155251505,
21,0,21,0,,,,,,,,,,,,,,,,,,,,,,,,,,259.464393799979,None,swift,77,22,silent,red,257.4623425999889,None,None,257.4623425999889,None,,,,,,,,,,,,,,,,,,,,,,,,,,,,,,,,,,,135Silent,001,2023_Oct_26_0837,ProdSingRedoBetween,2021.2.3,59.921000155251505,
22,0,22,0,,,,,,,,,,,,,,,,,,,,,,,,,,261.9667008999968,None,death,10,23,silent,yellow,259.96469279998564,None,None,259.96469279998564,None,,,,,,,,,,,,,,,,,,,,,,,,,,,,,,,,,,,135Silent,001,2023_Oct_26_0837,ProdSingRedoBetween,2021.2.3,59.921000155251505,
23,0,23,0,,,,,,,,,,,,,,,,,,,,,,,,,,264.46958919998724,None,union,38,24,silent,blue,262.4673119999934,None,None,262.4673119999934,None,,,,,,,,,,,,,,,,,,,,,,,,,,,,,,,,,,,135Silent,001,2023_Oct_26_0837,ProdSingRedoBetween,2021.2.3,59.921000155251505,
24,0,24,0,,,,,,,,,,,,,,,,,,,,,,,,,,266.97184709997964,None,number,63,25,silent,red,264.9699460999982,None,None,264.9699460999982,None,,,,,,,,,,,,,,,,,,,,,,,,,,,,,,,,,,,135Silent,001,2023_Oct_26_0837,ProdSingRedoBetween,2021.2.3,59.921000155251505,
25,0,25,0,,,,,,,,,,,,,,,,,,,,,,,,,,269.47452099999646,None,capital,86,26,silent,red,267.47502859999076,None,None,267.47502859999076,None,,,,,,,,,,,,,,,,,,,,,,,,,,,,,,,,,,,135Silent,001,2023_Oct_26_0837,ProdSingRedoBetween,2021.2.3,59.921000155251505,
26,0,26,0,,,,,,,,,,,,,,,,,,,,,,,,,,271.976720799983,None,equipment,20,27,silent,yellow,269.9747686999908,None,None,269.9747686999908,None,,,,,,,,,,,,,,,,,,,,,,,,,,,,,,,,,,,135Silent,001,2023_Oct_26_0837,ProdSingRedoBetween,2021.2.3,59.921000155251505,
27,0,27,0,,,,,,,,,,,,,,,,,,,,,,,,,,274.479342799983,None,brilliant,30,28,silent,blue,272.4774825999921,None,None,272.4774825999921,None,,,,,,,,,,,,,,,,,,,,,,,,,,,,,,,,,,,135Silent,001,2023_Oct_26_0837,ProdSingRedoBetween,2021.2.3,59.921000155251505,
28,0,28,0,,,,,,,,,,,,,,,,,,,,,,,,,,276.9820289000054,None,material,72,29,silent,red,274.98004769999534,None,None,274.98004769999534,None,,,,,,,,,,,,,,,,,,,,,,,,,,,,,,,,,,,135Silent,001,2023_Oct_26_0837,ProdSingRedoBetween,2021.2.3,59.921000155251505,
29,0,29,0,,,,,,,,,,,,,,,,,,,,,,,,,,279.48444989998825,None,phrase,88,30,silent,red,277.4834209999826,None,None,277.4834209999826,None,,,,,,,,,,,,,,,,,,,,,,,,,,,,,,,,,,,135Silent,001,2023_Oct_26_0837,ProdSingRedoBetween,2021.2.3,59.921000155251505,
30,0,30,0,,,,,,,,,,,,,,,,,,,,,,,,,,281.9870903999836,None,chief,60,31,silent,red,279.984833399998,None,None,279.984833399998,None,,,,,,,,,,,,,,,,,,,,,,,,,,,,,,,,,,,135Silent,001,2023_Oct_26_0837,ProdSingRedoBetween,2021.2.3,59.921000155251505,
31,0,31,0,,,,,,,,,,,,,,,,,,,,,,,,,,284.4892648999812,None,native,66,32,silent,red,282.48742160000256,None,None,282.48742160000256,None,,,,,,,,,,,,,,,,,,,,,,,,,,,,,,,,,,,135Silent,001,2023_Oct_26_0837,ProdSingRedoBetween,2021.2.3,59.921000155251505,
32,0,32,0,,,,,,,,,,,,,,,,,,,,,,,,,,286.9918672000058,None,youth,15,33,silent,yellow,284.98991909998585,None,None,284.98991909998585,None,,,,,,,,,,,,,,,,,,,,,,,,,,,,,,,,,,,135Silent,001,2023_Oct_26_0837,ProdSingRedoBetween,2021.2.3,59.921000155251505,
33,0,33,0,,,,,,,,,,,,,,,,,,,,,,,,,,289.4944603999902,None,track,1,34,silent,yellow,287.49233949999325,None,None,287.49233949999325,None,,,,,,,,,,,,,,,,,,,,,,,,,,,,,,,,,,,135Silent,001,2023_Oct_26_0837,ProdSingRedoBetween,2021.2.3,59.921000155251505,
34,0,34,0,,,,,,,,,,,,,,,,,,,,,,,,,,291.9967703000002,None,frank,67,35,silent,red,289.9948482000036,None,None,289.9948482000036,None,,,,,,,,,,,,,,,,,,,,,,,,,,,,,,,,,,,135Silent,001,2023_Oct_26_0837,ProdSingRedoBetween,2021.2.3,59.921000155251505,
35,0,35,0,,,,,,,,,,,,,,,,,,,,,,,,,,294.4995187000022,None,minute,87,36,silent,red,292.4973636000068,None,None,292.4973636000068,None,,,,,,,,,,,,,,,,,,,,,,,,,,,,,,,,,,,135Silent,001,2023_Oct_26_0837,ProdSingRedoBetween,2021.2.3,59.921000155251505,
36,0,36,0,,,,,,,,,,,,,,,,,,,,,,,,,,297.0018438999832,None,guard,36,37,silent,blue,295.00006590000703,None,None,295.00006590000703,None,,,,,,,,,,,,,,,,,,,,,,,,,,,,,,,,,,,135Silent,001,2023_Oct_26_0837,ProdSingRedoBetween,2021.2.3,59.921000155251505,
37,0,37,0,,,,,,,,,,,,,,,,,,,,,,,,,,299.50429680000525,None,discovery,83,38,silent,red,297.5023717999866,None,None,297.5023717999866,None,,,,,,,,,,,,,,,,,,,,,,,,,,,,,,,,,,,135Silent,001,2023_Oct_26_0837,ProdSingRedoBetween,2021.2.3,59.921000155251505,
38,0,38,0,,,,,,,,,,,,,,,,,,,,,,,,,,302.0071219999809,None,tragedy,70,39,silent,red,300.00489029998425,None,None,300.00489029998425,None,,,,,,,,,,,,,,,,,,,,,,,,,,,,,,,,,,,135Silent,001,2023_Oct_26_0837,ProdSingRedoBetween,2021.2.3,59.921000155251505,
39,0,39,0,,,,,,,,,,,,,,,,,,,,,,,,,,304.5096786999784,None,judge,21,40,silent,yellow,302.50770630000625,None,None,302.50770630000625,None,,,,,,,,,,,,,,,,,,,,,,,,,,,,,,,,,,,135Silent,001,2023_Oct_26_0837,ProdSingRedoBetween,2021.2.3,59.921000155251505,
40,0,40,0,,,,,,,,,,,,,,,,,,,,,,,,,,307.0119112999819,None,testimony,11,41,silent,yellow,305.0100926999876,None,None,305.0100926999876,None,,,,,,,,,,,,,,,,,,,,,,,,,,,,,,,,,,,135Silent,001,2023_Oct_26_0837,ProdSingRedoBetween,2021.2.3,59.921000155251505,
41,0,41,0,,,,,,,,,,,,,,,,,,,,,,,,,,309.5144014999969,None,crowd,46,42,silent,blue,307.5126014999987,None,None,307.5126014999987,None,,,,,,,,,,,,,,,,,,,,,,,,,,,,,,,,,,,135Silent,001,2023_Oct_26_0837,ProdSingRedoBetween,2021.2.3,59.921000155251505,
42,0,42,0,,,,,,,,,,,,,,,,,,,,,,,,,,312.0169637000072,None,pretty,78,43,silent,red,310.01496119998046,None,None,310.01496119998046,None,,,,,,,,,,,,,,,,,,,,,,,,,,,,,,,,,,,135Silent,001,2023_Oct_26_0837,ProdSingRedoBetween,2021.2.3,59.921000155251505,
43,0,43,0,,,,,,,,,,,,,,,,,,,,,,,,,,314.5192859999952,None,piece,32,44,silent,blue,312.5173177999968,None,None,312.5173177999968,None,,,,,,,,,,,,,,,,,,,,,,,,,,,,,,,,,,,135Silent,001,2023_Oct_26_0837,ProdSingRedoBetween,2021.2.3,59.921000155251505,
44,0,44,0,,,,,,,,,,,,,,,,,,,,,,,,,,317.0218557000044,None,sound,28,45,silent,yellow,315.01995029998943,None,None,315.01995029998943,None,,,,,,,,,,,,,,,,,,,,,,,,,,,,,,,,,,,135Silent,001,2023_Oct_26_0837,ProdSingRedoBetween,2021.2.3,59.921000155251505,
45,0,45,0,,,,,,,,,,,,,,,,,,,,,,,,,,319.5244224999915,None,figure,6,46,silent,yellow,317.52255949997925,None,None,317.52255949997925,None,,,,,,,,,,,,,,,,,,,,,,,,,,,,,,,,,,,135Silent,001,2023_Oct_26_0837,ProdSingRedoBetween,2021.2.3,59.921000155251505,
46,0,46,0,,,,,,,,,,,,,,,,,,,,,,,,,,322.026961800002,None,school,23,47,silent,yellow,320.024735199986,None,None,320.024735199986,None,,,,,,,,,,,,,,,,,,,,,,,,,,,,,,,,,,,135Silent,001,2023_Oct_26_0837,ProdSingRedoBetween,2021.2.3,59.921000155251505,
47,0,47,0,,,,,,,,,,,,,,,,,,,,,,,,,,324.5294711999886,None,audience,37,48,silent,blue,322.5274942999822,None,None,322.5274942999822,None,,,,,,,,,,,,,,,,,,,,,,,,,,,,,,,,,,,135Silent,001,2023_Oct_26_0837,ProdSingRedoBetween,2021.2.3,59.921000155251505,
48,0,48,0,,,,,,,,,,,,,,,,,,,,,,,,,,327.0486410000012,None,republic,26,49,silent,yellow,325.0346454999817,None,None,325.0346454999817,None,,,,,,,,,,,,,,,,,,,,,,,,,,,,,,,,,,,135Silent,001,2023_Oct_26_0837,ProdSingRedoBetween,2021.2.3,59.921000155251505,
49,0,49,0,,,,,,,,,,,,,,,,,,,,,,,,,,329.55132289999165,None,principal,5,50,silent,yellow,327.5490052999812,None,None,327.5490052999812,None,,,,,,,,,,,,,,,,,,,,,,,,,,,,,,,,,,,135Silent,001,2023_Oct_26_0837,ProdSingRedoBetween,2021.2.3,59.921000155251505,
50,0,50,0,,,,,,,,,,,,,,,,,,,,,,,,,,332.0538220999879,None,stranger,65,51,silent,red,330.0515015999845,None,None,330.0515015999845,None,,,,,,,,,,,,,,,,,,,,,,,,,,,,,,,,,,,135Silent,001,2023_Oct_26_0837,ProdSingRedoBetween,2021.2.3,59.921000155251505,
51,0,51,0,,,,,,,,,,,,,,,,,,,,,,,,,,334.5561614999897,None,level,53,52,silent,blue,332.5540881000052,None,None,332.5540881000052,None,,,,,,,,,,,,,,,,,,,,,,,,,,,,,,,,,,,135Silent,001,2023_Oct_26_0837,ProdSingRedoBetween,2021.2.3,59.921000155251505,
52,0,52,0,,,,,,,,,,,,,,,,,,,,,,,,,,337.05858839998837,None,education,41,53,silent,blue,335.0565389999829,None,None,335.0565389999829,None,,,,,,,,,,,,,,,,,,,,,,,,,,,,,,,,,,,135Silent,001,2023_Oct_26_0837,ProdSingRedoBetween,2021.2.3,59.921000155251505,
53,0,53,0,,,,,,,,,,,,,,,,,,,,,,,,,,339.5613930999825,None,evidence,76,54,silent,red,337.56000989998574,None,None,337.56000989998574,None,,,,,,,,,,,,,,,,,,,,,,,,,,,,,,,,,,,135Silent,001,2023_Oct_26_0837,ProdSingRedoBetween,2021.2.3,59.921000155251505,
54,0,54,0,,,,,,,,,,,,,,,,,,,,,,,,,,342.06359499998507,None,smooth,51,55,silent,blue,340.0615651999833,None,None,340.0615651999833,None,,,,,,,,,,,,,,,,,,,,,,,,,,,,,,,,,,,135Silent,001,2023_Oct_26_0837,ProdSingRedoBetween,2021.2.3,59.921000155251505,
55,0,55,0,,,,,,,,,,,,,,,,,,,,,,,,,,344.56609899998875,None,business,22,56,silent,yellow,342.56435649999185,None,None,342.56435649999185,None,,,,,,,,,,,,,,,,,,,,,,,,,,,,,,,,,,,135Silent,001,2023_Oct_26_0837,ProdSingRedoBetween,2021.2.3,59.921000155251505,
56,0,56,0,,,,,,,,,,,,,,,,,,,,,,,,,,347.06860119997873,None,travel,17,57,silent,yellow,345.06655749998754,None,None,345.06655749998754,None,,,,,,,,,,,,,,,,,,,,,,,,,,,,,,,,,,,135Silent,001,2023_Oct_26_0837,ProdSingRedoBetween,2021.2.3,59.921000155251505,
57,0,57,0,,,,,,,,,,,,,,,,,,,,,,,,,,349.5711706999864,None,point,31,58,silent,blue,347.56906369997887,None,None,347.56906369997887,None,,,,,,,,,,,,,,,,,,,,,,,,,,,,,,,,,,,135Silent,001,2023_Oct_26_0837,ProdSingRedoBetween,2021.2.3,59.921000155251505,
58,0,58,0,,,,,,,,,,,,,,,,,,,,,,,,,,352.0901970999839,None,general,13,59,silent,yellow,350.0755307999789,None,None,350.0755307999789,None,,,,,,,,,,,,,,,,,,,,,,,,,,,,,,,,,,,135Silent,001,2023_Oct_26_0837,ProdSingRedoBetween,2021.2.3,59.921000155251505,
59,0,59,0,,,,,,,,,,,,,,,,,,,,,,,,,,354.5926821999892,None,contract,52,60,silent,blue,352.5907498000015,None,None,352.5907498000015,None,,,,,,,,,,,,,,,,,,,,,,,,,,,,,,,,,,,135Silent,001,2023_Oct_26_0837,ProdSingRedoBetween,2021.2.3,59.921000155251505,
60,0,60,0,,,,,,,,,,,,,,,,,,,,,,,,,,357.09522540000034,None,speech,74,61,silent,red,355.0935201999964,None,None,355.0935201999964,None,,,,,,,,,,,,,,,,,,,,,,,,,,,,,,,,,,,135Silent,001,2023_Oct_26_0837,ProdSingRedoBetween,2021.2.3,59.921000155251505,
61,0,61,0,,,,,,,,,,,,,,,,,,,,,,,,,,359.5978637999797,None,debate,80,62,silent,red,357.5958961999859,None,None,357.5958961999859,None,,,,,,,,,,,,,,,,,,,,,,,,,,,,,,,,,,,135Silent,001,2023_Oct_26_0837,ProdSingRedoBetween,2021.2.3,59.921000155251505,
62,0,62,0,,,,,,,,,,,,,,,,,,,,,,,,,,362.100420200004,None,match,39,63,silent,blue,360.0982035000052,None,None,360.0982035000052,None,,,,,,,,,,,,,,,,,,,,,,,,,,,,,,,,,,,135Silent,001,2023_Oct_26_0837,ProdSingRedoBetween,2021.2.3,59.921000155251505,
63,0,63,0,,,,,,,,,,,,,,,,,,,,,,,,,,364.6027368999785,None,discussion,47,64,silent,blue,362.60104459998547,None,None,362.60104459998547,None,,,,,,,,,,,,,,,,,,,,,,,,,,,,,,,,,,,135Silent,001,2023_Oct_26_0837,ProdSingRedoBetween,2021.2.3,59.921000155251505,
64,0,64,0,,,,,,,,,,,,,,,,,,,,,,,,,,367.10547509999014,None,territory,7,65,silent,yellow,365.10336589999497,None,None,365.10336589999497,None,,,,,,,,,,,,,,,,,,,,,,,,,,,,,,,,,,,135Silent,001,2023_Oct_26_0837,ProdSingRedoBetween,2021.2.3,59.921000155251505,
65,0,65,0,,,,,,,,,,,,,,,,,,,,,,,,,,369.6077723999915,None,theme,45,66,silent,blue,367.6059004999988,None,None,367.6059004999988,None,,,,,,,,,,,,,,,,,,,,,,,,,,,,,,,,,,,135Silent,001,2023_Oct_26_0837,ProdSingRedoBetween,2021.2.3,59.921000155251505,
66,0,66,0,,,,,,,,,,,,,,,,,,,,,,,,,,372.1103585999808,None,public,75,67,silent,red,370.10892899998,None,None,370.10892899998,None,,,,,,,,,,,,,,,,,,,,,,,,,,,,,,,,,,,135Silent,001,2023_Oct_26_0837,ProdSingRedoBetween,2021.2.3,59.921000155251505,
67,0,67,0,,,,,,,,,,,,,,,,,,,,,,,,,,374.6128170999873,None,interior,24,68,silent,yellow,372.6111233999836,None,None,372.6111233999836,None,,,,,,,,,,,,,,,,,,,,,,,,,,,,,,,,,,,135Silent,001,2023_Oct_26_0837,ProdSingRedoBetween,2021.2.3,59.921000155251505,
68,0,68,0,,,,,,,,,,,,,,,,,,,,,,,,,,377.1320102000027,None,answer,49,69,silent,blue,375.1180448999803,None,None,375.1180448999803,None,,,,,,,,,,,,,,,,,,,,,,,,,,,,,,,,,,,135Silent,001,2023_Oct_26_0837,ProdSingRedoBetween,2021.2.3,59.921000155251505,
69,0,69,0,,,,,,,,,,,,,,,,,,,,,,,,,,379.63452069999767,None,sight,27,70,silent,yellow,377.63255650000065,None,None,377.63255650000065,None,,,,,,,,,,,,,,,,,,,,,,,,,,,,,,,,,,,135Silent,001,2023_Oct_26_0837,ProdSingRedoBetween,2021.2.3,59.921000155251505,
70,0,70,0,,,,,,,,,,,,,,,,,,,,,,,,,,382.1372881999996,None,executive,43,71,silent,blue,380.134936699993,None,None,380.134936699993,None,,,,,,,,,,,,,,,,,,,,,,,,,,,,,,,,,,,135Silent,001,2023_Oct_26_0837,ProdSingRedoBetween,2021.2.3,59.921000155251505,
71,0,71,0,,,,,,,,,,,,,,,,,,,,,,,,,,384.6395571999892,None,addition,69,72,silent,red,382.6377104999847,None,None,382.6377104999847,None,,,,,,,,,,,,,,,,,,,,,,,,,,,,,,,,,,,135Silent,001,2023_Oct_26_0837,ProdSingRedoBetween,2021.2.3,59.921000155251505,
72,0,72,0,,,,,,,,,,,,,,,,,,,,,,,,,,387.14210679999087,None,place,50,73,silent,blue,385.14216889999807,None,None,385.14216889999807,None,,,,,,,,,,,,,,,,,,,,,,,,,,,,,,,,,,,135Silent,001,2023_Oct_26_0837,ProdSingRedoBetween,2021.2.3,59.921000155251505,
73,0,73,0,,,,,,,,,,,,,,,,,,,,,,,,,,389.64468870000564,None,entrance,61,74,silent,red,387.6424616999866,None,None,387.6424616999866,None,,,,,,,,,,,,,,,,,,,,,,,,,,,,,,,,,,,135Silent,001,2023_Oct_26_0837,ProdSingRedoBetween,2021.2.3,59.921000155251505,
74,0,74,0,,,,,,,,,,,,,,,,,,,,,,,,,,392.1472211999935,None,broke,14,75,silent,yellow,390.1451775000023,None,None,390.1451775000023,None,,,,,,,,,,,,,,,,,,,,,,,,,,,,,,,,,,,135Silent,001,2023_Oct_26_0837,ProdSingRedoBetween,2021.2.3,59.921000155251505,
75,0,75,0,,,,,,,,,,,,,,,,,,,,,,,,,,394.6495506000065,None,search,25,76,silent,yellow,392.6476257999893,None,None,392.6476257999893,None,,,,,,,,,,,,,,,,,,,,,,,,,,,,,,,,,,,135Silent,001,2023_Oct_26_0837,ProdSingRedoBetween,2021.2.3,59.921000155251505,
76,0,76,0,,,,,,,,,,,,,,,,,,,,,,,,,,397.15215449998504,None,congress,71,77,silent,red,395.14999750000425,None,None,395.14999750000425,None,,,,,,,,,,,,,,,,,,,,,,,,,,,,,,,,,,,135Silent,001,2023_Oct_26_0837,ProdSingRedoBetween,2021.2.3,59.921000155251505,
77,0,77,0,,,,,,,,,,,,,,,,,,,,,,,,,,399.6546180000005,None,light,79,78,silent,red,397.6525014999788,None,None,397.6525014999788,None,,,,,,,,,,,,,,,,,,,,,,,,,,,,,,,,,,,135Silent,001,2023_Oct_26_0837,ProdSingRedoBetween,2021.2.3,59.921000155251505,
78,0,78,0,,,,,,,,,,,,,,,,,,,,,,,,,,402.17377209998085,None,state,58,79,silent,blue,400.1580374999903,None,None,400.1580374999903,None,,,,,,,,,,,,,,,,,,,,,,,,,,,,,,,,,,,135Silent,001,2023_Oct_26_0837,ProdSingRedoBetween,2021.2.3,59.921000155251505,
79,0,79,0,,,,,,,,,,,,,,,,,,,,,,,,,,404.6765253999911,None,notice,16,80,silent,yellow,402.67429179998,None,None,402.67429179998,None,,,,,,,,,,,,,,,,,,,,,,,,,,,,,,,,,,,135Silent,001,2023_Oct_26_0837,ProdSingRedoBetween,2021.2.3,59.921000155251505,
80,0,80,0,,,,,,,,,,,,,,,,,,,,,,,,,,407.17849409999326,None,solution,0,81,silent,yellow,405.17669259998365,None,None,405.17669259998365,None,,,,,,,,,,,,,,,,,,,,,,,,,,,,,,,,,,,135Silent,001,2023_Oct_26_0837,ProdSingRedoBetween,2021.2.3,59.921000155251505,
81,0,81,0,,,,,,,,,,,,,,,,,,,,,,,,,,409.69813509998494,None,whole,56,82,silent,blue,407.68639950000215,None,None,407.68639950000215,None,,,,,,,,,,,,,,,,,,,,,,,,,,,,,,,,,,,135Silent,001,2023_Oct_26_0837,ProdSingRedoBetween,2021.2.3,59.921000155251505,
82,0,82,0,,,,,,,,,,,,,,,,,,,,,,,,,,412.20042889998876,None,poetry,64,83,silent,red,410.19854359998135,None,None,410.19854359998135,None,,,,,,,,,,,,,,,,,,,,,,,,,,,,,,,,,,,135Silent,001,2023_Oct_26_0837,ProdSingRedoBetween,2021.2.3,59.921000155251505,
83,0,83,0,,,,,,,,,,,,,,,,,,,,,,,,,,414.7031590999977,None,quiet,19,84,silent,yellow,412.7011746999924,None,None,412.7011746999924,None,,,,,,,,,,,,,,,,,,,,,,,,,,,,,,,,,,,135Silent,001,2023_Oct_26_0837,ProdSingRedoBetween,2021.2.3,59.921000155251505,
84,0,84,0,,,,,,,,,,,,,,,,,,,,,,,,,,417.20532089998596,None,weight,18,85,silent,yellow,415.2033754999866,None,None,415.2033754999866,None,,,,,,,,,,,,,,,,,,,,,,,,,,,,,,,,,,,135Silent,001,2023_Oct_26_0837,ProdSingRedoBetween,2021.2.3,59.921000155251505,
85,0,85,0,,,,,,,,,,,,,,,,,,,,,,,,,,419.708034899988,None,instrument,33,86,silent,blue,417.7061013999919,None,None,417.7061013999919,None,,,,,,,,,,,,,,,,,,,,,,,,,,,,,,,,,,,135Silent,001,2023_Oct_26_0837,ProdSingRedoBetween,2021.2.3,59.921000155251505,
86,0,86,0,,,,,,,,,,,,,,,,,,,,,,,,,,422.21051069998066,None,estate,44,87,silent,blue,420.21134149999125,None,None,420.21134149999125,None,,,,,,,,,,,,,,,,,,,,,,,,,,,,,,,,,,,135Silent,001,2023_Oct_26_0837,ProdSingRedoBetween,2021.2.3,59.921000155251505,
87,0,87,0,,,,,,,,,,,,,,,,,,,,,,,,,,424.7129406000022,None,military,3,88,silent,yellow,422.7111341999844,None,None,422.7111341999844,None,,,,,,,,,,,,,,,,,,,,,,,,,,,,,,,,,,,135Silent,001,2023_Oct_26_0837,ProdSingRedoBetween,2021.2.3,59.921000155251505,
88,0,88,0,,,,,,,,,,,,,,,,,,,,,,,,,,427.21544339999673,None,shape,82,89,silent,red,425.21343329999945,None,None,425.21343329999945,None,,,,,,,,,,,,,,,,,,,,,,,,,,,,,,,,,,,135Silent,001,2023_Oct_26_0837,ProdSingRedoBetween,2021.2.3,59.921000155251505,
89,0,89,0,,,,,,,,,,,,,,,,,,,,,,,,,,429.7182045999798,None,alert,8,90,silent,yellow,427.71594809999806,None,None,427.71594809999806,None,,,,,,,,,,,,,,,,,,,,,,,,,,,,,,,,,,,135Silent,001,2023_Oct_26_0837,ProdSingRedoBetween,2021.2.3,59.921000155251505,
,,,,,,,,,,,,,,,,,,,,,,,,,,,,,,,,,,,,,,,,,430.2186524999852,None,k,132.80491840001196,430.2186524999852,None,,,,,,,,,,,,,,,,,,,,,,,,,,,,,135Silent,001,2023_Oct_26_0837,ProdSingRedoBetween,2021.2.3,59.921000155251505,
,,,,0,0,0,0,,,,,,,,,,,,,,,,,,,,,,602.1739517999813,None,,,,,,,,,,,,,,,,,school,23,1,silent,old,yellow,563.5661934999807,None,563.5661934999807,None,3,23.28913590000593,563.5661934999807,None,23.28913590000593,586.8823220999911,None,587.3955790000036,None,587.3955790000036,None,f,14.755693699989934,587.3955790000036,None,14.755693699989934,,,135Silent,001,2023_Oct_26_0837,ProdSingRedoBetween,2021.2.3,59.921000155251505,
,,,,1,0,1,0,,,,,,,,,,,,,,,,,,,,,,616.0711331999919,None,,,,,,,,,,,,,,,,,light,79,2,silent,old,red,602.6847771999892,None,602.6847771999892,None,6,8.14656369999284,602.6847771999892,None,8.14656369999284,610.8491256999841,None,611.3499297999952,None,611.3499297999952,None,f,4.6974477999901865,611.3499297999952,None,4.6974477999901865,,,135Silent,001,2023_Oct_26_0837,ProdSingRedoBetween,2021.2.3,59.921000155251505,
,,,,2,0,2,0,,,,,,,,,,,,,,,,,,,,,,628.3677782999875,None,,,,,,,,,,,,,,,,,union,38,3,silent,old,blue,616.5777982999862,None,616.5777982999862,None,4,5.06968339998275,616.5777982999862,None,5.06968339998275,621.6834053999919,None,622.1941414999892,None,622.1941414999892,None,n,6.141342099988833,622.1941414999892,None,6.141342099988833,,,135Silent,001,2023_Oct_26_0837,ProdSingRedoBetween,2021.2.3,59.921000155251505,
,,,,3,0,3,0,,,,,,,,,,,,,,,,,,,,,,636.7585338999925,None,,,,,,,,,,,,,,,,,testimony,11,4,silent,old,yellow,628.8755980999849,None,628.8755980999849,None,5,4.779735999996774,628.8755980999849,None,4.779735999996774,633.672930700006,None,634.1781115999911,None,634.1781115999911,None,f,2.549294699972961,634.1781115999911,None,2.549294699972961,,,135Silent,001,2023_Oct_26_0837,ProdSingRedoBetween,2021.2.3,59.921000155251505,
,,,,4,0,4,0,,,,,,,,,,,,,,,,,,,,,,645.7007360999996,None,,,,,,,,,,,,,,,,,industry,9,5,silent,old,yellow,637.2627419999917,None,637.2627419999917,None,3,5.448626199999126,637.2627419999917,None,5.448626199999126,642.7323063999938,None,643.2374139000021,None,643.2374139000021,None,f,2.4340499000099953,643.2374139000021,None,2.4340499000099953,,,135Silent,001,2023_Oct_26_0837,ProdSingRedoBetween,2021.2.3,59.921000155251505,
,,,,5,0,5,0,,,,,,,,,,,,,,,,,,,,,,660.1820359999838,None,,,,,,,,,,,,,,,,,discussion,47,6,silent,old,blue,646.2015995999973,None,646.2015995999973,None,2,12.093764299992472,646.2015995999973,None,12.093764299992472,658.3132615999784,None,658.8197112999915,None,658.8197112999915,None,n,1.331746000010753,658.8197112999915,None,1.331746000010753,,,135Silent,001,2023_Oct_26_0837,ProdSingRedoBetween,2021.2.3,59.921000155251505,
,,,,6,0,6,0,,,,,,,,,,,,,,,,,,,,,,667.2056617999915,None,,,,,,,,,,,,,,,,,commercial,93,7,silent,new,null,660.6872224999825,None,660.6872224999825,None,3,3.3123364000057336,660.6872224999825,None,3.3123364000057336,664.027746799984,None,664.5393461000058,None,664.5393461000058,None,f,2.6361026000231504,664.5393461000058,None,2.6361026000231504,,,135Silent,001,2023_Oct_26_0837,ProdSingRedoBetween,2021.2.3,59.921000155251505,
,,,,7,0,7,0,,,,,,,,,,,,,,,,,,,,,,674.6130693999876,None,,,,,,,,,,,,,,,,,figure,6,8,silent,old,yellow,667.7193893999793,None,667.7193893999793,None,4,4.928027200017823,667.7193893999793,None,4.928027200017823,672.6787065999815,None,673.1845891999837,None,673.1845891999837,None,n,1.4068285999819636,673.1845891999837,None,1.4068285999819636,,,135Silent,001,2023_Oct_26_0837,ProdSingRedoBetween,2021.2.3,59.921000155251505,
,,,,8,0,8,0,,,,,,,,,,,,,,,,,,,,,,682.520981699985,None,,,,,,,,,,,,,,,,,rapid,132,9,silent,new,null,675.1135481999954,None,675.1135481999954,None,3,3.549894600000698,675.1135481999954,None,3.549894600000698,678.6866634000035,None,679.2056418999855,None,679.2056418999855,None,n,3.2978240000084043,679.2056418999855,None,3.2978240000084043,,,135Silent,001,2023_Oct_26_0837,ProdSingRedoBetween,2021.2.3,59.921000155251505,
,,,,9,0,9,0,,,,,,,,,,,,,,,,,,,,,,689.6447347999783,None,,,,,,,,,,,,,,,,,blind,95,10,silent,new,null,683.0290033000056,None,683.0290033000056,None,4,5.13063799997326,683.0290033000056,None,5.13063799997326,688.1786223999807,None,688.6939138000016,None,688.6939138000016,None,n,0.9215124999755062,688.6939138000016,None,0.9215124999755062,,,135Silent,001,2023_Oct_26_0837,ProdSingRedoBetween,2021.2.3,59.921000155251505,
,,,,10,0,10,0,,,,,,,,,,,,,,,,,,,,,,698.4919481999823,None,,,,,,,,,,,,,,,,,addition,69,11,silent,old,red,690.1459589999868,None,690.1459589999868,None,5,6.373628800007282,690.1459589999868,None,6.373628800007282,696.5350293999945,None,697.035533599992,None,697.035533599992,None,f,1.4361552000045776,697.035533599992,None,1.4361552000045776,,,135Silent,001,2023_Oct_26_0837,ProdSingRedoBetween,2021.2.3,59.921000155251505,
,,,,11,0,11,0,,,,,,,,,,,,,,,,,,,,,,703.9924888999958,None,,,,,,,,,,,,,,,,,agreement,162,12,silent,new,null,699.0071087999968,None,699.0071087999968,None,4,3.2324689000088256,699.0071087999968,None,3.2324689000088256,702.264486,None,702.7758133999887,None,702.7758133999887,None,f,1.1915690999885555,702.7758133999887,None,1.1915690999885555,,,135Silent,001,2023_Oct_26_0837,ProdSingRedoBetween,2021.2.3,59.921000155251505,
,,,,12,0,12,0,,,,,,,,,,,,,,,,,,,,,,711.0025594999897,None,,,,,,,,,,,,,,,,,drink,153,13,silent,new,null,704.4995547999861,None,704.4995547999861,None,2,4.555856600025436,704.4995547999861,None,4.555856600025436,709.0808205000067,None,709.5842229999835,None,709.5842229999835,None,n,1.3993953999888618,709.5842229999835,None,1.3993953999888618,,,135Silent,001,2023_Oct_26_0837,ProdSingRedoBetween,2021.2.3,59.921000155251505,
,,,,13,0,13,0,,,,,,,,,,,,,,,,,,,,,,717.3391509999929,None,,,,,,,,,,,,,,,,,review,68,14,silent,old,red,711.527731899987,None,711.527731899987,None,5,3.879753199988045,711.527731899987,None,3.879753199988045,715.4385273999942,None,715.9416462999943,None,715.9416462999943,None,n,1.3698162999935448,715.9416462999943,None,1.3698162999935448,,,135Silent,001,2023_Oct_26_0837,ProdSingRedoBetween,2021.2.3,59.921000155251505,
,,,,14,0,14,0,,,,,,,,,,,,,,,,,,,,,,725.43481169999,None,,,,,,,,,,,,,,,,,tragedy,70,15,silent,old,red,717.8548390999786,None,717.8548390999786,None,4,4.848670100007439,717.8548390999786,None,4.848670100007439,722.7283387999923,None,723.2324186000042,None,723.2324186000042,None,f,2.183342600008473,723.2324186000042,None,2.183342600008473,,,135Silent,001,2023_Oct_26_0837,ProdSingRedoBetween,2021.2.3,59.921000155251505,
,,,,15,0,15,0,,,,,,,,,,,,,,,,,,,,,,730.4855756000034,None,,,,,,,,,,,,,,,,,device,107,16,silent,new,null,725.957227899984,None,725.957227899984,None,3,2.9143756999983452,725.957227899984,None,2.9143756999983452,728.9028870000038,None,729.4177744000044,None,729.4177744000044,None,n,1.0377645999833476,729.4177744000044,None,1.0377645999833476,,,135Silent,001,2023_Oct_26_0837,ProdSingRedoBetween,2021.2.3,59.921000155251505,
,,,,16,0,16,0,,,,,,,,,,,,,,,,,,,,,,740.0616923999914,None,,,,,,,,,,,,,,,,,object,167,17,silent,new,null,730.9926572999975,None,730.9926572999975,None,4,6.2067320000205655,730.9926572999975,None,6.2067320000205655,737.2269000999804,None,737.7318376000039,None,737.7318376000039,None,f,2.3076127000094857,737.7318376000039,None,2.3076127000094857,,,135Silent,001,2023_Oct_26_0837,ProdSingRedoBetween,2021.2.3,59.921000155251505,
,,,,17,0,17,0,,,,,,,,,,,,,,,,,,,,,,745.0835050999885,None,,,,,,,,,,,,,,,,,vision,113,18,silent,new,null,740.5702262999839,None,740.5702262999839,None,5,3.149424099974567,740.5702262999839,None,3.149424099974567,743.7568220999965,None,744.2677198000019,None,744.2677198000019,None,f,0.7958711999817751,744.2677198000019,None,0.7958711999817751,,,135Silent,001,2023_Oct_26_0837,ProdSingRedoBetween,2021.2.3,59.921000155251505,
,,,,18,0,18,0,,,,,,,,,,,,,,,,,,,,,,751.4566103999969,None,,,,,,,,,,,,,,,,,religion,140,19,silent,new,null,745.5840008999803,None,745.5840008999803,None,2,3.711666300019715,745.5840008999803,None,3.711666300019715,749.3278806000017,None,749.8385453999799,None,749.8385453999799,None,n,1.5930597999831662,749.8385453999799,None,1.5930597999831662,,,135Silent,001,2023_Oct_26_0837,ProdSingRedoBetween,2021.2.3,59.921000155251505,
,,,,19,0,19,0,,,,,,,,,,,,,,,,,,,,,,761.2831209999858,None,,,,,,,,,,,,,,,,,income,169,20,silent,new,null,751.9659325999964,None,751.9659325999964,None,5,6.537591700005578,751.9659325999964,None,6.537591700005578,758.5304830999812,None,759.0328748000029,None,759.0328748000029,None,f,2.2226419000071473,759.0328748000029,None,2.2226419000071473,,,135Silent,001,2023_Oct_26_0837,ProdSingRedoBetween,2021.2.3,59.921000155251505,
,,,,20,0,20,0,,,,,,,,,,,,,,,,,,,,,,769.3587236999883,None,,,,,,,,,,,,,,,,,broke,14,21,silent,old,yellow,761.7916639999894,None,761.7916639999894,None,2,6.015903099993011,761.7916639999894,None,6.015903099993011,767.8243753999996,None,768.3271660000028,None,768.3271660000028,None,n,1.0005721999914385,768.3271660000028,None,1.0005721999914385,,,135Silent,001,2023_Oct_26_0837,ProdSingRedoBetween,2021.2.3,59.921000155251505,
,,,,21,0,21,0,,,,,,,,,,,,,,,,,,,,,,780.4689282999898,None,,,,,,,,,,,,,,,,,comfort,48,22,silent,old,blue,769.8607111999881,None,769.8607111999881,None,4,9.146844599978067,769.8607111999881,None,9.146844599978067,779.0340265999839,None,779.5370822999976,None,779.5370822999976,None,n,0.9105677999905311,779.5370822999976,None,0.9105677999905311,,,135Silent,001,2023_Oct_26_0837,ProdSingRedoBetween,2021.2.3,59.921000155251505,
,,,,22,0,22,0,,,,,,,,,,,,,,,,,,,,,,787.893045499979,None,,,,,,,,,,,,,,,,,whole,56,23,silent,old,blue,780.9745198999881,None,780.9745198999881,None,4,5.641009000013582,780.9745198999881,None,5.641009000013582,786.6430580999877,None,787.1468748000043,None,787.1468748000043,None,n,0.7247345999930985,787.1468748000043,None,0.7247345999930985,,,135Silent,001,2023_Oct_26_0837,ProdSingRedoBetween,2021.2.3,59.921000155251505,
,,,,23,0,23,0,,,,,,,,,,,,,,,,,,,,,,793.7654850999825,None,,,,,,,,,,,,,,,,,speech,74,24,silent,old,red,788.4029703999986,None,788.4029703999986,None,5,3.620501700002933,788.4029703999986,None,3.620501700002933,792.0533069999947,None,792.5701681000064,None,792.5701681000064,None,f,1.1653966000012588,792.5701681000064,None,1.1653966000012588,,,135Silent,001,2023_Oct_26_0837,ProdSingRedoBetween,2021.2.3,59.921000155251505,
,,,,24,0,24,0,,,,,,,,,,,,,,,,,,,,,,800.8392522000067,None,,,,,,,,,,,,,,,,,number,63,25,silent,old,red,794.2659385000006,None,794.2659385000006,None,5,5.2939382000186015,794.2659385000006,None,5.2939382000186015,799.5953188999847,None,800.1122937999899,None,800.1122937999899,None,f,0.7033006999990903,800.1122937999899,None,0.7033006999990903,,,135Silent,001,2023_Oct_26_0837,ProdSingRedoBetween,2021.2.3,59.921000155251505,
,,,,25,0,25,0,,,,,,,,,,,,,,,,,,,,,,810.081892599992,None,,,,,,,,,,,,,,,,,bright,121,26,silent,new,null,801.3490714000072,None,801.3490714000072,None,6,6.866538300004322,801.3490714000072,None,6.866538300004322,808.2468607999908,None,808.7473558000056,None,808.7473558000056,None,f,1.3161990999942645,808.7473558000056,None,1.3161990999942645,,,135Silent,001,2023_Oct_26_0837,ProdSingRedoBetween,2021.2.3,59.921000155251505,
,,,,26,0,26,0,,,,,,,,,,,,,,,,,,,,,,814.475069099979,None,,,,,,,,,,,,,,,,,beauty,149,27,silent,new,null,810.5908576999791,None,810.5908576999791,None,3,2.8007150999910664,810.5908576999791,None,2.8007150999910664,813.4196256999858,None,813.9217528000008,None,813.9217528000008,None,n,0.5259895999915898,813.9217528000008,None,0.5259895999915898,,,135Silent,001,2023_Oct_26_0837,ProdSingRedoBetween,2021.2.3,59.921000155251505,
,,,,27,0,27,0,,,,,,,,,,,,,,,,,,,,,,820.7759850999864,None,,,,,,,,,,,,,,,,,skill,81,28,silent,old,red,814.9956876999931,None,814.9956876999931,None,4,3.7479961999924853,814.9956876999931,None,3.7479961999924853,818.7826230000064,None,819.2972960000043,None,819.2972960000043,None,f,1.454337300005136,819.2972960000043,None,1.454337300005136,,,135Silent,001,2023_Oct_26_0837,ProdSingRedoBetween,2021.2.3,59.921000155251505,
,,,,28,0,28,0,,,,,,,,,,,,,,,,,,,,,,829.3525785999955,None,,,,,,,,,,,,,,,,,court,175,29,silent,new,null,821.2765402999939,None,821.2765402999939,None,6,4.955094300006749,821.2765402999939,None,4.955094300006749,826.2477735999855,None,826.7485586999974,None,826.7485586999974,None,r,2.5792433000169694,826.7485586999974,None,2.5792433000169694,,,135Silent,001,2023_Oct_26_0837,ProdSingRedoBetween,2021.2.3,59.921000155251505,
,,,,29,0,29,0,,,,,,,,,,,,,,,,,,,,,,838.827363999997,None,,,,,,,,,,,,,,,,,worker,152,30,silent,new,null,829.8593013999925,None,829.8593013999925,None,4,5.700253699993482,829.8593013999925,None,5.700253699993482,835.5918972000072,None,836.0981144999969,None,836.0981144999969,None,f,2.7014810999971814,836.0981144999969,None,2.7014810999971814,,,135Silent,001,2023_Oct_26_0837,ProdSingRedoBetween,2021.2.3,59.921000155251505,
,,,,30,0,30,0,,,,,,,,,,,,,,,,,,,,,,849.2043350999884,None,,,,,,,,,,,,,,,,,personnel,163,31,silent,new,null,839.3279248999897,None,839.3279248999897,None,2,8.895733499986818,839.3279248999897,None,8.895733499986818,848.2556509999849,None,848.7746234999795,None,848.7746234999795,None,n,0.4010975999990478,848.7746234999795,None,0.4010975999990478,,,135Silent,001,2023_Oct_26_0837,ProdSingRedoBetween,2021.2.3,59.921000155251505,
,,,,31,0,31,0,,,,,,,,,,,,,,,,,,,,,,854.8599932999932,None,,,,,,,,,,,,,,,,,fellow,4,32,silent,old,yellow,849.7049032000068,None,849.7049032000068,None,5,3.9986829000117723,849.7049032000068,None,3.9986829000117723,853.7266610999941,None,854.2262013999862,None,854.2262013999862,None,f,0.6054894000117201,854.2262013999862,None,0.6054894000117201,,,135Silent,001,2023_Oct_26_0837,ProdSingRedoBetween,2021.2.3,59.921000155251505,
,,,,32,0,32,0,,,,,,,,,,,,,,,,,,,,,,859.4992709999788,None,,,,,,,,,,,,,,,,,guard,36,33,silent,old,blue,855.3604127999861,None,855.3604127999861,None,4,2.623273400007747,855.3604127999861,None,2.623273400007747,858.0131832000043,None,858.5143167999922,None,858.5143167999922,None,n,0.9574422000150662,858.5143167999922,None,0.9574422000150662,,,135Silent,001,2023_Oct_26_0837,ProdSingRedoBetween,2021.2.3,59.921000155251505,
,,,,33,0,33,0,,,,,,,,,,,,,,,,,,,,,,864.9870730999974,None,,,,,,,,,,,,,,,,,attack,12,34,silent,old,yellow,860.0066340999911,None,860.0066340999911,None,5,3.9450400000205263,860.0066340999911,None,3.9450400000205263,863.971361200005,None,864.4862716000061,None,864.4862716000061,None,f,0.4813220000069123,864.4862716000061,None,0.4813220000069123,,,135Silent,001,2023_Oct_26_0837,ProdSingRedoBetween,2021.2.3,59.921000155251505,
,,,,34,0,34,0,,,,,,,,,,,,,,,,,,,,,,871.6602042999875,None,,,,,,,,,,,,,,,,,track,1,35,silent,old,yellow,865.4882271999959,None,865.4882271999959,None,2,5.15165819998947,865.4882271999959,None,5.15165819998947,870.6664395999978,None,871.1807372999901,None,871.1807372999901,None,n,0.45898930000839755,871.1807372999901,None,0.45898930000839755,,,135Silent,001,2023_Oct_26_0837,ProdSingRedoBetween,2021.2.3,59.921000155251505,
,,,,35,0,35,0,,,,,,,,,,,,,,,,,,,,,,877.2659009000054,None,,,,,,,,,,,,,,,,,principal,5,36,silent,old,yellow,872.1606983999955,None,872.1606983999955,None,3,3.855064399976982,872.1606983999955,None,3.855064399976982,876.0347074999881,None,876.5576207999839,None,876.5576207999839,None,n,0.6900811999803409,876.5576207999839,None,0.6900811999803409,,,135Silent,001,2023_Oct_26_0837,ProdSingRedoBetween,2021.2.3,59.921000155251505,
,,,,36,0,36,0,,,,,,,,,,,,,,,,,,,,,,881.4866941999935,None,,,,,,,,,,,,,,,,,damage,143,37,silent,new,null,877.7781415999925,None,877.7781415999925,None,4,2.797511199984001,877.7781415999925,None,2.797511199984001,880.603194700001,None,881.1070543999958,None,881.1070543999958,None,n,0.3487926999805495,881.1070543999958,None,0.3487926999805495,,,135Silent,001,2023_Oct_26_0837,ProdSingRedoBetween,2021.2.3,59.921000155251505,
,,,,37,0,37,0,,,,,,,,,,,,,,,,,,,,,,887.4092205000052,None,,,,,,,,,,,,,,,,,orchestra,89,38,silent,old,red,881.9990216000006,None,881.9990216000006,None,6,2.640771600010339,881.9990216000006,None,2.640771600010339,884.6662332999986,None,885.1739454999915,None,885.1739454999915,None,r,2.2178090999950655,885.1739454999915,None,2.2178090999950655,,,135Silent,001,2023_Oct_26_0837,ProdSingRedoBetween,2021.2.3,59.921000155251505,
,,,,38,0,38,0,,,,,,,,,,,,,,,,,,,,,,896.2375073999865,None,,,,,,,,,,,,,,,,,present,109,39,silent,new,null,887.9171007999976,None,887.9171007999976,None,5,6.146808499994222,887.9171007999976,None,6.146808499994222,894.0907832999947,None,894.6058578999946,None,894.6058578999946,None,f,1.6102833000186365,894.6058578999946,None,1.6102833000186365,,,135Silent,001,2023_Oct_26_0837,ProdSingRedoBetween,2021.2.3,59.921000155251505,
,,,,39,0,39,0,,,,,,,,,,,,,,,,,,,,,,903.008176400006,None,,,,,,,,,,,,,,,,,military,3,40,silent,old,yellow,896.7579991999955,None,896.7579991999955,None,6,3.617708900012076,896.7579991999955,None,3.617708900012076,900.4064167999895,None,900.911277999985,None,900.911277999985,None,r,2.0805260999768507,900.911277999985,None,2.0805260999768507,,,135Silent,001,2023_Oct_26_0837,ProdSingRedoBetween,2021.2.3,59.921000155251505,
,,,,40,0,40,0,,,,,,,,,,,,,,,,,,,,,,909.8984569000022,None,,,,,,,,,,,,,,,,,stranger,65,41,silent,old,red,903.5159816999803,None,903.5159816999803,None,5,5.203717800002778,903.5159816999803,None,5.203717800002778,908.7480907999852,None,909.2517379999917,None,909.2517379999917,None,n,0.6199721999873873,909.2517379999917,None,0.6199721999873873,,,135Silent,001,2023_Oct_26_0837,ProdSingRedoBetween,2021.2.3,59.921000155251505,
,,,,41,0,41,0,,,,,,,,,,,,,,,,,,,,,,913.6556757999933,None,,,,,,,,,,,,,,,,,production,35,42,silent,old,blue,910.4063279999828,None,910.4063279999828,None,4,2.569450199982384,910.4063279999828,None,2.569450199982384,913.0013269000046,None,913.5074965999811,None,913.5074965999811,None,n,0.11645990001852624,913.5074965999811,None,0.11645990001852624,,,135Silent,001,2023_Oct_26_0837,ProdSingRedoBetween,2021.2.3,59.921000155251505,
,,,,42,0,42,0,,,,,,,,,,,,,,,,,,,,,,919.1420389999985,None,,,,,,,,,,,,,,,,,ground,2,43,silent,old,yellow,914.1860537999892,None,914.1860537999892,None,3,3.1097104999935254,914.1860537999892,None,3.1097104999935254,917.3245226999861,None,917.8476646000054,None,917.8476646000054,None,n,1.264213100017514,917.8476646000054,None,1.264213100017514,,,135Silent,001,2023_Oct_26_0837,ProdSingRedoBetween,2021.2.3,59.921000155251505,
,,,,43,0,43,0,,,,,,,,,,,,,,,,,,,,,,924.2794240999792,None,,,,,,,,,,,,,,,,,junior,54,44,silent,old,blue,919.6451470000029,None,919.6451470000029,None,5,3.5786209999932908,919.6451470000029,None,3.5786209999932908,923.2462815000035,None,923.7499155999976,None,923.7499155999976,None,f,0.5058386000164319,923.7499155999976,None,0.5058386000164319,,,135Silent,001,2023_Oct_26_0837,ProdSingRedoBetween,2021.2.3,59.921000155251505,
,,,,44,0,44,0,,,,,,,,,,,,,,,,,,,,,,927.4160761999956,None,,,,,,,,,,,,,,,,,individual,123,45,silent,new,null,924.7893182999978,None,924.7893182999978,None,4,2.0424339000019245,924.7893182999978,None,2.0424339000019245,926.8524172999896,None,927.3755130000063,None,927.3755130000063,None,n,0.024328900006366894,927.3755130000063,None,0.024328900006366894,,,135Silent,001,2023_Oct_26_0837,ProdSingRedoBetween,2021.2.3,59.921000155251505,
,,,,45,0,45,0,,,,,,,,,,,,,,,,,,,,,,932.9715329000028,None,,,,,,,,,,,,,,,,,bureau,144,46,silent,new,null,927.9273230999825,None,927.9273230999825,None,2,3.168518899998162,927.9273230999825,None,3.168518899998162,931.1220980999933,None,931.6459918000037,None,931.6459918000037,None,n,1.3058302999997977,931.6459918000037,None,1.3058302999997977,,,135Silent,001,2023_Oct_26_0837,ProdSingRedoBetween,2021.2.3,59.921000155251505,
,,,,46,0,46,0,,,,,,,,,,,,,,,,,,,,,,939.5969692999788,None,,,,,,,,,,,,,,,,,property,85,47,silent,old,red,933.4797490999917,None,933.4797490999917,None,5,4.064128600002732,933.4797490999917,None,4.064128600002732,937.5630395000044,None,938.0880622999975,None,938.0880622999975,None,f,1.4798555000161286,938.0880622999975,None,1.4798555000161286,,,135Silent,001,2023_Oct_26_0837,ProdSingRedoBetween,2021.2.3,59.921000155251505,
,,,,47,0,47,0,,,,,,,,,,,,,,,,,,,,,,944.0343411999929,None,,,,,,,,,,,,,,,,,community,125,48,silent,new,null,940.115541599982,None,940.115541599982,None,5,2.820291099982569,940.115541599982,None,2.820291099982569,942.9838749000046,None,943.4836987000017,None,943.4836987000017,None,f,0.5242935999995098,943.4836987000017,None,0.5242935999995098,,,135Silent,001,2023_Oct_26_0837,ProdSingRedoBetween,2021.2.3,59.921000155251505,
,,,,48,0,48,0,,,,,,,,,,,,,,,,,,,,,,951.0730573000037,None,,,,,,,,,,,,,,,,,entrance,61,49,silent,old,red,944.5584443999978,None,944.5584443999978,None,6,4.169301199988695,944.5584443999978,None,4.169301199988695,948.7548964000016,None,949.2586377999978,None,949.2586377999978,None,r,1.7971779000072274,949.2586377999978,None,1.7971779000072274,,,135Silent,001,2023_Oct_26_0837,ProdSingRedoBetween,2021.2.3,59.921000155251505,
,,,,49,0,49,0,,,,,,,,,,,,,,,,,,,,,,958.3803477000038,None,,,,,,,,,,,,,,,,,executive,43,50,silent,old,blue,951.5935667000012,None,951.5935667000012,None,5,5.246261000022059,951.5935667000012,None,5.246261000022059,956.8671403999906,None,957.3863496999838,None,957.3863496999838,None,f,0.9734993000165559,957.3863496999838,None,0.9734993000165559,,,135Silent,001,2023_Oct_26_0837,ProdSingRedoBetween,2021.2.3,59.921000155251505,
,,,,50,0,50,0,,,,,,,,,,,,,,,,,,,,,,961.9669445999898,None,,,,,,,,,,,,,,,,,finance,171,51,silent,new,null,958.8809309999924,None,958.8809309999924,None,4,2.174849400005769,958.8809309999924,None,2.174849400005769,961.0840006999788,None,961.5885835999798,None,961.5885835999798,None,n,0.3473261999897659,961.5885835999798,None,0.3473261999897659,,,135Silent,001,2023_Oct_26_0837,ProdSingRedoBetween,2021.2.3,59.921000155251505,
,,,,51,0,51,0,,,,,,,,,,,,,,,,,,,,,,965.5219181999855,None,,,,,,,,,,,,,,,,,scale,156,52,silent,new,null,962.4708508999902,None,962.4708508999902,None,4,2.257162399997469,962.4708508999902,None,2.257162399997469,964.7625612999836,None,965.277528000006,None,965.277528000006,None,n,0.22638690000167117,965.277528000006,None,0.22638690000167117,,,135Silent,001,2023_Oct_26_0837,ProdSingRedoBetween,2021.2.3,59.921000155251505,
,,,,52,0,52,0,,,,,,,,,,,,,,,,,,,,,,970.3940603999945,None,,,,,,,,,,,,,,,,,oxygen,101,53,silent,new,null,966.0250618999999,None,966.0250618999999,None,2,2.054913600004511,966.0250618999999,None,2.054913600004511,968.118166500004,None,968.6262191999995,None,968.6262191999995,None,f,1.7496764000097755,968.6262191999995,None,1.7496764000097755,,,135Silent,001,2023_Oct_26_0837,ProdSingRedoBetween,2021.2.3,59.921000155251505,
,,,,53,0,53,0,,,,,,,,,,,,,,,,,,,,,,978.6368186000036,None,,,,,,,,,,,,,,,,,native,66,54,silent,old,red,970.9219559000048,None,970.9219559000048,None,6,3.1898791000130586,970.9219559000048,None,3.1898791000130586,974.129955899989,None,974.6352290999785,None,974.6352290999785,None,f,3.9806901999982074,974.6352290999785,None,3.9806901999982074,,,135Silent,001,2023_Oct_26_0837,ProdSingRedoBetween,2021.2.3,59.921000155251505,
,,,,54,0,54,0,,,,,,,,,,,,,,,,,,,,,,982.0054870999884,None,,,,,,,,,,,,,,,,,position,115,55,silent,new,null,979.1529229999869,None,979.1529229999869,None,4,1.9271173999877647,979.1529229999869,None,1.9271173999877647,981.1154743999941,None,981.6273857000051,None,981.6273857000051,None,n,0.35664230000111274,981.6273857000051,None,0.35664230000111274,,,135Silent,001,2023_Oct_26_0837,ProdSingRedoBetween,2021.2.3,59.921000155251505,
,,,,55,0,55,0,,,,,,,,,,,,,,,,,,,,,,988.6969681000046,None,,,,,,,,,,,,,,,,,contract,52,56,silent,old,blue,982.5244729999977,None,982.5244729999977,None,5,4.59539030000451,982.5244729999977,None,4.59539030000451,987.1425676000072,None,987.6452804,None,987.6452804,None,f,1.026748799980851,987.6452804,None,1.026748799980851,,,135Silent,001,2023_Oct_26_0837,ProdSingRedoBetween,2021.2.3,59.921000155251505,
,,,,56,0,56,0,,,,,,,,,,,,,,,,,,,,,,996.9549953999813,None,,,,,,,,,,,,,,,,,resistance,59,57,silent,old,yellow,989.217915199988,None,989.217915199988,None,2,6.814113799977349,989.217915199988,None,6.814113799977349,996.0600551999814,None,996.5749859999924,None,996.5749859999924,None,n,0.36105249999673106,996.5749859999924,None,0.36105249999673106,,,135Silent,001,2023_Oct_26_0837,ProdSingRedoBetween,2021.2.3,59.921000155251505,
,,,,57,0,57,0,,,,,,,,,,,,,,,,,,,,,,1001.6097620000073,None,,,,,,,,,,,,,,,,,health,131,58,silent,new,null,997.4770945000055,None,997.4770945000055,None,2,2.4347719000070356,997.4770945000055,None,2.4347719000070356,999.9408753000025,None,1000.4555681000056,None,1000.4555681000056,None,f,1.136552699987078,1000.4555681000056,None,1.136552699987078,,,135Silent,001,2023_Oct_26_0837,ProdSingRedoBetween,2021.2.3,59.921000155251505,
,,,,58,0,58,0,,,,,,,,,,,,,,,,,,,,,,1007.7656438999984,None,,,,,,,,,,,,,,,,,appeal,168,59,silent,new,null,1002.1261167000048,None,1002.1261167000048,None,4,4.729766500007827,1002.1261167000048,None,4.729766500007827,1006.8816327999812,None,1007.3988241000043,None,1007.3988241000043,None,n,0.3371927000116557,1007.3988241000043,None,0.3371927000116557,,,135Silent,001,2023_Oct_26_0837,ProdSingRedoBetween,2021.2.3,59.921000155251505,
,,,,59,0,59,0,,,,,,,,,,,,,,,,,,,,,,1011.3666304999788,None,,,,,,,,,,,,,,,,,education,41,60,silent,old,blue,1008.2872246000043,None,1008.2872246000043,None,4,2.192665800015675,1008.2872246000043,None,2.192665800015675,1010.4990241999913,None,1011.000264799979,None,1011.000264799979,None,n,0.3438026999938302,1011.000264799979,None,0.3438026999938302,,,135Silent,001,2023_Oct_26_0837,ProdSingRedoBetween,2021.2.3,59.921000155251505,
,,,,60,0,60,0,,,,,,,,,,,,,,,,,,,,,,1015.5208200000052,None,,,,,,,,,,,,,,,,,bucket,146,61,silent,new,null,1011.8836415999976,None,1011.8836415999976,None,2,2.1643631999904756,1011.8836415999976,None,2.1643631999904756,1014.0772523999913,None,1014.5910201999941,None,1014.5910201999941,None,n,0.9128534999908879,1014.5910201999941,None,0.9128534999908879,,,135Silent,001,2023_Oct_26_0837,ProdSingRedoBetween,2021.2.3,59.921000155251505,
,,,,61,0,61,0,,,,,,,,,,,,,,,,,,,,,,1021.3964084000036,None,,,,,,,,,,,,,,,,,dance,84,62,silent,old,red,1016.0329665000027,None,1016.0329665000027,None,6,2.6710597000201233,1016.0329665000027,None,2.6710597000201233,1018.7285774000047,None,1019.2413103999861,None,1019.2413103999861,None,f,2.1347064999863505,1019.2413103999861,None,2.1347064999863505,,,135Silent,001,2023_Oct_26_0837,ProdSingRedoBetween,2021.2.3,59.921000155251505,
,,,,62,0,62,0,,,,,,,,,,,,,,,,,,,,,,1027.8664437999832,None,,,,,,,,,,,,,,,,,crime,128,63,silent,new,null,1021.9165261999879,None,1021.9165261999879,None,5,4.4994755999941844,1021.9165261999879,None,4.4994755999941844,1026.4398041999957,None,1026.952839799982,None,1026.952839799982,None,f,0.894990400003735,1026.952839799982,None,0.894990400003735,,,135Silent,001,2023_Oct_26_0837,ProdSingRedoBetween,2021.2.3,59.921000155251505,
,,,,63,0,63,0,,,,,,,,,,,,,,,,,,,,,,1032.7063209000044,None,,,,,,,,,,,,,,,,,instrument,33,64,silent,old,blue,1028.3808704999974,None,1028.3808704999974,None,6,2.315021600021282,1028.3808704999974,None,2.315021600021282,1030.7205315000028,None,1031.225600899983,None,1031.225600899983,None,f,1.4545818000042345,1031.225600899983,None,1.4545818000042345,,,135Silent,001,2023_Oct_26_0837,ProdSingRedoBetween,2021.2.3,59.921000155251505,
,,,,64,0,64,0,,,,,,,,,,,,,,,,,,,,,,1044.3394975999836,None,,,,,,,,,,,,,,,,,break,172,65,silent,new,null,1033.236078099988,None,1033.236078099988,None,5,9.476079000014579,1033.236078099988,None,9.476079000014579,1042.7394035999896,None,1043.2496804999828,None,1043.2496804999828,None,f,1.0623406000086106,1043.2496804999828,None,1.0623406000086106,,,135Silent,001,2023_Oct_26_0837,ProdSingRedoBetween,2021.2.3,59.921000155251505,
,,,,65,0,65,0,,,,,,,,,,,,,,,,,,,,,,1048.4871565999929,None,,,,,,,,,,,,,,,,,pretty,78,66,silent,old,red,1044.8648038999818,None,1044.8648038999818,None,2,1.6392172999912873,1044.8648038999818,None,1.6392172999912873,1046.5366602999857,None,1047.0412841999787,None,1047.0412841999787,None,f,1.414812200004235,1047.0412841999787,None,1.414812200004235,,,135Silent,001,2023_Oct_26_0837,ProdSingRedoBetween,2021.2.3,59.921000155251505,
,,,,66,0,66,0,,,,,,,,,,,,,,,,,,,,,,1052.9934674999968,None,,,,,,,,,,,,,,,,,degree,166,67,silent,new,null,1048.998150200001,None,1048.998150200001,None,2,3.0338096000195947,1048.998150200001,None,3.0338096000195947,1052.0597596000007,None,1052.5764819000033,None,1052.5764819000033,None,n,0.39950060000410303,1052.5764819000033,None,0.39950060000410303,,,135Silent,001,2023_Oct_26_0837,ProdSingRedoBetween,2021.2.3,59.921000155251505,
,,,,67,0,67,0,,,,,,,,,,,,,,,,,,,,,,1057.245768599998,None,,,,,,,,,,,,,,,,,poetry,64,68,silent,old,red,1053.5200781000021,None,1053.5200781000021,None,6,1.7921062000095844,1053.5200781000021,None,1.7921062000095844,1055.3373933999974,None,1055.8469250999915,None,1055.8469250999915,None,f,1.369015899981605,1055.8469250999915,None,1.369015899981605,,,135Silent,001,2023_Oct_26_0837,ProdSingRedoBetween,2021.2.3,59.921000155251505,
,,,,68,0,68,0,,,,,,,,,,,,,,,,,,,,,,1062.7540965999942,None,,,,,,,,,,,,,,,,,measure,103,69,silent,new,null,1057.7576987000066,None,1057.7576987000066,None,4,3.6664090999984182,1057.7576987000066,None,3.6664090999984182,1061.4600407999824,None,1061.9700251999893,None,1061.9700251999893,None,n,0.758111100003589,1061.9700251999893,None,0.758111100003589,,,135Silent,001,2023_Oct_26_0837,ProdSingRedoBetween,2021.2.3,59.921000155251505,
,,,,69,0,69,0,,,,,,,,,,,,,,,,,,,,,,1071.1956329999957,None,,,,,,,,,,,,,,,,,match,39,70,silent,old,blue,1063.2734199999832,None,1063.2734199999832,None,5,5.838743600004818,1063.2734199999832,None,5.838743600004818,1069.1501959000016,None,1069.6595602000016,None,1069.6595602000016,None,f,1.5085521999862976,1069.6595602000016,None,1.5085521999862976,,,135Silent,001,2023_Oct_26_0837,ProdSingRedoBetween,2021.2.3,59.921000155251505,
,,,,70,0,70,0,,,,,,,,,,,,,,,,,,,,,,1077.2658551000059,None,,,,,,,,,,,,,,,,,order,106,71,silent,new,null,1071.7137046999997,None,1071.7137046999997,None,3,3.654459500015946,1071.7137046999997,None,3.654459500015946,1075.4028497999825,None,1075.9169223000063,None,1075.9169223000063,None,n,1.331039899989264,1075.9169223000063,None,1.331039899989264,,,135Silent,001,2023_Oct_26_0837,ProdSingRedoBetween,2021.2.3,59.921000155251505,
,,,,71,0,71,0,,,,,,,,,,,,,,,,,,,,,,1081.4580423999869,None,,,,,,,,,,,,,,,,,goose,127,72,silent,new,null,1077.7785270999884,None,1077.7785270999884,None,2,2.245517600007588,1077.7785270999884,None,2.245517600007588,1080.0560461999848,None,1080.5713308999839,None,1080.5713308999839,None,n,0.852779599983478,1080.5713308999839,None,0.852779599983478,,,135Silent,001,2023_Oct_26_0837,ProdSingRedoBetween,2021.2.3,59.921000155251505,
,,,,72,0,72,0,,,,,,,,,,,,,,,,,,,,,,1087.09544189999,None,,,,,,,,,,,,,,,,,material,72,73,silent,old,red,1081.9795581999933,None,1081.9795581999933,None,4,4.164450399985071,1081.9795581999933,None,4.164450399985071,1086.1791168999916,None,1086.6920983000018,None,1086.6920983000018,None,n,0.38002229999983683,1086.6920983000018,None,0.38002229999983683,,,135Silent,001,2023_Oct_26_0837,ProdSingRedoBetween,2021.2.3,59.921000155251505,
,,,,73,0,73,0,,,,,,,,,,,,,,,,,,,,,,1097.8197021999804,None,,,,,,,,,,,,,,,,,relation,120,74,silent,new,null,1087.6166448000004,None,1087.6166448000004,None,5,8.583479799999623,1087.6166448000004,None,8.583479799999623,1096.2308003999933,None,1096.7354501999798,None,1096.7354501999798,None,f,1.0564424000040162,1096.7354501999798,None,1.0564424000040162,,,135Silent,001,2023_Oct_26_0837,ProdSingRedoBetween,2021.2.3,59.921000155251505,
,,,,74,0,74,0,,,,,,,,,,,,,,,,,,,,,,1101.2908468999958,None,,,,,,,,,,,,,,,,,majority,139,75,silent,new,null,1098.3310280999867,None,1098.3310280999867,None,4,2.0130452000012156,1098.3310280999867,None,2.0130452000012156,1100.37827679998,None,1100.9019152999972,None,1100.9019152999972,None,n,0.36218180001014844,1100.9019152999972,None,0.36218180001014844,,,135Silent,001,2023_Oct_26_0837,ProdSingRedoBetween,2021.2.3,59.921000155251505,
,,,,75,0,75,0,,,,,,,,,,,,,,,,,,,,,,1105.9111166999792,None,,,,,,,,,,,,,,,,,research,164,76,silent,new,null,1101.7946839999931,None,1101.7946839999931,None,5,2.86147920001531,1101.7946839999931,None,2.86147920001531,1104.6877563000016,None,1105.2022966999793,None,1105.2022966999793,None,f,0.6857197999779601,1105.2022966999793,None,0.6857197999779601,,,135Silent,001,2023_Oct_26_0837,ProdSingRedoBetween,2021.2.3,59.921000155251505,
,,,,76,0,76,0,,,,,,,,,,,,,,,,,,,,,,1109.2478627999953,None,,,,,,,,,,,,,,,,,express,126,77,silent,new,null,1106.4162598999974,None,1106.4162598999974,None,2,1.6638975999958348,1106.4162598999974,None,1.6638975999958348,1108.106223699986,None,1108.6171204999846,None,1108.6171204999846,None,n,0.614979800011497,1108.6171204999846,None,0.614979800011497,,,135Silent,001,2023_Oct_26_0837,ProdSingRedoBetween,2021.2.3,59.921000155251505,
,,,,77,0,77,0,,,,,,,,,,,,,,,,,,,,,,1114.3362093000032,None,,,,,,,,,,,,,,,,,appearance,138,78,silent,new,null,1109.7595445000043,None,1109.7595445000043,None,3,3.704548799985787,1109.7595445000043,None,3.704548799985787,1113.4890468999802,None,1114.0123452999978,None,1114.0123452999978,None,n,0.3075389000005089,1114.0123452999978,None,0.3075389000005089,,,135Silent,001,2023_Oct_26_0837,ProdSingRedoBetween,2021.2.3,59.921000155251505,
,,,,78,0,78,0,,,,,,,,,,,,,,,,,,,,,,1118.126146900002,None,,,,,,,,,,,,,,,,,height,122,79,silent,new,null,1114.848532599979,None,1114.848532599979,None,3,2.5835099999967497,1114.848532599979,None,2.5835099999967497,1117.4592698999913,None,1117.9752264999843,None,1117.9752264999843,None,n,0.12904850000631995,1117.9752264999843,None,0.12904850000631995,,,135Silent,001,2023_Oct_26_0837,ProdSingRedoBetween,2021.2.3,59.921000155251505,
,,,,79,0,79,0,,,,,,,,,,,,,,,,,,,,,,1122.6462253000063,None,,,,,,,,,,,,,,,,,territory,7,80,silent,old,yellow,1118.651996600005,None,1118.651996600005,None,4,3.1081000000122003,1118.651996600005,None,3.1081000000122003,1121.7869240999862,None,1122.2976327999786,None,1122.2976327999786,None,n,0.32656700001098216,1122.2976327999786,None,0.32656700001098216,,,135Silent,001,2023_Oct_26_0837,ProdSingRedoBetween,2021.2.3,59.921000155251505,
,,,,80,0,80,0,,,,,,,,,,,,,,,,,,,,,,1125.4654068999807,None,,,,,,,,,,,,,,,,,primary,98,81,silent,new,null,1123.1657494999818,None,1123.1657494999818,None,4,1.698386500007473,1123.1657494999818,None,1.698386500007473,1124.891621399991,None,1125.4037971999787,None,1125.4037971999787,None,n,0.04451619999599643,1125.4037971999787,None,0.04451619999599643,,,135Silent,001,2023_Oct_26_0837,ProdSingRedoBetween,2021.2.3,59.921000155251505,
,,,,81,0,81,0,,,,,,,,,,,,,,,,,,,,,,1134.156012499996,None,,,,,,,,,,,,,,,,,murder,119,82,silent,new,null,1125.9674553999794,None,1125.9674553999794,None,5,6.840657499997178,1125.9674553999794,None,6.840657499997178,1132.843066500005,None,1133.3580759000033,None,1133.3580759000033,None,n,0.769966400024714,1133.3580759000033,None,0.769966400024714,,,135Silent,001,2023_Oct_26_0837,ProdSingRedoBetween,2021.2.3,59.921000155251505,
,,,,82,0,82,0,,,,,,,,,,,,,,,,,,,,,,1137.9098392000014,None,,,,,,,,,,,,,,,,,shape,82,83,silent,old,red,1134.666058600007,None,1134.666058600007,None,4,2.365989299985813,1134.666058600007,None,2.365989299985813,1137.062150199985,None,1137.5868340999878,None,1137.5868340999878,None,n,0.29316250002011657,1137.5868340999878,None,0.29316250002011657,,,135Silent,001,2023_Oct_26_0837,ProdSingRedoBetween,2021.2.3,59.921000155251505,
,,,,83,0,83,0,,,,,,,,,,,,,,,,,,,,,,1142.999696199986,None,,,,,,,,,,,,,,,,,payment,100,84,silent,new,null,1138.4279830000014,None,1138.4279830000014,None,2,3.7801916000025813,1138.4279830000014,None,3.7801916000025813,1142.2407486999873,None,1142.7525180999946,None,1142.7525180999946,None,n,0.22371389999170788,1142.7525180999946,None,0.22371389999170788,,,135Silent,001,2023_Oct_26_0837,ProdSingRedoBetween,2021.2.3,59.921000155251505,
,,,,84,0,84,0,,,,,,,,,,,,,,,,,,,,,,1145.9678809999896,None,,,,,,,,,,,,,,,,,mankind,94,85,silent,new,null,1143.504177099996,None,1143.504177099996,None,2,1.896012500015786,1143.504177099996,None,1.896012500015786,1145.428109200002,None,1145.9370093999896,None,1145.9370093999896,None,n,0.015029499976662919,1145.9370093999896,None,0.015029499976662919,,,135Silent,001,2023_Oct_26_0837,ProdSingRedoBetween,2021.2.3,59.921000155251505,
,,,,85,0,85,0,,,,,,,,,,,,,,,,,,,,,,1150.4390449000057,None,,,,,,,,,,,,,,,,,generation,177,86,silent,new,null,1146.4765948999848,None,1146.4765948999848,None,4,3.043561000027694,1146.4765948999848,None,3.043561000027694,1149.5446536999953,None,1150.0554775999917,None,1150.0554775999917,None,n,0.3526928999926895,1150.0554775999917,None,0.3526928999926895,,,135Silent,001,2023_Oct_26_0837,ProdSingRedoBetween,2021.2.3,59.921000155251505,
,,,,86,0,86,0,,,,,,,,,,,,,,,,,,,,,,1154.4790225999895,None,,,,,,,,,,,,,,,,,point,31,87,silent,old,blue,1150.9516960000037,None,1150.9516960000037,None,2,2.816546800022479,1150.9516960000037,None,2.816546800022479,1153.8002509999787,None,1154.3101812999812,None,1154.3101812999812,None,n,0.13801180000882596,1154.3101812999812,None,0.13801180000882596,,,135Silent,001,2023_Oct_26_0837,ProdSingRedoBetween,2021.2.3,59.921000155251505,
,,,,87,0,87,0,,,,,,,,,,,,,,,,,,,,,,1162.9682312999794,None,,,,,,,,,,,,,,,,,shear,170,88,silent,new,null,1154.999999599997,None,1154.999999599997,None,3,7.064140400005272,1154.999999599997,None,7.064140400005272,1162.0912933000072,None,1162.6065051000041,None,1162.6065051000041,None,n,0.33768669998971745,1162.6065051000041,None,0.33768669998971745,,,135Silent,001,2023_Oct_26_0837,ProdSingRedoBetween,2021.2.3,59.921000155251505,
,,,,88,0,88,0,,,,,,,,,,,,,,,,,,,,,,1166.9054934000014,None,,,,,,,,,,,,,,,,,youth,15,89,silent,old,yellow,1163.4835064999934,None,1163.4835064999934,None,5,2.1725432999955956,1163.4835064999934,None,2.1725432999955956,1165.6735421000049,None,1166.193611900002,None,1166.193611900002,None,f,0.6864685000036843,1166.193611900002,None,0.6864685000036843,,,135Silent,001,2023_Oct_26_0837,ProdSingRedoBetween,2021.2.3,59.921000155251505,
,,,,89,0,89,0,,,,,,,,,,,,,,,,,,,,,,1177.6010680999898,None,,,,,,,,,,,,,,,,,foundation,130,90,silent,new,null,1167.4163394999923,None,1167.4163394999923,None,4,7.903750700003002,1167.4163394999923,None,7.903750700003002,1175.3501861999976,None,1175.8735396999982,None,1175.8735396999982,None,n,1.7026172000041697,1175.8735396999982,None,1.7026172000041697,,,135Silent,001,2023_Oct_26_0837,ProdSingRedoBetween,2021.2.3,59.921000155251505,
,,,,90,0,90,0,,,,,,,,,,,,,,,,,,,,,,1182.0472634999896,None,,,,,,,,,,,,,,,,,little,158,91,silent,new,null,1178.1032167999947,None,1178.1032167999947,None,3,2.888929900014773,1178.1032167999947,None,2.888929900014773,1181.0468274999876,None,1181.5617220999848,None,1181.5617220999848,None,n,0.4465445000096224,1181.5617220999848,None,0.4465445000096224,,,135Silent,001,2023_Oct_26_0837,ProdSingRedoBetween,2021.2.3,59.921000155251505,
,,,,91,0,91,0,,,,,,,,,,,,,,,,,,,,,,1187.6771279999812,None,,,,,,,,,,,,,,,,,chief,60,92,silent,old,red,1182.5584311999846,None,1182.5584311999846,None,5,4.38601810002001,1182.5584311999846,None,4.38601810002001,1186.9824929999886,None,1187.4928715999995,None,1187.4928715999995,None,f,0.15536550001706928,1187.4928715999995,None,0.15536550001706928,,,135Silent,001,2023_Oct_26_0837,ProdSingRedoBetween,2021.2.3,59.921000155251505,
,,,,92,0,92,0,,,,,,,,,,,,,,,,,,,,,,1190.6793124999967,None,,,,,,,,,,,,,,,,,heavy,118,93,silent,new,null,1188.18198199998,None,1188.18198199998,None,4,1.810122800001409,1188.18198199998,None,1.810122800001409,1190.0131147000066,None,1190.517752499989,None,1190.517752499989,None,n,0.13047829997958615,1190.517752499989,None,0.13047829997958615,,,135Silent,001,2023_Oct_26_0837,ProdSingRedoBetween,2021.2.3,59.921000155251505,
,,,,93,0,93,0,,,,,,,,,,,,,,,,,,,,,,1194.2995339999907,None,,,,,,,,,,,,,,,,,answer,49,94,silent,old,blue,1191.1955787999905,None,1191.1955787999905,None,4,1.7805666000058409,1191.1955787999905,None,1.7805666000058409,1193.002806799981,None,1193.517023399996,None,1193.517023399996,None,n,0.7550705000176094,1193.517023399996,None,0.7550705000176094,,,135Silent,001,2023_Oct_26_0837,ProdSingRedoBetween,2021.2.3,59.921000155251505,
,,,,94,0,94,0,,,,,,,,,,,,,,,,,,,,,,1198.637052200007,None,,,,,,,,,,,,,,,,,capital,86,95,silent,old,red,1194.8110967999964,None,1194.8110967999964,None,5,2.917041800013976,1194.8110967999964,None,2.917041800013976,1197.7566445999837,None,1198.2802424999827,None,1198.2802424999827,None,n,0.32797140002367087,1198.2802424999827,None,0.32797140002367087,,,135Silent,001,2023_Oct_26_0837,ProdSingRedoBetween,2021.2.3,59.921000155251505,
,,,,95,0,95,0,,,,,,,,,,,,,,,,,,,,,,1203.9612479000061,None,,,,,,,,,,,,,,,,,weight,18,96,silent,old,yellow,1199.1436624999915,None,1199.1436624999915,None,3,3.9765080000215676,1199.1436624999915,None,3.9765080000215676,1203.1466310999822,None,1203.6652144999825,None,1203.6652144999825,None,n,0.2631689000118058,1203.6652144999825,None,0.2631689000118058,,,135Silent,001,2023_Oct_26_0837,ProdSingRedoBetween,2021.2.3,59.921000155251505,
,,,,96,0,96,0,,,,,,,,,,,,,,,,,,,,,,1214.7698924999859,None,,,,,,,,,,,,,,,,,partner,40,97,silent,old,blue,1204.4804637999914,None,1204.4804637999914,None,6,9.11169739998877,1204.4804637999914,None,9.11169739998877,1213.622212599992,None,1214.1457671999815,None,1214.1457671999815,None,f,0.5983713000023272,1214.1457671999815,None,0.5983713000023272,,,135Silent,001,2023_Oct_26_0837,ProdSingRedoBetween,2021.2.3,59.921000155251505,
,,,,97,0,97,0,,,,,,,,,,,,,,,,,,,,,,1220.1587969999819,None,,,,,,,,,,,,,,,,,trial,151,98,silent,new,null,1215.2822756999813,None,1215.2822756999813,None,5,2.869895700016059,1215.2822756999813,None,2.869895700016059,1218.1767049999908,None,1218.690786399995,None,1218.690786399995,None,f,1.4454026999883354,1218.690786399995,None,1.4454026999883354,,,135Silent,001,2023_Oct_26_0837,ProdSingRedoBetween,2021.2.3,59.921000155251505,
,,,,98,0,98,0,,,,,,,,,,,,,,,,,,,,,,1223.2952069999883,None,,,,,,,,,,,,,,,,,medicine,111,99,silent,new,null,1220.6692495000025,None,1220.6692495000025,None,4,1.9549570999806747,1220.6692495000025,None,1.9549570999806747,1222.649168999982,None,1223.1657521000016,None,1223.1657521000016,None,n,0.10647790000075474,1223.1657521000016,None,0.10647790000075474,,,135Silent,001,2023_Oct_26_0837,ProdSingRedoBetween,2021.2.3,59.921000155251505,
,,,,99,0,99,0,,,,,,,,,,,,,,,,,,,,,,1226.3338163000008,None,,,,,,,,,,,,,,,,,accident,155,100,silent,new,null,1223.8044604999886,None,1223.8044604999886,None,4,1.483692500012694,1223.8044604999886,None,1.483692500012694,1225.3149242999789,None,1225.8169841000054,None,1225.8169841000054,None,n,0.487283499998739,1225.8169841000054,None,0.487283499998739,,,135Silent,001,2023_Oct_26_0837,ProdSingRedoBetween,2021.2.3,59.921000155251505,
,,,,100,0,100,0,,,,,,,,,,,,,,,,,,,,,,1230.1852684000041,None,,,,,,,,,,,,,,,,,problem,62,101,silent,old,red,1226.853040499991,None,1226.853040499991,None,3,2.65113929999643,1226.853040499991,None,2.65113929999643,1229.5377777999965,None,1230.059739599994,None,1230.059739599994,None,n,0.1005099999892991,1230.059739599994,None,0.1005099999892991,,,135Silent,001,2023_Oct_26_0837,ProdSingRedoBetween,2021.2.3,59.921000155251505,
,,,,101,0,101,0,,,,,,,,,,,,,,,,,,,,,,1235.576684700005,None,,,,,,,,,,,,,,,,,level,53,102,silent,old,blue,1230.6896643000073,None,1230.6896643000073,None,5,2.254573199985316,1230.6896643000073,None,2.254573199985316,1232.9771581999958,None,1233.4932455999951,None,1233.4932455999951,None,n,2.051172899984522,1233.4932455999951,None,2.051172899984522,,,135Silent,001,2023_Oct_26_0837,ProdSingRedoBetween,2021.2.3,59.921000155251505,
,,,,102,0,102,0,,,,,,,,,,,,,,,,,,,,,,1240.297028800007,None,,,,,,,,,,,,,,,,,swift,77,103,silent,old,red,1236.1007507999893,None,1236.1007507999893,None,2,2.8835708999831695,1236.1007507999893,None,2.8835708999831695,1239.0203983999963,None,1239.5328862000024,None,1239.5328862000024,None,n,0.7474433000024874,1239.5328862000024,None,0.7474433000024874,,,135Silent,001,2023_Oct_26_0837,ProdSingRedoBetween,2021.2.3,59.921000155251505,
,,,,103,0,103,0,,,,,,,,,,,,,,,,,,,,,,1244.5664228999813,None,,,,,,,,,,,,,,,,,thing,147,104,silent,new,null,1240.805885699985,None,1240.805885699985,None,3,1.5784610999980941,1240.805885699985,None,1.5784610999980941,1242.4208126000012,None,1242.9370168999885,None,1242.9370168999885,None,n,1.60721950000152,1242.9370168999885,None,1.60721950000152,,,135Silent,001,2023_Oct_26_0837,ProdSingRedoBetween,2021.2.3,59.921000155251505,
,,,,104,0,104,0,,,,,,,,,,,,,,,,,,,,,,1248.3252454999893,None,,,,,,,,,,,,,,,,,travel,17,105,silent,old,yellow,1245.0824874999817,None,1245.0824874999817,None,4,2.2936826000222936,1245.0824874999817,None,2.2936826000222936,1247.408249,None,1247.926705699996,None,1247.926705699996,None,n,0.36968020000495017,1247.926705699996,None,0.36968020000495017,,,135Silent,001,2023_Oct_26_0837,ProdSingRedoBetween,2021.2.3,59.921000155251505,
,,,,105,0,105,0,,,,,,,,,,,,,,,,,,,,,,1252.2909331999836,None,,,,,,,,,,,,,,,,,republic,26,106,silent,old,yellow,1248.8459713000047,None,1248.8459713000047,None,4,2.738432299986016,1248.8459713000047,None,2.738432299986016,1251.6196694999817,None,1252.1256571999984,None,1252.1256571999984,None,n,0.14661429999978282,1252.1256571999984,None,0.14661429999978282,,,135Silent,001,2023_Oct_26_0837,ProdSingRedoBetween,2021.2.3,59.921000155251505,
,,,,106,0,106,0,,,,,,,,,,,,,,,,,,,,,,1256.028034899995,None,,,,,,,,,,,,,,,,,smooth,51,107,silent,old,blue,1252.7976850999985,None,1252.7976850999985,None,4,2.282705400022678,1252.7976850999985,None,2.282705400022678,1255.1170110999956,None,1255.6278364000027,None,1255.6278364000027,None,n,0.38049350000801496,1255.6278364000027,None,0.38049350000801496,,,135Silent,001,2023_Oct_26_0837,ProdSingRedoBetween,2021.2.3,59.921000155251505,
,,,,107,0,107,0,,,,,,,,,,,,,,,,,,,,,,1261.2165141000005,None,,,,,,,,,,,,,,,,,debate,80,108,silent,old,red,1256.5403769999975,None,1256.5403769999975,None,5,3.891929400007939,1256.5403769999975,None,3.891929400007939,1260.452131500002,None,1260.9742014999792,None,1260.9742014999792,None,f,0.21814230000018142,1260.9742014999792,None,0.21814230000018142,,,135Silent,001,2023_Oct_26_0837,ProdSingRedoBetween,2021.2.3,59.921000155251505,
,,,,108,0,108,0,,,,,,,,,,,,,,,,,,,,,,1268.4585879999795,None,,,,,,,,,,,,,,,,,taste,57,109,silent,old,blue,1261.7227251000004,None,1261.7227251000004,None,4,5.597511900006793,1261.7227251000004,None,5.597511900006793,1267.3417274999956,None,1267.8614147999906,None,1267.8614147999906,None,n,0.5709182000136934,1267.8614147999906,None,0.5709182000136934,,,135Silent,001,2023_Oct_26_0837,ProdSingRedoBetween,2021.2.3,59.921000155251505,
,,,,109,0,109,0,,,,,,,,,,,,,,,,,,,,,,1275.5823638000002,None,,,,,,,,,,,,,,,,,death,10,110,silent,old,yellow,1268.9607751999865,None,1268.9607751999865,None,5,5.855566600017482,1268.9607751999865,None,5.855566600017482,1274.8522441999812,None,1275.3641459000064,None,1275.3641459000064,None,f,0.1962342000042554,1275.3641459000064,None,0.1962342000042554,,,135Silent,001,2023_Oct_26_0837,ProdSingRedoBetween,2021.2.3,59.921000155251505,
,,,,110,0,110,0,,,,,,,,,,,,,,,,,,,,,,1281.787121100002,None,,,,,,,,,,,,,,,,,block,90,111,silent,new,null,1276.0860104000021,None,1276.0860104000021,None,2,5.0342893000051845,1276.0860104000021,None,5.0342893000051845,1281.1424705999962,None,1281.6577393999905,None,1281.6577393999905,None,n,0.11055559999658726,1281.6577393999905,None,0.11055559999658726,,,135Silent,001,2023_Oct_26_0837,ProdSingRedoBetween,2021.2.3,59.921000155251505,
,,,,111,0,111,0,,,,,,,,,,,,,,,,,,,,,,1286.34147449999,None,,,,,,,,,,,,,,,,,opening,104,112,silent,new,null,1282.301233599981,None,1282.301233599981,None,5,1.9229634999937844,1282.301233599981,None,1.9229634999937844,1284.243046299991,None,1284.7674589999951,None,1284.7674589999951,None,n,1.5528055999893695,1284.7674589999951,None,1.5528055999893695,,,135Silent,001,2023_Oct_26_0837,ProdSingRedoBetween,2021.2.3,59.921000155251505,
,,,,112,0,112,0,,,,,,,,,,,,,,,,,,,,,,1290.3123191999912,None,,,,,,,,,,,,,,,,,minute,87,113,silent,old,red,1286.8526218000043,None,1286.8526218000043,None,3,2.5237087000277825,1286.8526218000043,None,2.5237087000277825,1289.400417900004,None,1289.9175545999897,None,1289.9175545999897,None,n,0.3707165000087116,1289.9175545999897,None,0.3707165000087116,,,135Silent,001,2023_Oct_26_0837,ProdSingRedoBetween,2021.2.3,59.921000155251505,
,,,,113,0,113,0,,,,,,,,,,,,,,,,,,,,,,1294.9335953999835,None,,,,,,,,,,,,,,,,,volume,55,114,silent,old,blue,1290.8266623999807,None,1290.8266623999807,None,5,3.3897405000170693,1290.8266623999807,None,3.3897405000170693,1294.240349300002,None,1294.7562786999915,None,1294.7562786999915,None,f,0.14799160000984557,1294.7562786999915,None,0.14799160000984557,,,135Silent,001,2023_Oct_26_0837,ProdSingRedoBetween,2021.2.3,59.921000155251505,
,,,,114,0,114,0,,,,,,,,,,,,,,,,,,,,,,1298.9209225999948,None,,,,,,,,,,,,,,,,,notice,16,115,silent,old,yellow,1295.445902699983,None,1295.445902699983,None,4,2.778326500003459,1295.445902699983,None,2.778326500003459,1298.2564846999885,None,1298.7709929999837,None,1298.7709929999837,None,n,0.1333732999919448,1298.7709929999837,None,0.1333732999919448,,,135Silent,001,2023_Oct_26_0837,ProdSingRedoBetween,2021.2.3,59.921000155251505,
,,,,115,0,115,0,,,,,,,,,,,,,,,,,,,,,,1308.9810006000043,None,,,,,,,,,,,,,,,,,signal,154,116,silent,new,null,1299.4351331999933,None,1299.4351331999933,None,4,7.605226899991976,1299.4351331999933,None,7.605226899991976,1307.077689400001,None,1307.582721499988,None,1307.582721499988,None,n,1.3695644999970682,1307.582721499988,None,1.3695644999970682,,,135Silent,001,2023_Oct_26_0837,ProdSingRedoBetween,2021.2.3,59.921000155251505,
,,,,116,0,116,0,,,,,,,,,,,,,,,,,,,,,,1313.0182898000057,None,,,,,,,,,,,,,,,,,build,176,117,silent,new,null,1309.4961793999828,None,1309.4961793999828,None,3,2.664125100011006,1309.4961793999828,None,2.664125100011006,1312.18767449999,None,1312.7014512000023,None,1312.7014512000023,None,n,0.29886229999829084,1312.7014512000023,None,0.29886229999829084,,,135Silent,001,2023_Oct_26_0837,ProdSingRedoBetween,2021.2.3,59.921000155251505,
,,,,117,0,117,0,,,,,,,,,,,,,,,,,,,,,,1320.376855199982,None,,,,,,,,,,,,,,,,,piece,32,118,silent,old,blue,1313.5256065999856,None,1313.5256065999856,None,3,5.266710600000806,1313.5256065999856,None,5.266710600000806,1318.8123476000037,None,1319.3278939999873,None,1319.3278939999873,None,n,1.0165230999991763,1319.3278939999873,None,1.0165230999991763,,,135Silent,001,2023_Oct_26_0837,ProdSingRedoBetween,2021.2.3,59.921000155251505,
,,,,118,0,118,0,,,,,,,,,,,,,,,,,,,,,,1326.4150687000074,None,,,,,,,,,,,,,,,,,interior,24,119,silent,old,yellow,1320.8797306999913,None,1320.8797306999913,None,4,4.704669900005683,1320.8797306999913,None,4.704669900005683,1325.6243915999949,None,1326.1337100999954,None,1326.1337100999954,None,n,0.25856210000347346,1326.1337100999954,None,0.25856210000347346,,,135Silent,001,2023_Oct_26_0837,ProdSingRedoBetween,2021.2.3,59.921000155251505,
,,,,119,0,119,0,,,,,,,,,,,,,,,,,,,,,,1331.2699404000014,None,,,,,,,,,,,,,,,,,leader,134,120,silent,new,null,1326.9230162999884,None,1326.9230162999884,None,4,2.9652719000005163,1326.9230162999884,None,2.9652719000005163,1329.920447099983,None,1330.4387991999974,None,1330.4387991999974,None,n,0.8095483999932185,1330.4387991999974,None,0.8095483999932185,,,135Silent,001,2023_Oct_26_0837,ProdSingRedoBetween,2021.2.3,59.921000155251505,
,,,,120,0,120,0,,,,,,,,,,,,,,,,,,,,,,1336.274948699982,None,,,,,,,,,,,,,,,,,brilliant,30,121,silent,old,blue,1331.776377000002,None,1331.776377000002,None,2,3.623985000012908,1331.776377000002,None,3.623985000012908,1335.431222299987,None,1335.9462024999957,None,1335.9462024999957,None,n,0.3020542000012938,1335.9462024999957,None,0.3020542000012938,,,135Silent,001,2023_Oct_26_0837,ProdSingRedoBetween,2021.2.3,59.921000155251505,
,,,,121,0,121,0,,,,,,,,,,,,,,,,,,,,,,1342.5144506999932,None,,,,,,,,,,,,,,,,,crowd,46,122,silent,old,blue,1336.7896815999993,None,1336.7896815999993,None,4,4.7305676999967545,1336.7896815999993,None,4.7305676999967545,1341.5476663000009,None,1342.0515641999955,None,1342.0515641999955,None,n,0.4366223999822978,1342.0515641999955,None,0.4366223999822978,,,135Silent,001,2023_Oct_26_0837,ProdSingRedoBetween,2021.2.3,59.921000155251505,
,,,,122,0,122,0,,,,,,,,,,,,,,,,,,,,,,1345.2859950999846,None,,,,,,,,,,,,,,,,,store,160,123,silent,new,null,1343.0243452999857,None,1343.0243452999857,None,4,1.3601627000025474,1343.0243452999857,None,1.3601627000025474,1344.4097533999884,None,1344.9186269000056,None,1344.9186269000056,None,n,0.33783519998542033,1344.9186269000056,None,0.33783519998542033,,,135Silent,001,2023_Oct_26_0837,ProdSingRedoBetween,2021.2.3,59.921000155251505,
,,,,123,0,123,0,,,,,,,,,,,,,,,,,,,,,,1348.1239424999803,None,,,,,,,,,,,,,,,,,phrase,88,124,silent,old,red,1345.810405600001,None,1345.810405600001,None,3,1.6299909999943338,1345.810405600001,None,1.6299909999943338,1347.472374999983,None,1347.9929212999996,None,1347.9929212999996,None,n,0.11153930000727996,1347.9929212999996,None,0.11153930000727996,,,135Silent,001,2023_Oct_26_0837,ProdSingRedoBetween,2021.2.3,59.921000155251505,
,,,,124,0,124,0,,,,,,,,,,,,,,,,,,,,,,1352.758113399992,None,,,,,,,,,,,,,,,,,congress,71,125,silent,old,red,1348.6485828000004,None,1348.6485828000004,None,5,3.0236817999975756,1348.6485828000004,None,3.0236817999975756,1351.6939154999855,None,1352.213259399985,None,1352.213259399985,None,f,0.5150288000004366,1352.213259399985,None,0.5150288000004366,,,135Silent,001,2023_Oct_26_0837,ProdSingRedoBetween,2021.2.3,59.921000155251505,
,,,,125,0,125,0,,,,,,,,,,,,,,,,,,,,,,1357.8298700999876,None,,,,,,,,,,,,,,,,,patient,165,126,silent,new,null,1353.2674427999882,None,1353.2674427999882,None,4,3.6767613999836612,1353.2674427999882,None,3.6767613999836612,1356.965905399993,None,1357.4873310999828,None,1357.4873310999828,None,n,0.3211276999791153,1357.4873310999828,None,0.3211276999791153,,,135Silent,001,2023_Oct_26_0837,ProdSingRedoBetween,2021.2.3,59.921000155251505,
,,,,126,0,126,0,,,,,,,,,,,,,,,,,,,,,,1361.85141079998,None,,,,,,,,,,,,,,,,,country,133,127,silent,new,null,1358.341594700003,None,1358.341594700003,None,4,2.146779400005471,1358.341594700003,None,2.146779400005471,1360.5216089999885,None,1361.0372623000003,None,1361.0372623000003,None,n,0.7869502999819815,1361.0372623000003,None,0.7869502999819815,,,135Silent,001,2023_Oct_26_0837,ProdSingRedoBetween,2021.2.3,59.921000155251505,
,,,,127,0,127,0,,,,,,,,,,,,,,,,,,,,,,1365.9896925000066,None,,,,,,,,,,,,,,,,,month,108,128,silent,new,null,1362.3583517999796,None,1362.3583517999796,None,2,1.8740907000028528,1362.3583517999796,None,1.8740907000028528,1364.259017799981,None,1364.7745894999825,None,1364.7745894999825,None,n,1.1938628000207245,1364.7745894999825,None,1.1938628000207245,,,135Silent,001,2023_Oct_26_0837,ProdSingRedoBetween,2021.2.3,59.921000155251505,
,,,,128,0,128,0,,,,,,,,,,,,,,,,,,,,,,1371.2959420999978,None,,,,,,,,,,,,,,,,,sound,28,129,silent,old,yellow,1366.5087427999824,None,1366.5087427999824,None,5,3.9717667999793775,1366.5087427999824,None,3.9717667999793775,1370.5162393999926,None,1371.0291733999911,None,1371.0291733999911,None,n,0.2434036000049673,1371.0291733999911,None,0.2434036000049673,,,135Silent,001,2023_Oct_26_0837,ProdSingRedoBetween,2021.2.3,59.921000155251505,
,,,,129,0,129,0,,,,,,,,,,,,,,,,,,,,,,1375.5976206999912,None,,,,,,,,,,,,,,,,,discovery,83,130,silent,old,red,1371.819522100006,None,1371.819522100006,None,4,2.205075300007593,1371.819522100006,None,2.205075300007593,1374.056681999995,None,1374.5685669999802,None,1374.5685669999802,None,n,0.9998310999944806,1374.5685669999802,None,0.9998310999944806,,,135Silent,001,2023_Oct_26_0837,ProdSingRedoBetween,2021.2.3,59.921000155251505,
,,,,130,0,130,0,,,,,,,,,,,,,,,,,,,,,,1378.4337937999808,None,,,,,,,,,,,,,,,,,enemy,129,131,silent,new,null,1376.111322199984,None,1376.111322199984,None,4,1.528968700004043,1376.111322199984,None,1.528968700004043,1377.6684037999948,None,1378.1909490999824,None,1378.1909490999824,None,n,0.2173021000053268,1378.1909490999824,None,0.2173021000053268,,,135Silent,001,2023_Oct_26_0837,ProdSingRedoBetween,2021.2.3,59.921000155251505,
,,,,131,0,131,0,,,,,,,,,,,,,,,,,,,,,,1390.9129199000017,None,,,,,,,,,,,,,,,,,equipment,20,132,silent,old,yellow,1378.9478285999794,None,1378.9478285999794,None,5,11.028763000009349,1378.9478285999794,None,11.028763000009349,1390.0054660000023,None,1390.5197211999912,None,1390.5197211999912,None,n,0.37663610000163317,1390.5197211999912,None,0.37663610000163317,,,135Silent,001,2023_Oct_26_0837,ProdSingRedoBetween,2021.2.3,59.921000155251505,
,,,,132,0,132,0,,,,,,,,,,,,,,,,,,,,,,1394.4355599999835,None,,,,,,,,,,,,,,,,,comedy,42,133,silent,old,blue,1391.423746799992,None,1391.423746799992,None,3,1.712711500003934,1391.423746799992,None,1.712711500003934,1393.170026799984,None,1393.685939499992,None,1393.685939499992,None,n,0.722591800004011,1393.685939499992,None,0.722591800004011,,,135Silent,001,2023_Oct_26_0837,ProdSingRedoBetween,2021.2.3,59.921000155251505,
,,,,133,0,133,0,,,,,,,,,,,,,,,,,,,,,,1398.2395503000007,None,,,,,,,,,,,,,,,,,alert,8,134,silent,old,yellow,1394.9553018999868,None,1394.9553018999868,None,4,2.300962300010724,1394.9553018999868,None,2.300962300010724,1397.2859643999836,None,1397.7875913000025,None,1397.7875913000025,None,n,0.4289710000157356,1397.7875913000025,None,0.4289710000157356,,,135Silent,001,2023_Oct_26_0837,ProdSingRedoBetween,2021.2.3,59.921000155251505,
,,,,134,0,134,0,,,,,,,,,,,,,,,,,,,,,,1401.306658699992,None,,,,,,,,,,,,,,,,,narrow,150,135,silent,new,null,1398.7603228999942,None,1398.7603228999942,None,2,1.5200598999799695,1398.7603228999942,None,1.5200598999799695,1400.306864299986,None,1400.8121212999977,None,1400.8121212999977,None,n,0.47620619999361224,1400.8121212999977,None,0.47620619999361224,,,135Silent,001,2023_Oct_26_0837,ProdSingRedoBetween,2021.2.3,59.921000155251505,
,,,,135,0,135,0,,,,,,,,,,,,,,,,,,,,,,1406.1115017999837,None,,,,,,,,,,,,,,,,,audience,37,136,silent,old,blue,1401.8164505999885,None,1401.8164505999885,None,5,2.92000799998641,1401.8164505999885,None,2.92000799998641,1404.7634226999944,None,1405.2869073000038,None,1405.2869073000038,None,f,0.7936090000148397,1405.2869073000038,None,0.7936090000148397,,,135Silent,001,2023_Oct_26_0837,ProdSingRedoBetween,2021.2.3,59.921000155251505,
,,,,136,0,136,0,,,,,,,,,,,,,,,,,,,,,,1409.0310797999846,None,,,,,,,,,,,,,,,,,household,137,137,silent,new,null,1406.6257039000047,None,1406.6257039000047,None,3,1.5026405999960843,1406.6257039000047,None,1.5026405999960843,1408.1504375999793,None,1408.6642491999955,None,1408.6642491999955,None,n,0.3442796999879647,1408.6642491999955,None,0.3442796999879647,,,135Silent,001,2023_Oct_26_0837,ProdSingRedoBetween,2021.2.3,59.921000155251505,
,,,,137,0,137,0,,,,,,,,,,,,,,,,,,,,,,1416.088136699982,None,,,,,,,,,,,,,,,,,state,58,138,silent,old,blue,1409.5451445999788,None,1409.5451445999788,None,6,4.927377500018338,1409.5451445999788,None,4.927377500018338,1414.5092545999796,None,1415.0268611999927,None,1415.0268611999927,None,f,1.0456111000094097,1415.0268611999927,None,1.0456111000094097,,,135Silent,001,2023_Oct_26_0837,ProdSingRedoBetween,2021.2.3,59.921000155251505,
,,,,138,0,138,0,,,,,,,,,,,,,,,,,,,,,,1421.5770481000072,None,,,,,,,,,,,,,,,,,judge,21,139,silent,old,yellow,1416.5989597000007,None,1416.5989597000007,None,6,4.25750199999311,1416.5989597000007,None,4.25750199999311,1420.8813288999954,None,1421.3989278999798,None,1421.3989278999798,None,f,0.15356269999756478,1421.3989278999798,None,0.15356269999756478,,,135Silent,001,2023_Oct_26_0837,ProdSingRedoBetween,2021.2.3,59.921000155251505,
,,,,139,0,139,0,,,,,,,,,,,,,,,,,,,,,,1425.0304420999892,None,,,,,,,,,,,,,,,,,master,116,140,silent,new,null,1422.0907587999827,None,1422.0907587999827,None,2,1.5096557999786455,1422.0907587999827,None,1.5096557999786455,1423.6298122000007,None,1424.135045300005,None,1424.135045300005,None,n,0.865412599989213,1424.135045300005,None,0.865412599989213,,,135Silent,001,2023_Oct_26_0837,ProdSingRedoBetween,2021.2.3,59.921000155251505,
,,,,140,0,140,0,,,,,,,,,,,,,,,,,,,,,,1428.9509549000068,None,,,,,,,,,,,,,,,,,rough,136,141,silent,new,null,1425.539503099979,None,1425.539503099979,None,3,2.357136899983743,1425.539503099979,None,2.357136899983743,1427.922565099987,None,1428.4355404999806,None,1428.4355404999806,None,n,0.48486540000885725,1428.4355404999806,None,0.48486540000885725,,,135Silent,001,2023_Oct_26_0837,ProdSingRedoBetween,2021.2.3,59.921000155251505,
,,,,141,0,141,0,,,,,,,,,,,,,,,,,,,,,,1433.755711899983,None,,,,,,,,,,,,,,,,,course,142,142,silent,new,null,1429.4650228999963,None,1429.4650228999963,None,4,3.3834187999891583,1429.4650228999963,None,3.3834187999891583,1432.8751569000015,None,1433.3962746000034,None,1433.3962746000034,None,n,0.3320684999926016,1433.3962746000034,None,0.3320684999926016,,,135Silent,001,2023_Oct_26_0837,ProdSingRedoBetween,2021.2.3,59.921000155251505,
,,,,142,0,142,0,,,,,,,,,,,,,,,,,,,,,,1438.4818269999814,None,,,,,,,,,,,,,,,,,business,22,143,silent,old,yellow,1434.26671549998,None,1434.26671549998,None,5,3.269735400011996,1434.26671549998,None,3.269735400011996,1437.5629874999868,None,1438.0843724999868,None,1438.0843724999868,None,n,0.36429829997359775,1438.0843724999868,None,0.36429829997359775,,,135Silent,001,2023_Oct_26_0837,ProdSingRedoBetween,2021.2.3,59.921000155251505,
,,,,143,0,143,0,,,,,,,,,,,,,,,,,,,,,,1446.3684059999941,None,,,,,,,,,,,,,,,,,general,13,144,silent,old,yellow,1439.0020766999805,None,1439.0020766999805,None,4,6.430503300012788,1439.0020766999805,None,6.430503300012788,1445.4595738000062,None,1445.9711483999854,None,1445.9711483999854,None,n,0.3735965999949258,1445.9711483999854,None,0.3735965999949258,,,135Silent,001,2023_Oct_26_0837,ProdSingRedoBetween,2021.2.3,59.921000155251505,
,,,,144,0,144,0,,,,,,,,,,,,,,,,,,,,,,1450.1387911000056,None,,,,,,,,,,,,,,,,,error,124,145,silent,new,null,1446.8807305999799,None,1446.8807305999799,None,4,2.0157326000044122,1446.8807305999799,None,2.0157326000044122,1448.924133499997,None,1449.4450526,None,1449.4450526,None,n,0.6674700000148732,1449.4450526,None,0.6674700000148732,,,135Silent,001,2023_Oct_26_0837,ProdSingRedoBetween,2021.2.3,59.921000155251505,
,,,,145,0,145,0,,,,,,,,,,,,,,,,,,,,,,1454.0635784000042,None,,,,,,,,,,,,,,,,,threat,97,146,silent,new,null,1450.6470937999838,None,1450.6470937999838,None,4,2.497581800009357,1450.6470937999838,None,2.497581800009357,1453.184343300003,None,1453.6946265999868,None,1453.6946265999868,None,n,0.34605150000425056,1453.6946265999868,None,0.34605150000425056,,,135Silent,001,2023_Oct_26_0837,ProdSingRedoBetween,2021.2.3,59.921000155251505,
,,,,146,0,146,0,,,,,,,,,,,,,,,,,,,,,,1458.1671480999794,None,,,,,,,,,,,,,,,,,frank,67,147,silent,old,red,1454.5956041000027,None,1454.5956041000027,None,2,2.517063800012693,1454.5956041000027,None,2.517063800012693,1457.1334100999811,None,1457.6481022999797,None,1457.6481022999797,None,n,0.48855229999753647,1457.6481022999797,None,0.48855229999753647,,,135Silent,001,2023_Oct_26_0837,ProdSingRedoBetween,2021.2.3,59.921000155251505,
,,,,147,0,147,0,,,,,,,,,,,,,,,,,,,,,,1460.7995244000049,None,,,,,,,,,,,,,,,,,atmosphere,174,148,silent,new,null,1458.6847940000007,None,1458.6847940000007,None,2,1.2677153999975417,1458.6847940000007,None,1.2677153999975417,1459.9866817999864,None,1460.5108163999976,None,1460.5108163999976,None,n,0.27367260001483373,1460.5108163999976,None,0.27367260001483373,,,135Silent,001,2023_Oct_26_0837,ProdSingRedoBetween,2021.2.3,59.921000155251505,
,,,,148,0,148,0,,,,,,,,,,,,,,,,,,,,,,1464.3864858000015,None,,,,,,,,,,,,,,,,,still,110,149,silent,new,null,1461.3146586999937,None,1461.3146586999937,None,3,2.1978078999964055,1461.3146586999937,None,2.1978078999964055,1463.540500300005,None,1464.058782099979,None,1464.058782099979,None,n,0.3096654999826569,1464.058782099979,None,0.3096654999826569,,,135Silent,001,2023_Oct_26_0837,ProdSingRedoBetween,2021.2.3,59.921000155251505,
,,,,149,0,149,0,,,,,,,,,,,,,,,,,,,,,,1477.2842394000036,None,,,,,,,,,,,,,,,,,command,179,150,silent,new,null,1464.8983095999865,None,1464.8983095999865,None,3,11.374175500008278,1464.8983095999865,None,11.374175500008278,1476.3040274999803,None,1476.8156754999945,None,1476.8156754999945,None,n,0.44881380000151694,1476.8156754999945,None,0.44881380000151694,,,135Silent,001,2023_Oct_26_0837,ProdSingRedoBetween,2021.2.3,59.921000155251505,
,,,,150,0,150,0,,,,,,,,,,,,,,,,,,,,,,1481.7371112999972,None,,,,,,,,,,,,,,,,,gesture,159,151,silent,new,null,1477.7942594999913,None,1477.7942594999913,None,4,2.5503967000113335,1477.7942594999913,None,2.5503967000113335,1480.3800059999921,None,1480.887997199985,None,1480.887997199985,None,n,0.8246184000163339,1480.887997199985,None,0.8246184000163339,,,135Silent,001,2023_Oct_26_0837,ProdSingRedoBetween,2021.2.3,59.921000155251505,
,,,,151,0,151,0,,,,,,,,,,,,,,,,,,,,,,1484.4231443000026,None,,,,,,,,,,,,,,,,,trail,73,152,silent,old,red,1482.2494442999887,None,1482.2494442999887,None,4,1.559038099978352,1482.2494442999887,None,1.559038099978352,1483.839204799995,None,1484.3427575999813,None,1484.3427575999813,None,n,0.04974019998917356,1484.3427575999813,None,0.04974019998917356,,,135Silent,001,2023_Oct_26_0837,ProdSingRedoBetween,2021.2.3,59.921000155251505,
,,,,152,0,152,0,,,,,,,,,,,,,,,,,,,,,,1495.317256099981,None,,,,,,,,,,,,,,,,,impact,135,153,silent,new,null,1484.9403011999966,None,1484.9403011999966,None,4,9.196106300019892,1484.9403011999966,None,9.196106300019892,1494.166059399984,None,1494.6672158000001,None,1494.6672158000001,None,n,0.6291581000259612,1494.6672158000001,None,0.6291581000259612,,,135Silent,001,2023_Oct_26_0837,ProdSingRedoBetween,2021.2.3,59.921000155251505,
,,,,153,0,153,0,,,,,,,,,,,,,,,,,,,,,,1502.7080347999872,None,,,,,,,,,,,,,,,,,evidence,76,154,silent,old,red,1495.8278146999946,None,1495.8278146999946,None,5,5.820876499987207,1495.8278146999946,None,5.820876499987207,1501.6799430999963,None,1502.1937887999811,None,1502.1937887999811,None,n,0.4947130999935325,1502.1937887999811,None,0.4947130999935325,,,135Silent,001,2023_Oct_26_0837,ProdSingRedoBetween,2021.2.3,59.921000155251505,
,,,,154,0,154,0,,,,,,,,,,,,,,,,,,,,,,1506.1948480999854,None,,,,,,,,,,,,,,,,,place,50,155,silent,old,blue,1503.2166574999865,None,1503.2166574999865,None,4,2.3198959000001196,1503.2166574999865,None,2.3198959000001196,1505.5646997999866,None,1506.0868644999864,None,1506.0868644999864,None,n,0.08961470000213012,1506.0868644999864,None,0.08961470000213012,,,135Silent,001,2023_Oct_26_0837,ProdSingRedoBetween,2021.2.3,59.921000155251505,
,,,,155,0,155,0,,,,,,,,,,,,,,,,,,,,,,1508.7807976999902,None,,,,,,,,,,,,,,,,,citizen,34,156,silent,old,blue,1506.7057073999895,None,1506.7057073999895,None,4,1.414991400000872,1506.7057073999895,None,1.414991400000872,1508.1566599999787,None,1508.6661571000004,None,1508.6661571000004,None,n,0.09436829999322072,1508.6661571000004,None,0.09436829999322072,,,135Silent,001,2023_Oct_26_0837,ProdSingRedoBetween,2021.2.3,59.921000155251505,
,,,,156,0,156,0,,,,,,,,,,,,,,,,,,,,,,1514.7534689999884,None,,,,,,,,,,,,,,,,,search,25,157,silent,old,yellow,1509.2954452999984,None,1509.2954452999984,None,4,4.6251048000121955,1509.2954452999984,None,4.6251048000121955,1513.939507300005,None,1514.4577388000034,None,1514.4577388000034,None,n,0.27079790001153015,1514.4577388000034,None,0.27079790001153015,,,135Silent,001,2023_Oct_26_0837,ProdSingRedoBetween,2021.2.3,59.921000155251505,
,,,,157,0,157,0,,,,,,,,,,,,,,,,,,,,,,1519.8419057999854,None,,,,,,,,,,,,,,,,,strength,99,158,silent,new,null,1515.2665619000036,None,1515.2665619000036,None,3,3.9100727000040933,1515.2665619000036,None,3.9100727000040933,1519.2101176999859,None,1519.7362364,None,1519.7362364,None,n,0.08832670000265352,1519.7362364,None,0.08832670000265352,,,135Silent,001,2023_Oct_26_0837,ProdSingRedoBetween,2021.2.3,59.921000155251505,
,,,,158,0,158,0,,,,,,,,,,,,,,,,,,,,,,1522.4111417999957,None,,,,,,,,,,,,,,,,,quiet,19,159,silent,old,yellow,1520.3501670999976,None,1520.3501670999976,None,3,1.4183626000012737,1520.3501670999976,None,1.4183626000012737,1521.7972901999892,None,1522.3111243000021,None,1522.3111243000021,None,n,0.07340799999656156,1522.3111243000021,None,0.07340799999656156,,,135Silent,001,2023_Oct_26_0837,ProdSingRedoBetween,2021.2.3,59.921000155251505,
,,,,159,0,159,0,,,,,,,,,,,,,,,,,,,,,,1526.4651251999894,None,,,,,,,,,,,,,,,,,space,157,160,silent,new,null,1522.9216595999897,None,1522.9216595999897,None,2,2.7188846000062767,1522.9216595999897,None,2.7188846000062767,1525.6657564000052,None,1526.1698143999965,None,1526.1698143999965,None,n,0.27074949999223463,1526.1698143999965,None,0.27074949999223463,,,135Silent,001,2023_Oct_26_0837,ProdSingRedoBetween,2021.2.3,59.921000155251505,
,,,,160,0,160,0,,,,,,,,,,,,,,,,,,,,,,1530.0187568999827,None,,,,,,,,,,,,,,,,,sight,27,161,silent,old,yellow,1526.9761965999787,None,1526.9761965999787,None,4,2.184421200014185,1526.9761965999787,None,2.184421200014185,1529.1906708999886,None,1529.7048100999964,None,1529.7048100999964,None,n,0.2877314000215847,1529.7048100999964,None,0.2877314000215847,,,135Silent,001,2023_Oct_26_0837,ProdSingRedoBetween,2021.2.3,59.921000155251505,
,,,,161,0,161,0,,,,,,,,,,,,,,,,,,,,,,1535.0934115999844,None,,,,,,,,,,,,,,,,,cousin,96,162,silent,new,null,1530.535862299992,None,1530.535862299992,None,2,2.1926793000020552,1530.535862299992,None,2.1926793000020552,1532.7580139999918,None,1533.2778789000004,None,1533.2778789000004,None,f,1.7948733000084758,1533.2778789000004,None,1.7948733000084758,,,135Silent,001,2023_Oct_26_0837,ProdSingRedoBetween,2021.2.3,59.921000155251505,
,,,,162,0,162,0,,,,,,,,,,,,,,,,,,,,,,1539.1779061999987,None,,,,,,,,,,,,,,,,,burden,91,163,silent,new,null,1535.6150726999913,None,1535.6150726999913,None,3,2.6896614000143018,1535.6150726999913,None,2.6896614000143018,1538.3362733999966,None,1538.8467653999978,None,1538.8467653999978,None,n,0.3058467999799177,1538.8467653999978,None,0.3058467999799177,,,135Silent,001,2023_Oct_26_0837,ProdSingRedoBetween,2021.2.3,59.921000155251505,
,,,,163,0,163,0,,,,,,,,,,,,,,,,,,,,,,1542.381100300001,None,,,,,,,,,,,,,,,,,society,161,164,silent,new,null,1539.6913781999901,None,1539.6913781999901,None,3,1.4534186999953818,1539.6913781999901,None,1.4534186999953818,1541.1759689000028,None,1541.6857407999923,None,1541.6857407999923,None,n,0.6668348999810405,1541.6857407999923,None,0.6668348999810405,,,135Silent,001,2023_Oct_26_0837,ProdSingRedoBetween,2021.2.3,59.921000155251505,
,,,,164,0,164,0,,,,,,,,,,,,,,,,,,,,,,1547.069142399996,None,,,,,,,,,,,,,,,,,estate,44,165,silent,old,blue,1542.8970227999962,None,1542.8970227999962,None,4,3.5195395999762695,1542.8970227999962,None,3.5195395999762695,1546.4399046000035,None,1546.952526899986,None,1546.952526899986,None,n,0.0961583000025712,1546.952526899986,None,0.0961583000025712,,,135Silent,001,2023_Oct_26_0837,ProdSingRedoBetween,2021.2.3,59.921000155251505,
,,,,165,0,165,0,,,,,,,,,,,,,,,,,,,,,,1550.3579486999952,None,,,,,,,,,,,,,,,,,suspect,148,166,silent,new,null,1547.5816030999995,None,1547.5816030999995,None,4,1.6110435999871697,1547.5816030999995,None,1.6110435999871697,1549.2246128999977,None,1549.7402238000068,None,1549.7402238000068,None,n,0.5884590000205208,1549.7402238000068,None,0.5884590000205208,,,135Silent,001,2023_Oct_26_0837,ProdSingRedoBetween,2021.2.3,59.921000155251505,
,,,,166,0,166,0,,,,,,,,,,,,,,,,,,,,,,1553.927712499979,None,,,,,,,,,,,,,,,,,clear,173,167,silent,new,null,1550.876995300001,None,1550.876995300001,None,3,1.9475551999930758,1550.876995300001,None,1.9475551999930758,1552.8438247999875,None,1553.3649012999958,None,1553.3649012999958,None,n,0.5398166000086349,1553.3649012999958,None,0.5398166000086349,,,135Silent,001,2023_Oct_26_0837,ProdSingRedoBetween,2021.2.3,59.921000155251505,
,,,,167,0,167,0,,,,,,,,,,,,,,,,,,,,,,1558.130206700007,None,,,,,,,,,,,,,,,,,south,141,168,silent,new,null,1554.449322600005,None,1554.449322600005,None,2,2.6715661000052933,1554.449322600005,None,2.6715661000052933,1557.1505187999865,None,1557.6694322999974,None,1557.6694322999974,None,n,0.4351467000087723,1557.6694322999974,None,0.4351467000087723,,,135Silent,001,2023_Oct_26_0837,ProdSingRedoBetween,2021.2.3,59.921000155251505,
,,,,168,0,168,0,,,,,,,,,,,,,,,,,,,,,,1560.6344017999945,None,,,,,,,,,,,,,,,,,display,92,169,silent,new,null,1558.6448985000025,None,1558.6448985000025,None,2,1.347703100007493,1558.6448985000025,None,1.347703100007493,1560.019202800002,None,1560.5401722999814,None,1560.5401722999814,None,n,0.06845469999825582,1560.5401722999814,None,0.06845469999825582,,,135Silent,001,2023_Oct_26_0837,ProdSingRedoBetween,2021.2.3,59.921000155251505,
,,,,169,0,169,0,,,,,,,,,,,,,,,,,,,,,,1564.3364286999858,None,,,,,,,,,,,,,,,,,question,145,170,silent,new,null,1561.1562742999813,None,1561.1562742999813,None,4,1.9723557999823242,1561.1562742999813,None,1.9723557999823242,1563.157792699989,None,1563.669208199979,None,1563.669208199979,None,n,0.6435079000075348,1563.669208199979,None,0.6435079000075348,,,135Silent,001,2023_Oct_26_0837,ProdSingRedoBetween,2021.2.3,59.921000155251505,
,,,,170,0,170,0,,,,,,,,,,,,,,,,,,,,,,1567.8760932000005,None,,,,,,,,,,,,,,,,,solution,0,171,silent,old,yellow,1564.8534339999896,None,1564.8534339999896,None,4,1.9232464999950025,1564.8534339999896,None,1.9232464999950025,1566.8087972999783,None,1567.3287722999812,None,1567.3287722999812,None,n,0.5279684999841265,1567.3287722999812,None,0.5279684999841265,,,135Silent,001,2023_Oct_26_0837,ProdSingRedoBetween,2021.2.3,59.921000155251505,
,,,,171,0,171,0,,,,,,,,,,,,,,,,,,,,,,1573.6370219999808,None,,,,,,,,,,,,,,,,,theme,45,172,silent,old,blue,1568.399850899994,None,1568.399850899994,None,2,4.624786700005643,1568.399850899994,None,4.624786700005643,1573.0473425999808,None,1573.5687509999843,None,1573.5687509999843,None,n,0.040100300015183166,1573.5687509999843,None,0.040100300015183166,,,135Silent,001,2023_Oct_26_0837,ProdSingRedoBetween,2021.2.3,59.921000155251505,
,,,,172,0,172,0,,,,,,,,,,,,,,,,,,,,,,1587.8098834999837,None,,,,,,,,,,,,,,,,,benefit,117,173,silent,new,null,1574.160224399995,None,1574.160224399995,None,5,12.64846320002107,1574.160224399995,None,12.64846320002107,1586.8346386000048,None,1587.344100199989,None,1587.344100199989,None,n,0.4485749999876134,1587.344100199989,None,0.4485749999876134,,,135Silent,001,2023_Oct_26_0837,ProdSingRedoBetween,2021.2.3,59.921000155251505,
,,,,173,0,173,0,,,,,,,,,,,,,,,,,,,,,,1591.063087699993,None,,,,,,,,,,,,,,,,,afternoon,102,174,silent,new,null,1588.320701699995,None,1588.320701699995,None,5,1.8239021999761462,1588.320701699995,None,1.8239021999761462,1590.1684665000066,None,1590.6851530999993,None,1590.6851530999993,None,n,0.35548639998887666,1590.6851530999993,None,0.35548639998887666,,,135Silent,001,2023_Oct_26_0837,ProdSingRedoBetween,2021.2.3,59.921000155251505,
