StudyLoop.thisRepN,StudyLoop.thisTrialN,StudyLoop.thisN,StudyLoop.thisIndex,TestLoop.thisRepN,TestLoop.thisTrialN,TestLoop.thisN,TestLoop.thisIndex,textCondition.started,textCondition.stopped,keyCondition.keys,keyCondition.rt,keyCondition.started,keyCondition.stopped,Condition,textWelcome.started,textWelcome.stopped,keyWelcome.keys,keyWelcome.rt,keyWelcome.started,keyWelcome.stopped,textAloud.started,textAloud.stopped,textSilent.started,textSilent.stopped,textSing.started,textSing.stopped,conditional_text.started,conditional_text.stopped,textBlank500.started,textBlank500.stopped,study_word,study_num,study_order,study_type,word_color,textStudy.started,textStudy.stopped,keyStudy.keys,keyStudy.started,keyStudy.stopped,textTestInstructions.started,textTestInstructions.stopped,key_resp_3.keys,key_resp_3.rt,key_resp_3.started,key_resp_3.stopped,test_word,test_num,test_order,test_condition,old_new_test,test_word_original_color,textConf.started,textConf.stopped,textConfScale.started,textConfScale.stopped,keyConf.keys,keyConf.rt,keyConf.started,keyConf.stopped,confidence response time,textTestBlank.started,textTestBlank.stopped,textRKN.started,textRKN.stopped,textRKNScale.started,textRKNScale.stopped,keyRKN.keys,keyRKN.rt,keyRKN.started,keyRKN.stopped,rkn response time,textEnd.started,textEnd.stopped,participant,session,date,expName,psychopyVersion,frameRate,
,,,,,,,,30.945193900028244,None,c,1.246467200020561,30.945193900028244,None,,,,,,,,,,,,,,,,,,,,,,,,,,,,,,,,,,,,,,,,,,,,,,,,,,,,,,,,,,,,,,136Sing,001,2023_Oct_26_0905,ProdSingRedoBetween,2021.2.3,59.94017970221199,
,,,,,,,,,,,,,,SingTest,32.248838200001046,None,space,244.23097540001618,32.248838200001046,None,,,,,,,,,,,,,,,,,,,,,,,,,,,,,,,,,,,,,,,,,,,,,,,,,,,,,,,136Sing,001,2023_Oct_26_0905,ProdSingRedoBetween,2021.2.3,59.94017970221199,
0,0,0,0,,,,,,,,,,,,,,,,,,32.248838200001046,None,32.248838200001046,None,32.248838200001046,None,32.248838200001046,None,279.026824200002,None,business,89,1,sing,red,277.01932260001195,None,None,277.01932260001195,None,,,,,,,,,,,,,,,,,,,,,,,,,,,,,,,,,,,136Sing,001,2023_Oct_26_0905,ProdSingRedoBetween,2021.2.3,59.94017970221199,
1,0,1,0,,,,,,,,,,,,,,,,,,,,,,,,,,281.5294397000107,None,style,4,2,sing,yellow,279.52728150002076,None,None,279.52728150002076,None,,,,,,,,,,,,,,,,,,,,,,,,,,,,,,,,,,,136Sing,001,2023_Oct_26_0905,ProdSingRedoBetween,2021.2.3,59.94017970221199,
2,0,2,0,,,,,,,,,,,,,,,,,,,,,,,,,,284.0485066000256,None,device,72,3,sing,red,282.04239870002493,None,None,282.04239870002493,None,,,,,,,,,,,,,,,,,,,,,,,,,,,,,,,,,,,136Sing,001,2023_Oct_26_0905,ProdSingRedoBetween,2021.2.3,59.94017970221199,
3,0,3,0,,,,,,,,,,,,,,,,,,,,,,,,,,286.56771370000206,None,research,25,4,sing,yellow,284.55232550000073,None,None,284.55232550000073,None,,,,,,,,,,,,,,,,,,,,,,,,,,,,,,,,,,,136Sing,001,2023_Oct_26_0905,ProdSingRedoBetween,2021.2.3,59.94017970221199,
4,0,4,0,,,,,,,,,,,,,,,,,,,,,,,,,,289.0868314000254,None,machinery,24,5,sing,yellow,287.0763998000184,None,None,287.0763998000184,None,,,,,,,,,,,,,,,,,,,,,,,,,,,,,,,,,,,136Sing,001,2023_Oct_26_0905,ProdSingRedoBetween,2021.2.3,59.94017970221199,
5,0,5,0,,,,,,,,,,,,,,,,,,,,,,,,,,291.5893988000171,None,native,26,6,sing,yellow,289.5886238000239,None,None,289.5886238000239,None,,,,,,,,,,,,,,,,,,,,,,,,,,,,,,,,,,,136Sing,001,2023_Oct_26_0905,ProdSingRedoBetween,2021.2.3,59.94017970221199,
6,0,6,0,,,,,,,,,,,,,,,,,,,,,,,,,,294.10852700000396,None,signal,33,7,sing,blue,292.09827420001966,None,None,292.09827420001966,None,,,,,,,,,,,,,,,,,,,,,,,,,,,,,,,,,,,136Sing,001,2023_Oct_26_0905,ProdSingRedoBetween,2021.2.3,59.94017970221199,
7,0,7,0,,,,,,,,,,,,,,,,,,,,,,,,,,296.61103020000155,None,court,47,8,sing,blue,294.6090377000219,None,None,294.6090377000219,None,,,,,,,,,,,,,,,,,,,,,,,,,,,,,,,,,,,136Sing,001,2023_Oct_26_0905,ProdSingRedoBetween,2021.2.3,59.94017970221199,
8,0,8,0,,,,,,,,,,,,,,,,,,,,,,,,,,299.1135201000143,None,evidence,8,9,sing,yellow,297.11354430002393,None,None,297.11354430002393,None,,,,,,,,,,,,,,,,,,,,,,,,,,,,,,,,,,,136Sing,001,2023_Oct_26_0905,ProdSingRedoBetween,2021.2.3,59.94017970221199,
9,0,9,0,,,,,,,,,,,,,,,,,,,,,,,,,,301.6160242000187,None,hunger,62,10,sing,red,299.61451940002735,None,None,299.61451940002735,None,,,,,,,,,,,,,,,,,,,,,,,,,,,,,,,,,,,136Sing,001,2023_Oct_26_0905,ProdSingRedoBetween,2021.2.3,59.94017970221199,
10,0,10,0,,,,,,,,,,,,,,,,,,,,,,,,,,304.1185331000015,None,month,58,11,sing,blue,302.11680630000774,None,None,302.11680630000774,None,,,,,,,,,,,,,,,,,,,,,,,,,,,,,,,,,,,136Sing,001,2023_Oct_26_0905,ProdSingRedoBetween,2021.2.3,59.94017970221199,
11,0,11,0,,,,,,,,,,,,,,,,,,,,,,,,,,306.6376999000204,None,permit,13,12,sing,yellow,304.6268755000201,None,None,304.6268755000201,None,,,,,,,,,,,,,,,,,,,,,,,,,,,,,,,,,,,136Sing,001,2023_Oct_26_0905,ProdSingRedoBetween,2021.2.3,59.94017970221199,
12,0,12,0,,,,,,,,,,,,,,,,,,,,,,,,,,309.14027040000656,None,health,23,13,sing,yellow,307.1382088000246,None,None,307.1382088000246,None,,,,,,,,,,,,,,,,,,,,,,,,,,,,,,,,,,,136Sing,001,2023_Oct_26_0905,ProdSingRedoBetween,2021.2.3,59.94017970221199,
13,0,13,0,,,,,,,,,,,,,,,,,,,,,,,,,,311.6428607000271,None,grade,70,14,sing,red,309.64128230002825,None,None,309.64128230002825,None,,,,,,,,,,,,,,,,,,,,,,,,,,,,,,,,,,,136Sing,001,2023_Oct_26_0905,ProdSingRedoBetween,2021.2.3,59.94017970221199,
14,0,14,0,,,,,,,,,,,,,,,,,,,,,,,,,,314.16206680002506,None,spoke,22,15,sing,yellow,312.14874550001696,None,None,312.14874550001696,None,,,,,,,,,,,,,,,,,,,,,,,,,,,,,,,,,,,136Sing,001,2023_Oct_26_0905,ProdSingRedoBetween,2021.2.3,59.94017970221199,
15,0,15,0,,,,,,,,,,,,,,,,,,,,,,,,,,316.68116310000187,None,disease,81,16,sing,red,314.6684818000067,None,None,314.6684818000067,None,,,,,,,,,,,,,,,,,,,,,,,,,,,,,,,,,,,136Sing,001,2023_Oct_26_0905,ProdSingRedoBetween,2021.2.3,59.94017970221199,
16,0,16,0,,,,,,,,,,,,,,,,,,,,,,,,,,319.20026590002817,None,harmony,34,17,sing,blue,317.18797720002476,None,None,317.18797720002476,None,,,,,,,,,,,,,,,,,,,,,,,,,,,,,,,,,,,136Sing,001,2023_Oct_26_0905,ProdSingRedoBetween,2021.2.3,59.94017970221199,
17,0,17,0,,,,,,,,,,,,,,,,,,,,,,,,,,321.71948440000415,None,trial,32,18,sing,blue,319.7081507000257,None,None,319.7081507000257,None,,,,,,,,,,,,,,,,,,,,,,,,,,,,,,,,,,,136Sing,001,2023_Oct_26_0905,ProdSingRedoBetween,2021.2.3,59.94017970221199,
18,0,18,0,,,,,,,,,,,,,,,,,,,,,,,,,,324.2220407000277,None,cross,55,19,sing,blue,322.22144220001064,None,None,322.22144220001064,None,,,,,,,,,,,,,,,,,,,,,,,,,,,,,,,,,,,136Sing,001,2023_Oct_26_0905,ProdSingRedoBetween,2021.2.3,59.94017970221199,
19,0,19,0,,,,,,,,,,,,,,,,,,,,,,,,,,326.7412771000236,None,stand,66,20,sing,red,324.72750880001695,None,None,324.72750880001695,None,,,,,,,,,,,,,,,,,,,,,,,,,,,,,,,,,,,136Sing,001,2023_Oct_26_0905,ProdSingRedoBetween,2021.2.3,59.94017970221199,
20,0,20,0,,,,,,,,,,,,,,,,,,,,,,,,,,329.2603051000042,None,clear,1,21,sing,yellow,327.24525850001373,None,None,327.24525850001373,None,,,,,,,,,,,,,,,,,,,,,,,,,,,,,,,,,,,136Sing,001,2023_Oct_26_0905,ProdSingRedoBetween,2021.2.3,59.94017970221199,
21,0,21,0,,,,,,,,,,,,,,,,,,,,,,,,,,331.7628802000254,None,council,84,22,sing,red,329.76072510000085,None,None,329.76072510000085,None,,,,,,,,,,,,,,,,,,,,,,,,,,,,,,,,,,,136Sing,001,2023_Oct_26_0905,ProdSingRedoBetween,2021.2.3,59.94017970221199,
22,0,22,0,,,,,,,,,,,,,,,,,,,,,,,,,,334.2821149000083,None,trend,59,23,sing,yellow,332.26760150000337,None,None,332.26760150000337,None,,,,,,,,,,,,,,,,,,,,,,,,,,,,,,,,,,,136Sing,001,2023_Oct_26_0905,ProdSingRedoBetween,2021.2.3,59.94017970221199,
23,0,23,0,,,,,,,,,,,,,,,,,,,,,,,,,,336.80121060000965,None,school,69,24,sing,red,334.78889730002265,None,None,334.78889730002265,None,,,,,,,,,,,,,,,,,,,,,,,,,,,,,,,,,,,136Sing,001,2023_Oct_26_0905,ProdSingRedoBetween,2021.2.3,59.94017970221199,
24,0,24,0,,,,,,,,,,,,,,,,,,,,,,,,,,339.3205141000217,None,pattern,48,25,sing,blue,337.3104392000241,None,None,337.3104392000241,None,,,,,,,,,,,,,,,,,,,,,,,,,,,,,,,,,,,136Sing,001,2023_Oct_26_0905,ProdSingRedoBetween,2021.2.3,59.94017970221199,
25,0,25,0,,,,,,,,,,,,,,,,,,,,,,,,,,341.8396089000162,None,leader,39,26,sing,blue,339.8245181000093,None,None,339.8245181000093,None,,,,,,,,,,,,,,,,,,,,,,,,,,,,,,,,,,,136Sing,001,2023_Oct_26_0905,ProdSingRedoBetween,2021.2.3,59.94017970221199,
26,0,26,0,,,,,,,,,,,,,,,,,,,,,,,,,,344.3420703000156,None,union,86,27,sing,red,342.34008350002114,None,None,342.34008350002114,None,,,,,,,,,,,,,,,,,,,,,,,,,,,,,,,,,,,136Sing,001,2023_Oct_26_0905,ProdSingRedoBetween,2021.2.3,59.94017970221199,
27,0,27,0,,,,,,,,,,,,,,,,,,,,,,,,,,346.86136940002325,None,career,7,28,sing,yellow,344.8511829000199,None,None,344.8511829000199,None,,,,,,,,,,,,,,,,,,,,,,,,,,,,,,,,,,,136Sing,001,2023_Oct_26_0905,ProdSingRedoBetween,2021.2.3,59.94017970221199,
28,0,28,0,,,,,,,,,,,,,,,,,,,,,,,,,,349.38054180002655,None,surprise,56,29,sing,blue,347.36656390002463,None,None,347.36656390002463,None,,,,,,,,,,,,,,,,,,,,,,,,,,,,,,,,,,,136Sing,001,2023_Oct_26_0905,ProdSingRedoBetween,2021.2.3,59.94017970221199,
29,0,29,0,,,,,,,,,,,,,,,,,,,,,,,,,,351.89967670000624,None,produce,9,30,sing,yellow,349.8850448000012,None,None,349.8850448000012,None,,,,,,,,,,,,,,,,,,,,,,,,,,,,,,,,,,,136Sing,001,2023_Oct_26_0905,ProdSingRedoBetween,2021.2.3,59.94017970221199,
30,0,30,0,,,,,,,,,,,,,,,,,,,,,,,,,,354.40220490001957,None,estate,0,31,sing,yellow,352.40016720001586,None,None,352.40016720001586,None,,,,,,,,,,,,,,,,,,,,,,,,,,,,,,,,,,,136Sing,001,2023_Oct_26_0905,ProdSingRedoBetween,2021.2.3,59.94017970221199,
31,0,31,0,,,,,,,,,,,,,,,,,,,,,,,,,,356.92136880001635,None,brief,42,32,sing,blue,354.91030590000446,None,None,354.91030590000446,None,,,,,,,,,,,,,,,,,,,,,,,,,,,,,,,,,,,136Sing,001,2023_Oct_26_0905,ProdSingRedoBetween,2021.2.3,59.94017970221199,
32,0,32,0,,,,,,,,,,,,,,,,,,,,,,,,,,359.4406210000161,None,equipment,61,33,sing,red,357.4262651000172,None,None,357.4262651000172,None,,,,,,,,,,,,,,,,,,,,,,,,,,,,,,,,,,,136Sing,001,2023_Oct_26_0905,ProdSingRedoBetween,2021.2.3,59.94017970221199,
33,0,33,0,,,,,,,,,,,,,,,,,,,,,,,,,,361.9598020000267,None,carry,54,34,sing,blue,359.9450325000216,None,None,359.9450325000216,None,,,,,,,,,,,,,,,,,,,,,,,,,,,,,,,,,,,136Sing,001,2023_Oct_26_0905,ProdSingRedoBetween,2021.2.3,59.94017970221199,
34,0,34,0,,,,,,,,,,,,,,,,,,,,,,,,,,364.4622128000192,None,strain,57,35,sing,blue,362.4602252000186,None,None,362.4602252000186,None,,,,,,,,,,,,,,,,,,,,,,,,,,,,,,,,,,,136Sing,001,2023_Oct_26_0905,ProdSingRedoBetween,2021.2.3,59.94017970221199,
35,0,35,0,,,,,,,,,,,,,,,,,,,,,,,,,,366.98137600001064,None,turkey,10,36,sing,yellow,364.97398340000655,None,None,364.97398340000655,None,,,,,,,,,,,,,,,,,,,,,,,,,,,,,,,,,,,136Sing,001,2023_Oct_26_0905,ProdSingRedoBetween,2021.2.3,59.94017970221199,
36,0,36,0,,,,,,,,,,,,,,,,,,,,,,,,,,369.50059390001115,None,people,15,37,sing,yellow,367.4925494000199,None,None,367.4925494000199,None,,,,,,,,,,,,,,,,,,,,,,,,,,,,,,,,,,,136Sing,001,2023_Oct_26_0905,ProdSingRedoBetween,2021.2.3,59.94017970221199,
37,0,37,0,,,,,,,,,,,,,,,,,,,,,,,,,,372.00309790001484,None,couch,6,38,sing,yellow,370.00138380000135,None,None,370.00138380000135,None,,,,,,,,,,,,,,,,,,,,,,,,,,,,,,,,,,,136Sing,001,2023_Oct_26_0905,ProdSingRedoBetween,2021.2.3,59.94017970221199,
38,0,38,0,,,,,,,,,,,,,,,,,,,,,,,,,,374.50567480002064,None,error,82,39,sing,red,372.5043720000249,None,None,372.5043720000249,None,,,,,,,,,,,,,,,,,,,,,,,,,,,,,,,,,,,136Sing,001,2023_Oct_26_0905,ProdSingRedoBetween,2021.2.3,59.94017970221199,
39,0,39,0,,,,,,,,,,,,,,,,,,,,,,,,,,377.0248363999999,None,touch,35,40,sing,blue,375.00943920001737,None,None,375.00943920001737,None,,,,,,,,,,,,,,,,,,,,,,,,,,,,,,,,,,,136Sing,001,2023_Oct_26_0905,ProdSingRedoBetween,2021.2.3,59.94017970221199,
40,0,40,0,,,,,,,,,,,,,,,,,,,,,,,,,,379.52736980002373,None,corner,64,41,sing,red,377.52789450000273,None,None,377.52789450000273,None,,,,,,,,,,,,,,,,,,,,,,,,,,,,,,,,,,,136Sing,001,2023_Oct_26_0905,ProdSingRedoBetween,2021.2.3,59.94017970221199,
41,0,41,0,,,,,,,,,,,,,,,,,,,,,,,,,,382.04643560000113,None,space,12,42,sing,yellow,380.0329263000167,None,None,380.0329263000167,None,,,,,,,,,,,,,,,,,,,,,,,,,,,,,,,,,,,136Sing,001,2023_Oct_26_0905,ProdSingRedoBetween,2021.2.3,59.94017970221199,
42,0,42,0,,,,,,,,,,,,,,,,,,,,,,,,,,384.5656728000031,None,period,21,43,sing,yellow,382.557211700012,None,None,382.557211700012,None,,,,,,,,,,,,,,,,,,,,,,,,,,,,,,,,,,,136Sing,001,2023_Oct_26_0905,ProdSingRedoBetween,2021.2.3,59.94017970221199,
43,0,43,0,,,,,,,,,,,,,,,,,,,,,,,,,,387.0848490000062,None,reading,41,44,sing,blue,385.0735614000005,None,None,385.0735614000005,None,,,,,,,,,,,,,,,,,,,,,,,,,,,,,,,,,,,136Sing,001,2023_Oct_26_0905,ProdSingRedoBetween,2021.2.3,59.94017970221199,
44,0,44,0,,,,,,,,,,,,,,,,,,,,,,,,,,389.60408000001917,None,scene,27,45,sing,yellow,387.59457080002176,None,None,387.59457080002176,None,,,,,,,,,,,,,,,,,,,,,,,,,,,,,,,,,,,136Sing,001,2023_Oct_26_0905,ProdSingRedoBetween,2021.2.3,59.94017970221199,
45,0,45,0,,,,,,,,,,,,,,,,,,,,,,,,,,392.10656610000296,None,phrase,80,46,sing,red,390.1044136000273,None,None,390.1044136000273,None,,,,,,,,,,,,,,,,,,,,,,,,,,,,,,,,,,,136Sing,001,2023_Oct_26_0905,ProdSingRedoBetween,2021.2.3,59.94017970221199,
46,0,46,0,,,,,,,,,,,,,,,,,,,,,,,,,,394.6090946000186,None,figure,46,47,sing,blue,392.61000150002656,None,None,392.61000150002656,None,,,,,,,,,,,,,,,,,,,,,,,,,,,,,,,,,,,136Sing,001,2023_Oct_26_0905,ProdSingRedoBetween,2021.2.3,59.94017970221199,
47,0,47,0,,,,,,,,,,,,,,,,,,,,,,,,,,397.1115967000078,None,place,36,48,sing,blue,395.1119957000192,None,None,395.1119957000192,None,,,,,,,,,,,,,,,,,,,,,,,,,,,,,,,,,,,136Sing,001,2023_Oct_26_0905,ProdSingRedoBetween,2021.2.3,59.94017970221199,
48,0,48,0,,,,,,,,,,,,,,,,,,,,,,,,,,399.6141226000036,None,account,60,49,sing,red,397.6141762000043,None,None,397.6141762000043,None,,,,,,,,,,,,,,,,,,,,,,,,,,,,,,,,,,,136Sing,001,2023_Oct_26_0905,ProdSingRedoBetween,2021.2.3,59.94017970221199,
49,0,49,0,,,,,,,,,,,,,,,,,,,,,,,,,,402.13324110000394,None,music,87,50,sing,red,400.1190402000211,None,None,400.1190402000211,None,,,,,,,,,,,,,,,,,,,,,,,,,,,,,,,,,,,136Sing,001,2023_Oct_26_0905,ProdSingRedoBetween,2021.2.3,59.94017970221199,
50,0,50,0,,,,,,,,,,,,,,,,,,,,,,,,,,404.6357415000093,None,alert,38,51,sing,blue,402.63375620002626,None,None,402.63375620002626,None,,,,,,,,,,,,,,,,,,,,,,,,,,,,,,,,,,,136Sing,001,2023_Oct_26_0905,ProdSingRedoBetween,2021.2.3,59.94017970221199,
51,0,51,0,,,,,,,,,,,,,,,,,,,,,,,,,,407.13825620000716,None,report,65,52,sing,red,405.1380716000276,None,None,405.1380716000276,None,,,,,,,,,,,,,,,,,,,,,,,,,,,,,,,,,,,136Sing,001,2023_Oct_26_0905,ProdSingRedoBetween,2021.2.3,59.94017970221199,
52,0,52,0,,,,,,,,,,,,,,,,,,,,,,,,,,409.6407583000255,None,crisis,28,53,sing,yellow,407.64052939999965,None,None,407.64052939999965,None,,,,,,,,,,,,,,,,,,,,,,,,,,,,,,,,,,,136Sing,001,2023_Oct_26_0905,ProdSingRedoBetween,2021.2.3,59.94017970221199,
53,0,53,0,,,,,,,,,,,,,,,,,,,,,,,,,,412.15991270000814,None,judge,11,54,sing,yellow,410.14490680000745,None,None,410.14490680000745,None,,,,,,,,,,,,,,,,,,,,,,,,,,,,,,,,,,,136Sing,001,2023_Oct_26_0905,ProdSingRedoBetween,2021.2.3,59.94017970221199,
54,0,54,0,,,,,,,,,,,,,,,,,,,,,,,,,,414.66246520000277,None,discovery,45,55,sing,blue,412.6622113000194,None,None,412.6622113000194,None,,,,,,,,,,,,,,,,,,,,,,,,,,,,,,,,,,,136Sing,001,2023_Oct_26_0905,ProdSingRedoBetween,2021.2.3,59.94017970221199,
55,0,55,0,,,,,,,,,,,,,,,,,,,,,,,,,,417.1649931000138,None,degree,43,56,sing,blue,415.1635093000077,None,None,415.1635093000077,None,,,,,,,,,,,,,,,,,,,,,,,,,,,,,,,,,,,136Sing,001,2023_Oct_26_0905,ProdSingRedoBetween,2021.2.3,59.94017970221199,
56,0,56,0,,,,,,,,,,,,,,,,,,,,,,,,,,419.66743070000666,None,group,88,57,sing,red,417.66837820000364,None,None,417.66837820000364,None,,,,,,,,,,,,,,,,,,,,,,,,,,,,,,,,,,,136Sing,001,2023_Oct_26_0905,ProdSingRedoBetween,2021.2.3,59.94017970221199,
57,0,57,0,,,,,,,,,,,,,,,,,,,,,,,,,,422.18671650000033,None,passage,5,58,sing,yellow,420.17179360002046,None,None,420.17179360002046,None,,,,,,,,,,,,,,,,,,,,,,,,,,,,,,,,,,,136Sing,001,2023_Oct_26_0905,ProdSingRedoBetween,2021.2.3,59.94017970221199,
58,0,58,0,,,,,,,,,,,,,,,,,,,,,,,,,,424.7059180000215,None,platform,14,59,sing,yellow,422.6912484000204,None,None,422.6912484000204,None,,,,,,,,,,,,,,,,,,,,,,,,,,,,,,,,,,,136Sing,001,2023_Oct_26_0905,ProdSingRedoBetween,2021.2.3,59.94017970221199,
59,0,59,0,,,,,,,,,,,,,,,,,,,,,,,,,,427.22500850001234,None,vision,53,60,sing,blue,425.2165625000198,None,None,425.2165625000198,None,,,,,,,,,,,,,,,,,,,,,,,,,,,,,,,,,,,136Sing,001,2023_Oct_26_0905,ProdSingRedoBetween,2021.2.3,59.94017970221199,
60,0,60,0,,,,,,,,,,,,,,,,,,,,,,,,,,429.7275232000102,None,production,2,61,sing,yellow,427.7255397000117,None,None,427.7255397000117,None,,,,,,,,,,,,,,,,,,,,,,,,,,,,,,,,,,,136Sing,001,2023_Oct_26_0905,ProdSingRedoBetween,2021.2.3,59.94017970221199,
61,0,61,0,,,,,,,,,,,,,,,,,,,,,,,,,,432.2300517000258,None,narrow,74,62,sing,red,430.2302105000126,None,None,430.2302105000126,None,,,,,,,,,,,,,,,,,,,,,,,,,,,,,,,,,,,136Sing,001,2023_Oct_26_0905,ProdSingRedoBetween,2021.2.3,59.94017970221199,
62,0,62,0,,,,,,,,,,,,,,,,,,,,,,,,,,434.74925450002775,None,burden,79,63,sing,red,432.73403570000664,None,None,432.73403570000664,None,,,,,,,,,,,,,,,,,,,,,,,,,,,,,,,,,,,136Sing,001,2023_Oct_26_0905,ProdSingRedoBetween,2021.2.3,59.94017970221199,
63,0,63,0,,,,,,,,,,,,,,,,,,,,,,,,,,437.2517435000045,None,primary,19,64,sing,yellow,435.2513027000241,None,None,435.2513027000241,None,,,,,,,,,,,,,,,,,,,,,,,,,,,,,,,,,,,136Sing,001,2023_Oct_26_0905,ProdSingRedoBetween,2021.2.3,59.94017970221199,
64,0,64,0,,,,,,,,,,,,,,,,,,,,,,,,,,439.77098600001773,None,discussion,78,65,sing,red,437.7556105000258,None,None,437.7556105000258,None,,,,,,,,,,,,,,,,,,,,,,,,,,,,,,,,,,,136Sing,001,2023_Oct_26_0905,ProdSingRedoBetween,2021.2.3,59.94017970221199,
65,0,65,0,,,,,,,,,,,,,,,,,,,,,,,,,,442.29004600000917,None,height,73,66,sing,red,440.2796532000066,None,None,440.2796532000066,None,,,,,,,,,,,,,,,,,,,,,,,,,,,,,,,,,,,136Sing,001,2023_Oct_26_0905,ProdSingRedoBetween,2021.2.3,59.94017970221199,
66,0,66,0,,,,,,,,,,,,,,,,,,,,,,,,,,444.79254120000405,None,distance,71,67,sing,red,442.7906086000148,None,None,442.7906086000148,None,,,,,,,,,,,,,,,,,,,,,,,,,,,,,,,,,,,136Sing,001,2023_Oct_26_0905,ProdSingRedoBetween,2021.2.3,59.94017970221199,
67,0,67,0,,,,,,,,,,,,,,,,,,,,,,,,,,447.3117777000007,None,theme,85,68,sing,red,445.2996630000125,None,None,445.2996630000125,None,,,,,,,,,,,,,,,,,,,,,,,,,,,,,,,,,,,136Sing,001,2023_Oct_26_0905,ProdSingRedoBetween,2021.2.3,59.94017970221199,
68,0,68,0,,,,,,,,,,,,,,,,,,,,,,,,,,449.81428020002204,None,escape,20,69,sing,yellow,447.81355680001434,None,None,447.81355680001434,None,,,,,,,,,,,,,,,,,,,,,,,,,,,,,,,,,,,136Sing,001,2023_Oct_26_0905,ProdSingRedoBetween,2021.2.3,59.94017970221199,
69,0,69,0,,,,,,,,,,,,,,,,,,,,,,,,,,452.3167892000056,None,oxygen,29,70,sing,blue,450.3167881000263,None,None,450.3167881000263,None,,,,,,,,,,,,,,,,,,,,,,,,,,,,,,,,,,,136Sing,001,2023_Oct_26_0905,ProdSingRedoBetween,2021.2.3,59.94017970221199,
70,0,70,0,,,,,,,,,,,,,,,,,,,,,,,,,,454.81935150001664,None,title,68,71,sing,red,452.81799500001944,None,None,452.81799500001944,None,,,,,,,,,,,,,,,,,,,,,,,,,,,,,,,,,,,136Sing,001,2023_Oct_26_0905,ProdSingRedoBetween,2021.2.3,59.94017970221199,
71,0,71,0,,,,,,,,,,,,,,,,,,,,,,,,,,457.3385097999999,None,point,37,72,sing,blue,455.3242796000268,None,None,455.3242796000268,None,,,,,,,,,,,,,,,,,,,,,,,,,,,,,,,,,,,136Sing,001,2023_Oct_26_0905,ProdSingRedoBetween,2021.2.3,59.94017970221199,
72,0,72,0,,,,,,,,,,,,,,,,,,,,,,,,,,459.85773890002747,None,interior,3,73,sing,yellow,457.8438110999996,None,None,457.8438110999996,None,,,,,,,,,,,,,,,,,,,,,,,,,,,,,,,,,,,136Sing,001,2023_Oct_26_0905,ProdSingRedoBetween,2021.2.3,59.94017970221199,
73,0,73,0,,,,,,,,,,,,,,,,,,,,,,,,,,462.3767810999998,None,employment,50,74,sing,blue,460.36627200001385,None,None,460.36627200001385,None,,,,,,,,,,,,,,,,,,,,,,,,,,,,,,,,,,,136Sing,001,2023_Oct_26_0905,ProdSingRedoBetween,2021.2.3,59.94017970221199,
74,0,74,0,,,,,,,,,,,,,,,,,,,,,,,,,,464.8792933000077,None,department,63,75,sing,red,462.87734210002236,None,None,462.87734210002236,None,,,,,,,,,,,,,,,,,,,,,,,,,,,,,,,,,,,136Sing,001,2023_Oct_26_0905,ProdSingRedoBetween,2021.2.3,59.94017970221199,
75,0,75,0,,,,,,,,,,,,,,,,,,,,,,,,,,467.3818805000046,None,history,18,76,sing,yellow,465.38153890002286,None,None,465.38153890002286,None,,,,,,,,,,,,,,,,,,,,,,,,,,,,,,,,,,,136Sing,001,2023_Oct_26_0905,ProdSingRedoBetween,2021.2.3,59.94017970221199,
76,0,76,0,,,,,,,,,,,,,,,,,,,,,,,,,,469.88437150002574,None,answer,40,77,sing,blue,467.8848618000047,None,None,467.8848618000047,None,,,,,,,,,,,,,,,,,,,,,,,,,,,,,,,,,,,136Sing,001,2023_Oct_26_0905,ProdSingRedoBetween,2021.2.3,59.94017970221199,
77,0,77,0,,,,,,,,,,,,,,,,,,,,,,,,,,472.3868649000069,None,opening,75,78,sing,red,470.386859500024,None,None,470.386859500024,None,,,,,,,,,,,,,,,,,,,,,,,,,,,,,,,,,,,136Sing,001,2023_Oct_26_0905,ProdSingRedoBetween,2021.2.3,59.94017970221199,
78,0,78,0,,,,,,,,,,,,,,,,,,,,,,,,,,474.88941970001906,None,pretty,76,79,sing,red,472.88955820002593,None,None,472.88955820002593,None,,,,,,,,,,,,,,,,,,,,,,,,,,,,,,,,,,,136Sing,001,2023_Oct_26_0905,ProdSingRedoBetween,2021.2.3,59.94017970221199,
79,0,79,0,,,,,,,,,,,,,,,,,,,,,,,,,,477.40856420001364,None,company,31,80,sing,blue,475.39437020002515,None,None,475.39437020002515,None,,,,,,,,,,,,,,,,,,,,,,,,,,,,,,,,,,,136Sing,001,2023_Oct_26_0905,ProdSingRedoBetween,2021.2.3,59.94017970221199,
80,0,80,0,,,,,,,,,,,,,,,,,,,,,,,,,,479.9277576000022,None,track,16,81,sing,yellow,477.9209136000136,None,None,477.9209136000136,None,,,,,,,,,,,,,,,,,,,,,,,,,,,,,,,,,,,136Sing,001,2023_Oct_26_0905,ProdSingRedoBetween,2021.2.3,59.94017970221199,
81,0,81,0,,,,,,,,,,,,,,,,,,,,,,,,,,482.4302525000239,None,service,17,82,sing,yellow,480.43071760001476,None,None,480.43071760001476,None,,,,,,,,,,,,,,,,,,,,,,,,,,,,,,,,,,,136Sing,001,2023_Oct_26_0905,ProdSingRedoBetween,2021.2.3,59.94017970221199,
82,0,82,0,,,,,,,,,,,,,,,,,,,,,,,,,,484.932879400003,None,marriage,44,83,sing,blue,482.9324158000236,None,None,482.9324158000236,None,,,,,,,,,,,,,,,,,,,,,,,,,,,,,,,,,,,136Sing,001,2023_Oct_26_0905,ProdSingRedoBetween,2021.2.3,59.94017970221199,
83,0,83,0,,,,,,,,,,,,,,,,,,,,,,,,,,487.4519150000124,None,sleep,77,84,sing,red,485.43981780001195,None,None,485.43981780001195,None,,,,,,,,,,,,,,,,,,,,,,,,,,,,,,,,,,,136Sing,001,2023_Oct_26_0905,ProdSingRedoBetween,2021.2.3,59.94017970221199,
84,0,84,0,,,,,,,,,,,,,,,,,,,,,,,,,,489.95442290001665,None,generation,30,85,sing,blue,487.9524417000066,None,None,487.9524417000066,None,,,,,,,,,,,,,,,,,,,,,,,,,,,,,,,,,,,136Sing,001,2023_Oct_26_0905,ProdSingRedoBetween,2021.2.3,59.94017970221199,
85,0,85,0,,,,,,,,,,,,,,,,,,,,,,,,,,492.45695510000223,None,public,49,86,sing,blue,490.45662800001446,None,None,490.45662800001446,None,,,,,,,,,,,,,,,,,,,,,,,,,,,,,,,,,,,136Sing,001,2023_Oct_26_0905,ProdSingRedoBetween,2021.2.3,59.94017970221199,
86,0,86,0,,,,,,,,,,,,,,,,,,,,,,,,,,494.95950480000465,None,measure,52,87,sing,blue,492.96048980002524,None,None,492.96048980002524,None,,,,,,,,,,,,,,,,,,,,,,,,,,,,,,,,,,,136Sing,001,2023_Oct_26_0905,ProdSingRedoBetween,2021.2.3,59.94017970221199,
87,0,87,0,,,,,,,,,,,,,,,,,,,,,,,,,,497.4786884000059,None,victory,51,88,sing,blue,495.46468220002134,None,None,495.46468220002134,None,,,,,,,,,,,,,,,,,,,,,,,,,,,,,,,,,,,136Sing,001,2023_Oct_26_0905,ProdSingRedoBetween,2021.2.3,59.94017970221199,
88,0,88,0,,,,,,,,,,,,,,,,,,,,,,,,,,499.98125850001816,None,tennis,83,89,sing,red,497.97918170000776,None,None,497.97918170000776,None,,,,,,,,,,,,,,,,,,,,,,,,,,,,,,,,,,,136Sing,001,2023_Oct_26_0905,ProdSingRedoBetween,2021.2.3,59.94017970221199,
89,0,89,0,,,,,,,,,,,,,,,,,,,,,,,,,,502.48365720000584,None,literature,67,90,sing,red,500.4834791000176,None,None,500.4834791000176,None,,,,,,,,,,,,,,,,,,,,,,,,,,,,,,,,,,,136Sing,001,2023_Oct_26_0905,ProdSingRedoBetween,2021.2.3,59.94017970221199,
,,,,,,,,,,,,,,,,,,,,,,,,,,,,,,,,,,,,,,,,,502.98439920000965,None,k,144.22409100001096,502.98439920000965,None,,,,,,,,,,,,,,,,,,,,,,,,,,,,,136Sing,001,2023_Oct_26_0905,ProdSingRedoBetween,2021.2.3,59.94017970221199,
,,,,0,0,0,0,,,,,,,,,,,,,,,,,,,,,,663.5118600000278,None,,,,,,,,,,,,,,,,,vision,53,1,sing,old,blue,647.7402671000164,None,647.7402671000164,None,6,9.692051499994704,647.7402671000164,None,9.692051499994704,657.4598169000237,None,657.9783399000007,None,657.9783399000007,None,f,5.502036699996097,657.9783399000007,None,5.502036699996097,,,136Sing,001,2023_Oct_26_0905,ProdSingRedoBetween,2021.2.3,59.94017970221199,
,,,,1,0,1,0,,,,,,,,,,,,,,,,,,,,,,671.4025786000129,None,,,,,,,,,,,,,,,,,government,132,2,sing,new,null,664.0267429000232,None,664.0267429000232,None,1,4.317633600003319,664.0267429000232,None,4.317633600003319,668.3732757000253,None,668.8874256000272,None,668.8874256000272,None,n,2.496911700000055,668.8874256000272,None,2.496911700000055,,,136Sing,001,2023_Oct_26_0905,ProdSingRedoBetween,2021.2.3,59.94017970221199,
,,,,2,0,2,0,,,,,,,,,,,,,,,,,,,,,,678.0935270000191,None,,,,,,,,,,,,,,,,,nation,120,3,sing,new,null,671.9149189000018,None,671.9149189000018,None,3,3.213405699993018,671.9149189000018,None,3.213405699993018,675.1591983000108,None,675.6806304000202,None,675.6806304000202,None,n,2.383748200023547,675.6806304000202,None,2.383748200023547,,,136Sing,001,2023_Oct_26_0905,ProdSingRedoBetween,2021.2.3,59.94017970221199,
,,,,3,0,3,0,,,,,,,,,,,,,,,,,,,,,,684.5991716000135,None,,,,,,,,,,,,,,,,,short,165,4,sing,new,null,678.5973484000133,None,678.5973484000133,None,3,2.7791536999866366,678.5973484000133,None,2.7791536999866366,681.4039247000183,None,681.9248525000003,None,681.9248525000003,None,n,2.651560900005279,681.9248525000003,None,2.651560900005279,,,136Sing,001,2023_Oct_26_0905,ProdSingRedoBetween,2021.2.3,59.94017970221199,
,,,,4,0,4,0,,,,,,,,,,,,,,,,,,,,,,691.9228708000155,None,,,,,,,,,,,,,,,,,suspect,175,5,sing,new,null,685.1159306000045,None,685.1159306000045,None,5,4.34053000001586,685.1159306000045,None,4.34053000001586,689.4906054000021,None,690.009317100019,None,690.009317100019,None,f,1.8951813000021502,690.009317100019,None,1.8951813000021502,,,136Sing,001,2023_Oct_26_0905,ProdSingRedoBetween,2021.2.3,59.94017970221199,
,,,,5,0,5,0,,,,,,,,,,,,,,,,,,,,,,700.8820803000126,None,,,,,,,,,,,,,,,,,strain,57,6,sing,old,blue,692.4267707000254,None,692.4267707000254,None,6,4.677730199997313,692.4267707000254,None,4.677730199997313,697.1382513000281,None,697.6465872000263,None,697.6465872000263,None,f,3.2098904000013135,697.6465872000263,None,3.2098904000013135,,,136Sing,001,2023_Oct_26_0905,ProdSingRedoBetween,2021.2.3,59.94017970221199,
,,,,6,0,6,0,,,,,,,,,,,,,,,,,,,,,,706.7879189000232,None,,,,,,,,,,,,,,,,,pressure,125,7,sing,new,null,701.4003224000044,None,701.4003224000044,None,2,3.312135899992427,701.4003224000044,None,3.312135899992427,704.7404154000105,None,705.2554951000202,None,705.2554951000202,None,n,1.5128498999984004,705.2554951000202,None,1.5128498999984004,,,136Sing,001,2023_Oct_26_0905,ProdSingRedoBetween,2021.2.3,59.94017970221199,
,,,,7,0,7,0,,,,,,,,,,,,,,,,,,,,,,712.8439681000018,None,,,,,,,,,,,,,,,,,meeting,126,8,sing,new,null,707.2955523000273,None,707.2955523000273,None,3,4.112746700004209,707.2955523000273,None,4.112746700004209,711.4258719000209,None,711.9294238000002,None,711.9294238000002,None,n,0.8868784000223968,711.9294238000002,None,0.8868784000223968,,,136Sing,001,2023_Oct_26_0905,ProdSingRedoBetween,2021.2.3,59.94017970221199,
,,,,8,0,8,0,,,,,,,,,,,,,,,,,,,,,,717.2651066000108,None,,,,,,,,,,,,,,,,,balance,151,9,sing,new,null,713.352260100015,None,713.352260100015,None,3,2.0961619000008795,713.352260100015,None,2.0961619000008795,715.466700000019,None,715.9806188000075,None,715.9806188000075,None,n,1.2677978999854531,715.9806188000075,None,1.2677978999854531,,,136Sing,001,2023_Oct_26_0905,ProdSingRedoBetween,2021.2.3,59.94017970221199,
,,,,9,0,9,0,,,,,,,,,,,,,,,,,,,,,,723.6047280000057,None,,,,,,,,,,,,,,,,,commercial,112,10,sing,new,null,717.7769952000235,None,717.7769952000235,None,1,4.015445299999556,717.7769952000235,None,4.015445299999556,721.8263972999994,None,722.3409317000187,None,722.3409317000187,None,n,1.2434277000138536,722.3409317000187,None,1.2434277000138536,,,136Sing,001,2023_Oct_26_0905,ProdSingRedoBetween,2021.2.3,59.94017970221199,
,,,,10,0,10,0,,,,,,,,,,,,,,,,,,,,,,729.1127629000111,None,,,,,,,,,,,,,,,,,raise,124,11,sing,new,null,724.1154136000259,None,724.1154136000259,None,3,3.37313299998641,724.1154136000259,None,3.37313299998641,727.5212020000035,None,728.0328489000094,None,728.0328489000094,None,n,1.0476720000151545,728.0328489000094,None,1.0476720000151545,,,136Sing,001,2023_Oct_26_0905,ProdSingRedoBetween,2021.2.3,59.94017970221199,
,,,,11,0,11,0,,,,,,,,,,,,,,,,,,,,,,734.1152223000245,None,,,,,,,,,,,,,,,,,place,36,12,sing,old,blue,729.6365450000158,None,729.6365450000158,None,6,2.324020500003826,729.6365450000158,None,2.324020500003826,731.9874928000208,None,732.4971521000261,None,732.4971521000261,None,f,1.5911765999917407,732.4971521000261,None,1.5911765999917407,,,136Sing,001,2023_Oct_26_0905,ProdSingRedoBetween,2021.2.3,59.94017970221199,
,,,,12,0,12,0,,,,,,,,,,,,,,,,,,,,,,740.2212160000054,None,,,,,,,,,,,,,,,,,grade,70,13,sing,old,red,734.6260909000121,None,734.6260909000121,None,4,3.606321500003105,734.6260909000121,None,3.606321500003105,738.2560960000264,None,738.770070300001,None,738.770070300001,None,n,1.4303599999984726,738.770070300001,None,1.4303599999984726,,,136Sing,001,2023_Oct_26_0905,ProdSingRedoBetween,2021.2.3,59.94017970221199,
,,,,13,0,13,0,,,,,,,,,,,,,,,,,,,,,,744.7592803000007,None,,,,,,,,,,,,,,,,,ground,141,14,sing,new,null,740.7365889000066,None,740.7365889000066,None,6,1.8638318000012077,740.7365889000066,None,1.8638318000012077,742.6272554000025,None,743.146366800007,None,743.146366800007,None,n,1.5900474999798462,743.146366800007,None,1.5900474999798462,,,136Sing,001,2023_Oct_26_0905,ProdSingRedoBetween,2021.2.3,59.94017970221199,
,,,,14,0,14,0,,,,,,,,,,,,,,,,,,,,,,749.0967619000003,None,,,,,,,,,,,,,,,,,passage,5,15,sing,old,yellow,745.2728911000013,None,745.2728911000013,None,6,1.8155072999943513,745.2728911000013,None,1.8155072999943513,747.1130051000218,None,747.6180101000064,None,747.6180101000064,None,f,1.4623993000132032,747.6180101000064,None,1.4623993000132032,,,136Sing,001,2023_Oct_26_0905,ProdSingRedoBetween,2021.2.3,59.94017970221199,
,,,,15,0,15,0,,,,,,,,,,,,,,,,,,,,,,755.18629100002,None,,,,,,,,,,,,,,,,,title,68,16,sing,old,red,749.5993839000002,None,749.5993839000002,None,6,2.400923099979991,749.5993839000002,None,2.400923099979991,752.0211656000174,None,752.5339409000007,None,752.5339409000007,None,f,2.6265085999912117,752.5339409000007,None,2.6265085999912117,,,136Sing,001,2023_Oct_26_0905,ProdSingRedoBetween,2021.2.3,59.94017970221199,
,,,,16,0,16,0,,,,,,,,,,,,,,,,,,,,,,759.6074428000138,None,,,,,,,,,,,,,,,,,drama,143,17,sing,new,null,755.6895377000037,None,755.6895377000037,None,1,2.118968800001312,755.6895377000037,None,2.118968800001312,757.842034500005,None,758.3650222000142,None,758.3650222000142,None,n,1.227247000002535,758.3650222000142,None,1.227247000002535,,,136Sing,001,2023_Oct_26_0905,ProdSingRedoBetween,2021.2.3,59.94017970221199,
,,,,17,0,17,0,,,,,,,,,,,,,,,,,,,,,,765.3677110999997,None,,,,,,,,,,,,,,,,,evidence,8,18,sing,old,yellow,760.1186401000014,None,760.1186401000014,None,6,2.185815900011221,760.1186401000014,None,2.185815900011221,762.3305622000189,None,762.8514705000271,None,762.8514705000271,None,r,2.4932201999763492,762.8514705000271,None,2.4932201999763492,,,136Sing,001,2023_Oct_26_0905,ProdSingRedoBetween,2021.2.3,59.94017970221199,
,,,,18,0,18,0,,,,,,,,,,,,,,,,,,,,,,769.8174705000129,None,,,,,,,,,,,,,,,,,interior,3,19,sing,old,yellow,765.8892149000021,None,765.8892149000021,None,6,1.5832142000144813,765.8892149000021,None,1.5832142000144813,767.5004880000197,None,768.022969600017,None,768.022969600017,None,r,1.777515099995071,768.022969600017,None,1.777515099995071,,,136Sing,001,2023_Oct_26_0905,ProdSingRedoBetween,2021.2.3,59.94017970221199,
,,,,19,0,19,0,,,,,,,,,,,,,,,,,,,,,,775.3772191000171,None,,,,,,,,,,,,,,,,,congress,108,20,sing,new,null,770.3226260000083,None,770.3226260000083,None,3,3.4619317000033334,770.3226260000083,None,3.4619317000033334,773.8099768000247,None,774.3267627000168,None,774.3267627000168,None,n,1.0257764999987558,774.3267627000168,None,1.0257764999987558,,,136Sing,001,2023_Oct_26_0905,ProdSingRedoBetween,2021.2.3,59.94017970221199,
,,,,20,0,20,0,,,,,,,,,,,,,,,,,,,,,,781.0956316000083,None,,,,,,,,,,,,,,,,,health,23,21,sing,old,yellow,775.8968809000216,None,775.8968809000216,None,4,2.6078593999845907,775.8968809000216,None,2.6078593999845907,778.535604500008,None,779.0460409000225,None,779.0460409000225,None,n,2.0266243999940343,779.0460409000225,None,2.0266243999940343,,,136Sing,001,2023_Oct_26_0905,ProdSingRedoBetween,2021.2.3,59.94017970221199,
,,,,21,0,21,0,,,,,,,,,,,,,,,,,,,,,,785.2495612000057,None,,,,,,,,,,,,,,,,,public,49,22,sing,old,blue,781.6101611000195,None,781.6101611000195,None,6,1.6063438999990467,781.6101611000195,None,1.6063438999990467,783.2508627000207,None,783.7762330000114,None,783.7762330000114,None,f,1.456204499991145,783.7762330000114,None,1.456204499991145,,,136Sing,001,2023_Oct_26_0905,ProdSingRedoBetween,2021.2.3,59.94017970221199,
,,,,22,0,22,0,,,,,,,,,,,,,,,,,,,,,,790.9554224000021,None,,,,,,,,,,,,,,,,,angle,162,23,sing,new,null,785.7517883000255,None,785.7517883000255,None,3,3.672781600005692,785.7517883000255,None,3.672781600005692,789.4570136000111,None,789.9751067000034,None,789.9751067000034,None,n,0.9614526999939699,789.9751067000034,None,0.9614526999939699,,,136Sing,001,2023_Oct_26_0905,ProdSingRedoBetween,2021.2.3,59.94017970221199,
,,,,23,0,23,0,,,,,,,,,,,,,,,,,,,,,,795.2289279000252,None,,,,,,,,,,,,,,,,,platform,14,24,sing,old,yellow,791.466055900004,None,791.466055900004,None,6,1.6546251999970991,791.466055900004,None,1.6546251999970991,793.1490792000259,None,793.66176800002,None,793.66176800002,None,f,1.5388323000224773,793.66176800002,None,1.5388323000224773,,,136Sing,001,2023_Oct_26_0905,ProdSingRedoBetween,2021.2.3,59.94017970221199,
,,,,24,0,24,0,,,,,,,,,,,,,,,,,,,,,,798.9467344000004,None,,,,,,,,,,,,,,,,,minor,119,25,sing,new,null,795.7566059000092,None,795.7566059000092,None,1,1.7078074000019114,795.7566059000092,None,1.7078074000019114,797.4973281000275,None,798.0220291000151,None,798.0220291000151,None,n,0.8984466999827418,798.0220291000151,None,0.8984466999827418,,,136Sing,001,2023_Oct_26_0905,ProdSingRedoBetween,2021.2.3,59.94017970221199,
,,,,25,0,25,0,,,,,,,,,,,,,,,,,,,,,,802.9525461000158,None,,,,,,,,,,,,,,,,,debate,131,26,sing,new,null,799.4500802000111,None,799.4500802000111,None,1,2.0464805999945384,799.4500802000111,None,2.0464805999945384,801.5232424999995,None,802.0334119000181,None,802.0334119000181,None,n,0.8951508999743965,802.0334119000181,None,0.8951508999743965,,,136Sing,001,2023_Oct_26_0905,ProdSingRedoBetween,2021.2.3,59.94017970221199,
,,,,26,0,26,0,,,,,,,,,,,,,,,,,,,,,,807.1558763000066,None,,,,,,,,,,,,,,,,,death,150,27,sing,new,null,803.4777561000083,None,803.4777561000083,None,3,2.6587130000116304,803.4777561000083,None,2.6587130000116304,806.1573512000032,None,806.6785557000258,None,806.6785557000258,None,n,0.45794789999490604,806.6785557000258,None,0.45794789999490604,,,136Sing,001,2023_Oct_26_0905,ProdSingRedoBetween,2021.2.3,59.94017970221199,
,,,,27,0,27,0,,,,,,,,,,,,,,,,,,,,,,812.2641497000004,None,,,,,,,,,,,,,,,,,history,18,28,sing,old,yellow,807.6658064000076,None,807.6658064000076,None,6,2.1028079999960028,807.6658064000076,None,2.1028079999960028,809.7958656000264,None,810.309937700018,None,810.309937700018,None,f,1.9307187999947928,810.309937700018,None,1.9307187999947928,,,136Sing,001,2023_Oct_26_0905,ProdSingRedoBetween,2021.2.3,59.94017970221199,
,,,,28,0,28,0,,,,,,,,,,,,,,,,,,,,,,820.3515687000181,None,,,,,,,,,,,,,,,,,route,158,29,sing,new,null,812.7901979000017,None,812.7901979000017,None,4,5.082277700013947,812.7901979000017,None,5.082277700013947,817.9009638999996,None,818.4254545000149,None,818.4254545000149,None,n,1.911044899985427,818.4254545000149,None,1.911044899985427,,,136Sing,001,2023_Oct_26_0905,ProdSingRedoBetween,2021.2.3,59.94017970221199,
,,,,29,0,29,0,,,,,,,,,,,,,,,,,,,,,,824.3890569000214,None,,,,,,,,,,,,,,,,,close,177,30,sing,new,null,820.8614638000145,None,820.8614638000145,None,3,2.491269000020111,820.8614638000145,None,2.491269000020111,823.3789720000059,None,823.8926283000037,None,823.8926283000037,None,n,0.46769819999462925,823.8926283000037,None,0.46769819999462925,,,136Sing,001,2023_Oct_26_0905,ProdSingRedoBetween,2021.2.3,59.94017970221199,
,,,,30,0,30,0,,,,,,,,,,,,,,,,,,,,,,829.9778060000099,None,,,,,,,,,,,,,,,,,trail,136,31,sing,new,null,824.8967487000045,None,824.8967487000045,None,4,2.887883100018371,824.8967487000045,None,2.887883100018371,827.8171468000219,None,828.3274860000238,None,828.3274860000238,None,f,1.625,828.3274860000238,None,1.625,,,136Sing,001,2023_Oct_26_0905,ProdSingRedoBetween,2021.2.3,59.94017970221199,
,,,,31,0,31,0,,,,,,,,,,,,,,,,,,,,,,834.3488864000246,None,,,,,,,,,,,,,,,,,space,12,32,sing,old,yellow,830.491448100016,None,830.491448100016,None,4,2.4612694999959785,830.491448100016,None,2.4612694999959785,832.987644000008,None,833.5028140000068,None,833.5028140000068,None,f,0.8177540999895427,833.5028140000068,None,0.8177540999895427,,,136Sing,001,2023_Oct_26_0905,ProdSingRedoBetween,2021.2.3,59.94017970221199,
,,,,32,0,32,0,,,,,,,,,,,,,,,,,,,,,,838.2192117000232,None,,,,,,,,,,,,,,,,,tennis,83,33,sing,old,red,834.8659882000065,None,834.8659882000065,None,1,1.982622400013497,834.8659882000065,None,1.982622400013497,836.8740328000276,None,837.3897523000196,None,837.3897523000196,None,n,0.8108277999854181,837.3897523000196,None,0.8108277999854181,,,136Sing,001,2023_Oct_26_0905,ProdSingRedoBetween,2021.2.3,59.94017970221199,
,,,,33,0,33,0,,,,,,,,,,,,,,,,,,,,,,842.6757631000073,None,,,,,,,,,,,,,,,,,level,96,34,sing,new,null,838.7336590000195,None,838.7336590000195,None,2,2.466874200006714,838.7336590000195,None,2.466874200006714,841.226032400009,None,841.7479582000233,None,841.7479582000233,None,n,0.9006650999945123,841.7479582000233,None,0.9006650999945123,,,136Sing,001,2023_Oct_26_0905,ProdSingRedoBetween,2021.2.3,59.94017970221199,
,,,,34,0,34,0,,,,,,,,,,,,,,,,,,,,,,847.4119643000013,None,,,,,,,,,,,,,,,,,permit,13,35,sing,old,yellow,843.1984689000237,None,843.1984689000237,None,5,2.1221634999965318,843.1984689000237,None,2.1221634999965318,845.3503354000277,None,845.8657513000071,None,845.8657513000071,None,n,1.526795999991009,845.8657513000071,None,1.526795999991009,,,136Sing,001,2023_Oct_26_0905,ProdSingRedoBetween,2021.2.3,59.94017970221199,
,,,,35,0,35,0,,,,,,,,,,,,,,,,,,,,,,852.4502540000249,None,,,,,,,,,,,,,,,,,resistance,161,36,sing,new,null,847.925624000025,None,847.925624000025,None,1,1.7471467000141274,847.925624000025,None,1.7471467000141274,849.7079220000014,None,850.2206733000057,None,850.2206733000057,None,n,2.203838999994332,850.2206733000057,None,2.203838999994332,,,136Sing,001,2023_Oct_26_0905,ProdSingRedoBetween,2021.2.3,59.94017970221199,
,,,,36,0,36,0,,,,,,,,,,,,,,,,,,,,,,856.2706347000203,None,,,,,,,,,,,,,,,,,account,60,37,sing,old,red,852.9629905000038,None,852.9629905000038,None,3,2.1976275999913923,852.9629905000038,None,2.1976275999913923,855.1924691000022,None,855.7037012000219,None,855.7037012000219,None,n,0.5368625999835785,855.7037012000219,None,0.5368625999835785,,,136Sing,001,2023_Oct_26_0905,ProdSingRedoBetween,2021.2.3,59.94017970221199,
,,,,37,0,37,0,,,,,,,,,,,,,,,,,,,,,,861.6944671000238,None,,,,,,,,,,,,,,,,,novel,157,38,sing,new,null,856.7833659000171,None,856.7833659000171,None,3,2.377127699990524,856.7833659000171,None,2.377127699990524,859.1913015000173,None,859.6928519000066,None,859.6928519000066,None,n,1.9798489999957383,859.6928519000066,None,1.9798489999957383,,,136Sing,001,2023_Oct_26_0905,ProdSingRedoBetween,2021.2.3,59.94017970221199,
,,,,38,0,38,0,,,,,,,,,,,,,,,,,,,,,,867.0149027000007,None,,,,,,,,,,,,,,,,,enemy,105,39,sing,new,null,862.2015683000209,None,862.2015683000209,None,5,2.6150941000087187,862.2015683000209,None,2.6150941000087187,864.8518297000264,None,865.3633651000273,None,865.3633651000273,None,f,1.6291979999805335,865.3633651000273,None,1.6291979999805335,,,136Sing,001,2023_Oct_26_0905,ProdSingRedoBetween,2021.2.3,59.94017970221199,
,,,,39,0,39,0,,,,,,,,,,,,,,,,,,,,,,873.0208785000141,None,,,,,,,,,,,,,,,,,figure,46,40,sing,old,blue,867.5190431000083,None,867.5190431000083,None,3,4.113589500018861,867.5190431000083,None,4.113589500018861,871.6579055000038,None,872.1722631000157,None,872.1722631000157,None,n,0.828448100015521,872.1722631000157,None,0.828448100015521,,,136Sing,001,2023_Oct_26_0905,ProdSingRedoBetween,2021.2.3,59.94017970221199,
,,,,40,0,40,0,,,,,,,,,,,,,,,,,,,,,,877.2584776000003,None,,,,,,,,,,,,,,,,,device,72,41,sing,old,red,873.5242020000005,None,873.5242020000005,None,4,2.40448369999649,873.5242020000005,None,2.40448369999649,875.9615057000192,None,876.4853612000006,None,876.4853612000006,None,n,0.7471939999959432,876.4853612000006,None,0.7471939999959432,,,136Sing,001,2023_Oct_26_0905,ProdSingRedoBetween,2021.2.3,59.94017970221199,
,,,,41,0,41,0,,,,,,,,,,,,,,,,,,,,,,881.0288600000204,None,,,,,,,,,,,,,,,,,poetry,152,42,sing,new,null,877.7713509000023,None,877.7713509000023,None,1,1.9654432999959681,877.7713509000023,None,1.9654432999959681,879.773811400024,None,880.2827056000242,None,880.2827056000242,None,n,0.7258641000080388,880.2827056000242,None,0.7258641000080388,,,136Sing,001,2023_Oct_26_0905,ProdSingRedoBetween,2021.2.3,59.94017970221199,
,,,,42,0,42,0,,,,,,,,,,,,,,,,,,,,,,883.9484371000144,None,,,,,,,,,,,,,,,,,split,155,43,sing,new,null,881.5386848000053,None,881.5386848000053,None,1,1.3180409999913536,881.5386848000053,None,1.3180409999913536,882.8927572000248,None,883.3996007000096,None,883.3996007000096,None,n,0.5209189000015613,883.3996007000096,None,0.5209189000015613,,,136Sing,001,2023_Oct_26_0905,ProdSingRedoBetween,2021.2.3,59.94017970221199,
,,,,43,0,43,0,,,,,,,,,,,,,,,,,,,,,,888.8597929000098,None,,,,,,,,,,,,,,,,,break,122,44,sing,new,null,884.4645861000172,None,884.4645861000172,None,5,3.0960345000203233,884.4645861000172,None,3.0960345000203233,887.5890452000021,None,888.1075355000212,None,888.1075355000212,None,n,0.7252778999973089,888.1075355000212,None,0.7252778999973089,,,136Sing,001,2023_Oct_26_0905,ProdSingRedoBetween,2021.2.3,59.94017970221199,
,,,,44,0,44,0,,,,,,,,,,,,,,,,,,,,,,896.1106816000247,None,,,,,,,,,,,,,,,,,alert,38,45,sing,old,blue,889.3834578000242,None,889.3834578000242,None,6,2.449125599989202,889.3834578000242,None,2.449125599989202,891.8586744000204,None,892.3737010000041,None,892.3737010000041,None,r,3.714922600018326,892.3737010000041,None,3.714922600018326,,,136Sing,001,2023_Oct_26_0905,ProdSingRedoBetween,2021.2.3,59.94017970221199,
,,,,45,0,45,0,,,,,,,,,,,,,,,,,,,,,,899.8810554000083,None,,,,,,,,,,,,,,,,,science,139,46,sing,new,null,896.6262294000189,None,896.6262294000189,None,3,1.9824787999968976,896.6262294000189,None,1.9824787999968976,898.6421201000048,None,899.1488613000256,None,899.1488613000256,None,n,0.707714100019075,899.1488613000256,None,0.707714100019075,,,136Sing,001,2023_Oct_26_0905,ProdSingRedoBetween,2021.2.3,59.94017970221199,
,,,,46,0,46,0,,,,,,,,,,,,,,,,,,,,,,904.455357800005,None,,,,,,,,,,,,,,,,,design,97,47,sing,new,null,900.3907975000038,None,900.3907975000038,None,3,3.033736500015948,900.3907975000038,None,3.033736500015948,903.451162900019,None,903.9578002000053,None,903.9578002000053,None,n,0.4669331000186503,903.9578002000053,None,0.4669331000186503,,,136Sing,001,2023_Oct_26_0905,ProdSingRedoBetween,2021.2.3,59.94017970221199,
,,,,47,0,47,0,,,,,,,,,,,,,,,,,,,,,,907.8411077000201,None,,,,,,,,,,,,,,,,,block,106,48,sing,new,null,904.9818538000109,None,904.9818538000109,None,3,1.8667549999954645,904.9818538000109,None,1.8667549999954645,906.8739729000081,None,907.3936123000167,None,907.3936123000167,None,n,0.41505250000045635,907.3936123000167,None,0.41505250000045635,,,136Sing,001,2023_Oct_26_0905,ProdSingRedoBetween,2021.2.3,59.94017970221199,
,,,,48,0,48,0,,,,,,,,,,,,,,,,,,,,,,911.5927729000105,None,,,,,,,,,,,,,,,,,attack,91,49,sing,new,null,908.3605184000044,None,908.3605184000044,None,3,2.2561163999780547,908.3605184000044,None,2.2561163999780547,910.6429865000246,None,911.1478920000081,None,911.1478920000081,None,n,0.4208173000079114,911.1478920000081,None,0.4208173000079114,,,136Sing,001,2023_Oct_26_0905,ProdSingRedoBetween,2021.2.3,59.94017970221199,
,,,,49,0,49,0,,,,,,,,,,,,,,,,,,,,,,915.2131006000272,None,,,,,,,,,,,,,,,,,command,133,50,sing,new,null,912.1014613000152,None,912.1014613000152,None,1,2.2112722000165377,912.1014613000152,None,2.2112722000165377,914.3359208000184,None,914.8491716000135,None,914.8491716000135,None,n,0.3434146999788936,914.8491716000135,None,0.3434146999788936,,,136Sing,001,2023_Oct_26_0905,ProdSingRedoBetween,2021.2.3,59.94017970221199,
,,,,50,0,50,0,,,,,,,,,,,,,,,,,,,,,,919.7676056000055,None,,,,,,,,,,,,,,,,,primary,19,51,sing,old,yellow,915.7245997000136,None,915.7245997000136,None,4,2.444163300009677,915.7245997000136,None,2.444163300009677,918.2119814000034,None,918.7206478000153,None,918.7206478000153,None,n,1.0319536000024527,918.7206478000153,None,1.0319536000024527,,,136Sing,001,2023_Oct_26_0905,ProdSingRedoBetween,2021.2.3,59.94017970221199,
,,,,51,0,51,0,,,,,,,,,,,,,,,,,,,,,,922.9374554000096,None,,,,,,,,,,,,,,,,,series,116,52,sing,new,null,920.2798433999997,None,920.2798433999997,None,3,1.6967657999775838,920.2798433999997,None,1.6967657999775838,922.0064446000033,None,922.5205516000278,None,922.5205516000278,None,n,0.40002499998081475,922.5205516000278,None,0.40002499998081475,,,136Sing,001,2023_Oct_26_0905,ProdSingRedoBetween,2021.2.3,59.94017970221199,
,,,,52,0,52,0,,,,,,,,,,,,,,,,,,,,,,926.1073525000247,None,,,,,,,,,,,,,,,,,defeat,159,53,sing,new,null,923.445804100018,None,923.445804100018,None,2,1.7228366000053938,923.445804100018,None,1.7228366000053938,925.1921646000119,None,925.7070362000086,None,925.7070362000086,None,n,0.38174050001543947,925.7070362000086,None,0.38174050001543947,,,136Sing,001,2023_Oct_26_0905,ProdSingRedoBetween,2021.2.3,59.94017970221199,
,,,,53,0,53,0,,,,,,,,,,,,,,,,,,,,,,931.9813676000049,None,,,,,,,,,,,,,,,,,phrase,80,54,sing,old,red,926.6186106000096,None,926.6186106000096,None,5,3.8060585999919567,926.6186106000096,None,3.8060585999919567,930.4486281000136,None,930.969551200018,None,930.969551200018,None,n,0.9911756000074092,930.969551200018,None,0.9911756000074092,,,136Sing,001,2023_Oct_26_0905,ProdSingRedoBetween,2021.2.3,59.94017970221199,
,,,,54,0,54,0,,,,,,,,,,,,,,,,,,,,,,936.6345554,None,,,,,,,,,,,,,,,,,sleep,77,55,sing,old,red,932.4899242000247,None,932.4899242000247,None,6,1.6626934999949299,932.4899242000247,None,1.6626934999949299,934.1820702000114,None,934.6863531000272,None,934.6863531000272,None,r,1.9303771999839228,934.6863531000272,None,1.9303771999839228,,,136Sing,001,2023_Oct_26_0905,ProdSingRedoBetween,2021.2.3,59.94017970221199,
,,,,55,0,55,0,,,,,,,,,,,,,,,,,,,,,,941.4393699000066,None,,,,,,,,,,,,,,,,,surprise,56,56,sing,old,blue,937.1482507000037,None,937.1482507000037,None,3,2.5805776999914087,937.1482507000037,None,2.5805776999914087,939.7591809000005,None,940.2716742000193,None,940.2716742000193,None,n,1.1370707000023685,940.2716742000193,None,1.1370707000023685,,,136Sing,001,2023_Oct_26_0905,ProdSingRedoBetween,2021.2.3,59.94017970221199,
,,,,56,0,56,0,,,,,,,,,,,,,,,,,,,,,,945.6101431999996,None,,,,,,,,,,,,,,,,,light,117,57,sing,new,null,941.9513785000017,None,941.9513785000017,None,2,2.4654264000128023,941.9513785000017,None,2.4654264000128023,944.4515565000183,None,944.9621575000056,None,944.9621575000056,None,n,0.6225078999996185,944.9621575000056,None,0.6225078999996185,,,136Sing,001,2023_Oct_26_0905,ProdSingRedoBetween,2021.2.3,59.94017970221199,
,,,,57,0,57,0,,,,,,,,,,,,,,,,,,,,,,949.0844218000129,None,,,,,,,,,,,,,,,,,majority,149,58,sing,new,null,946.1244404000172,None,946.1244404000172,None,2,2.0683856999967247,946.1244404000172,None,2.0683856999967247,948.2211769000278,None,948.7372373000253,None,948.7372373000253,None,n,0.32771949999732897,948.7372373000253,None,0.32771949999732897,,,136Sing,001,2023_Oct_26_0905,ProdSingRedoBetween,2021.2.3,59.94017970221199,
,,,,58,0,58,0,,,,,,,,,,,,,,,,,,,,,,952.3851313000196,None,,,,,,,,,,,,,,,,,music,87,59,sing,old,red,949.6122106000257,None,949.6122106000257,None,2,1.8603966000082437,949.6122106000257,None,1.8603966000082437,951.5016469000257,None,952.0274524000124,None,952.0274524000124,None,n,0.3413437999843154,952.0274524000124,None,0.3413437999843154,,,136Sing,001,2023_Oct_26_0905,ProdSingRedoBetween,2021.2.3,59.94017970221199,
,,,,59,0,59,0,,,,,,,,,,,,,,,,,,,,,,956.4376418000029,None,,,,,,,,,,,,,,,,,measure,52,60,sing,old,blue,952.8946236000047,None,952.8946236000047,None,6,1.5700264000042807,952.8946236000047,None,1.5700264000042807,954.4872100000212,None,954.9918956000183,None,954.9918956000183,None,f,1.4168424000090454,954.9918956000183,None,1.4168424000090454,,,136Sing,001,2023_Oct_26_0905,ProdSingRedoBetween,2021.2.3,59.94017970221199,
,,,,60,0,60,0,,,,,,,,,,,,,,,,,,,,,,960.7920137000037,None,,,,,,,,,,,,,,,,,throw,114,61,sing,new,null,956.9450236000121,None,956.9450236000121,None,6,2.567717799975071,956.9450236000121,None,2.567717799975071,959.5440175000113,None,960.0650198000076,None,960.0650198000076,None,n,0.7036834000027739,960.0650198000076,None,0.7036834000027739,,,136Sing,001,2023_Oct_26_0905,ProdSingRedoBetween,2021.2.3,59.94017970221199,
,,,,61,0,61,0,,,,,,,,,,,,,,,,,,,,,,965.3632907000137,None,,,,,,,,,,,,,,,,,pattern,48,62,sing,old,blue,961.3089897000173,None,961.3089897000173,None,6,1.6596457000123337,961.3089897000173,None,1.6596457000123337,962.9954381000134,None,963.5018914000248,None,963.5018914000248,None,f,1.8348011999914888,963.5018914000248,None,1.8348011999914888,,,136Sing,001,2023_Oct_26_0905,ProdSingRedoBetween,2021.2.3,59.94017970221199,
,,,,62,0,62,0,,,,,,,,,,,,,,,,,,,,,,969.250509400008,None,,,,,,,,,,,,,,,,,collection,168,63,sing,new,null,965.8664660000068,None,965.8664660000068,None,1,2.238234000018565,965.8664660000068,None,2.238234000018565,968.1356802000082,None,968.6522330000007,None,968.6522330000007,None,n,0.5804394999868236,968.6522330000007,None,0.5804394999868236,,,136Sing,001,2023_Oct_26_0905,ProdSingRedoBetween,2021.2.3,59.94017970221199,
,,,,63,0,63,0,,,,,,,,,,,,,,,,,,,,,,974.0398414000229,None,,,,,,,,,,,,,,,,,build,118,64,sing,new,null,969.7596523000102,None,969.7596523000102,None,2,3.0412486999994144,969.7596523000102,None,3.0412486999994144,972.8306345000165,None,973.3459664000256,None,973.3459664000256,None,n,0.6628086999990046,973.3459664000256,None,0.6628086999990046,,,136Sing,001,2023_Oct_26_0905,ProdSingRedoBetween,2021.2.3,59.94017970221199,
,,,,64,0,64,0,,,,,,,,,,,,,,,,,,,,,,978.1801124000049,None,,,,,,,,,,,,,,,,,victory,51,65,sing,old,blue,974.5452677000139,None,974.5452677000139,None,6,1.815575999993598,974.5452677000139,None,1.815575999993598,976.4040451000037,None,976.9122067000135,None,976.9122067000135,None,f,1.2405546999943908,976.9122067000135,None,1.2405546999943908,,,136Sing,001,2023_Oct_26_0905,ProdSingRedoBetween,2021.2.3,59.94017970221199,
,,,,65,0,65,0,,,,,,,,,,,,,,,,,,,,,,982.4314021000173,None,,,,,,,,,,,,,,,,,style,4,66,sing,old,yellow,978.699974600022,None,978.699974600022,None,2,2.556753500015475,978.699974600022,None,2.556753500015475,981.282776100008,None,981.807251100021,None,981.807251100021,None,n,0.6014692999888211,981.807251100021,None,0.6014692999888211,,,136Sing,001,2023_Oct_26_0905,ProdSingRedoBetween,2021.2.3,59.94017970221199,
,,,,66,0,66,0,,,,,,,,,,,,,,,,,,,,,,985.6502360000159,None,,,,,,,,,,,,,,,,,council,84,67,sing,old,red,982.9461961000052,None,982.9461961000052,None,2,1.6945287999988068,982.9461961000052,None,1.6945287999988068,984.6706076000119,None,985.1833245000162,None,985.1833245000162,None,n,0.44143619999522343,985.1833245000162,None,0.44143619999522343,,,136Sing,001,2023_Oct_26_0905,ProdSingRedoBetween,2021.2.3,59.94017970221199,
,,,,67,0,67,0,,,,,,,,,,,,,,,,,,,,,,989.9544827000063,None,,,,,,,,,,,,,,,,,power,156,68,sing,new,null,986.1664862000034,None,986.1664862000034,None,4,2.8021602999942843,986.1664862000034,None,2.8021602999942843,988.9904794000031,None,989.5042268000252,None,989.5042268000252,None,n,0.4324761000170838,989.5042268000252,None,0.4324761000170838,,,136Sing,001,2023_Oct_26_0905,ProdSingRedoBetween,2021.2.3,59.94017970221199,
,,,,68,0,68,0,,,,,,,,,,,,,,,,,,,,,,993.39133090002,None,,,,,,,,,,,,,,,,,discussion,78,69,sing,old,red,990.4661227000179,None,990.4661227000179,None,1,1.9906728999922052,990.4661227000179,None,1.9906728999922052,992.4787928000151,None,992.9910533000075,None,992.9910533000075,None,n,0.37779800000134856,992.9910533000075,None,0.37779800000134856,,,136Sing,001,2023_Oct_26_0905,ProdSingRedoBetween,2021.2.3,59.94017970221199,
,,,,69,0,69,0,,,,,,,,,,,,,,,,,,,,,,996.4286420000135,None,,,,,,,,,,,,,,,,,business,89,70,sing,old,red,993.9049537000246,None,993.9049537000246,None,1,1.6318320000136737,993.9049537000246,None,1.6318320000136737,995.5624900000112,None,996.086841100012,None,996.086841100012,None,n,0.3139497000083793,996.086841100012,None,0.3139497000083793,,,136Sing,001,2023_Oct_26_0905,ProdSingRedoBetween,2021.2.3,59.94017970221199,
,,,,70,0,70,0,,,,,,,,,,,,,,,,,,,,,,1001.2859124000242,None,,,,,,,,,,,,,,,,,sweet,144,71,sing,new,null,996.9359319000214,None,996.9359319000214,None,5,2.3531390999851283,996.9359319000214,None,2.3531390999851283,999.3150410000235,None,999.8183237000194,None,999.8183237000194,None,f,1.4465778000012506,999.8183237000194,None,1.4465778000012506,,,136Sing,001,2023_Oct_26_0905,ProdSingRedoBetween,2021.2.3,59.94017970221199,
,,,,71,0,71,0,,,,,,,,,,,,,,,,,,,,,,1004.752686700027,None,,,,,,,,,,,,,,,,,scene,27,72,sing,old,yellow,1001.810057900002,None,1001.810057900002,None,2,1.9108376000076532,1001.810057900002,None,1.9108376000076532,1003.7586469000089,None,1004.2747003000113,None,1004.2747003000113,None,n,0.46206679998431355,1004.2747003000113,None,0.46206679998431355,,,136Sing,001,2023_Oct_26_0905,ProdSingRedoBetween,2021.2.3,59.94017970221199,
,,,,72,0,72,0,,,,,,,,,,,,,,,,,,,,,,1010.7100003000232,None,,,,,,,,,,,,,,,,,pretty,76,73,sing,old,red,1005.2700876000163,None,1005.2700876000163,None,6,3.282874199998332,1005.2700876000163,None,3.282874199998332,1008.5812038000149,None,1009.0917947000125,None,1009.0917947000125,None,f,1.5890427000122145,1009.0917947000125,None,1.5890427000122145,,,136Sing,001,2023_Oct_26_0905,ProdSingRedoBetween,2021.2.3,59.94017970221199,
,,,,73,0,73,0,,,,,,,,,,,,,,,,,,,,,,1014.2788018000138,None,,,,,,,,,,,,,,,,,shape,123,74,sing,new,null,1011.2141980000015,None,1011.2141980000015,None,1,1.8745261000003666,1011.2141980000015,None,1.8745261000003666,1013.1122810000088,None,1013.6171571000014,None,1013.6171571000014,None,n,0.6396330000134185,1013.6171571000014,None,0.6396330000134185,,,136Sing,001,2023_Oct_26_0905,ProdSingRedoBetween,2021.2.3,59.94017970221199,
,,,,74,0,74,0,,,,,,,,,,,,,,,,,,,,,,1017.4319901000126,None,,,,,,,,,,,,,,,,,guest,103,75,sing,new,null,1014.7911444000201,None,1014.7911444000201,None,1,1.7616795000212733,1014.7911444000201,None,1.7616795000212733,1016.584196700016,None,1017.104708000028,None,1017.104708000028,None,n,0.31194599997252226,1017.104708000028,None,0.31194599997252226,,,136Sing,001,2023_Oct_26_0905,ProdSingRedoBetween,2021.2.3,59.94017970221199,
,,,,75,0,75,0,,,,,,,,,,,,,,,,,,,,,,1022.6706194000144,None,,,,,,,,,,,,,,,,,machinery,24,76,sing,old,yellow,1017.9406008000078,None,1017.9406008000078,None,6,2.2761132000014186,1017.9406008000078,None,2.2761132000014186,1020.2417842000141,None,1020.7573136000137,None,1020.7573136000137,None,n,1.8834178000106476,1020.7573136000137,None,1.8834178000106476,,,136Sing,001,2023_Oct_26_0905,ProdSingRedoBetween,2021.2.3,59.94017970221199,
,,,,76,0,76,0,,,,,,,,,,,,,,,,,,,,,,1027.9425599000242,None,,,,,,,,,,,,,,,,,couch,6,77,sing,old,yellow,1023.1726575000212,None,1023.1726575000212,None,6,1.6680586000147741,1023.1726575000212,None,1.6680586000147741,1024.8593897000246,None,1025.3757937000191,None,1025.3757937000191,None,r,2.5449649000074714,1025.3757937000191,None,2.5449649000074714,,,136Sing,001,2023_Oct_26_0905,ProdSingRedoBetween,2021.2.3,59.94017970221199,
,,,,77,0,77,0,,,,,,,,,,,,,,,,,,,,,,1031.3476881000097,None,,,,,,,,,,,,,,,,,welcome,121,78,sing,new,null,1028.4561626000213,None,1028.4561626000213,None,1,1.9846317000046838,1028.4561626000213,None,1.9846317000046838,1030.4666609000124,None,1030.9878657000081,None,1030.9878657000081,None,n,0.3409954000089783,1030.9878657000081,None,0.3409954000089783,,,136Sing,001,2023_Oct_26_0905,ProdSingRedoBetween,2021.2.3,59.94017970221199,
,,,,78,0,78,0,,,,,,,,,,,,,,,,,,,,,,1035.4834179000172,None,,,,,,,,,,,,,,,,,clear,1,79,sing,old,yellow,1031.8674962000223,None,1031.8674962000223,None,5,2.65343540001777,1031.8674962000223,None,2.65343540001777,1034.5547328000248,None,1035.0664640000032,None,1035.0664640000032,None,n,0.39834840002004057,1035.0664640000032,None,0.39834840002004057,,,136Sing,001,2023_Oct_26_0905,ProdSingRedoBetween,2021.2.3,59.94017970221199,
,,,,79,0,79,0,,,,,,,,,,,,,,,,,,,,,,1038.5363944000273,None,,,,,,,,,,,,,,,,,spoke,22,80,sing,old,yellow,1035.9974122000276,None,1035.9974122000276,None,1,1.6113493999873754,1035.9974122000276,None,1.6113493999873754,1037.639068700024,None,1038.1590869000065,None,1038.1590869000065,None,n,0.3618652999866754,1038.1590869000065,None,0.3618652999866754,,,136Sing,001,2023_Oct_26_0905,ProdSingRedoBetween,2021.2.3,59.94017970221199,
,,,,80,0,80,0,,,,,,,,,,,,,,,,,,,,,,1042.6572486000077,None,,,,,,,,,,,,,,,,,generation,30,81,sing,old,blue,1039.051884400018,None,1039.051884400018,None,5,2.2609212000097614,1039.051884400018,None,2.2609212000097614,1041.3469561000238,None,1041.857100000023,None,1041.857100000023,None,n,0.783709799987264,1041.857100000023,None,0.783709799987264,,,136Sing,001,2023_Oct_26_0905,ProdSingRedoBetween,2021.2.3,59.94017970221199,
,,,,81,0,81,0,,,,,,,,,,,,,,,,,,,,,,1045.2955327000236,None,,,,,,,,,,,,,,,,,religion,160,82,sing,new,null,1043.1659250000084,None,1043.1659250000084,None,1,1.2110664000210818,1043.1659250000084,None,1.2110664000210818,1044.400286100019,None,1044.9104945000145,None,1044.9104945000145,None,n,0.362510500010103,1044.9104945000145,None,0.362510500010103,,,136Sing,001,2023_Oct_26_0905,ProdSingRedoBetween,2021.2.3,59.94017970221199,
,,,,82,0,82,0,,,,,,,,,,,,,,,,,,,,,,1049.3997214000265,None,,,,,,,,,,,,,,,,,height,73,83,sing,old,red,1045.8180519000161,None,1045.8180519000161,None,6,2.54298359999666,1045.8180519000161,None,2.54298359999666,1048.3882914000133,None,1048.8992069000087,None,1048.8992069000087,None,n,0.46973650000290945,1048.8992069000087,None,0.46973650000290945,,,136Sing,001,2023_Oct_26_0905,ProdSingRedoBetween,2021.2.3,59.94017970221199,
,,,,83,0,83,0,,,,,,,,,,,,,,,,,,,,,,1053.0035448000126,None,,,,,,,,,,,,,,,,,union,86,84,sing,old,red,1049.9193943000282,None,1049.9193943000282,None,5,2.2655326000240166,1049.9193943000282,None,2.2655326000240166,1052.20728100001,None,1052.7174500000256,None,1052.7174500000256,None,n,0.2595074000128079,1052.7174500000256,None,0.2595074000128079,,,136Sing,001,2023_Oct_26_0905,ProdSingRedoBetween,2021.2.3,59.94017970221199,
,,,,84,0,84,0,,,,,,,,,,,,,,,,,,,,,,1055.4548884000105,None,,,,,,,,,,,,,,,,,nature,148,85,sing,new,null,1053.5285681000096,None,1053.5285681000096,None,1,1.0162499000143725,1053.5285681000096,None,1.0162499000143725,1054.5714223000105,None,1055.0944062000199,None,1055.0944062000199,None,n,0.33854840000276454,1055.0944062000199,None,0.33854840000276454,,,136Sing,001,2023_Oct_26_0905,ProdSingRedoBetween,2021.2.3,59.94017970221199,
,,,,85,0,85,0,,,,,,,,,,,,,,,,,,,,,,1060.341571500001,None,,,,,,,,,,,,,,,,,group,88,86,sing,old,red,1055.9574169000261,None,1055.9574169000261,None,3,3.515398199990159,1055.9574169000261,None,3.515398199990159,1059.5006256000197,None,1060.0141707000148,None,1060.0141707000148,None,n,0.29862029998912476,1060.0141707000148,None,0.29862029998912476,,,136Sing,001,2023_Oct_26_0905,ProdSingRedoBetween,2021.2.3,59.94017970221199,
,,,,86,0,86,0,,,,,,,,,,,,,,,,,,,,,,1064.51263870002,None,,,,,,,,,,,,,,,,,hunger,62,87,sing,old,red,1060.8421119000122,None,1060.8421119000122,None,3,2.8787269000022206,1060.8421119000122,None,2.8787269000022206,1063.7468859000073,None,1064.2664425000257,None,1064.2664425000257,None,n,0.23048049997305498,1064.2664425000257,None,0.23048049997305498,,,136Sing,001,2023_Oct_26_0905,ProdSingRedoBetween,2021.2.3,59.94017970221199,
,,,,87,0,87,0,,,,,,,,,,,,,,,,,,,,,,1068.7701029000164,None,,,,,,,,,,,,,,,,,crisis,28,88,sing,old,yellow,1065.0283717000275,None,1065.0283717000275,None,5,2.3644548000011127,1065.0283717000275,None,2.3644548000011127,1067.4199091000191,None,1067.9374244000064,None,1067.9374244000064,None,n,0.7995659000007436,1067.9374244000064,None,0.7995659000007436,,,136Sing,001,2023_Oct_26_0905,ProdSingRedoBetween,2021.2.3,59.94017970221199,
,,,,88,0,88,0,,,,,,,,,,,,,,,,,,,,,,1073.2211042000272,None,,,,,,,,,,,,,,,,,research,25,89,sing,old,yellow,1069.296703,None,1069.296703,None,5,2.8001767999958247,1069.296703,None,2.8001767999958247,1072.127415200026,None,1072.6428966000094,None,1072.6428966000094,None,n,0.5499379999819212,1072.6428966000094,None,0.5499379999819212,,,136Sing,001,2023_Oct_26_0905,ProdSingRedoBetween,2021.2.3,59.94017970221199,
,,,,89,0,89,0,,,,,,,,,,,,,,,,,,,,,,1076.5912030000181,None,,,,,,,,,,,,,,,,,impact,138,90,sing,new,null,1073.7321345000237,None,1073.7321345000237,None,2,1.956705399992643,1073.7321345000237,None,1.956705399992643,1075.7141362000257,None,1076.227317300014,None,1076.227317300014,None,n,0.33352829999057576,1076.227317300014,None,0.33352829999057576,,,136Sing,001,2023_Oct_26_0905,ProdSingRedoBetween,2021.2.3,59.94017970221199,
,,,,90,0,90,0,,,,,,,,,,,,,,,,,,,,,,1080.2476907000237,None,,,,,,,,,,,,,,,,,edition,163,91,sing,new,null,1077.1009564000124,None,1077.1009564000124,None,2,2.2918938000220805,1077.1009564000124,None,2.2918938000220805,1079.4166923000012,None,1079.9371797000058,None,1079.9371797000058,None,n,0.28781479998724535,1079.9371797000058,None,0.28781479998724535,,,136Sing,001,2023_Oct_26_0905,ProdSingRedoBetween,2021.2.3,59.94017970221199,
,,,,91,0,91,0,,,,,,,,,,,,,,,,,,,,,,1087.101631700003,None,,,,,,,,,,,,,,,,,equipment,61,92,sing,old,red,1080.7677452000207,None,1080.7677452000207,None,6,1.6092693000100553,1080.7677452000207,None,1.6092693000100553,1082.407557300001,None,1082.9156562999997,None,1082.9156562999997,None,r,4.165325899986783,1082.9156562999997,None,4.165325899986783,,,136Sing,001,2023_Oct_26_0905,ProdSingRedoBetween,2021.2.3,59.94017970221199,
,,,,92,0,92,0,,,,,,,,,,,,,,,,,,,,,,1091.4570180000155,None,,,,,,,,,,,,,,,,,carry,54,93,sing,old,blue,1087.614466500003,None,1087.614466500003,None,6,1.690357799991034,1087.614466500003,None,1.690357799991034,1089.3240086000005,None,1089.8403164000192,None,1089.8403164000192,None,f,1.5846704999858048,1089.8403164000192,None,1.5846704999858048,,,136Sing,001,2023_Oct_26_0905,ProdSingRedoBetween,2021.2.3,59.94017970221199,
,,,,93,0,93,0,,,,,,,,,,,,,,,,,,,,,,1096.8447669000016,None,,,,,,,,,,,,,,,,,report,65,94,sing,old,red,1091.9614342999994,None,1091.9614342999994,None,4,3.5594114999985322,1091.9614342999994,None,3.5594114999985322,1095.544699400023,None,1096.048743100022,None,1096.048743100022,None,n,0.7680682000063825,1096.048743100022,None,0.7680682000063825,,,136Sing,001,2023_Oct_26_0905,ProdSingRedoBetween,2021.2.3,59.94017970221199,
,,,,94,0,94,0,,,,,,,,,,,,,,,,,,,,,,1099.799019900005,None,,,,,,,,,,,,,,,,,force,166,95,sing,new,null,1097.353199300007,None,1097.353199300007,None,1,1.551744600001257,1097.353199300007,None,1.551744600001257,1098.9365124000178,None,1099.448321200005,None,1099.448321200005,None,n,0.3207020000263583,1099.448321200005,None,0.3207020000263583,,,136Sing,001,2023_Oct_26_0905,ProdSingRedoBetween,2021.2.3,59.94017970221199,
,,,,95,0,95,0,,,,,,,,,,,,,,,,,,,,,,1103.6065988000191,None,,,,,,,,,,,,,,,,,disease,81,96,sing,old,red,1100.3115672999993,None,1100.3115672999993,None,6,1.8013060000084806,1100.3115672999993,None,1.8013060000084806,1102.1370104000089,None,1102.6564779000182,None,1102.6564779000182,None,n,0.9286780999973416,1102.6564779000182,None,0.9286780999973416,,,136Sing,001,2023_Oct_26_0905,ProdSingRedoBetween,2021.2.3,59.94017970221199,
,,,,96,0,96,0,,,,,,,,,,,,,,,,,,,,,,1107.171693500015,None,,,,,,,,,,,,,,,,,audience,146,97,sing,new,null,1104.1291923000244,None,1104.1291923000244,None,6,1.8476777999894693,1104.1291923000244,None,1.8476777999894693,1106.0057477000228,None,1106.5271738000156,None,1106.5271738000156,None,n,0.6258260000031441,1106.5271738000156,None,0.6258260000031441,,,136Sing,001,2023_Oct_26_0905,ProdSingRedoBetween,2021.2.3,59.94017970221199,
,,,,97,0,97,0,,,,,,,,,,,,,,,,,,,,,,1111.378765100002,None,,,,,,,,,,,,,,,,,theme,85,98,sing,old,red,1107.6881449000211,None,1107.6881449000211,None,6,2.8728125000197906,1107.6881449000211,None,2.8728125000197906,1110.5985291000106,None,1111.1099584000185,None,1111.1099584000185,None,n,0.2431329000100959,1111.1099584000185,None,0.2431329000100959,,,136Sing,001,2023_Oct_26_0905,ProdSingRedoBetween,2021.2.3,59.94017970221199,
,,,,98,0,98,0,,,,,,,,,,,,,,,,,,,,,,1114.2467419000168,None,,,,,,,,,,,,,,,,,month,58,99,sing,old,blue,1111.8990221999993,None,1111.8990221999993,None,6,1.205873500002781,1111.8990221999993,None,1.205873500002781,1113.131201000011,None,1113.6542711000075,None,1113.6542711000075,None,n,0.562726100004511,1113.6542711000075,None,0.562726100004511,,,136Sing,001,2023_Oct_26_0905,ProdSingRedoBetween,2021.2.3,59.94017970221199,
,,,,99,0,99,0,,,,,,,,,,,,,,,,,,,,,,1119.1504431000212,None,,,,,,,,,,,,,,,,,still,115,100,sing,new,null,1114.7519967000117,None,1114.7519967000117,None,1,3.5050207000167575,1114.7519967000117,None,3.5050207000167575,1118.2894945000007,None,1118.8014544000034,None,1118.8014544000034,None,n,0.3274618999857921,1118.8014544000034,None,0.3274618999857921,,,136Sing,001,2023_Oct_26_0905,ProdSingRedoBetween,2021.2.3,59.94017970221199,
,,,,100,0,100,0,,,,,,,,,,,,,,,,,,,,,,1123.0874936000037,None,,,,,,,,,,,,,,,,,youth,135,101,sing,new,null,1119.6662490000017,None,1119.6662490000017,None,3,2.550789100001566,1119.6662490000017,None,2.550789100001566,1122.2443621000275,None,1122.7585593000113,None,1122.7585593000113,None,n,0.30637050000950694,1122.7585593000113,None,0.30637050000950694,,,136Sing,001,2023_Oct_26_0905,ProdSingRedoBetween,2021.2.3,59.94017970221199,
,,,,101,0,101,0,,,,,,,,,,,,,,,,,,,,,,1126.874582700024,None,,,,,,,,,,,,,,,,,drink,90,102,sing,new,null,1123.5951679000282,None,1123.5951679000282,None,1,2.029662200016901,1123.5951679000282,None,2.029662200016901,1125.642565200018,None,1126.1645134000282,None,1126.1645134000282,None,n,0.68438370001968,1126.1645134000282,None,0.68438370001968,,,136Sing,001,2023_Oct_26_0905,ProdSingRedoBetween,2021.2.3,59.94017970221199,
,,,,102,0,102,0,,,,,,,,,,,,,,,,,,,,,,1130.7311635000224,None,,,,,,,,,,,,,,,,,clean,173,103,sing,new,null,1127.3771748,None,1127.3771748,None,2,2.5117629000160377,1127.3771748,None,2.5117629000160377,1129.914645300014,None,1130.436990600021,None,1130.436990600021,None,n,0.2760877000109758,1130.436990600021,None,0.2760877000109758,,,136Sing,001,2023_Oct_26_0905,ProdSingRedoBetween,2021.2.3,59.94017970221199,
,,,,103,0,103,0,,,,,,,,,,,,,,,,,,,,,,1133.6816529000062,None,,,,,,,,,,,,,,,,,native,26,104,sing,old,yellow,1131.2518802000268,None,1131.2518802000268,None,1,1.541223300009733,1131.2518802000268,None,1.541223300009733,1132.8268467000162,None,1133.3345230000268,None,1133.3345230000268,None,n,0.3303072999988217,1133.3345230000268,None,0.3303072999988217,,,136Sing,001,2023_Oct_26_0905,ProdSingRedoBetween,2021.2.3,59.94017970221199,
,,,,104,0,104,0,,,,,,,,,,,,,,,,,,,,,,1138.9368883999996,None,,,,,,,,,,,,,,,,,session,102,105,sing,new,null,1134.191564800014,None,1134.191564800014,None,5,3.5613194000034127,1134.191564800014,None,3.5613194000034127,1137.7763420000265,None,1138.291042100027,None,1138.291042100027,None,n,0.6297839999897406,1138.291042100027,None,0.6297839999897406,,,136Sing,001,2023_Oct_26_0905,ProdSingRedoBetween,2021.2.3,59.94017970221199,
,,,,105,0,105,0,,,,,,,,,,,,,,,,,,,,,,1143.795159100002,None,,,,,,,,,,,,,,,,,discovery,45,106,sing,old,blue,1139.4461318000103,None,1139.4461318000103,None,6,1.6828401999955531,1139.4461318000103,None,1.6828401999955531,1141.1640700999997,None,1141.6801196000015,None,1141.6801196000015,None,f,2.080973600008292,1141.6801196000015,None,2.080973600008292,,,136Sing,001,2023_Oct_26_0905,ProdSingRedoBetween,2021.2.3,59.94017970221199,
,,,,106,0,106,0,,,,,,,,,,,,,,,,,,,,,,1148.1809342000051,None,,,,,,,,,,,,,,,,,reach,127,107,sing,new,null,1144.3143190000264,None,1144.3143190000264,None,4,2.2305178999959026,1144.3143190000264,None,2.2305178999959026,1146.5610059000028,None,1147.066830900003,None,1147.066830900003,None,n,1.0860674000286963,1147.066830900003,None,1.0860674000286963,,,136Sing,001,2023_Oct_26_0905,ProdSingRedoBetween,2021.2.3,59.94017970221199,
,,,,107,0,107,0,,,,,,,,,,,,,,,,,,,,,,1152.042052600009,None,,,,,,,,,,,,,,,,,literature,67,108,sing,old,red,1148.6800719000166,None,1148.6800719000166,None,1,2.5130241000151727,1148.6800719000166,None,2.5130241000151727,1151.2254354000033,None,1151.737066600006,None,1151.737066600006,None,n,0.2719065999845043,1151.737066600006,None,0.2719065999845043,,,136Sing,001,2023_Oct_26_0905,ProdSingRedoBetween,2021.2.3,59.94017970221199,
,,,,108,0,108,0,,,,,,,,,,,,,,,,,,,,,,1155.0368706000154,None,,,,,,,,,,,,,,,,,people,15,109,sing,old,yellow,1152.5625217000197,None,1152.5625217000197,None,1,1.6703807000012603,1152.5625217000197,None,1.6703807000012603,1154.2534565000096,None,1154.7581025000254,None,1154.7581025000254,None,n,0.25888510001823306,1154.7581025000254,None,0.25888510001823306,,,136Sing,001,2023_Oct_26_0905,ProdSingRedoBetween,2021.2.3,59.94017970221199,
,,,,109,0,109,0,,,,,,,,,,,,,,,,,,,,,,1157.8099184000166,None,,,,,,,,,,,,,,,,,empty,171,110,sing,new,null,1155.5470567000157,None,1155.5470567000157,None,1,1.405900899990229,1155.5470567000157,None,1.405900899990229,1156.9747113000194,None,1157.4938636000152,None,1157.4938636000152,None,n,0.29121789999771863,1157.4938636000152,None,0.29121789999771863,,,136Sing,001,2023_Oct_26_0905,ProdSingRedoBetween,2021.2.3,59.94017970221199,
,,,,110,0,110,0,,,,,,,,,,,,,,,,,,,,,,1162.5800231000176,None,,,,,,,,,,,,,,,,,error,82,111,sing,old,red,1158.336427000002,None,1158.336427000002,None,6,2.376572599983774,1158.336427000002,None,2.376572599983774,1160.7438763000246,None,1161.2687683000113,None,1161.2687683000113,None,f,1.284307699999772,1161.2687683000113,None,1.284307699999772,,,136Sing,001,2023_Oct_26_0905,ProdSingRedoBetween,2021.2.3,59.94017970221199,
,,,,111,0,111,0,,,,,,,,,,,,,,,,,,,,,,1167.2318042000115,None,,,,,,,,,,,,,,,,,period,21,112,sing,old,yellow,1163.100740200025,None,1163.100740200025,None,1,2.4841998999763746,1163.100740200025,None,2.4841998999763746,1165.6143540000194,None,1166.1183123000083,None,1166.1183123000083,None,n,1.0905462999944575,1166.1183123000083,None,1.0905462999944575,,,136Sing,001,2023_Oct_26_0905,ProdSingRedoBetween,2021.2.3,59.94017970221199,
,,,,112,0,112,0,,,,,,,,,,,,,,,,,,,,,,1170.6352203000279,None,,,,,,,,,,,,,,,,,substance,128,113,sing,new,null,1167.7427436000144,None,1167.7427436000144,None,1,2.0024093999818433,1167.7427436000144,None,2.0024093999818433,1169.7790167000203,None,1170.2907650000125,None,1170.2907650000125,None,n,0.31824159997631796,1170.2907650000125,None,0.31824159997631796,,,136Sing,001,2023_Oct_26_0905,ProdSingRedoBetween,2021.2.3,59.94017970221199,
,,,,113,0,113,0,,,,,,,,,,,,,,,,,,,,,,1174.6251245000167,None,,,,,,,,,,,,,,,,,track,16,114,sing,old,yellow,1171.1452627000108,None,1171.1452627000108,None,6,2.2558534999843687,1171.1452627000108,None,2.2558534999843687,1173.4292412000068,None,1173.9387946000206,None,1173.9387946000206,None,n,0.6622418999904767,1173.9387946000206,None,0.6622418999904767,,,136Sing,001,2023_Oct_26_0905,ProdSingRedoBetween,2021.2.3,59.94017970221199,
,,,,114,0,114,0,,,,,,,,,,,,,,,,,,,,,,1178.0760758000251,None,,,,,,,,,,,,,,,,,course,164,115,sing,new,null,1175.148632700002,None,1175.148632700002,None,4,1.9324591000040527,1175.148632700002,None,1.9324591000040527,1177.1172470000165,None,1177.6275881000038,None,1177.6275881000038,None,n,0.42137220001313835,1177.6275881000038,None,0.42137220001313835,,,136Sing,001,2023_Oct_26_0905,ProdSingRedoBetween,2021.2.3,59.94017970221199,
,,,,115,0,115,0,,,,,,,,,,,,,,,,,,,,,,1182.880833400006,None,,,,,,,,,,,,,,,,,opening,75,116,sing,old,red,1178.5891751000017,None,1178.5891751000017,None,2,3.4517868000257295,1178.5891751000017,None,3.4517868000257295,1182.064595600008,None,1182.568192900013,None,1182.568192900013,None,n,0.2887367999937851,1182.568192900013,None,0.2887367999937851,,,136Sing,001,2023_Oct_26_0905,ProdSingRedoBetween,2021.2.3,59.94017970221199,
,,,,116,0,116,0,,,,,,,,,,,,,,,,,,,,,,1185.6336039000016,None,,,,,,,,,,,,,,,,,engineer,153,117,sing,new,null,1183.3904860000184,None,1183.3904860000184,None,1,1.370629100012593,1183.3904860000184,None,1.370629100012593,1184.7887573000044,None,1185.3013733000262,None,1185.3013733000262,None,n,0.30755889997817576,1185.3013733000262,None,0.30755889997817576,,,136Sing,001,2023_Oct_26_0905,ProdSingRedoBetween,2021.2.3,59.94017970221199,
,,,,117,0,117,0,,,,,,,,,,,,,,,,,,,,,,1189.5375087000139,None,,,,,,,,,,,,,,,,,cousin,174,118,sing,new,null,1186.1445985000173,None,1186.1445985000173,None,1,2.5284223000053316,1186.1445985000173,None,2.5284223000053316,1188.7079414000036,None,1189.2262406000227,None,1189.2262406000227,None,n,0.29471509999712,1189.2262406000227,None,0.29471509999712,,,136Sing,001,2023_Oct_26_0905,ProdSingRedoBetween,2021.2.3,59.94017970221199,
,,,,118,0,118,0,,,,,,,,,,,,,,,,,,,,,,1194.1921591999999,None,,,,,,,,,,,,,,,,,distance,71,119,sing,old,red,1190.0461888000136,None,1190.0461888000136,None,4,3.1149079000169877,1190.0461888000136,None,3.1149079000169877,1193.1955047000083,None,1193.7124295000103,None,1193.7124295000103,None,n,0.4486818999866955,1193.7124295000103,None,0.4486818999866955,,,136Sing,001,2023_Oct_26_0905,ProdSingRedoBetween,2021.2.3,59.94017970221199,
,,,,119,0,119,0,,,,,,,,,,,,,,,,,,,,,,1197.1784459000046,None,,,,,,,,,,,,,,,,,crime,110,120,sing,new,null,1194.7018470000185,None,1194.7018470000185,None,1,1.6432314999983646,1194.7018470000185,None,1.6432314999983646,1196.3669257000147,None,1196.8828195000242,None,1196.8828195000242,None,n,0.27818580000894144,1196.8828195000242,None,0.27818580000894144,,,136Sing,001,2023_Oct_26_0905,ProdSingRedoBetween,2021.2.3,59.94017970221199,
,,,,120,0,120,0,,,,,,,,,,,,,,,,,,,,,,1200.431560500001,None,,,,,,,,,,,,,,,,,volume,170,121,sing,new,null,1197.6894010000105,None,1197.6894010000105,None,2,1.9436859000124969,1197.6894010000105,None,1.9436859000124969,1199.6709200000041,None,1200.1872466000204,None,1200.1872466000204,None,n,0.22176580000086688,1200.1872466000204,None,0.22176580000086688,,,136Sing,001,2023_Oct_26_0905,ProdSingRedoBetween,2021.2.3,59.94017970221199,
,,,,121,0,121,0,,,,,,,,,,,,,,,,,,,,,,1203.2846045000188,None,,,,,,,,,,,,,,,,,employment,50,122,sing,old,blue,1200.9412964000076,None,1200.9412964000076,None,1,1.467811399983475,1200.9412964000076,None,1.467811399983475,1202.4406717000238,None,1202.9542182000005,None,1202.9542182000005,None,n,0.3027577000029851,1202.9542182000005,None,0.3027577000029851,,,136Sing,001,2023_Oct_26_0905,ProdSingRedoBetween,2021.2.3,59.94017970221199,
,,,,122,0,122,0,,,,,,,,,,,,,,,,,,,,,,1207.5054526000167,None,,,,,,,,,,,,,,,,,count,142,123,sing,new,null,1203.800018000009,None,1203.800018000009,None,1,2.9049718000169378,1203.800018000009,None,2.9049718000169378,1206.7236166000075,None,1207.243082400004,None,1207.243082400004,None,n,0.23788790000253357,1207.243082400004,None,0.23788790000253357,,,136Sing,001,2023_Oct_26_0905,ProdSingRedoBetween,2021.2.3,59.94017970221199,
,,,,123,0,123,0,,,,,,,,,,,,,,,,,,,,,,1209.8745808000094,None,,,,,,,,,,,,,,,,,touch,35,124,sing,old,blue,1208.0154661000124,None,1208.0154661000124,None,1,1.0178566000249702,1208.0154661000124,None,1.0178566000249702,1209.0660896000045,None,1209.5762805000122,None,1209.5762805000122,None,n,0.27267169998958707,1209.5762805000122,None,0.27267169998958707,,,136Sing,001,2023_Oct_26_0905,ProdSingRedoBetween,2021.2.3,59.94017970221199,
,,,,124,0,124,0,,,,,,,,,,,,,,,,,,,,,,1212.1443104000064,None,,,,,,,,,,,,,,,,,capital,101,125,sing,new,null,1210.3867735000094,None,1210.3867735000094,None,1,0.9742713000159711,1210.3867735000094,None,0.9742713000159711,1211.3808017000265,None,1211.896482000011,None,1211.896482000011,None,n,0.21665290000964887,1211.896482000011,None,0.21665290000964887,,,136Sing,001,2023_Oct_26_0905,ProdSingRedoBetween,2021.2.3,59.94017970221199,
,,,,125,0,125,0,,,,,,,,,,,,,,,,,,,,,,1214.829197700019,None,,,,,,,,,,,,,,,,,trend,59,126,sing,old,yellow,1212.6470898000116,None,1212.6470898000116,None,1,1.4979355999967083,1212.6470898000116,None,1.4979355999967083,1214.1679853000096,None,1214.6807391000038,None,1214.6807391000038,None,n,0.12031060000299476,1214.6807391000038,None,0.12031060000299476,,,136Sing,001,2023_Oct_26_0905,ProdSingRedoBetween,2021.2.3,59.94017970221199,
,,,,126,0,126,0,,,,,,,,,,,,,,,,,,,,,,1220.570223800023,None,,,,,,,,,,,,,,,,,brief,42,127,sing,old,blue,1215.3309114000003,None,1215.3309114000003,None,4,3.5340643000090495,1215.3309114000003,None,3.5340643000090495,1218.8872600000177,None,1219.4110199999996,None,1219.4110199999996,None,n,1.1420807000249624,1219.4110199999996,None,1.1420807000249624,,,136Sing,001,2023_Oct_26_0905,ProdSingRedoBetween,2021.2.3,59.94017970221199,
,,,,127,0,127,0,,,,,,,,,,,,,,,,,,,,,,1223.5214988000225,None,,,,,,,,,,,,,,,,,scale,176,128,sing,new,null,1221.0899913000176,None,1221.0899913000176,None,1,1.655176800006302,1221.0899913000176,None,1.655176800006302,1222.7796865000273,None,1223.288007300027,None,1223.288007300027,None,n,0.2089918999990914,1223.288007300027,None,0.2089918999990914,,,136Sing,001,2023_Oct_26_0905,ProdSingRedoBetween,2021.2.3,59.94017970221199,
,,,,128,0,128,0,,,,,,,,,,,,,,,,,,,,,,1225.8237891000172,None,,,,,,,,,,,,,,,,,under,98,129,sing,new,null,1224.0323788000096,None,1224.0323788000096,None,1,0.8886747000215109,1224.0323788000096,None,0.8886747000215109,1224.9394123000093,None,1225.4430207000114,None,1225.4430207000114,None,n,0.35000809998018667,1225.4430207000114,None,0.35000809998018667,,,136Sing,001,2023_Oct_26_0905,ProdSingRedoBetween,2021.2.3,59.94017970221199,
,,,,129,0,129,0,,,,,,,,,,,,,,,,,,,,,,1227.9259159000067,None,,,,,,,,,,,,,,,,,point,37,130,sing,old,blue,1226.3340045000077,None,1226.3340045000077,None,1,0.9069531999994069,1226.3340045000077,None,0.9069531999994069,1227.259923900012,None,1227.7633045000257,None,1227.7633045000257,None,n,0.13371019999613054,1227.7633045000257,None,0.13371019999613054,,,136Sing,001,2023_Oct_26_0905,ProdSingRedoBetween,2021.2.3,59.94017970221199,
,,,,130,0,130,0,,,,,,,,,,,,,,,,,,,,,,1231.9669105000212,None,,,,,,,,,,,,,,,,,estate,0,131,sing,old,yellow,1228.4399560000165,None,1228.4399560000165,None,6,1.4330265000171494,1228.4399560000165,None,1.4330265000171494,1229.8958181000198,None,1230.4012744000065,None,1230.4012744000065,None,f,1.535921300004702,1230.4012744000065,None,1.535921300004702,,,136Sing,001,2023_Oct_26_0905,ProdSingRedoBetween,2021.2.3,59.94017970221199,
,,,,131,0,131,0,,,,,,,,,,,,,,,,,,,,,,1236.55190760002,None,,,,,,,,,,,,,,,,,school,69,132,sing,old,red,1232.494360600016,None,1232.494360600016,None,6,2.1628192999924067,1232.494360600016,None,2.1628192999924067,1234.6879260000132,None,1235.205411300005,None,1235.205411300005,None,f,1.3157883000094444,1235.205411300005,None,1.3157883000094444,,,136Sing,001,2023_Oct_26_0905,ProdSingRedoBetween,2021.2.3,59.94017970221199,
,,,,132,0,132,0,,,,,,,,,,,,,,,,,,,,,,1239.472107300011,None,,,,,,,,,,,,,,,,,institute,172,133,sing,new,null,1237.0617976000067,None,1237.0617976000067,None,1,1.0913388000044506,1237.0617976000067,None,1.0913388000044506,1238.1766145000001,None,1238.6868195999996,None,1238.6868195999996,None,n,0.7623520999914035,1238.6868195999996,None,0.7623520999914035,,,136Sing,001,2023_Oct_26_0905,ProdSingRedoBetween,2021.2.3,59.94017970221199,
,,,,133,0,133,0,,,,,,,,,,,,,,,,,,,,,,1244.0420500000182,None,,,,,,,,,,,,,,,,,fight,109,134,sing,new,null,1239.987438400014,None,1239.987438400014,None,1,3.237425200000871,1239.987438400014,None,3.237425200000871,1243.2424185000127,None,1243.7472976999998,None,1243.7472976999998,None,n,0.27776209998410195,1243.7472976999998,None,0.27776209998410195,,,136Sing,001,2023_Oct_26_0905,ProdSingRedoBetween,2021.2.3,59.94017970221199,
,,,,134,0,134,0,,,,,,,,,,,,,,,,,,,,,,1248.1294044000097,None,,,,,,,,,,,,,,,,,state,92,135,sing,new,null,1244.558366000012,None,1244.558366000012,None,1,2.794750200002454,1244.558366000012,None,2.794750200002454,1247.3859702000045,None,1247.8980568000115,None,1247.8980568000115,None,n,0.21504380000988021,1247.8980568000115,None,0.21504380000988021,,,136Sing,001,2023_Oct_26_0905,ProdSingRedoBetween,2021.2.3,59.94017970221199,
,,,,135,0,135,0,,,,,,,,,,,,,,,,,,,,,,1251.7676057000062,None,,,,,,,,,,,,,,,,,reading,41,136,sing,old,blue,1248.636838300008,None,1248.636838300008,None,2,2.316320200014161,1248.636838300008,None,2.316320200014161,1250.984116000007,None,1251.5089624000248,None,1251.5089624000248,None,n,0.22813820000737906,1251.5089624000248,None,0.22813820000737906,,,136Sing,001,2023_Oct_26_0905,ProdSingRedoBetween,2021.2.3,59.94017970221199,
,,,,136,0,136,0,,,,,,,,,,,,,,,,,,,,,,1255.408668900025,None,,,,,,,,,,,,,,,,,contract,134,137,sing,new,null,1252.271368000016,None,1252.271368000016,None,1,2.2977537999977358,1252.271368000016,None,2.2977537999977358,1254.5859212000214,None,1255.09071270001,None,1255.09071270001,None,n,0.2944343000126537,1255.09071270001,None,0.2944343000126537,,,136Sing,001,2023_Oct_26_0905,ProdSingRedoBetween,2021.2.3,59.94017970221199,
,,,,137,0,137,0,,,,,,,,,,,,,,,,,,,,,,1259.4407303000044,None,,,,,,,,,,,,,,,,,fashion,100,138,sing,new,null,1255.9295041000005,None,1255.9295041000005,None,1,2.7995642000169028,1255.9295041000005,None,2.7995642000169028,1258.7643629000231,None,1259.2765931000176,None,1259.2765931000176,None,n,0.14852950000204146,1259.2765931000176,None,0.14852950000204146,,,136Sing,001,2023_Oct_26_0905,ProdSingRedoBetween,2021.2.3,59.94017970221199,
,,,,138,0,138,0,,,,,,,,,,,,,,,,,,,,,,1262.0305227000208,None,,,,,,,,,,,,,,,,,quarter,179,139,sing,new,null,1259.9503492000222,None,1259.9503492000222,None,2,1.194731800002046,1259.9503492000222,None,1.194731800002046,1261.1803844000096,None,1261.6964270000171,None,1261.6964270000171,None,n,0.31272730001364835,1261.6964270000171,None,0.31272730001364835,,,136Sing,001,2023_Oct_26_0905,ProdSingRedoBetween,2021.2.3,59.94017970221199,
,,,,139,0,139,0,,,,,,,,,,,,,,,,,,,,,,1266.1475050000008,None,,,,,,,,,,,,,,,,,department,63,140,sing,old,red,1262.5568907000124,None,1262.5568907000124,None,3,2.9164641000097618,1262.5568907000124,None,2.9164641000097618,1265.5046002000163,None,1266.0142891000141,None,1266.0142891000141,None,n,0.1148500999843236,1266.0142891000141,None,0.1148500999843236,,,136Sing,001,2023_Oct_26_0905,ProdSingRedoBetween,2021.2.3,59.94017970221199,
,,,,140,0,140,0,,,,,,,,,,,,,,,,,,,,,,1269.1669986000052,None,,,,,,,,,,,,,,,,,answer,40,141,sing,old,blue,1266.6631103000254,None,1266.6631103000254,None,1,1.7058634999848437,1266.6631103000254,None,1.7058634999848437,1268.4028336000047,None,1268.9171127000009,None,1268.9171127000009,None,n,0.2200033999979496,1268.9171127000009,None,0.2200033999979496,,,136Sing,001,2023_Oct_26_0905,ProdSingRedoBetween,2021.2.3,59.94017970221199,
,,,,141,0,141,0,,,,,,,,,,,,,,,,,,,,,,1273.3546854000015,None,,,,,,,,,,,,,,,,,gesture,107,142,sing,new,null,1269.684096700017,None,1269.684096700017,None,1,1.7730659999942873,1269.684096700017,None,1.7730659999942873,1271.4906521000084,None,1272.003577400028,None,1272.003577400028,None,n,1.3255828999972437,1272.003577400028,None,1.3255828999972437,,,136Sing,001,2023_Oct_26_0905,ProdSingRedoBetween,2021.2.3,59.94017970221199,
,,,,142,0,142,0,,,,,,,,,,,,,,,,,,,,,,1276.9082160000107,None,,,,,,,,,,,,,,,,,society,129,143,sing,new,null,1273.8683538000041,None,1273.8683538000041,None,1,2.188735400006408,1273.8683538000041,None,2.188735400006408,1276.0801024000102,None,1276.5958474000217,None,1276.5958474000217,None,n,0.2851618999848142,1276.5958474000217,None,0.2851618999848142,,,136Sing,001,2023_Oct_26_0905,ProdSingRedoBetween,2021.2.3,59.94017970221199,
,,,,143,0,143,0,,,,,,,,,,,,,,,,,,,,,,1280.39619520001,None,,,,,,,,,,,,,,,,,leader,39,144,sing,old,blue,1277.4183837000164,None,1277.4183837000164,None,3,2.0467429000127595,1277.4183837000164,None,2.0467429000127595,1279.4970982000232,None,1280.014843700017,None,1280.014843700017,None,n,0.354303300002357,1280.014843700017,None,0.354303300002357,,,136Sing,001,2023_Oct_26_0905,ProdSingRedoBetween,2021.2.3,59.94017970221199,
,,,,144,0,144,0,,,,,,,,,,,,,,,,,,,,,,1284.218649700022,None,,,,,,,,,,,,,,,,,match,147,145,sing,new,null,1280.8986361999996,None,1280.8986361999996,None,5,1.7825626999838278,1280.8986361999996,None,1.7825626999838278,1282.7059546000091,None,1283.2177158000122,None,1283.2177158000122,None,n,0.9755373999942094,1283.2177158000122,None,0.9755373999942094,,,136Sing,001,2023_Oct_26_0905,ProdSingRedoBetween,2021.2.3,59.94017970221199,
,,,,145,0,145,0,,,,,,,,,,,,,,,,,,,,,,1287.4021035000042,None,,,,,,,,,,,,,,,,,cross,55,146,sing,old,blue,1284.7401547000045,None,1284.7401547000045,None,3,1.844869300024584,1284.7401547000045,None,1.844869300024584,1286.6025860000227,None,1287.1069120000175,None,1287.1069120000175,None,n,0.27019119999022223,1287.1069120000175,None,0.27019119999022223,,,136Sing,001,2023_Oct_26_0905,ProdSingRedoBetween,2021.2.3,59.94017970221199,
,,,,146,0,146,0,,,,,,,,,,,,,,,,,,,,,,1292.19011950001,None,,,,,,,,,,,,,,,,,minute,94,147,sing,new,null,1287.913059500017,None,1287.913059500017,None,1,3.4562160999921616,1287.913059500017,None,3.4562160999921616,1291.3991520000272,None,1291.9165311000252,None,1291.9165311000252,None,n,0.2446271000080742,1291.9165311000252,None,0.2446271000080742,,,136Sing,001,2023_Oct_26_0905,ProdSingRedoBetween,2021.2.3,59.94017970221199,
,,,,147,0,147,0,,,,,,,,,,,,,,,,,,,,,,1296.1989472999994,None,,,,,,,,,,,,,,,,,present,130,148,sing,new,null,1292.6947892000026,None,1292.6947892000026,None,5,2.2025165000231937,1292.6947892000026,None,2.2025165000231937,1294.9318775000283,None,1295.4491720000224,None,1295.4491720000224,None,n,0.7201159999822266,1295.4491720000224,None,0.7201159999822266,,,136Sing,001,2023_Oct_26_0905,ProdSingRedoBetween,2021.2.3,59.94017970221199,
,,,,148,0,148,0,,,,,,,,,,,,,,,,,,,,,,1299.0470776000002,None,,,,,,,,,,,,,,,,,narrow,74,149,sing,old,red,1296.712457000016,None,1296.712457000016,None,1,1.6727073999936692,1296.712457000016,None,1.6727073999936692,1298.4176919000165,None,1298.930459300027,None,1298.930459300027,None,n,0.0947654000192415,1298.930459300027,None,0.0947654000192415,,,136Sing,001,2023_Oct_26_0905,ProdSingRedoBetween,2021.2.3,59.94017970221199,
,,,,149,0,149,0,,,,,,,,,,,,,,,,,,,,,,1303.6683675000095,None,,,,,,,,,,,,,,,,,escape,20,150,sing,old,yellow,1299.5644986000261,None,1299.5644986000261,None,6,2.428505599993514,1299.5644986000261,None,2.428505599993514,1302.0180471000203,None,1302.5233757000242,None,1302.5233757000242,None,f,1.125830400007544,1302.5233757000242,None,1.125830400007544,,,136Sing,001,2023_Oct_26_0905,ProdSingRedoBetween,2021.2.3,59.94017970221199,
,,,,150,0,150,0,,,,,,,,,,,,,,,,,,,,,,1307.6722848000063,None,,,,,,,,,,,,,,,,,burden,79,151,sing,old,red,1304.1804682000075,None,1304.1804682000075,None,2,2.3326668000081554,1304.1804682000075,None,2.3326668000081554,1306.5403865000117,None,1307.057061600004,None,1307.057061600004,None,n,0.5921304000075907,1307.057061600004,None,0.5921304000075907,,,136Sing,001,2023_Oct_26_0905,ProdSingRedoBetween,2021.2.3,59.94017970221199,
,,,,151,0,151,0,,,,,,,,,,,,,,,,,,,,,,1313.478113900026,None,,,,,,,,,,,,,,,,,production,2,152,sing,old,yellow,1308.1831189000222,None,1308.1831189000222,None,6,3.5621568000060506,1308.1831189000222,None,3.5621568000060506,1311.7834200000216,None,1312.2976951000164,None,1312.2976951000164,None,f,1.1594347000063863,1312.2976951000164,None,1.1594347000063863,,,136Sing,001,2023_Oct_26_0905,ProdSingRedoBetween,2021.2.3,59.94017970221199,
,,,,152,0,152,0,,,,,,,,,,,,,,,,,,,,,,1317.0318925000029,None,,,,,,,,,,,,,,,,,master,93,153,sing,new,null,1313.9890508000099,None,1313.9890508000099,None,2,1.9160715999896638,1313.9890508000099,None,1.9160715999896638,1315.931771100004,None,1316.4371371000016,None,1316.4371371000016,None,n,0.5720497999864165,1316.4371371000016,None,0.5720497999864165,,,136Sing,001,2023_Oct_26_0905,ProdSingRedoBetween,2021.2.3,59.94017970221199,
,,,,153,0,153,0,,,,,,,,,,,,,,,,,,,,,,1320.1348147000244,None,,,,,,,,,,,,,,,,,degree,43,154,sing,old,blue,1317.540725000028,None,1317.540725000028,None,1,1.6603443000058178,1317.540725000028,None,1.6603443000058178,1319.217018700001,None,1319.7240368000057,None,1319.7240368000057,None,n,0.3810620000003837,1319.7240368000057,None,0.3810620000003837,,,136Sing,001,2023_Oct_26_0905,ProdSingRedoBetween,2021.2.3,59.94017970221199,
,,,,154,0,154,0,,,,,,,,,,,,,,,,,,,,,,1326.2590278999996,None,,,,,,,,,,,,,,,,,court,47,155,sing,old,blue,1320.6440492000256,None,1320.6440492000256,None,5,3.8529956999991555,1320.6440492000256,None,3.8529956999991555,1324.5249675000086,None,1325.0457358000276,None,1325.0457358000276,None,n,1.1955908000236377,1325.0457358000276,None,1.1955908000236377,,,136Sing,001,2023_Oct_26_0905,ProdSingRedoBetween,2021.2.3,59.94017970221199,
,,,,155,0,155,0,,,,,,,,,,,,,,,,,,,,,,1329.9794573000108,None,,,,,,,,,,,,,,,,,career,7,156,sing,old,yellow,1326.7621520000102,None,1326.7621520000102,None,6,1.8710691000160296,1326.7621520000102,None,1.8710691000160296,1328.6653422000236,None,1329.1773344000103,None,1329.1773344000103,None,f,0.7758031999983359,1329.1773344000103,None,0.7758031999983359,,,136Sing,001,2023_Oct_26_0905,ProdSingRedoBetween,2021.2.3,59.94017970221199,
,,,,156,0,156,0,,,,,,,,,,,,,,,,,,,,,,1332.9809265000222,None,,,,,,,,,,,,,,,,,skill,111,157,sing,new,null,1330.4837959000142,None,1330.4837959000142,None,1,1.501427600014722,1330.4837959000142,None,1.501427600014722,1332.019479700015,None,1332.5369378000032,None,1332.5369378000032,None,n,0.424189799989108,1332.5369378000032,None,0.424189799989108,,,136Sing,001,2023_Oct_26_0905,ProdSingRedoBetween,2021.2.3,59.94017970221199,
,,,,157,0,157,0,,,,,,,,,,,,,,,,,,,,,,1336.3429128999996,None,,,,,,,,,,,,,,,,,tragedy,99,158,sing,new,null,1333.4935887000174,None,1333.4935887000174,None,1,1.7795364999910817,1333.4935887000174,None,1.7795364999910817,1335.2998512000195,None,1335.8007633000088,None,1335.8007633000088,None,n,0.504470499989111,1335.8007633000088,None,0.504470499989111,,,136Sing,001,2023_Oct_26_0905,ProdSingRedoBetween,2021.2.3,59.94017970221199,
,,,,158,0,158,0,,,,,,,,,,,,,,,,,,,,,,1340.5719100000279,None,,,,,,,,,,,,,,,,,judge,11,159,sing,old,yellow,1336.8539512999996,None,1336.8539512999996,None,6,1.731297699996503,1336.8539512999996,None,1.731297699996503,1338.6112790000043,None,1339.1224334000144,None,1339.1224334000144,None,f,1.4307910999923479,1339.1224334000144,None,1.4307910999923479,,,136Sing,001,2023_Oct_26_0905,ProdSingRedoBetween,2021.2.3,59.94017970221199,
,,,,159,0,159,0,,,,,,,,,,,,,,,,,,,,,,1343.4429918000242,None,,,,,,,,,,,,,,,,,frank,154,160,sing,new,null,1341.0838671000092,None,1341.0838671000092,None,1,1.5493921999877784,1341.0838671000092,None,1.5493921999877784,1342.6641868000152,None,1343.184617800027,None,1343.184617800027,None,n,0.24068919999990612,1343.184617800027,None,0.24068919999990612,,,136Sing,001,2023_Oct_26_0905,ProdSingRedoBetween,2021.2.3,59.94017970221199,
,,,,160,0,160,0,,,,,,,,,,,,,,,,,,,,,,1347.6457116000238,None,,,,,,,,,,,,,,,,,division,145,161,sing,new,null,1343.964882900007,None,1343.964882900007,None,1,2.6522971999947913,1343.964882900007,None,2.6522971999947913,1346.6495991000265,None,1347.1653523000132,None,1347.1653523000132,None,n,0.4519039999868255,1347.1653523000132,None,0.4519039999868255,,,136Sing,001,2023_Oct_26_0905,ProdSingRedoBetween,2021.2.3,59.94017970221199,
,,,,161,0,161,0,,,,,,,,,,,,,,,,,,,,,,1352.834132100019,None,,,,,,,,,,,,,,,,,harmony,34,162,sing,old,blue,1348.15838540002,None,1348.15838540002,None,4,3.723144299990963,1348.15838540002,None,3.723144299990963,1351.9126895000227,None,1352.4219485000067,None,1352.4219485000067,None,n,0.3872066000185441,1352.4219485000067,None,0.3872066000185441,,,136Sing,001,2023_Oct_26_0905,ProdSingRedoBetween,2021.2.3,59.94017970221199,
,,,,162,0,162,0,,,,,,,,,,,,,,,,,,,,,,1356.0874411000113,None,,,,,,,,,,,,,,,,,marriage,44,163,sing,old,blue,1353.3407549000112,None,1353.3407549000112,None,6,1.4764990000112448,1353.3407549000112,None,1.4764990000112448,1354.836187900015,None,1355.3403806000133,None,1355.3403806000133,None,f,0.7250074000039604,1355.3403806000133,None,0.7250074000039604,,,136Sing,001,2023_Oct_26_0905,ProdSingRedoBetween,2021.2.3,59.94017970221199,
,,,,163,0,163,0,,,,,,,,,,,,,,,,,,,,,,1359.3794002000068,None,,,,,,,,,,,,,,,,,smooth,140,164,sing,new,null,1356.6026287999994,None,1356.6026287999994,None,2,1.7585821000102442,1356.6026287999994,None,1.7585821000102442,1358.394340000028,None,1358.9106152000022,None,1358.9106152000022,None,n,0.4427313999913167,1358.9106152000022,None,0.4427313999913167,,,136Sing,001,2023_Oct_26_0905,ProdSingRedoBetween,2021.2.3,59.94017970221199,
,,,,164,0,164,0,,,,,,,,,,,,,,,,,,,,,,1362.5959001000156,None,,,,,,,,,,,,,,,,,travel,104,165,sing,new,null,1359.9061412000156,None,1359.9061412000156,None,1,1.951310199976433,1359.9061412000156,None,1.951310199976433,1361.8864572000166,None,1362.3998179000046,None,1362.3998179000046,None,n,0.16944960001274012,1362.3998179000046,None,0.16944960001274012,,,136Sing,001,2023_Oct_26_0905,ProdSingRedoBetween,2021.2.3,59.94017970221199,
,,,,165,0,165,0,,,,,,,,,,,,,,,,,,,,,,1370.718746700004,None,,,,,,,,,,,,,,,,,trial,32,166,sing,old,blue,1363.114447800006,None,1363.114447800006,None,3,6.406961100001354,1363.114447800006,None,6.406961100001354,1369.559040800028,None,1370.0698180000181,None,1370.0698180000181,None,n,0.619393000000855,1370.0698180000181,None,0.619393000000855,,,136Sing,001,2023_Oct_26_0905,ProdSingRedoBetween,2021.2.3,59.94017970221199,
,,,,166,0,166,0,,,,,,,,,,,,,,,,,,,,,,1375.7739304999996,None,,,,,,,,,,,,,,,,,company,31,167,sing,old,blue,1371.2328596000152,None,1371.2328596000152,None,2,3.736359700007597,1371.2328596000152,None,3.736359700007597,1374.994456800021,None,1375.507051100023,None,1375.507051100023,None,n,0.23821559999487363,1375.507051100023,None,0.23821559999487363,,,136Sing,001,2023_Oct_26_0905,ProdSingRedoBetween,2021.2.3,59.94017970221199,
,,,,167,0,167,0,,,,,,,,,,,,,,,,,,,,,,1379.1771332000208,None,,,,,,,,,,,,,,,,,stand,66,168,sing,old,red,1376.2872885000252,None,1376.2872885000252,None,5,1.7860410000139382,1376.2872885000252,None,1.7860410000139382,1378.0963406000228,None,1378.61009620002,None,1378.61009620002,None,n,0.5511621000187006,1378.61009620002,None,0.5511621000187006,,,136Sing,001,2023_Oct_26_0905,ProdSingRedoBetween,2021.2.3,59.94017970221199,
,,,,168,0,168,0,,,,,,,,,,,,,,,,,,,,,,1381.929906800011,None,,,,,,,,,,,,,,,,,committee,167,169,sing,new,null,1379.6932606000046,None,1379.6932606000046,None,1,1.451960800011875,1379.6932606000046,None,1.451960800011875,1381.1672669000109,None,1381.683490800002,None,1381.683490800002,None,n,0.22971139999572188,1381.683490800002,None,0.22971139999572188,,,136Sing,001,2023_Oct_26_0905,ProdSingRedoBetween,2021.2.3,59.94017970221199,
,,,,169,0,169,0,,,,,,,,,,,,,,,,,,,,,,1389.554506000015,None,,,,,,,,,,,,,,,,,property,113,170,sing,new,null,1382.4404653000238,None,1382.4404653000238,None,3,6.3768971000099555,1382.4404653000238,None,6.3768971000099555,1388.8426859000174,None,1389.3541654,None,1389.3541654,None,n,0.18307920001097955,1389.3541654,None,0.18307920001097955,,,136Sing,001,2023_Oct_26_0905,ProdSingRedoBetween,2021.2.3,59.94017970221199,
,,,,170,0,170,0,,,,,,,,,,,,,,,,,,,,,,1393.2245989000075,None,,,,,,,,,,,,,,,,,bright,169,171,sing,new,null,1390.0642391000001,None,1390.0642391000001,None,2,2.2331331000023056,1390.0642391000001,None,2.2331331000023056,1392.331815100013,None,1392.8461194000265,None,1392.8461194000265,None,n,0.34725089999847114,1392.8461194000265,None,0.34725089999847114,,,136Sing,001,2023_Oct_26_0905,ProdSingRedoBetween,2021.2.3,59.94017970221199,
,,,,171,0,171,0,,,,,,,,,,,,,,,,,,,,,,1396.6294023000228,None,,,,,,,,,,,,,,,,,service,17,172,sing,old,yellow,1393.745149800001,None,1393.745149800001,None,2,2.1921115000150166,1393.745149800001,None,2.1921115000150166,1395.966550800018,None,1396.481059600017,None,1396.481059600017,None,n,0.12027079999097623,1396.481059600017,None,0.12027079999097623,,,136Sing,001,2023_Oct_26_0905,ProdSingRedoBetween,2021.2.3,59.94017970221199,
,,,,172,0,172,0,,,,,,,,,,,,,,,,,,,,,,1399.6809839000052,None,,,,,,,,,,,,,,,,,turkey,10,173,sing,old,yellow,1397.1356176000263,None,1397.1356176000263,None,1,1.8097075000114273,1397.1356176000263,None,1.8097075000114273,1398.970685200009,None,1399.4841583000089,None,1399.4841583000089,None,n,0.173057100008009,1399.4841583000089,None,0.173057100008009,,,136Sing,001,2023_Oct_26_0905,ProdSingRedoBetween,2021.2.3,59.94017970221199,
,,,,173,0,173,0,,,,,,,,,,,,,,,,,,,,,,1402.2001899000024,None,,,,,,,,,,,,,,,,,growth,137,174,sing,new,null,1400.1942826000159,None,1400.1942826000159,None,1,1.4071259999764152,1400.1942826000159,None,1.4071259999764152,1401.6291308000218,None,1402.136776600004,None,1402.136776600004,None,n,0.048452000017277896,1402.136776600004,None,0.048452000017277896,,,136Sing,001,2023_Oct_26_0905,ProdSingRedoBetween,2021.2.3,59.94017970221199,
,,,,174,0,174,0,,,,,,,,,,,,,,,,,,,,,,1407.6390412000183,None,,,,,,,,,,,,,,,,,corner,64,175,sing,old,red,1402.7125651000242,None,1402.7125651000242,None,4,4.112694299983559,1402.7125651000242,None,4.112694299983559,1406.85683590002,None,1407.376493800024,None,1407.376493800024,None,n,0.24084789998596534,1407.376493800024,None,0.24084789998596534,,,136Sing,001,2023_Oct_26_0905,ProdSingRedoBetween,2021.2.3,59.94017970221199,
,,,,175,0,175,0,,,,,,,,,,,,,,,,,,,,,,1411.8123298000137,None,,,,,,,,,,,,,,,,,produce,9,176,sing,old,yellow,1408.1495077,None,1408.1495077,None,2,2.8998888000205625,1408.1495077,None,2.8998888000205625,1411.0855157000187,None,1411.5994793000282,None,1411.5994793000282,None,n,0.19390660000499338,1411.5994793000282,None,0.19390660000499338,,,136Sing,001,2023_Oct_26_0905,ProdSingRedoBetween,2021.2.3,59.94017970221199,
,,,,176,0,176,0,,,,,,,,,,,,,,,,,,,,,,1415.3979380000092,None,,,,,,,,,,,,,,,,,industry,95,177,sing,new,null,1412.332855500019,None,1412.332855500019,None,1,2.252613000018755,1412.332855500019,None,2.252613000018755,1414.622027000005,None,1415.1372562000179,None,1415.1372562000179,None,n,0.23208630000590347,1415.1372562000179,None,0.23208630000590347,,,136Sing,001,2023_Oct_26_0905,ProdSingRedoBetween,2021.2.3,59.94017970221199,
,,,,177,0,177,0,,,,,,,,,,,,,,,,,,,,,,1417.5865328000218,None,,,,,,,,,,,,,,,,,oxygen,29,178,sing,old,blue,1415.9030886000255,None,1415.9030886000255,None,1,0.9061546000011731,1415.9030886000255,None,0.9061546000011731,1416.8329204000183,None,1417.3373363000283,None,1417.3373363000283,None,n,0.22417529998347163,1417.3373363000283,None,0.22417529998347163,,,136Sing,001,2023_Oct_26_0905,ProdSingRedoBetween,2021.2.3,59.94017970221199,
