StudyLoop.thisRepN,StudyLoop.thisTrialN,StudyLoop.thisN,StudyLoop.thisIndex,TestLoop.thisRepN,TestLoop.thisTrialN,TestLoop.thisN,TestLoop.thisIndex,textCondition.started,textCondition.stopped,keyCondition.keys,keyCondition.rt,keyCondition.started,keyCondition.stopped,Condition,textWelcome.started,textWelcome.stopped,keyWelcome.keys,keyWelcome.rt,keyWelcome.started,keyWelcome.stopped,textAloud.started,textAloud.stopped,textSilent.started,textSilent.stopped,textSing.started,textSing.stopped,conditional_text.started,conditional_text.stopped,textBlank500.started,textBlank500.stopped,study_word,study_num,study_order,study_type,word_color,textStudy.started,textStudy.stopped,keyStudy.keys,keyStudy.started,keyStudy.stopped,textTestInstructions.started,textTestInstructions.stopped,key_resp_3.keys,key_resp_3.rt,key_resp_3.started,key_resp_3.stopped,test_word,test_num,test_order,test_condition,old_new_test,test_word_original_color,textConf.started,textConf.stopped,textConfScale.started,textConfScale.stopped,keyConf.keys,keyConf.rt,keyConf.started,keyConf.stopped,confidence response time,textTestBlank.started,textTestBlank.stopped,textRKN.started,textRKN.stopped,textRKNScale.started,textRKNScale.stopped,keyRKN.keys,keyRKN.rt,keyRKN.started,keyRKN.stopped,rkn response time,textEnd.started,textEnd.stopped,participant,session,date,expName,psychopyVersion,frameRate,
,,,,,,,,43.30965039998409,None,c,1.7618097999948077,43.30965039998409,None,,,,,,,,,,,,,,,,,,,,,,,,,,,,,,,,,,,,,,,,,,,,,,,,,,,,,,,,,,,,,,137Sing,001,2023_Oct_26_0939,ProdSingRedoBetween,2021.2.3,59.92423179642026,
,,,,,,,,,,,,,,SingTest,45.12531329999911,None,space,744.3628873999987,45.12531329999911,None,,,,,,,,,,,,,,,,,,,,,,,,,,,,,,,,,,,,,,,,,,,,,,,,,,,,,,,137Sing,001,2023_Oct_26_0939,ProdSingRedoBetween,2021.2.3,59.92423179642026,
0,0,0,0,,,,,,,,,,,,,,,,,,45.12531329999911,None,45.12531329999911,None,45.12531329999911,None,45.12531329999911,None,792.0243803999911,None,region,80,1,sing,red,790.01471269998,None,None,790.01471269998,None,,,,,,,,,,,,,,,,,,,,,,,,,,,,,,,,,,,137Sing,001,2023_Oct_26_0939,ProdSingRedoBetween,2021.2.3,59.92423179642026,
1,0,1,0,,,,,,,,,,,,,,,,,,,,,,,,,,794.5435430999787,None,country,30,2,sing,blue,792.534032399999,None,None,792.534032399999,None,,,,,,,,,,,,,,,,,,,,,,,,,,,,,,,,,,,137Sing,001,2023_Oct_26_0939,ProdSingRedoBetween,2021.2.3,59.92423179642026,
2,0,2,0,,,,,,,,,,,,,,,,,,,,,,,,,,797.0460396999842,None,company,69,3,sing,red,795.0463032999833,None,None,795.0463032999833,None,,,,,,,,,,,,,,,,,,,,,,,,,,,,,,,,,,,137Sing,001,2023_Oct_26_0939,ProdSingRedoBetween,2021.2.3,59.92423179642026,
3,0,3,0,,,,,,,,,,,,,,,,,,,,,,,,,,799.5652778999938,None,reach,89,4,sing,red,797.5521756999951,None,None,797.5521756999951,None,,,,,,,,,,,,,,,,,,,,,,,,,,,,,,,,,,,137Sing,001,2023_Oct_26_0939,ProdSingRedoBetween,2021.2.3,59.92423179642026,
4,0,4,0,,,,,,,,,,,,,,,,,,,,,,,,,,802.0676537999825,None,height,15,5,sing,yellow,800.0656879999733,None,None,800.0656879999733,None,,,,,,,,,,,,,,,,,,,,,,,,,,,,,,,,,,,137Sing,001,2023_Oct_26_0939,ProdSingRedoBetween,2021.2.3,59.92423179642026,
5,0,5,0,,,,,,,,,,,,,,,,,,,,,,,,,,804.570147099992,None,foundation,35,6,sing,blue,802.5694631999941,None,None,802.5694631999941,None,,,,,,,,,,,,,,,,,,,,,,,,,,,,,,,,,,,137Sing,001,2023_Oct_26_0939,ProdSingRedoBetween,2021.2.3,59.92423179642026,
6,0,6,0,,,,,,,,,,,,,,,,,,,,,,,,,,807.0726383999863,None,command,43,7,sing,blue,805.0714188999846,None,None,805.0714188999846,None,,,,,,,,,,,,,,,,,,,,,,,,,,,,,,,,,,,137Sing,001,2023_Oct_26_0939,ProdSingRedoBetween,2021.2.3,59.92423179642026,
7,0,7,0,,,,,,,,,,,,,,,,,,,,,,,,,,809.5751783999731,None,testimony,52,8,sing,blue,807.5748519999906,None,None,807.5748519999906,None,,,,,,,,,,,,,,,,,,,,,,,,,,,,,,,,,,,137Sing,001,2023_Oct_26_0939,ProdSingRedoBetween,2021.2.3,59.92423179642026,
8,0,8,0,,,,,,,,,,,,,,,,,,,,,,,,,,812.0944212999893,None,native,68,9,sing,red,810.0810736999847,None,None,810.0810736999847,None,,,,,,,,,,,,,,,,,,,,,,,,,,,,,,,,,,,137Sing,001,2023_Oct_26_0939,ProdSingRedoBetween,2021.2.3,59.92423179642026,
9,0,9,0,,,,,,,,,,,,,,,,,,,,,,,,,,814.596996599983,None,health,9,10,sing,yellow,812.597207999992,None,None,812.597207999992,None,,,,,,,,,,,,,,,,,,,,,,,,,,,,,,,,,,,137Sing,001,2023_Oct_26_0939,ProdSingRedoBetween,2021.2.3,59.92423179642026,
10,0,10,0,,,,,,,,,,,,,,,,,,,,,,,,,,817.1160985999741,None,place,19,11,sing,yellow,815.1059180999873,None,None,815.1059180999873,None,,,,,,,,,,,,,,,,,,,,,,,,,,,,,,,,,,,137Sing,001,2023_Oct_26_0939,ProdSingRedoBetween,2021.2.3,59.92423179642026,
11,0,11,0,,,,,,,,,,,,,,,,,,,,,,,,,,819.6186076999875,None,escape,16,12,sing,yellow,817.6164254999894,None,None,817.6164254999894,None,,,,,,,,,,,,,,,,,,,,,,,,,,,,,,,,,,,137Sing,001,2023_Oct_26_0939,ProdSingRedoBetween,2021.2.3,59.92423179642026,
12,0,12,0,,,,,,,,,,,,,,,,,,,,,,,,,,822.1210696999915,None,debate,72,13,sing,red,820.1208854999859,None,None,820.1208854999859,None,,,,,,,,,,,,,,,,,,,,,,,,,,,,,,,,,,,137Sing,001,2023_Oct_26_0939,ProdSingRedoBetween,2021.2.3,59.92423179642026,
13,0,13,0,,,,,,,,,,,,,,,,,,,,,,,,,,824.6236226999899,None,dispute,50,14,sing,blue,822.6237293999875,None,None,822.6237293999875,None,,,,,,,,,,,,,,,,,,,,,,,,,,,,,,,,,,,137Sing,001,2023_Oct_26_0939,ProdSingRedoBetween,2021.2.3,59.92423179642026,
14,0,14,0,,,,,,,,,,,,,,,,,,,,,,,,,,827.1428061999904,None,narrow,77,15,sing,red,825.129884199996,None,None,825.129884199996,None,,,,,,,,,,,,,,,,,,,,,,,,,,,,,,,,,,,137Sing,001,2023_Oct_26_0939,ProdSingRedoBetween,2021.2.3,59.92423179642026,
15,0,15,0,,,,,,,,,,,,,,,,,,,,,,,,,,829.6620281999931,None,comfort,0,16,sing,yellow,827.646917599981,None,None,827.646917599981,None,,,,,,,,,,,,,,,,,,,,,,,,,,,,,,,,,,,137Sing,001,2023_Oct_26_0939,ProdSingRedoBetween,2021.2.3,59.92423179642026,
16,0,16,0,,,,,,,,,,,,,,,,,,,,,,,,,,832.1644942999992,None,article,38,17,sing,blue,830.1649169999873,None,None,830.1649169999873,None,,,,,,,,,,,,,,,,,,,,,,,,,,,,,,,,,,,137Sing,001,2023_Oct_26_0939,ProdSingRedoBetween,2021.2.3,59.92423179642026,
17,0,17,0,,,,,,,,,,,,,,,,,,,,,,,,,,834.6836327999772,None,people,73,18,sing,red,832.673970999982,None,None,832.673970999982,None,,,,,,,,,,,,,,,,,,,,,,,,,,,,,,,,,,,137Sing,001,2023_Oct_26_0939,ProdSingRedoBetween,2021.2.3,59.92423179642026,
18,0,18,0,,,,,,,,,,,,,,,,,,,,,,,,,,837.1863326999883,None,report,23,19,sing,yellow,835.1851341000001,None,None,835.1851341000001,None,,,,,,,,,,,,,,,,,,,,,,,,,,,,,,,,,,,137Sing,001,2023_Oct_26_0939,ProdSingRedoBetween,2021.2.3,59.92423179642026,
19,0,19,0,,,,,,,,,,,,,,,,,,,,,,,,,,839.7054222999723,None,front,54,20,sing,blue,837.6954644999932,None,None,837.6954644999932,None,,,,,,,,,,,,,,,,,,,,,,,,,,,,,,,,,,,137Sing,001,2023_Oct_26_0939,ProdSingRedoBetween,2021.2.3,59.92423179642026,
20,0,20,0,,,,,,,,,,,,,,,,,,,,,,,,,,842.2245513999951,None,skill,78,21,sing,red,840.2090922999778,None,None,840.2090922999778,None,,,,,,,,,,,,,,,,,,,,,,,,,,,,,,,,,,,137Sing,001,2023_Oct_26_0939,ProdSingRedoBetween,2021.2.3,59.92423179642026,
21,0,21,0,,,,,,,,,,,,,,,,,,,,,,,,,,844.7271330999793,None,under,41,22,sing,blue,842.7272094999789,None,None,842.7272094999789,None,,,,,,,,,,,,,,,,,,,,,,,,,,,,,,,,,,,137Sing,001,2023_Oct_26_0939,ProdSingRedoBetween,2021.2.3,59.92423179642026,
22,0,22,0,,,,,,,,,,,,,,,,,,,,,,,,,,847.2462516999803,None,spoke,5,23,sing,yellow,845.2354967999854,None,None,845.2354967999854,None,,,,,,,,,,,,,,,,,,,,,,,,,,,,,,,,,,,137Sing,001,2023_Oct_26_0939,ProdSingRedoBetween,2021.2.3,59.92423179642026,
23,0,23,0,,,,,,,,,,,,,,,,,,,,,,,,,,849.7654683000001,None,provision,4,24,sing,yellow,847.7571809999936,None,None,847.7571809999936,None,,,,,,,,,,,,,,,,,,,,,,,,,,,,,,,,,,,137Sing,001,2023_Oct_26_0939,ProdSingRedoBetween,2021.2.3,59.92423179642026,
24,0,24,0,,,,,,,,,,,,,,,,,,,,,,,,,,852.284765999997,None,dream,86,25,sing,red,850.2699216999754,None,None,850.2699216999754,None,,,,,,,,,,,,,,,,,,,,,,,,,,,,,,,,,,,137Sing,001,2023_Oct_26_0939,ProdSingRedoBetween,2021.2.3,59.92423179642026,
25,0,25,0,,,,,,,,,,,,,,,,,,,,,,,,,,854.8038320999767,None,symbol,13,26,sing,yellow,852.7902690999908,None,None,852.7902690999908,None,,,,,,,,,,,,,,,,,,,,,,,,,,,,,,,,,,,137Sing,001,2023_Oct_26_0939,ProdSingRedoBetween,2021.2.3,59.92423179642026,
26,0,26,0,,,,,,,,,,,,,,,,,,,,,,,,,,857.3230265999737,None,research,36,27,sing,blue,855.3077829999966,None,None,855.3077829999966,None,,,,,,,,,,,,,,,,,,,,,,,,,,,,,,,,,,,137Sing,001,2023_Oct_26_0939,ProdSingRedoBetween,2021.2.3,59.92423179642026,
27,0,27,0,,,,,,,,,,,,,,,,,,,,,,,,,,859.8420862999919,None,trash,31,28,sing,blue,857.8299319999933,None,None,857.8299319999933,None,,,,,,,,,,,,,,,,,,,,,,,,,,,,,,,,,,,137Sing,001,2023_Oct_26_0939,ProdSingRedoBetween,2021.2.3,59.92423179642026,
28,0,28,0,,,,,,,,,,,,,,,,,,,,,,,,,,862.361270399997,None,payment,18,29,sing,yellow,860.3512114999758,None,None,860.3512114999758,None,,,,,,,,,,,,,,,,,,,,,,,,,,,,,,,,,,,137Sing,001,2023_Oct_26_0939,ProdSingRedoBetween,2021.2.3,59.92423179642026,
29,0,29,0,,,,,,,,,,,,,,,,,,,,,,,,,,864.8805923999753,None,theme,11,30,sing,yellow,862.8682589999808,None,None,862.8682589999808,None,,,,,,,,,,,,,,,,,,,,,,,,,,,,,,,,,,,137Sing,001,2023_Oct_26_0939,ProdSingRedoBetween,2021.2.3,59.92423179642026,
30,0,30,0,,,,,,,,,,,,,,,,,,,,,,,,,,867.383031299978,None,color,45,31,sing,blue,865.382071,None,None,865.382071,None,,,,,,,,,,,,,,,,,,,,,,,,,,,,,,,,,,,137Sing,001,2023_Oct_26_0939,ProdSingRedoBetween,2021.2.3,59.92423179642026,
31,0,31,0,,,,,,,,,,,,,,,,,,,,,,,,,,869.885529799998,None,sight,40,32,sing,blue,867.8854138999886,None,None,867.8854138999886,None,,,,,,,,,,,,,,,,,,,,,,,,,,,,,,,,,,,137Sing,001,2023_Oct_26_0939,ProdSingRedoBetween,2021.2.3,59.92423179642026,
32,0,32,0,,,,,,,,,,,,,,,,,,,,,,,,,,872.3880317999865,None,range,14,33,sing,yellow,870.3867774999817,None,None,870.3867774999817,None,,,,,,,,,,,,,,,,,,,,,,,,,,,,,,,,,,,137Sing,001,2023_Oct_26_0939,ProdSingRedoBetween,2021.2.3,59.92423179642026,
33,0,33,0,,,,,,,,,,,,,,,,,,,,,,,,,,874.8905915999785,None,sleep,7,34,sing,yellow,872.8902520999836,None,None,872.8902520999836,None,,,,,,,,,,,,,,,,,,,,,,,,,,,,,,,,,,,137Sing,001,2023_Oct_26_0939,ProdSingRedoBetween,2021.2.3,59.92423179642026,
34,0,34,0,,,,,,,,,,,,,,,,,,,,,,,,,,877.393094399973,None,interior,44,35,sing,blue,875.3938116999925,None,None,875.3938116999925,None,,,,,,,,,,,,,,,,,,,,,,,,,,,,,,,,,,,137Sing,001,2023_Oct_26_0939,ProdSingRedoBetween,2021.2.3,59.92423179642026,
35,0,35,0,,,,,,,,,,,,,,,,,,,,,,,,,,879.9122635999811,None,grade,81,36,sing,red,877.8968863999762,None,None,877.8968863999762,None,,,,,,,,,,,,,,,,,,,,,,,,,,,,,,,,,,,137Sing,001,2023_Oct_26_0939,ProdSingRedoBetween,2021.2.3,59.92423179642026,
36,0,36,0,,,,,,,,,,,,,,,,,,,,,,,,,,882.4314022999897,None,crowd,75,37,sing,red,880.4159472999745,None,None,880.4159472999745,None,,,,,,,,,,,,,,,,,,,,,,,,,,,,,,,,,,,137Sing,001,2023_Oct_26_0939,ProdSingRedoBetween,2021.2.3,59.92423179642026,
37,0,37,0,,,,,,,,,,,,,,,,,,,,,,,,,,884.9505706999917,None,dance,2,38,sing,yellow,882.9362124999752,None,None,882.9362124999752,None,,,,,,,,,,,,,,,,,,,,,,,,,,,,,,,,,,,137Sing,001,2023_Oct_26_0939,ProdSingRedoBetween,2021.2.3,59.92423179642026,
38,0,38,0,,,,,,,,,,,,,,,,,,,,,,,,,,887.4697327999747,None,plane,49,39,sing,blue,885.4580445999745,None,None,885.4580445999745,None,,,,,,,,,,,,,,,,,,,,,,,,,,,,,,,,,,,137Sing,001,2023_Oct_26_0939,ProdSingRedoBetween,2021.2.3,59.92423179642026,
39,0,39,0,,,,,,,,,,,,,,,,,,,,,,,,,,889.9722615999926,None,population,57,40,sing,blue,887.9710321999737,None,None,887.9710321999737,None,,,,,,,,,,,,,,,,,,,,,,,,,,,,,,,,,,,137Sing,001,2023_Oct_26_0939,ProdSingRedoBetween,2021.2.3,59.92423179642026,
40,0,40,0,,,,,,,,,,,,,,,,,,,,,,,,,,892.4747840999917,None,permit,84,41,sing,red,890.4737915999722,None,None,890.4737915999722,None,,,,,,,,,,,,,,,,,,,,,,,,,,,,,,,,,,,137Sing,001,2023_Oct_26_0939,ProdSingRedoBetween,2021.2.3,59.92423179642026,
41,0,41,0,,,,,,,,,,,,,,,,,,,,,,,,,,894.9773168999818,None,reading,24,42,sing,yellow,892.9759172999766,None,None,892.9759172999766,None,,,,,,,,,,,,,,,,,,,,,,,,,,,,,,,,,,,137Sing,001,2023_Oct_26_0939,ProdSingRedoBetween,2021.2.3,59.92423179642026,
42,0,42,0,,,,,,,,,,,,,,,,,,,,,,,,,,897.4795674999768,None,clean,17,43,sing,yellow,895.4785273999732,None,None,895.4785273999732,None,,,,,,,,,,,,,,,,,,,,,,,,,,,,,,,,,,,137Sing,001,2023_Oct_26_0939,ProdSingRedoBetween,2021.2.3,59.92423179642026,
43,0,43,0,,,,,,,,,,,,,,,,,,,,,,,,,,899.9823632999905,None,resistance,82,44,sing,red,897.9832742999715,None,None,897.9832742999715,None,,,,,,,,,,,,,,,,,,,,,,,,,,,,,,,,,,,137Sing,001,2023_Oct_26_0939,ProdSingRedoBetween,2021.2.3,59.92423179642026,
44,0,44,0,,,,,,,,,,,,,,,,,,,,,,,,,,902.5015193999861,None,marriage,67,45,sing,red,900.4868930999946,None,None,900.4868930999946,None,,,,,,,,,,,,,,,,,,,,,,,,,,,,,,,,,,,137Sing,001,2023_Oct_26_0939,ProdSingRedoBetween,2021.2.3,59.92423179642026,
45,0,45,0,,,,,,,,,,,,,,,,,,,,,,,,,,905.0206649999891,None,primary,8,46,sing,yellow,903.0054334999877,None,None,903.0054334999877,None,,,,,,,,,,,,,,,,,,,,,,,,,,,,,,,,,,,137Sing,001,2023_Oct_26_0939,ProdSingRedoBetween,2021.2.3,59.92423179642026,
46,0,46,0,,,,,,,,,,,,,,,,,,,,,,,,,,907.5399773999816,None,addition,64,47,sing,red,905.526386499987,None,None,905.526386499987,None,,,,,,,,,,,,,,,,,,,,,,,,,,,,,,,,,,,137Sing,001,2023_Oct_26_0939,ProdSingRedoBetween,2021.2.3,59.92423179642026,
47,0,47,0,,,,,,,,,,,,,,,,,,,,,,,,,,910.0590876999777,None,pancakes,70,48,sing,red,908.0497053999861,None,None,908.0497053999861,None,,,,,,,,,,,,,,,,,,,,,,,,,,,,,,,,,,,137Sing,001,2023_Oct_26_0939,ProdSingRedoBetween,2021.2.3,59.92423179642026,
48,0,48,0,,,,,,,,,,,,,,,,,,,,,,,,,,912.5615055999951,None,tragedy,37,49,sing,blue,910.5607712999918,None,None,910.5607712999918,None,,,,,,,,,,,,,,,,,,,,,,,,,,,,,,,,,,,137Sing,001,2023_Oct_26_0939,ProdSingRedoBetween,2021.2.3,59.92423179642026,
49,0,49,0,,,,,,,,,,,,,,,,,,,,,,,,,,915.0640633000003,None,thing,1,50,sing,yellow,913.0627961999853,None,None,913.0627961999853,None,,,,,,,,,,,,,,,,,,,,,,,,,,,,,,,,,,,137Sing,001,2023_Oct_26_0939,ProdSingRedoBetween,2021.2.3,59.92423179642026,
50,0,50,0,,,,,,,,,,,,,,,,,,,,,,,,,,917.5832120999985,None,breath,3,51,sing,yellow,915.572073599993,None,None,915.572073599993,None,,,,,,,,,,,,,,,,,,,,,,,,,,,,,,,,,,,137Sing,001,2023_Oct_26_0939,ProdSingRedoBetween,2021.2.3,59.92423179642026,
51,0,51,0,,,,,,,,,,,,,,,,,,,,,,,,,,920.102636399999,None,citizen,26,52,sing,yellow,918.0973804999958,None,None,918.0973804999958,None,,,,,,,,,,,,,,,,,,,,,,,,,,,,,,,,,,,137Sing,001,2023_Oct_26_0939,ProdSingRedoBetween,2021.2.3,59.92423179642026,
52,0,52,0,,,,,,,,,,,,,,,,,,,,,,,,,,922.6216055999976,None,exchange,61,53,sing,red,920.6143788999761,None,None,920.6143788999761,None,,,,,,,,,,,,,,,,,,,,,,,,,,,,,,,,,,,137Sing,001,2023_Oct_26_0939,ProdSingRedoBetween,2021.2.3,59.92423179642026,
53,0,53,0,,,,,,,,,,,,,,,,,,,,,,,,,,925.1409434999805,None,running,58,54,sing,blue,923.1289949999773,None,None,923.1289949999773,None,,,,,,,,,,,,,,,,,,,,,,,,,,,,,,,,,,,137Sing,001,2023_Oct_26_0939,ProdSingRedoBetween,2021.2.3,59.92423179642026,
54,0,54,0,,,,,,,,,,,,,,,,,,,,,,,,,,927.6442129999923,None,column,20,55,sing,yellow,925.6412592999986,None,None,925.6412592999986,None,,,,,,,,,,,,,,,,,,,,,,,,,,,,,,,,,,,137Sing,001,2023_Oct_26_0939,ProdSingRedoBetween,2021.2.3,59.92423179642026,
55,0,55,0,,,,,,,,,,,,,,,,,,,,,,,,,,930.1625055999903,None,store,60,56,sing,red,928.1509426999837,None,None,928.1509426999837,None,,,,,,,,,,,,,,,,,,,,,,,,,,,,,,,,,,,137Sing,001,2023_Oct_26_0939,ProdSingRedoBetween,2021.2.3,59.92423179642026,
56,0,56,0,,,,,,,,,,,,,,,,,,,,,,,,,,932.6816653999849,None,still,6,57,sing,yellow,930.668690999999,None,None,930.668690999999,None,,,,,,,,,,,,,,,,,,,,,,,,,,,,,,,,,,,137Sing,001,2023_Oct_26_0939,ProdSingRedoBetween,2021.2.3,59.92423179642026,
57,0,57,0,,,,,,,,,,,,,,,,,,,,,,,,,,935.1842260999838,None,platform,51,58,sing,blue,933.1829537999874,None,None,933.1829537999874,None,,,,,,,,,,,,,,,,,,,,,,,,,,,,,,,,,,,137Sing,001,2023_Oct_26_0939,ProdSingRedoBetween,2021.2.3,59.92423179642026,
58,0,58,0,,,,,,,,,,,,,,,,,,,,,,,,,,937.7033243999758,None,watch,62,59,sing,red,935.695023999986,None,None,935.695023999986,None,,,,,,,,,,,,,,,,,,,,,,,,,,,,,,,,,,,137Sing,001,2023_Oct_26_0939,ProdSingRedoBetween,2021.2.3,59.92423179642026,
59,0,59,0,,,,,,,,,,,,,,,,,,,,,,,,,,940.2058992999955,None,problem,76,60,sing,red,938.2049759999791,None,None,938.2049759999791,None,,,,,,,,,,,,,,,,,,,,,,,,,,,,,,,,,,,137Sing,001,2023_Oct_26_0939,ProdSingRedoBetween,2021.2.3,59.92423179642026,
60,0,60,0,,,,,,,,,,,,,,,,,,,,,,,,,,942.7083946999919,None,pattern,32,61,sing,blue,940.7089278999774,None,None,940.7089278999774,None,,,,,,,,,,,,,,,,,,,,,,,,,,,,,,,,,,,137Sing,001,2023_Oct_26_0939,ProdSingRedoBetween,2021.2.3,59.92423179642026,
61,0,61,0,,,,,,,,,,,,,,,,,,,,,,,,,,945.2109641999996,None,force,87,62,sing,red,943.2116910999757,None,None,943.2116910999757,None,,,,,,,,,,,,,,,,,,,,,,,,,,,,,,,,,,,137Sing,001,2023_Oct_26_0939,ProdSingRedoBetween,2021.2.3,59.92423179642026,
62,0,62,0,,,,,,,,,,,,,,,,,,,,,,,,,,947.7134138999972,None,appeal,83,63,sing,red,945.7139795999974,None,None,945.7139795999974,None,,,,,,,,,,,,,,,,,,,,,,,,,,,,,,,,,,,137Sing,001,2023_Oct_26_0939,ProdSingRedoBetween,2021.2.3,59.92423179642026,
63,0,63,0,,,,,,,,,,,,,,,,,,,,,,,,,,950.2325471999939,None,bicycle,88,64,sing,red,948.2194735999801,None,None,948.2194735999801,None,,,,,,,,,,,,,,,,,,,,,,,,,,,,,,,,,,,137Sing,001,2023_Oct_26_0939,ProdSingRedoBetween,2021.2.3,59.92423179642026,
64,0,64,0,,,,,,,,,,,,,,,,,,,,,,,,,,952.7517618999991,None,display,65,65,sing,red,950.7400988999871,None,None,950.7400988999871,None,,,,,,,,,,,,,,,,,,,,,,,,,,,,,,,,,,,137Sing,001,2023_Oct_26_0939,ProdSingRedoBetween,2021.2.3,59.92423179642026,
65,0,65,0,,,,,,,,,,,,,,,,,,,,,,,,,,955.2709345999756,None,trial,42,66,sing,blue,953.2571631999745,None,None,953.2571631999745,None,,,,,,,,,,,,,,,,,,,,,,,,,,,,,,,,,,,137Sing,001,2023_Oct_26_0939,ProdSingRedoBetween,2021.2.3,59.92423179642026,
66,0,66,0,,,,,,,,,,,,,,,,,,,,,,,,,,957.7735158999858,None,election,47,67,sing,blue,955.7721605999977,None,None,955.7721605999977,None,,,,,,,,,,,,,,,,,,,,,,,,,,,,,,,,,,,137Sing,001,2023_Oct_26_0939,ProdSingRedoBetween,2021.2.3,59.92423179642026,
67,0,67,0,,,,,,,,,,,,,,,,,,,,,,,,,,960.2927440999774,None,orchestra,28,68,sing,yellow,958.279945199989,None,None,958.279945199989,None,,,,,,,,,,,,,,,,,,,,,,,,,,,,,,,,,,,137Sing,001,2023_Oct_26_0939,ProdSingRedoBetween,2021.2.3,59.92423179642026,
68,0,68,0,,,,,,,,,,,,,,,,,,,,,,,,,,962.7951059999759,None,suspect,21,69,sing,yellow,960.7939493999875,None,None,960.7939493999875,None,,,,,,,,,,,,,,,,,,,,,,,,,,,,,,,,,,,137Sing,001,2023_Oct_26_0939,ProdSingRedoBetween,2021.2.3,59.92423179642026,
69,0,69,0,,,,,,,,,,,,,,,,,,,,,,,,,,965.3143396999803,None,solution,25,70,sing,yellow,963.301177699992,None,None,963.301177699992,None,,,,,,,,,,,,,,,,,,,,,,,,,,,,,,,,,,,137Sing,001,2023_Oct_26_0939,ProdSingRedoBetween,2021.2.3,59.92423179642026,
70,0,70,0,,,,,,,,,,,,,,,,,,,,,,,,,,967.8168319999822,None,character,33,71,sing,blue,965.8160264999897,None,None,965.8160264999897,None,,,,,,,,,,,,,,,,,,,,,,,,,,,,,,,,,,,137Sing,001,2023_Oct_26_0939,ProdSingRedoBetween,2021.2.3,59.92423179642026,
71,0,71,0,,,,,,,,,,,,,,,,,,,,,,,,,,970.3360860999965,None,speech,85,72,sing,red,968.3241987999936,None,None,968.3241987999936,None,,,,,,,,,,,,,,,,,,,,,,,,,,,,,,,,,,,137Sing,001,2023_Oct_26_0939,ProdSingRedoBetween,2021.2.3,59.92423179642026,
72,0,72,0,,,,,,,,,,,,,,,,,,,,,,,,,,972.8553182999894,None,victory,46,73,sing,blue,970.8434753999754,None,None,970.8434753999754,None,,,,,,,,,,,,,,,,,,,,,,,,,,,,,,,,,,,137Sing,001,2023_Oct_26_0939,ProdSingRedoBetween,2021.2.3,59.92423179642026,
73,0,73,0,,,,,,,,,,,,,,,,,,,,,,,,,,975.3743746999826,None,history,79,74,sing,red,973.3638886999979,None,None,973.3638886999979,None,,,,,,,,,,,,,,,,,,,,,,,,,,,,,,,,,,,137Sing,001,2023_Oct_26_0939,ProdSingRedoBetween,2021.2.3,59.92423179642026,
74,0,74,0,,,,,,,,,,,,,,,,,,,,,,,,,,977.8768579999742,None,blind,12,75,sing,yellow,975.8748525999836,None,None,975.8748525999836,None,,,,,,,,,,,,,,,,,,,,,,,,,,,,,,,,,,,137Sing,001,2023_Oct_26_0939,ProdSingRedoBetween,2021.2.3,59.92423179642026,
75,0,75,0,,,,,,,,,,,,,,,,,,,,,,,,,,980.3793850999791,None,strength,27,76,sing,yellow,978.3793062999903,None,None,978.3793062999903,None,,,,,,,,,,,,,,,,,,,,,,,,,,,,,,,,,,,137Sing,001,2023_Oct_26_0939,ProdSingRedoBetween,2021.2.3,59.92423179642026,
76,0,76,0,,,,,,,,,,,,,,,,,,,,,,,,,,982.8818957999756,None,general,59,77,sing,yellow,980.8825261999737,None,None,980.8825261999737,None,,,,,,,,,,,,,,,,,,,,,,,,,,,,,,,,,,,137Sing,001,2023_Oct_26_0939,ProdSingRedoBetween,2021.2.3,59.92423179642026,
77,0,77,0,,,,,,,,,,,,,,,,,,,,,,,,,,985.3843524999975,None,group,66,78,sing,red,983.3848016999837,None,None,983.3848016999837,None,,,,,,,,,,,,,,,,,,,,,,,,,,,,,,,,,,,137Sing,001,2023_Oct_26_0939,ProdSingRedoBetween,2021.2.3,59.92423179642026,
78,0,78,0,,,,,,,,,,,,,,,,,,,,,,,,,,987.9036039999919,None,taste,48,79,sing,blue,985.8883782999765,None,None,985.8883782999765,None,,,,,,,,,,,,,,,,,,,,,,,,,,,,,,,,,,,137Sing,001,2023_Oct_26_0939,ProdSingRedoBetween,2021.2.3,59.92423179642026,
79,0,79,0,,,,,,,,,,,,,,,,,,,,,,,,,,990.4061269999947,None,afternoon,74,80,sing,red,988.4068315999757,None,None,988.4068315999757,None,,,,,,,,,,,,,,,,,,,,,,,,,,,,,,,,,,,137Sing,001,2023_Oct_26_0939,ProdSingRedoBetween,2021.2.3,59.92423179642026,
80,0,80,0,,,,,,,,,,,,,,,,,,,,,,,,,,992.9253093999869,None,season,71,81,sing,red,990.9120100999717,None,None,990.9120100999717,None,,,,,,,,,,,,,,,,,,,,,,,,,,,,,,,,,,,137Sing,001,2023_Oct_26_0939,ProdSingRedoBetween,2021.2.3,59.92423179642026,
81,0,81,0,,,,,,,,,,,,,,,,,,,,,,,,,,995.4444920999813,None,century,29,82,sing,blue,993.4293937999755,None,None,993.4293937999755,None,,,,,,,,,,,,,,,,,,,,,,,,,,,,,,,,,,,137Sing,001,2023_Oct_26_0939,ProdSingRedoBetween,2021.2.3,59.92423179642026,
82,0,82,0,,,,,,,,,,,,,,,,,,,,,,,,,,997.9637217999843,None,collection,63,83,sing,red,995.9483119999932,None,None,995.9483119999932,None,,,,,,,,,,,,,,,,,,,,,,,,,,,,,,,,,,,137Sing,001,2023_Oct_26_0939,ProdSingRedoBetween,2021.2.3,59.92423179642026,
83,0,83,0,,,,,,,,,,,,,,,,,,,,,,,,,,1000.4661953999894,None,angle,34,84,sing,blue,998.4665264999785,None,None,998.4665264999785,None,,,,,,,,,,,,,,,,,,,,,,,,,,,,,,,,,,,137Sing,001,2023_Oct_26_0939,ProdSingRedoBetween,2021.2.3,59.92423179642026,
84,0,84,0,,,,,,,,,,,,,,,,,,,,,,,,,,1002.9853321999835,None,scale,10,85,sing,yellow,1000.9703124999942,None,None,1000.9703124999942,None,,,,,,,,,,,,,,,,,,,,,,,,,,,,,,,,,,,137Sing,001,2023_Oct_26_0939,ProdSingRedoBetween,2021.2.3,59.92423179642026,
85,0,85,0,,,,,,,,,,,,,,,,,,,,,,,,,,1005.4878546999826,None,estate,55,86,sing,blue,1003.4870822999801,None,None,1003.4870822999801,None,,,,,,,,,,,,,,,,,,,,,,,,,,,,,,,,,,,137Sing,001,2023_Oct_26_0939,ProdSingRedoBetween,2021.2.3,59.92423179642026,
86,0,86,0,,,,,,,,,,,,,,,,,,,,,,,,,,1008.0070606999798,None,staff,39,87,sing,blue,1005.9960264999827,None,None,1005.9960264999827,None,,,,,,,,,,,,,,,,,,,,,,,,,,,,,,,,,,,137Sing,001,2023_Oct_26_0939,ProdSingRedoBetween,2021.2.3,59.92423179642026,
87,0,87,0,,,,,,,,,,,,,,,,,,,,,,,,,,1010.5262430999719,None,course,53,88,sing,blue,1008.5165768999723,None,None,1008.5165768999723,None,,,,,,,,,,,,,,,,,,,,,,,,,,,,,,,,,,,137Sing,001,2023_Oct_26_0939,ProdSingRedoBetween,2021.2.3,59.92423179642026,
88,0,88,0,,,,,,,,,,,,,,,,,,,,,,,,,,1013.028776399995,None,frank,56,89,sing,blue,1011.0283236999821,None,None,1011.0283236999821,None,,,,,,,,,,,,,,,,,,,,,,,,,,,,,,,,,,,137Sing,001,2023_Oct_26_0939,ProdSingRedoBetween,2021.2.3,59.92423179642026,
89,0,89,0,,,,,,,,,,,,,,,,,,,,,,,,,,1015.547897899989,None,equipment,22,90,sing,yellow,1013.5431456999795,None,None,1013.5431456999795,None,,,,,,,,,,,,,,,,,,,,,,,,,,,,,,,,,,,137Sing,001,2023_Oct_26_0939,ProdSingRedoBetween,2021.2.3,59.92423179642026,
,,,,,,,,,,,,,,,,,,,,,,,,,,,,,,,,,,,,,,,,,1016.0486523,None,k,135.57637530000648,1016.0486523,None,,,,,,,,,,,,,,,,,,,,,,,,,,,,,137Sing,001,2023_Oct_26_0939,ProdSingRedoBetween,2021.2.3,59.92423179642026,
,,,,0,0,0,0,,,,,,,,,,,,,,,,,,,,,,1170.4728359999717,None,,,,,,,,,,,,,,,,,smooth,111,1,sing,new,null,1152.167176499992,None,1152.167176499992,None,2,5.993533800006844,1152.167176499992,None,5.993533800006844,1158.1947323999775,None,1158.717935099994,None,1158.717935099994,None,f,11.730946600000607,1158.717935099994,None,11.730946600000607,,,137Sing,001,2023_Oct_26_0939,ProdSingRedoBetween,2021.2.3,59.92423179642026,
,,,,1,0,1,0,,,,,,,,,,,,,,,,,,,,,,1177.960284199973,None,,,,,,,,,,,,,,,,,whole,141,2,sing,new,null,1170.9965954999789,None,1170.9965954999789,None,4,4.076093800016679,1170.9965954999789,None,4.076093800016679,1175.0910034999833,None,1175.5969752999954,None,1175.5969752999954,None,r,2.3398088000249118,1175.5969752999954,None,2.3398088000249118,,,137Sing,001,2023_Oct_26_0939,ProdSingRedoBetween,2021.2.3,59.92423179642026,
,,,,2,0,2,0,,,,,,,,,,,,,,,,,,,,,,1187.4886748999998,None,,,,,,,,,,,,,,,,,month,152,3,sing,new,null,1178.470241299976,None,1178.470241299976,None,2,4.474585799995111,1178.470241299976,None,4.474585799995111,1182.9723203999747,None,1183.4826186999853,None,1183.4826186999853,None,f,3.9741946999856737,1183.4826186999853,None,3.9741946999856737,,,137Sing,001,2023_Oct_26_0939,ProdSingRedoBetween,2021.2.3,59.92423179642026,
,,,,3,0,3,0,,,,,,,,,,,,,,,,,,,,,,1196.1142208999954,None,,,,,,,,,,,,,,,,,payment,18,4,sing,old,yellow,1188.0095749999746,None,1188.0095749999746,None,1,3.1592785000102594,1188.0095749999746,None,3.1592785000102594,1191.1999024999968,None,1191.712496799999,None,1191.712496799999,None,f,4.3684897999919485,1191.712496799999,None,4.3684897999919485,,,137Sing,001,2023_Oct_26_0939,ProdSingRedoBetween,2021.2.3,59.92423179642026,
,,,,4,0,4,0,,,,,,,,,,,,,,,,,,,,,,1204.8730262999889,None,,,,,,,,,,,,,,,,,afternoon,74,5,sing,old,red,1196.6366744999832,None,1196.6366744999832,None,5,5.236146999988705,1196.6366744999832,None,5.236146999988705,1201.9071977999993,None,1202.4231815999956,None,1202.4231815999956,None,f,2.4177667000039946,1202.4231815999956,None,2.4177667000039946,,,137Sing,001,2023_Oct_26_0939,ProdSingRedoBetween,2021.2.3,59.92423179642026,
,,,,5,0,5,0,,,,,,,,,,,,,,,,,,,,,,1212.263409199979,None,,,,,,,,,,,,,,,,,quarter,148,6,sing,new,null,1205.3971279999823,None,1205.3971279999823,None,2,1.955879899993306,1205.3971279999823,None,1.955879899993306,1207.3844733999867,None,1207.8974772999936,None,1207.8974772999936,None,f,4.335157499997877,1207.8974772999936,None,4.335157499997877,,,137Sing,001,2023_Oct_26_0939,ProdSingRedoBetween,2021.2.3,59.92423179642026,
,,,,6,0,6,0,,,,,,,,,,,,,,,,,,,,,,1218.4860568000004,None,,,,,,,,,,,,,,,,,column,20,7,sing,old,yellow,1212.778756899992,None,1212.778756899992,None,6,3.5500148000137415,1212.778756899992,None,3.5500148000137415,1216.348511899996,None,1216.8514433999953,None,1216.8514433999953,None,r,1.613505500019528,1216.8514433999953,None,1.613505500019528,,,137Sing,001,2023_Oct_26_0939,ProdSingRedoBetween,2021.2.3,59.92423179642026,
,,,,7,0,7,0,,,,,,,,,,,,,,,,,,,,,,1227.312247199996,None,,,,,,,,,,,,,,,,,story,129,8,sing,new,null,1219.0126963999937,None,1219.0126963999937,None,3,5.884253700001864,1219.0126963999937,None,5.884253700001864,1224.9262158999918,None,1225.448128899996,None,1225.448128899996,None,r,1.8328677999961656,1225.448128899996,None,1.8328677999961656,,,137Sing,001,2023_Oct_26_0939,ProdSingRedoBetween,2021.2.3,59.92423179642026,
,,,,8,0,8,0,,,,,,,,,,,,,,,,,,,,,,1232.948626599973,None,,,,,,,,,,,,,,,,,tragedy,37,9,sing,old,blue,1227.8351301999937,None,1227.8351301999937,None,5,3.1736823999963235,1227.8351301999937,None,3.1736823999963235,1231.0326001999783,None,1231.5550334999862,None,1231.5550334999862,None,f,1.373736600013217,1231.5550334999862,None,1.373736600013217,,,137Sing,001,2023_Oct_26_0939,ProdSingRedoBetween,2021.2.3,59.92423179642026,
,,,,9,0,9,0,,,,,,,,,,,,,,,,,,,,,,1238.690671199991,None,,,,,,,,,,,,,,,,,interview,178,10,sing,new,null,1233.4630580999947,None,1233.4630580999947,None,5,2.601728199981153,1233.4630580999947,None,2.601728199981153,1236.0863910999906,None,1236.5857232999988,None,1236.5857232999988,None,r,2.079245400003856,1236.5857232999988,None,2.079245400003856,,,137Sing,001,2023_Oct_26_0939,ProdSingRedoBetween,2021.2.3,59.92423179642026,
,,,,10,0,10,0,,,,,,,,,,,,,,,,,,,,,,1243.6302007999911,None,,,,,,,,,,,,,,,,,present,131,11,sing,new,null,1239.212771099992,None,1239.212771099992,None,5,2.2761278000252787,1239.212771099992,None,2.2761278000252787,1241.5199010999931,None,1242.0306243999803,None,1242.0306243999803,None,f,1.5782808999938425,1242.0306243999803,None,1.5782808999938425,,,137Sing,001,2023_Oct_26_0939,ProdSingRedoBetween,2021.2.3,59.92423179642026,
,,,,11,0,11,0,,,,,,,,,,,,,,,,,,,,,,1248.3337134999747,None,,,,,,,,,,,,,,,,,collection,63,12,sing,old,red,1244.1449075999844,None,1244.1449075999844,None,5,2.191894699994009,1244.1449075999844,None,2.191894699994009,1246.3655524999776,None,1246.8865006999986,None,1246.8865006999986,None,r,1.4263108000159264,1246.8865006999986,None,1.4263108000159264,,,137Sing,001,2023_Oct_26_0939,ProdSingRedoBetween,2021.2.3,59.92423179642026,
,,,,12,0,12,0,,,,,,,,,,,,,,,,,,,,,,1251.767450799991,None,,,,,,,,,,,,,,,,,taste,48,13,sing,old,blue,1248.8602767999982,None,1248.8602767999982,None,6,1.3726167999848258,1248.8602767999982,None,1.3726167999848258,1250.2529347999953,None,1250.7666729999764,None,1250.7666729999764,None,r,0.9701967000146396,1250.7666729999764,None,0.9701967000146396,,,137Sing,001,2023_Oct_26_0939,ProdSingRedoBetween,2021.2.3,59.92423179642026,
,,,,13,0,13,0,,,,,,,,,,,,,,,,,,,,,,1255.4378108999808,None,,,,,,,,,,,,,,,,,position,127,14,sing,new,null,1252.2845857999928,None,1252.2845857999928,None,5,1.916263799997978,1252.2845857999928,None,1.916263799997978,1254.2247547999723,None,1254.7477975999936,None,1254.7477975999936,None,f,0.661128000007011,1254.7477975999936,None,0.661128000007011,,,137Sing,001,2023_Oct_26_0939,ProdSingRedoBetween,2021.2.3,59.92423179642026,
,,,,14,0,14,0,,,,,,,,,,,,,,,,,,,,,,1259.5494333999814,None,,,,,,,,,,,,,,,,,cover,118,15,sing,new,null,1255.9544692999916,None,1255.9544692999916,None,2,1.998393899993971,1255.9544692999916,None,1.998393899993971,1257.9794399999955,None,1258.493330999976,None,1258.493330999976,None,f,1.0197132999892347,1258.493330999976,None,1.0197132999892347,,,137Sing,001,2023_Oct_26_0939,ProdSingRedoBetween,2021.2.3,59.92423179642026,
,,,,15,0,15,0,,,,,,,,,,,,,,,,,,,,,,1263.5154517999908,None,,,,,,,,,,,,,,,,,brilliant,153,16,sing,new,null,1260.0648349999974,None,1260.0648349999974,None,1,1.2959455999953207,1260.0648349999974,None,1.2959455999953207,1261.3769004999776,None,1261.887275199988,None,1261.887275199988,None,n,1.6015596000070218,1261.887275199988,None,1.6015596000070218,,,137Sing,001,2023_Oct_26_0939,ProdSingRedoBetween,2021.2.3,59.92423179642026,
,,,,16,0,16,0,,,,,,,,,,,,,,,,,,,,,,1268.5676204999909,None,,,,,,,,,,,,,,,,,route,109,17,sing,new,null,1264.0343615999736,None,1264.0343615999736,None,1,2.7826525999989826,1264.0343615999736,None,2.7826525999989826,1266.839919399994,None,1267.349703999993,None,1267.349703999993,None,n,1.2031136000005063,1267.349703999993,None,1.2031136000005063,,,137Sing,001,2023_Oct_26_0939,ProdSingRedoBetween,2021.2.3,59.92423179642026,
,,,,17,0,17,0,,,,,,,,,,,,,,,,,,,,,,1274.2899281999853,None,,,,,,,,,,,,,,,,,produce,146,18,sing,new,null,1269.0777848999714,None,1269.0777848999714,None,2,3.2030268000089563,1269.0777848999714,None,3.2030268000089563,1272.3059139999968,None,1272.8092184999841,None,1272.8092184999841,None,f,1.4636991000152193,1272.8092184999841,None,1.4636991000152193,,,137Sing,001,2023_Oct_26_0939,ProdSingRedoBetween,2021.2.3,59.92423179642026,
,,,,18,0,18,0,,,,,,,,,,,,,,,,,,,,,,1280.6313830999716,None,,,,,,,,,,,,,,,,,symbol,13,19,sing,old,yellow,1274.799249499978,None,1274.799249499978,None,2,3.1296482000034302,1274.799249499978,None,3.1296482000034302,1277.9497256999894,None,1278.4655636999814,None,1278.4655636999814,None,r,2.143482799991034,1278.4655636999814,None,2.143482799991034,,,137Sing,001,2023_Oct_26_0939,ProdSingRedoBetween,2021.2.3,59.92423179642026,
,,,,19,0,19,0,,,,,,,,,,,,,,,,,,,,,,1284.8671652999765,None,,,,,,,,,,,,,,,,,debate,72,20,sing,old,red,1281.1549601999868,None,1281.1549601999868,None,5,1.694133500015596,1281.1549601999868,None,1.694133500015596,1282.871652199974,None,1283.389113399986,None,1283.389113399986,None,r,1.4597515999921598,1283.389113399986,None,1.4597515999921598,,,137Sing,001,2023_Oct_26_0939,ProdSingRedoBetween,2021.2.3,59.92423179642026,
,,,,20,0,20,0,,,,,,,,,,,,,,,,,,,,,,1292.0079911999928,None,,,,,,,,,,,,,,,,,theme,11,21,sing,old,yellow,1285.3802433999954,None,1285.3802433999954,None,5,3.5087356000149157,1285.3802433999954,None,3.5087356000149157,1288.9080694000004,None,1289.4290795999987,None,1289.4290795999987,None,f,2.5558329000195954,1289.4290795999987,None,2.5558329000195954,,,137Sing,001,2023_Oct_26_0939,ProdSingRedoBetween,2021.2.3,59.92423179642026,
,,,,21,0,21,0,,,,,,,,,,,,,,,,,,,,,,1298.030381699995,None,,,,,,,,,,,,,,,,,clean,17,22,sing,old,yellow,1292.5233468999795,None,1292.5233468999795,None,3,3.4054038999893237,1292.5233468999795,None,3.4054038999893237,1295.9474670999916,None,1296.4699176999857,None,1296.4699176999857,None,r,1.530983600008767,1296.4699176999857,None,1.530983600008767,,,137Sing,001,2023_Oct_26_0939,ProdSingRedoBetween,2021.2.3,59.92423179642026,
,,,,22,0,22,0,,,,,,,,,,,,,,,,,,,,,,1304.5034721999837,None,,,,,,,,,,,,,,,,,history,79,23,sing,old,red,1298.5461615999811,None,1298.5461615999811,None,5,3.7908649999881163,1298.5461615999811,None,3.7908649999881163,1302.3727137999958,None,1302.8853843999968,None,1302.8853843999968,None,f,1.5955547000048682,1302.8853843999968,None,1.5955547000048682,,,137Sing,001,2023_Oct_26_0939,ProdSingRedoBetween,2021.2.3,59.92423179642026,
,,,,23,0,23,0,,,,,,,,,,,,,,,,,,,,,,1309.6921323999995,None,,,,,,,,,,,,,,,,,skill,78,24,sing,old,red,1305.0142015999882,None,1305.0142015999882,None,4,2.426829000003636,1305.0142015999882,None,2.426829000003636,1307.467836899974,None,1307.9738755999715,None,1307.9738755999715,None,r,1.691031299997121,1307.9738755999715,None,1.691031299997121,,,137Sing,001,2023_Oct_26_0939,ProdSingRedoBetween,2021.2.3,59.92423179642026,
,,,,24,0,24,0,,,,,,,,,,,,,,,,,,,,,,1315.5646277999913,None,,,,,,,,,,,,,,,,,revolution,179,25,sing,new,null,1310.2031212999718,None,1310.2031212999718,None,2,3.5499269000138156,1310.2031212999718,None,3.5499269000138156,1313.7903612999944,None,1314.3022638999973,None,1314.3022638999973,None,f,1.234583899989957,1314.3022638999973,None,1.234583899989957,,,137Sing,001,2023_Oct_26_0939,ProdSingRedoBetween,2021.2.3,59.92423179642026,
,,,,25,0,25,0,,,,,,,,,,,,,,,,,,,,,,1321.4702956999827,None,,,,,,,,,,,,,,,,,length,135,26,sing,new,null,1316.0737367999973,None,1316.0737367999973,None,4,2.6551483999937773,1316.0737367999973,None,2.6551483999937773,1318.7510014999716,None,1319.2567276999762,None,1319.2567276999762,None,f,2.1842448000097647,1319.2567276999762,None,2.1842448000097647,,,137Sing,001,2023_Oct_26_0939,ProdSingRedoBetween,2021.2.3,59.92423179642026,
,,,,26,0,26,0,,,,,,,,,,,,,,,,,,,,,,1326.6437949999818,None,,,,,,,,,,,,,,,,,atmosphere,158,27,sing,new,null,1321.9751057999965,None,1321.9751057999965,None,1,1.6260560999799054,1321.9751057999965,None,1.6260560999799054,1323.6350616999844,None,1324.1465110999998,None,1324.1465110999998,None,r,2.478553399996599,1324.1465110999998,None,2.478553399996599,,,137Sing,001,2023_Oct_26_0939,ProdSingRedoBetween,2021.2.3,59.92423179642026,
,,,,27,0,27,0,,,,,,,,,,,,,,,,,,,,,,1331.2500217999914,None,,,,,,,,,,,,,,,,,under,41,28,sing,old,blue,1327.1524370999832,None,1327.1524370999832,None,3,2.2085504999849945,1327.1524370999832,None,2.2085504999849945,1329.3877656999975,None,1329.8957391000004,None,1329.8957391000004,None,f,1.3293643999786582,1329.8957391000004,None,1.3293643999786582,,,137Sing,001,2023_Oct_26_0939,ProdSingRedoBetween,2021.2.3,59.92423179642026,
,,,,28,0,28,0,,,,,,,,,,,,,,,,,,,,,,1335.8348864,None,,,,,,,,,,,,,,,,,quick,114,29,sing,new,null,1331.7717096999986,None,1331.7717096999986,None,3,2.157362199999625,1331.7717096999986,None,2.157362199999625,1333.9582110999909,None,1334.4696846999868,None,1334.4696846999868,None,r,1.3472164000268094,1334.4696846999868,None,1.3472164000268094,,,137Sing,001,2023_Oct_26_0939,ProdSingRedoBetween,2021.2.3,59.92423179642026,
,,,,29,0,29,0,,,,,,,,,,,,,,,,,,,,,,1341.0430976999924,None,,,,,,,,,,,,,,,,,strength,27,30,sing,old,yellow,1336.3445973999915,None,1336.3445973999915,None,5,1.6724972999945749,1336.3445973999915,None,1.6724972999945749,1338.043662399985,None,1338.5590333999717,None,1338.5590333999717,None,f,2.4660972999990918,1338.5590333999717,None,2.4660972999990918,,,137Sing,001,2023_Oct_26_0939,ProdSingRedoBetween,2021.2.3,59.92423179642026,
,,,,30,0,30,0,,,,,,,,,,,,,,,,,,,,,,1345.7614708999754,None,,,,,,,,,,,,,,,,,blind,12,31,sing,old,yellow,1341.5617147999874,None,1341.5617147999874,None,4,2.391387899988331,1341.5617147999874,None,2.391387899988331,1343.986145999981,None,1344.4936837999849,None,1344.4936837999849,None,f,1.2433017000148539,1344.4936837999849,None,1.2433017000148539,,,137Sing,001,2023_Oct_26_0939,ProdSingRedoBetween,2021.2.3,59.92423179642026,
,,,,31,0,31,0,,,,,,,,,,,,,,,,,,,,,,1350.2993280999945,None,,,,,,,,,,,,,,,,,meeting,132,32,sing,new,null,1346.2765403999947,None,1346.2765403999947,None,3,2.1325177999970037,1346.2765403999947,None,2.1325177999970037,1348.4355206999753,None,1348.9560408999969,None,1348.9560408999969,None,f,1.3169426000094973,1348.9560408999969,None,1.3169426000094973,,,137Sing,001,2023_Oct_26_0939,ProdSingRedoBetween,2021.2.3,59.92423179642026,
,,,,32,0,32,0,,,,,,,,,,,,,,,,,,,,,,1354.73720459998,None,,,,,,,,,,,,,,,,,evidence,95,33,sing,new,null,1350.8149610999972,None,1350.8149610999972,None,4,2.4260153000068385,1350.8149610999972,None,2.4260153000068385,1353.27238509999,None,1353.7862820999871,None,1353.7862820999871,None,r,0.9267212000268046,1353.7862820999871,None,0.9267212000268046,,,137Sing,001,2023_Oct_26_0939,ProdSingRedoBetween,2021.2.3,59.92423179642026,
,,,,33,0,33,0,,,,,,,,,,,,,,,,,,,,,,1362.4629145999788,None,,,,,,,,,,,,,,,,,finish,108,34,sing,new,null,1355.2542966999754,None,1355.2542966999754,None,5,5.650671399984276,1355.2542966999754,None,5.650671399984276,1360.9302759999991,None,1361.4512126999907,None,1361.4512126999907,None,r,0.989919599989662,1361.4512126999907,None,0.989919599989662,,,137Sing,001,2023_Oct_26_0939,ProdSingRedoBetween,2021.2.3,59.92423179642026,
,,,,34,0,34,0,,,,,,,,,,,,,,,,,,,,,,1366.5655980999873,None,,,,,,,,,,,,,,,,,sleep,7,35,sing,old,yellow,1362.9717680999893,None,1362.9717680999893,None,4,2.2212706999853253,1362.9717680999893,None,2.2212706999853253,1365.2194445999921,None,1365.7357909999846,None,1365.7357909999846,None,r,0.8012141000072006,1365.7357909999846,None,0.8012141000072006,,,137Sing,001,2023_Oct_26_0939,ProdSingRedoBetween,2021.2.3,59.92423179642026,
,,,,35,0,35,0,,,,,,,,,,,,,,,,,,,,,,1371.2370389999996,None,,,,,,,,,,,,,,,,,range,14,36,sing,old,yellow,1367.0755508999864,None,1367.0755508999864,None,5,2.7256240000133403,1367.0755508999864,None,2.7256240000133403,1369.8282402999757,None,1370.3378475999925,None,1370.3378475999925,None,f,0.871146299992688,1370.3378475999925,None,0.871146299992688,,,137Sing,001,2023_Oct_26_0939,ProdSingRedoBetween,2021.2.3,59.92423179642026,
,,,,36,0,36,0,,,,,,,,,,,,,,,,,,,,,,1376.9443152999738,None,,,,,,,,,,,,,,,,,crime,154,37,sing,new,null,1371.7503338999813,None,1371.7503338999813,None,2,4.066668599989498,1371.7503338999813,None,4.066668599989498,1375.8448679999856,None,1376.3683589999855,None,1376.3683589999855,None,n,0.5447504000039771,1376.3683589999855,None,0.5447504000039771,,,137Sing,001,2023_Oct_26_0939,ProdSingRedoBetween,2021.2.3,59.92423179642026,
,,,,37,0,37,0,,,,,,,,,,,,,,,,,,,,,,1381.5639799999772,None,,,,,,,,,,,,,,,,,reach,89,38,sing,old,red,1377.4642199999944,None,1377.4642199999944,None,4,2.5047147999866866,1377.4642199999944,None,2.5047147999866866,1379.995767299988,None,1380.4987450999906,None,1380.4987450999906,None,f,1.0381853000144474,1380.4987450999906,None,1.0381853000144474,,,137Sing,001,2023_Oct_26_0939,ProdSingRedoBetween,2021.2.3,59.92423179642026,
,,,,38,0,38,0,,,,,,,,,,,,,,,,,,,,,,1385.3010092999903,None,,,,,,,,,,,,,,,,,front,54,39,sing,old,blue,1382.0739247999736,None,1382.0739247999736,None,5,1.847095499979332,1382.0739247999736,None,1.847095499979332,1383.9548600999988,None,1384.4740151999868,None,1384.4740151999868,None,r,0.7989561000140384,1384.4740151999868,None,0.7989561000140384,,,137Sing,001,2023_Oct_26_0939,ProdSingRedoBetween,2021.2.3,59.92423179642026,
,,,,39,0,39,0,,,,,,,,,,,,,,,,,,,,,,1389.9279711999989,None,,,,,,,,,,,,,,,,,dispute,50,40,sing,old,blue,1385.810582999984,None,1385.810582999984,None,1,3.1264322999923024,1385.810582999984,None,3.1264322999923024,1388.9596273999778,None,1389.4767707999854,None,1389.4767707999854,None,n,0.4284186000004411,1389.4767707999854,None,0.4284186000004411,,,137Sing,001,2023_Oct_26_0939,ProdSingRedoBetween,2021.2.3,59.92423179642026,
,,,,40,0,40,0,,,,,,,,,,,,,,,,,,,,,,1397.8146086999914,None,,,,,,,,,,,,,,,,,still,6,41,sing,old,yellow,1390.4478497999953,None,1390.4478497999953,None,4,6.041346699988935,1390.4478497999953,None,6.041346699988935,1396.5278186999785,None,1397.0299181999872,None,1397.0299181999872,None,r,0.7552342000126373,1397.0299181999872,None,0.7552342000126373,,,137Sing,001,2023_Oct_26_0939,ProdSingRedoBetween,2021.2.3,59.92423179642026,
,,,,41,0,41,0,,,,,,,,,,,,,,,,,,,,,,1403.0384905999817,None,,,,,,,,,,,,,,,,,welcome,120,42,sing,new,null,1398.3186048999778,None,1398.3186048999778,None,2,3.2505650999955833,1398.3186048999778,None,3.2505650999955833,1401.5941987999831,None,1402.1059266999946,None,1402.1059266999946,None,f,0.911161500000162,1402.1059266999946,None,0.911161500000162,,,137Sing,001,2023_Oct_26_0939,ProdSingRedoBetween,2021.2.3,59.92423179642026,
,,,,42,0,42,0,,,,,,,,,,,,,,,,,,,,,,1407.6935516999802,None,,,,,,,,,,,,,,,,,incident,150,43,sing,new,null,1403.565499999997,None,1403.565499999997,None,1,2.5075477000209503,1403.565499999997,None,2.5075477000209503,1406.0931351999752,None,1406.6092959999805,None,1406.6092959999805,None,f,1.055859199987026,1406.6092959999805,None,1.055859199987026,,,137Sing,001,2023_Oct_26_0939,ProdSingRedoBetween,2021.2.3,59.92423179642026,
,,,,43,0,43,0,,,,,,,,,,,,,,,,,,,,,,1411.477190799982,None,,,,,,,,,,,,,,,,,spoke,5,44,sing,old,yellow,1408.2151611999725,None,1408.2151611999725,None,2,2.178103199985344,1408.2151611999725,None,2.178103199985344,1410.420600499987,None,1410.9302907999954,None,1410.9302907999954,None,n,0.526736300002085,1410.9302907999954,None,0.526736300002085,,,137Sing,001,2023_Oct_26_0939,ProdSingRedoBetween,2021.2.3,59.92423179642026,
,,,,44,0,44,0,,,,,,,,,,,,,,,,,,,,,,1417.133873499988,None,,,,,,,,,,,,,,,,,election,47,45,sing,old,blue,1411.9853736999794,None,1411.9853736999794,None,5,3.7437053000030573,1411.9853736999794,None,3.7437053000030573,1415.7512883999734,None,1416.2727903999912,None,1416.2727903999912,None,r,0.8402460000070278,1416.2727903999912,None,0.8402460000070278,,,137Sing,001,2023_Oct_26_0939,ProdSingRedoBetween,2021.2.3,59.92423179642026,
,,,,45,0,45,0,,,,,,,,,,,,,,,,,,,,,,1424.7404905000003,None,,,,,,,,,,,,,,,,,force,87,46,sing,old,red,1417.6480869999796,None,1417.6480869999796,None,2,5.504886400012765,1417.6480869999796,None,5.504886400012765,1423.1775272999948,None,1423.6927235999901,None,1423.6927235999901,None,f,1.028313699993305,1423.6927235999901,None,1.028313699993305,,,137Sing,001,2023_Oct_26_0939,ProdSingRedoBetween,2021.2.3,59.92423179642026,
,,,,46,0,46,0,,,,,,,,,,,,,,,,,,,,,,1429.6143301999837,None,,,,,,,,,,,,,,,,,executive,166,47,sing,new,null,1425.2532999999821,None,1425.2532999999821,None,5,2.4837853999924846,1425.2532999999821,None,2.4837853999924846,1427.7661714999995,None,1428.2842166999762,None,1428.2842166999762,None,f,1.3009392999811098,1428.2842166999762,None,1.3009392999811098,,,137Sing,001,2023_Oct_26_0939,ProdSingRedoBetween,2021.2.3,59.92423179642026,
,,,,47,0,47,0,,,,,,,,,,,,,,,,,,,,,,1433.768739799998,None,,,,,,,,,,,,,,,,,command,43,48,sing,old,blue,1430.1339479999733,None,1430.1339479999733,None,6,1.9072508999961428,1430.1339479999733,None,1.9072508999961428,1432.0793859999976,None,1432.581927799998,None,1432.581927799998,None,r,1.1632770999858622,1432.581927799998,None,1.1632770999858622,,,137Sing,001,2023_Oct_26_0939,ProdSingRedoBetween,2021.2.3,59.92423179642026,
,,,,48,0,48,0,,,,,,,,,,,,,,,,,,,,,,1438.8545840999868,None,,,,,,,,,,,,,,,,,angle,34,49,sing,old,blue,1434.2952127999743,None,1434.2952127999743,None,6,1.473830100003397,1434.2952127999743,None,1.473830100003397,1435.7872098999796,None,1436.310085199977,None,1436.310085199977,None,r,2.522998699976597,1436.310085199977,None,2.522998699976597,,,137Sing,001,2023_Oct_26_0939,ProdSingRedoBetween,2021.2.3,59.92423179642026,
,,,,49,0,49,0,,,,,,,,,,,,,,,,,,,,,,1444.9273259999754,None,,,,,,,,,,,,,,,,,light,137,50,sing,new,null,1439.3658596999885,None,1439.3658596999885,None,3,3.1071419999934733,1439.3658596999885,None,3.1071419999934733,1442.4939437999856,None,1443.0127406999818,None,1443.0127406999818,None,f,1.8843289999931585,1443.0127406999818,None,1.8843289999931585,,,137Sing,001,2023_Oct_26_0939,ProdSingRedoBetween,2021.2.3,59.92423179642026,
,,,,50,0,50,0,,,,,,,,,,,,,,,,,,,,,,1451.2670121999981,None,,,,,,,,,,,,,,,,,safety,92,51,sing,new,null,1445.4363519999897,None,1445.4363519999897,None,3,4.276779300009366,1445.4363519999897,None,4.276779300009366,1449.735408699984,None,1450.2499218999874,None,1450.2499218999874,None,f,0.999083700007759,1450.2499218999874,None,0.999083700007759,,,137Sing,001,2023_Oct_26_0939,ProdSingRedoBetween,2021.2.3,59.92423179642026,
,,,,51,0,51,0,,,,,,,,,,,,,,,,,,,,,,1455.6728271999746,None,,,,,,,,,,,,,,,,,dream,86,52,sing,old,red,1451.7739580999769,None,1451.7739580999769,None,5,2.6990898000076413,1451.7739580999769,None,2.6990898000076413,1454.5036009999749,None,1455.0117171999882,None,1455.0117171999882,None,r,0.6375719999778084,1455.0117171999882,None,0.6375719999778084,,,137Sing,001,2023_Oct_26_0939,ProdSingRedoBetween,2021.2.3,59.92423179642026,
,,,,52,0,52,0,,,,,,,,,,,,,,,,,,,,,,1460.6931030999986,None,,,,,,,,,,,,,,,,,attack,134,53,sing,new,null,1456.1824538999936,None,1456.1824538999936,None,2,2.218763000011677,1456.1824538999936,None,2.218763000011677,1458.4310040999844,None,1458.9437686999736,None,1458.9437686999736,None,f,1.7293371999985538,1458.9437686999736,None,1.7293371999985538,,,137Sing,001,2023_Oct_26_0939,ProdSingRedoBetween,2021.2.3,59.92423179642026,
,,,,53,0,53,0,,,,,,,,,,,,,,,,,,,,,,1465.7982919999922,None,,,,,,,,,,,,,,,,,silence,177,54,sing,new,null,1461.2075736999977,None,1461.2075736999977,None,3,2.9454992999962997,1461.2075736999977,None,2.9454992999962997,1464.183193999983,None,1464.7002852999722,None,1464.7002852999722,None,n,1.0688523999997415,1464.7002852999722,None,1.0688523999997415,,,137Sing,001,2023_Oct_26_0939,ProdSingRedoBetween,2021.2.3,59.92423179642026,
,,,,54,0,54,0,,,,,,,,,,,,,,,,,,,,,,1470.9200515999983,None,,,,,,,,,,,,,,,,,defeat,164,55,sing,new,null,1466.3123506999982,None,1466.3123506999982,None,2,3.6007576000120025,1466.3123506999982,None,3.6007576000120025,1469.937998199981,None,1470.4561643999768,None,1470.4561643999768,None,n,0.433063200005563,1470.4561643999768,None,0.433063200005563,,,137Sing,001,2023_Oct_26_0939,ProdSingRedoBetween,2021.2.3,59.92423179642026,
,,,,55,0,55,0,,,,,,,,,,,,,,,,,,,,,,1474.0399003999773,None,,,,,,,,,,,,,,,,,fellow,124,56,sing,new,null,1471.430916799989,None,1471.430916799989,None,1,1.6823023000033572,1471.430916799989,None,1.6823023000033572,1473.1435168999888,None,1473.6661678999953,None,1473.6661678999953,None,n,0.3430760999908671,1473.6661678999953,None,0.3430760999908671,,,137Sing,001,2023_Oct_26_0939,ProdSingRedoBetween,2021.2.3,59.92423179642026,
,,,,56,0,56,0,,,,,,,,,,,,,,,,,,,,,,1478.3274386999838,None,,,,,,,,,,,,,,,,,orchestra,28,57,sing,old,yellow,1474.5566746999975,None,1474.5566746999975,None,6,2.204466000024695,1474.5566746999975,None,2.204466000024695,1476.7855574999994,None,1477.2970392999996,None,1477.2970392999996,None,r,1.008195300004445,1477.2970392999996,None,1.008195300004445,,,137Sing,001,2023_Oct_26_0939,ProdSingRedoBetween,2021.2.3,59.92423179642026,
,,,,57,0,57,0,,,,,,,,,,,,,,,,,,,,,,1482.8157967999869,None,,,,,,,,,,,,,,,,,signal,94,58,sing,new,null,1478.839934699994,None,1478.839934699994,None,4,2.2971607000217773,1478.839934699994,None,2.2971607000217773,1481.1693635999982,None,1481.6845030999975,None,1481.6845030999975,None,f,1.1006286999909207,1481.6845030999975,None,1.1006286999909207,,,137Sing,001,2023_Oct_26_0939,ProdSingRedoBetween,2021.2.3,59.92423179642026,
,,,,58,0,58,0,,,,,,,,,,,,,,,,,,,,,,1488.4208153999934,None,,,,,,,,,,,,,,,,,level,167,59,sing,new,null,1483.3266570999986,None,1483.3266570999986,None,3,3.4908844999736175,1483.3266570999986,None,3.4908844999736175,1486.843561799993,None,1487.3531989999756,None,1487.3531989999756,None,f,1.0400732999842148,1487.3531989999756,None,1.0400732999842148,,,137Sing,001,2023_Oct_26_0939,ProdSingRedoBetween,2021.2.3,59.92423179642026,
,,,,59,0,59,0,,,,,,,,,,,,,,,,,,,,,,1494.543675199995,None,,,,,,,,,,,,,,,,,power,125,60,sing,new,null,1488.9362967999768,None,1488.9362967999768,None,4,4.54488199998741,1488.9362967999768,None,4.54488199998741,1493.5125570999808,None,1494.0327583999897,None,1494.0327583999897,None,f,0.48847520002163947,1494.0327583999897,None,0.48847520002163947,,,137Sing,001,2023_Oct_26_0939,ProdSingRedoBetween,2021.2.3,59.92423179642026,
,,,,60,0,60,0,,,,,,,,,,,,,,,,,,,,,,1498.9647826,None,,,,,,,,,,,,,,,,,speech,85,61,sing,old,red,1495.0572272999852,None,1495.0572272999852,None,5,2.176026000001002,1495.0572272999852,None,2.176026000001002,1497.2661495999782,None,1497.7803349999886,None,1497.7803349999886,None,f,1.15675199998077,1497.7803349999886,None,1.15675199998077,,,137Sing,001,2023_Oct_26_0939,ProdSingRedoBetween,2021.2.3,59.92423179642026,
,,,,61,0,61,0,,,,,,,,,,,,,,,,,,,,,,1504.4034906999732,None,,,,,,,,,,,,,,,,,message,143,62,sing,new,null,1499.4755060999887,None,1499.4755060999887,None,3,2.869647299987264,1499.4755060999887,None,2.869647299987264,1502.3718195999973,None,1502.8894066999783,None,1502.8894066999783,None,n,1.495731800008798,1502.8894066999783,None,1.495731800008798,,,137Sing,001,2023_Oct_26_0939,ProdSingRedoBetween,2021.2.3,59.92423179642026,
,,,,62,0,62,0,,,,,,,,,,,,,,,,,,,,,,1508.340725999995,None,,,,,,,,,,,,,,,,,department,102,63,sing,new,null,1504.9186927999835,None,1504.9186927999835,None,2,1.9703862000023946,1504.9186927999835,None,1.9703862000023946,1506.9093990999972,None,1507.4327162999834,None,1507.4327162999834,None,f,0.8803096999763511,1507.4327162999834,None,0.8803096999763511,,,137Sing,001,2023_Oct_26_0939,ProdSingRedoBetween,2021.2.3,59.92423179642026,
,,,,63,0,63,0,,,,,,,,,,,,,,,,,,,,,,1513.031864199991,None,,,,,,,,,,,,,,,,,degree,126,64,sing,new,null,1508.846971299994,None,1508.846971299994,None,5,2.9784982000128366,1508.846971299994,None,2.9784982000128366,1511.8539091999992,None,1512.3615100999887,None,1512.3615100999887,None,r,0.6478171999915503,1512.3615100999887,None,0.6478171999915503,,,137Sing,001,2023_Oct_26_0939,ProdSingRedoBetween,2021.2.3,59.92423179642026,
,,,,64,0,64,0,,,,,,,,,,,,,,,,,,,,,,1516.9327020999917,None,,,,,,,,,,,,,,,,,store,60,65,sing,old,red,1513.5532977999828,None,1513.5532977999828,None,5,1.7438113999960478,1513.5532977999828,None,1.7438113999960478,1515.3156418999715,None,1515.8215735999984,None,1515.8215735999984,None,r,1.0916154000151437,1515.8215735999984,None,1.0916154000151437,,,137Sing,001,2023_Oct_26_0939,ProdSingRedoBetween,2021.2.3,59.92423179642026,
,,,,65,0,65,0,,,,,,,,,,,,,,,,,,,,,,1524.4775585999887,None,,,,,,,,,,,,,,,,,staff,39,66,sing,old,blue,1517.4461138999905,None,1517.4461138999905,None,3,5.16322100002435,1517.4461138999905,None,5.16322100002435,1522.6469955999928,None,1523.158863299992,None,1523.158863299992,None,f,1.2904863999865483,1523.158863299992,None,1.2904863999865483,,,137Sing,001,2023_Oct_26_0939,ProdSingRedoBetween,2021.2.3,59.92423179642026,
,,,,66,0,66,0,,,,,,,,,,,,,,,,,,,,,,1530.015482799994,None,,,,,,,,,,,,,,,,,report,23,67,sing,old,yellow,1524.9981678999902,None,1524.9981678999902,None,2,3.5470433000009507,1524.9981678999902,None,3.5470433000009507,1528.5633825999976,None,1529.0831937999756,None,1529.0831937999756,None,f,0.9101019999943674,1529.0831937999756,None,0.9101019999943674,,,137Sing,001,2023_Oct_26_0939,ProdSingRedoBetween,2021.2.3,59.92423179642026,
,,,,67,0,67,0,,,,,,,,,,,,,,,,,,,,,,1533.703643899993,None,,,,,,,,,,,,,,,,,research,36,68,sing,old,blue,1530.5325479999883,None,1530.5325479999883,None,5,1.4047490000084508,1530.5325479999883,None,1.4047490000084508,1531.9749226999993,None,1532.4854641999991,None,1532.4854641999991,None,f,1.1958699000242632,1532.4854641999991,None,1.1958699000242632,,,137Sing,001,2023_Oct_26_0939,ProdSingRedoBetween,2021.2.3,59.92423179642026,
,,,,68,0,68,0,,,,,,,,,,,,,,,,,,,,,,1538.4376121999812,None,,,,,,,,,,,,,,,,,addition,64,69,sing,old,red,1534.2309156999981,None,1534.2309156999981,None,6,1.9224175999988802,1534.2309156999981,None,1.9224175999988802,1536.1747201999824,None,1536.6901375999732,None,1536.6901375999732,None,r,1.727063400001498,1536.6901375999732,None,1.727063400001498,,,137Sing,001,2023_Oct_26_0939,ProdSingRedoBetween,2021.2.3,59.92423179642026,
,,,,69,0,69,0,,,,,,,,,,,,,,,,,,,,,,1543.6761024999723,None,,,,,,,,,,,,,,,,,bureau,162,70,sing,new,null,1538.945188999991,None,1538.945188999991,None,1,3.5281268999970052,1538.945188999991,None,3.5281268999970052,1542.4976901999908,None,1543.013258699997,None,1543.013258699997,None,n,0.6440188999986276,1543.013258699997,None,0.6440188999986276,,,137Sing,001,2023_Oct_26_0939,ProdSingRedoBetween,2021.2.3,59.92423179642026,
,,,,70,0,70,0,,,,,,,,,,,,,,,,,,,,,,1548.1143550999986,None,,,,,,,,,,,,,,,,,interior,44,71,sing,old,blue,1544.1914033999783,None,1544.1914033999783,None,3,2.145787499990547,1544.1914033999783,None,2.145787499990547,1546.3643636999768,None,1546.8862773999863,None,1546.8862773999863,None,f,1.2029489999986254,1546.8862773999863,None,1.2029489999986254,,,137Sing,001,2023_Oct_26_0939,ProdSingRedoBetween,2021.2.3,59.92423179642026,
,,,,71,0,71,0,,,,,,,,,,,,,,,,,,,,,,1553.5526562999876,None,,,,,,,,,,,,,,,,,period,171,72,sing,new,null,1548.6304622999742,None,1548.6304622999742,None,4,3.482798199984245,1548.6304622999742,None,3.482798199984245,1552.1425243999984,None,1552.653796699975,None,1552.653796699975,None,r,0.8674341000150889,1552.653796699975,None,0.8674341000150889,,,137Sing,001,2023_Oct_26_0939,ProdSingRedoBetween,2021.2.3,59.92423179642026,
,,,,72,0,72,0,,,,,,,,,,,,,,,,,,,,,,1558.311653199984,None,,,,,,,,,,,,,,,,,grade,81,73,sing,old,red,1554.066120399977,None,1554.066120399977,None,3,1.7032315000251401,1554.066120399977,None,1.7032315000251401,1555.7924103999976,None,1556.3055711999768,None,1556.3055711999768,None,n,1.9838083000213373,1556.3055711999768,None,1.9838083000213373,,,137Sing,001,2023_Oct_26_0939,ProdSingRedoBetween,2021.2.3,59.92423179642026,
,,,,73,0,73,0,,,,,,,,,,,,,,,,,,,,,,1562.8980515000003,None,,,,,,,,,,,,,,,,,testimony,52,74,sing,old,blue,1558.8394925999746,None,1558.8394925999746,None,5,2.4097514000022784,1558.8394925999746,None,2.4097514000022784,1561.2856864999922,None,1561.7967712999962,None,1561.7967712999962,None,f,1.0686009000055492,1561.7967712999962,None,1.0686009000055492,,,137Sing,001,2023_Oct_26_0939,ProdSingRedoBetween,2021.2.3,59.92423179642026,
,,,,74,0,74,0,,,,,,,,,,,,,,,,,,,,,,1570.9878972999868,None,,,,,,,,,,,,,,,,,territory,140,75,sing,new,null,1563.4240152999992,None,1563.4240152999992,None,3,2.5212292000069283,1563.4240152999992,None,2.5212292000069283,1565.968703199993,None,1566.4875310999923,None,1566.4875310999923,None,n,4.47380430001067,1566.4875310999923,None,4.47380430001067,,,137Sing,001,2023_Oct_26_0939,ProdSingRedoBetween,2021.2.3,59.92423179642026,
,,,,75,0,75,0,,,,,,,,,,,,,,,,,,,,,,1575.3921525999904,None,,,,,,,,,,,,,,,,,account,161,76,sing,new,null,1571.4916706999938,None,1571.4916706999938,None,5,1.7735687000094913,1571.4916706999938,None,1.7735687000094913,1573.2900782999932,None,1573.793770999997,None,1573.793770999997,None,r,1.5755119000095874,1573.793770999997,None,1.5755119000095874,,,137Sing,001,2023_Oct_26_0939,ProdSingRedoBetween,2021.2.3,59.92423179642026,
,,,,76,0,76,0,,,,,,,,,,,,,,,,,,,,,,1579.1783916999993,None,,,,,,,,,,,,,,,,,platform,51,77,sing,old,blue,1575.9062046999752,None,1575.9062046999752,None,5,2.0471512000076473,1575.9062046999752,None,2.0471512000076473,1577.9804785999877,None,1578.5000928999798,None,1578.5000928999798,None,r,0.6610861000081059,1578.5000928999798,None,0.6610861000081059,,,137Sing,001,2023_Oct_26_0939,ProdSingRedoBetween,2021.2.3,59.92423179642026,
,,,,77,0,77,0,,,,,,,,,,,,,,,,,,,,,,1582.9320435999834,None,,,,,,,,,,,,,,,,,frank,56,78,sing,old,blue,1579.6879063999804,None,1579.6879063999804,None,5,1.0413721000077203,1579.6879063999804,None,1.0413721000077203,1580.7540337999817,None,1581.268130099983,None,1581.268130099983,None,r,1.6370564000098966,1581.268130099983,None,1.6370564000098966,,,137Sing,001,2023_Oct_26_0939,ProdSingRedoBetween,2021.2.3,59.92423179642026,
,,,,78,0,78,0,,,,,,,,,,,,,,,,,,,,,,1586.9711172999814,None,,,,,,,,,,,,,,,,,foundation,35,79,sing,old,blue,1583.4419089999865,None,1583.4419089999865,None,5,2.2234593000030145,1583.4419089999865,None,2.2234593000030145,1585.6895236999844,None,1586.2111271999893,None,1586.2111271999893,None,r,0.7341399999859277,1586.2111271999893,None,0.7341399999859277,,,137Sing,001,2023_Oct_26_0939,ProdSingRedoBetween,2021.2.3,59.92423179642026,
,,,,79,0,79,0,,,,,,,,,,,,,,,,,,,,,,1591.4753017999756,None,,,,,,,,,,,,,,,,,harmony,106,80,sing,new,null,1587.4935637999733,None,1587.4935637999733,None,6,2.3718976999807637,1587.4935637999733,None,2.3718976999807637,1589.899430999998,None,1590.4198538999772,None,1590.4198538999772,None,r,1.0293804999964777,1590.4198538999772,None,1.0293804999964777,,,137Sing,001,2023_Oct_26_0939,ProdSingRedoBetween,2021.2.3,59.92423179642026,
,,,,80,0,80,0,,,,,,,,,,,,,,,,,,,,,,1595.0609694999876,None,,,,,,,,,,,,,,,,,course,53,81,sing,old,blue,1591.9778039999946,None,1591.9778039999946,None,4,1.8796326000010595,1591.9778039999946,None,1.8796326000010595,1593.8809511999716,None,1594.3936698999896,None,1594.3936698999896,None,f,0.6476524000172503,1594.3936698999896,None,0.6476524000172503,,,137Sing,001,2023_Oct_26_0939,ProdSingRedoBetween,2021.2.3,59.92423179642026,
,,,,81,0,81,0,,,,,,,,,,,,,,,,,,,,,,1599.7015886999725,None,,,,,,,,,,,,,,,,,drama,107,82,sing,new,null,1595.5761295999982,None,1595.5761295999982,None,5,2.665114400006132,1595.5761295999982,None,2.665114400006132,1598.2674692999863,None,1598.784988599975,None,1598.784988599975,None,f,0.896357599995099,1598.784988599975,None,0.896357599995099,,,137Sing,001,2023_Oct_26_0939,ProdSingRedoBetween,2021.2.3,59.92423179642026,
,,,,82,0,82,0,,,,,,,,,,,,,,,,,,,,,,1605.272712999984,None,,,,,,,,,,,,,,,,,company,69,83,sing,old,red,1600.2235293999838,None,1600.2235293999838,None,3,3.001917899993714,1600.2235293999838,None,3.001917899993714,1603.2645602999837,None,1603.7715593999892,None,1603.7715593999892,None,f,1.4778349999978673,1603.7715593999892,None,1.4778349999978673,,,137Sing,001,2023_Oct_26_0939,ProdSingRedoBetween,2021.2.3,59.92423179642026,
,,,,83,0,83,0,,,,,,,,,,,,,,,,,,,,,,1611.3438924999791,None,,,,,,,,,,,,,,,,,count,173,84,sing,new,null,1605.7929637999914,None,1605.7929637999914,None,2,4.0884610999783035,1605.7929637999914,None,4.0884610999783035,1609.9178712999856,None,1610.4263472999737,None,1610.4263472999737,None,f,0.8869696999900043,1610.4263472999737,None,0.8869696999900043,,,137Sing,001,2023_Oct_26_0939,ProdSingRedoBetween,2021.2.3,59.92423179642026,
,,,,84,0,84,0,,,,,,,,,,,,,,,,,,,,,,1616.5832277999725,None,,,,,,,,,,,,,,,,,problem,76,85,sing,old,red,1611.8571137999825,None,1611.8571137999825,None,3,2.6561396999750286,1611.8571137999825,None,2.6561396999750286,1614.5329010999994,None,1615.0558694999781,None,1615.0558694999781,None,f,1.497623500006739,1615.0558694999781,None,1.497623500006739,,,137Sing,001,2023_Oct_26_0939,ProdSingRedoBetween,2021.2.3,59.92423179642026,
,,,,85,0,85,0,,,,,,,,,,,,,,,,,,,,,,1621.5039898999967,None,,,,,,,,,,,,,,,,,pattern,32,86,sing,old,blue,1617.0931187999959,None,1617.0931187999959,None,4,2.3403766000119504,1617.0931187999959,None,2.3403766000119504,1619.4632140999893,None,1619.973552499985,None,1619.973552499985,None,r,1.5077243000268936,1619.973552499985,None,1.5077243000268936,,,137Sing,001,2023_Oct_26_0939,ProdSingRedoBetween,2021.2.3,59.92423179642026,
,,,,86,0,86,0,,,,,,,,,,,,,,,,,,,,,,1625.958445599972,None,,,,,,,,,,,,,,,,,native,68,87,sing,old,red,1622.0152438999794,None,1622.0152438999794,None,1,2.1940834999841172,1622.0152438999794,None,2.1940834999841172,1624.2445053999836,None,1624.757334599999,None,1624.757334599999,None,n,1.1720853000006173,1624.757334599999,None,1.1720853000006173,,,137Sing,001,2023_Oct_26_0939,ProdSingRedoBetween,2021.2.3,59.92423179642026,
,,,,87,0,87,0,,,,,,,,,,,,,,,,,,,,,,1633.8043348999927,None,,,,,,,,,,,,,,,,,group,66,88,sing,old,red,1626.4736740999797,None,1626.4736740999797,None,3,4.423498300020583,1626.4736740999797,None,4.423498300020583,1630.9205137999961,None,1631.4367151999904,None,1631.4367151999904,None,f,2.332756200019503,1631.4367151999904,None,2.332756200019503,,,137Sing,001,2023_Oct_26_0939,ProdSingRedoBetween,2021.2.3,59.92423179642026,
,,,,88,0,88,0,,,,,,,,,,,,,,,,,,,,,,1637.653702199983,None,,,,,,,,,,,,,,,,,write,156,89,sing,new,null,1634.3304763999768,None,1634.3304763999768,None,2,1.878885199985234,1634.3304763999768,None,1.878885199985234,1636.2383102999884,None,1636.7608134999755,None,1636.7608134999755,None,n,0.8725416999950539,1636.7608134999755,None,0.8725416999950539,,,137Sing,001,2023_Oct_26_0939,ProdSingRedoBetween,2021.2.3,59.92423179642026,
,,,,89,0,89,0,,,,,,,,,,,,,,,,,,,,,,1642.057827599987,None,,,,,,,,,,,,,,,,,pancakes,70,90,sing,old,red,1638.158224999992,None,1638.158224999992,None,6,2.227250700001605,1638.158224999992,None,2.227250700001605,1640.4137903999945,None,1640.9286655999895,None,1640.9286655999895,None,r,1.1126640999864321,1640.9286655999895,None,1.1126640999864321,,,137Sing,001,2023_Oct_26_0939,ProdSingRedoBetween,2021.2.3,59.92423179642026,
,,,,90,0,90,0,,,,,,,,,,,,,,,,,,,,,,1646.0825425999938,None,,,,,,,,,,,,,,,,,leader,168,91,sing,new,null,1642.5681265999738,None,1642.5681265999738,None,4,1.705250699975295,1642.5681265999738,None,1.705250699975295,1644.3000743999728,None,1644.8129852999991,None,1644.8129852999991,None,f,1.2444591000094078,1644.8129852999991,None,1.2444591000094078,,,137Sing,001,2023_Oct_26_0939,ProdSingRedoBetween,2021.2.3,59.92423179642026,
,,,,91,0,91,0,,,,,,,,,,,,,,,,,,,,,,1661.612522099982,None,,,,,,,,,,,,,,,,,resistance,82,92,sing,old,red,1646.6044718999765,None,1646.6044718999765,None,3,6.676952400011942,1646.6044718999765,None,6.676952400011942,1653.3097297999775,None,1653.8210799999943,None,1653.8210799999943,None,f,7.764298399997642,1653.8210799999943,None,7.764298399997642,,,137Sing,001,2023_Oct_26_0939,ProdSingRedoBetween,2021.2.3,59.92423179642026,
,,,,92,0,92,0,,,,,,,,,,,,,,,,,,,,,,1667.4690174999996,None,,,,,,,,,,,,,,,,,century,29,93,sing,old,blue,1662.1428308999748,None,1662.1428308999748,None,4,2.906533400004264,1662.1428308999748,None,2.906533400004264,1665.066662999976,None,1665.5851220999903,None,1665.5851220999903,None,r,1.856422200013185,1665.5851220999903,None,1.856422200013185,,,137Sing,001,2023_Oct_26_0939,ProdSingRedoBetween,2021.2.3,59.92423179642026,
,,,,93,0,93,0,,,,,,,,,,,,,,,,,,,,,,1672.7571137999767,None,,,,,,,,,,,,,,,,,master,105,94,sing,new,null,1667.9980897999776,None,1667.9980897999776,None,2,2.5072529000171926,1667.9980897999776,None,2.5072529000171926,1670.5393029999977,None,1671.0536303999834,None,1671.0536303999834,None,n,1.6837182999879587,1671.0536303999834,None,1.6837182999879587,,,137Sing,001,2023_Oct_26_0939,ProdSingRedoBetween,2021.2.3,59.92423179642026,
,,,,94,0,94,0,,,,,,,,,,,,,,,,,,,,,,1679.1298821999808,None,,,,,,,,,,,,,,,,,running,58,95,sing,old,blue,1673.2823126000003,None,1673.2823126000003,None,2,3.1990260000166018,1673.2823126000003,None,3.1990260000166018,1676.5107870999782,None,1677.0356066999957,None,1677.0356066999957,None,r,2.0698591000109445,1677.0356066999957,None,2.0698591000109445,,,137Sing,001,2023_Oct_26_0939,ProdSingRedoBetween,2021.2.3,59.92423179642026,
,,,,95,0,95,0,,,,,,,,,,,,,,,,,,,,,,1685.8528980999836,None,,,,,,,,,,,,,,,,,member,160,96,sing,new,null,1679.6490354999842,None,1679.6490354999842,None,5,4.736539900011849,1679.6490354999842,None,4.736539900011849,1684.4218944999739,None,1684.9403439999733,None,1684.9403439999733,None,f,0.8930462999851443,1684.9403439999733,None,0.8930462999851443,,,137Sing,001,2023_Oct_26_0939,ProdSingRedoBetween,2021.2.3,59.92423179642026,
,,,,96,0,96,0,,,,,,,,,,,,,,,,,,,,,,1690.874938199995,None,,,,,,,,,,,,,,,,,watch,62,97,sing,old,red,1686.3606725999853,None,1686.3606725999853,None,3,1.6166848999855574,1686.3606725999853,None,1.6166848999855574,1688.0102809999953,None,1688.5265247999923,None,1688.5265247999923,None,n,2.33097579999594,1688.5265247999923,None,2.33097579999594,,,137Sing,001,2023_Oct_26_0939,ProdSingRedoBetween,2021.2.3,59.92423179642026,
,,,,97,0,97,0,,,,,,,,,,,,,,,,,,,,,,1695.9801177999761,None,,,,,,,,,,,,,,,,,plane,49,98,sing,old,blue,1691.394312199991,None,1691.394312199991,None,2,1.9912828999804333,1691.394312199991,None,1.9912828999804333,1693.4191264999972,None,1693.9313145999913,None,1693.9313145999913,None,n,2.030103400000371,1693.9313145999913,None,2.030103400000371,,,137Sing,001,2023_Oct_26_0939,ProdSingRedoBetween,2021.2.3,59.92423179642026,
,,,,98,0,98,0,,,,,,,,,,,,,,,,,,,,,,1699.818366899999,None,,,,,,,,,,,,,,,,,dance,2,99,sing,old,yellow,1696.4975662999786,None,1696.4975662999786,None,4,1.9998750000086147,1696.4975662999786,None,1.9998750000086147,1698.519857599982,None,1699.0317001999938,None,1699.0317001999938,None,r,0.7617975999892224,1699.0317001999938,None,0.7617975999892224,,,137Sing,001,2023_Oct_26_0939,ProdSingRedoBetween,2021.2.3,59.92423179642026,
,,,,99,0,99,0,,,,,,,,,,,,,,,,,,,,,,1706.8893797999772,None,,,,,,,,,,,,,,,,,exchange,61,100,sing,old,red,1700.3389555999893,None,1700.3389555999893,None,1,5.550465699983761,1700.3389555999893,None,5.550465699983761,1705.9084327999735,None,1706.4310416999797,None,1706.4310416999797,None,n,0.44229450001148507,1706.4310416999797,None,0.44229450001148507,,,137Sing,001,2023_Oct_26_0939,ProdSingRedoBetween,2021.2.3,59.92423179642026,
,,,,100,0,100,0,,,,,,,,,,,,,,,,,,,,,,1713.7795756999985,None,,,,,,,,,,,,,,,,,profession,157,101,sing,new,null,1707.3997659999877,None,1707.3997659999877,None,5,5.337675999995554,1707.3997659999877,None,5.337675999995554,1712.7653346999723,None,1713.2846476999985,None,1713.2846476999985,None,r,0.4766814000031445,1713.2846476999985,None,0.4766814000031445,,,137Sing,001,2023_Oct_26_0939,ProdSingRedoBetween,2021.2.3,59.92423179642026,
,,,,101,0,101,0,,,,,,,,,,,,,,,,,,,,,,1717.1507843999716,None,,,,,,,,,,,,,,,,,partner,101,102,sing,new,null,1714.2956176999724,None,1714.2956176999724,None,3,1.3937513999990188,1714.2956176999724,None,1.3937513999990188,1715.7182794999972,None,1716.2422240999877,None,1716.2422240999877,None,f,0.8793056999857072,1716.2422240999877,None,0.8793056999857072,,,137Sing,001,2023_Oct_26_0939,ProdSingRedoBetween,2021.2.3,59.92423179642026,
,,,,102,0,102,0,,,,,,,,,,,,,,,,,,,,,,1726.358843999973,None,,,,,,,,,,,,,,,,,character,33,103,sing,old,blue,1717.6545428999816,None,1717.6545428999816,None,2,5.1630434000107925,1717.6545428999816,None,5.1630434000107925,1722.8455754999886,None,1723.3588411999808,None,1723.3588411999808,None,f,2.978624999988824,1723.3588411999808,None,2.978624999988824,,,137Sing,001,2023_Oct_26_0939,ProdSingRedoBetween,2021.2.3,59.92423179642026,
,,,,103,0,103,0,,,,,,,,,,,,,,,,,,,,,,1729.9143508999841,None,,,,,,,,,,,,,,,,,color,45,104,sing,old,blue,1726.867869699985,None,1726.867869699985,None,5,1.4776262999803293,1726.867869699985,None,1.4776262999803293,1728.3652251999883,None,1728.880897999974,None,1728.880897999974,None,f,1.0085579000005964,1728.880897999974,None,1.0085579000005964,,,137Sing,001,2023_Oct_26_0939,ProdSingRedoBetween,2021.2.3,59.92423179642026,
,,,,104,0,104,0,,,,,,,,,,,,,,,,,,,,,,1735.7686183999758,None,,,,,,,,,,,,,,,,,region,80,105,sing,old,red,1730.4395999999833,None,1730.4395999999833,None,4,3.6339075999858323,1730.4395999999833,None,3.6339075999858323,1734.1053332999873,None,1734.6172415999754,None,1734.6172415999754,None,r,1.128270099987276,1734.6172415999754,None,1.128270099987276,,,137Sing,001,2023_Oct_26_0939,ProdSingRedoBetween,2021.2.3,59.92423179642026,
,,,,105,0,105,0,,,,,,,,,,,,,,,,,,,,,,1739.7889265999838,None,,,,,,,,,,,,,,,,,universal,121,106,sing,new,null,1736.2867618999735,None,1736.2867618999735,None,4,1.8346901999902911,1736.2867618999735,None,1.8346901999902911,1738.142452799977,None,1738.6582578999805,None,1738.6582578999805,None,f,1.1112209999992047,1738.6582578999805,None,1.1112209999992047,,,137Sing,001,2023_Oct_26_0939,ProdSingRedoBetween,2021.2.3,59.92423179642026,
,,,,106,0,106,0,,,,,,,,,,,,,,,,,,,,,,1748.0502191999985,None,,,,,,,,,,,,,,,,,season,71,107,sing,old,red,1740.303135299997,None,1740.303135299997,None,3,5.1383513000037055,1740.303135299997,None,5.1383513000037055,1745.4650567999925,None,1745.9857378999877,None,1745.9857378999877,None,f,2.0399196000071242,1745.9857378999877,None,2.0399196000071242,,,137Sing,001,2023_Oct_26_0939,ProdSingRedoBetween,2021.2.3,59.92423179642026,
,,,,107,0,107,0,,,,,,,,,,,,,,,,,,,,,,1751.6007271999842,None,,,,,,,,,,,,,,,,,height,15,108,sing,old,yellow,1748.5735057999846,None,1748.5735057999846,None,1,1.548095200007083,1748.5735057999846,None,1.548095200007083,1750.158430999989,None,1750.670654299989,None,1750.670654299989,None,r,0.8988163999747485,1750.670654299989,None,0.8988163999747485,,,137Sing,001,2023_Oct_26_0939,ProdSingRedoBetween,2021.2.3,59.92423179642026,
,,,,108,0,108,0,,,,,,,,,,,,,,,,,,,,,,1757.7930376000004,None,,,,,,,,,,,,,,,,,colonel,110,109,sing,new,null,1752.1083012999734,None,1752.1083012999734,None,1,4.333335800009081,1752.1083012999734,None,4.333335800009081,1756.4798323999858,None,1756.9897044999816,None,1756.9897044999816,None,n,0.7798672000062652,1756.9897044999816,None,0.7798672000062652,,,137Sing,001,2023_Oct_26_0939,ProdSingRedoBetween,2021.2.3,59.92423179642026,
,,,,109,0,109,0,,,,,,,,,,,,,,,,,,,,,,1760.9654257999791,None,,,,,,,,,,,,,,,,,rural,170,110,sing,new,null,1758.3131943999906,None,1758.3131943999906,None,1,1.4083020000252873,1758.3131943999906,None,1.4083020000252873,1759.7444573999965,None,1760.2606402999954,None,1760.2606402999954,None,n,0.6690322000067681,1760.2606402999954,None,0.6690322000067681,,,137Sing,001,2023_Oct_26_0939,ProdSingRedoBetween,2021.2.3,59.92423179642026,
,,,,110,0,110,0,,,,,,,,,,,,,,,,,,,,,,1768.4842951999744,None,,,,,,,,,,,,,,,,,health,9,111,sing,old,yellow,1761.4857583999983,None,1761.4857583999983,None,5,4.971803900029045,1761.4857583999983,None,4.971803900029045,1766.4935910999775,None,1767.0046240999945,None,1767.0046240999945,None,r,1.4527197999996133,1767.0046240999945,None,1.4527197999996133,,,137Sing,001,2023_Oct_26_0939,ProdSingRedoBetween,2021.2.3,59.92423179642026,
,,,,111,0,111,0,,,,,,,,,,,,,,,,,,,,,,1775.7604477999848,None,,,,,,,,,,,,,,,,,production,149,112,sing,new,null,1768.993167699984,None,1768.993167699984,None,2,4.080552300001727,1768.993167699984,None,4.080552300001727,1773.0991333999846,None,1773.6088133999729,None,1773.6088133999729,None,f,2.1208404999924824,1773.6088133999729,None,2.1208404999924824,,,137Sing,001,2023_Oct_26_0939,ProdSingRedoBetween,2021.2.3,59.92423179642026,
,,,,112,0,112,0,,,,,,,,,,,,,,,,,,,,,,1780.4336557999777,None,,,,,,,,,,,,,,,,,career,128,113,sing,new,null,1776.2812591999827,None,1776.2812591999827,None,5,2.53614280000329,1776.2812591999827,None,2.53614280000329,1778.845362699998,None,1779.347648999974,None,1779.347648999974,None,f,1.0619753999926616,1779.347648999974,None,1.0619753999926616,,,137Sing,001,2023_Oct_26_0939,ProdSingRedoBetween,2021.2.3,59.92423179642026,
,,,,113,0,113,0,,,,,,,,,,,,,,,,,,,,,,1783.8245180999802,None,,,,,,,,,,,,,,,,,captain,165,114,sing,new,null,1780.954624099977,None,1780.954624099977,None,1,1.0868782000034116,1780.954624099977,None,1.0868782000034116,1782.0658384999842,None,1782.569109199976,None,1782.569109199976,None,n,1.2326047000242397,1782.569109199976,None,1.2326047000242397,,,137Sing,001,2023_Oct_26_0939,ProdSingRedoBetween,2021.2.3,59.92423179642026,
,,,,114,0,114,0,,,,,,,,,,,,,,,,,,,,,,1788.106647699984,None,,,,,,,,,,,,,,,,,permit,84,115,sing,old,red,1784.3437125999772,None,1784.3437125999772,None,2,2.161986599996453,1784.3437125999772,None,2.161986599996453,1786.5412963999843,None,1787.0543530999857,None,1787.0543530999857,None,f,1.0272645000077318,1787.0543530999857,None,1.0272645000077318,,,137Sing,001,2023_Oct_26_0939,ProdSingRedoBetween,2021.2.3,59.92423179642026,
,,,,115,0,115,0,,,,,,,,,,,,,,,,,,,,,,1796.8624864999729,None,,,,,,,,,,,,,,,,,general,59,116,sing,old,yellow,1788.6252014999918,None,1788.6252014999918,None,3,5.592458200000692,1788.6252014999918,None,5.592458200000692,1794.2500303999986,None,1794.7676378999895,None,1794.7676378999895,None,f,2.065972000011243,1794.7676378999895,None,2.065972000011243,,,137Sing,001,2023_Oct_26_0939,ProdSingRedoBetween,2021.2.3,59.92423179642026,
,,,,116,0,116,0,,,,,,,,,,,,,,,,,,,,,,1801.1837474999775,None,,,,,,,,,,,,,,,,,individual,99,117,sing,new,null,1797.3743663999776,None,1797.3743663999776,None,1,1.9552474000083748,1797.3743663999776,None,1.9552474000083748,1799.3496534999867,None,1799.854692199995,None,1799.854692199995,None,f,1.3068194999941625,1799.854692199995,None,1.3068194999941625,,,137Sing,001,2023_Oct_26_0939,ProdSingRedoBetween,2021.2.3,59.92423179642026,
,,,,117,0,117,0,,,,,,,,,,,,,,,,,,,,,,1806.0750749,None,,,,,,,,,,,,,,,,,marriage,67,118,sing,old,red,1801.692749299982,None,1801.692749299982,None,4,3.2129573000129312,1801.692749299982,None,3.2129573000129312,1804.9294632999809,None,1805.4393941999879,None,1805.4393941999879,None,r,0.6102399000083096,1805.4393941999879,None,0.6102399000083096,,,137Sing,001,2023_Oct_26_0939,ProdSingRedoBetween,2021.2.3,59.92423179642026,
,,,,118,0,118,0,,,,,,,,,,,,,,,,,,,,,,1811.8134120999894,None,,,,,,,,,,,,,,,,,division,122,119,sing,new,null,1806.5995525999751,None,1806.5995525999751,None,2,2.4901771000004373,1806.5995525999751,None,2.4901771000004373,1809.1170923999744,None,1809.6297833999852,None,1809.6297833999852,None,n,2.155872500006808,1809.6297833999852,None,2.155872500006808,,,137Sing,001,2023_Oct_26_0939,ProdSingRedoBetween,2021.2.3,59.92423179642026,
,,,,119,0,119,0,,,,,,,,,,,,,,,,,,,,,,1816.7177762999781,None,,,,,,,,,,,,,,,,,trial,42,120,sing,old,blue,1812.3330554999993,None,1812.3330554999993,None,6,3.3965641999966465,1812.3330554999993,None,3.3965641999966465,1815.7482875999995,None,1816.253254499985,None,1816.253254499985,None,r,0.4443074000009801,1816.253254499985,None,0.4443074000009801,,,137Sing,001,2023_Oct_26_0939,ProdSingRedoBetween,2021.2.3,59.92423179642026,
,,,,120,0,120,0,,,,,,,,,,,,,,,,,,,,,,1822.221761599998,None,,,,,,,,,,,,,,,,,scale,10,121,sing,old,yellow,1817.2470671999909,None,1817.2470671999909,None,2,3.458576400007587,1817.2470671999909,None,3.458576400007587,1820.7411734999914,None,1821.2638840999862,None,1821.2638840999862,None,f,0.9378130999975838,1821.2638840999862,None,0.9378130999975838,,,137Sing,001,2023_Oct_26_0939,ProdSingRedoBetween,2021.2.3,59.92423179642026,
,,,,121,0,121,0,,,,,,,,,,,,,,,,,,,,,,1828.143794499978,None,,,,,,,,,,,,,,,,,article,38,122,sing,old,blue,1822.7360891999851,None,1822.7360891999851,None,1,3.433504200016614,1822.7360891999851,None,3.433504200016614,1826.1969878999807,None,1826.7154408999777,None,1826.7154408999777,None,n,1.398176600021543,1826.7154408999777,None,1.398176600021543,,,137Sing,001,2023_Oct_26_0939,ProdSingRedoBetween,2021.2.3,59.92423179642026,
,,,,122,0,122,0,,,,,,,,,,,,,,,,,,,,,,1832.8195868999755,None,,,,,,,,,,,,,,,,,rapid,155,123,sing,new,null,1828.6483447999926,None,1828.6483447999926,None,3,2.5293261999904644,1828.6483447999926,None,2.5293261999904644,1831.2059731999761,None,1831.7154064999777,None,1831.7154064999777,None,f,1.0783427999995183,1831.7154064999777,None,1.0783427999995183,,,137Sing,001,2023_Oct_26_0939,ProdSingRedoBetween,2021.2.3,59.92423179642026,
,,,,123,0,123,0,,,,,,,,,,,,,,,,,,,,,,1838.821340399998,None,,,,,,,,,,,,,,,,,solution,25,124,sing,old,yellow,1833.344170299999,None,1833.344170299999,None,2,3.113457200000994,1833.344170299999,None,3.113457200000994,1836.4925581999996,None,1837.0029039999936,None,1837.0029039999936,None,f,1.7986475999932736,1837.0029039999936,None,1.7986475999932736,,,137Sing,001,2023_Oct_26_0939,ProdSingRedoBetween,2021.2.3,59.92423179642026,
,,,,124,0,124,0,,,,,,,,,,,,,,,,,,,,,,1847.165759699972,None,,,,,,,,,,,,,,,,,science,176,125,sing,new,null,1839.3308686999953,None,1839.3308686999953,None,3,4.742857100005494,1839.3308686999953,None,4.742857100005494,1844.1033029999817,None,1844.616270599974,None,1844.616270599974,None,f,2.529444199986756,1844.616270599974,None,2.529444199986756,,,137Sing,001,2023_Oct_26_0939,ProdSingRedoBetween,2021.2.3,59.92423179642026,
,,,,125,0,125,0,,,,,,,,,,,,,,,,,,,,,,1850.7499077999964,None,,,,,,,,,,,,,,,,,music,159,126,sing,new,null,1847.6893010999775,None,1847.6893010999775,None,5,1.4722517000045627,1847.6893010999775,None,1.4722517000045627,1849.183640299976,None,1849.7001244999992,None,1849.7001244999992,None,r,1.029474000009941,1849.7001244999992,None,1.029474000009941,,,137Sing,001,2023_Oct_26_0939,ProdSingRedoBetween,2021.2.3,59.92423179642026,
,,,,126,0,126,0,,,,,,,,,,,,,,,,,,,,,,1857.2422597999976,None,,,,,,,,,,,,,,,,,carry,93,127,sing,new,null,1851.260730399983,None,1851.260730399983,None,2,1.6209995999815874,1851.260730399983,None,1.6209995999815874,1852.9139432999946,None,1853.4214932999748,None,1853.4214932999748,None,f,3.7882495000085328,1853.4214932999748,None,3.7882495000085328,,,137Sing,001,2023_Oct_26_0939,ProdSingRedoBetween,2021.2.3,59.92423179642026,
,,,,127,0,127,0,,,,,,,,,,,,,,,,,,,,,,1866.787053899985,None,,,,,,,,,,,,,,,,,thing,1,128,sing,old,yellow,1857.7667623999878,None,1857.7667623999878,None,5,7.082947599992622,1857.7667623999878,None,7.082947599992622,1864.8814103999757,None,1865.3835125999758,None,1865.3835125999758,None,r,1.3703334000019822,1865.3835125999758,None,1.3703334000019822,,,137Sing,001,2023_Oct_26_0939,ProdSingRedoBetween,2021.2.3,59.92423179642026,
,,,,128,0,128,0,,,,,,,,,,,,,,,,,,,,,,1874.4262392999954,None,,,,,,,,,,,,,,,,,community,119,129,sing,new,null,1867.308081999974,None,1867.308081999974,None,6,5.301778699998977,1867.308081999974,None,5.301778699998977,1872.6424031999777,None,1873.1614958999853,None,1873.1614958999853,None,f,1.2323244000144769,1873.1614958999853,None,1.2323244000144769,,,137Sing,001,2023_Oct_26_0939,ProdSingRedoBetween,2021.2.3,59.92423179642026,
,,,,129,0,129,0,,,,,,,,,,,,,,,,,,,,,,1880.8466481999785,None,,,,,,,,,,,,,,,,,shock,90,130,sing,new,null,1874.94950409999,None,1874.94950409999,None,2,1.6203312999859918,1874.94950409999,None,1.6203312999859918,1876.6016848,None,1877.1114561999857,None,1877.1114561999857,None,n,3.7143119999964256,1877.1114561999857,None,3.7143119999964256,,,137Sing,001,2023_Oct_26_0939,ProdSingRedoBetween,2021.2.3,59.92423179642026,
,,,,130,0,130,0,,,,,,,,,,,,,,,,,,,,,,1887.8746315999888,None,,,,,,,,,,,,,,,,,population,57,131,sing,old,blue,1881.3640671999892,None,1881.3640671999892,None,2,4.957608700002311,1881.3640671999892,None,4.957608700002311,1886.359820099984,None,1886.8753925999918,None,1886.8753925999918,None,f,0.9744791999983136,1886.8753925999918,None,0.9744791999983136,,,137Sing,001,2023_Oct_26_0939,ProdSingRedoBetween,2021.2.3,59.92423179642026,
,,,,131,0,131,0,,,,,,,,,,,,,,,,,,,,,,1894.9274630999716,None,,,,,,,,,,,,,,,,,comfort,0,132,sing,old,yellow,1888.3967377999797,None,1888.3967377999797,None,3,3.78908479999518,1888.3967377999797,None,3.78908479999518,1892.2196889999905,None,1892.729091199988,None,1892.729091199988,None,f,2.17667449999135,1892.729091199988,None,2.17667449999135,,,137Sing,001,2023_Oct_26_0939,ProdSingRedoBetween,2021.2.3,59.92423179642026,
,,,,132,0,132,0,,,,,,,,,,,,,,,,,,,,,,1900.884260699997,None,,,,,,,,,,,,,,,,,country,30,133,sing,old,blue,1895.4317603999807,None,1895.4317603999807,None,3,4.0020073000050616,1895.4317603999807,None,4.0020073000050616,1899.454689599981,None,1899.970862999995,None,1899.970862999995,None,r,0.886870699992869,1899.970862999995,None,0.886870699992869,,,137Sing,001,2023_Oct_26_0939,ProdSingRedoBetween,2021.2.3,59.92423179642026,
,,,,133,0,133,0,,,,,,,,,,,,,,,,,,,,,,1907.1076506999962,None,,,,,,,,,,,,,,,,,suspect,21,134,sing,old,yellow,1901.4014060999907,None,1901.4014060999907,None,2,4.088283000019146,1901.4014060999907,None,4.088283000019146,1905.5095280999958,None,1906.0277410999988,None,1906.0277410999988,None,n,1.062075099995127,1906.0277410999988,None,1.062075099995127,,,137Sing,001,2023_Oct_26_0939,ProdSingRedoBetween,2021.2.3,59.92423179642026,
,,,,134,0,134,0,,,,,,,,,,,,,,,,,,,,,,1910.9769626999914,None,,,,,,,,,,,,,,,,,estate,55,135,sing,old,blue,1907.6113328999782,None,1907.6113328999782,None,2,2.3664919000002556,1907.6113328999782,None,2.3664919000002556,1910.0005488999886,None,1910.5159355999785,None,1910.5159355999785,None,n,0.44569659998524,1910.5159355999785,None,0.44569659998524,,,137Sing,001,2023_Oct_26_0939,ProdSingRedoBetween,2021.2.3,59.92423179642026,
,,,,135,0,135,0,,,,,,,,,,,,,,,,,,,,,,1915.0506337999832,None,,,,,,,,,,,,,,,,,candidate,103,136,sing,new,null,1911.4865554999851,None,1911.4865554999851,None,6,2.219142699992517,1911.4865554999851,None,2.219142699992517,1913.731830499979,None,1914.2512399999832,None,1914.2512399999832,None,r,0.7746588000154588,1914.2512399999832,None,0.7746588000154588,,,137Sing,001,2023_Oct_26_0939,ProdSingRedoBetween,2021.2.3,59.92423179642026,
,,,,136,0,136,0,,,,,,,,,,,,,,,,,,,,,,1921.1036490999977,None,,,,,,,,,,,,,,,,,narrow,77,137,sing,old,red,1915.5743663999892,None,1915.5743663999892,None,3,4.219394900021143,1915.5743663999892,None,4.219394900021143,1919.8246754999855,None,1920.3387802999932,None,1920.3387802999932,None,f,0.7349127000197768,1920.3387802999932,None,0.7349127000197768,,,137Sing,001,2023_Oct_26_0939,ProdSingRedoBetween,2021.2.3,59.92423179642026,
,,,,137,0,137,0,,,,,,,,,,,,,,,,,,,,,,1927.8604390999826,None,,,,,,,,,,,,,,,,,agreement,113,138,sing,new,null,1921.6145109999925,None,1921.6145109999925,None,4,4.611320900003193,1921.6145109999925,None,4.611320900003193,1926.2471137999964,None,1926.764536999981,None,1926.764536999981,None,f,1.0772772000054829,1926.764536999981,None,1.0772772000054829,,,137Sing,001,2023_Oct_26_0939,ProdSingRedoBetween,2021.2.3,59.92423179642026,
,,,,138,0,138,0,,,,,,,,,,,,,,,,,,,,,,1932.3340202999825,None,,,,,,,,,,,,,,,,,title,139,139,sing,new,null,1928.366900299996,None,1928.366900299996,None,4,1.6348051000095438,1928.366900299996,None,1.6348051000095438,1930.034240399982,None,1930.555420699995,None,1930.555420699995,None,f,1.750402200006647,1930.555420699995,None,1.750402200006647,,,137Sing,001,2023_Oct_26_0939,ProdSingRedoBetween,2021.2.3,59.92423179642026,
,,,,139,0,139,0,,,,,,,,,,,,,,,,,,,,,,1936.6543886999716,None,,,,,,,,,,,,,,,,,space,147,140,sing,new,null,1932.8560179999913,None,1932.8560179999913,None,2,1.8336253000015859,1932.8560179999913,None,1.8336253000015859,1934.7171001999814,None,1935.2243501999765,None,1935.2243501999765,None,n,1.4093947999936063,1935.2243501999765,None,1.4093947999936063,,,137Sing,001,2023_Oct_26_0939,ProdSingRedoBetween,2021.2.3,59.92423179642026,
,,,,140,0,140,0,,,,,,,,,,,,,,,,,,,,,,1940.6439246999798,None,,,,,,,,,,,,,,,,,poetry,117,141,sing,new,null,1937.1847338999796,None,1937.1847338999796,None,2,2.329114899999695,1937.1847338999796,None,2.329114899999695,1939.544322199974,None,1940.0561730999907,None,1940.0561730999907,None,n,0.5537024000077508,1940.0561730999907,None,0.5537024000077508,,,137Sing,001,2023_Oct_26_0939,ProdSingRedoBetween,2021.2.3,59.92423179642026,
,,,,141,0,141,0,,,,,,,,,,,,,,,,,,,,,,1943.7633677999838,None,,,,,,,,,,,,,,,,,breath,3,142,sing,old,yellow,1941.162764299981,None,1941.162764299981,None,6,1.382961700001033,1941.162764299981,None,1.382961700001033,1942.5924108999898,None,1943.0946515999967,None,1943.0946515999967,None,r,0.635378100007074,1943.0946515999967,None,0.635378100007074,,,137Sing,001,2023_Oct_26_0939,ProdSingRedoBetween,2021.2.3,59.92423179642026,
,,,,142,0,142,0,,,,,,,,,,,,,,,,,,,,,,1947.8805192999716,None,,,,,,,,,,,,,,,,,shape,115,143,sing,new,null,1944.2881792999979,None,1944.2881792999979,None,3,2.2577179000072647,1944.2881792999979,None,2.2577179000072647,1946.5727667999745,None,1947.0795754999854,None,1947.0795754999854,None,f,0.7781360000080895,1947.0795754999854,None,0.7781360000080895,,,137Sing,001,2023_Oct_26_0939,ProdSingRedoBetween,2021.2.3,59.92423179642026,
,,,,143,0,143,0,,,,,,,,,,,,,,,,,,,,,,1952.4560712999955,None,,,,,,,,,,,,,,,,,equipment,22,144,sing,old,yellow,1948.391851399996,None,1948.391851399996,None,2,2.569900200003758,1948.391851399996,None,2.569900200003758,1950.9894308999937,None,1951.5052206999972,None,1951.5052206999972,None,n,0.9286967999942135,1951.5052206999972,None,0.9286967999942135,,,137Sing,001,2023_Oct_26_0939,ProdSingRedoBetween,2021.2.3,59.92423179642026,
,,,,144,0,144,0,,,,,,,,,,,,,,,,,,,,,,1956.5555709999753,None,,,,,,,,,,,,,,,,,stranger,116,145,sing,new,null,1952.9812300999765,None,1952.9812300999765,None,2,2.3326341999927536,1952.9812300999765,None,2.3326341999927536,1955.3440501999867,None,1955.8553102999867,None,1955.8553102999867,None,n,0.6744602999824565,1955.8553102999867,None,0.6744602999824565,,,137Sing,001,2023_Oct_26_0939,ProdSingRedoBetween,2021.2.3,59.92423179642026,
,,,,145,0,145,0,,,,,,,,,,,,,,,,,,,,,,1964.2154166999971,None,,,,,,,,,,,,,,,,,place,19,146,sing,old,yellow,1957.059389699978,None,1957.059389699978,None,3,5.062480599997798,1957.059389699978,None,5.062480599997798,1962.1506771999993,None,1962.6648284999828,None,1962.6648284999828,None,r,1.5289532000024337,1962.6648284999828,None,1.5289532000024337,,,137Sing,001,2023_Oct_26_0939,ProdSingRedoBetween,2021.2.3,59.92423179642026,
,,,,146,0,146,0,,,,,,,,,,,,,,,,,,,,,,1969.8227938999771,None,,,,,,,,,,,,,,,,,people,73,147,sing,old,red,1964.7428876999766,None,1964.7428876999766,None,5,3.282918699987931,1964.7428876999766,None,3.282918699987931,1968.0605036999914,None,1968.568952599977,None,1968.568952599977,None,r,1.2249692999757826,1968.568952599977,None,1.2249692999757826,,,137Sing,001,2023_Oct_26_0939,ProdSingRedoBetween,2021.2.3,59.92423179642026,
,,,,147,0,147,0,,,,,,,,,,,,,,,,,,,,,,1973.8562541999854,None,,,,,,,,,,,,,,,,,track,91,148,sing,new,null,1970.348757299973,None,1970.348757299973,None,2,2.173004000011133,1970.348757299973,None,2.173004000011133,1972.542200899974,None,1973.0655436999805,None,1973.0655436999805,None,n,0.7682963999977801,1973.0655436999805,None,0.7682963999977801,,,137Sing,001,2023_Oct_26_0939,ProdSingRedoBetween,2021.2.3,59.92423179642026,
,,,,148,0,148,0,,,,,,,,,,,,,,,,,,,,,,1981.7643237999873,None,,,,,,,,,,,,,,,,,capital,144,149,sing,new,null,1974.3717449999822,None,1974.3717449999822,None,4,5.862095799995586,1974.3717449999822,None,5.862095799995586,1980.268578599993,None,1980.7854360999772,None,1980.7854360999772,None,f,0.9603132999909576,1980.7854360999772,None,0.9603132999909576,,,137Sing,001,2023_Oct_26_0939,ProdSingRedoBetween,2021.2.3,59.92423179642026,
,,,,149,0,149,0,,,,,,,,,,,,,,,,,,,,,,1985.9215071999934,None,,,,,,,,,,,,,,,,,citizen,26,150,sing,old,yellow,1982.278456799977,None,1982.278456799977,None,3,2.395290999993449,1982.278456799977,None,2.395290999993449,1984.703866899974,None,1985.2263729999831,None,1985.2263729999831,None,n,0.6715649999969173,1985.2263729999831,None,0.6715649999969173,,,137Sing,001,2023_Oct_26_0939,ProdSingRedoBetween,2021.2.3,59.92423179642026,
,,,,150,0,150,0,,,,,,,,,,,,,,,,,,,,,,1994.9108374999778,None,,,,,,,,,,,,,,,,,threat,175,151,sing,new,null,1986.4418396999827,None,1986.4418396999827,None,3,5.904185499995947,1986.4418396999827,None,5.904185499995947,1992.3838539999851,None,1992.8954111999774,None,1992.8954111999774,None,n,1.9943326000066008,1992.8954111999774,None,1.9943326000066008,,,137Sing,001,2023_Oct_26_0939,ProdSingRedoBetween,2021.2.3,59.92423179642026,
,,,,151,0,151,0,,,,,,,,,,,,,,,,,,,,,,2001.2504333999823,None,,,,,,,,,,,,,,,,,surprise,100,152,sing,new,null,1995.4216149999993,None,1995.4216149999993,None,3,3.5803591999865603,1995.4216149999993,None,3.5803591999865603,1999.043532199983,None,1999.5518194999895,None,1999.5518194999895,None,f,1.6819525000173599,1999.5518194999895,None,1.6819525000173599,,,137Sing,001,2023_Oct_26_0939,ProdSingRedoBetween,2021.2.3,59.92423179642026,
,,,,152,0,152,0,,,,,,,,,,,,,,,,,,,,,,2009.0585983999772,None,,,,,,,,,,,,,,,,,trend,145,153,sing,new,null,2001.7592052999826,None,2001.7592052999826,None,4,4.9306555000075605,2001.7592052999826,None,4.9306555000075605,2006.7108343999716,None,2007.2233360999962,None,2007.2233360999962,None,f,1.8186569999961648,2007.2233360999962,None,1.8186569999961648,,,137Sing,001,2023_Oct_26_0939,ProdSingRedoBetween,2021.2.3,59.92423179642026,
,,,,153,0,153,0,,,,,,,,,,,,,,,,,,,,,,2017.267879799998,None,,,,,,,,,,,,,,,,,voice,104,154,sing,new,null,2009.5737999999837,None,2009.5737999999837,None,4,5.772172099997988,2009.5737999999837,None,5.772172099997988,2015.3698186999827,None,2015.8888324,None,2015.8888324,None,r,1.3611039999814238,2015.8888324,None,1.3611039999814238,,,137Sing,001,2023_Oct_26_0939,ProdSingRedoBetween,2021.2.3,59.92423179642026,
,,,,154,0,154,0,,,,,,,,,,,,,,,,,,,,,,2022.2943216999993,None,,,,,,,,,,,,,,,,,victory,46,155,sing,old,blue,2017.7727323999861,None,2017.7727323999861,None,3,1.701221200026339,2017.7727323999861,None,1.701221200026339,2019.5133446999826,None,2020.0224751999776,None,2020.0224751999776,None,f,2.235426600003848,2020.0224751999776,None,2.235426600003848,,,137Sing,001,2023_Oct_26_0939,ProdSingRedoBetween,2021.2.3,59.92423179642026,
,,,,155,0,155,0,,,,,,,,,,,,,,,,,,,,,,2030.520530699985,None,,,,,,,,,,,,,,,,,session,169,156,sing,new,null,2022.815397999977,None,2022.815397999977,None,4,5.570439300005091,2022.815397999977,None,5.570439300005091,2028.414451299992,None,2028.93627559999,None,2028.93627559999,None,f,1.5537400000030175,2028.93627559999,None,1.5537400000030175,,,137Sing,001,2023_Oct_26_0939,ProdSingRedoBetween,2021.2.3,59.92423179642026,
,,,,156,0,156,0,,,,,,,,,,,,,,,,,,,,,,2038.988212199998,None,,,,,,,,,,,,,,,,,display,65,157,sing,old,red,2031.0407102999743,None,2031.0407102999743,None,5,4.905097099981504,2031.0407102999743,None,4.905097099981504,2035.9716782999749,None,2036.489004699979,None,2036.489004699979,None,r,2.472822499985341,2036.489004699979,None,2.472822499985341,,,137Sing,001,2023_Oct_26_0939,ProdSingRedoBetween,2021.2.3,59.92423179642026,
,,,,157,0,157,0,,,,,,,,,,,,,,,,,,,,,,2042.825686199998,None,,,,,,,,,,,,,,,,,trash,31,158,sing,old,blue,2039.498461399984,None,2039.498461399984,None,2,1.8073185000102967,2039.498461399984,None,1.8073185000102967,2041.327640899981,None,2041.8439457999775,None,2041.8439457999775,None,n,0.9579640000010841,2041.8439457999775,None,0.9579640000010841,,,137Sing,001,2023_Oct_26_0939,ProdSingRedoBetween,2021.2.3,59.92423179642026,
,,,,158,0,158,0,,,,,,,,,,,,,,,,,,,,,,2051.4355906999845,None,,,,,,,,,,,,,,,,,object,172,159,sing,new,null,2043.341939099977,None,2043.341939099977,None,4,6.603852200001711,2043.341939099977,None,6.603852200001711,2049.969430499972,None,2050.492389399995,None,2050.492389399995,None,r,0.9255025000020396,2050.492389399995,None,0.9255025000020396,,,137Sing,001,2023_Oct_26_0939,ProdSingRedoBetween,2021.2.3,59.92423179642026,
,,,,159,0,159,0,,,,,,,,,,,,,,,,,,,,,,2057.9942493999843,None,,,,,,,,,,,,,,,,,reading,24,160,sing,old,yellow,2051.954768699972,None,2051.954768699972,None,2,2.8229228000272997,2051.954768699972,None,2.8229228000272997,2054.804420999979,None,2055.308488599985,None,2055.308488599985,None,f,2.6535719000094105,2055.308488599985,None,2.6535719000094105,,,137Sing,001,2023_Oct_26_0939,ProdSingRedoBetween,2021.2.3,59.92423179642026,
,,,,160,0,160,0,,,,,,,,,,,,,,,,,,,,,,2063.5180477999966,None,,,,,,,,,,,,,,,,,commercial,142,161,sing,new,null,2058.51596769999,None,2058.51596769999,None,2,3.5501769999973476,2058.51596769999,None,3.5501769999973476,2062.1082302999857,None,2062.612005199975,None,2062.612005199975,None,f,0.8779565000149887,2062.612005199975,None,0.8779565000149887,,,137Sing,001,2023_Oct_26_0939,ProdSingRedoBetween,2021.2.3,59.92423179642026,
,,,,161,0,161,0,,,,,,,,,,,,,,,,,,,,,,2073.0223380999814,None,,,,,,,,,,,,,,,,,measure,136,162,sing,new,null,2064.038866399991,None,2064.038866399991,None,5,5.907052399998065,2064.038866399991,None,5.907052399998065,2069.974274899985,None,2070.489826999983,None,2070.489826999983,None,f,2.504121200006921,2070.489826999983,None,2.504121200006921,,,137Sing,001,2023_Oct_26_0939,ProdSingRedoBetween,2021.2.3,59.92423179642026,
,,,,162,0,162,0,,,,,,,,,,,,,,,,,,,,,,2084.051637699973,None,,,,,,,,,,,,,,,,,escape,16,163,sing,old,yellow,2073.536662599974,None,2073.536662599974,None,4,7.545254399999976,2073.536662599974,None,7.545254399999976,2081.1008057999716,None,2081.620172499999,None,2081.620172499999,None,f,2.41376150000724,2081.620172499999,None,2.41376150000724,,,137Sing,001,2023_Oct_26_0939,ProdSingRedoBetween,2021.2.3,59.92423179642026,
,,,,163,0,163,0,,,,,,,,,,,,,,,,,,,,,,2089.3558243999723,None,,,,,,,,,,,,,,,,,bicycle,88,164,sing,old,red,2084.570822299982,None,2084.570822299982,None,1,1.7592342999996617,2084.570822299982,None,1.7592342999996617,2086.360314699996,None,2086.870535599999,None,2086.870535599999,None,f,2.459457899996778,2086.870535599999,None,2.459457899996778,,,137Sing,001,2023_Oct_26_0939,ProdSingRedoBetween,2021.2.3,59.92423179642026,
,,,,164,0,164,0,,,,,,,,,,,,,,,,,,,,,,2094.5118575999804,None,,,,,,,,,,,,,,,,,hunger,133,165,sing,new,null,2089.8650461999932,None,2089.8650461999932,None,1,3.0808491999923717,2089.8650461999932,None,3.0808491999923717,2092.9776282999956,None,2093.498940599995,None,2093.498940599995,None,f,0.9910435000201687,2093.498940599995,None,0.9910435000201687,,,137Sing,001,2023_Oct_26_0939,ProdSingRedoBetween,2021.2.3,59.92423179642026,
,,,,165,0,165,0,,,,,,,,,,,,,,,,,,,,,,2099.248502399976,None,,,,,,,,,,,,,,,,,match,112,166,sing,new,null,2095.0245943999907,None,2095.0245943999907,None,3,2.0494297000113875,2095.0245943999907,None,2.0494297000113875,2097.098668099992,None,2097.621750099992,None,2097.621750099992,None,f,1.6042032999976072,2097.621750099992,None,1.6042032999976072,,,137Sing,001,2023_Oct_26_0939,ProdSingRedoBetween,2021.2.3,59.92423179642026,
,,,,166,0,166,0,,,,,,,,,,,,,,,,,,,,,,2105.538149799977,None,,,,,,,,,,,,,,,,,provision,4,167,sing,old,yellow,2099.765007399983,None,2099.765007399983,None,6,3.077026500017382,2099.765007399983,None,3.077026500017382,2102.879892499972,None,2103.390580199979,None,2103.390580199979,None,f,2.1312583000108134,2103.390580199979,None,2.1312583000108134,,,137Sing,001,2023_Oct_26_0939,ProdSingRedoBetween,2021.2.3,59.92423179642026,
,,,,167,0,167,0,,,,,,,,,,,,,,,,,,,,,,2110.3107151000004,None,,,,,,,,,,,,,,,,,portion,151,168,sing,new,null,2106.049431499996,None,2106.049431499996,None,2,1.792487099999562,2106.049431499996,None,1.792487099999562,2107.8606325,None,2108.381785299978,None,2108.381785299978,None,f,1.9002287000184879,2108.381785299978,None,1.9002287000184879,,,137Sing,001,2023_Oct_26_0939,ProdSingRedoBetween,2021.2.3,59.92423179642026,
,,,,168,0,168,0,,,,,,,,,,,,,,,,,,,,,,2123.8073564999795,None,,,,,,,,,,,,,,,,,appeal,83,169,sing,old,red,2110.8151585999876,None,2110.8151585999876,None,2,9.450991000019712,2110.8151585999876,None,9.450991000019712,2120.2927801999904,None,2120.810636499984,None,2120.810636499984,None,n,2.975330999994185,2120.810636499984,None,2.975330999994185,,,137Sing,001,2023_Oct_26_0939,ProdSingRedoBetween,2021.2.3,59.92423179642026,
,,,,169,0,169,0,,,,,,,,,,,,,,,,,,,,,,2127.844303299993,None,,,,,,,,,,,,,,,,,discovery,138,170,sing,new,null,2124.324458599993,None,2124.324458599993,None,4,1.8935324999911245,2124.324458599993,None,1.8935324999911245,2126.2485046999936,None,2126.767227299977,None,2126.767227299977,None,f,1.0587460999959148,2126.767227299977,None,1.0587460999959148,,,137Sing,001,2023_Oct_26_0939,ProdSingRedoBetween,2021.2.3,59.92423179642026,
,,,,170,0,170,0,,,,,,,,,,,,,,,,,,,,,,2132.6651190999837,None,,,,,,,,,,,,,,,,,primary,8,171,sing,old,yellow,2128.3572191999992,None,2128.3572191999992,None,2,2.3887595999985933,2128.3572191999992,None,2.3887595999985933,2130.767003599991,None,2131.2923664999835,None,2131.2923664999835,None,f,1.3416881000157446,2131.2923664999835,None,1.3416881000157446,,,137Sing,001,2023_Oct_26_0939,ProdSingRedoBetween,2021.2.3,59.92423179642026,
,,,,171,0,171,0,,,,,,,,,,,,,,,,,,,,,,2137.3532081999874,None,,,,,,,,,,,,,,,,,private,130,172,sing,new,null,2133.1860213999753,None,2133.1860213999753,None,4,1.9842156000086106,2133.1860213999753,None,1.9842156000086106,2135.2149540999962,None,2135.7221849999914,None,2135.7221849999914,None,f,1.6077318000025116,2135.7221849999914,None,1.6077318000025116,,,137Sing,001,2023_Oct_26_0939,ProdSingRedoBetween,2021.2.3,59.92423179642026,
,,,,172,0,172,0,,,,,,,,,,,,,,,,,,,,,,2147.646997599979,None,,,,,,,,,,,,,,,,,close,96,173,sing,new,null,2137.8629511999898,None,2137.8629511999898,None,3,2.6511051999987103,2137.8629511999898,None,2.6511051999987103,2140.5467322999903,None,2141.063250599982,None,2141.063250599982,None,f,6.554873399989447,2141.063250599982,None,6.554873399989447,,,137Sing,001,2023_Oct_26_0939,ProdSingRedoBetween,2021.2.3,59.92423179642026,
,,,,173,0,173,0,,,,,,,,,,,,,,,,,,,,,,2152.585219499975,None,,,,,,,,,,,,,,,,,society,174,174,sing,new,null,2148.1568436999805,None,2148.1568436999805,None,4,2.9091268999909516,2148.1568436999805,None,2.9091268999909516,2151.0904367999756,None,2151.6051262999827,None,2151.6051262999827,None,r,0.964870299998438,2151.6051262999827,None,0.964870299998438,,,137Sing,001,2023_Oct_26_0939,ProdSingRedoBetween,2021.2.3,59.92423179642026,
,,,,174,0,174,0,,,,,,,,,,,,,,,,,,,,,,2158.9930734999944,None,,,,,,,,,,,,,,,,,crowd,75,175,sing,old,red,2153.102259199979,None,2153.102259199979,None,4,3.843693799979519,2153.102259199979,None,3.843693799979519,2156.9799488999997,None,2157.49474319999,None,2157.49474319999,None,f,1.4672686000121757,2157.49474319999,None,1.4672686000121757,,,137Sing,001,2023_Oct_26_0939,ProdSingRedoBetween,2021.2.3,59.92423179642026,
,,,,175,0,175,0,,,,,,,,,,,,,,,,,,,,,,2165.631596899999,None,,,,,,,,,,,,,,,,,sight,40,176,sing,old,blue,2159.502201199997,None,2159.502201199997,None,2,4.003962999995565,2159.502201199997,None,4.003962999995565,2163.5367244999798,None,2164.0490085999772,None,2164.0490085999772,None,f,1.5609736000187695,2164.0490085999772,None,1.5609736000187695,,,137Sing,001,2023_Oct_26_0939,ProdSingRedoBetween,2021.2.3,59.92423179642026,
,,,,176,0,176,0,,,,,,,,,,,,,,,,,,,,,,2170.9565073999984,None,,,,,,,,,,,,,,,,,goose,97,177,sing,new,null,2166.1411971999914,None,2166.1411971999914,None,1,1.9569732999952976,2166.1411971999914,None,1.9569732999952976,2168.127879399981,None,2168.6349762999744,None,2168.6349762999744,None,f,2.303060199978063,2168.6349762999744,None,2.303060199978063,,,137Sing,001,2023_Oct_26_0939,ProdSingRedoBetween,2021.2.3,59.92423179642026,
