StudyLoop.thisRepN,StudyLoop.thisTrialN,StudyLoop.thisN,StudyLoop.thisIndex,TestLoop.thisRepN,TestLoop.thisTrialN,TestLoop.thisN,TestLoop.thisIndex,textCondition.started,textCondition.stopped,keyCondition.keys,keyCondition.rt,keyCondition.started,keyCondition.stopped,Condition,textWelcome.started,textWelcome.stopped,keyWelcome.keys,keyWelcome.rt,keyWelcome.started,keyWelcome.stopped,textAloud.started,textAloud.stopped,textSilent.started,textSilent.stopped,textSing.started,textSing.stopped,conditional_text.started,conditional_text.stopped,textBlank500.started,textBlank500.stopped,study_word,study_num,study_order,study_type,word_color,textStudy.started,textStudy.stopped,keyStudy.keys,keyStudy.started,keyStudy.stopped,textTestInstructions.started,textTestInstructions.stopped,key_resp_3.keys,key_resp_3.rt,key_resp_3.started,key_resp_3.stopped,test_word,test_num,test_order,test_condition,old_new_test,test_word_original_color,textConf.started,textConf.stopped,textConfScale.started,textConfScale.stopped,keyConf.keys,keyConf.rt,keyConf.started,keyConf.stopped,confidence response time,textTestBlank.started,textTestBlank.stopped,textRKN.started,textRKN.stopped,textRKNScale.started,textRKNScale.stopped,keyRKN.keys,keyRKN.rt,keyRKN.started,keyRKN.stopped,rkn response time,textEnd.started,textEnd.stopped,participant,session,date,expName,psychopyVersion,frameRate,
,,,,,,,,20.779787399999975,None,b,1.0911613000000102,20.779787399999975,None,,,,,,,,,,,,,,,,,,,,,,,,,,,,,,,,,,,,,,,,,,,,,,,,,,,,,,,,,,,,,,138Aloud,001,2023_Oct_27_1157,ProdSingRedoBetween,2021.2.3,59.952325910441196,
,,,,,,,,,,,,,,AloudTest,21.92273369999998,None,space,184.7159697,21.92273369999998,None,,,,,,,,,,,,,,,,,,,,,,,,,,,,,,,,,,,,,,,,,,,,,,,,,,,,,,,138Aloud,001,2023_Oct_27_1157,ProdSingRedoBetween,2021.2.3,59.952325910441196,
0,0,0,0,,,,,,,,,,,,,,,,,,21.92273369999998,None,21.92273369999998,None,21.92273369999998,None,21.92273369999998,None,209.17575559999997,None,debate,49,1,aloud,blue,207.16844109999997,None,None,207.16844109999997,None,,,,,,,,,,,,,,,,,,,,,,,,,,,,,,,,,,,138Aloud,001,2023_Oct_27_1157,ProdSingRedoBetween,2021.2.3,59.952325910441196,
1,0,1,0,,,,,,,,,,,,,,,,,,,,,,,,,,211.678188,None,stand,44,2,aloud,blue,209.678635,None,None,209.678635,None,,,,,,,,,,,,,,,,,,,,,,,,,,,,,,,,,,,138Aloud,001,2023_Oct_27_1157,ProdSingRedoBetween,2021.2.3,59.952325910441196,
2,0,2,0,,,,,,,,,,,,,,,,,,,,,,,,,,214.18070659999998,None,route,30,3,aloud,blue,212.178643,None,None,212.178643,None,,,,,,,,,,,,,,,,,,,,,,,,,,,,,,,,,,,138Aloud,001,2023_Oct_27_1157,ProdSingRedoBetween,2021.2.3,59.952325910441196,
3,0,3,0,,,,,,,,,,,,,,,,,,,,,,,,,,216.6997544,None,short,24,4,aloud,yellow,214.68942279999996,None,None,214.68942279999996,None,,,,,,,,,,,,,,,,,,,,,,,,,,,,,,,,,,,138Aloud,001,2023_Oct_27_1157,ProdSingRedoBetween,2021.2.3,59.952325910441196,
4,0,4,0,,,,,,,,,,,,,,,,,,,,,,,,,,219.20202129999998,None,reach,42,5,aloud,blue,217.2000528,None,None,217.2000528,None,,,,,,,,,,,,,,,,,,,,,,,,,,,,,,,,,,,138Aloud,001,2023_Oct_27_1157,ProdSingRedoBetween,2021.2.3,59.952325910441196,
5,0,5,0,,,,,,,,,,,,,,,,,,,,,,,,,,221.70461709999998,None,message,15,6,aloud,yellow,219.70251089999996,None,None,219.70251089999996,None,,,,,,,,,,,,,,,,,,,,,,,,,,,,,,,,,,,138Aloud,001,2023_Oct_27_1157,ProdSingRedoBetween,2021.2.3,59.952325910441196,
6,0,6,0,,,,,,,,,,,,,,,,,,,,,,,,,,224.22415729999997,None,thick,79,7,aloud,red,222.2115449,None,None,222.2115449,None,,,,,,,,,,,,,,,,,,,,,,,,,,,,,,,,,,,138Aloud,001,2023_Oct_27_1157,ProdSingRedoBetween,2021.2.3,59.952325910441196,
7,0,7,0,,,,,,,,,,,,,,,,,,,,,,,,,,226.74328539999996,None,afternoon,89,8,aloud,red,224.73061319999996,None,None,224.73061319999996,None,,,,,,,,,,,,,,,,,,,,,,,,,,,,,,,,,,,138Aloud,001,2023_Oct_27_1157,ProdSingRedoBetween,2021.2.3,59.952325910441196,
8,0,8,0,,,,,,,,,,,,,,,,,,,,,,,,,,229.24571639999996,None,military,31,9,aloud,blue,227.24595939999998,None,None,227.24595939999998,None,,,,,,,,,,,,,,,,,,,,,,,,,,,,,,,,,,,138Aloud,001,2023_Oct_27_1157,ProdSingRedoBetween,2021.2.3,59.952325910441196,
9,0,9,0,,,,,,,,,,,,,,,,,,,,,,,,,,231.76493429999996,None,property,32,10,aloud,blue,229.7531231,None,None,229.7531231,None,,,,,,,,,,,,,,,,,,,,,,,,,,,,,,,,,,,138Aloud,001,2023_Oct_27_1157,ProdSingRedoBetween,2021.2.3,59.952325910441196,
10,0,10,0,,,,,,,,,,,,,,,,,,,,,,,,,,234.28424369999996,None,surprise,64,11,aloud,red,232.2708691,None,None,232.2708691,None,,,,,,,,,,,,,,,,,,,,,,,,,,,,,,,,,,,138Aloud,001,2023_Oct_27_1157,ProdSingRedoBetween,2021.2.3,59.952325910441196,
11,0,11,0,,,,,,,,,,,,,,,,,,,,,,,,,,236.80340729999998,None,notice,26,12,aloud,yellow,234.7887777,None,None,234.7887777,None,,,,,,,,,,,,,,,,,,,,,,,,,,,,,,,,,,,138Aloud,001,2023_Oct_27_1157,ProdSingRedoBetween,2021.2.3,59.952325910441196,
12,0,12,0,,,,,,,,,,,,,,,,,,,,,,,,,,239.32252909999997,None,meeting,16,13,aloud,yellow,237.3085854,None,None,237.3085854,None,,,,,,,,,,,,,,,,,,,,,,,,,,,,,,,,,,,138Aloud,001,2023_Oct_27_1157,ProdSingRedoBetween,2021.2.3,59.952325910441196,
13,0,13,0,,,,,,,,,,,,,,,,,,,,,,,,,,241.8249496,None,worker,34,14,aloud,blue,239.82440949999997,None,None,239.82440949999997,None,,,,,,,,,,,,,,,,,,,,,,,,,,,,,,,,,,,138Aloud,001,2023_Oct_27_1157,ProdSingRedoBetween,2021.2.3,59.952325910441196,
14,0,14,0,,,,,,,,,,,,,,,,,,,,,,,,,,244.34416819999998,None,principal,25,15,aloud,yellow,242.33083919999999,None,None,242.33083919999999,None,,,,,,,,,,,,,,,,,,,,,,,,,,,,,,,,,,,138Aloud,001,2023_Oct_27_1157,ProdSingRedoBetween,2021.2.3,59.952325910441196,
15,0,15,0,,,,,,,,,,,,,,,,,,,,,,,,,,246.86330919999997,None,council,54,16,aloud,blue,244.85298939999998,None,None,244.85298939999998,None,,,,,,,,,,,,,,,,,,,,,,,,,,,,,,,,,,,138Aloud,001,2023_Oct_27_1157,ProdSingRedoBetween,2021.2.3,59.952325910441196,
16,0,16,0,,,,,,,,,,,,,,,,,,,,,,,,,,249.36582229999996,None,skill,68,17,aloud,red,247.3635583,None,None,247.3635583,None,,,,,,,,,,,,,,,,,,,,,,,,,,,,,,,,,,,138Aloud,001,2023_Oct_27_1157,ProdSingRedoBetween,2021.2.3,59.952325910441196,
17,0,17,0,,,,,,,,,,,,,,,,,,,,,,,,,,251.86834919999998,None,second,28,18,aloud,yellow,249.86852359999997,None,None,249.86852359999997,None,,,,,,,,,,,,,,,,,,,,,,,,,,,,,,,,,,,138Aloud,001,2023_Oct_27_1157,ProdSingRedoBetween,2021.2.3,59.952325910441196,
18,0,18,0,,,,,,,,,,,,,,,,,,,,,,,,,,254.3708005,None,department,39,19,aloud,blue,252.37171549999997,None,None,252.37171549999997,None,,,,,,,,,,,,,,,,,,,,,,,,,,,,,,,,,,,138Aloud,001,2023_Oct_27_1157,ProdSingRedoBetween,2021.2.3,59.952325910441196,
19,0,19,0,,,,,,,,,,,,,,,,,,,,,,,,,,256.8730378,None,candidate,48,20,aloud,blue,254.8723735,None,None,254.8723735,None,,,,,,,,,,,,,,,,,,,,,,,,,,,,,,,,,,,138Aloud,001,2023_Oct_27_1157,ProdSingRedoBetween,2021.2.3,59.952325910441196,
20,0,20,0,,,,,,,,,,,,,,,,,,,,,,,,,,259.375862,None,danger,38,21,aloud,blue,257.37437509999995,None,None,257.37437509999995,None,,,,,,,,,,,,,,,,,,,,,,,,,,,,,,,,,,,138Aloud,001,2023_Oct_27_1157,ProdSingRedoBetween,2021.2.3,59.952325910441196,
21,0,21,0,,,,,,,,,,,,,,,,,,,,,,,,,,261.8950763,None,tennis,78,22,aloud,red,259.88605559999996,None,None,259.88605559999996,None,,,,,,,,,,,,,,,,,,,,,,,,,,,,,,,,,,,138Aloud,001,2023_Oct_27_1157,ProdSingRedoBetween,2021.2.3,59.952325910441196,
22,0,22,0,,,,,,,,,,,,,,,,,,,,,,,,,,264.4141363,None,leader,55,23,aloud,blue,262.39881389999994,None,None,262.39881389999994,None,,,,,,,,,,,,,,,,,,,,,,,,,,,,,,,,,,,138Aloud,001,2023_Oct_27_1157,ProdSingRedoBetween,2021.2.3,59.952325910441196,
23,0,23,0,,,,,,,,,,,,,,,,,,,,,,,,,,266.9331519,None,position,88,24,aloud,red,264.92206969999995,None,None,264.92206969999995,None,,,,,,,,,,,,,,,,,,,,,,,,,,,,,,,,,,,138Aloud,001,2023_Oct_27_1157,ProdSingRedoBetween,2021.2.3,59.952325910441196,
24,0,24,0,,,,,,,,,,,,,,,,,,,,,,,,,,269.4359554,None,material,51,25,aloud,blue,267.4338398,None,None,267.4338398,None,,,,,,,,,,,,,,,,,,,,,,,,,,,,,,,,,,,138Aloud,001,2023_Oct_27_1157,ProdSingRedoBetween,2021.2.3,59.952325910441196,
25,0,25,0,,,,,,,,,,,,,,,,,,,,,,,,,,271.93843830000003,None,character,87,26,aloud,red,269.936383,None,None,269.936383,None,,,,,,,,,,,,,,,,,,,,,,,,,,,,,,,,,,,138Aloud,001,2023_Oct_27_1157,ProdSingRedoBetween,2021.2.3,59.952325910441196,
26,0,26,0,,,,,,,,,,,,,,,,,,,,,,,,,,274.44083939999996,None,throw,13,27,aloud,yellow,272.43916419999994,None,None,272.43916419999994,None,,,,,,,,,,,,,,,,,,,,,,,,,,,,,,,,,,,138Aloud,001,2023_Oct_27_1157,ProdSingRedoBetween,2021.2.3,59.952325910441196,
27,0,27,0,,,,,,,,,,,,,,,,,,,,,,,,,,276.9436773,None,trail,58,28,aloud,blue,274.9415381,None,None,274.9415381,None,,,,,,,,,,,,,,,,,,,,,,,,,,,,,,,,,,,138Aloud,001,2023_Oct_27_1157,ProdSingRedoBetween,2021.2.3,59.952325910441196,
28,0,28,0,,,,,,,,,,,,,,,,,,,,,,,,,,279.4622647,None,citizen,81,29,aloud,red,277.4486839,None,None,277.4486839,None,,,,,,,,,,,,,,,,,,,,,,,,,,,,,,,,,,,138Aloud,001,2023_Oct_27_1157,ProdSingRedoBetween,2021.2.3,59.952325910441196,
29,0,29,0,,,,,,,,,,,,,,,,,,,,,,,,,,281.9650531,None,space,75,30,aloud,red,279.96308650000003,None,None,279.96308650000003,None,,,,,,,,,,,,,,,,,,,,,,,,,,,,,,,,,,,138Aloud,001,2023_Oct_27_1157,ProdSingRedoBetween,2021.2.3,59.952325910441196,
30,0,30,0,,,,,,,,,,,,,,,,,,,,,,,,,,284.4675561,None,watch,23,31,aloud,yellow,282.46611999999993,None,None,282.46611999999993,None,,,,,,,,,,,,,,,,,,,,,,,,,,,,,,,,,,,138Aloud,001,2023_Oct_27_1157,ProdSingRedoBetween,2021.2.3,59.952325910441196,
31,0,31,0,,,,,,,,,,,,,,,,,,,,,,,,,,286.97006250000004,None,hunger,47,32,aloud,blue,284.9679407,None,None,284.9679407,None,,,,,,,,,,,,,,,,,,,,,,,,,,,,,,,,,,,138Aloud,001,2023_Oct_27_1157,ProdSingRedoBetween,2021.2.3,59.952325910441196,
32,0,32,0,,,,,,,,,,,,,,,,,,,,,,,,,,289.47243819999994,None,scene,57,33,aloud,blue,287.47053470000003,None,None,287.47053470000003,None,,,,,,,,,,,,,,,,,,,,,,,,,,,,,,,,,,,138Aloud,001,2023_Oct_27_1157,ProdSingRedoBetween,2021.2.3,59.952325910441196,
33,0,33,0,,,,,,,,,,,,,,,,,,,,,,,,,,291.97488369999996,None,shock,52,34,aloud,blue,289.9730429,None,None,289.9730429,None,,,,,,,,,,,,,,,,,,,,,,,,,,,,,,,,,,,138Aloud,001,2023_Oct_27_1157,ProdSingRedoBetween,2021.2.3,59.952325910441196,
34,0,34,0,,,,,,,,,,,,,,,,,,,,,,,,,,294.4771085,None,recall,60,35,aloud,red,292.4754338,None,None,292.4754338,None,,,,,,,,,,,,,,,,,,,,,,,,,,,,,,,,,,,138Aloud,001,2023_Oct_27_1157,ProdSingRedoBetween,2021.2.3,59.952325910441196,
35,0,35,0,,,,,,,,,,,,,,,,,,,,,,,,,,296.97999949999996,None,finish,61,36,aloud,red,294.97780109999997,None,None,294.97780109999997,None,,,,,,,,,,,,,,,,,,,,,,,,,,,,,,,,,,,138Aloud,001,2023_Oct_27_1157,ProdSingRedoBetween,2021.2.3,59.952325910441196,
36,0,36,0,,,,,,,,,,,,,,,,,,,,,,,,,,299.4823361,None,store,27,37,aloud,yellow,297.48039199999994,None,None,297.48039199999994,None,,,,,,,,,,,,,,,,,,,,,,,,,,,,,,,,,,,138Aloud,001,2023_Oct_27_1157,ProdSingRedoBetween,2021.2.3,59.952325910441196,
37,0,37,0,,,,,,,,,,,,,,,,,,,,,,,,,,301.98474880000003,None,medicine,3,38,aloud,yellow,299.982841,None,None,299.982841,None,,,,,,,,,,,,,,,,,,,,,,,,,,,,,,,,,,,138Aloud,001,2023_Oct_27_1157,ProdSingRedoBetween,2021.2.3,59.952325910441196,
38,0,38,0,,,,,,,,,,,,,,,,,,,,,,,,,,304.50413789999993,None,attack,72,39,aloud,red,302.49129189999996,None,None,302.49129189999996,None,,,,,,,,,,,,,,,,,,,,,,,,,,,,,,,,,,,138Aloud,001,2023_Oct_27_1157,ProdSingRedoBetween,2021.2.3,59.952325910441196,
39,0,39,0,,,,,,,,,,,,,,,,,,,,,,,,,,307.02327919999993,None,quantity,9,40,aloud,yellow,305.01049939999996,None,None,305.01049939999996,None,,,,,,,,,,,,,,,,,,,,,,,,,,,,,,,,,,,138Aloud,001,2023_Oct_27_1157,ProdSingRedoBetween,2021.2.3,59.952325910441196,
40,0,40,0,,,,,,,,,,,,,,,,,,,,,,,,,,309.525722,None,estate,21,41,aloud,yellow,307.5236728,None,None,307.5236728,None,,,,,,,,,,,,,,,,,,,,,,,,,,,,,,,,,,,138Aloud,001,2023_Oct_27_1157,ProdSingRedoBetween,2021.2.3,59.952325910441196,
41,0,41,0,,,,,,,,,,,,,,,,,,,,,,,,,,312.02835859999993,None,dance,5,42,aloud,yellow,310.0261815,None,None,310.0261815,None,,,,,,,,,,,,,,,,,,,,,,,,,,,,,,,,,,,138Aloud,001,2023_Oct_27_1157,ProdSingRedoBetween,2021.2.3,59.952325910441196,
42,0,42,0,,,,,,,,,,,,,,,,,,,,,,,,,,314.53103479999993,None,junior,7,43,aloud,yellow,312.52967090000004,None,None,312.52967090000004,None,,,,,,,,,,,,,,,,,,,,,,,,,,,,,,,,,,,138Aloud,001,2023_Oct_27_1157,ProdSingRedoBetween,2021.2.3,59.952325910441196,
43,0,43,0,,,,,,,,,,,,,,,,,,,,,,,,,,317.0332093999999,None,profession,6,44,aloud,yellow,315.031156,None,None,315.031156,None,,,,,,,,,,,,,,,,,,,,,,,,,,,,,,,,,,,138Aloud,001,2023_Oct_27_1157,ProdSingRedoBetween,2021.2.3,59.952325910441196,
44,0,44,0,,,,,,,,,,,,,,,,,,,,,,,,,,319.53584649999993,None,production,86,45,aloud,red,317.5338207,None,None,317.5338207,None,,,,,,,,,,,,,,,,,,,,,,,,,,,,,,,,,,,138Aloud,001,2023_Oct_27_1157,ProdSingRedoBetween,2021.2.3,59.952325910441196,
45,0,45,0,,,,,,,,,,,,,,,,,,,,,,,,,,322.0383274999999,None,little,17,46,aloud,yellow,320.0363234,None,None,320.0363234,None,,,,,,,,,,,,,,,,,,,,,,,,,,,,,,,,,,,138Aloud,001,2023_Oct_27_1157,ProdSingRedoBetween,2021.2.3,59.952325910441196,
46,0,46,0,,,,,,,,,,,,,,,,,,,,,,,,,,324.54056689999993,None,color,50,47,aloud,blue,322.5389173,None,None,322.5389173,None,,,,,,,,,,,,,,,,,,,,,,,,,,,,,,,,,,,138Aloud,001,2023_Oct_27_1157,ProdSingRedoBetween,2021.2.3,59.952325910441196,
47,0,47,0,,,,,,,,,,,,,,,,,,,,,,,,,,327.04310079999993,None,owner,63,48,aloud,red,325.0413080999999,None,None,325.0413080999999,None,,,,,,,,,,,,,,,,,,,,,,,,,,,,,,,,,,,138Aloud,001,2023_Oct_27_1157,ProdSingRedoBetween,2021.2.3,59.952325910441196,
48,0,48,0,,,,,,,,,,,,,,,,,,,,,,,,,,329.54616509999994,None,region,37,49,aloud,blue,327.54404809999994,None,None,327.54404809999994,None,,,,,,,,,,,,,,,,,,,,,,,,,,,,,,,,,,,138Aloud,001,2023_Oct_27_1157,ProdSingRedoBetween,2021.2.3,59.952325910441196,
49,0,49,0,,,,,,,,,,,,,,,,,,,,,,,,,,332.0479418,None,speech,74,50,aloud,red,330.0463787,None,None,330.0463787,None,,,,,,,,,,,,,,,,,,,,,,,,,,,,,,,,,,,138Aloud,001,2023_Oct_27_1157,ProdSingRedoBetween,2021.2.3,59.952325910441196,
50,0,50,0,,,,,,,,,,,,,,,,,,,,,,,,,,334.5503949,None,platform,0,51,aloud,yellow,332.54885719999993,None,None,332.54885719999993,None,,,,,,,,,,,,,,,,,,,,,,,,,,,,,,,,,,,138Aloud,001,2023_Oct_27_1157,ProdSingRedoBetween,2021.2.3,59.952325910441196,
51,0,51,0,,,,,,,,,,,,,,,,,,,,,,,,,,337.0533402,None,question,14,52,aloud,yellow,335.0510035,None,None,335.0510035,None,,,,,,,,,,,,,,,,,,,,,,,,,,,,,,,,,,,138Aloud,001,2023_Oct_27_1157,ProdSingRedoBetween,2021.2.3,59.952325910441196,
52,0,52,0,,,,,,,,,,,,,,,,,,,,,,,,,,339.5557382999999,None,native,45,53,aloud,blue,337.5535855999999,None,None,337.5535855999999,None,,,,,,,,,,,,,,,,,,,,,,,,,,,,,,,,,,,138Aloud,001,2023_Oct_27_1157,ProdSingRedoBetween,2021.2.3,59.952325910441196,
53,0,53,0,,,,,,,,,,,,,,,,,,,,,,,,,,342.0587078,None,individual,35,54,aloud,blue,340.0563975,None,None,340.0563975,None,,,,,,,,,,,,,,,,,,,,,,,,,,,,,,,,,,,138Aloud,001,2023_Oct_27_1157,ProdSingRedoBetween,2021.2.3,59.952325910441196,
54,0,54,0,,,,,,,,,,,,,,,,,,,,,,,,,,344.56039899999996,None,rural,46,55,aloud,blue,342.55837729999996,None,None,342.55837729999996,None,,,,,,,,,,,,,,,,,,,,,,,,,,,,,,,,,,,138Aloud,001,2023_Oct_27_1157,ProdSingRedoBetween,2021.2.3,59.952325910441196,
55,0,55,0,,,,,,,,,,,,,,,,,,,,,,,,,,347.06300999999996,None,minute,12,56,aloud,yellow,345.0610879999999,None,None,345.0610879999999,None,,,,,,,,,,,,,,,,,,,,,,,,,,,,,,,,,,,138Aloud,001,2023_Oct_27_1157,ProdSingRedoBetween,2021.2.3,59.952325910441196,
56,0,56,0,,,,,,,,,,,,,,,,,,,,,,,,,,349.5656720999999,None,order,56,57,aloud,blue,347.56371909999996,None,None,347.56371909999996,None,,,,,,,,,,,,,,,,,,,,,,,,,,,,,,,,,,,138Aloud,001,2023_Oct_27_1157,ProdSingRedoBetween,2021.2.3,59.952325910441196,
57,0,57,0,,,,,,,,,,,,,,,,,,,,,,,,,,352.06838849999997,None,member,33,58,aloud,blue,350.066513,None,None,350.066513,None,,,,,,,,,,,,,,,,,,,,,,,,,,,,,,,,,,,138Aloud,001,2023_Oct_27_1157,ProdSingRedoBetween,2021.2.3,59.952325910441196,
58,0,58,0,,,,,,,,,,,,,,,,,,,,,,,,,,354.5706857,None,agreement,77,59,aloud,red,352.5688815,None,None,352.5688815,None,,,,,,,,,,,,,,,,,,,,,,,,,,,,,,,,,,,138Aloud,001,2023_Oct_27_1157,ProdSingRedoBetween,2021.2.3,59.952325910441196,
59,0,59,0,,,,,,,,,,,,,,,,,,,,,,,,,,357.08958889999997,None,comedy,20,60,aloud,yellow,355.07559689999994,None,None,355.07559689999994,None,,,,,,,,,,,,,,,,,,,,,,,,,,,,,,,,,,,138Aloud,001,2023_Oct_27_1157,ProdSingRedoBetween,2021.2.3,59.952325910441196,
60,0,60,0,,,,,,,,,,,,,,,,,,,,,,,,,,359.5921145,None,track,69,61,aloud,red,357.5903346,None,None,357.5903346,None,,,,,,,,,,,,,,,,,,,,,,,,,,,,,,,,,,,138Aloud,001,2023_Oct_27_1157,ProdSingRedoBetween,2021.2.3,59.952325910441196,
61,0,61,0,,,,,,,,,,,,,,,,,,,,,,,,,,362.09479569999996,None,crime,29,62,aloud,blue,360.0928708,None,None,360.0928708,None,,,,,,,,,,,,,,,,,,,,,,,,,,,,,,,,,,,138Aloud,001,2023_Oct_27_1157,ProdSingRedoBetween,2021.2.3,59.952325910441196,
62,0,62,0,,,,,,,,,,,,,,,,,,,,,,,,,,364.59735319999993,None,trial,73,63,aloud,red,362.5952896,None,None,362.5952896,None,,,,,,,,,,,,,,,,,,,,,,,,,,,,,,,,,,,138Aloud,001,2023_Oct_27_1157,ProdSingRedoBetween,2021.2.3,59.952325910441196,
63,0,63,0,,,,,,,,,,,,,,,,,,,,,,,,,,367.09998139999993,None,report,71,64,aloud,red,365.0978847,None,None,365.0978847,None,,,,,,,,,,,,,,,,,,,,,,,,,,,,,,,,,,,138Aloud,001,2023_Oct_27_1157,ProdSingRedoBetween,2021.2.3,59.952325910441196,
64,0,64,0,,,,,,,,,,,,,,,,,,,,,,,,,,369.61903429999995,None,silence,84,65,aloud,red,367.6042116,None,None,367.6042116,None,,,,,,,,,,,,,,,,,,,,,,,,,,,,,,,,,,,138Aloud,001,2023_Oct_27_1157,ProdSingRedoBetween,2021.2.3,59.952325910441196,
65,0,65,0,,,,,,,,,,,,,,,,,,,,,,,,,,372.1215423,None,poetry,82,66,aloud,red,370.1197530999999,None,None,370.1197530999999,None,,,,,,,,,,,,,,,,,,,,,,,,,,,,,,,,,,,138Aloud,001,2023_Oct_27_1157,ProdSingRedoBetween,2021.2.3,59.952325910441196,
66,0,66,0,,,,,,,,,,,,,,,,,,,,,,,,,,374.64050209999994,None,machinery,65,67,aloud,red,372.6292608,None,None,372.6292608,None,,,,,,,,,,,,,,,,,,,,,,,,,,,,,,,,,,,138Aloud,001,2023_Oct_27_1157,ProdSingRedoBetween,2021.2.3,59.952325910441196,
67,0,67,0,,,,,,,,,,,,,,,,,,,,,,,,,,377.1434416999999,None,patient,36,68,aloud,blue,375.1412161999999,None,None,375.1412161999999,None,,,,,,,,,,,,,,,,,,,,,,,,,,,,,,,,,,,138Aloud,001,2023_Oct_27_1157,ProdSingRedoBetween,2021.2.3,59.952325910441196,
68,0,68,0,,,,,,,,,,,,,,,,,,,,,,,,,,379.6459362999999,None,contract,66,69,aloud,red,377.6438164,None,None,377.6438164,None,,,,,,,,,,,,,,,,,,,,,,,,,,,,,,,,,,,138Aloud,001,2023_Oct_27_1157,ProdSingRedoBetween,2021.2.3,59.952325910441196,
69,0,69,0,,,,,,,,,,,,,,,,,,,,,,,,,,382.14791489999993,None,religion,8,70,aloud,yellow,380.14609729999995,None,None,380.14609729999995,None,,,,,,,,,,,,,,,,,,,,,,,,,,,,,,,,,,,138Aloud,001,2023_Oct_27_1157,ProdSingRedoBetween,2021.2.3,59.952325910441196,
70,0,70,0,,,,,,,,,,,,,,,,,,,,,,,,,,384.65055859999995,None,treatment,62,71,aloud,red,382.64864809999995,None,None,382.64864809999995,None,,,,,,,,,,,,,,,,,,,,,,,,,,,,,,,,,,,138Aloud,001,2023_Oct_27_1157,ProdSingRedoBetween,2021.2.3,59.952325910441196,
71,0,71,0,,,,,,,,,,,,,,,,,,,,,,,,,,387.15299229999994,None,income,40,72,aloud,blue,385.1511092999999,None,None,385.1511092999999,None,,,,,,,,,,,,,,,,,,,,,,,,,,,,,,,,,,,138Aloud,001,2023_Oct_27_1157,ProdSingRedoBetween,2021.2.3,59.952325910441196,
72,0,72,0,,,,,,,,,,,,,,,,,,,,,,,,,,389.65581629999997,None,smooth,19,73,aloud,yellow,387.6539083,None,None,387.6539083,None,,,,,,,,,,,,,,,,,,,,,,,,,,,,,,,,,,,138Aloud,001,2023_Oct_27_1157,ProdSingRedoBetween,2021.2.3,59.952325910441196,
73,0,73,0,,,,,,,,,,,,,,,,,,,,,,,,,,392.1581236999999,None,place,43,74,aloud,blue,390.1560032,None,None,390.1560032,None,,,,,,,,,,,,,,,,,,,,,,,,,,,,,,,,,,,138Aloud,001,2023_Oct_27_1157,ProdSingRedoBetween,2021.2.3,59.952325910441196,
74,0,74,0,,,,,,,,,,,,,,,,,,,,,,,,,,394.6606997,None,murder,10,75,aloud,yellow,392.65881579999996,None,None,392.65881579999996,None,,,,,,,,,,,,,,,,,,,,,,,,,,,,,,,,,,,138Aloud,001,2023_Oct_27_1157,ProdSingRedoBetween,2021.2.3,59.952325910441196,
75,0,75,0,,,,,,,,,,,,,,,,,,,,,,,,,,397.1635265,None,entrance,2,76,aloud,yellow,395.16099199999996,None,None,395.16099199999996,None,,,,,,,,,,,,,,,,,,,,,,,,,,,,,,,,,,,138Aloud,001,2023_Oct_27_1157,ProdSingRedoBetween,2021.2.3,59.952325910441196,
76,0,76,0,,,,,,,,,,,,,,,,,,,,,,,,,,399.66560159999995,None,research,59,77,aloud,yellow,397.66357729999993,None,None,397.66357729999993,None,,,,,,,,,,,,,,,,,,,,,,,,,,,,,,,,,,,138Aloud,001,2023_Oct_27_1157,ProdSingRedoBetween,2021.2.3,59.952325910441196,
77,0,77,0,,,,,,,,,,,,,,,,,,,,,,,,,,402.16807359999996,None,quarter,11,78,aloud,yellow,400.16916789999993,None,None,400.16916789999993,None,,,,,,,,,,,,,,,,,,,,,,,,,,,,,,,,,,,138Aloud,001,2023_Oct_27_1157,ProdSingRedoBetween,2021.2.3,59.952325910441196,
78,0,78,0,,,,,,,,,,,,,,,,,,,,,,,,,,404.67066969999996,None,surface,83,79,aloud,red,402.66876279999997,None,None,402.66876279999997,None,,,,,,,,,,,,,,,,,,,,,,,,,,,,,,,,,,,138Aloud,001,2023_Oct_27_1157,ProdSingRedoBetween,2021.2.3,59.952325910441196,
79,0,79,0,,,,,,,,,,,,,,,,,,,,,,,,,,407.1731949,None,bicycle,41,80,aloud,blue,405.1711482999999,None,None,405.1711482999999,None,,,,,,,,,,,,,,,,,,,,,,,,,,,,,,,,,,,138Aloud,001,2023_Oct_27_1157,ProdSingRedoBetween,2021.2.3,59.952325910441196,
80,0,80,0,,,,,,,,,,,,,,,,,,,,,,,,,,409.67562239999995,None,nature,18,81,aloud,yellow,407.67367749999994,None,None,407.67367749999994,None,,,,,,,,,,,,,,,,,,,,,,,,,,,,,,,,,,,138Aloud,001,2023_Oct_27_1157,ProdSingRedoBetween,2021.2.3,59.952325910441196,
81,0,81,0,,,,,,,,,,,,,,,,,,,,,,,,,,412.17791609999995,None,election,76,82,aloud,red,410.1760188999999,None,None,410.1760188999999,None,,,,,,,,,,,,,,,,,,,,,,,,,,,,,,,,,,,138Aloud,001,2023_Oct_27_1157,ProdSingRedoBetween,2021.2.3,59.952325910441196,
82,0,82,0,,,,,,,,,,,,,,,,,,,,,,,,,,414.6807147999999,None,escape,22,83,aloud,yellow,412.67855399999996,None,None,412.67855399999996,None,,,,,,,,,,,,,,,,,,,,,,,,,,,,,,,,,,,138Aloud,001,2023_Oct_27_1157,ProdSingRedoBetween,2021.2.3,59.952325910441196,
83,0,83,0,,,,,,,,,,,,,,,,,,,,,,,,,,417.1833206,None,incident,4,84,aloud,yellow,415.1814546999999,None,None,415.1814546999999,None,,,,,,,,,,,,,,,,,,,,,,,,,,,,,,,,,,,138Aloud,001,2023_Oct_27_1157,ProdSingRedoBetween,2021.2.3,59.952325910441196,
84,0,84,0,,,,,,,,,,,,,,,,,,,,,,,,,,419.6855561,None,under,1,85,aloud,yellow,417.6834829999999,None,None,417.6834829999999,None,,,,,,,,,,,,,,,,,,,,,,,,,,,,,,,,,,,138Aloud,001,2023_Oct_27_1157,ProdSingRedoBetween,2021.2.3,59.952325910441196,
85,0,85,0,,,,,,,,,,,,,,,,,,,,,,,,,,422.1882267,None,design,80,86,aloud,red,420.1862093,None,None,420.1862093,None,,,,,,,,,,,,,,,,,,,,,,,,,,,,,,,,,,,138Aloud,001,2023_Oct_27_1157,ProdSingRedoBetween,2021.2.3,59.952325910441196,
86,0,86,0,,,,,,,,,,,,,,,,,,,,,,,,,,424.69054619999997,None,ground,53,87,aloud,blue,422.6886525,None,None,422.6886525,None,,,,,,,,,,,,,,,,,,,,,,,,,,,,,,,,,,,138Aloud,001,2023_Oct_27_1157,ProdSingRedoBetween,2021.2.3,59.952325910441196,
87,0,87,0,,,,,,,,,,,,,,,,,,,,,,,,,,427.19318609999993,None,population,70,88,aloud,red,425.19129169999997,None,None,425.19129169999997,None,,,,,,,,,,,,,,,,,,,,,,,,,,,,,,,,,,,138Aloud,001,2023_Oct_27_1157,ProdSingRedoBetween,2021.2.3,59.952325910441196,
88,0,88,0,,,,,,,,,,,,,,,,,,,,,,,,,,429.69576099999995,None,threat,85,89,aloud,red,427.69382499999995,None,None,427.69382499999995,None,,,,,,,,,,,,,,,,,,,,,,,,,,,,,,,,,,,138Aloud,001,2023_Oct_27_1157,ProdSingRedoBetween,2021.2.3,59.952325910441196,
89,0,89,0,,,,,,,,,,,,,,,,,,,,,,,,,,432.19823799999995,None,relation,67,90,aloud,red,430.19622989999993,None,None,430.19622989999993,None,,,,,,,,,,,,,,,,,,,,,,,,,,,,,,,,,,,138Aloud,001,2023_Oct_27_1157,ProdSingRedoBetween,2021.2.3,59.952325910441196,
,,,,,,,,,,,,,,,,,,,,,,,,,,,,,,,,,,,,,,,,,432.6989767,None,k,124.73123399999997,432.6989767,None,,,,,,,,,,,,,,,,,,,,,,,,,,,,,138Aloud,001,2023_Oct_27_1157,ProdSingRedoBetween,2021.2.3,59.952325910441196,
,,,,0,0,0,0,,,,,,,,,,,,,,,,,,,,,,568.5392284,None,,,,,,,,,,,,,,,,,charter,148,1,aloud,new,null,557.9643592,None,557.9643592,None,2,5.6258318000000145,557.9643592,None,5.6258318000000145,563.615194,None,564.1304187,None,564.1304187,None,n,4.387725700000033,564.1304187,None,4.387725700000033,,,138Aloud,001,2023_Oct_27_1157,ProdSingRedoBetween,2021.2.3,59.952325910441196,
,,,,1,0,1,0,,,,,,,,,,,,,,,,,,,,,,574.2899772999999,None,,,,,,,,,,,,,,,,,design,80,2,aloud,old,red,569.0518457,None,569.0518457,None,6,2.714324499999975,569.0518457,None,2.714324499999975,571.7895795999999,None,572.3046779,None,572.3046779,None,r,1.9655411999999615,572.3046779,None,1.9655411999999615,,,138Aloud,001,2023_Oct_27_1157,ProdSingRedoBetween,2021.2.3,59.952325910441196,
,,,,2,0,2,0,,,,,,,,,,,,,,,,,,,,,,578.811918,None,,,,,,,,,,,,,,,,,nature,18,3,aloud,old,yellow,574.7928148,None,574.7928148,None,6,2.661447599999974,574.7928148,None,2.661447599999974,577.4801881,None,577.993762,None,577.993762,None,r,0.7884038000000828,577.993762,None,0.7884038000000828,,,138Aloud,001,2023_Oct_27_1157,ProdSingRedoBetween,2021.2.3,59.952325910441196,
,,,,3,0,3,0,,,,,,,,,,,,,,,,,,,,,,584.8671450999999,None,,,,,,,,,,,,,,,,,husband,163,4,aloud,new,null,579.314494,None,579.314494,None,1,3.539651299999946,579.314494,None,3.539651299999946,582.8850061999999,None,583.3989098,None,583.3989098,None,n,1.447267199999942,583.3989098,None,1.447267199999942,,,138Aloud,001,2023_Oct_27_1157,ProdSingRedoBetween,2021.2.3,59.952325910441196,
,,,,4,0,4,0,,,,,,,,,,,,,,,,,,,,,,591.6736912,None,,,,,,,,,,,,,,,,,opening,143,5,aloud,new,null,585.3681412999999,None,585.3681412999999,None,2,5.02999699999998,585.3681412999999,None,5.02999699999998,590.4312695,None,590.94011,None,590.94011,None,n,0.7140322999999853,590.94011,None,0.7140322999999853,,,138Aloud,001,2023_Oct_27_1157,ProdSingRedoBetween,2021.2.3,59.952325910441196,
,,,,5,0,5,0,,,,,,,,,,,,,,,,,,,,,,595.9450873999999,None,,,,,,,,,,,,,,,,,medicine,3,6,aloud,old,yellow,592.1789236,None,592.1789236,None,6,2.043442500000083,592.1789236,None,2.043442500000083,594.2478679999999,None,594.7606979999999,None,594.7606979999999,None,r,1.1655200999999806,594.7606979999999,None,1.1655200999999806,,,138Aloud,001,2023_Oct_27_1157,ProdSingRedoBetween,2021.2.3,59.952325910441196,
,,,,6,0,6,0,,,,,,,,,,,,,,,,,,,,,,600.4512096,None,,,,,,,,,,,,,,,,,working,95,7,aloud,new,null,596.4469455999999,None,596.4469455999999,None,5,2.5112163999999666,596.4469455999999,None,2.5112163999999666,598.9849792,None,599.4989290999999,None,599.4989290999999,None,f,0.92323609999994,599.4989290999999,None,0.92323609999994,,,138Aloud,001,2023_Oct_27_1157,ProdSingRedoBetween,2021.2.3,59.952325910441196,
,,,,7,0,7,0,,,,,,,,,,,,,,,,,,,,,,606.6054273,None,,,,,,,,,,,,,,,,,nation,150,8,aloud,new,null,600.9664161,None,600.9664161,None,5,4.703735199999983,600.9664161,None,4.703735199999983,605.6889907999999,None,606.1884209,None,606.1884209,None,f,0.4018836000000192,606.1884209,None,0.4018836000000192,,,138Aloud,001,2023_Oct_27_1157,ProdSingRedoBetween,2021.2.3,59.952325910441196,
,,,,8,0,8,0,,,,,,,,,,,,,,,,,,,,,,610.1925147999999,None,,,,,,,,,,,,,,,,,watch,23,9,aloud,old,yellow,607.1060822,None,607.1060822,None,6,2.220134899999948,607.1060822,None,2.220134899999948,609.3447239999999,None,609.8591048999999,None,609.8591048999999,None,r,0.3150203999999803,609.8591048999999,None,0.3150203999999803,,,138Aloud,001,2023_Oct_27_1157,ProdSingRedoBetween,2021.2.3,59.952325910441196,
,,,,9,0,9,0,,,,,,,,,,,,,,,,,,,,,,612.945376,None,,,,,,,,,,,,,,,,,hunger,47,10,aloud,old,blue,610.6929696,None,610.6929696,None,6,1.3851712000000589,610.6929696,None,1.3851712000000589,612.1017102,None,612.6120292999999,None,612.6120292999999,None,r,0.30609129999993456,612.6120292999999,None,0.30609129999993456,,,138Aloud,001,2023_Oct_27_1157,ProdSingRedoBetween,2021.2.3,59.952325910441196,
,,,,10,0,10,0,,,,,,,,,,,,,,,,,,,,,,616.6835706999999,None,,,,,,,,,,,,,,,,,frank,112,11,aloud,new,null,613.4462725999999,None,613.4462725999999,None,1,1.6079043000000866,613.4462725999999,None,1.6079043000000866,615.0837994,None,615.5981998999999,None,615.5981998999999,None,n,1.0559154999999691,615.5981998999999,None,1.0559154999999691,,,138Aloud,001,2023_Oct_27_1157,ProdSingRedoBetween,2021.2.3,59.952325910441196,
,,,,11,0,11,0,,,,,,,,,,,,,,,,,,,,,,620.0858519,None,,,,,,,,,,,,,,,,,finish,61,12,aloud,old,red,617.1858569999999,None,617.1858569999999,None,6,1.5322887999999466,617.1858569999999,None,1.5322887999999466,618.7378182,None,619.2515262999999,None,619.2515262999999,None,r,0.8186092000000826,619.2515262999999,None,0.8186092000000826,,,138Aloud,001,2023_Oct_27_1157,ProdSingRedoBetween,2021.2.3,59.952325910441196,
,,,,12,0,12,0,,,,,,,,,,,,,,,,,,,,,,624.0895482999999,None,,,,,,,,,,,,,,,,,comedy,20,13,aloud,old,yellow,620.5889956,None,620.5889956,None,6,2.4012061000000813,620.5889956,None,2.4012061000000813,623.0227853,None,623.5224407,None,623.5224407,None,r,0.5397264000000632,623.5224407,None,0.5397264000000632,,,138Aloud,001,2023_Oct_27_1157,ProdSingRedoBetween,2021.2.3,59.952325910441196,
,,,,13,0,13,0,,,,,,,,,,,,,,,,,,,,,,626.9760812999999,None,,,,,,,,,,,,,,,,,turkey,106,14,aloud,new,null,624.5916881999999,None,624.5916881999999,None,2,1.4224197000000913,624.5916881999999,None,1.4224197000000913,626.0488242,None,626.5589405999999,None,626.5589405999999,None,n,0.39925030000006245,626.5589405999999,None,0.39925030000006245,,,138Aloud,001,2023_Oct_27_1157,ProdSingRedoBetween,2021.2.3,59.952325910441196,
,,,,14,0,14,0,,,,,,,,,,,,,,,,,,,,,,630.8296799999999,None,,,,,,,,,,,,,,,,,interview,137,15,aloud,new,null,627.4774966,None,627.4774966,None,6,2.38477290000003,627.4774966,None,2.38477290000003,629.8829006999999,None,630.3964731,None,630.3964731,None,r,0.40182609999999386,630.3964731,None,0.40182609999999386,,,138Aloud,001,2023_Oct_27_1157,ProdSingRedoBetween,2021.2.3,59.952325910441196,
,,,,15,0,15,0,,,,,,,,,,,,,,,,,,,,,,633.749594,None,,,,,,,,,,,,,,,,,report,71,16,aloud,old,red,631.331732,None,631.331732,None,6,1.5625152999999727,631.331732,None,1.5625152999999727,632.9181261,None,633.4323693,None,633.4323693,None,r,0.2857385999999451,633.4323693,None,0.2857385999999451,,,138Aloud,001,2023_Oct_27_1157,ProdSingRedoBetween,2021.2.3,59.952325910441196,
,,,,16,0,16,0,,,,,,,,,,,,,,,,,,,,,,636.8854755,None,,,,,,,,,,,,,,,,,sound,93,17,aloud,new,null,634.2521044,None,634.2521044,None,3,1.3780081999999538,634.2521044,None,1.3780081999999538,635.6540461,None,636.1684736,None,636.1684736,None,n,0.6856723000000784,636.1684736,None,0.6856723000000784,,,138Aloud,001,2023_Oct_27_1157,ProdSingRedoBetween,2021.2.3,59.952325910441196,
,,,,17,0,17,0,,,,,,,,,,,,,,,,,,,,,,642.1576983,None,,,,,,,,,,,,,,,,,private,165,18,aloud,new,null,637.3966624,None,637.3966624,None,5,3.489424299999996,637.3966624,None,3.489424299999996,640.9079472999999,None,641.406985,None,641.406985,None,f,0.7190975999999409,641.406985,None,0.7190975999999409,,,138Aloud,001,2023_Oct_27_1157,ProdSingRedoBetween,2021.2.3,59.952325910441196,
,,,,18,0,18,0,,,,,,,,,,,,,,,,,,,,,,646.4284590999999,None,,,,,,,,,,,,,,,,,individual,35,19,aloud,old,blue,642.6584273999999,None,642.6584273999999,None,6,2.9316927999999507,642.6584273999999,None,2.9316927999999507,645.6112637,None,646.1121489999999,None,646.1121489999999,None,r,0.29393900000002304,646.1121489999999,None,0.29393900000002304,,,138Aloud,001,2023_Oct_27_1157,ProdSingRedoBetween,2021.2.3,59.952325910441196,
,,,,19,0,19,0,,,,,,,,,,,,,,,,,,,,,,649.8324124999999,None,,,,,,,,,,,,,,,,,guard,166,20,aloud,new,null,646.9291235,None,646.9291235,None,5,2.1170267999999623,646.9291235,None,2.1170267999999623,649.0644973999999,None,649.5652303999999,None,649.5652303999999,None,f,0.24088589999996657,649.5652303999999,None,0.24088589999996657,,,138Aloud,001,2023_Oct_27_1157,ProdSingRedoBetween,2021.2.3,59.952325910441196,
,,,,20,0,20,0,,,,,,,,,,,,,,,,,,,,,,653.6019872999999,None,,,,,,,,,,,,,,,,,second,28,21,aloud,old,yellow,650.3338126,None,650.3338126,None,6,1.3764522999999826,650.3338126,None,1.3764522999999826,651.7353065,None,652.2345637,None,652.2345637,None,r,1.3395669999999882,652.2345637,None,1.3395669999999882,,,138Aloud,001,2023_Oct_27_1157,ProdSingRedoBetween,2021.2.3,59.952325910441196,
,,,,21,0,21,0,,,,,,,,,,,,,,,,,,,,,,657.6241911,None,,,,,,,,,,,,,,,,,crisis,171,22,aloud,new,null,654.1055229,None,654.1055229,None,1,2.652586900000074,654.1055229,None,2.652586900000074,656.7920214,None,657.3062702,None,657.3062702,None,n,0.3000149000000647,657.3062702,None,0.3000149000000647,,,138Aloud,001,2023_Oct_27_1157,ProdSingRedoBetween,2021.2.3,59.952325910441196,
,,,,22,0,22,0,,,,,,,,,,,,,,,,,,,,,,660.3759073,None,,,,,,,,,,,,,,,,,session,158,23,aloud,new,null,658.1251063,None,658.1251063,None,6,1.1049684999999272,658.1251063,None,1.1049684999999272,659.2584055,None,659.7588562999999,None,659.7588562999999,None,f,0.5992684999999938,659.7588562999999,None,0.5992684999999938,,,138Aloud,001,2023_Oct_27_1157,ProdSingRedoBetween,2021.2.3,59.952325910441196,
,,,,23,0,23,0,,,,,,,,,,,,,,,,,,,,,,662.7950801999999,None,,,,,,,,,,,,,,,,,thick,79,24,aloud,old,red,660.8767128,None,660.8767128,None,6,0.9694281000000728,660.8767128,None,0.9694281000000728,661.8699518999999,None,662.3776859,None,662.3776859,None,r,0.3883771999999226,662.3776859,None,0.3883771999999226,,,138Aloud,001,2023_Oct_27_1157,ProdSingRedoBetween,2021.2.3,59.952325910441196,
,,,,24,0,24,0,,,,,,,,,,,,,,,,,,,,,,665.0994470999999,None,,,,,,,,,,,,,,,,,research,59,25,aloud,old,yellow,663.2966521999999,None,663.2966521999999,None,6,0.9575065000000222,663.2966521999999,None,0.9575065000000222,664.2850156999999,None,664.7971828,None,664.7971828,None,r,0.2809053999999378,664.7971828,None,0.2809053999999378,,,138Aloud,001,2023_Oct_27_1157,ProdSingRedoBetween,2021.2.3,59.952325910441196,
,,,,25,0,25,0,,,,,,,,,,,,,,,,,,,,,,667.5830138,None,,,,,,,,,,,,,,,,,worker,34,26,aloud,old,blue,665.6158325,None,665.6158325,None,6,0.7742425999999796,665.6158325,None,0.7742425999999796,666.4217116,None,666.9327222999999,None,666.9327222999999,None,r,0.6254046000000244,666.9327222999999,None,0.6254046000000244,,,138Aloud,001,2023_Oct_27_1157,ProdSingRedoBetween,2021.2.3,59.952325910441196,
,,,,26,0,26,0,,,,,,,,,,,,,,,,,,,,,,671.3700455,None,,,,,,,,,,,,,,,,,short,24,27,aloud,old,yellow,668.084124,None,668.084124,None,5,2.4579264000000194,668.084124,None,2.4579264000000194,670.5749301,None,671.0868479999999,None,671.0868479999999,None,f,0.2633081000000175,671.0868479999999,None,0.2633081000000175,,,138Aloud,001,2023_Oct_27_1157,ProdSingRedoBetween,2021.2.3,59.952325910441196,
,,,,27,0,27,0,,,,,,,,,,,,,,,,,,,,,,675.2406261,None,,,,,,,,,,,,,,,,,cousin,110,28,aloud,new,null,671.8707422,None,671.8707422,None,4,1.239335899999901,671.8707422,None,1.239335899999901,673.1407905,None,673.6566882,None,673.6566882,None,n,1.5654210000000148,673.6566882,None,1.5654210000000148,,,138Aloud,001,2023_Oct_27_1157,ProdSingRedoBetween,2021.2.3,59.952325910441196,
,,,,28,0,28,0,,,,,,,,,,,,,,,,,,,,,,678.7442224,None,,,,,,,,,,,,,,,,,exchange,141,29,aloud,new,null,675.741049,None,675.741049,None,5,2.169247700000028,675.741049,None,2.169247700000028,677.9310188999999,None,678.4438699,None,678.4438699,None,f,0.2742458999999826,678.4438699,None,0.2742458999999826,,,138Aloud,001,2023_Oct_27_1157,ProdSingRedoBetween,2021.2.3,59.952325910441196,
,,,,29,0,29,0,,,,,,,,,,,,,,,,,,,,,,682.5181537,None,,,,,,,,,,,,,,,,,suggestion,168,30,aloud,new,null,679.2455769,None,679.2455769,None,3,2.0724632000000156,679.2455769,None,2.0724632000000156,681.3479891,None,681.8474229999999,None,681.8474229999999,None,n,0.6386455000000524,681.8474229999999,None,0.6386455000000524,,,138Aloud,001,2023_Oct_27_1157,ProdSingRedoBetween,2021.2.3,59.952325910441196,
,,,,30,0,30,0,,,,,,,,,,,,,,,,,,,,,,685.2004810999999,None,,,,,,,,,,,,,,,,,engineer,125,31,aloud,new,null,683.0318762999999,None,683.0318762999999,None,2,1.5901997999999367,683.0318762999999,None,1.5901997999999367,684.6500054999999,None,685.150752,None,685.150752,None,n,0.02335619999996652,685.150752,None,0.02335619999996652,,,138Aloud,001,2023_Oct_27_1157,ProdSingRedoBetween,2021.2.3,59.952325910441196,
,,,,31,0,31,0,,,,,,,,,,,,,,,,,,,,,,688.954521,None,,,,,,,,,,,,,,,,,revolution,104,32,aloud,new,null,685.7016589,None,685.7016589,None,2,1.9523991999999453,685.7016589,None,1.9523991999999453,687.6703276,None,688.1706307,None,688.1706307,None,n,0.7634001999999782,688.1706307,None,0.7634001999999782,,,138Aloud,001,2023_Oct_27_1157,ProdSingRedoBetween,2021.2.3,59.952325910441196,
,,,,32,0,32,0,,,,,,,,,,,,,,,,,,,,,,691.9596287999999,None,,,,,,,,,,,,,,,,,subject,177,33,aloud,new,null,689.458547,None,689.458547,None,2,1.6755362000000105,689.458547,None,1.6755362000000105,691.1638959999999,None,691.674078,None,691.674078,None,n,0.26796279999996386,691.674078,None,0.26796279999996386,,,138Aloud,001,2023_Oct_27_1157,ProdSingRedoBetween,2021.2.3,59.952325910441196,
,,,,33,0,33,0,,,,,,,,,,,,,,,,,,,,,,695.3275203,None,,,,,,,,,,,,,,,,,concern,97,34,aloud,new,null,692.4745217999999,None,692.4745217999999,None,1,1.9795938999999407,692.4745217999999,None,1.9795938999999407,694.479068,None,694.9937319,None,694.9937319,None,n,0.3083100999999715,694.9937319,None,0.3083100999999715,,,138Aloud,001,2023_Oct_27_1157,ProdSingRedoBetween,2021.2.3,59.952325910441196,
,,,,34,0,34,0,,,,,,,,,,,,,,,,,,,,,,698.0306804999999,None,,,,,,,,,,,,,,,,,beginning,129,35,aloud,new,null,695.8280853,None,695.8280853,None,1,1.3299184999999625,695.8280853,None,1.3299184999999625,697.1813285,None,697.6966620999999,None,697.6966620999999,None,n,0.3174172000000226,697.6966620999999,None,0.3174172000000226,,,138Aloud,001,2023_Oct_27_1157,ProdSingRedoBetween,2021.2.3,59.952325910441196,
,,,,35,0,35,0,,,,,,,,,,,,,,,,,,,,,,701.2837489,None,,,,,,,,,,,,,,,,,population,70,36,aloud,old,red,698.5311971,None,698.5311971,None,6,1.362854000000084,698.5311971,None,1.362854000000084,699.9165226,None,700.4162461999999,None,700.4162461999999,None,r,0.8457968999999821,700.4162461999999,None,0.8457968999999821,,,138Aloud,001,2023_Oct_27_1157,ProdSingRedoBetween,2021.2.3,59.952325910441196,
,,,,36,0,36,0,,,,,,,,,,,,,,,,,,,,,,704.9540564,None,,,,,,,,,,,,,,,,,material,51,37,aloud,old,blue,701.784397,None,701.784397,None,4,1.7016380999999683,701.784397,None,1.7016380999999683,703.5072816999999,None,704.019378,None,704.019378,None,n,0.9146672000000535,704.019378,None,0.9146672000000535,,,138Aloud,001,2023_Oct_27_1157,ProdSingRedoBetween,2021.2.3,59.952325910441196,
,,,,37,0,37,0,,,,,,,,,,,,,,,,,,,,,,707.6226677,None,,,,,,,,,,,,,,,,,problem,91,38,aloud,new,null,705.4560523,None,705.4560523,None,4,1.3100041999999803,705.4560523,None,1.3100041999999803,706.7932307,None,707.3062926,None,707.3062926,None,n,0.29169999999999163,707.3062926,None,0.29169999999999163,,,138Aloud,001,2023_Oct_27_1157,ProdSingRedoBetween,2021.2.3,59.952325910441196,
,,,,38,0,38,0,,,,,,,,,,,,,,,,,,,,,,710.4093829999999,None,,,,,,,,,,,,,,,,,rapid,136,39,aloud,new,null,708.1239065,None,708.1239065,None,1,1.426177399999915,708.1239065,None,1.426177399999915,709.5783418,None,710.0921674,None,710.0921674,None,n,0.29813960000001316,710.0921674,None,0.29813960000001316,,,138Aloud,001,2023_Oct_27_1157,ProdSingRedoBetween,2021.2.3,59.952325910441196,
,,,,39,0,39,0,,,,,,,,,,,,,,,,,,,,,,713.7126707,None,,,,,,,,,,,,,,,,,music,116,40,aloud,new,null,710.911038,None,710.911038,None,2,1.9189883000000236,710.911038,None,1.9189883000000236,712.8638632999999,None,713.3787957,None,713.3787957,None,f,0.315200300000015,713.3787957,None,0.315200300000015,,,138Aloud,001,2023_Oct_27_1157,ProdSingRedoBetween,2021.2.3,59.952325910441196,
,,,,40,0,40,0,,,,,,,,,,,,,,,,,,,,,,716.3340162999999,None,,,,,,,,,,,,,,,,,burden,156,41,aloud,new,null,714.2156183,None,714.2156183,None,1,1.294429100000002,714.2156183,None,1.294429100000002,715.5356777,None,716.0481688,None,716.0481688,None,n,0.2620186000000331,716.0481688,None,0.2620186000000331,,,138Aloud,001,2023_Oct_27_1157,ProdSingRedoBetween,2021.2.3,59.952325910441196,
,,,,41,0,41,0,,,,,,,,,,,,,,,,,,,,,,718.3855599,None,,,,,,,,,,,,,,,,,height,130,42,aloud,new,null,716.8494569999999,None,716.8494569999999,None,1,0.876562100000001,716.8494569999999,None,0.876562100000001,717.7494448,None,718.2504233999999,None,718.2504233999999,None,n,0.11566310000000612,718.2504233999999,None,0.11566310000000612,,,138Aloud,001,2023_Oct_27_1157,ProdSingRedoBetween,2021.2.3,59.952325910441196,
,,,,42,0,42,0,,,,,,,,,,,,,,,,,,,,,,720.6690724,None,,,,,,,,,,,,,,,,,addition,170,43,aloud,new,null,718.9011883999999,None,718.9011883999999,None,1,1.1048684999999523,718.9011883999999,None,1.1048684999999523,720.0357067,None,720.5360233,None,720.5360233,None,n,0.11796830000002956,720.5360233,None,0.11796830000002956,,,138Aloud,001,2023_Oct_27_1157,ProdSingRedoBetween,2021.2.3,59.952325910441196,
,,,,43,0,43,0,,,,,,,,,,,,,,,,,,,,,,723.2885805999999,None,,,,,,,,,,,,,,,,,religion,8,44,aloud,old,yellow,721.1743998,None,721.1743998,None,6,1.2876693999999134,721.1743998,None,1.2876693999999134,722.4889016,None,722.9882043,None,722.9882043,None,r,0.27389469999991434,722.9882043,None,0.27389469999991434,,,138Aloud,001,2023_Oct_27_1157,ProdSingRedoBetween,2021.2.3,59.952325910441196,
,,,,44,0,44,0,,,,,,,,,,,,,,,,,,,,,,725.7577913,None,,,,,,,,,,,,,,,,,clear,175,45,aloud,new,null,723.7891932,None,723.7891932,None,1,1.168848500000081,723.7891932,None,1.168848500000081,724.9743619999999,None,725.4752492,None,725.4752492,None,n,0.258884299999977,725.4752492,None,0.258884299999977,,,138Aloud,001,2023_Oct_27_1157,ProdSingRedoBetween,2021.2.3,59.952325910441196,
,,,,45,0,45,0,,,,,,,,,,,,,,,,,,,,,,728.4443893,None,,,,,,,,,,,,,,,,,speech,74,46,aloud,old,red,726.2579238999999,None,726.2579238999999,None,6,1.2761189999999942,726.2579238999999,None,1.2761189999999942,727.5629005999999,None,728.0768654999999,None,728.0768654999999,None,f,0.34515190000001894,728.0768654999999,None,0.34515190000001894,,,138Aloud,001,2023_Oct_27_1157,ProdSingRedoBetween,2021.2.3,59.952325910441196,
,,,,46,0,46,0,,,,,,,,,,,,,,,,,,,,,,732.764517,None,,,,,,,,,,,,,,,,,light,159,47,aloud,new,null,728.9531546,None,728.9531546,None,1,2.1888558999999077,728.9531546,None,2.1888558999999077,731.1675770999999,None,731.6804085,None,731.6804085,None,n,1.0616083999999546,731.6804085,None,1.0616083999999546,,,138Aloud,001,2023_Oct_27_1157,ProdSingRedoBetween,2021.2.3,59.952325910441196,
,,,,47,0,47,0,,,,,,,,,,,,,,,,,,,,,,735.3175656,None,,,,,,,,,,,,,,,,,council,54,48,aloud,old,blue,733.2659764,None,733.2659764,None,6,1.1400165000000015,733.2659764,None,1.1400165000000015,734.433288,None,734.9334838999999,None,734.9334838999999,None,r,0.35253580000005513,734.9334838999999,None,0.35253580000005513,,,138Aloud,001,2023_Oct_27_1157,ProdSingRedoBetween,2021.2.3,59.952325910441196,
,,,,48,0,48,0,,,,,,,,,,,,,,,,,,,,,,738.4202957,None,,,,,,,,,,,,,,,,,thing,152,49,aloud,new,null,735.8183578,None,735.8183578,None,1,1.8516184000000067,735.8183578,None,1.8516184000000067,737.6861501999999,None,738.1867070999999,None,738.1867070999999,None,n,0.21129980000000614,738.1867070999999,None,0.21129980000000614,,,138Aloud,001,2023_Oct_27_1157,ProdSingRedoBetween,2021.2.3,59.952325910441196,
,,,,49,0,49,0,,,,,,,,,,,,,,,,,,,,,,741.1396688,None,,,,,,,,,,,,,,,,,reach,42,50,aloud,old,blue,738.9228493999999,None,738.9228493999999,None,6,1.2431265000000167,738.9228493999999,None,1.2431265000000167,740.1887068999999,None,740.6894009,None,740.6894009,None,f,0.42060189999995146,740.6894009,None,0.42060189999995146,,,138Aloud,001,2023_Oct_27_1157,ProdSingRedoBetween,2021.2.3,59.952325910441196,
,,,,50,0,50,0,,,,,,,,,,,,,,,,,,,,,,743.4585715,None,,,,,,,,,,,,,,,,,rural,46,51,aloud,old,blue,741.6404319,None,741.6404319,None,6,1.0135069000000385,741.6404319,None,1.0135069000000385,742.6775663,None,743.1923151,None,743.1923151,None,r,0.24569289999999455,743.1923151,None,0.24569289999999455,,,138Aloud,001,2023_Oct_27_1157,ProdSingRedoBetween,2021.2.3,59.952325910441196,
,,,,51,0,51,0,,,,,,,,,,,,,,,,,,,,,,747.7130546999999,None,,,,,,,,,,,,,,,,,build,154,52,aloud,new,null,743.9628945999999,None,743.9628945999999,None,5,3.083238499999993,743.9628945999999,None,3.083238499999993,747.0625911999999,None,747.5631715999999,None,747.5631715999999,None,f,0.130965900000092,747.5631715999999,None,0.130965900000092,,,138Aloud,001,2023_Oct_27_1157,ProdSingRedoBetween,2021.2.3,59.952325910441196,
,,,,52,0,52,0,,,,,,,,,,,,,,,,,,,,,,750.4490268999999,None,,,,,,,,,,,,,,,,,trail,58,53,aloud,old,blue,748.2137103,None,748.2137103,None,6,1.3682538999998997,748.2137103,None,1.3682538999998997,749.5996104999999,None,750.0990066999999,None,750.0990066999999,None,r,0.3229658999999856,750.0990066999999,None,0.3229658999999856,,,138Aloud,001,2023_Oct_27_1157,ProdSingRedoBetween,2021.2.3,59.952325910441196,
,,,,53,0,53,0,,,,,,,,,,,,,,,,,,,,,,752.6345335999999,None,,,,,,,,,,,,,,,,,danger,38,54,aloud,old,blue,750.9496336999999,None,750.9496336999999,None,6,0.856383400000027,750.9496336999999,None,0.856383400000027,751.8337123,None,752.3345958,None,752.3345958,None,r,0.27939040000001114,752.3345958,None,0.27939040000001114,,,138Aloud,001,2023_Oct_27_1157,ProdSingRedoBetween,2021.2.3,59.952325910441196,
,,,,54,0,54,0,,,,,,,,,,,,,,,,,,,,,,756.1881434,None,,,,,,,,,,,,,,,,,hearing,99,55,aloud,new,null,753.1354719,None,753.1354719,None,4,1.6706735000000208,753.1354719,None,1.6706735000000208,754.8400991999999,None,755.3538203999999,None,755.3538203999999,None,n,0.8041794999999183,755.3538203999999,None,0.8041794999999183,,,138Aloud,001,2023_Oct_27_1157,ProdSingRedoBetween,2021.2.3,59.952325910441196,
,,,,55,0,55,0,,,,,,,,,,,,,,,,,,,,,,758.7071980999999,None,,,,,,,,,,,,,,,,,majority,92,56,aloud,new,null,756.6943904,None,756.6943904,None,4,1.1915509000000384,756.6943904,None,1.1915509000000384,757.9106074,None,758.4239484999999,None,758.4239484999999,None,f,0.25416710000001785,758.4239484999999,None,0.25416710000001785,,,138Aloud,001,2023_Oct_27_1157,ProdSingRedoBetween,2021.2.3,59.952325910441196,
,,,,56,0,56,0,,,,,,,,,,,,,,,,,,,,,,761.6268619,None,,,,,,,,,,,,,,,,,captain,179,57,aloud,new,null,759.211998,None,759.211998,None,5,1.569973799999957,759.211998,None,1.569973799999957,760.813286,None,761.326679,None,761.326679,None,f,0.27129870000010214,761.326679,None,0.27129870000010214,,,138Aloud,001,2023_Oct_27_1157,ProdSingRedoBetween,2021.2.3,59.952325910441196,
,,,,57,0,57,0,,,,,,,,,,,,,,,,,,,,,,764.1295844,None,,,,,,,,,,,,,,,,,style,173,58,aloud,new,null,762.1274618,None,762.1274618,None,4,1.198531399999979,762.1274618,None,1.198531399999979,763.3486704999999,None,763.862569,None,763.862569,None,f,0.23943400000007387,763.862569,None,0.23943400000007387,,,138Aloud,001,2023_Oct_27_1157,ProdSingRedoBetween,2021.2.3,59.952325910441196,
,,,,58,0,58,0,,,,,,,,,,,,,,,,,,,,,,766.8154347999999,None,,,,,,,,,,,,,,,,,oxygen,101,59,aloud,new,null,764.6328022,None,764.6328022,None,2,1.4131955999999946,764.6328022,None,1.4131955999999946,766.0657993,None,766.5654483,None,766.5654483,None,n,0.23255699999992885,766.5654483,None,0.23255699999992885,,,138Aloud,001,2023_Oct_27_1157,ProdSingRedoBetween,2021.2.3,59.952325910441196,
,,,,59,0,59,0,,,,,,,,,,,,,,,,,,,,,,769.8856774,None,,,,,,,,,,,,,,,,,entrance,2,60,aloud,old,yellow,767.3181165,None,767.3181165,None,3,1.6798462000000427,767.3181165,None,1.6798462000000427,769.0234393999999,None,769.5349774,None,769.5349774,None,f,0.3350040999999919,769.5349774,None,0.3350040999999919,,,138Aloud,001,2023_Oct_27_1157,ProdSingRedoBetween,2021.2.3,59.952325910441196,
,,,,60,0,60,0,,,,,,,,,,,,,,,,,,,,,,773.5746538,None,,,,,,,,,,,,,,,,,junior,7,61,aloud,old,yellow,770.3871522,None,770.3871522,None,1,2.54692399999999,770.3871522,None,2.54692399999999,772.9548214,None,773.4556560999999,None,773.4556560999999,None,n,0.0863301000000547,773.4556560999999,None,0.0863301000000547,,,138Aloud,001,2023_Oct_27_1157,ProdSingRedoBetween,2021.2.3,59.952325910441196,
,,,,61,0,61,0,,,,,,,,,,,,,,,,,,,,,,776.476581,None,,,,,,,,,,,,,,,,,dream,113,62,aloud,new,null,774.0903434999999,None,774.0903434999999,None,5,1.691789999999969,774.0903434999999,None,1.691789999999969,775.8077608,None,776.3084381,None,776.3084381,None,f,0.13750840000000153,776.3084381,None,0.13750840000000153,,,138Aloud,001,2023_Oct_27_1157,ProdSingRedoBetween,2021.2.3,59.952325910441196,
,,,,62,0,62,0,,,,,,,,,,,,,,,,,,,,,,778.7805979999999,None,,,,,,,,,,,,,,,,,citizen,81,63,aloud,old,red,776.9924394999999,None,776.9924394999999,None,6,0.9976638999999068,776.9924394999999,None,0.9976638999999068,778.0120641999999,None,778.5272824,None,778.5272824,None,r,0.22278859999994438,778.5272824,None,0.22278859999994438,,,138Aloud,001,2023_Oct_27_1157,ProdSingRedoBetween,2021.2.3,59.952325910441196,
,,,,63,0,63,0,,,,,,,,,,,,,,,,,,,,,,781.7634916999999,None,,,,,,,,,,,,,,,,,drama,123,64,aloud,new,null,779.2950116999999,None,779.2950116999999,None,3,1.6870380000000296,779.2950116999999,None,1.6870380000000296,781.0128335999999,None,781.5135217999999,None,781.5135217999999,None,n,0.2205827999999883,781.5135217999999,None,0.2205827999999883,,,138Aloud,001,2023_Oct_27_1157,ProdSingRedoBetween,2021.2.3,59.952325910441196,
,,,,64,0,64,0,,,,,,,,,,,,,,,,,,,,,,785.4190474999999,None,,,,,,,,,,,,,,,,,contract,66,65,aloud,old,red,782.2654309,None,782.2654309,None,5,2.4446100000000115,782.2654309,None,2.4446100000000115,784.7359237,None,785.2507469,None,785.2507469,None,f,0.147173900000098,785.2507469,None,0.147173900000098,,,138Aloud,001,2023_Oct_27_1157,ProdSingRedoBetween,2021.2.3,59.952325910441196,
,,,,65,0,65,0,,,,,,,,,,,,,,,,,,,,,,787.5528492,None,,,,,,,,,,,,,,,,,question,14,66,aloud,old,yellow,785.9344354,None,785.9344354,None,6,0.9035309999999299,785.9344354,None,0.9035309999999299,786.8743036999999,None,787.3863013,None,787.3863013,None,r,0.14767649999998866,787.3863013,None,0.14767649999998866,,,138Aloud,001,2023_Oct_27_1157,ProdSingRedoBetween,2021.2.3,59.952325910441196,
,,,,66,0,66,0,,,,,,,,,,,,,,,,,,,,,,791.6403424,None,,,,,,,,,,,,,,,,,command,115,67,aloud,new,null,788.0567480999999,None,788.0567480999999,None,5,2.7973376999999573,788.0567480999999,None,2.7973376999999573,790.8752218999999,None,791.3899739999999,None,791.3899739999999,None,f,0.23205530000007002,791.3899739999999,None,0.23205530000007002,,,138Aloud,001,2023_Oct_27_1157,ProdSingRedoBetween,2021.2.3,59.952325910441196,
,,,,67,0,67,0,,,,,,,,,,,,,,,,,,,,,,794.1931058,None,,,,,,,,,,,,,,,,,tennis,78,68,aloud,old,red,792.1458584999999,None,792.1458584999999,None,6,1.0201949000000923,792.1458584999999,None,1.0201949000000923,793.1948099,None,793.7089982,None,793.7089982,None,r,0.4650648000000501,793.7089982,None,0.4650648000000501,,,138Aloud,001,2023_Oct_27_1157,ProdSingRedoBetween,2021.2.3,59.952325910441196,
,,,,68,0,68,0,,,,,,,,,,,,,,,,,,,,,,796.228171,None,,,,,,,,,,,,,,,,,route,30,69,aloud,old,blue,794.7041196,None,794.7041196,None,6,0.7260072000000264,794.7041196,None,0.7260072000000264,795.4606822,None,795.9611789999999,None,795.9611789999999,None,r,0.23694879999993645,795.9611789999999,None,0.23694879999993645,,,138Aloud,001,2023_Oct_27_1157,ProdSingRedoBetween,2021.2.3,59.952325910441196,
,,,,69,0,69,0,,,,,,,,,,,,,,,,,,,,,,798.8645458999999,None,,,,,,,,,,,,,,,,,weather,153,70,aloud,new,null,796.7341718,None,796.7341718,None,3,1.4558037000000468,796.7341718,None,1.4558037000000468,798.2146643,None,798.7138435999999,None,798.7138435999999,None,n,0.12409579999996367,798.7138435999999,None,0.12409579999996367,,,138Aloud,001,2023_Oct_27_1157,ProdSingRedoBetween,2021.2.3,59.952325910441196,
,,,,70,0,70,0,,,,,,,,,,,,,,,,,,,,,,802.5515005,None,,,,,,,,,,,,,,,,,threat,85,71,aloud,old,red,799.3655417,None,799.3655417,None,2,1.8164857000000438,799.3655417,None,1.8164857000000438,801.2030932,None,801.7168011,None,801.7168011,None,n,0.809119199999941,801.7168011,None,0.809119199999941,,,138Aloud,001,2023_Oct_27_1157,ProdSingRedoBetween,2021.2.3,59.952325910441196,
,,,,71,0,71,0,,,,,,,,,,,,,,,,,,,,,,805.153597,None,,,,,,,,,,,,,,,,,staff,126,72,aloud,new,null,803.0513328,None,803.0513328,None,2,1.2585702000000083,803.0513328,None,1.2585702000000083,804.3451081,None,804.8535627,None,804.8535627,None,n,0.280356500000039,804.8535627,None,0.280356500000039,,,138Aloud,001,2023_Oct_27_1157,ProdSingRedoBetween,2021.2.3,59.952325910441196,
,,,,72,0,72,0,,,,,,,,,,,,,,,,,,,,,,807.5891882999999,None,,,,,,,,,,,,,,,,,surface,83,73,aloud,old,red,805.6565882,None,805.6565882,None,2,1.0854467999999997,805.6565882,None,1.0854467999999997,806.7734902999999,None,807.2893714999999,None,807.2893714999999,None,n,0.27654949999998735,807.2893714999999,None,0.27654949999998735,,,138Aloud,001,2023_Oct_27_1157,ProdSingRedoBetween,2021.2.3,59.952325910441196,
,,,,73,0,73,0,,,,,,,,,,,,,,,,,,,,,,811.576779,None,,,,,,,,,,,,,,,,,foundation,90,74,aloud,new,null,808.0919313999999,None,808.0919313999999,None,2,2.09802030000003,808.0919313999999,None,2.09802030000003,810.2104393,None,810.7257446,None,810.7257446,None,n,0.8322554999999738,810.7257446,None,0.8322554999999738,,,138Aloud,001,2023_Oct_27_1157,ProdSingRedoBetween,2021.2.3,59.952325910441196,
,,,,74,0,74,0,,,,,,,,,,,,,,,,,,,,,,813.9290649,None,,,,,,,,,,,,,,,,,order,56,75,aloud,old,blue,812.0789621,None,812.0789621,None,2,0.982922599999938,812.0789621,None,0.982922599999938,813.0809287,None,813.5953261999999,None,813.5953261999999,None,n,0.31460440000000744,813.5953261999999,None,0.31460440000000744,,,138Aloud,001,2023_Oct_27_1157,ProdSingRedoBetween,2021.2.3,59.952325910441196,
,,,,75,0,75,0,,,,,,,,,,,,,,,,,,,,,,815.8000235999999,None,,,,,,,,,,,,,,,,,front,103,76,aloud,new,null,814.4339431999999,None,814.4339431999999,None,2,0.73196310000003,814.4339431999999,None,0.73196310000003,815.2031568,None,815.7142514,None,815.7142514,None,n,0.05161150000003545,815.7142514,None,0.05161150000003545,,,138Aloud,001,2023_Oct_27_1157,ProdSingRedoBetween,2021.2.3,59.952325910441196,
,,,,76,0,76,0,,,,,,,,,,,,,,,,,,,,,,819.0840086999999,None,,,,,,,,,,,,,,,,,debate,49,77,aloud,old,blue,816.3148924999999,None,816.3148924999999,None,5,2.0832141999999294,816.3148924999999,None,2.0832141999999294,818.4206158999999,None,818.934166,None,818.934166,None,f,0.11973039999998036,818.934166,None,0.11973039999998036,,,138Aloud,001,2023_Oct_27_1157,ProdSingRedoBetween,2021.2.3,59.952325910441196,
,,,,77,0,77,0,,,,,,,,,,,,,,,,,,,,,,821.4366041,None,,,,,,,,,,,,,,,,,crime,29,78,aloud,old,blue,819.5847957999999,None,819.5847957999999,None,6,1.1172313999999233,819.5847957999999,None,1.1172313999999233,820.7268448,None,821.2364445,None,821.2364445,None,r,0.1694776000000502,821.2364445,None,0.1694776000000502,,,138Aloud,001,2023_Oct_27_1157,ProdSingRedoBetween,2021.2.3,59.952325910441196,
,,,,78,0,78,0,,,,,,,,,,,,,,,,,,,,,,825.5904365,None,,,,,,,,,,,,,,,,,number,114,79,aloud,new,null,821.9370336,None,821.9370336,None,3,2.8850124000000505,821.9370336,None,2.8850124000000505,824.8490783,None,825.3572035,None,825.3572035,None,n,0.20873810000000503,825.3572035,None,0.20873810000000503,,,138Aloud,001,2023_Oct_27_1157,ProdSingRedoBetween,2021.2.3,59.952325910441196,
,,,,79,0,79,0,,,,,,,,,,,,,,,,,,,,,,828.3100093999999,None,,,,,,,,,,,,,,,,,minute,12,80,aloud,old,yellow,826.1054181,None,826.1054181,None,6,1.3564647999999124,826.1054181,None,1.3564647999999124,827.4947568,None,828.0097917999999,None,828.0097917999999,None,r,0.276108000000022,828.0097917999999,None,0.276108000000022,,,138Aloud,001,2023_Oct_27_1157,ProdSingRedoBetween,2021.2.3,59.952325910441196,
,,,,80,0,80,0,,,,,,,,,,,,,,,,,,,,,,831.2299301,None,,,,,,,,,,,,,,,,,spoke,127,81,aloud,new,null,828.8118405,None,828.8118405,None,4,1.4501980999998523,828.8118405,None,1.4501980999998523,830.2832277,None,830.7960946999999,None,830.7960946999999,None,n,0.4017887999998493,830.7960946999999,None,0.4017887999998493,,,138Aloud,001,2023_Oct_27_1157,ProdSingRedoBetween,2021.2.3,59.952325910441196,
,,,,81,0,81,0,,,,,,,,,,,,,,,,,,,,,,834.5290697999999,None,,,,,,,,,,,,,,,,,edition,157,82,aloud,new,null,831.7303178,None,831.7303178,None,3,2.0519782999999734,831.7303178,None,2.0519782999999734,833.8024571999999,None,834.3167111999999,None,834.3167111999999,None,f,0.16921139999999468,834.3167111999999,None,0.16921139999999468,,,138Aloud,001,2023_Oct_27_1157,ProdSingRedoBetween,2021.2.3,59.952325910441196,
,,,,82,0,82,0,,,,,,,,,,,,,,,,,,,,,,837.41893,None,,,,,,,,,,,,,,,,,distance,102,83,aloud,new,null,835.0337159000001,None,835.0337159000001,None,2,1.4602391000000807,835.0337159000001,None,1.4602391000000807,836.5229864999999,None,837.0360332999999,None,837.0360332999999,None,n,0.35383600000000115,837.0360332999999,None,0.35383600000000115,,,138Aloud,001,2023_Oct_27_1157,ProdSingRedoBetween,2021.2.3,59.952325910441196,
,,,,83,0,83,0,,,,,,,,,,,,,,,,,,,,,,840.0716640999999,None,,,,,,,,,,,,,,,,,department,39,84,aloud,old,blue,837.9202553,None,837.9202553,None,6,1.3496377999999822,837.9202553,None,1.3496377999999822,839.2894402,None,839.7889958999999,None,839.7889958999999,None,r,0.2649278999999751,839.7889958999999,None,0.2649278999999751,,,138Aloud,001,2023_Oct_27_1157,ProdSingRedoBetween,2021.2.3,59.952325910441196,
,,,,84,0,84,0,,,,,,,,,,,,,,,,,,,,,,844.2592121,None,,,,,,,,,,,,,,,,,notice,26,85,aloud,old,yellow,840.5737285999999,None,840.5737285999999,None,5,1.216191600000002,840.5737285999999,None,1.216191600000002,841.8068908,None,842.3074555000001,None,842.3074555000001,None,f,1.9303833999999824,842.3074555000001,None,1.9303833999999824,,,138Aloud,001,2023_Oct_27_1157,ProdSingRedoBetween,2021.2.3,59.952325910441196,
,,,,85,0,85,0,,,,,,,,,,,,,,,,,,,,,,846.6952598,None,,,,,,,,,,,,,,,,,leader,55,86,aloud,old,blue,844.7599653,None,844.7599653,None,5,1.157892899999979,844.7599653,None,1.157892899999979,845.9440485999999,None,846.4449219,None,846.4449219,None,f,0.2329824999999346,846.4449219,None,0.2329824999999346,,,138Aloud,001,2023_Oct_27_1157,ProdSingRedoBetween,2021.2.3,59.952325910441196,
,,,,86,0,86,0,,,,,,,,,,,,,,,,,,,,,,851.1831545,None,,,,,,,,,,,,,,,,,employment,100,87,aloud,new,null,847.1978406000001,None,847.1978406000001,None,3,3.1360687000001235,847.1978406000001,None,3.1360687000001235,850.3691457,None,850.8828349999999,None,850.8828349999999,None,f,0.27504529999987426,850.8828349999999,None,0.27504529999987426,,,138Aloud,001,2023_Oct_27_1157,ProdSingRedoBetween,2021.2.3,59.952325910441196,
,,,,87,0,87,0,,,,,,,,,,,,,,,,,,,,,,854.1022469,None,,,,,,,,,,,,,,,,,close,151,88,aloud,new,null,851.6858104,None,851.6858104,None,2,1.456051000000116,851.6858104,None,1.456051000000116,853.1682186,None,853.6688420999999,None,853.6688420999999,None,n,0.4090759999999136,853.6688420999999,None,0.4090759999999136,,,138Aloud,001,2023_Oct_27_1157,ProdSingRedoBetween,2021.2.3,59.952325910441196,
,,,,88,0,88,0,,,,,,,,,,,,,,,,,,,,,,856.538202,None,,,,,,,,,,,,,,,,,shape,132,89,aloud,new,null,854.6071198,None,854.6071198,None,2,1.0469038999999611,854.6071198,None,1.0469038999999611,855.6750308000001,None,856.1879208,None,856.1879208,None,n,0.32190529999979844,856.1879208,None,0.32190529999979844,,,138Aloud,001,2023_Oct_27_1157,ProdSingRedoBetween,2021.2.3,59.952325910441196,
,,,,89,0,89,0,,,,,,,,,,,,,,,,,,,,,,858.8909166999999,None,,,,,,,,,,,,,,,,,trash,172,90,aloud,new,null,857.0388995999999,None,857.0388995999999,None,1,1.0309714999998505,857.0388995999999,None,1.0309714999998505,858.0941292999998,None,858.6070921999999,None,858.6070921999999,None,n,0.25476099999991675,858.6070921999999,None,0.25476099999991675,,,138Aloud,001,2023_Oct_27_1157,ProdSingRedoBetween,2021.2.3,59.952325910441196,
,,,,90,0,90,0,,,,,,,,,,,,,,,,,,,,,,861.5097341999999,None,,,,,,,,,,,,,,,,,incident,4,91,aloud,old,yellow,859.3929367000001,None,859.3929367000001,None,6,1.2929341999999906,859.3929367000001,None,1.2929341999999906,860.7106283999999,None,861.2097104,None,861.2097104,None,r,0.26812329999984286,861.2097104,None,0.26812329999984286,,,138Aloud,001,2023_Oct_27_1157,ProdSingRedoBetween,2021.2.3,59.952325910441196,
,,,,91,0,91,0,,,,,,,,,,,,,,,,,,,,,,865.0130901999999,None,,,,,,,,,,,,,,,,,surprise,64,92,aloud,old,red,862.0105454,None,862.0105454,None,2,2.2113263999999617,862.0105454,None,2.2113263999999617,864.2501755999999,None,864.7629887,None,864.7629887,None,n,0.2188487000000805,864.7629887,None,0.2188487000000805,,,138Aloud,001,2023_Oct_27_1157,ProdSingRedoBetween,2021.2.3,59.952325910441196,
,,,,92,0,92,0,,,,,,,,,,,,,,,,,,,,,,867.5658851000001,None,,,,,,,,,,,,,,,,,property,32,93,aloud,old,blue,865.5143630999999,None,865.5143630999999,None,5,1.3635239000000183,865.5143630999999,None,1.3635239000000183,866.9037441,None,867.4157513,None,867.4157513,None,f,0.126185200000009,867.4157513,None,0.126185200000009,,,138Aloud,001,2023_Oct_27_1157,ProdSingRedoBetween,2021.2.3,59.952325910441196,
,,,,93,0,93,0,,,,,,,,,,,,,,,,,,,,,,870.2351119,None,,,,,,,,,,,,,,,,,length,146,94,aloud,new,null,868.0664816999999,None,868.0664816999999,None,2,1.3633965000001353,868.0664816999999,None,1.3633965000001353,869.458003,None,869.9684514,None,869.9684514,None,n,0.2454261000000315,869.9684514,None,0.2454261000000315,,,138Aloud,001,2023_Oct_27_1157,ProdSingRedoBetween,2021.2.3,59.952325910441196,
,,,,94,0,94,0,,,,,,,,,,,,,,,,,,,,,,872.5039231999999,None,,,,,,,,,,,,,,,,,skill,68,95,aloud,old,red,870.7384098999999,None,870.7384098999999,None,6,1.0035721000001558,870.7384098999999,None,1.0035721000001558,871.7724974,None,872.2872378,None,872.2872378,None,r,0.19878380000000107,872.2872378,None,0.19878380000000107,,,138Aloud,001,2023_Oct_27_1157,ProdSingRedoBetween,2021.2.3,59.952325910441196,
,,,,95,0,95,0,,,,,,,,,,,,,,,,,,,,,,875.9079724999999,None,,,,,,,,,,,,,,,,,owner,63,96,aloud,old,red,873.0050796999999,None,873.0050796999999,None,6,2.0407976999999846,873.0050796999999,None,2.0407976999999846,875.0757871999999,None,875.5906811,None,875.5906811,None,f,0.2871864999999616,875.5906811,None,0.2871864999999616,,,138Aloud,001,2023_Oct_27_1157,ProdSingRedoBetween,2021.2.3,59.952325910441196,
,,,,96,0,96,0,,,,,,,,,,,,,,,,,,,,,,878.1437572,None,,,,,,,,,,,,,,,,,silence,84,97,aloud,old,red,876.4082407999999,None,876.4082407999999,None,6,1.0136047999999391,876.4082407999999,None,1.0136047999999391,877.4448461,None,877.9595669999999,None,877.9595669999999,None,r,0.16629459999990104,877.9595669999999,None,0.16629459999990104,,,138Aloud,001,2023_Oct_27_1157,ProdSingRedoBetween,2021.2.3,59.952325910441196,
,,,,97,0,97,0,,,,,,,,,,,,,,,,,,,,,,880.2283528,None,,,,,,,,,,,,,,,,,ground,53,98,aloud,old,blue,878.6438544,None,878.6438544,None,6,0.8099895000000288,878.6438544,None,0.8099895000000288,879.4780538999998,None,879.9782097,None,879.9782097,None,r,0.2276329999999689,879.9782097,None,0.2276329999999689,,,138Aloud,001,2023_Oct_27_1157,ProdSingRedoBetween,2021.2.3,59.952325910441196,
,,,,98,0,98,0,,,,,,,,,,,,,,,,,,,,,,882.0322334,None,,,,,,,,,,,,,,,,,production,86,99,aloud,old,red,880.7306575,None,880.7306575,None,6,0.6752853000000414,880.7306575,None,0.6752853000000414,881.4381481999999,None,881.9470999999999,None,881.9470999999999,None,r,0.058743000000049506,881.9470999999999,None,0.058743000000049506,,,138Aloud,001,2023_Oct_27_1157,ProdSingRedoBetween,2021.2.3,59.952325910441196,
,,,,99,0,99,0,,,,,,,,,,,,,,,,,,,,,,884.3494472,None,,,,,,,,,,,,,,,,,attack,72,100,aloud,old,red,882.5475896999999,None,882.5475896999999,None,6,0.6502748999998857,882.5475896999999,None,0.6502748999998857,883.2160681999999,None,883.7154819,None,883.7154819,None,r,0.6104628000000503,883.7154819,None,0.6104628000000503,,,138Aloud,001,2023_Oct_27_1157,ProdSingRedoBetween,2021.2.3,59.952325910441196,
,,,,100,0,100,0,,,,,,,,,,,,,,,,,,,,,,887.4191707999998,None,,,,,,,,,,,,,,,,,store,27,101,aloud,old,yellow,884.8518902999999,None,884.8518902999999,None,4,1.882094799999777,884.8518902999999,None,1.882094799999777,886.7550521999999,None,887.2692241,None,887.2692241,None,f,0.1205801999999494,887.2692241,None,0.1205801999999494,,,138Aloud,001,2023_Oct_27_1157,ProdSingRedoBetween,2021.2.3,59.952325910441196,
,,,,101,0,101,0,,,,,,,,,,,,,,,,,,,,,,889.6550984,None,,,,,,,,,,,,,,,,,safety,134,102,aloud,new,null,887.9195405,None,887.9195405,None,6,1.0382594000000154,887.9195405,None,1.0382594000000154,888.9935244999999,None,889.5044495,None,889.5044495,None,r,0.13338440000006813,889.5044495,None,0.13338440000006813,,,138Aloud,001,2023_Oct_27_1157,ProdSingRedoBetween,2021.2.3,59.952325910441196,
,,,,102,0,102,0,,,,,,,,,,,,,,,,,,,,,,893.2414895,None,,,,,,,,,,,,,,,,,welcome,161,103,aloud,new,null,890.1553670000001,None,890.1553670000001,None,2,1.88245280000001,890.1553670000001,None,1.88245280000001,892.0592328,None,892.5740762,None,892.5740762,None,n,0.6397766000000047,892.5740762,None,0.6397766000000047,,,138Aloud,001,2023_Oct_27_1157,ProdSingRedoBetween,2021.2.3,59.952325910441196,
,,,,103,0,103,0,,,,,,,,,,,,,,,,,,,,,,895.6439158000001,None,,,,,,,,,,,,,,,,,pretty,117,104,aloud,new,null,893.7420264,None,893.7420264,None,2,1.039769799999931,893.7420264,None,1.039769799999931,894.8150410999999,None,895.3268129999999,None,895.3268129999999,None,n,0.29507059999991725,895.3268129999999,None,0.29507059999991725,,,138Aloud,001,2023_Oct_27_1157,ProdSingRedoBetween,2021.2.3,59.952325910441196,
,,,,104,0,104,0,,,,,,,,,,,,,,,,,,,,,,898.0633015999999,None,,,,,,,,,,,,,,,,,little,17,105,aloud,old,yellow,896.1448324,None,896.1448324,None,6,1.093193700000029,896.1448324,None,1.093193700000029,897.2623048999999,None,897.7630919000001,None,897.7630919000001,None,r,0.28284229999985655,897.7630919000001,None,0.28284229999985655,,,138Aloud,001,2023_Oct_27_1157,ProdSingRedoBetween,2021.2.3,59.952325910441196,
,,,,105,0,105,0,,,,,,,,,,,,,,,,,,,,,,900.8326073000001,None,,,,,,,,,,,,,,,,,accident,149,106,aloud,new,null,898.5655224,None,898.5655224,None,4,1.4484288999999535,898.5655224,None,1.4484288999999535,900.0341083999999,None,900.5490682,None,900.5490682,None,f,0.256744400000116,900.5490682,None,0.256744400000116,,,138Aloud,001,2023_Oct_27_1157,ProdSingRedoBetween,2021.2.3,59.952325910441196,
,,,,106,0,106,0,,,,,,,,,,,,,,,,,,,,,,903.2048717999999,None,,,,,,,,,,,,,,,,,trial,73,107,aloud,old,red,901.3329329000001,None,901.3329329000001,None,6,1.1849144000000251,901.3329329000001,None,1.1849144000000251,902.5358948999999,None,903.0512664999999,None,903.0512664999999,None,r,0.1225384000001668,903.0512664999999,None,0.1225384000001668,,,138Aloud,001,2023_Oct_27_1157,ProdSingRedoBetween,2021.2.3,59.952325910441196,
,,,,107,0,107,0,,,,,,,,,,,,,,,,,,,,,,907.3068793,None,,,,,,,,,,,,,,,,,narrow,139,108,aloud,new,null,903.7185783,None,903.7185783,None,2,2.791251500000044,903.7185783,None,2.791251500000044,906.5434008,None,907.0552233999999,None,907.0552233999999,None,n,0.22256510000011076,907.0552233999999,None,0.22256510000011076,,,138Aloud,001,2023_Oct_27_1157,ProdSingRedoBetween,2021.2.3,59.952325910441196,
,,,,108,0,108,0,,,,,,,,,,,,,,,,,,,,,,909.3263628,None,,,,,,,,,,,,,,,,,fellow,121,109,aloud,new,null,907.8226024999999,None,907.8226024999999,None,2,0.8551899000001413,907.8226024999999,None,0.8551899000001413,908.7096477,None,909.2242039999999,None,909.2242039999999,None,n,0.07756900000003952,909.2242039999999,None,0.07756900000003952,,,138Aloud,001,2023_Oct_27_1157,ProdSingRedoBetween,2021.2.3,59.952325910441196,
,,,,109,0,109,0,,,,,,,,,,,,,,,,,,,,,,911.8626042999999,None,,,,,,,,,,,,,,,,,death,122,110,aloud,new,null,909.8410922999999,None,909.8410922999999,None,1,1.156721800000014,909.8410922999999,None,1.156721800000014,911.0288023999999,None,911.5429996999999,None,911.5429996999999,None,n,0.2948019000000386,911.5429996999999,None,0.2948019000000386,,,138Aloud,001,2023_Oct_27_1157,ProdSingRedoBetween,2021.2.3,59.952325910441196,
,,,,110,0,110,0,,,,,,,,,,,,,,,,,,,,,,914.7483811,None,,,,,,,,,,,,,,,,,community,105,111,aloud,new,null,912.3822012,None,912.3822012,None,4,1.7755621000001156,912.3822012,None,1.7755621000001156,914.1826937999999,None,914.6963057999999,None,914.6963057999999,None,f,0.021467699999902834,914.6963057999999,None,0.021467699999902834,,,138Aloud,001,2023_Oct_27_1157,ProdSingRedoBetween,2021.2.3,59.952325910441196,
,,,,111,0,111,0,,,,,,,,,,,,,,,,,,,,,,917.4342609,None,,,,,,,,,,,,,,,,,profession,6,112,aloud,old,yellow,915.2643045,None,915.2643045,None,6,1.3574819000000389,915.2643045,None,1.3574819000000389,916.6555762999999,None,917.1655186999999,None,917.1655186999999,None,r,0.2402820999998312,917.1655186999999,None,0.2402820999998312,,,138Aloud,001,2023_Oct_27_1157,ProdSingRedoBetween,2021.2.3,59.952325910441196,
,,,,112,0,112,0,,,,,,,,,,,,,,,,,,,,,,919.9894159,None,,,,,,,,,,,,,,,,,broke,167,113,aloud,new,null,917.9536756999998,None,917.9536756999998,None,4,1.308109100000138,917.9536756999998,None,1.308109100000138,919.2928572000001,None,919.8016519,None,919.8016519,None,f,0.15630190000001676,919.8016519,None,0.15630190000001676,,,138Aloud,001,2023_Oct_27_1157,ProdSingRedoBetween,2021.2.3,59.952325910441196,
,,,,113,0,113,0,,,,,,,,,,,,,,,,,,,,,,922.4551406999999,None,,,,,,,,,,,,,,,,,chief,176,114,aloud,new,null,920.5045548,None,920.5045548,None,3,1.3411837000001015,920.5045548,None,1.3411837000001015,921.8699506999999,None,922.3704940999999,None,922.3704940999999,None,n,0.06727909999995063,922.3704940999999,None,0.06727909999995063,,,138Aloud,001,2023_Oct_27_1157,ProdSingRedoBetween,2021.2.3,59.952325910441196,
,,,,114,0,114,0,,,,,,,,,,,,,,,,,,,,,,925.1763845999999,None,,,,,,,,,,,,,,,,,place,43,115,aloud,old,blue,922.9557608,None,922.9557608,None,2,1.3300272999999834,922.9557608,None,1.3300272999999834,924.3092253,None,924.8229246999999,None,924.8229246999999,None,n,0.3348567999998977,924.8229246999999,None,0.3348567999998977,,,138Aloud,001,2023_Oct_27_1157,ProdSingRedoBetween,2021.2.3,59.952325910441196,
,,,,115,0,115,0,,,,,,,,,,,,,,,,,,,,,,927.3432324999999,None,,,,,,,,,,,,,,,,,shock,52,116,aloud,old,blue,925.6918157,None,925.6918157,None,6,1.0179476000000705,925.6918157,None,1.0179476000000705,926.7300920999999,None,927.2422936999999,None,927.2422936999999,None,r,0.07546109999998407,927.2422936999999,None,0.07546109999998407,,,138Aloud,001,2023_Oct_27_1157,ProdSingRedoBetween,2021.2.3,59.952325910441196,
,,,,116,0,116,0,,,,,,,,,,,,,,,,,,,,,,929.2460819,None,,,,,,,,,,,,,,,,,smooth,19,117,aloud,old,yellow,927.8458965,None,927.8458965,None,6,0.8318908999999621,927.8458965,None,0.8318908999999621,928.6953082,None,929.2107455999999,None,929.2107455999999,None,r,0.011022800000091593,929.2107455999999,None,0.011022800000091593,,,138Aloud,001,2023_Oct_27_1157,ProdSingRedoBetween,2021.2.3,59.952325910441196,
,,,,117,0,117,0,,,,,,,,,,,,,,,,,,,,,,934.0843691999999,None,,,,,,,,,,,,,,,,,space,75,118,aloud,old,red,929.7615633,None,929.7615633,None,4,3.2362051000000065,929.7615633,None,3.2362051000000065,933.0180891,None,933.5316805999998,None,933.5316805999998,None,f,0.5301074999999855,933.5316805999998,None,0.5301074999999855,,,138Aloud,001,2023_Oct_27_1157,ProdSingRedoBetween,2021.2.3,59.952325910441196,
,,,,118,0,118,0,,,,,,,,,,,,,,,,,,,,,,936.6513433999999,None,,,,,,,,,,,,,,,,,management,109,119,aloud,new,null,934.5993818,None,934.5993818,None,4,1.1903477000000748,934.5993818,None,1.1903477000000748,935.8227322,None,936.3344792999999,None,936.3344792999999,None,f,0.2953425000000607,936.3344792999999,None,0.2953425000000607,,,138Aloud,001,2023_Oct_27_1157,ProdSingRedoBetween,2021.2.3,59.952325910441196,
,,,,119,0,119,0,,,,,,,,,,,,,,,,,,,,,,938.8203951999999,None,,,,,,,,,,,,,,,,,military,31,120,aloud,old,blue,937.1565266999999,None,937.1565266999999,None,6,0.8412998999999672,937.1565266999999,None,0.8412998999999672,938.0193551,None,938.5198364999999,None,938.5198364999999,None,r,0.27011800000013864,938.5198364999999,None,0.27011800000013864,,,138Aloud,001,2023_Oct_27_1157,ProdSingRedoBetween,2021.2.3,59.952325910441196,
,,,,120,0,120,0,,,,,,,,,,,,,,,,,,,,,,940.9223256999999,None,,,,,,,,,,,,,,,,,income,40,121,aloud,old,blue,939.3218402999998,None,939.3218402999998,None,4,1.0359224000001177,939.3218402999998,None,1.0359224000001177,940.389596,None,940.889306,None,940.889306,None,f,0.004427599999871745,940.889306,None,0.004427599999871745,,,138Aloud,001,2023_Oct_27_1157,ProdSingRedoBetween,2021.2.3,59.952325910441196,
,,,,121,0,121,0,,,,,,,,,,,,,,,,,,,,,,943.5084903,None,,,,,,,,,,,,,,,,,universal,140,122,aloud,new,null,941.4232935,None,941.4232935,None,2,1.2145030000001498,941.4232935,None,1.2145030000001498,942.6658743999999,None,943.1745407999999,None,943.1745407999999,None,n,0.3032071999998607,943.1745407999999,None,0.3032071999998607,,,138Aloud,001,2023_Oct_27_1157,ProdSingRedoBetween,2021.2.3,59.952325910441196,
,,,,122,0,122,0,,,,,,,,,,,,,,,,,,,,,,945.6979222,None,,,,,,,,,,,,,,,,,platform,0,123,aloud,old,yellow,944.0092967,None,944.0092967,None,2,0.8364702999999736,944.0092967,None,0.8364702999999736,944.8797959999999,None,945.3934506999999,None,945.3934506999999,None,n,0.2842988999998397,945.3934506999999,None,0.2842988999998397,,,138Aloud,001,2023_Oct_27_1157,ProdSingRedoBetween,2021.2.3,59.952325910441196,
,,,,123,0,123,0,,,,,,,,,,,,,,,,,,,,,,952.2691155999999,None,,,,,,,,,,,,,,,,,position,88,124,aloud,old,red,946.2149139,None,946.2149139,None,4,5.206836800000019,946.2149139,None,5.206836800000019,951.4551663,None,951.9667451,None,951.9667451,None,f,0.271026799999845,951.9667451,None,0.271026799999845,,,138Aloud,001,2023_Oct_27_1157,ProdSingRedoBetween,2021.2.3,59.952325910441196,
,,,,124,0,124,0,,,,,,,,,,,,,,,,,,,,,,955.0030018,None,,,,,,,,,,,,,,,,,still,98,125,aloud,new,null,952.7839498999999,None,952.7839498999999,None,4,1.4857946999998148,952.7839498999999,None,1.4857946999998148,954.2876861,None,954.8026720999999,None,954.8026720999999,None,f,0.17105160000005526,954.8026720999999,None,0.17105160000005526,,,138Aloud,001,2023_Oct_27_1157,ProdSingRedoBetween,2021.2.3,59.952325910441196,
,,,,125,0,125,0,,,,,,,,,,,,,,,,,,,,,,958.4090389,None,,,,,,,,,,,,,,,,,strength,169,126,aloud,new,null,955.5076257000001,None,955.5076257000001,None,4,2.162074999999959,955.5076257000001,None,2.162074999999959,957.6950724999999,None,958.2062262,None,958.2062262,None,f,0.1755290999999488,958.2062262,None,0.1755290999999488,,,138Aloud,001,2023_Oct_27_1157,ProdSingRedoBetween,2021.2.3,59.952325910441196,
,,,,126,0,126,0,,,,,,,,,,,,,,,,,,,,,,961.0754425999999,None,,,,,,,,,,,,,,,,,enemy,155,127,aloud,new,null,958.9236114999999,None,958.9236114999999,None,3,1.2741335999999137,958.9236114999999,None,1.2741335999999137,960.2339124,None,960.742182,None,960.742182,None,n,0.30352960000004714,960.742182,None,0.30352960000004714,,,138Aloud,001,2023_Oct_27_1157,ProdSingRedoBetween,2021.2.3,59.952325910441196,
,,,,127,0,127,0,,,,,,,,,,,,,,,,,,,,,,963.4449826,None,,,,,,,,,,,,,,,,,express,178,128,aloud,new,null,961.5777725,None,961.5777725,None,3,1.0679245999999694,961.5777725,None,1.0679245999999694,962.6673711999999,None,963.1778617,None,963.1778617,None,n,0.24389079999991736,963.1778617,None,0.24389079999991736,,,138Aloud,001,2023_Oct_27_1157,ProdSingRedoBetween,2021.2.3,59.952325910441196,
,,,,128,0,128,0,,,,,,,,,,,,,,,,,,,,,,965.8804865,None,,,,,,,,,,,,,,,,,recall,60,129,aloud,old,red,963.9476652999999,None,963.9476652999999,None,6,1.114068300000099,963.9476652999999,None,1.114068300000099,965.0876647,None,965.5967588999999,None,965.5967588999999,None,r,0.26506220000010217,965.5967588999999,None,0.26506220000010217,,,138Aloud,001,2023_Oct_27_1157,ProdSingRedoBetween,2021.2.3,59.952325910441196,
,,,,129,0,129,0,,,,,,,,,,,,,,,,,,,,,,968.5345837,None,,,,,,,,,,,,,,,,,throw,13,130,aloud,old,yellow,966.3856059,None,966.3856059,None,5,1.3882226000000628,966.3856059,None,1.3882226000000628,967.8056443,None,968.3164523,None,968.3164523,None,f,0.19325909999997748,968.3164523,None,0.19325909999997748,,,138Aloud,001,2023_Oct_27_1157,ProdSingRedoBetween,2021.2.3,59.952325910441196,
,,,,130,0,130,0,,,,,,,,,,,,,,,,,,,,,,971.2359291,None,,,,,,,,,,,,,,,,,dozen,162,131,aloud,new,null,969.0372136999999,None,969.0372136999999,None,3,1.424529499999835,969.0372136999999,None,1.424529499999835,970.4905888999999,None,971.0023214,None,971.0023214,None,n,0.20338270000002012,971.0023214,None,0.20338270000002012,,,138Aloud,001,2023_Oct_27_1157,ProdSingRedoBetween,2021.2.3,59.952325910441196,
,,,,131,0,131,0,,,,,,,,,,,,,,,,,,,,,,974.3253451,None,,,,,,,,,,,,,,,,,education,128,132,aloud,new,null,971.7395475000001,None,971.7395475000001,None,5,1.7461542999999438,971.7395475000001,None,1.7461542999999438,973.5128459,None,974.0221913,None,974.0221913,None,f,0.2795218000001114,974.0221913,None,0.2795218000001114,,,138Aloud,001,2023_Oct_27_1157,ProdSingRedoBetween,2021.2.3,59.952325910441196,
,,,,132,0,132,0,,,,,,,,,,,,,,,,,,,,,,977.3419936999999,None,,,,,,,,,,,,,,,,,patient,36,133,aloud,old,blue,974.8421969999999,None,974.8421969999999,None,5,1.7555581999999958,974.8421969999999,None,1.7555581999999958,976.6276914999999,None,977.1419558,None,977.1419558,None,f,0.17586550000009993,977.1419558,None,0.17586550000009993,,,138Aloud,001,2023_Oct_27_1157,ProdSingRedoBetween,2021.2.3,59.952325910441196,
,,,,133,0,133,0,,,,,,,,,,,,,,,,,,,,,,979.4607346999999,None,,,,,,,,,,,,,,,,,candidate,48,134,aloud,old,blue,977.8425281,None,977.8425281,None,6,0.8833297999999559,977.8425281,None,0.8833297999999559,978.743612,None,979.2441999999999,None,979.2441999999999,None,r,0.18552019999992808,979.2441999999999,None,0.18552019999992808,,,138Aloud,001,2023_Oct_27_1157,ProdSingRedoBetween,2021.2.3,59.952325910441196,
,,,,134,0,134,0,,,,,,,,,,,,,,,,,,,,,,981.780043,None,,,,,,,,,,,,,,,,,treatment,62,135,aloud,old,red,979.9644702999999,None,979.9644702999999,None,4,0.9772338000000218,979.9644702999999,None,0.9772338000000218,980.9692528,None,981.4795890999999,None,981.4795890999999,None,n,0.2701704000000973,981.4795890999999,None,0.2701704000000973,,,138Aloud,001,2023_Oct_27_1157,ProdSingRedoBetween,2021.2.3,59.952325910441196,
,,,,135,0,135,0,,,,,,,,,,,,,,,,,,,,,,984.5163150999999,None,,,,,,,,,,,,,,,,,native,45,136,aloud,old,blue,982.2829890999999,None,982.2829890999999,None,6,1.6027291000000332,982.2829890999999,None,1.6027291000000332,983.9195219999999,None,984.4327538999999,None,984.4327538999999,None,r,0.05295299999988856,984.4327538999999,None,0.05295299999988856,,,138Aloud,001,2023_Oct_27_1157,ProdSingRedoBetween,2021.2.3,59.952325910441196,
,,,,136,0,136,0,,,,,,,,,,,,,,,,,,,,,,987.8541986,None,,,,,,,,,,,,,,,,,volume,174,137,aloud,new,null,985.0164259999999,None,985.0164259999999,None,3,2.0613140999998905,985.0164259999999,None,2.0613140999998905,987.1050917999999,None,987.6188984,None,987.6188984,None,n,0.21080289999986235,987.6188984,None,0.21080289999986235,,,138Aloud,001,2023_Oct_27_1157,ProdSingRedoBetween,2021.2.3,59.952325910441196,
,,,,137,0,137,0,,,,,,,,,,,,,,,,,,,,,,990.6219793999999,None,,,,,,,,,,,,,,,,,finance,108,138,aloud,new,null,988.369897,None,988.369897,None,4,1.1878474999998616,988.369897,None,1.1878474999998616,989.5875355000001,None,990.0884102999999,None,990.0884102999999,None,f,0.5173110000000634,990.0884102999999,None,0.5173110000000634,,,138Aloud,001,2023_Oct_27_1157,ProdSingRedoBetween,2021.2.3,59.952325910441196,
,,,,138,0,138,0,,,,,,,,,,,,,,,,,,,,,,994.0434851999999,None,,,,,,,,,,,,,,,,,quantity,9,139,aloud,old,yellow,991.1281951999999,None,991.1281951999999,None,6,1.6934595000000172,991.1281951999999,None,1.6934595000000172,992.8461219000001,None,993.3579970999999,None,993.3579970999999,None,r,0.6557270000000699,993.3579970999999,None,0.6557270000000699,,,138Aloud,001,2023_Oct_27_1157,ProdSingRedoBetween,2021.2.3,59.952325910441196,
,,,,139,0,139,0,,,,,,,,,,,,,,,,,,,,,,996.6776511,None,,,,,,,,,,,,,,,,,guest,144,140,aloud,new,null,994.5590187,None,994.5590187,None,4,1.4627310000000762,994.5590187,None,1.4627310000000762,996.0491491999999,None,996.5610294999999,None,996.5610294999999,None,n,0.10065260000010312,996.5610294999999,None,0.10065260000010312,,,138Aloud,001,2023_Oct_27_1157,ProdSingRedoBetween,2021.2.3,59.952325910441196,
,,,,140,0,140,0,,,,,,,,,,,,,,,,,,,,,,999.8516500999999,None,,,,,,,,,,,,,,,,,relation,67,141,aloud,old,red,997.1803235,None,997.1803235,None,3,2.0093524999999772,997.1803235,None,2.0093524999999772,999.2142899,None,999.7142996999999,None,999.7142996999999,None,n,0.10741180000013628,999.7142996999999,None,0.10741180000013628,,,138Aloud,001,2023_Oct_27_1157,ProdSingRedoBetween,2021.2.3,59.952325910441196,
,,,,141,0,141,0,,,,,,,,,,,,,,,,,,,,,,1001.9848253999999,None,,,,,,,,,,,,,,,,,suspect,96,142,aloud,new,null,1000.3654391,None,1000.3654391,None,3,0.8082469999999375,1000.3654391,None,0.8082469999999375,1001.2068248,None,1001.7168821999999,None,1001.7168821999999,None,n,0.2408541999998306,1001.7168821999999,None,0.2408541999998306,,,138Aloud,001,2023_Oct_27_1157,ProdSingRedoBetween,2021.2.3,59.952325910441196,
,,,,142,0,142,0,,,,,,,,,,,,,,,,,,,,,,1004.2189739,None,,,,,,,,,,,,,,,,,marriage,94,143,aloud,new,null,1002.4872006999999,None,1002.4872006999999,None,3,0.8305401000000074,1002.4872006999999,None,0.8305401000000074,1003.3354456,None,1003.8355351,None,1003.8355351,None,n,0.36215519999996104,1003.8355351,None,0.36215519999996104,,,138Aloud,001,2023_Oct_27_1157,ProdSingRedoBetween,2021.2.3,59.952325910441196,
,,,,143,0,143,0,,,,,,,,,,,,,,,,,,,,,,1006.2379561999999,None,,,,,,,,,,,,,,,,,equipment,133,144,aloud,new,null,1004.7193207,None,1004.7193207,None,3,0.6623855000000276,1004.7193207,None,0.6623855000000276,1005.4108171999999,None,1005.9207015,None,1005.9207015,None,n,0.29307539999990695,1005.9207015,None,0.29307539999990695,,,138Aloud,001,2023_Oct_27_1157,ProdSingRedoBetween,2021.2.3,59.952325910441196,
,,,,144,0,144,0,,,,,,,,,,,,,,,,,,,,,,1008.6733472999999,None,,,,,,,,,,,,,,,,,bicycle,41,145,aloud,old,blue,1006.7425481,None,1006.7425481,None,6,1.1191082000000279,1006.7425481,None,1.1191082000000279,1007.8937226,None,1008.4064530999999,None,1008.4064530999999,None,r,0.24723549999998795,1008.4064530999999,None,0.24723549999998795,,,138Aloud,001,2023_Oct_27_1157,ProdSingRedoBetween,2021.2.3,59.952325910441196,
,,,,145,0,145,0,,,,,,,,,,,,,,,,,,,,,,1011.0611128999999,None,,,,,,,,,,,,,,,,,afternoon,89,146,aloud,old,red,1009.1774476999999,None,1009.1774476999999,None,6,1.0682330999998157,1009.1774476999999,None,1.0682330999998157,1010.2780364,None,1010.7919870000001,None,1010.7919870000001,None,r,0.23771839999994882,1010.7919870000001,None,0.23771839999994882,,,138Aloud,001,2023_Oct_27_1157,ProdSingRedoBetween,2021.2.3,59.952325910441196,
,,,,146,0,146,0,,,,,,,,,,,,,,,,,,,,,,1013.728421,None,,,,,,,,,,,,,,,,,under,1,147,aloud,old,yellow,1011.5765111999999,None,1011.5765111999999,None,4,1.5172335999998268,1011.5765111999999,None,1.5172335999998268,1013.1123204999999,None,1013.6114316000001,None,1013.6114316000001,None,f,0.09024139999996805,1013.6114316000001,None,0.09024139999996805,,,138Aloud,001,2023_Oct_27_1157,ProdSingRedoBetween,2021.2.3,59.952325910441196,
,,,,147,0,147,0,,,,,,,,,,,,,,,,,,,,,,1016.1472746,None,,,,,,,,,,,,,,,,,bitter,145,148,aloud,new,null,1014.2290387,None,1014.2290387,None,3,1.1208899000000656,1014.2290387,None,1.1208899000000656,1015.3887735999999,None,1015.8971713999999,None,1015.8971713999999,None,n,0.22850519999997232,1015.8971713999999,None,0.22850519999997232,,,138Aloud,001,2023_Oct_27_1157,ProdSingRedoBetween,2021.2.3,59.952325910441196,
,,,,148,0,148,0,,,,,,,,,,,,,,,,,,,,,,1018.2160979,None,,,,,,,,,,,,,,,,,orchestra,135,149,aloud,new,null,1016.6480853999999,None,1016.6480853999999,None,2,0.7576206999999613,1016.6480853999999,None,0.7576206999999613,1017.4350603,None,1017.9494313999999,None,1017.9494313999999,None,n,0.2482846000000336,1017.9494313999999,None,0.2482846000000336,,,138Aloud,001,2023_Oct_27_1157,ProdSingRedoBetween,2021.2.3,59.952325910441196,
,,,,149,0,149,0,,,,,,,,,,,,,,,,,,,,,,1020.7690175999999,None,,,,,,,,,,,,,,,,,institute,111,150,aloud,new,null,1018.7194041,None,1018.7194041,None,4,1.4063738000002104,1018.7194041,None,1.4063738000002104,1020.1600698,None,1020.6689119,None,1020.6689119,None,f,0.08080949999998666,1020.6689119,None,0.08080949999998666,,,138Aloud,001,2023_Oct_27_1157,ProdSingRedoBetween,2021.2.3,59.952325910441196,
,,,,150,0,150,0,,,,,,,,,,,,,,,,,,,,,,1023.5074858999999,None,,,,,,,,,,,,,,,,,quarter,11,151,aloud,old,yellow,1021.2708639999998,None,1021.2708639999998,None,6,1.1028062000000318,1021.2708639999998,None,1.1028062000000318,1022.4045676999999,None,1022.9043454999999,None,1022.9043454999999,None,r,0.5814791999998761,1022.9043454999999,None,0.5814791999998761,,,138Aloud,001,2023_Oct_27_1157,ProdSingRedoBetween,2021.2.3,59.952325910441196,
,,,,151,0,151,0,,,,,,,,,,,,,,,,,,,,,,1026.3410538,None,,,,,,,,,,,,,,,,,shear,138,152,aloud,new,null,1024.0224306,None,1024.0224306,None,2,1.3113840000000891,1024.0224306,None,1.3113840000000891,1025.3580307,None,1025.8573992,None,1025.8573992,None,n,0.46029429999998683,1025.8573992,None,0.46029429999998683,,,138Aloud,001,2023_Oct_27_1157,ProdSingRedoBetween,2021.2.3,59.952325910441196,
,,,,152,0,152,0,,,,,,,,,,,,,,,,,,,,,,1028.5600937,None,,,,,,,,,,,,,,,,,atmosphere,124,153,aloud,new,null,1026.8472963,None,1026.8472963,None,1,0.8864309000000503,1026.8472963,None,0.8864309000000503,1027.7691184999999,None,1028.2761553,None,1028.2761553,None,n,0.25746760000015456,1028.2761553,None,0.25746760000015456,,,138Aloud,001,2023_Oct_27_1157,ProdSingRedoBetween,2021.2.3,59.952325910441196,
,,,,153,0,153,0,,,,,,,,,,,,,,,,,,,,,,1031.0457068,None,,,,,,,,,,,,,,,,,track,69,154,aloud,old,red,1029.0631834,None,1029.0631834,None,4,1.3505274000001464,1029.0631834,None,1.3505274000001464,1030.4362818,None,1030.9458203,None,1030.9458203,None,f,0.07586900000001151,1030.9458203,None,0.07586900000001151,,,138Aloud,001,2023_Oct_27_1157,ProdSingRedoBetween,2021.2.3,59.952325910441196,
,,,,154,0,154,0,,,,,,,,,,,,,,,,,,,,,,1033.214385,None,,,,,,,,,,,,,,,,,election,76,155,aloud,old,red,1031.5464967999999,None,1031.5464967999999,None,6,1.0751933999999892,1031.5464967999999,None,1.0751933999999892,1032.649033,None,1033.1644455,None,1033.1644455,None,r,0.025221300000112024,1033.1644455,None,0.025221300000112024,,,138Aloud,001,2023_Oct_27_1157,ProdSingRedoBetween,2021.2.3,59.952325910441196,
,,,,155,0,155,0,,,,,,,,,,,,,,,,,,,,,,1035.6699142999998,None,,,,,,,,,,,,,,,,,present,147,156,aloud,new,null,1033.7156918,None,1033.7156918,None,2,1.3139776000000438,1033.7156918,None,1.3139776000000438,1035.0497042,None,1035.5501388999999,None,1035.5501388999999,None,n,0.08757089999994605,1035.5501388999999,None,0.08757089999994605,,,138Aloud,001,2023_Oct_27_1157,ProdSingRedoBetween,2021.2.3,59.952325910441196,
,,,,156,0,156,0,,,,,,,,,,,,,,,,,,,,,,1038.3029462,None,,,,,,,,,,,,,,,,,region,37,157,aloud,old,blue,1036.1858312,None,1036.1858312,None,2,1.339852399999927,1036.1858312,None,1.339852399999927,1037.5520947,None,1038.0526155,None,1038.0526155,None,n,0.22508489999995618,1038.0526155,None,0.22508489999995618,,,138Aloud,001,2023_Oct_27_1157,ProdSingRedoBetween,2021.2.3,59.952325910441196,
,,,,157,0,157,0,,,,,,,,,,,,,,,,,,,,,,1041.5893456,None,,,,,,,,,,,,,,,,,scene,57,158,aloud,old,blue,1038.8068885999999,None,1038.8068885999999,None,6,1.0388722999998663,1038.8068885999999,None,1.0388722999998663,1039.8721612,None,1040.3721046,None,1040.3721046,None,r,1.1935449000000062,1040.3721046,None,1.1935449000000062,,,138Aloud,001,2023_Oct_27_1157,ProdSingRedoBetween,2021.2.3,59.952325910441196,
,,,,158,0,158,0,,,,,,,,,,,,,,,,,,,,,,1043.7585993999999,None,,,,,,,,,,,,,,,,,principal,25,159,aloud,old,yellow,1042.090055,None,1042.090055,None,6,1.0275582999997823,1042.090055,None,1.0275582999997823,1043.1451846999998,None,1043.6585751,None,1043.6585751,None,r,0.08316860000013548,1043.6585751,None,0.08316860000013548,,,138Aloud,001,2023_Oct_27_1157,ProdSingRedoBetween,2021.2.3,59.952325910441196,
,,,,159,0,159,0,,,,,,,,,,,,,,,,,,,,,,1045.6440444,None,,,,,,,,,,,,,,,,,machinery,65,160,aloud,old,red,1044.2612449,None,1044.2612449,None,6,0.8164174000000912,1044.2612449,None,0.8164174000000912,1045.1133261999998,None,1045.6269805,None,1045.6269805,None,r,0.0026800999999068154,1045.6269805,None,0.0026800999999068154,,,138Aloud,001,2023_Oct_27_1157,ProdSingRedoBetween,2021.2.3,59.952325910441196,
,,,,160,0,160,0,,,,,,,,,,,,,,,,,,,,,,1048.6300465,None,,,,,,,,,,,,,,,,,sight,119,161,aloud,new,null,1046.1438885,None,1046.1438885,None,4,1.4458243999999922,1046.1438885,None,1.4458243999999922,1047.6144156999999,None,1048.129424,None,1048.129424,None,f,0.4844430000000557,1048.129424,None,0.4844430000000557,,,138Aloud,001,2023_Oct_27_1157,ProdSingRedoBetween,2021.2.3,59.952325910441196,
,,,,161,0,161,0,,,,,,,,,,,,,,,,,,,,,,1050.6485716,None,,,,,,,,,,,,,,,,,poetry,82,162,aloud,old,red,1049.1308947999999,None,1049.1308947999999,None,6,0.8988338999999996,1049.1308947999999,None,0.8988338999999996,1050.0534398,None,1050.5653849999999,None,1050.5653849999999,None,r,0.05628860000001623,1050.5653849999999,None,0.05628860000001623,,,138Aloud,001,2023_Oct_27_1157,ProdSingRedoBetween,2021.2.3,59.952325910441196,
,,,,162,0,162,0,,,,,,,,,,,,,,,,,,,,,,1052.6033602999998,None,,,,,,,,,,,,,,,,,member,33,163,aloud,old,blue,1051.1491508,None,1051.1491508,None,6,0.7924875999999585,1051.1491508,None,0.7924875999999585,1051.9688992,None,1052.48392,None,1052.48392,None,r,0.08972990000006575,1052.48392,None,0.08972990000006575,,,138Aloud,001,2023_Oct_27_1157,ProdSingRedoBetween,2021.2.3,59.952325910441196,
,,,,163,0,163,0,,,,,,,,,,,,,,,,,,,,,,1055.6229114999999,None,,,,,,,,,,,,,,,,,background,160,164,aloud,new,null,1053.1179992,None,1053.1179992,None,2,1.2396614000001591,1053.1179992,None,1.2396614000001591,1054.3876166,None,1054.902861,None,1054.902861,None,n,0.694816899999978,1054.902861,None,0.694816899999978,,,138Aloud,001,2023_Oct_27_1157,ProdSingRedoBetween,2021.2.3,59.952325910441196,
,,,,164,0,164,0,,,,,,,,,,,,,,,,,,,,,,1057.8450208,None,,,,,,,,,,,,,,,,,dance,5,165,aloud,old,yellow,1056.1376493,None,1056.1376493,None,6,0.9400399000001016,1056.1376493,None,0.9400399000001016,1057.1093326999999,None,1057.6224528,None,1057.6224528,None,r,0.19119789999990644,1057.6224528,None,0.19119789999990644,,,138Aloud,001,2023_Oct_27_1157,ProdSingRedoBetween,2021.2.3,59.952325910441196,
,,,,165,0,165,0,,,,,,,,,,,,,,,,,,,,,,1060.3583446999999,None,,,,,,,,,,,,,,,,,stand,44,166,aloud,old,blue,1058.3560289,None,1058.3560289,None,4,1.1216240999999627,1058.3560289,None,1.1216240999999627,1059.5083431,None,1060.0077675999999,None,1060.0077675999999,None,f,0.32589280000001963,1060.0077675999999,None,0.32589280000001963,,,138Aloud,001,2023_Oct_27_1157,ProdSingRedoBetween,2021.2.3,59.952325910441196,
,,,,166,0,166,0,,,,,,,,,,,,,,,,,,,,,,1062.7108263,None,,,,,,,,,,,,,,,,,alert,131,167,aloud,new,null,1060.8611412999999,None,1060.8611412999999,None,3,1.2404989999999998,1060.8611412999999,None,1.2404989999999998,1062.1291303,None,1062.6440135999999,None,1062.6440135999999,None,n,0.041590300000052594,1062.6440135999999,None,0.041590300000052594,,,138Aloud,001,2023_Oct_27_1157,ProdSingRedoBetween,2021.2.3,59.952325910441196,
,,,,167,0,167,0,,,,,,,,,,,,,,,,,,,,,,1064.8291963,None,,,,,,,,,,,,,,,,,dispute,118,168,aloud,new,null,1063.2113545,None,1063.2113545,None,2,0.770318700000189,1063.2113545,None,0.770318700000189,1064.0188609,None,1064.5293786,None,1064.5293786,None,n,0.2762334000001374,1064.5293786,None,0.2762334000001374,,,138Aloud,001,2023_Oct_27_1157,ProdSingRedoBetween,2021.2.3,59.952325910441196,
,,,,168,0,168,0,,,,,,,,,,,,,,,,,,,,,,1066.9983339,None,,,,,,,,,,,,,,,,,estate,21,169,aloud,old,yellow,1065.3320737,None,1065.3320737,None,1,0.7935685999998441,1065.3320737,None,0.7935685999998441,1066.1488705,None,1066.664761,None,1066.664761,None,n,0.31693129999985103,1066.664761,None,0.31693129999985103,,,138Aloud,001,2023_Oct_27_1157,ProdSingRedoBetween,2021.2.3,59.952325910441196,
,,,,169,0,169,0,,,,,,,,,,,,,,,,,,,,,,1070.3517041,None,,,,,,,,,,,,,,,,,produce,142,170,aloud,new,null,1067.4989398,None,1067.4989398,None,2,2.282697399999961,1067.4989398,None,2.282697399999961,1069.8018075999998,None,1070.3016903,None,1070.3016903,None,n,0.031955300000163334,1070.3016903,None,0.031955300000163334,,,138Aloud,001,2023_Oct_27_1157,ProdSingRedoBetween,2021.2.3,59.952325910441196,
,,,,170,0,170,0,,,,,,,,,,,,,,,,,,,,,,1072.6702673,None,,,,,,,,,,,,,,,,,escape,22,171,aloud,old,yellow,1070.8535744,None,1070.8535744,None,6,1.2240661000000728,1070.8535744,None,1.2240661000000728,1072.1086559,None,1072.6224783999999,None,1072.6224783999999,None,r,0.031225899999981266,1072.6224783999999,None,0.031225899999981266,,,138Aloud,001,2023_Oct_27_1157,ProdSingRedoBetween,2021.2.3,59.952325910441196,
,,,,171,0,171,0,,,,,,,,,,,,,,,,,,,,,,1075.0393614,None,,,,,,,,,,,,,,,,,meeting,16,172,aloud,old,yellow,1073.1709326,None,1073.1709326,None,5,1.1948216000000684,1073.1709326,None,1.1948216000000684,1074.3892002999999,None,1074.8894209999999,None,1074.8894209999999,None,f,0.12418989999991936,1074.8894209999999,None,0.12418989999991936,,,138Aloud,001,2023_Oct_27_1157,ProdSingRedoBetween,2021.2.3,59.952325910441196,
,,,,172,0,172,0,,,,,,,,,,,,,,,,,,,,,,1077.0915048,None,,,,,,,,,,,,,,,,,character,87,173,aloud,old,red,1075.5416304,None,1075.5416304,None,5,0.951983299999938,1075.5416304,None,0.951983299999938,1076.5264229,None,1077.0416985,None,1077.0416985,None,f,0.019893799999863404,1077.0416985,None,0.019893799999863404,,,138Aloud,001,2023_Oct_27_1157,ProdSingRedoBetween,2021.2.3,59.952325910441196,
,,,,173,0,173,0,,,,,,,,,,,,,,,,,,,,,,1079.3439276,None,,,,,,,,,,,,,,,,,murder,10,174,aloud,old,yellow,1077.5920269,None,1077.5920269,None,6,0.9656615999999758,1077.5920269,None,0.9656615999999758,1078.582179,None,1079.0936580999999,None,1079.0936580999999,None,r,0.23199690000001283,1079.0936580999999,None,0.23199690000001283,,,138Aloud,001,2023_Oct_27_1157,ProdSingRedoBetween,2021.2.3,59.952325910441196,
,,,,174,0,174,0,,,,,,,,,,,,,,,,,,,,,,1081.1290755999999,None,,,,,,,,,,,,,,,,,message,15,175,aloud,old,yellow,1079.8452556,None,1079.8452556,None,6,0.664423700000043,1079.8452556,None,0.664423700000043,1080.5311726,None,1081.0457471,None,1081.0457471,None,r,0.05589280000003782,1081.0457471,None,0.05589280000003782,,,138Aloud,001,2023_Oct_27_1157,ProdSingRedoBetween,2021.2.3,59.952325910441196,
,,,,175,0,175,0,,,,,,,,,,,,,,,,,,,,,,1083.7483772,None,,,,,,,,,,,,,,,,,empty,107,176,aloud,new,null,1081.6313743,None,1081.6313743,None,4,1.006293800000094,1081.6313743,None,1.006293800000094,1082.6660428,None,1083.1815451999998,None,1083.1815451999998,None,f,0.5440518000000338,1083.1815451999998,None,0.5440518000000338,,,138Aloud,001,2023_Oct_27_1157,ProdSingRedoBetween,2021.2.3,59.952325910441196,
,,,,176,0,176,0,,,,,,,,,,,,,,,,,,,,,,1087.9026459,None,,,,,,,,,,,,,,,,,benefit,120,177,aloud,new,null,1084.2489447,None,1084.2489447,None,4,1.5966682000000674,1084.2489447,None,1.5966682000000674,1085.8706897,None,1086.3841688,None,1086.3841688,None,n,1.4936804999999822,1086.3841688,None,1.4936804999999822,,,138Aloud,001,2023_Oct_27_1157,ProdSingRedoBetween,2021.2.3,59.952325910441196,
,,,,177,0,177,0,,,,,,,,,,,,,,,,,,,,,,1090.3742011,None,,,,,,,,,,,,,,,,,color,50,178,aloud,old,blue,1088.4090207,None,1088.4090207,None,6,1.1325646000000233,1088.4090207,None,1.1325646000000233,1089.5708296999999,None,1090.0719182999999,None,1090.0719182999999,None,r,0.27768089999995027,1090.0719182999999,None,0.27768089999995027,,,138Aloud,001,2023_Oct_27_1157,ProdSingRedoBetween,2021.2.3,59.952325910441196,
,,,,178,0,178,0,,,,,,,,,,,,,,,,,,,,,,1093.6252881999999,None,,,,,,,,,,,,,,,,,curve,164,179,aloud,new,null,1090.8887856,None,1090.8887856,None,2,2.060885899999903,1090.8887856,None,2.060885899999903,1092.9776585,None,1093.4917909,None,1093.4917909,None,n,0.10578199999986282,1093.4917909,None,0.10578199999986282,,,138Aloud,001,2023_Oct_27_1157,ProdSingRedoBetween,2021.2.3,59.952325910441196,
,,,,179,0,179,0,,,,,,,,,,,,,,,,,,,,,,1095.9602295,None,,,,,,,,,,,,,,,,,agreement,77,180,aloud,old,red,1094.1325712999999,None,1094.1325712999999,None,6,1.0250774999999521,1094.1325712999999,None,1.0250774999999521,1095.176272,None,1095.6804567,None,1095.6804567,None,r,0.26128190000008544,1095.6804567,None,0.26128190000008544,,,138Aloud,001,2023_Oct_27_1157,ProdSingRedoBetween,2021.2.3,59.952325910441196,
,,,,,,,,,,,,,,,,,,,,,,,,,,,,,,,,,,,,,,,,,,,,,,,,,,,,,,,,,,,,,,,,,,,,,,,,,1096.4615018,None,,,,,,,
