StudyLoop.thisRepN,StudyLoop.thisTrialN,StudyLoop.thisN,StudyLoop.thisIndex,TestLoop.thisRepN,TestLoop.thisTrialN,TestLoop.thisN,TestLoop.thisIndex,textCondition.started,textCondition.stopped,keyCondition.keys,keyCondition.rt,keyCondition.started,keyCondition.stopped,Condition,textWelcome.started,textWelcome.stopped,keyWelcome.keys,keyWelcome.rt,keyWelcome.started,keyWelcome.stopped,textAloud.started,textAloud.stopped,textSilent.started,textSilent.stopped,textSing.started,textSing.stopped,conditional_text.started,conditional_text.stopped,textBlank500.started,textBlank500.stopped,study_word,study_num,study_order,study_type,word_color,textStudy.started,textStudy.stopped,keyStudy.keys,keyStudy.started,keyStudy.stopped,textTestInstructions.started,textTestInstructions.stopped,key_resp_3.keys,key_resp_3.rt,key_resp_3.started,key_resp_3.stopped,test_word,test_num,test_order,test_condition,old_new_test,test_word_original_color,textConf.started,textConf.stopped,textConfScale.started,textConfScale.stopped,keyConf.keys,keyConf.rt,keyConf.started,keyConf.stopped,confidence response time,textTestBlank.started,textTestBlank.stopped,textRKN.started,textRKN.stopped,textRKNScale.started,textRKNScale.stopped,keyRKN.keys,keyRKN.rt,keyRKN.started,keyRKN.stopped,rkn response time,textEnd.started,textEnd.stopped,participant,session,date,expName,psychopyVersion,frameRate,
,,,,,,,,21.3455299999996,None,c,1.8091126000008444,21.3455299999996,None,,,,,,,,,,,,,,,,,,,,,,,,,,,,,,,,,,,,,,,,,,,,,,,,,,,,,,,,,,,,,,139Sing,001,2023_Oct_27_1306,ProdSingRedoBetween,2021.2.3,59.98461994362985,
,,,,,,,,,,,,,,SingTest,23.193447899999228,None,space,398.44064739999976,23.193447899999228,None,,,,,,,,,,,,,,,,,,,,,,,,,,,,,,,,,,,,,,,,,,,,,,,,,,,,,,,139Sing,001,2023_Oct_27_1306,ProdSingRedoBetween,2021.2.3,59.98461994362985,
0,0,0,0,,,,,,,,,,,,,,,,,,23.193447899999228,None,23.193447899999228,None,23.193447899999228,None,23.193447899999228,None,424.15627959999983,None,platform,32,1,sing,blue,422.1542989999998,None,None,422.1542989999998,None,,,,,,,,,,,,,,,,,,,,,,,,,,,,,,,,,,,139Sing,001,2023_Oct_27_1306,ProdSingRedoBetween,2021.2.3,59.98461994362985,
1,0,1,0,,,,,,,,,,,,,,,,,,,,,,,,,,426.6590729999998,None,institute,25,2,sing,yellow,424.65655399999923,None,None,424.65655399999923,None,,,,,,,,,,,,,,,,,,,,,,,,,,,,,,,,,,,139Sing,001,2023_Oct_27_1306,ProdSingRedoBetween,2021.2.3,59.98461994362985,
2,0,2,0,,,,,,,,,,,,,,,,,,,,,,,,,,429.1609843999995,None,device,22,3,sing,yellow,427.1592495999994,None,None,427.1592495999994,None,,,,,,,,,,,,,,,,,,,,,,,,,,,,,,,,,,,139Sing,001,2023_Oct_27_1306,ProdSingRedoBetween,2021.2.3,59.98461994362985,
3,0,3,0,,,,,,,,,,,,,,,,,,,,,,,,,,431.6634964999994,None,medicine,52,4,sing,blue,429.66163609999967,None,None,429.66163609999967,None,,,,,,,,,,,,,,,,,,,,,,,,,,,,,,,,,,,139Sing,001,2023_Oct_27_1306,ProdSingRedoBetween,2021.2.3,59.98461994362985,
4,0,4,0,,,,,,,,,,,,,,,,,,,,,,,,,,434.1657903999994,None,measure,30,5,sing,blue,432.16426239999964,None,None,432.16426239999964,None,,,,,,,,,,,,,,,,,,,,,,,,,,,,,,,,,,,139Sing,001,2023_Oct_27_1306,ProdSingRedoBetween,2021.2.3,59.98461994362985,
5,0,5,0,,,,,,,,,,,,,,,,,,,,,,,,,,436.6687816999993,None,report,49,6,sing,blue,434.66692729999977,None,None,434.66692729999977,None,,,,,,,,,,,,,,,,,,,,,,,,,,,,,,,,,,,139Sing,001,2023_Oct_27_1306,ProdSingRedoBetween,2021.2.3,59.98461994362985,
6,0,6,0,,,,,,,,,,,,,,,,,,,,,,,,,,439.17138949999935,None,election,69,7,sing,red,437.16906949999975,None,None,437.16906949999975,None,,,,,,,,,,,,,,,,,,,,,,,,,,,,,,,,,,,139Sing,001,2023_Oct_27_1306,ProdSingRedoBetween,2021.2.3,59.98461994362985,
7,0,7,0,,,,,,,,,,,,,,,,,,,,,,,,,,441.6735804,None,minor,77,8,sing,red,439.67153319999943,None,None,439.67153319999943,None,,,,,,,,,,,,,,,,,,,,,,,,,,,,,,,,,,,139Sing,001,2023_Oct_27_1306,ProdSingRedoBetween,2021.2.3,59.98461994362985,
8,0,8,0,,,,,,,,,,,,,,,,,,,,,,,,,,444.1762369999997,None,trial,42,9,sing,blue,442.1743889999998,None,None,442.1743889999998,None,,,,,,,,,,,,,,,,,,,,,,,,,,,,,,,,,,,139Sing,001,2023_Oct_27_1306,ProdSingRedoBetween,2021.2.3,59.98461994362985,
9,0,9,0,,,,,,,,,,,,,,,,,,,,,,,,,,446.67850479999925,None,guide,83,10,sing,red,444.67650819999926,None,None,444.67650819999926,None,,,,,,,,,,,,,,,,,,,,,,,,,,,,,,,,,,,139Sing,001,2023_Oct_27_1306,ProdSingRedoBetween,2021.2.3,59.98461994362985,
10,0,10,0,,,,,,,,,,,,,,,,,,,,,,,,,,449.1809495999996,None,level,8,11,sing,yellow,447.17947529999947,None,None,447.17947529999947,None,,,,,,,,,,,,,,,,,,,,,,,,,,,,,,,,,,,139Sing,001,2023_Oct_27_1306,ProdSingRedoBetween,2021.2.3,59.98461994362985,
11,0,11,0,,,,,,,,,,,,,,,,,,,,,,,,,,451.68341689999943,None,empty,53,12,sing,blue,449.68146979999983,None,None,449.68146979999983,None,,,,,,,,,,,,,,,,,,,,,,,,,,,,,,,,,,,139Sing,001,2023_Oct_27_1306,ProdSingRedoBetween,2021.2.3,59.98461994362985,
12,0,12,0,,,,,,,,,,,,,,,,,,,,,,,,,,454.18586629999936,None,strain,68,13,sing,red,452.18404569999984,None,None,452.18404569999984,None,,,,,,,,,,,,,,,,,,,,,,,,,,,,,,,,,,,139Sing,001,2023_Oct_27_1306,ProdSingRedoBetween,2021.2.3,59.98461994362985,
13,0,13,0,,,,,,,,,,,,,,,,,,,,,,,,,,456.6882468999993,None,sweet,12,14,sing,yellow,454.6865937999992,None,None,454.6865937999992,None,,,,,,,,,,,,,,,,,,,,,,,,,,,,,,,,,,,139Sing,001,2023_Oct_27_1306,ProdSingRedoBetween,2021.2.3,59.98461994362985,
14,0,14,0,,,,,,,,,,,,,,,,,,,,,,,,,,459.20768879999923,None,review,0,15,sing,yellow,457.1940004999997,None,None,457.1940004999997,None,,,,,,,,,,,,,,,,,,,,,,,,,,,,,,,,,,,139Sing,001,2023_Oct_27_1306,ProdSingRedoBetween,2021.2.3,59.98461994362985,
15,0,15,0,,,,,,,,,,,,,,,,,,,,,,,,,,461.71001069999966,None,population,81,16,sing,red,459.7085671999994,None,None,459.7085671999994,None,,,,,,,,,,,,,,,,,,,,,,,,,,,,,,,,,,,139Sing,001,2023_Oct_27_1306,ProdSingRedoBetween,2021.2.3,59.98461994362985,
16,0,16,0,,,,,,,,,,,,,,,,,,,,,,,,,,464.21261759999925,None,society,20,17,sing,yellow,462.21145179999985,None,None,462.21145179999985,None,,,,,,,,,,,,,,,,,,,,,,,,,,,,,,,,,,,139Sing,001,2023_Oct_27_1306,ProdSingRedoBetween,2021.2.3,59.98461994362985,
17,0,17,0,,,,,,,,,,,,,,,,,,,,,,,,,,466.7151495999997,None,notice,88,18,sing,red,464.71303539999917,None,None,464.71303539999917,None,,,,,,,,,,,,,,,,,,,,,,,,,,,,,,,,,,,139Sing,001,2023_Oct_27_1306,ProdSingRedoBetween,2021.2.3,59.98461994362985,
18,0,18,0,,,,,,,,,,,,,,,,,,,,,,,,,,469.2177260999997,None,shock,61,19,sing,red,467.21553499999936,None,None,467.21553499999936,None,,,,,,,,,,,,,,,,,,,,,,,,,,,,,,,,,,,139Sing,001,2023_Oct_27_1306,ProdSingRedoBetween,2021.2.3,59.98461994362985,
19,0,19,0,,,,,,,,,,,,,,,,,,,,,,,,,,471.7204650999993,None,provision,89,20,sing,red,469.71829139999954,None,None,469.71829139999954,None,,,,,,,,,,,,,,,,,,,,,,,,,,,,,,,,,,,139Sing,001,2023_Oct_27_1306,ProdSingRedoBetween,2021.2.3,59.98461994362985,
20,0,20,0,,,,,,,,,,,,,,,,,,,,,,,,,,474.2393097999993,None,figure,87,21,sing,red,472.23353659999975,None,None,472.23353659999975,None,,,,,,,,,,,,,,,,,,,,,,,,,,,,,,,,,,,139Sing,001,2023_Oct_27_1306,ProdSingRedoBetween,2021.2.3,59.98461994362985,
21,0,21,0,,,,,,,,,,,,,,,,,,,,,,,,,,476.7419339999997,None,state,78,22,sing,red,474.7400582,None,None,474.7400582,None,,,,,,,,,,,,,,,,,,,,,,,,,,,,,,,,,,,139Sing,001,2023_Oct_27_1306,ProdSingRedoBetween,2021.2.3,59.98461994362985,
22,0,22,0,,,,,,,,,,,,,,,,,,,,,,,,,,479.24425619999965,None,spoke,47,23,sing,blue,477.2427954999994,None,None,477.2427954999994,None,,,,,,,,,,,,,,,,,,,,,,,,,,,,,,,,,,,139Sing,001,2023_Oct_27_1306,ProdSingRedoBetween,2021.2.3,59.98461994362985,
23,0,23,0,,,,,,,,,,,,,,,,,,,,,,,,,,481.7469029999993,None,frank,62,24,sing,red,479.7465075,None,None,479.7465075,None,,,,,,,,,,,,,,,,,,,,,,,,,,,,,,,,,,,139Sing,001,2023_Oct_27_1306,ProdSingRedoBetween,2021.2.3,59.98461994362985,
24,0,24,0,,,,,,,,,,,,,,,,,,,,,,,,,,484.2495392999999,None,taste,64,25,sing,red,482.2474241,None,None,482.2474241,None,,,,,,,,,,,,,,,,,,,,,,,,,,,,,,,,,,,139Sing,001,2023_Oct_27_1306,ProdSingRedoBetween,2021.2.3,59.98461994362985,
25,0,25,0,,,,,,,,,,,,,,,,,,,,,,,,,,486.75208119999934,None,commercial,16,26,sing,yellow,484.7498754999997,None,None,484.7498754999997,None,,,,,,,,,,,,,,,,,,,,,,,,,,,,,,,,,,,139Sing,001,2023_Oct_27_1306,ProdSingRedoBetween,2021.2.3,59.98461994362985,
26,0,26,0,,,,,,,,,,,,,,,,,,,,,,,,,,489.25414569999975,None,candidate,59,27,sing,yellow,487.25264359999983,None,None,487.25264359999983,None,,,,,,,,,,,,,,,,,,,,,,,,,,,,,,,,,,,139Sing,001,2023_Oct_27_1306,ProdSingRedoBetween,2021.2.3,59.98461994362985,
27,0,27,0,,,,,,,,,,,,,,,,,,,,,,,,,,491.7568569999994,None,power,58,28,sing,blue,489.7556612999997,None,None,489.7556612999997,None,,,,,,,,,,,,,,,,,,,,,,,,,,,,,,,,,,,139Sing,001,2023_Oct_27_1306,ProdSingRedoBetween,2021.2.3,59.98461994362985,
28,0,28,0,,,,,,,,,,,,,,,,,,,,,,,,,,494.2593248999992,None,block,73,29,sing,red,492.25790979999965,None,None,492.25790979999965,None,,,,,,,,,,,,,,,,,,,,,,,,,,,,,,,,,,,139Sing,001,2023_Oct_27_1306,ProdSingRedoBetween,2021.2.3,59.98461994362985,
29,0,29,0,,,,,,,,,,,,,,,,,,,,,,,,,,496.76194869999927,None,gesture,41,30,sing,blue,494.7601817999994,None,None,494.7601817999994,None,,,,,,,,,,,,,,,,,,,,,,,,,,,,,,,,,,,139Sing,001,2023_Oct_27_1306,ProdSingRedoBetween,2021.2.3,59.98461994362985,
30,0,30,0,,,,,,,,,,,,,,,,,,,,,,,,,,499.2643860999997,None,present,79,31,sing,red,497.2625464999992,None,None,497.2625464999992,None,,,,,,,,,,,,,,,,,,,,,,,,,,,,,,,,,,,139Sing,001,2023_Oct_27_1306,ProdSingRedoBetween,2021.2.3,59.98461994362985,
31,0,31,0,,,,,,,,,,,,,,,,,,,,,,,,,,501.7667679999995,None,display,36,32,sing,blue,499.76503689999936,None,None,499.76503689999936,None,,,,,,,,,,,,,,,,,,,,,,,,,,,,,,,,,,,139Sing,001,2023_Oct_27_1306,ProdSingRedoBetween,2021.2.3,59.98461994362985,
32,0,32,0,,,,,,,,,,,,,,,,,,,,,,,,,,504.2693835,None,dozen,6,33,sing,yellow,502.2671811,None,None,502.2671811,None,,,,,,,,,,,,,,,,,,,,,,,,,,,,,,,,,,,139Sing,001,2023_Oct_27_1306,ProdSingRedoBetween,2021.2.3,59.98461994362985,
33,0,33,0,,,,,,,,,,,,,,,,,,,,,,,,,,506.7719789999992,None,minute,38,34,sing,blue,504.76977799999986,None,None,504.76977799999986,None,,,,,,,,,,,,,,,,,,,,,,,,,,,,,,,,,,,139Sing,001,2023_Oct_27_1306,ProdSingRedoBetween,2021.2.3,59.98461994362985,
34,0,34,0,,,,,,,,,,,,,,,,,,,,,,,,,,509.2744109999994,None,husband,17,35,sing,yellow,507.2724813999994,None,None,507.2724813999994,None,,,,,,,,,,,,,,,,,,,,,,,,,,,,,,,,,,,139Sing,001,2023_Oct_27_1306,ProdSingRedoBetween,2021.2.3,59.98461994362985,
35,0,35,0,,,,,,,,,,,,,,,,,,,,,,,,,,511.7769595,None,native,3,36,sing,yellow,509.7753094999998,None,None,509.7753094999998,None,,,,,,,,,,,,,,,,,,,,,,,,,,,,,,,,,,,139Sing,001,2023_Oct_27_1306,ProdSingRedoBetween,2021.2.3,59.98461994362985,
36,0,36,0,,,,,,,,,,,,,,,,,,,,,,,,,,514.2791893999993,None,dream,80,37,sing,red,512.2779305999993,None,None,512.2779305999993,None,,,,,,,,,,,,,,,,,,,,,,,,,,,,,,,,,,,139Sing,001,2023_Oct_27_1306,ProdSingRedoBetween,2021.2.3,59.98461994362985,
37,0,37,0,,,,,,,,,,,,,,,,,,,,,,,,,,516.7822953999994,None,death,63,38,sing,red,514.7801491999999,None,None,514.7801491999999,None,,,,,,,,,,,,,,,,,,,,,,,,,,,,,,,,,,,139Sing,001,2023_Oct_27_1306,ProdSingRedoBetween,2021.2.3,59.98461994362985,
38,0,38,0,,,,,,,,,,,,,,,,,,,,,,,,,,519.2842020999997,None,personnel,18,39,sing,yellow,517.2831632999996,None,None,517.2831632999996,None,,,,,,,,,,,,,,,,,,,,,,,,,,,,,,,,,,,139Sing,001,2023_Oct_27_1306,ProdSingRedoBetween,2021.2.3,59.98461994362985,
39,0,39,0,,,,,,,,,,,,,,,,,,,,,,,,,,521.7868767,None,height,37,40,sing,blue,519.7849860999995,None,None,519.7849860999995,None,,,,,,,,,,,,,,,,,,,,,,,,,,,,,,,,,,,139Sing,001,2023_Oct_27_1306,ProdSingRedoBetween,2021.2.3,59.98461994362985,
40,0,40,0,,,,,,,,,,,,,,,,,,,,,,,,,,524.2893970999994,None,alert,65,41,sing,red,522.2877596999997,None,None,522.2877596999997,None,,,,,,,,,,,,,,,,,,,,,,,,,,,,,,,,,,,139Sing,001,2023_Oct_27_1306,ProdSingRedoBetween,2021.2.3,59.98461994362985,
41,0,41,0,,,,,,,,,,,,,,,,,,,,,,,,,,526.7918636999993,None,position,43,42,sing,blue,524.7902467999993,None,None,524.7902467999993,None,,,,,,,,,,,,,,,,,,,,,,,,,,,,,,,,,,,139Sing,001,2023_Oct_27_1306,ProdSingRedoBetween,2021.2.3,59.98461994362985,
42,0,42,0,,,,,,,,,,,,,,,,,,,,,,,,,,529.2940605999993,None,crowd,56,43,sing,blue,527.2923220999992,None,None,527.2923220999992,None,,,,,,,,,,,,,,,,,,,,,,,,,,,,,,,,,,,139Sing,001,2023_Oct_27_1306,ProdSingRedoBetween,2021.2.3,59.98461994362985,
43,0,43,0,,,,,,,,,,,,,,,,,,,,,,,,,,531.7968267999995,None,employment,34,44,sing,blue,529.7960238999995,None,None,529.7960238999995,None,,,,,,,,,,,,,,,,,,,,,,,,,,,,,,,,,,,139Sing,001,2023_Oct_27_1306,ProdSingRedoBetween,2021.2.3,59.98461994362985,
44,0,44,0,,,,,,,,,,,,,,,,,,,,,,,,,,534.2993518999992,None,direction,74,45,sing,red,532.2973949999996,None,None,532.2973949999996,None,,,,,,,,,,,,,,,,,,,,,,,,,,,,,,,,,,,139Sing,001,2023_Oct_27_1306,ProdSingRedoBetween,2021.2.3,59.98461994362985,
45,0,45,0,,,,,,,,,,,,,,,,,,,,,,,,,,536.8019661999997,None,division,75,46,sing,red,534.8000266999998,None,None,534.8000266999998,None,,,,,,,,,,,,,,,,,,,,,,,,,,,,,,,,,,,139Sing,001,2023_Oct_27_1306,ProdSingRedoBetween,2021.2.3,59.98461994362985,
46,0,46,0,,,,,,,,,,,,,,,,,,,,,,,,,,539.3043540999997,None,swift,15,47,sing,yellow,537.3025045999993,None,None,537.3025045999993,None,,,,,,,,,,,,,,,,,,,,,,,,,,,,,,,,,,,139Sing,001,2023_Oct_27_1306,ProdSingRedoBetween,2021.2.3,59.98461994362985,
47,0,47,0,,,,,,,,,,,,,,,,,,,,,,,,,,541.8067535999999,None,judge,57,48,sing,blue,539.8049609,None,None,539.8049609,None,,,,,,,,,,,,,,,,,,,,,,,,,,,,,,,,,,,139Sing,001,2023_Oct_27_1306,ProdSingRedoBetween,2021.2.3,59.98461994362985,
48,0,48,0,,,,,,,,,,,,,,,,,,,,,,,,,,544.3095546999994,None,order,44,49,sing,blue,542.3072059999995,None,None,542.3072059999995,None,,,,,,,,,,,,,,,,,,,,,,,,,,,,,,,,,,,139Sing,001,2023_Oct_27_1306,ProdSingRedoBetween,2021.2.3,59.98461994362985,
49,0,49,0,,,,,,,,,,,,,,,,,,,,,,,,,,546.8121467999999,None,rural,23,50,sing,yellow,544.8097804999998,None,None,544.8097804999998,None,,,,,,,,,,,,,,,,,,,,,,,,,,,,,,,,,,,139Sing,001,2023_Oct_27_1306,ProdSingRedoBetween,2021.2.3,59.98461994362985,
50,0,50,0,,,,,,,,,,,,,,,,,,,,,,,,,,549.3143501999994,None,science,29,51,sing,blue,547.3126679999996,None,None,547.3126679999996,None,,,,,,,,,,,,,,,,,,,,,,,,,,,,,,,,,,,139Sing,001,2023_Oct_27_1306,ProdSingRedoBetween,2021.2.3,59.98461994362985,
51,0,51,0,,,,,,,,,,,,,,,,,,,,,,,,,,551.8168621999994,None,captain,45,52,sing,blue,549.8151903999997,None,None,549.8151903999997,None,,,,,,,,,,,,,,,,,,,,,,,,,,,,,,,,,,,139Sing,001,2023_Oct_27_1306,ProdSingRedoBetween,2021.2.3,59.98461994362985,
52,0,52,0,,,,,,,,,,,,,,,,,,,,,,,,,,554.3356862999999,None,solution,5,53,sing,yellow,552.3211505999998,None,None,552.3211505999998,None,,,,,,,,,,,,,,,,,,,,,,,,,,,,,,,,,,,139Sing,001,2023_Oct_27_1306,ProdSingRedoBetween,2021.2.3,59.98461994362985,
53,0,53,0,,,,,,,,,,,,,,,,,,,,,,,,,,556.8383225999996,None,congress,86,54,sing,red,554.8368799,None,None,554.8368799,None,,,,,,,,,,,,,,,,,,,,,,,,,,,,,,,,,,,139Sing,001,2023_Oct_27_1306,ProdSingRedoBetween,2021.2.3,59.98461994362985,
54,0,54,0,,,,,,,,,,,,,,,,,,,,,,,,,,559.3410121999996,None,owner,40,55,sing,blue,557.3391658999999,None,None,557.3391658999999,None,,,,,,,,,,,,,,,,,,,,,,,,,,,,,,,,,,,139Sing,001,2023_Oct_27_1306,ProdSingRedoBetween,2021.2.3,59.98461994362985,
55,0,55,0,,,,,,,,,,,,,,,,,,,,,,,,,,561.8436907999994,None,country,54,56,sing,blue,559.8415140999996,None,None,559.8415140999996,None,,,,,,,,,,,,,,,,,,,,,,,,,,,,,,,,,,,139Sing,001,2023_Oct_27_1306,ProdSingRedoBetween,2021.2.3,59.98461994362985,
56,0,56,0,,,,,,,,,,,,,,,,,,,,,,,,,,564.3458850999996,None,machinery,72,57,sing,red,562.3443433999992,None,None,562.3443433999992,None,,,,,,,,,,,,,,,,,,,,,,,,,,,,,,,,,,,139Sing,001,2023_Oct_27_1306,ProdSingRedoBetween,2021.2.3,59.98461994362985,
57,0,57,0,,,,,,,,,,,,,,,,,,,,,,,,,,566.8484691999993,None,discovery,84,58,sing,red,564.8467725999999,None,None,564.8467725999999,None,,,,,,,,,,,,,,,,,,,,,,,,,,,,,,,,,,,139Sing,001,2023_Oct_27_1306,ProdSingRedoBetween,2021.2.3,59.98461994362985,
58,0,58,0,,,,,,,,,,,,,,,,,,,,,,,,,,569.3511141999998,None,service,9,59,sing,yellow,567.3492767999996,None,None,567.3492767999996,None,,,,,,,,,,,,,,,,,,,,,,,,,,,,,,,,,,,139Sing,001,2023_Oct_27_1306,ProdSingRedoBetween,2021.2.3,59.98461994362985,
59,0,59,0,,,,,,,,,,,,,,,,,,,,,,,,,,571.8534209999998,None,literature,24,60,sing,yellow,569.8518206999997,None,None,569.8518206999997,None,,,,,,,,,,,,,,,,,,,,,,,,,,,,,,,,,,,139Sing,001,2023_Oct_27_1306,ProdSingRedoBetween,2021.2.3,59.98461994362985,
60,0,60,0,,,,,,,,,,,,,,,,,,,,,,,,,,574.3558668999995,None,running,82,61,sing,red,572.3540997999999,None,None,572.3540997999999,None,,,,,,,,,,,,,,,,,,,,,,,,,,,,,,,,,,,139Sing,001,2023_Oct_27_1306,ProdSingRedoBetween,2021.2.3,59.98461994362985,
61,0,61,0,,,,,,,,,,,,,,,,,,,,,,,,,,576.8584606999993,None,number,76,62,sing,red,574.8565762999997,None,None,574.8565762999997,None,,,,,,,,,,,,,,,,,,,,,,,,,,,,,,,,,,,139Sing,001,2023_Oct_27_1306,ProdSingRedoBetween,2021.2.3,59.98461994362985,
62,0,62,0,,,,,,,,,,,,,,,,,,,,,,,,,,579.3775759,None,breath,27,63,sing,yellow,577.3719821999994,None,None,577.3719821999994,None,,,,,,,,,,,,,,,,,,,,,,,,,,,,,,,,,,,139Sing,001,2023_Oct_27_1306,ProdSingRedoBetween,2021.2.3,59.98461994362985,
63,0,63,0,,,,,,,,,,,,,,,,,,,,,,,,,,581.8801329999997,None,course,55,64,sing,blue,579.8815399999994,None,None,579.8815399999994,None,,,,,,,,,,,,,,,,,,,,,,,,,,,,,,,,,,,139Sing,001,2023_Oct_27_1306,ProdSingRedoBetween,2021.2.3,59.98461994362985,
64,0,64,0,,,,,,,,,,,,,,,,,,,,,,,,,,584.3824333999992,None,burden,13,65,sing,yellow,582.3808411999998,None,None,582.3808411999998,None,,,,,,,,,,,,,,,,,,,,,,,,,,,,,,,,,,,139Sing,001,2023_Oct_27_1306,ProdSingRedoBetween,2021.2.3,59.98461994362985,
65,0,65,0,,,,,,,,,,,,,,,,,,,,,,,,,,586.8851544999998,None,comfort,11,66,sing,yellow,584.8831033999995,None,None,584.8831033999995,None,,,,,,,,,,,,,,,,,,,,,,,,,,,,,,,,,,,139Sing,001,2023_Oct_27_1306,ProdSingRedoBetween,2021.2.3,59.98461994362985,
66,0,66,0,,,,,,,,,,,,,,,,,,,,,,,,,,589.3875043999997,None,education,50,67,sing,blue,587.3854254999997,None,None,587.3854254999997,None,,,,,,,,,,,,,,,,,,,,,,,,,,,,,,,,,,,139Sing,001,2023_Oct_27_1306,ProdSingRedoBetween,2021.2.3,59.98461994362985,
67,0,67,0,,,,,,,,,,,,,,,,,,,,,,,,,,591.8902769999995,None,phrase,60,68,sing,red,589.8883084999998,None,None,589.8883084999998,None,,,,,,,,,,,,,,,,,,,,,,,,,,,,,,,,,,,139Sing,001,2023_Oct_27_1306,ProdSingRedoBetween,2021.2.3,59.98461994362985,
68,0,68,0,,,,,,,,,,,,,,,,,,,,,,,,,,594.3929900999992,None,industry,26,69,sing,yellow,592.3906260999993,None,None,592.3906260999993,None,,,,,,,,,,,,,,,,,,,,,,,,,,,,,,,,,,,139Sing,001,2023_Oct_27_1306,ProdSingRedoBetween,2021.2.3,59.98461994362985,
69,0,69,0,,,,,,,,,,,,,,,,,,,,,,,,,,596.8952425999996,None,income,48,70,sing,blue,594.8930992999994,None,None,594.8930992999994,None,,,,,,,,,,,,,,,,,,,,,,,,,,,,,,,,,,,139Sing,001,2023_Oct_27_1306,ProdSingRedoBetween,2021.2.3,59.98461994362985,
70,0,70,0,,,,,,,,,,,,,,,,,,,,,,,,,,599.3974417,None,signal,33,71,sing,blue,597.3955797999997,None,None,597.3955797999997,None,,,,,,,,,,,,,,,,,,,,,,,,,,,,,,,,,,,139Sing,001,2023_Oct_27_1306,ProdSingRedoBetween,2021.2.3,59.98461994362985,
71,0,71,0,,,,,,,,,,,,,,,,,,,,,,,,,,601.9001509999998,None,testimony,67,72,sing,red,599.8981690999999,None,None,599.8981690999999,None,,,,,,,,,,,,,,,,,,,,,,,,,,,,,,,,,,,139Sing,001,2023_Oct_27_1306,ProdSingRedoBetween,2021.2.3,59.98461994362985,
72,0,72,0,,,,,,,,,,,,,,,,,,,,,,,,,,604.4026613999995,None,executive,70,73,sing,red,602.4004805999994,None,None,602.4004805999994,None,,,,,,,,,,,,,,,,,,,,,,,,,,,,,,,,,,,139Sing,001,2023_Oct_27_1306,ProdSingRedoBetween,2021.2.3,59.98461994362985,
73,0,73,0,,,,,,,,,,,,,,,,,,,,,,,,,,606.9052220999993,None,volume,19,74,sing,yellow,604.9030284,None,None,604.9030284,None,,,,,,,,,,,,,,,,,,,,,,,,,,,,,,,,,,,139Sing,001,2023_Oct_27_1306,ProdSingRedoBetween,2021.2.3,59.98461994362985,
74,0,74,0,,,,,,,,,,,,,,,,,,,,,,,,,,609.4077170999999,None,management,85,75,sing,red,607.405565,None,None,607.405565,None,,,,,,,,,,,,,,,,,,,,,,,,,,,,,,,,,,,139Sing,001,2023_Oct_27_1306,ProdSingRedoBetween,2021.2.3,59.98461994362985,
75,0,75,0,,,,,,,,,,,,,,,,,,,,,,,,,,611.9101155999997,None,quick,39,76,sing,blue,609.9081305999998,None,None,609.9081305999998,None,,,,,,,,,,,,,,,,,,,,,,,,,,,,,,,,,,,139Sing,001,2023_Oct_27_1306,ProdSingRedoBetween,2021.2.3,59.98461994362985,
76,0,76,0,,,,,,,,,,,,,,,,,,,,,,,,,,614.4125409999997,None,prime,1,77,sing,yellow,612.4105481999995,None,None,612.4105481999995,None,,,,,,,,,,,,,,,,,,,,,,,,,,,,,,,,,,,139Sing,001,2023_Oct_27_1306,ProdSingRedoBetween,2021.2.3,59.98461994362985,
77,0,77,0,,,,,,,,,,,,,,,,,,,,,,,,,,616.9156082999998,None,finance,35,78,sing,blue,614.9130785999996,None,None,614.9130785999996,None,,,,,,,,,,,,,,,,,,,,,,,,,,,,,,,,,,,139Sing,001,2023_Oct_27_1306,ProdSingRedoBetween,2021.2.3,59.98461994362985,
78,0,78,0,,,,,,,,,,,,,,,,,,,,,,,,,,619.4177955999994,None,concern,66,79,sing,red,617.4156594999995,None,None,617.4156594999995,None,,,,,,,,,,,,,,,,,,,,,,,,,,,,,,,,,,,139Sing,001,2023_Oct_27_1306,ProdSingRedoBetween,2021.2.3,59.98461994362985,
79,0,79,0,,,,,,,,,,,,,,,,,,,,,,,,,,621.9202994999996,None,colonel,21,80,sing,yellow,619.9181906999993,None,None,619.9181906999993,None,,,,,,,,,,,,,,,,,,,,,,,,,,,,,,,,,,,139Sing,001,2023_Oct_27_1306,ProdSingRedoBetween,2021.2.3,59.98461994362985,
80,0,80,0,,,,,,,,,,,,,,,,,,,,,,,,,,624.4230841999997,None,light,31,81,sing,blue,622.4206028999997,None,None,622.4206028999997,None,,,,,,,,,,,,,,,,,,,,,,,,,,,,,,,,,,,139Sing,001,2023_Oct_27_1306,ProdSingRedoBetween,2021.2.3,59.98461994362985,
81,0,81,0,,,,,,,,,,,,,,,,,,,,,,,,,,626.9251525,None,nature,51,82,sing,blue,624.9232636999996,None,None,624.9232636999996,None,,,,,,,,,,,,,,,,,,,,,,,,,,,,,,,,,,,139Sing,001,2023_Oct_27_1306,ProdSingRedoBetween,2021.2.3,59.98461994362985,
82,0,82,0,,,,,,,,,,,,,,,,,,,,,,,,,,629.4277791999993,None,department,71,83,sing,red,627.4262494999994,None,None,627.4262494999994,None,,,,,,,,,,,,,,,,,,,,,,,,,,,,,,,,,,,139Sing,001,2023_Oct_27_1306,ProdSingRedoBetween,2021.2.3,59.98461994362985,
83,0,83,0,,,,,,,,,,,,,,,,,,,,,,,,,,631.9301006999995,None,touch,7,84,sing,yellow,629.9280615999996,None,None,629.9280615999996,None,,,,,,,,,,,,,,,,,,,,,,,,,,,,,,,,,,,139Sing,001,2023_Oct_27_1306,ProdSingRedoBetween,2021.2.3,59.98461994362985,
84,0,84,0,,,,,,,,,,,,,,,,,,,,,,,,,,634.4325102999992,None,silence,46,85,sing,blue,632.4305779999995,None,None,632.4305779999995,None,,,,,,,,,,,,,,,,,,,,,,,,,,,,,,,,,,,139Sing,001,2023_Oct_27_1306,ProdSingRedoBetween,2021.2.3,59.98461994362985,
85,0,85,0,,,,,,,,,,,,,,,,,,,,,,,,,,636.9351878999996,None,throw,14,86,sing,yellow,634.9331399999992,None,None,634.9331399999992,None,,,,,,,,,,,,,,,,,,,,,,,,,,,,,,,,,,,139Sing,001,2023_Oct_27_1306,ProdSingRedoBetween,2021.2.3,59.98461994362985,
86,0,86,0,,,,,,,,,,,,,,,,,,,,,,,,,,639.4376343999993,None,degree,2,87,sing,yellow,637.4359678999999,None,None,637.4359678999999,None,,,,,,,,,,,,,,,,,,,,,,,,,,,,,,,,,,,139Sing,001,2023_Oct_27_1306,ProdSingRedoBetween,2021.2.3,59.98461994362985,
87,0,87,0,,,,,,,,,,,,,,,,,,,,,,,,,,641.9400430999995,None,youth,10,88,sing,yellow,639.9384739999996,None,None,639.9384739999996,None,,,,,,,,,,,,,,,,,,,,,,,,,,,,,,,,,,,139Sing,001,2023_Oct_27_1306,ProdSingRedoBetween,2021.2.3,59.98461994362985,
88,0,88,0,,,,,,,,,,,,,,,,,,,,,,,,,,644.4426716999997,None,watch,28,89,sing,yellow,642.4405590999995,None,None,642.4405590999995,None,,,,,,,,,,,,,,,,,,,,,,,,,,,,,,,,,,,139Sing,001,2023_Oct_27_1306,ProdSingRedoBetween,2021.2.3,59.98461994362985,
89,0,89,0,,,,,,,,,,,,,,,,,,,,,,,,,,646.9452075999998,None,sight,4,90,sing,yellow,644.9430033999997,None,None,644.9430033999997,None,,,,,,,,,,,,,,,,,,,,,,,,,,,,,,,,,,,139Sing,001,2023_Oct_27_1306,ProdSingRedoBetween,2021.2.3,59.98461994362985,
,,,,,,,,,,,,,,,,,,,,,,,,,,,,,,,,,,,,,,,,,647.4463212999999,None,k,128.32341469999938,647.4463212999999,None,,,,,,,,,,,,,,,,,,,,,,,,,,,,,139Sing,001,2023_Oct_27_1306,ProdSingRedoBetween,2021.2.3,59.98461994362985,
,,,,0,0,0,0,,,,,,,,,,,,,,,,,,,,,,788.2530416999998,None,,,,,,,,,,,,,,,,,sweet,12,1,sing,old,yellow,776.2957146999997,None,776.2957146999997,None,3,7.450028899999779,776.2957146999997,None,7.450028899999779,783.7671676,None,784.2821249999997,None,784.2821249999997,None,n,3.943578599999455,784.2821249999997,None,3.943578599999455,,,139Sing,001,2023_Oct_27_1306,ProdSingRedoBetween,2021.2.3,59.98461994362985,
,,,,1,0,1,0,,,,,,,,,,,,,,,,,,,,,,796.5485608999998,None,,,,,,,,,,,,,,,,,month,140,2,sing,new,null,788.7534145,None,788.7534145,None,2,4.264431599999625,788.7534145,None,4.264431599999625,793.0428221999991,None,793.5580934,None,793.5580934,None,f,2.9556170000005295,793.5580934,None,2.9556170000005295,,,139Sing,001,2023_Oct_27_1306,ProdSingRedoBetween,2021.2.3,59.98461994362985,
,,,,2,0,2,0,,,,,,,,,,,,,,,,,,,,,,806.1378219999997,None,,,,,,,,,,,,,,,,,watch,28,3,sing,old,yellow,797.0623606999998,None,797.0623606999998,None,3,5.843390200000613,797.0623606999998,None,5.843390200000613,802.9407234999999,None,803.4517566999994,None,803.4517566999994,None,n,2.653883599999972,803.4517566999994,None,2.653883599999972,,,139Sing,001,2023_Oct_27_1306,ProdSingRedoBetween,2021.2.3,59.98461994362985,
,,,,3,0,3,0,,,,,,,,,,,,,,,,,,,,,,813.6615444999998,None,,,,,,,,,,,,,,,,,management,85,4,sing,old,red,806.6378771999998,None,806.6378771999998,None,6,2.9397894999992786,806.6378771999998,None,2.9397894999992786,809.6123752999993,None,810.1247525999997,None,810.1247525999997,None,r,3.5169235000003027,810.1247525999997,None,3.5169235000003027,,,139Sing,001,2023_Oct_27_1306,ProdSingRedoBetween,2021.2.3,59.98461994362985,
,,,,4,0,4,0,,,,,,,,,,,,,,,,,,,,,,819.8545515999995,None,,,,,,,,,,,,,,,,,machinery,72,5,sing,old,red,814.1642305999994,None,814.1642305999994,None,6,2.1974169999994047,814.1642305999994,None,2.1974169999994047,816.3831661999993,None,816.8982548999993,None,816.8982548999993,None,r,2.9274271000003864,816.8982548999993,None,2.9274271000003864,,,139Sing,001,2023_Oct_27_1306,ProdSingRedoBetween,2021.2.3,59.98461994362985,
,,,,5,0,5,0,,,,,,,,,,,,,,,,,,,,,,825.1728582999995,None,,,,,,,,,,,,,,,,,death,63,6,sing,old,red,820.3681753999999,None,820.3681753999999,None,6,1.9295695999999225,820.3681753999999,None,1.9295695999999225,822.3202437,None,822.8398725999996,None,822.8398725999996,None,r,2.31381969999984,822.8398725999996,None,2.31381969999984,,,139Sing,001,2023_Oct_27_1306,ProdSingRedoBetween,2021.2.3,59.98461994362985,
,,,,6,0,6,0,,,,,,,,,,,,,,,,,,,,,,832.6640929999994,None,,,,,,,,,,,,,,,,,character,159,7,sing,new,null,825.6738988999996,None,825.6738988999996,None,5,3.839745799999946,825.6738988999996,None,3.839745799999946,829.5439403,None,830.0447000999993,None,830.0447000999993,None,f,2.5889499000004434,830.0447000999993,None,2.5889499000004434,,,139Sing,001,2023_Oct_27_1306,ProdSingRedoBetween,2021.2.3,59.98461994362985,
,,,,7,0,7,0,,,,,,,,,,,,,,,,,,,,,,838.4527634999995,None,,,,,,,,,,,,,,,,,quick,39,8,sing,old,blue,833.1667246999996,None,833.1667246999996,None,2,2.402906900000744,833.1667246999996,None,2.402906900000744,835.6059679,None,836.1172823999996,None,836.1172823999996,None,n,2.308600000000297,836.1172823999996,None,2.308600000000297,,,139Sing,001,2023_Oct_27_1306,ProdSingRedoBetween,2021.2.3,59.98461994362985,
,,,,8,0,8,0,,,,,,,,,,,,,,,,,,,,,,842.5405732999998,None,,,,,,,,,,,,,,,,,conference,172,9,sing,new,null,838.9538693999993,None,838.9538693999993,None,6,1.78375270000015,838.9538693999993,None,1.78375270000015,840.7625823999997,None,841.2729294999999,None,841.2729294999999,None,r,1.248772499999177,841.2729294999999,None,1.248772499999177,,,139Sing,001,2023_Oct_27_1306,ProdSingRedoBetween,2021.2.3,59.98461994362985,
,,,,9,0,9,0,,,,,,,,,,,,,,,,,,,,,,848.2794227999993,None,,,,,,,,,,,,,,,,,level,8,10,sing,old,yellow,843.0430723999998,None,843.0430723999998,None,1,3.166585599999962,843.0430723999998,None,3.166585599999962,846.2305559999995,None,846.7445088999993,None,846.7445088999993,None,n,1.5050584000000526,846.7445088999993,None,1.5050584000000526,,,139Sing,001,2023_Oct_27_1306,ProdSingRedoBetween,2021.2.3,59.98461994362985,
,,,,10,0,10,0,,,,,,,,,,,,,,,,,,,,,,854.2351814999993,None,,,,,,,,,,,,,,,,,whole,103,11,sing,new,null,848.7799707999993,None,848.7799707999993,None,3,3.2057086000004347,848.7799707999993,None,3.2057086000004347,852.0164228999993,None,852.5169003999999,None,852.5169003999999,None,f,1.6927404999996725,852.5169003999999,None,1.6927404999996725,,,139Sing,001,2023_Oct_27_1306,ProdSingRedoBetween,2021.2.3,59.98461994362985,
,,,,11,0,11,0,,,,,,,,,,,,,,,,,,,,,,857.9389891999999,None,,,,,,,,,,,,,,,,,material,137,12,sing,new,null,854.7359143999993,None,854.7359143999993,None,5,1.6737026999999216,854.7359143999993,None,1.6737026999999216,856.4441403999999,None,856.9545682999997,None,856.9545682999997,None,f,0.959045700000388,856.9545682999997,None,0.959045700000388,,,139Sing,001,2023_Oct_27_1306,ProdSingRedoBetween,2021.2.3,59.98461994362985,
,,,,12,0,12,0,,,,,,,,,,,,,,,,,,,,,,866.5485295999997,None,,,,,,,,,,,,,,,,,course,55,13,sing,old,blue,858.4408322999998,None,858.4408322999998,None,2,3.5448543000002246,858.4408322999998,None,3.5448543000002246,862.0150540999994,None,862.5271088,None,862.5271088,None,n,3.994633799999974,862.5271088,None,3.994633799999974,,,139Sing,001,2023_Oct_27_1306,ProdSingRedoBetween,2021.2.3,59.98461994362985,
,,,,13,0,13,0,,,,,,,,,,,,,,,,,,,,,,871.2857010999996,None,,,,,,,,,,,,,,,,,entrance,166,14,sing,new,null,867.0481032999996,None,867.0481032999996,None,3,2.2734378000004654,867.0481032999996,None,2.2734378000004654,869.3530453999992,None,869.8679416999994,None,869.8679416999994,None,f,1.3977479999994102,869.8679416999994,None,1.3977479999994102,,,139Sing,001,2023_Oct_27_1306,ProdSingRedoBetween,2021.2.3,59.98461994362985,
,,,,14,0,14,0,,,,,,,,,,,,,,,,,,,,,,876.3906191999995,None,,,,,,,,,,,,,,,,,order,44,15,sing,old,blue,871.7902299999996,None,871.7902299999996,None,4,2.619295200000124,871.7902299999996,None,2.619295200000124,874.4451555999995,None,874.9563801999993,None,874.9563801999993,None,f,1.413210199999412,874.9563801999993,None,1.413210199999412,,,139Sing,001,2023_Oct_27_1306,ProdSingRedoBetween,2021.2.3,59.98461994362985,
,,,,15,0,15,0,,,,,,,,,,,,,,,,,,,,,,881.2148647999993,None,,,,,,,,,,,,,,,,,cross,163,16,sing,new,null,876.8924592999992,None,876.8924592999992,None,2,2.557213999999476,876.8924592999992,None,2.557213999999476,879.4782470999999,None,879.9782378999998,None,879.9782378999998,None,n,1.215334299999995,879.9782378999998,None,1.215334299999995,,,139Sing,001,2023_Oct_27_1306,ProdSingRedoBetween,2021.2.3,59.98461994362985,
,,,,16,0,16,0,,,,,,,,,,,,,,,,,,,,,,885.4330109999992,None,,,,,,,,,,,,,,,,,disease,110,17,sing,new,null,881.7294100999998,None,881.7294100999998,None,3,1.8163493000001836,881.7294100999998,None,1.8163493000001836,883.5669394999995,None,884.0817582999998,None,884.0817582999998,None,f,1.3358508999999685,884.0817582999998,None,1.3358508999999685,,,139Sing,001,2023_Oct_27_1306,ProdSingRedoBetween,2021.2.3,59.98461994362985,
,,,,17,0,17,0,,,,,,,,,,,,,,,,,,,,,,890.8552749999999,None,,,,,,,,,,,,,,,,,length,161,18,sing,new,null,885.9341199,None,885.9341199,None,3,2.7634311000001617,885.9341199,None,2.7634311000001617,888.7200090999995,None,889.2202795999992,None,889.2202795999992,None,n,1.613300299999537,889.2202795999992,None,1.613300299999537,,,139Sing,001,2023_Oct_27_1306,ProdSingRedoBetween,2021.2.3,59.98461994362985,
,,,,18,0,18,0,,,,,,,,,,,,,,,,,,,,,,895.5766627999992,None,,,,,,,,,,,,,,,,,shock,61,19,sing,old,red,891.3614343999998,None,891.3614343999998,None,4,2.6081136000002516,891.3614343999998,None,2.6081136000002516,893.9915490999992,None,894.4922370999993,None,894.4922370999993,None,f,1.0612935999997717,894.4922370999993,None,1.0612935999997717,,,139Sing,001,2023_Oct_27_1306,ProdSingRedoBetween,2021.2.3,59.98461994362985,
,,,,19,0,19,0,,,,,,,,,,,,,,,,,,,,,,899.2975677999993,None,,,,,,,,,,,,,,,,,swift,15,20,sing,old,yellow,896.0778957999992,None,896.0778957999992,None,3,1.9476101000000199,896.0778957999992,None,1.9476101000000199,898.0477461999999,None,898.5627763999992,None,898.5627763999992,None,n,0.7187841999993907,898.5627763999992,None,0.7187841999993907,,,139Sing,001,2023_Oct_27_1306,ProdSingRedoBetween,2021.2.3,59.98461994362985,
,,,,20,0,20,0,,,,,,,,,,,,,,,,,,,,,,903.1006610999993,None,,,,,,,,,,,,,,,,,congress,86,21,sing,old,red,899.7977789999995,None,899.7977789999995,None,6,1.6118187000001853,899.7977789999995,None,1.6118187000001853,901.4339528,None,901.9330953999997,None,901.9330953999997,None,r,1.1485540000003311,901.9330953999997,None,1.1485540000003311,,,139Sing,001,2023_Oct_27_1306,ProdSingRedoBetween,2021.2.3,59.98461994362985,
,,,,21,0,21,0,,,,,,,,,,,,,,,,,,,,,,908.8397814999998,None,,,,,,,,,,,,,,,,,engineer,122,22,sing,new,null,903.6014926999997,None,903.6014926999997,None,4,3.768048899999485,903.6014926999997,None,3.768048899999485,907.3934771999993,None,907.9057905,None,907.9057905,None,f,0.9038387999999031,907.9057905,None,0.9038387999999031,,,139Sing,001,2023_Oct_27_1306,ProdSingRedoBetween,2021.2.3,59.98461994362985,
,,,,22,0,22,0,,,,,,,,,,,,,,,,,,,,,,912.5433432999998,None,,,,,,,,,,,,,,,,,discovery,84,23,sing,old,red,909.3402344999995,None,909.3402344999995,None,5,1.693462800000816,909.3402344999995,None,1.693462800000816,911.0602087999996,None,911.5757796999997,None,911.5757796999997,None,r,0.9458872999994128,911.5757796999997,None,0.9458872999994128,,,139Sing,001,2023_Oct_27_1306,ProdSingRedoBetween,2021.2.3,59.98461994362985,
,,,,23,0,23,0,,,,,,,,,,,,,,,,,,,,,,916.2134072999997,None,,,,,,,,,,,,,,,,,title,164,24,sing,new,null,913.0625123,None,913.0625123,None,2,1.539091699999517,913.0625123,None,1.539091699999517,914.6289645999996,None,915.1346928999992,None,915.1346928999992,None,n,1.0508236999994551,915.1346928999992,None,1.0508236999994551,,,139Sing,001,2023_Oct_27_1306,ProdSingRedoBetween,2021.2.3,59.98461994362985,
,,,,24,0,24,0,,,,,,,,,,,,,,,,,,,,,,920.0505798999993,None,,,,,,,,,,,,,,,,,column,154,25,sing,new,null,916.7142559999993,None,916.7142559999993,None,5,1.439252000000124,916.7142559999993,None,1.439252000000124,918.1851594999998,None,918.7002567999998,None,918.7002567999998,None,f,1.3333290999999008,918.7002567999998,None,1.3333290999999008,,,139Sing,001,2023_Oct_27_1306,ProdSingRedoBetween,2021.2.3,59.98461994362985,
,,,,25,0,25,0,,,,,,,,,,,,,,,,,,,,,,923.8051207999997,None,,,,,,,,,,,,,,,,,direction,74,26,sing,old,red,920.5531854999999,None,920.5531854999999,None,4,1.576311299999361,920.5531854999999,None,1.576311299999361,922.1551995,None,922.6703478999998,None,922.6703478999998,None,f,1.1152079999992566,922.6703478999998,None,1.1152079999992566,,,139Sing,001,2023_Oct_27_1306,ProdSingRedoBetween,2021.2.3,59.98461994362985,
,,,,26,0,26,0,,,,,,,,,,,,,,,,,,,,,,929.2099892999995,None,,,,,,,,,,,,,,,,,count,133,27,sing,new,null,924.3056876999999,None,924.3056876999999,None,3,1.9758779000003415,924.3056876999999,None,1.9758779000003415,926.3073347999998,None,926.8077153999993,None,926.8077153999993,None,n,2.3778073000003133,926.8077153999993,None,2.3778073000003133,,,139Sing,001,2023_Oct_27_1306,ProdSingRedoBetween,2021.2.3,59.98461994362985,
,,,,27,0,27,0,,,,,,,,,,,,,,,,,,,,,,935.3332,None,,,,,,,,,,,,,,,,,science,29,28,sing,old,blue,929.7112436999996,None,929.7112436999996,None,6,1.5542642999998861,929.7112436999996,None,1.5542642999998861,931.2968817999999,None,931.8129352999995,None,931.8129352999995,None,r,3.492586399999709,931.8129352999995,None,3.492586399999709,,,139Sing,001,2023_Oct_27_1306,ProdSingRedoBetween,2021.2.3,59.98461994362985,
,,,,28,0,28,0,,,,,,,,,,,,,,,,,,,,,,941.3893383999994,None,,,,,,,,,,,,,,,,,answer,130,29,sing,new,null,935.8334451999999,None,935.8334451999999,None,2,1.9920946000002004,935.8334451999999,None,1.9920946000002004,937.8544570999993,None,938.3692716999994,None,938.3692716999994,None,n,2.9922713000005388,938.3692716999994,None,2.9922713000005388,,,139Sing,001,2023_Oct_27_1306,ProdSingRedoBetween,2021.2.3,59.98461994362985,
,,,,29,0,29,0,,,,,,,,,,,,,,,,,,,,,,944.6277211999995,None,,,,,,,,,,,,,,,,,income,48,30,sing,old,blue,941.8895387999992,None,941.8895387999992,None,1,1.5039540999996461,941.8895387999992,None,1.5039540999996461,943.4248368999997,None,943.9246691999997,None,943.9246691999997,None,n,0.685064300000704,943.9246691999997,None,0.685064300000704,,,139Sing,001,2023_Oct_27_1306,ProdSingRedoBetween,2021.2.3,59.98461994362985,
,,,,30,0,30,0,,,,,,,,,,,,,,,,,,,,,,947.9456514999993,None,,,,,,,,,,,,,,,,,murder,157,31,sing,new,null,945.1428733999992,None,945.1428733999992,None,1,1.554627900000014,945.1428733999992,None,1.554627900000014,946.7297559999997,None,947.2446791999992,None,947.2446791999992,None,n,0.6848096000003352,947.2446791999992,None,0.6848096000003352,,,139Sing,001,2023_Oct_27_1306,ProdSingRedoBetween,2021.2.3,59.98461994362985,
,,,,31,0,31,0,,,,,,,,,,,,,,,,,,,,,,951.5825466999995,None,,,,,,,,,,,,,,,,,guide,83,32,sing,old,red,948.4475134999993,None,948.4475134999993,None,2,1.6340744999997696,948.4475134999993,None,1.6340744999997696,950.1018357999992,None,950.6148518999998,None,950.6148518999998,None,n,0.9467340000001059,950.6148518999998,None,0.9467340000001059,,,139Sing,001,2023_Oct_27_1306,ProdSingRedoBetween,2021.2.3,59.98461994362985,
,,,,32,0,32,0,,,,,,,,,,,,,,,,,,,,,,954.9860135999998,None,,,,,,,,,,,,,,,,,permit,134,33,sing,new,null,952.0829065999997,None,952.0829065999997,None,1,1.3985607000004165,952.0829065999997,None,1.3985607000004165,953.5022024,None,954.0016627999994,None,954.0016627999994,None,n,0.9599961999992956,954.0016627999994,None,0.9599961999992956,,,139Sing,001,2023_Oct_27_1306,ProdSingRedoBetween,2021.2.3,59.98461994362985,
,,,,33,0,33,0,,,,,,,,,,,,,,,,,,,,,,958.4063227999995,None,,,,,,,,,,,,,,,,,finish,116,34,sing,new,null,955.4868569999999,None,955.4868569999999,None,1,1.7147071999997934,955.4868569999999,None,1.7147071999997934,957.2276199999997,None,957.7386896999997,None,957.7386896999997,None,n,0.6468150000000605,957.7386896999997,None,0.6468150000000605,,,139Sing,001,2023_Oct_27_1306,ProdSingRedoBetween,2021.2.3,59.98461994362985,
,,,,34,0,34,0,,,,,,,,,,,,,,,,,,,,,,962.1947114999994,None,,,,,,,,,,,,,,,,,travel,132,35,sing,new,null,958.9089490999995,None,958.9089490999995,None,3,1.668556399999943,958.9089490999995,None,1.668556399999943,960.6121882999996,None,961.1253509999997,None,961.1253509999997,None,f,1.0363222999994832,961.1253509999997,None,1.0363222999994832,,,139Sing,001,2023_Oct_27_1306,ProdSingRedoBetween,2021.2.3,59.98461994362985,
,,,,35,0,35,0,,,,,,,,,,,,,,,,,,,,,,965.1130334999998,None,,,,,,,,,,,,,,,,,point,162,36,sing,new,null,962.7104286999993,None,962.7104286999993,None,1,1.483015499999965,962.7104286999993,None,1.483015499999965,964.2212285999994,None,964.7290558999994,None,964.7290558999994,None,n,0.36050629999954253,964.7290558999994,None,0.36050629999954253,,,139Sing,001,2023_Oct_27_1306,ProdSingRedoBetween,2021.2.3,59.98461994362985,
,,,,36,0,36,0,,,,,,,,,,,,,,,,,,,,,,970.0508375999998,None,,,,,,,,,,,,,,,,,prime,1,37,sing,old,yellow,965.6149063999992,None,965.6149063999992,None,3,2.3705808000004254,965.6149063999992,None,2.3705808000004254,968.0189296999997,None,968.5329035999994,None,968.5329035999994,None,f,1.5006948000000193,968.5329035999994,None,1.5006948000000193,,,139Sing,001,2023_Oct_27_1306,ProdSingRedoBetween,2021.2.3,59.98461994362985,
,,,,37,0,37,0,,,,,,,,,,,,,,,,,,,,,,973.8879385,None,,,,,,,,,,,,,,,,,comedy,126,38,sing,new,null,970.5561027999993,None,970.5561027999993,None,4,1.9653157000002466,970.5561027999993,None,1.9653157000002466,972.5424822999994,None,973.0538455999995,None,973.0538455999995,None,f,0.8117913999994926,973.0538455999995,None,0.8117913999994926,,,139Sing,001,2023_Oct_27_1306,ProdSingRedoBetween,2021.2.3,59.98461994362985,
,,,,38,0,38,0,,,,,,,,,,,,,,,,,,,,,,977.5117470999994,None,,,,,,,,,,,,,,,,,burden,13,39,sing,old,yellow,974.3889028999993,None,974.3889028999993,None,5,1.7645538999995551,974.3889028999993,None,1.7645538999995551,976.1806627999995,None,976.6905343999997,None,976.6905343999997,None,f,0.7909248999994816,976.6905343999997,None,0.7909248999994816,,,139Sing,001,2023_Oct_27_1306,ProdSingRedoBetween,2021.2.3,59.98461994362985,
,,,,39,0,39,0,,,,,,,,,,,,,,,,,,,,,,981.4138734999997,None,,,,,,,,,,,,,,,,,breath,27,40,sing,old,yellow,978.0254928999993,None,978.0254928999993,None,6,1.8960214999997334,978.0254928999993,None,1.8960214999997334,979.9473946999997,None,980.4611952999994,None,980.4611952999994,None,r,0.9242393000004085,980.4611952999994,None,0.9242393000004085,,,139Sing,001,2023_Oct_27_1306,ProdSingRedoBetween,2021.2.3,59.98461994362985,
,,,,40,0,40,0,,,,,,,,,,,,,,,,,,,,,,987.9021462999999,None,,,,,,,,,,,,,,,,,oxygen,138,41,sing,new,null,981.9295279999997,None,981.9295279999997,None,2,4.495938500000193,981.9295279999997,None,4.495938500000193,986.4521872999994,None,986.9513276999996,None,986.9513276999996,None,n,0.9220900000000256,986.9513276999996,None,0.9220900000000256,,,139Sing,001,2023_Oct_27_1306,ProdSingRedoBetween,2021.2.3,59.98461994362985,
,,,,41,0,41,0,,,,,,,,,,,,,,,,,,,,,,990.8576979999998,None,,,,,,,,,,,,,,,,,thick,92,42,sing,new,null,988.4030991,None,988.4030991,None,1,1.2143674000008104,988.4030991,None,1.2143674000008104,989.6368653999998,None,990.1377204,None,990.1377204,None,n,0.6877805000003718,990.1377204,None,0.6877805000003718,,,139Sing,001,2023_Oct_27_1306,ProdSingRedoBetween,2021.2.3,59.98461994362985,
,,,,42,0,42,0,,,,,,,,,,,,,,,,,,,,,,994.2087540999992,None,,,,,,,,,,,,,,,,,power,58,43,sing,old,blue,991.3722347999992,None,991.3722347999992,None,4,1.6372076000006928,991.3722347999992,None,1.6372076000006928,993.0439864999998,None,993.5574837999993,None,993.5574837999993,None,f,0.636066000000028,993.5574837999993,None,0.636066000000028,,,139Sing,001,2023_Oct_27_1306,ProdSingRedoBetween,2021.2.3,59.98461994362985,
,,,,43,0,43,0,,,,,,,,,,,,,,,,,,,,,,997.6815401999993,None,,,,,,,,,,,,,,,,,mechanical,145,44,sing,new,null,994.7095573999995,None,994.7095573999995,None,6,1.3558917000000292,994.7095573999995,None,1.3558917000000292,996.0934119999993,None,996.5940984999997,None,996.5940984999997,None,f,1.063314399999399,996.5940984999997,None,1.063314399999399,,,139Sing,001,2023_Oct_27_1306,ProdSingRedoBetween,2021.2.3,59.98461994362985,
,,,,44,0,44,0,,,,,,,,,,,,,,,,,,,,,,1002.9180710999999,None,,,,,,,,,,,,,,,,,division,75,45,sing,old,red,998.1988701999999,None,998.1988701999999,None,5,2.730724399999417,998.1988701999999,None,2.730724399999417,1000.9502778999995,None,1001.4657678999993,None,1001.4657678999993,None,f,1.4317504000000554,1001.4657678999993,None,1.4317504000000554,,,139Sing,001,2023_Oct_27_1306,ProdSingRedoBetween,2021.2.3,59.98461994362985,
,,,,45,0,45,0,,,,,,,,,,,,,,,,,,,,,,1006.7207184999997,None,,,,,,,,,,,,,,,,,citizen,121,46,sing,new,null,1003.4187979999997,None,1003.4187979999997,None,3,1.6947225000003527,1003.4187979999997,None,1.6947225000003527,1005.1395121999994,None,1005.6530453999994,None,1005.6530453999994,None,n,1.0443954000002122,1005.6530453999994,None,1.0443954000002122,,,139Sing,001,2023_Oct_27_1306,ProdSingRedoBetween,2021.2.3,59.98461994362985,
,,,,46,0,46,0,,,,,,,,,,,,,,,,,,,,,,1011.6589906999998,None,,,,,,,,,,,,,,,,,device,22,47,sing,old,yellow,1007.2211757999994,None,1007.2211757999994,None,3,2.8443179999994754,1007.2211757999994,None,2.8443179999994754,1010.0956670999994,None,1010.6084463999996,None,1010.6084463999996,None,n,1.0329750999999305,1010.6084463999996,None,1.0329750999999305,,,139Sing,001,2023_Oct_27_1306,ProdSingRedoBetween,2021.2.3,59.98461994362985,
,,,,47,0,47,0,,,,,,,,,,,,,,,,,,,,,,1016.1469959999995,None,,,,,,,,,,,,,,,,,article,125,48,sing,new,null,1012.1598676999993,None,1012.1598676999993,None,2,3.1455698999998276,1012.1598676999993,None,3.1455698999998276,1015.3342563999995,None,1015.8465732999994,None,1015.8465732999994,None,n,0.28300299999955314,1015.8465732999994,None,0.28300299999955314,,,139Sing,001,2023_Oct_27_1306,ProdSingRedoBetween,2021.2.3,59.98461994362985,
,,,,48,0,48,0,,,,,,,,,,,,,,,,,,,,,,1019.3169742999999,None,,,,,,,,,,,,,,,,,bureau,115,49,sing,new,null,1016.6475241999997,None,1016.6475241999997,None,1,1.5858828999998877,1016.6475241999997,None,1.5858828999998877,1018.2508491999997,None,1018.7662725,None,1018.7662725,None,n,0.5312261999997645,1018.7662725,None,0.5312261999997645,,,139Sing,001,2023_Oct_27_1306,ProdSingRedoBetween,2021.2.3,59.98461994362985,
,,,,49,0,49,0,,,,,,,,,,,,,,,,,,,,,,1022.4364446,None,,,,,,,,,,,,,,,,,employment,34,50,sing,old,blue,1019.8212619999995,None,1019.8212619999995,None,6,1.4761812999995527,1019.8212619999995,None,1.4761812999995527,1021.3187750999996,None,1021.8195262999998,None,1021.8195262999998,None,r,0.597873200000322,1021.8195262999998,None,0.597873200000322,,,139Sing,001,2023_Oct_27_1306,ProdSingRedoBetween,2021.2.3,59.98461994362985,
,,,,50,0,50,0,,,,,,,,,,,,,,,,,,,,,,1025.5396998999995,None,,,,,,,,,,,,,,,,,bicycle,158,51,sing,new,null,1022.9371847999992,None,1022.9371847999992,None,1,1.544234800000595,1022.9371847999992,None,1.544234800000595,1024.5078784999996,None,1025.0224448999998,None,1025.0224448999998,None,n,0.4990728000002491,1025.0224448999998,None,0.4990728000002491,,,139Sing,001,2023_Oct_27_1306,ProdSingRedoBetween,2021.2.3,59.98461994362985,
,,,,51,0,51,0,,,,,,,,,,,,,,,,,,,,,,1029.1598093999992,None,,,,,,,,,,,,,,,,,literature,24,52,sing,old,yellow,1026.0401611999996,None,1026.0401611999996,None,6,1.5772332999995342,1026.0401611999996,None,1.5772332999995342,1027.6446326999994,None,1028.1588861999999,None,1028.1588861999999,None,r,0.9785719999999856,1028.1588861999999,None,0.9785719999999856,,,139Sing,001,2023_Oct_27_1306,ProdSingRedoBetween,2021.2.3,59.98461994362985,
,,,,52,0,52,0,,,,,,,,,,,,,,,,,,,,,,1035.5328375999998,None,,,,,,,,,,,,,,,,,place,107,53,sing,new,null,1029.6626291999992,None,1029.6626291999992,None,2,1.2348446000005424,1029.6626291999992,None,1.2348446000005424,1030.9293027999993,None,1031.4286794999998,None,1031.4286794999998,None,n,4.076668800000334,1031.4286794999998,None,4.076668800000334,,,139Sing,001,2023_Oct_27_1306,ProdSingRedoBetween,2021.2.3,59.98461994362985,
,,,,53,0,53,0,,,,,,,,,,,,,,,,,,,,,,1038.9865229999996,None,,,,,,,,,,,,,,,,,background,153,54,sing,new,null,1036.0350128999999,None,1036.0350128999999,None,2,1.6223629999994955,1036.0350128999999,None,1.6223629999994955,1037.7084013999993,None,1038.2186272999998,None,1038.2186272999998,None,n,0.7429165000003195,1038.2186272999998,None,0.7429165000003195,,,139Sing,001,2023_Oct_27_1306,ProdSingRedoBetween,2021.2.3,59.98461994362985,
,,,,54,0,54,0,,,,,,,,,,,,,,,,,,,,,,1042.0394130999994,None,,,,,,,,,,,,,,,,,sound,168,55,sing,new,null,1039.4867875,None,1039.4867875,None,1,1.6346209000003,1039.4867875,None,1.6346209000003,1041.1396591999992,None,1041.6392121999997,None,1041.6392121999997,None,n,0.37826119999954244,1041.6392121999997,None,0.37826119999954244,,,139Sing,001,2023_Oct_27_1306,ProdSingRedoBetween,2021.2.3,59.98461994362985,
,,,,55,0,55,0,,,,,,,,,,,,,,,,,,,,,,1045.8428611999998,None,,,,,,,,,,,,,,,,,treatment,152,56,sing,new,null,1042.5414681999991,None,1042.5414681999991,None,5,1.6359142999999676,1042.5414681999991,None,1.6359142999999676,1044.2129680999997,None,1044.7256005,None,1044.7256005,None,f,1.0918798000002425,1044.7256005,None,1.0918798000002425,,,139Sing,001,2023_Oct_27_1306,ProdSingRedoBetween,2021.2.3,59.98461994362985,
,,,,56,0,56,0,,,,,,,,,,,,,,,,,,,,,,1049.1305704999995,None,,,,,,,,,,,,,,,,,broad,102,57,sing,new,null,1046.3437834999995,None,1046.3437834999995,None,5,1.545640000000276,1046.3437834999995,None,1.545640000000276,1047.9141618999993,None,1048.4290617999995,None,1048.4290617999995,None,f,0.6844387000001007,1048.4290617999995,None,0.6844387000001007,,,139Sing,001,2023_Oct_27_1306,ProdSingRedoBetween,2021.2.3,59.98461994362985,
,,,,57,0,57,0,,,,,,,,,,,,,,,,,,,,,,1052.8030935999996,None,,,,,,,,,,,,,,,,,foundation,155,58,sing,new,null,1049.6309300999992,None,1049.6309300999992,None,5,1.530550399999811,1049.6309300999992,None,1.530550399999811,1051.1829484,None,1051.6822140999993,None,1051.6822140999993,None,r,1.0871860999995988,1051.6822140999993,None,1.0871860999995988,,,139Sing,001,2023_Oct_27_1306,ProdSingRedoBetween,2021.2.3,59.98461994362985,
,,,,58,0,58,0,,,,,,,,,,,,,,,,,,,,,,1060.5411326999993,None,,,,,,,,,,,,,,,,,height,37,59,sing,old,blue,1053.3174638,None,1053.3174638,None,4,5.419900699999744,1053.3174638,None,5.419900699999744,1058.7606069999993,None,1059.2734471999993,None,1059.2734471999993,None,f,1.2479742999994414,1059.2734471999993,None,1.2479742999994414,,,139Sing,001,2023_Oct_27_1306,ProdSingRedoBetween,2021.2.3,59.98461994362985,
,,,,59,0,59,0,,,,,,,,,,,,,,,,,,,,,,1063.9967428999998,None,,,,,,,,,,,,,,,,,frank,62,60,sing,old,red,1061.0437941999999,None,1061.0437941999999,None,4,1.933629099999962,1061.0437941999999,None,1.933629099999962,1062.9979022999996,None,1063.5109070999997,None,1063.5109070999997,None,f,0.466705799999545,1063.5109070999997,None,0.466705799999545,,,139Sing,001,2023_Oct_27_1306,ProdSingRedoBetween,2021.2.3,59.98461994362985,
,,,,60,0,60,0,,,,,,,,,,,,,,,,,,,,,,1070.0839116999996,None,,,,,,,,,,,,,,,,,spoke,47,61,sing,old,blue,1064.5118055999992,None,1064.5118055999992,None,4,3.8575310999995054,1064.5118055999992,None,3.8575310999995054,1068.4024854999998,None,1068.9162964999996,None,1068.9162964999996,None,f,1.1490697999997792,1068.9162964999996,None,1.1490697999997792,,,139Sing,001,2023_Oct_27_1306,ProdSingRedoBetween,2021.2.3,59.98461994362985,
,,,,61,0,61,0,,,,,,,,,,,,,,,,,,,,,,1072.9055208999998,None,,,,,,,,,,,,,,,,,safety,120,62,sing,new,null,1070.5846231999994,None,1070.5846231999994,None,2,1.3849177000001873,1070.5846231999994,None,1.3849177000001873,1071.9872518999991,None,1072.4866914999993,None,1072.4866914999993,None,n,0.38671330000033777,1072.4866914999993,None,0.38671330000033777,,,139Sing,001,2023_Oct_27_1306,ProdSingRedoBetween,2021.2.3,59.98461994362985,
,,,,62,0,62,0,,,,,,,,,,,,,,,,,,,,,,1076.7407365999998,None,,,,,,,,,,,,,,,,,signal,33,63,sing,old,blue,1073.4210128999994,None,1073.4210128999994,None,2,1.2523647999996683,1073.4210128999994,None,1.2523647999996683,1074.6887093999994,None,1075.1894869999996,None,1075.1894869999996,None,n,1.5321126999997432,1075.1894869999996,None,1.5321126999997432,,,139Sing,001,2023_Oct_27_1306,ProdSingRedoBetween,2021.2.3,59.98461994362985,
,,,,63,0,63,0,,,,,,,,,,,,,,,,,,,,,,1079.9270922999995,None,,,,,,,,,,,,,,,,,display,36,64,sing,old,blue,1077.2412373999996,None,1077.2412373999996,None,4,1.4721178999998301,1077.2412373999996,None,1.4721178999998301,1078.7465635999997,None,1079.2602650999997,None,1079.2602650999997,None,f,0.6450623000000633,1079.2602650999997,None,0.6450623000000633,,,139Sing,001,2023_Oct_27_1306,ProdSingRedoBetween,2021.2.3,59.98461994362985,
,,,,64,0,64,0,,,,,,,,,,,,,,,,,,,,,,1084.0815561,None,,,,,,,,,,,,,,,,,religion,169,65,sing,new,null,1080.428669,None,1080.428669,None,3,1.9807857999994667,1080.428669,None,1.9807857999994667,1082.4296435999995,None,1082.9306305,None,1082.9306305,None,n,1.134706499999993,1082.9306305,None,1.134706499999993,,,139Sing,001,2023_Oct_27_1306,ProdSingRedoBetween,2021.2.3,59.98461994362985,
,,,,65,0,65,0,,,,,,,,,,,,,,,,,,,,,,1087.7013429999997,None,,,,,,,,,,,,,,,,,brilliant,167,66,sing,new,null,1084.5818880999996,None,1084.5818880999996,None,3,1.8114627000004475,1084.5818880999996,None,1.8114627000004475,1086.4171516999995,None,1086.9176175999992,None,1086.9176175999992,None,n,0.7557192999993276,1086.9176175999992,None,0.7557192999993276,,,139Sing,001,2023_Oct_27_1306,ProdSingRedoBetween,2021.2.3,59.98461994362985,
,,,,66,0,66,0,,,,,,,,,,,,,,,,,,,,,,1092.3730421,None,,,,,,,,,,,,,,,,,measure,30,67,sing,old,blue,1088.2022858,None,1088.2022858,None,4,3.054998099999466,1088.2022858,None,3.054998099999466,1091.2886086999997,None,1091.7904994,None,1091.7904994,None,f,0.5628529000005074,1091.7904994,None,0.5628529000005074,,,139Sing,001,2023_Oct_27_1306,ProdSingRedoBetween,2021.2.3,59.98461994362985,
,,,,67,0,67,0,,,,,,,,,,,,,,,,,,,,,,1094.8764965,None,,,,,,,,,,,,,,,,,drama,156,68,sing,new,null,1092.8736040999993,None,1092.8736040999993,None,1,1.4077556000002005,1092.8736040999993,None,1.4077556000002005,1094.3110113999992,None,1094.8255593999993,None,1094.8255593999993,None,n,0.03188869999939925,1094.8255593999993,None,0.03188869999939925,,,139Sing,001,2023_Oct_27_1306,ProdSingRedoBetween,2021.2.3,59.98461994362985,
,,,,68,0,68,0,,,,,,,,,,,,,,,,,,,,,,1101.0149284999998,None,,,,,,,,,,,,,,,,,cover,143,69,sing,new,null,1095.3758172999997,None,1095.3758172999997,None,5,3.953552099999797,1095.3758172999997,None,3.953552099999797,1099.3465244999998,None,1099.8472521999993,None,1099.8472521999993,None,f,1.1463911000000735,1099.8472521999993,None,1.1463911000000735,,,139Sing,001,2023_Oct_27_1306,ProdSingRedoBetween,2021.2.3,59.98461994362985,
,,,,69,0,69,0,,,,,,,,,,,,,,,,,,,,,,1105.3523906,None,,,,,,,,,,,,,,,,,passage,112,70,sing,new,null,1101.5174975999998,None,1101.5174975999998,None,4,2.1718276999999944,1101.5174975999998,None,2.1718276999999944,1103.7208685999994,None,1104.2349457999999,None,1104.2349457999999,None,f,1.1024665999993886,1104.2349457999999,None,1.1024665999993886,,,139Sing,001,2023_Oct_27_1306,ProdSingRedoBetween,2021.2.3,59.98461994362985,
,,,,70,0,70,0,,,,,,,,,,,,,,,,,,,,,,1108.9726849999997,None,,,,,,,,,,,,,,,,,portion,99,71,sing,new,null,1105.8565345999996,None,1105.8565345999996,None,4,1.792771499999617,1105.8565345999996,None,1.792771499999617,1107.6755779999994,None,1108.1890789,None,1108.1890789,None,f,0.7642799000004743,1108.1890789,None,0.7642799000004743,,,139Sing,001,2023_Oct_27_1306,ProdSingRedoBetween,2021.2.3,59.98461994362985,
,,,,71,0,71,0,,,,,,,,,,,,,,,,,,,,,,1112.2765849999996,None,,,,,,,,,,,,,,,,,education,50,72,sing,old,blue,1109.4738459,None,1109.4738459,None,6,1.4157870999997613,1109.4738459,None,1.4157870999997613,1110.9152191999992,None,1111.4252668999998,None,1111.4252668999998,None,r,0.8240175000000818,1111.4252668999998,None,0.8240175000000818,,,139Sing,001,2023_Oct_27_1306,ProdSingRedoBetween,2021.2.3,59.98461994362985,
,,,,72,0,72,0,,,,,,,,,,,,,,,,,,,,,,1119.9183090999995,None,,,,,,,,,,,,,,,,,judge,57,73,sing,old,blue,1112.7796841999998,None,1112.7796841999998,None,4,6.173594500000036,1112.7796841999998,None,6.173594500000036,1118.9858935999991,None,1119.4999681999998,None,1119.4999681999998,None,f,0.39744139999947947,1119.4999681999998,None,0.39744139999947947,,,139Sing,001,2023_Oct_27_1306,ProdSingRedoBetween,2021.2.3,59.98461994362985,
,,,,73,0,73,0,,,,,,,,,,,,,,,,,,,,,,1123.7878980999994,None,,,,,,,,,,,,,,,,,school,139,74,sing,new,null,1120.4176851999991,None,1120.4176851999991,None,4,1.8476595000001907,1120.4176851999991,None,1.8476595000001907,1122.2887283999999,None,1122.803363,None,1122.803363,None,f,0.9580159999995885,1122.803363,None,0.9580159999995885,,,139Sing,001,2023_Oct_27_1306,ProdSingRedoBetween,2021.2.3,59.98461994362985,
,,,,74,0,74,0,,,,,,,,,,,,,,,,,,,,,,1126.6413882999996,None,,,,,,,,,,,,,,,,,collection,128,75,sing,new,null,1124.2880957999996,None,1124.2880957999996,None,4,1.3851581999997507,1124.2880957999996,None,1.3851581999997507,1125.6893121999992,None,1126.1902457999995,None,1126.1902457999995,None,f,0.42710209999950166,1126.1902457999995,None,0.42710209999950166,,,139Sing,001,2023_Oct_27_1306,ProdSingRedoBetween,2021.2.3,59.98461994362985,
,,,,75,0,75,0,,,,,,,,,,,,,,,,,,,,,,1131.1950598999993,None,,,,,,,,,,,,,,,,,bucket,148,76,sing,new,null,1127.1461566999997,None,1127.1461566999997,None,2,2.6073742999997194,1127.1461566999997,None,2.6073742999997194,1129.7840460999996,None,1130.2943030999995,None,1130.2943030999995,None,n,0.8749981999999363,1130.2943030999995,None,0.8749981999999363,,,139Sing,001,2023_Oct_27_1306,ProdSingRedoBetween,2021.2.3,59.98461994362985,
,,,,76,0,76,0,,,,,,,,,,,,,,,,,,,,,,1134.4663941999997,None,,,,,,,,,,,,,,,,,dream,80,77,sing,old,red,1131.6958965999993,None,1131.6958965999993,None,4,1.6894098000002487,1131.6958965999993,None,1.6894098000002487,1133.4173369999999,None,1133.9313667999995,None,1133.9313667999995,None,f,0.5181790999995428,1133.9313667999995,None,0.5181790999995428,,,139Sing,001,2023_Oct_27_1306,ProdSingRedoBetween,2021.2.3,59.98461994362985,
,,,,77,0,77,0,,,,,,,,,,,,,,,,,,,,,,1139.7867042999997,None,,,,,,,,,,,,,,,,,nation,98,78,sing,new,null,1134.9820382999997,None,1134.9820382999997,None,5,2.1872215000003052,1134.9820382999997,None,2.1872215000003052,1137.2009951999999,None,1137.7014430999998,None,1137.7014430999998,None,r,2.067977900000187,1137.7014430999998,None,2.067977900000187,,,139Sing,001,2023_Oct_27_1306,ProdSingRedoBetween,2021.2.3,59.98461994362985,
,,,,78,0,78,0,,,,,,,,,,,,,,,,,,,,,,1142.5565987999998,None,,,,,,,,,,,,,,,,,department,71,79,sing,old,red,1140.2888463,None,1140.2888463,None,6,1.2326081999999587,1140.2888463,None,1.2326081999999587,1141.5392010999994,None,1142.0393888999997,None,1142.0393888999997,None,r,0.4979269999994358,1142.0393888999997,None,0.4979269999994358,,,139Sing,001,2023_Oct_27_1306,ProdSingRedoBetween,2021.2.3,59.98461994362985,
,,,,79,0,79,0,,,,,,,,,,,,,,,,,,,,,,1146.9272394999998,None,,,,,,,,,,,,,,,,,quantity,149,80,sing,new,null,1143.0583809999998,None,1143.0583809999998,None,4,2.0868468999997276,1143.0583809999998,None,2.0868468999997276,1145.1806915999996,None,1145.6940693999995,None,1145.6940693999995,None,f,1.2033668000003672,1145.6940693999995,None,1.2033668000003672,,,139Sing,001,2023_Oct_27_1306,ProdSingRedoBetween,2021.2.3,59.98461994362985,
,,,,80,0,80,0,,,,,,,,,,,,,,,,,,,,,,1150.9648693999998,None,,,,,,,,,,,,,,,,,concern,66,81,sing,old,red,1147.4284408999993,None,1147.4284408999993,None,6,2.348843599999782,1147.4284408999993,None,2.348843599999782,1149.7971140999998,None,1150.2977710999994,None,1150.2977710999994,None,r,0.6474117999996452,1150.2977710999994,None,0.6474117999996452,,,139Sing,001,2023_Oct_27_1306,ProdSingRedoBetween,2021.2.3,59.98461994362985,
,,,,81,0,81,0,,,,,,,,,,,,,,,,,,,,,,1157.2877384999993,None,,,,,,,,,,,,,,,,,voice,109,82,sing,new,null,1151.4661441999997,None,1151.4661441999997,None,2,2.6792913999997836,1151.4661441999997,None,2.6792913999997836,1154.1705339,None,1154.6851933999997,None,1154.6851933999997,None,n,2.572049700000207,1154.6851933999997,None,2.572049700000207,,,139Sing,001,2023_Oct_27_1306,ProdSingRedoBetween,2021.2.3,59.98461994362985,
,,,,82,0,82,0,,,,,,,,,,,,,,,,,,,,,,1161.4416819999997,None,,,,,,,,,,,,,,,,,republic,144,83,sing,new,null,1157.7881411999997,None,1157.7881411999997,None,5,2.349085300000297,1157.7881411999997,None,2.349085300000297,1160.1606250999994,None,1160.6745551999993,None,1160.6745551999993,None,f,0.7426943000000392,1160.6745551999993,None,0.7426943000000392,,,139Sing,001,2023_Oct_27_1306,ProdSingRedoBetween,2021.2.3,59.98461994362985,
,,,,83,0,83,0,,,,,,,,,,,,,,,,,,,,,,1166.1130184999993,None,,,,,,,,,,,,,,,,,chief,174,84,sing,new,null,1161.9437727999994,None,1161.9437727999994,None,3,2.67346759999964,1161.9437727999994,None,2.67346759999964,1164.6451590999995,None,1165.1456626999998,None,1165.1456626999998,None,n,0.9516359999997803,1165.1456626999998,None,0.9516359999997803,,,139Sing,001,2023_Oct_27_1306,ProdSingRedoBetween,2021.2.3,59.98461994362985,
,,,,84,0,84,0,,,,,,,,,,,,,,,,,,,,,,1170.0338925999995,None,,,,,,,,,,,,,,,,,track,165,85,sing,new,null,1166.6138587999994,None,1166.6138587999994,None,4,1.8754936999994243,1166.6138587999994,None,1.8754936999994243,1168.5166421999993,None,1169.0161934999996,None,1169.0161934999996,None,f,0.9931716000000961,1169.0161934999996,None,0.9931716000000961,,,139Sing,001,2023_Oct_27_1306,ProdSingRedoBetween,2021.2.3,59.98461994362985,
,,,,85,0,85,0,,,,,,,,,,,,,,,,,,,,,,1173.8209068999995,None,,,,,,,,,,,,,,,,,couch,118,86,sing,new,null,1170.5345939999997,None,1170.5345939999997,None,2,1.7388701999998375,1170.5345939999997,None,1.7388701999998375,1172.3027945999993,None,1172.8031207999993,None,1172.8031207999993,None,n,0.9981062999995629,1172.8031207999993,None,0.9981062999995629,,,139Sing,001,2023_Oct_27_1306,ProdSingRedoBetween,2021.2.3,59.98461994362985,
,,,,86,0,86,0,,,,,,,,,,,,,,,,,,,,,,1176.7907908999996,None,,,,,,,,,,,,,,,,,company,95,87,sing,new,null,1174.3239704999996,None,1174.3239704999996,None,5,1.3492401000003156,1174.3239704999996,None,1.3492401000003156,1175.6909471,None,1176.1925118999998,None,1176.1925118999998,None,f,0.5766929000001255,1176.1925118999998,None,0.5766929000001255,,,139Sing,001,2023_Oct_27_1306,ProdSingRedoBetween,2021.2.3,59.98461994362985,
,,,,87,0,87,0,,,,,,,,,,,,,,,,,,,,,,1181.0279961999995,None,,,,,,,,,,,,,,,,,dance,105,88,sing,new,null,1177.2921594,None,1177.2921594,None,4,2.1890439999997398,1177.2921594,None,2.1890439999997398,1179.5139473,None,1180.0274547999998,None,1180.0274547999998,None,f,0.9738373000000138,1180.0274547999998,None,0.9738373000000138,,,139Sing,001,2023_Oct_27_1306,ProdSingRedoBetween,2021.2.3,59.98461994362985,
,,,,88,0,88,0,,,,,,,,,,,,,,,,,,,,,,1185.6489272999997,None,,,,,,,,,,,,,,,,,running,82,89,sing,old,red,1181.5299263999996,None,1181.5299263999996,None,5,1.9834353999995074,1181.5299263999996,None,1.9834353999995074,1183.5304645999995,None,1184.0314758999994,None,1184.0314758999994,None,r,1.6018388000002233,1184.0314758999994,None,1.6018388000002233,,,139Sing,001,2023_Oct_27_1306,ProdSingRedoBetween,2021.2.3,59.98461994362985,
,,,,89,0,89,0,,,,,,,,,,,,,,,,,,,,,,1189.7033862999997,None,,,,,,,,,,,,,,,,,husband,17,90,sing,old,yellow,1186.1500811999995,None,1186.1500811999995,None,6,1.5151796999998624,1186.1500811999995,None,1.5151796999998624,1187.6890424999992,None,1188.2042918999996,None,1188.2042918999996,None,r,1.476948700000321,1188.2042918999996,None,1.476948700000321,,,139Sing,001,2023_Oct_27_1306,ProdSingRedoBetween,2021.2.3,59.98461994362985,
,,,,90,0,90,0,,,,,,,,,,,,,,,,,,,,,,1193.5105086999993,None,,,,,,,,,,,,,,,,,agency,179,91,sing,new,null,1190.2059327999996,None,1190.2059327999996,None,3,1.547389800000019,1190.2059327999996,None,1.547389800000019,1191.7725273999995,None,1192.2728815,None,1192.2728815,None,n,1.2084560000002966,1192.2728815,None,1.2084560000002966,,,139Sing,001,2023_Oct_27_1306,ProdSingRedoBetween,2021.2.3,59.98461994362985,
,,,,91,0,91,0,,,,,,,,,,,,,,,,,,,,,,1197.2954114999993,None,,,,,,,,,,,,,,,,,present,79,92,sing,old,red,1194.0252730999991,None,1194.0252730999991,None,6,1.6559355999997933,1194.0252730999991,None,1.6559355999997933,1195.7114440999994,None,1196.2265900999992,None,1196.2265900999992,None,r,1.0466397000000143,1196.2265900999992,None,1.0466397000000143,,,139Sing,001,2023_Oct_27_1306,ProdSingRedoBetween,2021.2.3,59.98461994362985,
,,,,92,0,92,0,,,,,,,,,,,,,,,,,,,,,,1200.5995656999994,None,,,,,,,,,,,,,,,,,service,9,93,sing,old,yellow,1197.7994924999994,None,1197.7994924999994,None,4,1.6097789999994347,1197.7994924999994,None,1.6097789999994347,1199.4316348999992,None,1199.9470585999998,None,1199.9470585999998,None,f,0.6302193000001353,1199.9470585999998,None,0.6302193000001353,,,139Sing,001,2023_Oct_27_1306,ProdSingRedoBetween,2021.2.3,59.98461994362985,
,,,,93,0,93,0,,,,,,,,,,,,,,,,,,,,,,1204.2854307999996,None,,,,,,,,,,,,,,,,,color,97,94,sing,new,null,1201.1147511,None,1201.1147511,None,2,2.1025499000006675,1201.1147511,None,2.1025499000006675,1203.2356863999994,None,1203.7507157,None,1203.7507157,None,n,0.506512500000099,1203.7507157,None,0.506512500000099,,,139Sing,001,2023_Oct_27_1306,ProdSingRedoBetween,2021.2.3,59.98461994362985,
,,,,94,0,94,0,,,,,,,,,,,,,,,,,,,,,,1207.9385619999994,None,,,,,,,,,,,,,,,,,population,81,95,sing,old,red,1204.7873584,None,1204.7873584,None,6,1.3418166000001293,1204.7873584,None,1.3418166000001293,1206.1555407999995,None,1206.6705182999995,None,1206.6705182999995,None,r,1.2507442999994964,1206.6705182999995,None,1.2507442999994964,,,139Sing,001,2023_Oct_27_1306,ProdSingRedoBetween,2021.2.3,59.98461994362985,
,,,,95,0,95,0,,,,,,,,,,,,,,,,,,,,,,1212.2257141999999,None,,,,,,,,,,,,,,,,,notice,88,96,sing,old,red,1208.4386714999991,None,1208.4386714999991,None,4,2.2665255000001707,1208.4386714999991,None,2.2665255000001707,1210.7288988999999,None,1211.2416742999994,None,1211.2416742999994,None,f,0.9595600000002378,1211.2416742999994,None,0.9595600000002378,,,139Sing,001,2023_Oct_27_1306,ProdSingRedoBetween,2021.2.3,59.98461994362985,
,,,,96,0,96,0,,,,,,,,,,,,,,,,,,,,,,1216.2298280999994,None,,,,,,,,,,,,,,,,,instrument,151,97,sing,new,null,1212.7262874999997,None,1212.7262874999997,None,5,1.6830669000000853,1212.7262874999997,None,1.6830669000000853,1214.4483256999993,None,1214.9620292999998,None,1214.9620292999998,None,f,1.2471775000003618,1214.9620292999998,None,1.2471775000003618,,,139Sing,001,2023_Oct_27_1306,ProdSingRedoBetween,2021.2.3,59.98461994362985,
,,,,97,0,97,0,,,,,,,,,,,,,,,,,,,,,,1219.6497384999993,None,,,,,,,,,,,,,,,,,rapid,119,98,sing,new,null,1216.7312374999992,None,1216.7312374999992,None,3,1.789929800000209,1216.7312374999992,None,1.789929800000209,1218.5499934,None,1219.0578563999998,None,1219.0578563999998,None,n,0.5754293999998481,1219.0578563999998,None,0.5754293999998481,,,139Sing,001,2023_Oct_27_1306,ProdSingRedoBetween,2021.2.3,59.98461994362985,
,,,,98,0,98,0,,,,,,,,,,,,,,,,,,,,,,1224.2212330999992,None,,,,,,,,,,,,,,,,,meeting,173,99,sing,new,null,1220.1506158999991,None,1220.1506158999991,None,4,1.9946920000002137,1220.1506158999991,None,1.9946920000002137,1222.1740733999995,None,1222.687019,None,1222.687019,None,f,1.5141696999999112,1222.687019,None,1.5141696999999112,,,139Sing,001,2023_Oct_27_1306,ProdSingRedoBetween,2021.2.3,59.98461994362985,
,,,,99,0,99,0,,,,,,,,,,,,,,,,,,,,,,1228.0750118999995,None,,,,,,,,,,,,,,,,,review,0,100,sing,old,yellow,1224.7226486,None,1224.7226486,None,5,2.2547617000000173,1224.7226486,None,2.2547617000000173,1227.0164842999993,None,1227.5244890999993,None,1227.5244890999993,None,f,0.5327994999997827,1227.5244890999993,None,0.5327994999997827,,,139Sing,001,2023_Oct_27_1306,ProdSingRedoBetween,2021.2.3,59.98461994362985,
,,,,100,0,100,0,,,,,,,,,,,,,,,,,,,,,,1234.8985887999997,None,,,,,,,,,,,,,,,,,volume,19,101,sing,old,yellow,1228.5769624999994,None,1228.5769624999994,None,3,4.152275600000394,1228.5769624999994,None,4.152275600000394,1232.7479850999998,None,1233.2475087999992,None,1233.2475087999992,None,f,1.6256990000001679,1233.2475087999992,None,1.6256990000001679,,,139Sing,001,2023_Oct_27_1306,ProdSingRedoBetween,2021.2.3,59.98461994362985,
,,,,101,0,101,0,,,,,,,,,,,,,,,,,,,,,,1238.1848559999999,None,,,,,,,,,,,,,,,,,scene,141,102,sing,new,null,1235.3992587999992,None,1235.3992587999992,None,2,1.8660261000004539,1235.3992587999992,None,1.8660261000004539,1237.2851188999994,None,1237.7846313999999,None,1237.7846313999999,None,n,0.37657969999963825,1237.7846313999999,None,0.37657969999963825,,,139Sing,001,2023_Oct_27_1306,ProdSingRedoBetween,2021.2.3,59.98461994362985,
,,,,102,0,102,0,,,,,,,,,,,,,,,,,,,,,,1242.0220248999995,None,,,,,,,,,,,,,,,,,report,49,103,sing,old,blue,1238.6856703999993,None,1238.6856703999993,None,5,1.6115472999999838,1238.6856703999993,None,1.6115472999999838,1240.3261637999994,None,1240.8379204999992,None,1240.8379204999992,None,f,1.155316800000037,1240.8379204999992,None,1.155316800000037,,,139Sing,001,2023_Oct_27_1306,ProdSingRedoBetween,2021.2.3,59.98461994362985,
,,,,103,0,103,0,,,,,,,,,,,,,,,,,,,,,,1246.1608443999994,None,,,,,,,,,,,,,,,,,hunger,160,104,sing,new,null,1242.5225768999999,None,1242.5225768999999,None,2,2.0225849000007656,1242.5225768999999,None,2.0225849000007656,1244.5814738999998,None,1245.0920505999993,None,1245.0920505999993,None,n,1.0372057000004133,1245.0920505999993,None,1.0372057000004133,,,139Sing,001,2023_Oct_27_1306,ProdSingRedoBetween,2021.2.3,59.98461994362985,
,,,,104,0,104,0,,,,,,,,,,,,,,,,,,,,,,1250.7808529999993,None,,,,,,,,,,,,,,,,,silence,46,105,sing,old,blue,1246.6605993999992,None,1246.6605993999992,None,2,2.7245394000001397,1246.6605993999992,None,2.7245394000001397,1249.4255846999995,None,1249.930206,None,1249.930206,None,n,0.8310062000000471,1249.930206,None,0.8310062000000471,,,139Sing,001,2023_Oct_27_1306,ProdSingRedoBetween,2021.2.3,59.98461994362985,
,,,,105,0,105,0,,,,,,,,,,,,,,,,,,,,,,1257.0050664,None,,,,,,,,,,,,,,,,,expansion,147,106,sing,new,null,1251.281462,None,1251.281462,None,4,3.7436567999993713,1251.281462,None,3.7436567999993713,1255.0569176999998,None,1255.5690752,None,1255.5690752,None,f,1.4161621000002924,1255.5690752,None,1.4161621000002924,,,139Sing,001,2023_Oct_27_1306,ProdSingRedoBetween,2021.2.3,59.98461994362985,
,,,,106,0,106,0,,,,,,,,,,,,,,,,,,,,,,1261.3934571999998,None,,,,,,,,,,,,,,,,,solution,5,107,sing,old,yellow,1257.5047468999992,None,1257.5047468999992,None,5,1.424600699999246,1257.5047468999992,None,1.424600699999246,1258.9592872999992,None,1259.4731401999998,None,1259.4731401999998,None,f,1.887974100000065,1259.4731401999998,None,1.887974100000065,,,139Sing,001,2023_Oct_27_1306,ProdSingRedoBetween,2021.2.3,59.98461994362985,
,,,,107,0,107,0,,,,,,,,,,,,,,,,,,,,,,1265.0117172,None,,,,,,,,,,,,,,,,,center,177,108,sing,new,null,1261.9091457999994,None,1261.9091457999994,None,3,1.6281861999996181,1261.9091457999994,None,1.6281861999996181,1263.5618886999991,None,1264.0775590999992,None,1264.0775590999992,None,n,0.9156484000004639,1264.0775590999992,None,0.9156484000004639,,,139Sing,001,2023_Oct_27_1306,ProdSingRedoBetween,2021.2.3,59.98461994362985,
,,,,108,0,108,0,,,,,,,,,,,,,,,,,,,,,,1268.5326763999992,None,,,,,,,,,,,,,,,,,danger,175,109,sing,new,null,1265.5127911999998,None,1265.5127911999998,None,2,1.9124273999996149,1265.5127911999998,None,1.9124273999996149,1267.4476833999997,None,1267.9481987,None,1267.9481987,None,n,0.5569280999998227,1267.9481987,None,0.5569280999998227,,,139Sing,001,2023_Oct_27_1306,ProdSingRedoBetween,2021.2.3,59.98461994362985,
,,,,109,0,109,0,,,,,,,,,,,,,,,,,,,,,,1271.76926,None,,,,,,,,,,,,,,,,,write,150,110,sing,new,null,1269.0326136999993,None,1269.0326136999993,None,1,1.752557899999374,1269.0326136999993,None,1.752557899999374,1270.8037006999994,None,1271.3182376999994,None,1271.3182376999994,None,n,0.434854400000404,1271.3182376999994,None,0.434854400000404,,,139Sing,001,2023_Oct_27_1306,ProdSingRedoBetween,2021.2.3,59.98461994362985,
,,,,110,0,110,0,,,,,,,,,,,,,,,,,,,,,,1275.3896417999995,None,,,,,,,,,,,,,,,,,edition,96,111,sing,new,null,1272.2715012999997,None,1272.2715012999997,None,1,1.9296522000004188,1272.2715012999997,None,1.9296522000004188,1274.2218901999995,None,1274.7257880999996,None,1274.7257880999996,None,n,0.6433199000002787,1274.7257880999996,None,0.6433199000002787,,,139Sing,001,2023_Oct_27_1306,ProdSingRedoBetween,2021.2.3,59.98461994362985,
,,,,111,0,111,0,,,,,,,,,,,,,,,,,,,,,,1278.1418046999997,None,,,,,,,,,,,,,,,,,minute,38,112,sing,old,blue,1275.8899972999998,None,1275.8899972999998,None,1,1.2151380999994217,1275.8899972999998,None,1.2151380999994217,1277.1261370999991,None,1277.6413635999997,None,1277.6413635999997,None,n,0.47174939999968046,1277.6413635999997,None,0.47174939999968046,,,139Sing,001,2023_Oct_27_1306,ProdSingRedoBetween,2021.2.3,59.98461994362985,
,,,,112,0,112,0,,,,,,,,,,,,,,,,,,,,,,1282.4960931999995,None,,,,,,,,,,,,,,,,,distance,117,113,sing,new,null,1278.6440660999997,None,1278.6440660999997,None,4,2.2210698999997476,1278.6440660999997,None,2.2210698999997476,1280.8942823999996,None,1281.3947978999995,None,1281.3947978999995,None,f,1.0863228999996863,1281.3947978999995,None,1.0863228999996863,,,139Sing,001,2023_Oct_27_1306,ProdSingRedoBetween,2021.2.3,59.98461994362985,
,,,,113,0,113,0,,,,,,,,,,,,,,,,,,,,,,1285.4324641999992,None,,,,,,,,,,,,,,,,,bright,123,114,sing,new,null,1282.9964670999998,None,1282.9964670999998,None,2,1.4926549000001614,1282.9964670999998,None,1.4926549000001614,1284.5181789999997,None,1285.0322327999993,None,1285.0322327999993,None,n,0.3688908000003721,1285.0322327999993,None,0.3688908000003721,,,139Sing,001,2023_Oct_27_1306,ProdSingRedoBetween,2021.2.3,59.98461994362985,
,,,,114,0,114,0,,,,,,,,,,,,,,,,,,,,,,1288.969314,None,,,,,,,,,,,,,,,,,second,127,115,sing,new,null,1285.9326937999995,None,1285.9326937999995,None,2,2.0924676000004183,1285.9326937999995,None,2.0924676000004183,1288.0546978999992,None,1288.5688596999998,None,1288.5688596999998,None,n,0.3842844000000696,1288.5688596999998,None,0.3842844000000696,,,139Sing,001,2023_Oct_27_1306,ProdSingRedoBetween,2021.2.3,59.98461994362985,
,,,,115,0,115,0,,,,,,,,,,,,,,,,,,,,,,1292.8234067999992,None,,,,,,,,,,,,,,,,,empty,53,116,sing,old,blue,1289.4699162999996,None,1289.4699162999996,None,2,2.011261000000559,1289.4699162999996,None,2.011261000000559,1291.5071507999992,None,1292.0220626,None,1292.0220626,None,n,0.7790383999999904,1292.0220626,None,0.7790383999999904,,,139Sing,001,2023_Oct_27_1306,ProdSingRedoBetween,2021.2.3,59.98461994362985,
,,,,116,0,116,0,,,,,,,,,,,,,,,,,,,,,,1296.9605091999993,None,,,,,,,,,,,,,,,,,throw,14,117,sing,old,yellow,1293.3235568,None,1293.3235568,None,5,2.5656834000001254,1293.3235568,None,2.5656834000001254,1295.9098804999994,None,1296.4101279999995,None,1296.4101279999995,None,f,0.534993499999473,1296.4101279999995,None,0.534993499999473,,,139Sing,001,2023_Oct_27_1306,ProdSingRedoBetween,2021.2.3,59.98461994362985,
,,,,117,0,117,0,,,,,,,,,,,,,,,,,,,,,,1300.6976230999999,None,,,,,,,,,,,,,,,,,native,3,118,sing,old,yellow,1297.4610897999992,None,1297.4610897999992,None,6,1.5960881000000882,1297.4610897999992,None,1.5960881000000882,1299.0835214999997,None,1299.5965497999996,None,1299.5965497999996,None,r,1.0765983000001142,1299.5965497999996,None,1.0765983000001142,,,139Sing,001,2023_Oct_27_1306,ProdSingRedoBetween,2021.2.3,59.98461994362985,
,,,,118,0,118,0,,,,,,,,,,,,,,,,,,,,,,1306.6532261999992,None,,,,,,,,,,,,,,,,,institute,25,119,sing,old,yellow,1301.1989670999992,None,1301.1989670999992,None,5,1.882155000000239,1301.1989670999992,None,1.882155000000239,1303.1014018999995,None,1303.6171498999993,None,1303.6171498999993,None,r,3.015963499999998,1303.6171498999993,None,3.015963499999998,,,139Sing,001,2023_Oct_27_1306,ProdSingRedoBetween,2021.2.3,59.98461994362985,
,,,,119,0,119,0,,,,,,,,,,,,,,,,,,,,,,1311.1413966,None,,,,,,,,,,,,,,,,,youth,10,120,sing,old,yellow,1307.1548482999997,None,1307.1548482999997,None,6,2.142257499999687,1307.1548482999997,None,2.142257499999687,1309.3265572999999,None,1309.8398174999993,None,1309.8398174999993,None,r,1.2732779999996637,1309.8398174999993,None,1.2732779999996637,,,139Sing,001,2023_Oct_27_1306,ProdSingRedoBetween,2021.2.3,59.98461994362985,
,,,,120,0,120,0,,,,,,,,,,,,,,,,,,,,,,1315.530331,None,,,,,,,,,,,,,,,,,childhood,111,121,sing,new,null,1311.6416677999996,None,1311.6416677999996,None,2,1.6314912999996523,1311.6416677999996,None,1.6314912999996523,1313.2962147999997,None,1313.8108912999996,None,1313.8108912999996,None,n,1.7024667000005138,1313.8108912999996,None,1.7024667000005138,,,139Sing,001,2023_Oct_27_1306,ProdSingRedoBetween,2021.2.3,59.98461994362985,
,,,,121,0,121,0,,,,,,,,,,,,,,,,,,,,,,1319.0488713999994,None,,,,,,,,,,,,,,,,,military,135,122,sing,new,null,1316.0295025999994,None,1316.0295025999994,None,4,1.4835948999998436,1316.0295025999994,None,1.4835948999998436,1317.5354134,None,1318.0483000999993,None,1318.0483000999993,None,f,0.9848629999996774,1318.0483000999993,None,0.9848629999996774,,,139Sing,001,2023_Oct_27_1306,ProdSingRedoBetween,2021.2.3,59.98461994362985,
,,,,122,0,122,0,,,,,,,,,,,,,,,,,,,,,,1322.9360107999992,None,,,,,,,,,,,,,,,,,election,69,123,sing,old,red,1319.5496580999998,None,1319.5496580999998,None,6,1.6755091999993965,1319.5496580999998,None,1.6755091999993965,1321.2512511999994,None,1321.7519899,None,1321.7519899,None,r,1.1690341000003173,1321.7519899,None,1.1690341000003173,,,139Sing,001,2023_Oct_27_1306,ProdSingRedoBetween,2021.2.3,59.98461994362985,
,,,,123,0,123,0,,,,,,,,,,,,,,,,,,,,,,1327.3407177999998,None,,,,,,,,,,,,,,,,,rough,114,124,sing,new,null,1323.4369036999997,None,1323.4369036999997,None,4,2.0921895999999833,1323.4369036999997,None,2.0921895999999833,1325.5565987,None,1326.0560498999994,None,1326.0560498999994,None,f,1.2650113999998212,1326.0560498999994,None,1.2650113999998212,,,139Sing,001,2023_Oct_27_1306,ProdSingRedoBetween,2021.2.3,59.98461994362985,
,,,,124,0,124,0,,,,,,,,,,,,,,,,,,,,,,1330.5603564999992,None,,,,,,,,,,,,,,,,,nature,51,125,sing,old,blue,1327.8420036999996,None,1327.8420036999996,None,5,1.3110813000002963,1327.8420036999996,None,1.3110813000002963,1329.1783854999994,None,1329.6932854999995,None,1329.6932854999995,None,f,0.8437624999996842,1329.6932854999995,None,0.8437624999996842,,,139Sing,001,2023_Oct_27_1306,ProdSingRedoBetween,2021.2.3,59.98461994362985,
,,,,125,0,125,0,,,,,,,,,,,,,,,,,,,,,,1333.8809107999996,None,,,,,,,,,,,,,,,,,crowd,56,126,sing,old,blue,1331.0610705,None,1331.0610705,None,2,1.5319800999996005,1331.0610705,None,1.5319800999996005,1332.6141140999998,None,1333.1128929999995,None,1333.1128929999995,None,n,0.744183000000703,1333.1128929999995,None,0.744183000000703,,,139Sing,001,2023_Oct_27_1306,ProdSingRedoBetween,2021.2.3,59.98461994362985,
,,,,126,0,126,0,,,,,,,,,,,,,,,,,,,,,,1337.5673711,None,,,,,,,,,,,,,,,,,vision,129,127,sing,new,null,1334.3840828999992,None,1334.3840828999992,None,4,2.04903639999975,1334.3840828999992,None,2.04903639999975,1336.4541055,None,1336.9670776999992,None,1336.9670776999992,None,f,0.5781046000001879,1336.9670776999992,None,0.5781046000001879,,,139Sing,001,2023_Oct_27_1306,ProdSingRedoBetween,2021.2.3,59.98461994362985,
,,,,127,0,127,0,,,,,,,,,,,,,,,,,,,,,,1340.6874233999997,None,,,,,,,,,,,,,,,,,plane,90,128,sing,new,null,1338.0683276,None,1338.0683276,None,1,1.612734299999829,1338.0683276,None,1.612734299999829,1339.7110991,None,1340.220402,None,1340.220402,None,n,0.4446555000004082,1340.220402,None,0.4446555000004082,,,139Sing,001,2023_Oct_27_1306,ProdSingRedoBetween,2021.2.3,59.98461994362985,
,,,,128,0,128,0,,,,,,,,,,,,,,,,,,,,,,1344.2573759999996,None,,,,,,,,,,,,,,,,,style,100,129,sing,new,null,1341.1888304999993,None,1341.1888304999993,None,2,1.9082742000000508,1341.1888304999993,None,1.9082742000000508,1343.1267134,None,1343.6404526999995,None,1343.6404526999995,None,n,0.6008056999999098,1343.6404526999995,None,0.6008056999999098,,,139Sing,001,2023_Oct_27_1306,ProdSingRedoBetween,2021.2.3,59.98461994362985,
,,,,129,0,129,0,,,,,,,,,,,,,,,,,,,,,,1349.5798914999996,None,,,,,,,,,,,,,,,,,degree,2,130,sing,old,yellow,1344.7583552999995,None,1344.7583552999995,None,5,2.282803199999762,1344.7583552999995,None,2.282803199999762,1347.0628668,None,1347.5776760999997,None,1347.5776760999997,None,r,1.9754469999998037,1347.5776760999997,None,1.9754469999998037,,,139Sing,001,2023_Oct_27_1306,ProdSingRedoBetween,2021.2.3,59.98461994362985,
,,,,130,0,130,0,,,,,,,,,,,,,,,,,,,,,,1353.1851093999994,None,,,,,,,,,,,,,,,,,universal,176,131,sing,new,null,1350.0840111999996,None,1350.0840111999996,None,3,1.5730437000001984,1350.0840111999996,None,1.5730437000001984,1351.6887852,None,1352.1989494,None,1352.1989494,None,n,0.962075299999924,1352.1989494,None,0.962075299999924,,,139Sing,001,2023_Oct_27_1306,ProdSingRedoBetween,2021.2.3,59.98461994362985,
,,,,131,0,131,0,,,,,,,,,,,,,,,,,,,,,,1358.0212514999994,None,,,,,,,,,,,,,,,,,executive,70,132,sing,old,red,1353.7028439999995,None,1353.7028439999995,None,5,3.1461719999997513,1353.7028439999995,None,3.1461719999997513,1356.8745497999998,None,1357.3875648999992,None,1357.3875648999992,None,r,0.6054523000002519,1357.3875648999992,None,0.6054523000002519,,,139Sing,001,2023_Oct_27_1306,ProdSingRedoBetween,2021.2.3,59.98461994362985,
,,,,132,0,132,0,,,,,,,,,,,,,,,,,,,,,,1363.9939187,None,,,,,,,,,,,,,,,,,individual,93,133,sing,new,null,1358.5287058999993,None,1358.5287058999993,None,5,2.9125487999999677,1358.5287058999993,None,2.9125487999999677,1361.4616361999997,None,1361.9751318999997,None,1361.9751318999997,None,f,1.9939377999999124,1361.9751318999997,None,1.9939377999999124,,,139Sing,001,2023_Oct_27_1306,ProdSingRedoBetween,2021.2.3,59.98461994362985,
,,,,133,0,133,0,,,,,,,,,,,,,,,,,,,,,,1368.5150945999994,None,,,,,,,,,,,,,,,,,country,54,134,sing,old,blue,1364.4959826999993,None,1364.4959826999993,None,3,2.801260100000036,1364.4959826999993,None,2.801260100000036,1367.3136351999992,None,1367.8148286999995,None,1367.8148286999995,None,n,0.6742183000005753,1367.8148286999995,None,0.6742183000005753,,,139Sing,001,2023_Oct_27_1306,ProdSingRedoBetween,2021.2.3,59.98461994362985,
,,,,134,0,134,0,,,,,,,,,,,,,,,,,,,,,,1373.0361985,None,,,,,,,,,,,,,,,,,raise,104,135,sing,new,null,1369.0272509999995,None,1369.0272509999995,None,4,2.501771400000507,1369.0272509999995,None,2.501771400000507,1371.5537857999998,None,1372.0687599999992,None,1372.0687599999992,None,f,0.9403170000005048,1372.0687599999992,None,0.9403170000005048,,,139Sing,001,2023_Oct_27_1306,ProdSingRedoBetween,2021.2.3,59.98461994362985,
,,,,135,0,135,0,,,,,,,,,,,,,,,,,,,,,,1376.3400401999997,None,,,,,,,,,,,,,,,,,dozen,6,136,sing,old,yellow,1373.5369112999997,None,1373.5369112999997,None,6,1.7601447000006374,1373.5369112999997,None,1.7601447000006374,1375.326682,None,1375.8392931999997,None,1375.8392931999997,None,r,0.48167130000001634,1375.8392931999997,None,0.48167130000001634,,,139Sing,001,2023_Oct_27_1306,ProdSingRedoBetween,2021.2.3,59.98461994362985,
,,,,136,0,136,0,,,,,,,,,,,,,,,,,,,,,,1379.8762671999993,None,,,,,,,,,,,,,,,,,gesture,41,137,sing,old,blue,1376.8439265999996,None,1376.8439265999996,None,3,1.6211403999996037,1376.8439265999996,None,1.6211403999996037,1378.4915421999995,None,1378.9925790999996,None,1378.9925790999996,None,n,0.8645162000002529,1378.9925790999996,None,0.8645162000002529,,,139Sing,001,2023_Oct_27_1306,ProdSingRedoBetween,2021.2.3,59.98461994362985,
,,,,137,0,137,0,,,,,,,,,,,,,,,,,,,,,,1384.0308550999998,None,,,,,,,,,,,,,,,,,medicine,52,138,sing,old,blue,1380.3774068999992,None,1380.3774068999992,None,5,2.0477013999998235,1380.3774068999992,None,2.0477013999998235,1382.4497975999993,None,1382.9630992999992,None,1382.9630992999992,None,f,1.0458920999999464,1382.9630992999992,None,1.0458920999999464,,,139Sing,001,2023_Oct_27_1306,ProdSingRedoBetween,2021.2.3,59.98461994362985,
,,,,138,0,138,0,,,,,,,,,,,,,,,,,,,,,,1387.9192745,None,,,,,,,,,,,,,,,,,light,31,139,sing,old,blue,1384.5322257999997,None,1384.5322257999997,None,2,1.9887777999992977,1384.5322257999997,None,1.9887777999992977,1386.5502038999994,None,1387.0505756999992,None,1387.0505756999992,None,n,0.8464290000001711,1387.0505756999992,None,0.8464290000001711,,,139Sing,001,2023_Oct_27_1306,ProdSingRedoBetween,2021.2.3,59.98461994362985,
,,,,139,0,139,0,,,,,,,,,,,,,,,,,,,,,,1390.9874805999998,None,,,,,,,,,,,,,,,,,stand,131,140,sing,new,null,1388.4190753999992,None,1388.4190753999992,None,1,1.5340433999999732,1388.4190753999992,None,1.5340433999999732,1389.9712013999997,None,1390.4705658999992,None,1390.4705658999992,None,n,0.49849799999992683,1390.4705658999992,None,0.49849799999992683,,,139Sing,001,2023_Oct_27_1306,ProdSingRedoBetween,2021.2.3,59.98461994362985,
,,,,140,0,140,0,,,,,,,,,,,,,,,,,,,,,,1394.9750227999994,None,,,,,,,,,,,,,,,,,alert,65,141,sing,old,red,1391.4878781999996,None,1391.4878781999996,None,5,1.9931897999995272,1391.4878781999996,None,1.9931897999995272,1393.5084930999992,None,1394.0073966,None,1394.0073966,None,f,0.9376421000006303,1394.0073966,None,0.9376421000006303,,,139Sing,001,2023_Oct_27_1306,ProdSingRedoBetween,2021.2.3,59.98461994362985,
,,,,141,0,141,0,,,,,,,,,,,,,,,,,,,,,,1400.0132041999996,None,,,,,,,,,,,,,,,,,route,113,142,sing,new,null,1395.4756298999991,None,1395.4756298999991,None,3,1.781380700000227,1395.4756298999991,None,1.781380700000227,1397.2789622,None,1397.7944146999998,None,1397.7944146999998,None,n,2.1905893000002834,1397.7944146999998,None,2.1905893000002834,,,139Sing,001,2023_Oct_27_1306,ProdSingRedoBetween,2021.2.3,59.98461994362985,
,,,,142,0,142,0,,,,,,,,,,,,,,,,,,,,,,1404.8848579999994,None,,,,,,,,,,,,,,,,,candidate,59,143,sing,old,yellow,1400.5138895999999,None,1400.5138895999999,None,4,2.3671429000005446,1400.5138895999999,None,2.3671429000005446,1402.9015820999994,None,1403.4170685,None,1403.4170685,None,f,1.4398808000005374,1403.4170685,None,1.4398808000005374,,,139Sing,001,2023_Oct_27_1306,ProdSingRedoBetween,2021.2.3,59.98461994362985,
,,,,143,0,143,0,,,,,,,,,,,,,,,,,,,,,,1416.3797167999992,None,,,,,,,,,,,,,,,,,captain,45,144,sing,old,blue,1405.3897426999993,None,1405.3897426999993,None,5,7.387258599999768,1405.3897426999993,None,7.387258599999768,1412.8010986,None,1413.3102528,None,1413.3102528,None,f,3.042824500000279,1413.3102528,None,3.042824500000279,,,139Sing,001,2023_Oct_27_1306,ProdSingRedoBetween,2021.2.3,59.98461994362985,
,,,,144,0,144,0,,,,,,,,,,,,,,,,,,,,,,1420.2500387999999,None,,,,,,,,,,,,,,,,,public,146,145,sing,new,null,1416.8803243999992,None,1416.8803243999992,None,4,2.016614600000139,1416.8803243999992,None,2.016614600000139,1418.9159184999999,None,1419.4158180999993,None,1419.4158180999993,None,f,0.8171695000000909,1419.4158180999993,None,0.8171695000000909,,,139Sing,001,2023_Oct_27_1306,ProdSingRedoBetween,2021.2.3,59.98461994362985,
,,,,145,0,145,0,,,,,,,,,,,,,,,,,,,,,,1424.6728549999998,None,,,,,,,,,,,,,,,,,platform,32,146,sing,old,blue,1420.7508257,None,1420.7508257,None,4,1.594116500000382,1420.7508257,None,1.594116500000382,1422.3716304999998,None,1422.8860717999996,None,1422.8860717999996,None,f,1.7549323000002914,1422.8860717999996,None,1.7549323000002914,,,139Sing,001,2023_Oct_27_1306,ProdSingRedoBetween,2021.2.3,59.98461994362985,
,,,,146,0,146,0,,,,,,,,,,,,,,,,,,,,,,1428.1411374,None,,,,,,,,,,,,,,,,,strain,68,147,sing,old,red,1425.1725962,None,1425.1725962,None,2,1.444373700000142,1425.1725962,None,1.444373700000142,1426.6406508999999,None,1427.1401407999992,None,1427.1401407999992,None,n,0.9727966000000379,1427.1401407999992,None,0.9727966000000379,,,139Sing,001,2023_Oct_27_1306,ProdSingRedoBetween,2021.2.3,59.98461994362985,
,,,,147,0,147,0,,,,,,,,,,,,,,,,,,,,,,1432.3788103999996,None,,,,,,,,,,,,,,,,,taste,64,148,sing,old,red,1428.6421064999995,None,1428.6421064999995,None,4,2.1187757999996393,1428.6421064999995,None,2.1187757999996393,1430.7778571999997,None,1431.2779361999992,None,1431.2779361999992,None,f,1.0831127999999808,1431.2779361999992,None,1.0831127999999808,,,139Sing,001,2023_Oct_27_1306,ProdSingRedoBetween,2021.2.3,59.98461994362985,
,,,,148,0,148,0,,,,,,,,,,,,,,,,,,,,,,1440.8039715999994,None,,,,,,,,,,,,,,,,,industry,26,149,sing,old,yellow,1432.8792168,None,1432.8792168,None,2,1.9218079000002035,1432.8792168,None,1.9218079000002035,1434.8325065999998,None,1435.3321024999996,None,1435.3321024999996,None,f,5.4449296000002505,1435.3321024999996,None,5.4449296000002505,,,139Sing,001,2023_Oct_27_1306,ProdSingRedoBetween,2021.2.3,59.98461994362985,
,,,,149,0,149,0,,,,,,,,,,,,,,,,,,,,,,1445.0415971999992,None,,,,,,,,,,,,,,,,,block,73,150,sing,old,red,1441.3044186999996,None,1441.3044186999996,None,5,1.904569000000265,1441.3044186999996,None,1.904569000000265,1443.2446999999993,None,1443.7568736999992,None,1443.7568736999992,None,f,1.260056000000077,1443.7568736999992,None,1.260056000000077,,,139Sing,001,2023_Oct_27_1306,ProdSingRedoBetween,2021.2.3,59.98461994362985,
,,,,150,0,150,0,,,,,,,,,,,,,,,,,,,,,,1449.6791982999994,None,,,,,,,,,,,,,,,,,state,78,151,sing,old,red,1445.5450246,None,1445.5450246,None,4,2.583938200000375,1445.5450246,None,2.583938200000375,1448.1475398999992,None,1448.6616081999991,None,1448.6616081999991,None,f,0.9953519000000597,1448.6616081999991,None,0.9953519000000597,,,139Sing,001,2023_Oct_27_1306,ProdSingRedoBetween,2021.2.3,59.98461994362985,
,,,,151,0,151,0,,,,,,,,,,,,,,,,,,,,,,1452.8333143999998,None,,,,,,,,,,,,,,,,,owner,40,152,sing,old,blue,1450.1798030999998,None,1450.1798030999998,None,2,1.8691489000002548,1450.1798030999998,None,1.8691489000002548,1452.0653986999996,None,1452.5663046,None,1452.5663046,None,n,0.2427432000004046,1452.5663046,None,0.2427432000004046,,,139Sing,001,2023_Oct_27_1306,ProdSingRedoBetween,2021.2.3,59.98461994362985,
,,,,152,0,152,0,,,,,,,,,,,,,,,,,,,,,,1456.0192908,None,,,,,,,,,,,,,,,,,mayor,178,153,sing,new,null,1453.3339192999993,None,1453.3339192999993,None,1,1.7709807999999612,1453.3339192999993,None,1.7709807999999612,1455.1372686999994,None,1455.652239,None,1455.652239,None,n,0.3487165000005916,1455.652239,None,0.3487165000005916,,,139Sing,001,2023_Oct_27_1306,ProdSingRedoBetween,2021.2.3,59.98461994362985,
,,,,153,0,153,0,,,,,,,,,,,,,,,,,,,,,,1461.1243771999998,None,,,,,,,,,,,,,,,,,trial,42,154,sing,old,blue,1456.5210648999991,None,1456.5210648999991,None,5,2.8878153000005113,1456.5210648999991,None,2.8878153000005113,1459.4404067999994,None,1459.9398126999995,None,1459.9398126999995,None,f,1.1571075000001656,1459.9398126999995,None,1.1571075000001656,,,139Sing,001,2023_Oct_27_1306,ProdSingRedoBetween,2021.2.3,59.98461994362985,
,,,,154,0,154,0,,,,,,,,,,,,,,,,,,,,,,1464.1774811999994,None,,,,,,,,,,,,,,,,,patient,94,155,sing,new,null,1461.6267099999995,None,1461.6267099999995,None,2,1.6782837999999174,1461.6267099999995,None,1.6782837999999174,1463.3293334999998,None,1463.8437025999992,None,1463.8437025999992,None,n,0.31736300000011397,1463.8437025999992,None,0.31736300000011397,,,139Sing,001,2023_Oct_27_1306,ProdSingRedoBetween,2021.2.3,59.98461994362985,
,,,,155,0,155,0,,,,,,,,,,,,,,,,,,,,,,1467.9977501999992,None,,,,,,,,,,,,,,,,,personnel,18,156,sing,old,yellow,1464.6778695999992,None,1464.6778695999992,None,6,1.6591501000002609,1464.6778695999992,None,1.6591501000002609,1466.3660322999995,None,1466.8798614999996,None,1466.8798614999996,None,r,1.0890464000003703,1466.8798614999996,None,1.0890464000003703,,,139Sing,001,2023_Oct_27_1306,ProdSingRedoBetween,2021.2.3,59.98461994362985,
,,,,156,0,156,0,,,,,,,,,,,,,,,,,,,,,,1472.4353463999996,None,,,,,,,,,,,,,,,,,brief,106,157,sing,new,null,1468.5013265999996,None,1468.5013265999996,None,2,1.3236336999998457,1468.5013265999996,None,1.3236336999998457,1469.8495252999992,None,1470.3500958999994,None,1470.3500958999994,None,n,2.066925699999956,1470.3500958999994,None,2.066925699999956,,,139Sing,001,2023_Oct_27_1306,ProdSingRedoBetween,2021.2.3,59.98461994362985,
,,,,157,0,157,0,,,,,,,,,,,,,,,,,,,,,,1475.3382567999997,None,,,,,,,,,,,,,,,,,testimony,67,158,sing,old,red,1472.9361033999994,None,1472.9361033999994,None,6,1.3688528000002407,1472.9361033999994,None,1.3688528000002407,1474.3245996999995,None,1474.8384068999994,None,1474.8384068999994,None,r,0.4825257000002239,1474.8384068999994,None,0.4825257000002239,,,139Sing,001,2023_Oct_27_1306,ProdSingRedoBetween,2021.2.3,59.98461994362985,
,,,,158,0,158,0,,,,,,,,,,,,,,,,,,,,,,1479.1588085999992,None,,,,,,,,,,,,,,,,,discussion,91,159,sing,new,null,1475.8425224999992,None,1475.8425224999992,None,4,1.8543903999998292,1475.8425224999992,None,1.8543903999998292,1477.7261980999992,None,1478.2418193999993,None,1478.2418193999993,None,f,0.8950827999997273,1478.2418193999993,None,0.8950827999997273,,,139Sing,001,2023_Oct_27_1306,ProdSingRedoBetween,2021.2.3,59.98461994362985,
,,,,159,0,159,0,,,,,,,,,,,,,,,,,,,,,,1483.5803548999993,None,,,,,,,,,,,,,,,,,colonel,21,160,sing,old,yellow,1479.6593823999992,None,1479.6593823999992,None,6,1.5975059000002148,1479.6593823999992,None,1.5975059000002148,1481.2783092,None,1481.778394,None,1481.778394,None,r,1.782497300000614,1481.778394,None,1.782497300000614,,,139Sing,001,2023_Oct_27_1306,ProdSingRedoBetween,2021.2.3,59.98461994362985,
,,,,160,0,160,0,,,,,,,,,,,,,,,,,,,,,,1487.9842587999992,None,,,,,,,,,,,,,,,,,turkey,142,161,sing,new,null,1484.0860874,None,1484.0860874,None,1,2.026787400000103,1484.0860874,None,2.026787400000103,1486.1349068,None,1486.6500194,None,1486.6500194,None,n,1.3110076999992089,1486.6500194,None,1.3110076999992089,,,139Sing,001,2023_Oct_27_1306,ProdSingRedoBetween,2021.2.3,59.98461994362985,
,,,,161,0,161,0,,,,,,,,,,,,,,,,,,,,,,1491.9548794999992,None,,,,,,,,,,,,,,,,,south,108,162,sing,new,null,1488.4848557999994,None,1488.4848557999994,None,4,2.0120153999996546,1488.4848557999994,None,2.0120153999996546,1490.5210385,None,1491.0223160999994,None,1491.0223160999994,None,f,0.9146571000001131,1491.0223160999994,None,0.9146571000001131,,,139Sing,001,2023_Oct_27_1306,ProdSingRedoBetween,2021.2.3,59.98461994362985,
,,,,162,0,162,0,,,,,,,,,,,,,,,,,,,,,,1495.5109546999993,None,,,,,,,,,,,,,,,,,capital,124,163,sing,new,null,1492.4558485999996,None,1492.4558485999996,None,5,1.3131862999998702,1492.4558485999996,None,1.3131862999998702,1493.7913005,None,1494.2907589999995,None,1494.2907589999995,None,f,1.1901097999998456,1494.2907589999995,None,1.1901097999998456,,,139Sing,001,2023_Oct_27_1306,ProdSingRedoBetween,2021.2.3,59.98461994362985,
,,,,163,0,163,0,,,,,,,,,,,,,,,,,,,,,,1498.9829070999995,None,,,,,,,,,,,,,,,,,comfort,11,164,sing,old,yellow,1496.0256137999995,None,1496.0256137999995,None,5,1.3994282000003295,1496.0256137999995,None,1.3994282000003295,1497.4477327999994,None,1497.9609108999994,None,1497.9609108999994,None,f,0.9919340000005832,1497.9609108999994,None,0.9919340000005832,,,139Sing,001,2023_Oct_27_1306,ProdSingRedoBetween,2021.2.3,59.98461994362985,
,,,,164,0,164,0,,,,,,,,,,,,,,,,,,,,,,1503.2665791999998,None,,,,,,,,,,,,,,,,,touch,7,165,sing,old,yellow,1499.4960114999994,None,1499.4960114999994,None,4,2.312955000000329,1499.4960114999994,None,2.312955000000329,1501.831276,None,1502.331983,None,1502.331983,None,f,0.9170881000000008,1502.331983,None,0.9170881000000008,,,139Sing,001,2023_Oct_27_1306,ProdSingRedoBetween,2021.2.3,59.98461994362985,
,,,,165,0,165,0,,,,,,,,,,,,,,,,,,,,,,1506.4691396999997,None,,,,,,,,,,,,,,,,,minor,77,166,sing,old,red,1503.7678791999997,None,1503.7678791999997,None,6,1.6810143000002427,1503.7678791999997,None,1.6810143000002427,1505.4692112999992,None,1505.9693981,None,1505.9693981,None,r,0.4714523000002373,1505.9693981,None,0.4714523000002373,,,139Sing,001,2023_Oct_27_1306,ProdSingRedoBetween,2021.2.3,59.98461994362985,
,,,,166,0,166,0,,,,,,,,,,,,,,,,,,,,,,1510.2231874999998,None,,,,,,,,,,,,,,,,,smooth,136,167,sing,new,null,1506.9718717999995,None,1506.9718717999995,None,4,1.820958299999802,1506.9718717999995,None,1.820958299999802,1508.8269733999996,None,1509.3391022999995,None,1509.3391022999995,None,f,0.8537760999997772,1509.3391022999995,None,0.8537760999997772,,,139Sing,001,2023_Oct_27_1306,ProdSingRedoBetween,2021.2.3,59.98461994362985,
,,,,167,0,167,0,,,,,,,,,,,,,,,,,,,,,,1513.7944069999994,None,,,,,,,,,,,,,,,,,society,20,168,sing,old,yellow,1510.7251807999992,None,1510.7251807999992,None,5,1.4838368000000628,1510.7251807999992,None,1.4838368000000628,1512.2286150999998,None,1512.7424240999999,None,1512.7424240999999,None,f,1.0345022000001336,1512.7424240999999,None,1.0345022000001336,,,139Sing,001,2023_Oct_27_1306,ProdSingRedoBetween,2021.2.3,59.98461994362985,
,,,,168,0,168,0,,,,,,,,,,,,,,,,,,,,,,1518.7815549999996,None,,,,,,,,,,,,,,,,,number,76,169,sing,old,red,1514.2938594999996,None,1514.2938594999996,None,4,2.803154000000177,1514.2938594999996,None,2.803154000000177,1517.1171639999993,None,1517.6307058999992,None,1517.6307058999992,None,f,1.1301612999995996,1517.6307058999992,None,1.1301612999995996,,,139Sing,001,2023_Oct_27_1306,ProdSingRedoBetween,2021.2.3,59.98461994362985,
,,,,169,0,169,0,,,,,,,,,,,,,,,,,,,,,,1528.0750865999998,None,,,,,,,,,,,,,,,,,figure,87,170,sing,old,red,1519.2832736,None,1519.2832736,None,4,3.317569199999525,1519.2832736,None,3.317569199999525,1522.6192355999992,None,1523.1195222999995,None,1523.1195222999995,None,f,4.929323899999872,1523.1195222999995,None,4.929323899999872,,,139Sing,001,2023_Oct_27_1306,ProdSingRedoBetween,2021.2.3,59.98461994362985,
,,,,170,0,170,0,,,,,,,,,,,,,,,,,,,,,,1531.7612191999997,None,,,,,,,,,,,,,,,,,quarter,171,171,sing,new,null,1528.5760358999996,None,1528.5760358999996,None,2,2.3527827000007164,1528.5760358999996,None,2.3527827000007164,1530.9438292999994,None,1531.4443787999999,None,1531.4443787999999,None,n,0.3006071999998312,1531.4443787999999,None,0.3006071999998312,,,139Sing,001,2023_Oct_27_1306,ProdSingRedoBetween,2021.2.3,59.98461994362985,
,,,,171,0,171,0,,,,,,,,,,,,,,,,,,,,,,1536.3324843999999,None,,,,,,,,,,,,,,,,,rural,23,172,sing,old,yellow,1532.2629577999996,None,1532.2629577999996,None,5,1.4339506999995137,1532.2629577999996,None,1.4339506999995137,1533.7190246,None,1534.2306144999993,None,1534.2306144999993,None,r,2.0743585000000166,1534.2306144999993,None,2.0743585000000166,,,139Sing,001,2023_Oct_27_1306,ProdSingRedoBetween,2021.2.3,59.98461994362985,
,,,,172,0,172,0,,,,,,,,,,,,,,,,,,,,,,1540.0029179999992,None,,,,,,,,,,,,,,,,,phrase,60,173,sing,old,red,1536.8328109999993,None,1536.8328109999993,None,3,1.9759652000002461,1536.8328109999993,None,1.9759652000002461,1538.8382444,None,1539.3528809,None,1539.3528809,None,n,0.6240927999997439,1539.3528809,None,0.6240927999997439,,,139Sing,001,2023_Oct_27_1306,ProdSingRedoBetween,2021.2.3,59.98461994362985,
,,,,173,0,173,0,,,,,,,,,,,,,,,,,,,,,,1543.5233627999996,None,,,,,,,,,,,,,,,,,production,170,174,sing,new,null,1540.5054753999993,None,1540.5054753999993,None,5,1.5673190999996223,1540.5054753999993,None,1.5673190999996223,1542.0921363999996,None,1542.6056839999992,None,1542.6056839999992,None,f,0.8911632999997892,1542.6056839999992,None,0.8911632999997892,,,139Sing,001,2023_Oct_27_1306,ProdSingRedoBetween,2021.2.3,59.98461994362985,
,,,,174,0,174,0,,,,,,,,,,,,,,,,,,,,,,1547.0929419999993,None,,,,,,,,,,,,,,,,,finance,35,175,sing,old,blue,1544.0260518999994,None,1544.0260518999994,None,4,2.0547513000001345,1544.0260518999994,None,2.0547513000001345,1546.1126093999992,None,1546.6265434999996,None,1546.6265434999996,None,f,0.44627700000000914,1546.6265434999996,None,0.44627700000000914,,,139Sing,001,2023_Oct_27_1306,ProdSingRedoBetween,2021.2.3,59.98461994362985,
,,,,175,0,175,0,,,,,,,,,,,,,,,,,,,,,,1550.0962206999993,None,,,,,,,,,,,,,,,,,commercial,16,176,sing,old,yellow,1547.5942332999994,None,1547.5942332999994,None,6,1.4786707000002934,1547.5942332999994,None,1.4786707000002934,1549.0954628999998,None,1549.5957417999998,None,1549.5957417999998,None,r,0.47706639999978506,1549.5957417999998,None,0.47706639999978506,,,139Sing,001,2023_Oct_27_1306,ProdSingRedoBetween,2021.2.3,59.98461994362985,
,,,,176,0,176,0,,,,,,,,,,,,,,,,,,,,,,1557.7539178999996,None,,,,,,,,,,,,,,,,,sight,4,177,sing,old,yellow,1550.6001413999993,None,1550.6001413999993,None,4,1.7606631000007837,1550.6001413999993,None,1.7606631000007837,1552.3852638999997,None,1552.8992335999992,None,1552.8992335999992,None,f,4.837650200000098,1552.8992335999992,None,4.837650200000098,,,139Sing,001,2023_Oct_27_1306,ProdSingRedoBetween,2021.2.3,59.98461994362985,
,,,,177,0,177,0,,,,,,,,,,,,,,,,,,,,,,1562.1416998999994,None,,,,,,,,,,,,,,,,,provision,89,178,sing,old,red,1558.2578052999997,None,1558.2578052999997,None,6,1.8949292000006608,1558.2578052999997,None,1.8949292000006608,1560.1813070999997,None,1560.6904005999995,None,1560.6904005999995,None,r,1.4304142000000866,1560.6904005999995,None,1.4304142000000866,,,139Sing,001,2023_Oct_27_1306,ProdSingRedoBetween,2021.2.3,59.98461994362985,
,,,,178,0,178,0,,,,,,,,,,,,,,,,,,,,,,1566.2289081,None,,,,,,,,,,,,,,,,,position,43,179,sing,old,blue,1562.6422588999994,None,1562.6422588999994,None,4,1.6625824000002467,1562.6422588999994,None,1.6625824000002467,1564.3321342,None,1564.8444562999994,None,1564.8444562999994,None,f,1.3563645000003817,1564.8444562999994,None,1.3563645000003817,,,139Sing,001,2023_Oct_27_1306,ProdSingRedoBetween,2021.2.3,59.98461994362985,
,,,,179,0,179,0,,,,,,,,,,,,,,,,,,,,,,1569.3822867999997,None,,,,,,,,,,,,,,,,,suggestion,101,180,sing,new,null,1566.7396006999998,None,1566.7396006999998,None,4,1.4212814000002254,1566.7396006999998,None,1.4212814000002254,1568.1810179999993,None,1568.6817038999998,None,1568.6817038999998,None,f,0.679089300000669,1568.6817038999998,None,0.679089300000669,,,139Sing,001,2023_Oct_27_1306,ProdSingRedoBetween,2021.2.3,59.98461994362985,
,,,,,,,,,,,,,,,,,,,,,,,,,,,,,,,,,,,,,,,,,,,,,,,,,,,,,,,,,,,,,,,,,,,,,,,,,1569.8833368999994,None,,,,,,,
