StudyLoop.thisRepN,StudyLoop.thisTrialN,StudyLoop.thisN,StudyLoop.thisIndex,TestLoop.thisRepN,TestLoop.thisTrialN,TestLoop.thisN,TestLoop.thisIndex,textCondition.started,textCondition.stopped,keyCondition.keys,keyCondition.rt,keyCondition.started,keyCondition.stopped,Condition,textWelcome.started,textWelcome.stopped,keyWelcome.keys,keyWelcome.rt,keyWelcome.started,keyWelcome.stopped,textAloud.started,textAloud.stopped,textSilent.started,textSilent.stopped,textSing.started,textSing.stopped,conditional_text.started,conditional_text.stopped,textBlank500.started,textBlank500.stopped,study_word,study_num,study_order,study_type,word_color,textStudy.started,textStudy.stopped,keyStudy.keys,keyStudy.started,keyStudy.stopped,textTestInstructions.started,textTestInstructions.stopped,key_resp_3.keys,key_resp_3.rt,key_resp_3.started,key_resp_3.stopped,test_word,test_num,test_order,test_condition,old_new_test,test_word_original_color,textConf.started,textConf.stopped,textConfScale.started,textConfScale.stopped,keyConf.keys,keyConf.rt,keyConf.started,keyConf.stopped,confidence response time,textTestBlank.started,textTestBlank.stopped,textRKN.started,textRKN.stopped,textRKNScale.started,textRKNScale.stopped,keyRKN.keys,keyRKN.rt,keyRKN.started,keyRKN.stopped,rkn response time,textEnd.started,textEnd.stopped,participant,session,date,expName,psychopyVersion,frameRate,
,,,,,,,,66.88328779999938,None,a,2.407922899999903,66.88328779999938,None,,,,,,,,,,,,,,,,,,,,,,,,,,,,,,,,,,,,,,,,,,,,,,,,,,,,,,,,,,,,,,Silent13,001,2022_Aug_03_1538,ProdSingRedoBetween,2021.2.3,59.883825378867684,
,,,,,,,,,,,,,,SilentTest,69.33393389999947,None,space,164.85328669999944,69.33393389999947,None,,,,,,,,,,,,,,,,,,,,,,,,,,,,,,,,,,,,,,,,,,,,,,,,,,,,,,,Silent13,001,2022_Aug_03_1538,ProdSingRedoBetween,2021.2.3,59.883825378867684,
0,0,0,0,,,,,,,,,,,,,,,,,,69.33393389999947,None,69.33393389999947,None,69.33393389999947,None,69.33393389999947,None,236.72790710000027,None,pressure,64,1,silent,red,234.71445589999985,None,None,234.71445589999985,None,,,,,,,,,,,,,,,,,,,,,,,,,,,,,,,,,,,Silent13,001,2022_Aug_03_1538,ProdSingRedoBetween,2021.2.3,59.883825378867684,
1,0,1,0,,,,,,,,,,,,,,,,,,,,,,,,,,239.23054109999975,None,commercial,19,2,silent,yellow,237.2286095999998,None,None,237.2286095999998,None,,,,,,,,,,,,,,,,,,,,,,,,,,,,,,,,,,,Silent13,001,2022_Aug_03_1538,ProdSingRedoBetween,2021.2.3,59.883825378867684,
2,0,2,0,,,,,,,,,,,,,,,,,,,,,,,,,,241.7331368999994,None,drama,21,3,silent,yellow,239.73104749999948,None,None,239.73104749999948,None,,,,,,,,,,,,,,,,,,,,,,,,,,,,,,,,,,,Silent13,001,2022_Aug_03_1538,ProdSingRedoBetween,2021.2.3,59.883825378867684,
3,0,3,0,,,,,,,,,,,,,,,,,,,,,,,,,,244.25235489999977,None,little,81,4,silent,red,242.2381921999995,None,None,242.2381921999995,None,,,,,,,,,,,,,,,,,,,,,,,,,,,,,,,,,,,Silent13,001,2022_Aug_03_1538,ProdSingRedoBetween,2021.2.3,59.883825378867684,
4,0,4,0,,,,,,,,,,,,,,,,,,,,,,,,,,246.77143090000027,None,signal,42,5,silent,blue,244.75676490000023,None,None,244.75676490000023,None,,,,,,,,,,,,,,,,,,,,,,,,,,,,,,,,,,,Silent13,001,2022_Aug_03_1538,ProdSingRedoBetween,2021.2.3,59.883825378867684,
5,0,5,0,,,,,,,,,,,,,,,,,,,,,,,,,,249.27387089999957,None,bicycle,3,6,silent,yellow,247.27315589999944,None,None,247.27315589999944,None,,,,,,,,,,,,,,,,,,,,,,,,,,,,,,,,,,,Silent13,001,2022_Aug_03_1538,ProdSingRedoBetween,2021.2.3,59.883825378867684,
6,0,6,0,,,,,,,,,,,,,,,,,,,,,,,,,,251.79315270000006,None,suggestion,51,7,silent,blue,249.7832067999998,None,None,249.7832067999998,None,,,,,,,,,,,,,,,,,,,,,,,,,,,,,,,,,,,Silent13,001,2022_Aug_03_1538,ProdSingRedoBetween,2021.2.3,59.883825378867684,
7,0,7,0,,,,,,,,,,,,,,,,,,,,,,,,,,254.2955775999999,None,general,80,8,silent,red,252.2933935000001,None,None,252.2933935000001,None,,,,,,,,,,,,,,,,,,,,,,,,,,,,,,,,,,,Silent13,001,2022_Aug_03_1538,ProdSingRedoBetween,2021.2.3,59.883825378867684,
8,0,8,0,,,,,,,,,,,,,,,,,,,,,,,,,,256.79821829999946,None,committee,46,9,silent,blue,254.79799889999958,None,None,254.79799889999958,None,,,,,,,,,,,,,,,,,,,,,,,,,,,,,,,,,,,Silent13,001,2022_Aug_03_1538,ProdSingRedoBetween,2021.2.3,59.883825378867684,
9,0,9,0,,,,,,,,,,,,,,,,,,,,,,,,,,259.30062929999985,None,debate,71,10,silent,red,257.2986132999995,None,None,257.2986132999995,None,,,,,,,,,,,,,,,,,,,,,,,,,,,,,,,,,,,Silent13,001,2022_Aug_03_1538,ProdSingRedoBetween,2021.2.3,59.883825378867684,
10,0,10,0,,,,,,,,,,,,,,,,,,,,,,,,,,261.8199317999997,None,point,74,11,silent,red,259.80731039999955,None,None,259.80731039999955,None,,,,,,,,,,,,,,,,,,,,,,,,,,,,,,,,,,,Silent13,001,2022_Aug_03_1538,ProdSingRedoBetween,2021.2.3,59.883825378867684,
11,0,11,0,,,,,,,,,,,,,,,,,,,,,,,,,,264.32206750000023,None,front,65,12,silent,red,262.3203649999996,None,None,262.3203649999996,None,,,,,,,,,,,,,,,,,,,,,,,,,,,,,,,,,,,Silent13,001,2022_Aug_03_1538,ProdSingRedoBetween,2021.2.3,59.883825378867684,
12,0,12,0,,,,,,,,,,,,,,,,,,,,,,,,,,266.8245648000002,None,bucket,49,13,silent,blue,264.8224909999999,None,None,264.8224909999999,None,,,,,,,,,,,,,,,,,,,,,,,,,,,,,,,,,,,Silent13,001,2022_Aug_03_1538,ProdSingRedoBetween,2021.2.3,59.883825378867684,
13,0,13,0,,,,,,,,,,,,,,,,,,,,,,,,,,269.3440859000002,None,detective,33,14,silent,blue,267.3334076000001,None,None,267.3334076000001,None,,,,,,,,,,,,,,,,,,,,,,,,,,,,,,,,,,,Silent13,001,2022_Aug_03_1538,ProdSingRedoBetween,2021.2.3,59.883825378867684,
14,0,14,0,,,,,,,,,,,,,,,,,,,,,,,,,,271.8466085,None,emergency,30,15,silent,blue,269.8458547,None,None,269.8458547,None,,,,,,,,,,,,,,,,,,,,,,,,,,,,,,,,,,,Silent13,001,2022_Aug_03_1538,ProdSingRedoBetween,2021.2.3,59.883825378867684,
15,0,15,0,,,,,,,,,,,,,,,,,,,,,,,,,,274.3657806000001,None,shape,27,16,silent,yellow,272.35061339999993,None,None,272.35061339999993,None,,,,,,,,,,,,,,,,,,,,,,,,,,,,,,,,,,,Silent13,001,2022_Aug_03_1538,ProdSingRedoBetween,2021.2.3,59.883825378867684,
16,0,16,0,,,,,,,,,,,,,,,,,,,,,,,,,,276.8683923999997,None,silence,20,17,silent,yellow,274.86908719999974,None,None,274.86908719999974,None,,,,,,,,,,,,,,,,,,,,,,,,,,,,,,,,,,,Silent13,001,2022_Aug_03_1538,ProdSingRedoBetween,2021.2.3,59.883825378867684,
17,0,17,0,,,,,,,,,,,,,,,,,,,,,,,,,,279.3706879000001,None,distance,28,18,silent,yellow,277.3684621000002,None,None,277.3684621000002,None,,,,,,,,,,,,,,,,,,,,,,,,,,,,,,,,,,,Silent13,001,2022_Aug_03_1538,ProdSingRedoBetween,2021.2.3,59.883825378867684,
18,0,18,0,,,,,,,,,,,,,,,,,,,,,,,,,,281.88991129999977,None,ground,26,19,silent,yellow,279.88374959999965,None,None,279.88374959999965,None,,,,,,,,,,,,,,,,,,,,,,,,,,,,,,,,,,,Silent13,001,2022_Aug_03_1538,ProdSingRedoBetween,2021.2.3,59.883825378867684,
19,0,19,0,,,,,,,,,,,,,,,,,,,,,,,,,,284.3923213999997,None,beauty,87,20,silent,red,282.3915576999998,None,None,282.3915576999998,None,,,,,,,,,,,,,,,,,,,,,,,,,,,,,,,,,,,Silent13,001,2022_Aug_03_1538,ProdSingRedoBetween,2021.2.3,59.883825378867684,
20,0,20,0,,,,,,,,,,,,,,,,,,,,,,,,,,286.9114505999996,None,escape,89,21,silent,red,284.8988743,None,None,284.8988743,None,,,,,,,,,,,,,,,,,,,,,,,,,,,,,,,,,,,Silent13,001,2022_Aug_03_1538,ProdSingRedoBetween,2021.2.3,59.883825378867684,
21,0,21,0,,,,,,,,,,,,,,,,,,,,,,,,,,289.4141324000002,None,column,36,22,silent,blue,287.4145461999997,None,None,287.4145461999997,None,,,,,,,,,,,,,,,,,,,,,,,,,,,,,,,,,,,Silent13,001,2022_Aug_03_1538,ProdSingRedoBetween,2021.2.3,59.883825378867684,
22,0,22,0,,,,,,,,,,,,,,,,,,,,,,,,,,291.93314120000014,None,space,25,23,silent,yellow,289.9202187000001,None,None,289.9202187000001,None,,,,,,,,,,,,,,,,,,,,,,,,,,,,,,,,,,,Silent13,001,2022_Aug_03_1538,ProdSingRedoBetween,2021.2.3,59.883825378867684,
23,0,23,0,,,,,,,,,,,,,,,,,,,,,,,,,,294.43581989999984,None,color,86,24,silent,red,292.4348989,None,None,292.4348989,None,,,,,,,,,,,,,,,,,,,,,,,,,,,,,,,,,,,Silent13,001,2022_Aug_03_1538,ProdSingRedoBetween,2021.2.3,59.883825378867684,
24,0,24,0,,,,,,,,,,,,,,,,,,,,,,,,,,296.9384017000002,None,resistance,4,25,silent,yellow,294.9377770000001,None,None,294.9377770000001,None,,,,,,,,,,,,,,,,,,,,,,,,,,,,,,,,,,,Silent13,001,2022_Aug_03_1538,ProdSingRedoBetween,2021.2.3,59.883825378867684,
25,0,25,0,,,,,,,,,,,,,,,,,,,,,,,,,,299.4573802999994,None,heavy,32,26,silent,blue,297.4454354999998,None,None,297.4454354999998,None,,,,,,,,,,,,,,,,,,,,,,,,,,,,,,,,,,,Silent13,001,2022_Aug_03_1538,ProdSingRedoBetween,2021.2.3,59.883825378867684,
26,0,26,0,,,,,,,,,,,,,,,,,,,,,,,,,,301.95994859999973,None,dance,79,27,silent,red,299.95792359999996,None,None,299.95792359999996,None,,,,,,,,,,,,,,,,,,,,,,,,,,,,,,,,,,,Silent13,001,2022_Aug_03_1538,ProdSingRedoBetween,2021.2.3,59.883825378867684,
27,0,27,0,,,,,,,,,,,,,,,,,,,,,,,,,,304.4626054999999,None,medicine,66,28,silent,red,302.46057010000004,None,None,302.46057010000004,None,,,,,,,,,,,,,,,,,,,,,,,,,,,,,,,,,,,Silent13,001,2022_Aug_03_1538,ProdSingRedoBetween,2021.2.3,59.883825378867684,
28,0,28,0,,,,,,,,,,,,,,,,,,,,,,,,,,306.98158969999986,None,power,76,29,silent,red,304.9662462999995,None,None,304.9662462999995,None,,,,,,,,,,,,,,,,,,,,,,,,,,,,,,,,,,,Silent13,001,2022_Aug_03_1538,ProdSingRedoBetween,2021.2.3,59.883825378867684,
29,0,29,0,,,,,,,,,,,,,,,,,,,,,,,,,,309.4841458000001,None,safety,53,30,silent,blue,307.48212950000016,None,None,307.48212950000016,None,,,,,,,,,,,,,,,,,,,,,,,,,,,,,,,,,,,Silent13,001,2022_Aug_03_1538,ProdSingRedoBetween,2021.2.3,59.883825378867684,
30,0,30,0,,,,,,,,,,,,,,,,,,,,,,,,,,311.9866207999994,None,throw,63,31,silent,red,309.98605640000005,None,None,309.98605640000005,None,,,,,,,,,,,,,,,,,,,,,,,,,,,,,,,,,,,Silent13,001,2022_Aug_03_1538,ProdSingRedoBetween,2021.2.3,59.883825378867684,
31,0,31,0,,,,,,,,,,,,,,,,,,,,,,,,,,314.4891729000001,None,search,41,32,silent,blue,312.48917299999994,None,None,312.48917299999994,None,,,,,,,,,,,,,,,,,,,,,,,,,,,,,,,,,,,Silent13,001,2022_Aug_03_1538,ProdSingRedoBetween,2021.2.3,59.883825378867684,
32,0,32,0,,,,,,,,,,,,,,,,,,,,,,,,,,316.9917284000003,None,brilliant,78,33,silent,red,314.99118219999946,None,None,314.99118219999946,None,,,,,,,,,,,,,,,,,,,,,,,,,,,,,,,,,,,Silent13,001,2022_Aug_03_1538,ProdSingRedoBetween,2021.2.3,59.883825378867684,
33,0,33,0,,,,,,,,,,,,,,,,,,,,,,,,,,319.51075279999986,None,partner,54,34,silent,blue,317.50302569999985,None,None,317.50302569999985,None,,,,,,,,,,,,,,,,,,,,,,,,,,,,,,,,,,,Silent13,001,2022_Aug_03_1538,ProdSingRedoBetween,2021.2.3,59.883825378867684,
34,0,34,0,,,,,,,,,,,,,,,,,,,,,,,,,,322.01340509999955,None,scene,40,35,silent,blue,320.01181709999946,None,None,320.01181709999946,None,,,,,,,,,,,,,,,,,,,,,,,,,,,,,,,,,,,Silent13,001,2022_Aug_03_1538,ProdSingRedoBetween,2021.2.3,59.883825378867684,
35,0,35,0,,,,,,,,,,,,,,,,,,,,,,,,,,324.5158838999996,None,foundation,15,36,silent,yellow,322.51588209999954,None,None,322.51588209999954,None,,,,,,,,,,,,,,,,,,,,,,,,,,,,,,,,,,,Silent13,001,2022_Aug_03_1538,ProdSingRedoBetween,2021.2.3,59.883825378867684,
36,0,36,0,,,,,,,,,,,,,,,,,,,,,,,,,,327.0184122999999,None,blind,48,37,silent,blue,325.0160040999999,None,None,325.0160040999999,None,,,,,,,,,,,,,,,,,,,,,,,,,,,,,,,,,,,Silent13,001,2022_Aug_03_1538,ProdSingRedoBetween,2021.2.3,59.883825378867684,
37,0,37,0,,,,,,,,,,,,,,,,,,,,,,,,,,329.5374323999995,None,quarter,52,38,silent,blue,327.5220959999997,None,None,327.5220959999997,None,,,,,,,,,,,,,,,,,,,,,,,,,,,,,,,,,,,Silent13,001,2022_Aug_03_1538,ProdSingRedoBetween,2021.2.3,59.883825378867684,
38,0,38,0,,,,,,,,,,,,,,,,,,,,,,,,,,332.03995680000025,None,government,13,39,silent,yellow,330.0377231000002,None,None,330.0377231000002,None,,,,,,,,,,,,,,,,,,,,,,,,,,,,,,,,,,,Silent13,001,2022_Aug_03_1538,ProdSingRedoBetween,2021.2.3,59.883825378867684,
39,0,39,0,,,,,,,,,,,,,,,,,,,,,,,,,,334.5591955,None,waste,14,40,silent,yellow,332.5453829999997,None,None,332.5453829999997,None,,,,,,,,,,,,,,,,,,,,,,,,,,,,,,,,,,,Silent13,001,2022_Aug_03_1538,ProdSingRedoBetween,2021.2.3,59.883825378867684,
40,0,40,0,,,,,,,,,,,,,,,,,,,,,,,,,,337.06172609999976,None,portion,69,41,silent,red,335.0596526999998,None,None,335.0596526999998,None,,,,,,,,,,,,,,,,,,,,,,,,,,,,,,,,,,,Silent13,001,2022_Aug_03_1538,ProdSingRedoBetween,2021.2.3,59.883825378867684,
41,0,41,0,,,,,,,,,,,,,,,,,,,,,,,,,,339.5809526000003,None,command,88,42,silent,red,337.56554589999996,None,None,337.56554589999996,None,,,,,,,,,,,,,,,,,,,,,,,,,,,,,,,,,,,Silent13,001,2022_Aug_03_1538,ProdSingRedoBetween,2021.2.3,59.883825378867684,
42,0,42,0,,,,,,,,,,,,,,,,,,,,,,,,,,342.08341649999966,None,generation,0,43,silent,yellow,340.08303739999974,None,None,340.08303739999974,None,,,,,,,,,,,,,,,,,,,,,,,,,,,,,,,,,,,Silent13,001,2022_Aug_03_1538,ProdSingRedoBetween,2021.2.3,59.883825378867684,
43,0,43,0,,,,,,,,,,,,,,,,,,,,,,,,,,344.58598789999996,None,benefit,59,44,silent,yellow,342.5856831000001,None,None,342.5856831000001,None,,,,,,,,,,,,,,,,,,,,,,,,,,,,,,,,,,,Silent13,001,2022_Aug_03_1538,ProdSingRedoBetween,2021.2.3,59.883825378867684,
44,0,44,0,,,,,,,,,,,,,,,,,,,,,,,,,,347.0883279999998,None,testimony,72,45,silent,red,345.0877934,None,None,345.0877934,None,,,,,,,,,,,,,,,,,,,,,,,,,,,,,,,,,,,Silent13,001,2022_Aug_03_1538,ProdSingRedoBetween,2021.2.3,59.883825378867684,
45,0,45,0,,,,,,,,,,,,,,,,,,,,,,,,,,349.5908909,None,fashion,2,46,silent,yellow,347.58890939999947,None,None,347.58890939999947,None,,,,,,,,,,,,,,,,,,,,,,,,,,,,,,,,,,,Silent13,001,2022_Aug_03_1538,ProdSingRedoBetween,2021.2.3,59.883825378867684,
46,0,46,0,,,,,,,,,,,,,,,,,,,,,,,,,,352.0934664999995,None,education,50,47,silent,blue,350.09171830000014,None,None,350.09171830000014,None,,,,,,,,,,,,,,,,,,,,,,,,,,,,,,,,,,,Silent13,001,2022_Aug_03_1538,ProdSingRedoBetween,2021.2.3,59.883825378867684,
47,0,47,0,,,,,,,,,,,,,,,,,,,,,,,,,,354.59586469999977,None,pretty,11,48,silent,yellow,352.59384750000027,None,None,352.59384750000027,None,,,,,,,,,,,,,,,,,,,,,,,,,,,,,,,,,,,Silent13,001,2022_Aug_03_1538,ProdSingRedoBetween,2021.2.3,59.883825378867684,
48,0,48,0,,,,,,,,,,,,,,,,,,,,,,,,,,357.0983656999997,None,department,17,49,silent,yellow,355.09617720000006,None,None,355.09617720000006,None,,,,,,,,,,,,,,,,,,,,,,,,,,,,,,,,,,,Silent13,001,2022_Aug_03_1538,ProdSingRedoBetween,2021.2.3,59.883825378867684,
49,0,49,0,,,,,,,,,,,,,,,,,,,,,,,,,,359.6009889999996,None,mankind,57,50,silent,blue,357.5988276999997,None,None,357.5988276999997,None,,,,,,,,,,,,,,,,,,,,,,,,,,,,,,,,,,,Silent13,001,2022_Aug_03_1538,ProdSingRedoBetween,2021.2.3,59.883825378867684,
50,0,50,0,,,,,,,,,,,,,,,,,,,,,,,,,,362.12006779999956,None,incident,8,51,silent,yellow,360.10670709999977,None,None,360.10670709999977,None,,,,,,,,,,,,,,,,,,,,,,,,,,,,,,,,,,,Silent13,001,2022_Aug_03_1538,ProdSingRedoBetween,2021.2.3,59.883825378867684,
51,0,51,0,,,,,,,,,,,,,,,,,,,,,,,,,,364.62256419999994,None,guard,18,52,silent,yellow,362.6203863999999,None,None,362.6203863999999,None,,,,,,,,,,,,,,,,,,,,,,,,,,,,,,,,,,,Silent13,001,2022_Aug_03_1538,ProdSingRedoBetween,2021.2.3,59.883825378867684,
52,0,52,0,,,,,,,,,,,,,,,,,,,,,,,,,,367.1248393999995,None,institute,47,53,silent,blue,365.1253514,None,None,365.1253514,None,,,,,,,,,,,,,,,,,,,,,,,,,,,,,,,,,,,Silent13,001,2022_Aug_03_1538,ProdSingRedoBetween,2021.2.3,59.883825378867684,
53,0,53,0,,,,,,,,,,,,,,,,,,,,,,,,,,369.6442154999995,None,history,22,54,silent,yellow,367.63207710000006,None,None,367.63207710000006,None,,,,,,,,,,,,,,,,,,,,,,,,,,,,,,,,,,,Silent13,001,2022_Aug_03_1538,ProdSingRedoBetween,2021.2.3,59.883825378867684,
54,0,54,0,,,,,,,,,,,,,,,,,,,,,,,,,,372.1466774999999,None,universal,68,55,silent,red,370.1448088999996,None,None,370.1448088999996,None,,,,,,,,,,,,,,,,,,,,,,,,,,,,,,,,,,,Silent13,001,2022_Aug_03_1538,ProdSingRedoBetween,2021.2.3,59.883825378867684,
55,0,55,0,,,,,,,,,,,,,,,,,,,,,,,,,,374.66592330000003,None,marriage,45,56,silent,blue,372.6528171,None,None,372.6528171,None,,,,,,,,,,,,,,,,,,,,,,,,,,,,,,,,,,,Silent13,001,2022_Aug_03_1538,ProdSingRedoBetween,2021.2.3,59.883825378867684,
56,0,56,0,,,,,,,,,,,,,,,,,,,,,,,,,,377.16841359999944,None,hearing,83,57,silent,red,375.1665164999995,None,None,375.1665164999995,None,,,,,,,,,,,,,,,,,,,,,,,,,,,,,,,,,,,Silent13,001,2022_Aug_03_1538,ProdSingRedoBetween,2021.2.3,59.883825378867684,
57,0,57,0,,,,,,,,,,,,,,,,,,,,,,,,,,379.6709192999997,None,character,61,58,silent,red,377.6695049,None,None,377.6695049,None,,,,,,,,,,,,,,,,,,,,,,,,,,,,,,,,,,,Silent13,001,2022_Aug_03_1538,ProdSingRedoBetween,2021.2.3,59.883825378867684,
58,0,58,0,,,,,,,,,,,,,,,,,,,,,,,,,,382.1733816999995,None,weight,55,59,silent,blue,380.1714869999996,None,None,380.1714869999996,None,,,,,,,,,,,,,,,,,,,,,,,,,,,,,,,,,,,Silent13,001,2022_Aug_03_1538,ProdSingRedoBetween,2021.2.3,59.883825378867684,
59,0,59,0,,,,,,,,,,,,,,,,,,,,,,,,,,384.67588220000016,None,edition,35,60,silent,blue,382.67389189999994,None,None,382.67389189999994,None,,,,,,,,,,,,,,,,,,,,,,,,,,,,,,,,,,,Silent13,001,2022_Aug_03_1538,ProdSingRedoBetween,2021.2.3,59.883825378867684,
60,0,60,0,,,,,,,,,,,,,,,,,,,,,,,,,,387.1783872999995,None,defeat,43,61,silent,blue,385.1761977999995,None,None,385.1761977999995,None,,,,,,,,,,,,,,,,,,,,,,,,,,,,,,,,,,,Silent13,001,2022_Aug_03_1538,ProdSingRedoBetween,2021.2.3,59.883825378867684,
61,0,61,0,,,,,,,,,,,,,,,,,,,,,,,,,,389.69766079999954,None,profession,67,62,silent,red,387.68266309999944,None,None,387.68266309999944,None,,,,,,,,,,,,,,,,,,,,,,,,,,,,,,,,,,,Silent13,001,2022_Aug_03_1538,ProdSingRedoBetween,2021.2.3,59.883825378867684,
62,0,62,0,,,,,,,,,,,,,,,,,,,,,,,,,,392.20017499999994,None,agreement,5,63,silent,yellow,390.19928530000016,None,None,390.19928530000016,None,,,,,,,,,,,,,,,,,,,,,,,,,,,,,,,,,,,Silent13,001,2022_Aug_03_1538,ProdSingRedoBetween,2021.2.3,59.883825378867684,
63,0,63,0,,,,,,,,,,,,,,,,,,,,,,,,,,394.70261649999975,None,contract,73,64,silent,red,392.7036524999994,None,None,392.7036524999994,None,,,,,,,,,,,,,,,,,,,,,,,,,,,,,,,,,,,Silent13,001,2022_Aug_03_1538,ProdSingRedoBetween,2021.2.3,59.883825378867684,
64,0,64,0,,,,,,,,,,,,,,,,,,,,,,,,,,397.20516039999984,None,answer,37,65,silent,blue,395.2030116999995,None,None,395.2030116999995,None,,,,,,,,,,,,,,,,,,,,,,,,,,,,,,,,,,,Silent13,001,2022_Aug_03_1538,ProdSingRedoBetween,2021.2.3,59.883825378867684,
65,0,65,0,,,,,,,,,,,,,,,,,,,,,,,,,,399.70782899999995,None,disease,1,66,silent,yellow,397.7056058999997,None,None,397.7056058999997,None,,,,,,,,,,,,,,,,,,,,,,,,,,,,,,,,,,,Silent13,001,2022_Aug_03_1538,ProdSingRedoBetween,2021.2.3,59.883825378867684,
66,0,66,0,,,,,,,,,,,,,,,,,,,,,,,,,,402.22690950000015,None,recall,38,67,silent,blue,400.2122191999997,None,None,400.2122191999997,None,,,,,,,,,,,,,,,,,,,,,,,,,,,,,,,,,,,Silent13,001,2022_Aug_03_1538,ProdSingRedoBetween,2021.2.3,59.883825378867684,
67,0,67,0,,,,,,,,,,,,,,,,,,,,,,,,,,404.72939039999983,None,subject,39,68,silent,blue,402.72857750000003,None,None,402.72857750000003,None,,,,,,,,,,,,,,,,,,,,,,,,,,,,,,,,,,,Silent13,001,2022_Aug_03_1538,ProdSingRedoBetween,2021.2.3,59.883825378867684,
68,0,68,0,,,,,,,,,,,,,,,,,,,,,,,,,,407.24861259999943,None,balance,6,69,silent,yellow,405.2342546,None,None,405.2342546,None,,,,,,,,,,,,,,,,,,,,,,,,,,,,,,,,,,,Silent13,001,2022_Aug_03_1538,ProdSingRedoBetween,2021.2.3,59.883825378867684,
69,0,69,0,,,,,,,,,,,,,,,,,,,,,,,,,,409.7509474999997,None,conference,82,70,silent,red,407.74875389999943,None,None,407.74875389999943,None,,,,,,,,,,,,,,,,,,,,,,,,,,,,,,,,,,,Silent13,001,2022_Aug_03_1538,ProdSingRedoBetween,2021.2.3,59.883825378867684,
70,0,70,0,,,,,,,,,,,,,,,,,,,,,,,,,,412.2701374999997,None,production,62,71,silent,red,410.2623916000002,None,None,410.2623916000002,None,,,,,,,,,,,,,,,,,,,,,,,,,,,,,,,,,,,Silent13,001,2022_Aug_03_1538,ProdSingRedoBetween,2021.2.3,59.883825378867684,
71,0,71,0,,,,,,,,,,,,,,,,,,,,,,,,,,414.7894021000002,None,republic,60,72,silent,red,412.77487440000004,None,None,412.77487440000004,None,,,,,,,,,,,,,,,,,,,,,,,,,,,,,,,,,,,Silent13,001,2022_Aug_03_1538,ProdSingRedoBetween,2021.2.3,59.883825378867684,
72,0,72,0,,,,,,,,,,,,,,,,,,,,,,,,,,417.2918301999998,None,cover,70,73,silent,red,415.28956990000006,None,None,415.28956990000006,None,,,,,,,,,,,,,,,,,,,,,,,,,,,,,,,,,,,Silent13,001,2022_Aug_03_1538,ProdSingRedoBetween,2021.2.3,59.883825378867684,
73,0,73,0,,,,,,,,,,,,,,,,,,,,,,,,,,419.8111160999997,None,candidate,84,74,silent,red,417.79835060000005,None,None,417.79835060000005,None,,,,,,,,,,,,,,,,,,,,,,,,,,,,,,,,,,,Silent13,001,2022_Aug_03_1538,ProdSingRedoBetween,2021.2.3,59.883825378867684,
74,0,74,0,,,,,,,,,,,,,,,,,,,,,,,,,,422.33022019999953,None,primary,16,75,silent,yellow,420.3153007000001,None,None,420.3153007000001,None,,,,,,,,,,,,,,,,,,,,,,,,,,,,,,,,,,,Silent13,001,2022_Aug_03_1538,ProdSingRedoBetween,2021.2.3,59.883825378867684,
75,0,75,0,,,,,,,,,,,,,,,,,,,,,,,,,,424.84943010000006,None,agency,9,76,silent,yellow,422.83792319999975,None,None,422.83792319999975,None,,,,,,,,,,,,,,,,,,,,,,,,,,,,,,,,,,,Silent13,001,2022_Aug_03_1538,ProdSingRedoBetween,2021.2.3,59.883825378867684,
76,0,76,0,,,,,,,,,,,,,,,,,,,,,,,,,,427.36869409999963,None,block,10,77,silent,yellow,425.35362929999974,None,None,425.35362929999974,None,,,,,,,,,,,,,,,,,,,,,,,,,,,,,,,,,,,Silent13,001,2022_Aug_03_1538,ProdSingRedoBetween,2021.2.3,59.883825378867684,
77,0,77,0,,,,,,,,,,,,,,,,,,,,,,,,,,429.8710820999995,None,vision,44,78,silent,blue,427.8691134999999,None,None,427.8691134999999,None,,,,,,,,,,,,,,,,,,,,,,,,,,,,,,,,,,,Silent13,001,2022_Aug_03_1538,ProdSingRedoBetween,2021.2.3,59.883825378867684,
78,0,78,0,,,,,,,,,,,,,,,,,,,,,,,,,,432.3904778999995,None,atmosphere,23,79,silent,yellow,430.3753552999997,None,None,430.3753552999997,None,,,,,,,,,,,,,,,,,,,,,,,,,,,,,,,,,,,Silent13,001,2022_Aug_03_1538,ProdSingRedoBetween,2021.2.3,59.883825378867684,
79,0,79,0,,,,,,,,,,,,,,,,,,,,,,,,,,434.90945569999985,None,poetry,31,80,silent,blue,432.8939167999997,None,None,432.8939167999997,None,,,,,,,,,,,,,,,,,,,,,,,,,,,,,,,,,,,Silent13,001,2022_Aug_03_1538,ProdSingRedoBetween,2021.2.3,59.883825378867684,
80,0,80,0,,,,,,,,,,,,,,,,,,,,,,,,,,437.4287306999995,None,guest,34,81,silent,blue,435.41923659999975,None,None,435.41923659999975,None,,,,,,,,,,,,,,,,,,,,,,,,,,,,,,,,,,,Silent13,001,2022_Aug_03_1538,ProdSingRedoBetween,2021.2.3,59.883825378867684,
81,0,81,0,,,,,,,,,,,,,,,,,,,,,,,,,,439.94789649999984,None,display,12,82,silent,yellow,437.9325242999994,None,None,437.9325242999994,None,,,,,,,,,,,,,,,,,,,,,,,,,,,,,,,,,,,Silent13,001,2022_Aug_03_1538,ProdSingRedoBetween,2021.2.3,59.883825378867684,
82,0,82,0,,,,,,,,,,,,,,,,,,,,,,,,,,442.4502781000001,None,build,7,83,silent,yellow,440.45022359999984,None,None,440.45022359999984,None,,,,,,,,,,,,,,,,,,,,,,,,,,,,,,,,,,,Silent13,001,2022_Aug_03_1538,ProdSingRedoBetween,2021.2.3,59.883825378867684,
83,0,83,0,,,,,,,,,,,,,,,,,,,,,,,,,,444.96927479999977,None,cousin,29,84,silent,blue,442.9542944999994,None,None,442.9542944999994,None,,,,,,,,,,,,,,,,,,,,,,,,,,,,,,,,,,,Silent13,001,2022_Aug_03_1538,ProdSingRedoBetween,2021.2.3,59.883825378867684,
84,0,84,0,,,,,,,,,,,,,,,,,,,,,,,,,,447.47195699999975,None,title,75,85,silent,red,445.4698268000002,None,None,445.4698268000002,None,,,,,,,,,,,,,,,,,,,,,,,,,,,,,,,,,,,Silent13,001,2022_Aug_03_1538,ProdSingRedoBetween,2021.2.3,59.883825378867684,
85,0,85,0,,,,,,,,,,,,,,,,,,,,,,,,,,449.9746390999999,None,clear,58,86,silent,blue,447.9747784000001,None,None,447.9747784000001,None,,,,,,,,,,,,,,,,,,,,,,,,,,,,,,,,,,,Silent13,001,2022_Aug_03_1538,ProdSingRedoBetween,2021.2.3,59.883825378867684,
86,0,86,0,,,,,,,,,,,,,,,,,,,,,,,,,,452.47701770000003,None,career,24,87,silent,yellow,450.47499869999956,None,None,450.47499869999956,None,,,,,,,,,,,,,,,,,,,,,,,,,,,,,,,,,,,Silent13,001,2022_Aug_03_1538,ProdSingRedoBetween,2021.2.3,59.883825378867684,
87,0,87,0,,,,,,,,,,,,,,,,,,,,,,,,,,454.97956479999993,None,style,77,88,silent,red,452.97817719999966,None,None,452.97817719999966,None,,,,,,,,,,,,,,,,,,,,,,,,,,,,,,,,,,,Silent13,001,2022_Aug_03_1538,ProdSingRedoBetween,2021.2.3,59.883825378867684,
88,0,88,0,,,,,,,,,,,,,,,,,,,,,,,,,,457.48188070000015,None,break,85,89,silent,red,455.4825031999999,None,None,455.4825031999999,None,,,,,,,,,,,,,,,,,,,,,,,,,,,,,,,,,,,Silent13,001,2022_Aug_03_1538,ProdSingRedoBetween,2021.2.3,59.883825378867684,
89,0,89,0,,,,,,,,,,,,,,,,,,,,,,,,,,459.9843707,None,gesture,56,90,silent,blue,457.98514989999967,None,None,457.98514989999967,None,,,,,,,,,,,,,,,,,,,,,,,,,,,,,,,,,,,Silent13,001,2022_Aug_03_1538,ProdSingRedoBetween,2021.2.3,59.883825378867684,
,,,,,,,,,,,,,,,,,,,,,,,,,,,,,,,,,,,,,,,,,460.4852965,None,k,112.31800440000006,460.4852965,None,,,,,,,,,,,,,,,,,,,,,,,,,,,,,Silent13,001,2022_Aug_03_1538,ProdSingRedoBetween,2021.2.3,59.883825378867684,
,,,,0,0,0,0,,,,,,,,,,,,,,,,,,,,,,583.9583560000001,None,,,,,,,,,,,,,,,,,council,93,1,silent,new,null,573.3402513999999,None,573.3402513999999,None,1,6.8790767000000415,573.3402513999999,None,6.8790767000000415,580.2439067999994,None,580.7586635999996,None,580.7586635999996,None,n,3.172443299999941,580.7586635999996,None,3.172443299999941,,,Silent13,001,2022_Aug_03_1538,ProdSingRedoBetween,2021.2.3,59.883825378867684,
,,,,1,0,1,0,,,,,,,,,,,,,,,,,,,,,,589.0631900999997,None,,,,,,,,,,,,,,,,,pretty,11,2,silent,old,yellow,584.4593408999999,None,584.4593408999999,None,1,3.079743999999664,584.4593408999999,None,3.079743999999664,587.5689580999997,None,588.0793206999997,None,588.0793206999997,None,n,0.9638417999994999,588.0793206999997,None,0.9638417999994999,,,Silent13,001,2022_Aug_03_1538,ProdSingRedoBetween,2021.2.3,59.883825378867684,
,,,,2,0,2,0,,,,,,,,,,,,,,,,,,,,,,593.6180225999997,None,,,,,,,,,,,,,,,,,property,95,3,silent,new,null,589.5743727999998,None,589.5743727999998,None,1,2.8127777999998216,589.5743727999998,None,2.8127777999998216,592.4184636999998,None,592.9379982999999,None,592.9379982999999,None,n,0.6491516999994928,592.9379982999999,None,0.6491516999994928,,,Silent13,001,2022_Aug_03_1538,ProdSingRedoBetween,2021.2.3,59.883825378867684,
,,,,3,0,3,0,,,,,,,,,,,,,,,,,,,,,,597.4051533000002,None,,,,,,,,,,,,,,,,,fashion,2,4,silent,old,yellow,594.1286700999999,None,594.1286700999999,None,1,2.274390499999754,594.1286700999999,None,2.274390499999754,596.4215994999995,None,596.9238209999994,None,596.9238209999994,None,n,0.46330849999958446,596.9238209999994,None,0.46330849999958446,,,Silent13,001,2022_Aug_03_1538,ProdSingRedoBetween,2021.2.3,59.883825378867684,
,,,,4,0,4,0,,,,,,,,,,,,,,,,,,,,,,600.397293,None,,,,,,,,,,,,,,,,,group,154,5,silent,new,null,597.9167207,None,597.9167207,None,1,1.478498500000569,597.9167207,None,1.478498500000569,599.4318709999998,None,599.9458783,None,599.9458783,None,n,0.4253711999999723,599.9458783,None,0.4253711999999723,,,Silent13,001,2022_Aug_03_1538,ProdSingRedoBetween,2021.2.3,59.883825378867684,
,,,,5,0,5,0,,,,,,,,,,,,,,,,,,,,,,605.4799062000002,None,,,,,,,,,,,,,,,,,speech,149,6,silent,new,null,600.9137000999999,None,600.9137000999999,None,1,1.5774979999996503,600.9137000999999,None,1.5774979999996503,602.5114893999998,None,603.0110722999998,None,603.0110722999998,None,n,2.4401193999992756,603.0110722999998,None,2.4401193999992756,,,Silent13,001,2022_Aug_03_1538,ProdSingRedoBetween,2021.2.3,59.883825378867684,
,,,,6,0,6,0,,,,,,,,,,,,,,,,,,,,,,608.8048442999998,None,,,,,,,,,,,,,,,,,carry,117,7,silent,new,null,605.9856737999999,None,605.9856737999999,None,1,1.7055358999996315,605.9856737999999,None,1.7055358999996315,607.7176283999997,None,608.2428058999994,None,608.2428058999994,None,n,0.5285006000003705,608.2428058999994,None,0.5285006000003705,,,Silent13,001,2022_Aug_03_1538,ProdSingRedoBetween,2021.2.3,59.883825378867684,
,,,,7,0,7,0,,,,,,,,,,,,,,,,,,,,,,612.5703329999997,None,,,,,,,,,,,,,,,,,breath,147,8,silent,new,null,609.3233295,None,609.3233295,None,1,1.43984300000011,609.3233295,None,1.43984300000011,610.7849924000002,None,611.2935927999997,None,611.2935927999997,None,n,1.2615455000004658,611.2935927999997,None,1.2615455000004658,,,Silent13,001,2022_Aug_03_1538,ProdSingRedoBetween,2021.2.3,59.883825378867684,
,,,,8,0,8,0,,,,,,,,,,,,,,,,,,,,,,616.5107403000002,None,,,,,,,,,,,,,,,,,dance,79,9,silent,old,red,613.0773872999998,None,613.0773872999998,None,1,2.4296634000002086,613.0773872999998,None,2.4296634000002086,615.5242129999997,None,616.0320873000001,None,616.0320873000001,None,n,0.4511537000007593,616.0320873000001,None,0.4511537000007593,,,Silent13,001,2022_Aug_03_1538,ProdSingRedoBetween,2021.2.3,59.883825378867684,
,,,,9,0,9,0,,,,,,,,,,,,,,,,,,,,,,621.3958573999998,None,,,,,,,,,,,,,,,,,passage,162,10,silent,new,null,617.0358615999994,None,617.0358615999994,None,1,2.7992229000001316,617.0358615999994,None,2.7992229000001316,619.8620350000001,None,620.3665537999996,None,620.3665537999996,None,n,1.012547799999993,620.3665537999996,None,1.012547799999993,,,Silent13,001,2022_Aug_03_1538,ProdSingRedoBetween,2021.2.3,59.883825378867684,
,,,,10,0,10,0,,,,,,,,,,,,,,,,,,,,,,624.3527726000002,None,,,,,,,,,,,,,,,,,meeting,133,11,silent,new,null,621.9051310999994,None,621.9051310999994,None,1,1.3140373000005638,621.9051310999994,None,1.3140373000005638,623.2482804000001,None,623.7484180000001,None,623.7484180000001,None,n,0.5826653000003716,623.7484180000001,None,0.5826653000003716,,,Silent13,001,2022_Aug_03_1538,ProdSingRedoBetween,2021.2.3,59.883825378867684,
,,,,11,0,11,0,,,,,,,,,,,,,,,,,,,,,,629.4538033999997,None,,,,,,,,,,,,,,,,,stand,132,12,silent,new,null,624.8869576999996,None,624.8869576999996,None,3,3.1881493000000773,624.8869576999996,None,3.1881493000000773,628.1026058999996,None,628.6072242,None,628.6072242,None,n,0.8199985999999626,628.6072242,None,0.8199985999999626,,,Silent13,001,2022_Aug_03_1538,ProdSingRedoBetween,2021.2.3,59.883825378867684,
,,,,12,0,12,0,,,,,,,,,,,,,,,,,,,,,,633.2743965999998,None,,,,,,,,,,,,,,,,,write,96,13,silent,new,null,629.9568283999997,None,629.9568283999997,None,2,2.4063021000001754,629.9568283999997,None,2.4063021000001754,632.3910109999997,None,632.8950372999998,None,632.8950372999998,None,n,0.3641096000001198,632.8950372999998,None,0.3641096000001198,,,Silent13,001,2022_Aug_03_1538,ProdSingRedoBetween,2021.2.3,59.883825378867684,
,,,,13,0,13,0,,,,,,,,,,,,,,,,,,,,,,636.2940245999998,None,,,,,,,,,,,,,,,,,light,153,14,silent,new,null,633.7834702999999,None,633.7834702999999,None,1,1.5316806000000724,633.7834702999999,None,1.5316806000000724,635.3508454000003,None,635.8602114999994,None,635.8602114999994,None,n,0.40705090000028576,635.8602114999994,None,0.40705090000028576,,,Silent13,001,2022_Aug_03_1538,ProdSingRedoBetween,2021.2.3,59.883825378867684,
,,,,14,0,14,0,,,,,,,,,,,,,,,,,,,,,,641.3988787999997,None,,,,,,,,,,,,,,,,,school,158,15,silent,new,null,636.8013530999997,None,636.8013530999997,None,3,3.793887399999221,636.8013530999997,None,3.793887399999221,640.6183685999995,None,641.1323014999998,None,641.1323014999998,None,n,0.24696899999980815,641.1323014999998,None,0.24696899999980815,,,Silent13,001,2022_Aug_03_1538,ProdSingRedoBetween,2021.2.3,59.883825378867684,
,,,,15,0,15,0,,,,,,,,,,,,,,,,,,,,,,644.6023232999996,None,,,,,,,,,,,,,,,,,science,121,16,silent,new,null,641.9026599999997,None,641.9026599999997,None,1,1.7164951000004294,641.9026599999997,None,1.7164951000004294,643.6359051,None,644.1400003999997,None,644.1400003999997,None,n,0.4392453000000387,644.1400003999997,None,0.4392453000000387,,,Silent13,001,2022_Aug_03_1538,ProdSingRedoBetween,2021.2.3,59.883825378867684,
,,,,16,0,16,0,,,,,,,,,,,,,,,,,,,,,,652.0097374999996,None,,,,,,,,,,,,,,,,,atmosphere,23,17,silent,old,yellow,645.1118471,None,645.1118471,None,6,4.979312699999355,645.1118471,None,4.979312699999355,650.1184408999998,None,650.6260812999999,None,650.6260812999999,None,f,1.3531010999995488,650.6260812999999,None,1.3531010999995488,,,Silent13,001,2022_Aug_03_1538,ProdSingRedoBetween,2021.2.3,59.883825378867684,
,,,,17,0,17,0,,,,,,,,,,,,,,,,,,,,,,655.4129146999994,None,,,,,,,,,,,,,,,,,resistance,4,18,silent,old,yellow,652.5150392999994,None,652.5150392999994,None,2,2.112148399999569,652.5150392999994,None,2.112148399999569,654.6473311,None,655.1627177999999,None,655.1627177999999,None,n,0.2324453999999605,655.1627177999999,None,0.2324453999999605,,,Silent13,001,2022_Aug_03_1538,ProdSingRedoBetween,2021.2.3,59.883825378867684,
,,,,18,0,18,0,,,,,,,,,,,,,,,,,,,,,,658.4826351000002,None,,,,,,,,,,,,,,,,,charter,135,19,silent,new,null,655.9203202999997,None,655.9203202999997,None,1,1.6828546999995524,655.9203202999997,None,1.6828546999995524,657.6326721999994,None,658.1381518999997,None,658.1381518999997,None,n,0.3290344000006371,658.1381518999997,None,0.3290344000006371,,,Silent13,001,2022_Aug_03_1538,ProdSingRedoBetween,2021.2.3,59.883825378867684,
,,,,19,0,19,0,,,,,,,,,,,,,,,,,,,,,,661.6526119,None,,,,,,,,,,,,,,,,,working,138,20,silent,new,null,658.9952773999994,None,658.9952773999994,None,1,1.5358879999994315,658.9952773999994,None,1.5358879999994315,660.5528875999998,None,661.0523360999996,None,661.0523360999996,None,n,0.5830427999999301,661.0523360999996,None,0.5830427999999301,,,Silent13,001,2022_Aug_03_1538,ProdSingRedoBetween,2021.2.3,59.883825378867684,
,,,,20,0,20,0,,,,,,,,,,,,,,,,,,,,,,666.0905249999996,None,,,,,,,,,,,,,,,,,clean,163,21,silent,new,null,662.1601183000002,None,662.1601183000002,None,1,3.0110586999999214,662.1601183000002,None,3.0110586999999214,665.1896784,None,665.6928877,None,665.6928877,None,n,0.3824469000001045,665.6928877,None,0.3824469000001045,,,Silent13,001,2022_Aug_03_1538,ProdSingRedoBetween,2021.2.3,59.883825378867684,
,,,,21,0,21,0,,,,,,,,,,,,,,,,,,,,,,672.6304125999995,None,,,,,,,,,,,,,,,,,poetry,31,22,silent,old,blue,666.6089020999998,None,666.6089020999998,None,6,3.4502565000002505,666.6089020999998,None,3.4502565000002505,670.0844219999999,None,670.5983002000003,None,670.5983002000003,None,f,2.012889399999949,670.5983002000003,None,2.012889399999949,,,Silent13,001,2022_Aug_03_1538,ProdSingRedoBetween,2021.2.3,59.883825378867684,
,,,,22,0,22,0,,,,,,,,,,,,,,,,,,,,,,675.8835553999998,None,,,,,,,,,,,,,,,,,junior,166,23,silent,new,null,673.1455737999995,None,673.1455737999995,None,2,1.8417276999998649,673.1455737999995,None,1.8417276999998649,675.0206409000002,None,675.5355400999997,None,675.5355400999997,None,n,0.32368640000004234,675.5355400999997,None,0.32368640000004234,,,Silent13,001,2022_Aug_03_1538,ProdSingRedoBetween,2021.2.3,59.883825378867684,
,,,,23,0,23,0,,,,,,,,,,,,,,,,,,,,,,678.5695986999999,None,,,,,,,,,,,,,,,,,front,65,24,silent,old,red,676.3939377999995,None,676.3939377999995,None,1,1.2972479000000021,676.3939377999995,None,1.2972479000000021,677.7237212,None,678.2407799000002,None,678.2407799000002,None,n,0.29847369999970397,678.2407799000002,None,0.29847369999970397,,,Silent13,001,2022_Aug_03_1538,ProdSingRedoBetween,2021.2.3,59.883825378867684,
,,,,24,0,24,0,,,,,,,,,,,,,,,,,,,,,,682.7237924000001,None,,,,,,,,,,,,,,,,,stranger,104,25,silent,new,null,679.0731742999997,None,679.0731742999997,None,2,2.738116700000319,679.0731742999997,None,2.738116700000319,681.8471878999999,None,682.3592616999995,None,682.3592616999995,None,n,0.3399408000004769,682.3592616999995,None,0.3399408000004769,,,Silent13,001,2022_Aug_03_1538,ProdSingRedoBetween,2021.2.3,59.883825378867684,
,,,,25,0,25,0,,,,,,,,,,,,,,,,,,,,,,686.3998604999997,None,,,,,,,,,,,,,,,,,build,7,26,silent,old,yellow,683.2263741999996,None,683.2263741999996,None,1,2.3287226000002192,683.2263741999996,None,2.3287226000002192,685.5808791999998,None,686.0945151999995,None,686.0945151999995,None,n,0.2768876000000091,686.0945151999995,None,0.2768876000000091,,,Silent13,001,2022_Aug_03_1538,ProdSingRedoBetween,2021.2.3,59.883825378867684,
,,,,26,0,26,0,,,,,,,,,,,,,,,,,,,,,,689.5972756000001,None,,,,,,,,,,,,,,,,,display,12,27,silent,old,yellow,686.9156844999998,None,686.9156844999998,None,1,1.8155134999997244,686.9156844999998,None,1.8155134999997244,688.7475328,None,689.2470216000002,None,689.2470216000002,None,n,0.33218140000008134,689.2470216000002,None,0.33218140000008134,,,Silent13,001,2022_Aug_03_1538,ProdSingRedoBetween,2021.2.3,59.883825378867684,
,,,,27,0,27,0,,,,,,,,,,,,,,,,,,,,,,695.3864515999994,None,,,,,,,,,,,,,,,,,color,86,28,silent,old,red,690.0999127999994,None,690.0999127999994,None,3,3.4232893000007607,690.0999127999994,None,3.4232893000007607,693.5525038999995,None,694.0527249999996,None,694.0527249999996,None,n,1.310474200000499,694.0527249999996,None,1.310474200000499,,,Silent13,001,2022_Aug_03_1538,ProdSingRedoBetween,2021.2.3,59.883825378867684,
,,,,28,0,28,0,,,,,,,,,,,,,,,,,,,,,,698.3227226999998,None,,,,,,,,,,,,,,,,,thing,155,29,silent,new,null,695.8920092999997,None,695.8920092999997,None,1,1.7671871000002284,695.8920092999997,None,1.7671871000002284,697.6901723999999,None,698.1929086999999,None,698.1929086999999,None,n,0.11430959999961487,698.1929086999999,None,0.11430959999961487,,,Silent13,001,2022_Aug_03_1538,ProdSingRedoBetween,2021.2.3,59.883825378867684,
,,,,29,0,29,0,,,,,,,,,,,,,,,,,,,,,,703.9449575999997,None,,,,,,,,,,,,,,,,,capital,105,30,silent,new,null,698.8342723999995,None,698.8342723999995,None,4,3.7528424000001905,698.8342723999995,None,3.7528424000001905,702.6103057,None,703.1151594000003,None,703.1151594000003,None,n,0.8000060000003941,703.1151594000003,None,0.8000060000003941,,,Silent13,001,2022_Aug_03_1538,ProdSingRedoBetween,2021.2.3,59.883825378867684,
,,,,30,0,30,0,,,,,,,,,,,,,,,,,,,,,,706.7311166,None,,,,,,,,,,,,,,,,,bicycle,3,31,silent,old,yellow,704.4513486999995,None,704.4513486999995,None,1,1.511819000000287,704.4513486999995,None,1.511819000000287,705.9824355999999,None,706.4987869999995,None,706.4987869999995,None,n,0.21640610000031302,706.4987869999995,None,0.21640610000031302,,,Silent13,001,2022_Aug_03_1538,ProdSingRedoBetween,2021.2.3,59.883825378867684,
,,,,31,0,31,0,,,,,,,,,,,,,,,,,,,,,,711.3691935999996,None,,,,,,,,,,,,,,,,,pressure,64,32,silent,old,red,707.2429149,None,707.2429149,None,6,2.7442965999998705,707.2429149,None,2.7442965999998705,710.0186943999997,None,710.5183877,None,710.5183877,None,f,0.8287527000002228,710.5183877,None,0.8287527000002228,,,Silent13,001,2022_Aug_03_1538,ProdSingRedoBetween,2021.2.3,59.883825378867684,
,,,,32,0,32,0,,,,,,,,,,,,,,,,,,,,,,714.5756741999994,None,,,,,,,,,,,,,,,,,edition,35,33,silent,old,blue,711.8789686999999,None,711.8789686999999,None,2,1.8681418000005579,711.8789686999999,None,1.8681418000005579,713.7761234,None,714.2884632999994,None,714.2884632999994,None,n,0.26670649999960006,714.2884632999994,None,0.26670649999960006,,,Silent13,001,2022_Aug_03_1538,ProdSingRedoBetween,2021.2.3,59.883825378867684,
,,,,33,0,33,0,,,,,,,,,,,,,,,,,,,,,,718.7931719999997,None,,,,,,,,,,,,,,,,,candidate,84,34,silent,old,red,715.0900627000001,None,715.0900627000001,None,6,2.0010700000002544,715.0900627000001,None,2.0010700000002544,717.1099617,None,717.6254336000002,None,717.6254336000002,None,f,1.1378260999999839,717.6254336000002,None,1.1378260999999839,,,Silent13,001,2022_Aug_03_1538,ProdSingRedoBetween,2021.2.3,59.883825378867684,
,,,,34,0,34,0,,,,,,,,,,,,,,,,,,,,,,722.1130947000001,None,,,,,,,,,,,,,,,,,profession,67,35,silent,old,red,719.3040458999994,None,719.3040458999994,None,2,2.043274999999994,719.3040458999994,None,2.043274999999994,721.3638886999997,None,721.8797212,None,721.8797212,None,n,0.2113907000002655,721.8797212,None,0.2113907000002655,,,Silent13,001,2022_Aug_03_1538,ProdSingRedoBetween,2021.2.3,59.883825378867684,
,,,,35,0,35,0,,,,,,,,,,,,,,,,,,,,,,727.4851606000002,None,,,,,,,,,,,,,,,,,education,50,36,silent,old,blue,722.6223203,None,722.6223203,None,3,4.076809600000161,722.6223203,None,4.076809600000161,726.7188504999995,None,727.2212389999995,None,727.2212389999995,None,n,0.23810060000050726,727.2212389999995,None,0.23810060000050726,,,Silent13,001,2022_Aug_03_1538,ProdSingRedoBetween,2021.2.3,59.883825378867684,
,,,,36,0,36,0,,,,,,,,,,,,,,,,,,,,,,730.1228025,None,,,,,,,,,,,,,,,,,trial,116,37,silent,new,null,727.9868598000003,None,727.9868598000003,None,1,1.2964354999994612,727.9868598000003,None,1.2964354999994612,729.3092688999996,None,729.8208955,None,729.8208955,None,n,0.2703437000000122,729.8208955,None,0.2703437000000122,,,Silent13,001,2022_Aug_03_1538,ProdSingRedoBetween,2021.2.3,59.883825378867684,
,,,,37,0,37,0,,,,,,,,,,,,,,,,,,,,,,735.9767518999997,None,,,,,,,,,,,,,,,,,direction,178,38,silent,new,null,730.6444989000001,None,730.6444989000001,None,1,4.582722699999977,730.6444989000001,None,4.582722699999977,735.2438259999999,None,735.7435064000001,None,735.7435064000001,None,n,0.20375910000075237,735.7435064000001,None,0.20375910000075237,,,Silent13,001,2022_Aug_03_1538,ProdSingRedoBetween,2021.2.3,59.883825378867684,
,,,,38,0,38,0,,,,,,,,,,,,,,,,,,,,,,740.6316233999996,None,,,,,,,,,,,,,,,,,emergency,30,39,silent,old,blue,736.4808809999995,None,736.4808809999995,None,6,1.4103412999993452,736.4808809999995,None,1.4103412999993452,737.9143503999994,None,738.4335548999998,None,738.4335548999998,None,r,2.169662700000117,738.4335548999998,None,2.169662700000117,,,Silent13,001,2022_Aug_03_1538,ProdSingRedoBetween,2021.2.3,59.883825378867684,
,,,,39,0,39,0,,,,,,,,,,,,,,,,,,,,,,746.5875492999994,None,,,,,,,,,,,,,,,,,dream,131,40,silent,new,null,741.1424061999996,None,741.1424061999996,None,5,3.668715200000406,741.1424061999996,None,3.668715200000406,744.8370279999999,None,745.3363081999996,None,745.3363081999996,None,f,1.2270066999999472,745.3363081999996,None,1.2270066999999472,,,Silent13,001,2022_Aug_03_1538,ProdSingRedoBetween,2021.2.3,59.883825378867684,
,,,,40,0,40,0,,,,,,,,,,,,,,,,,,,,,,749.0733904999997,None,,,,,,,,,,,,,,,,,prime,157,41,silent,new,null,747.0910575999997,None,747.0910575999997,None,1,1.2481539999998859,747.0910575999997,None,1.2481539999998859,748.3596086999996,None,748.8733110000003,None,748.8733110000003,None,n,0.16993039999942994,748.8733110000003,None,0.16993039999942994,,,Silent13,001,2022_Aug_03_1538,ProdSingRedoBetween,2021.2.3,59.883825378867684,
,,,,41,0,41,0,,,,,,,,,,,,,,,,,,,,,,752.1931495999997,None,,,,,,,,,,,,,,,,,drama,21,42,silent,old,yellow,749.5819579999998,None,749.5819579999998,None,1,1.717333200000212,749.5819579999998,None,1.717333200000212,751.3274572999999,None,751.8429306999997,None,751.8429306999997,None,n,0.3202473999999711,751.8429306999997,None,0.3202473999999711,,,Silent13,001,2022_Aug_03_1538,ProdSingRedoBetween,2021.2.3,59.883825378867684,
,,,,42,0,42,0,,,,,,,,,,,,,,,,,,,,,,757.5669152,None,,,,,,,,,,,,,,,,,engineer,103,43,silent,new,null,752.7027767999998,None,752.7027767999998,None,3,3.708425700000589,752.7027767999998,None,3.708425700000589,756.4334035000002,None,756.9503141999994,None,756.9503141999994,None,n,0.5973001000002114,756.9503141999994,None,0.5973001000002114,,,Silent13,001,2022_Aug_03_1538,ProdSingRedoBetween,2021.2.3,59.883825378867684,
,,,,43,0,43,0,,,,,,,,,,,,,,,,,,,,,,760.2179041999998,None,,,,,,,,,,,,,,,,,murder,106,44,silent,new,null,758.0868037999999,None,758.0868037999999,None,1,1.3164073999996617,758.0868037999999,None,1.3164073999996617,759.4355176999998,None,759.9510638000002,None,759.9510638000002,None,n,0.2441560000006575,759.9510638000002,None,0.2441560000006575,,,Silent13,001,2022_Aug_03_1538,ProdSingRedoBetween,2021.2.3,59.883825378867684,
,,,,44,0,44,0,,,,,,,,,,,,,,,,,,,,,,762.9219748999994,None,,,,,,,,,,,,,,,,,incident,8,45,silent,old,yellow,760.7210783,None,760.7210783,None,1,1.2261392000000342,760.7210783,None,1.2261392000000342,761.9727848000002,None,762.4930061999994,None,762.4930061999994,None,n,0.3982225000008839,762.4930061999994,None,0.3982225000008839,,,Silent13,001,2022_Aug_03_1538,ProdSingRedoBetween,2021.2.3,59.883825378867684,
,,,,45,0,45,0,,,,,,,,,,,,,,,,,,,,,,765.3896686999997,None,,,,,,,,,,,,,,,,,recall,38,46,silent,old,blue,763.436146,None,763.436146,None,1,1.1671237000000474,763.436146,None,1.1671237000000474,764.6294293000001,None,765.1395987999995,None,765.1395987999995,None,n,0.23154819999945175,765.1395987999995,None,0.23154819999945175,,,Silent13,001,2022_Aug_03_1538,ProdSingRedoBetween,2021.2.3,59.883825378867684,
,,,,46,0,46,0,,,,,,,,,,,,,,,,,,,,,,768.0257382999998,None,,,,,,,,,,,,,,,,,youth,144,47,silent,new,null,765.9095531000003,None,765.9095531000003,None,1,1.237583099999938,765.9095531000003,None,1.237583099999938,767.1751668999996,None,767.6752968999999,None,767.6752968999999,None,n,0.32801219999964815,767.6752968999999,None,0.32801219999964815,,,Silent13,001,2022_Aug_03_1538,ProdSingRedoBetween,2021.2.3,59.883825378867684,
,,,,47,0,47,0,,,,,,,,,,,,,,,,,,,,,,771.3464119,None,,,,,,,,,,,,,,,,,foundation,15,48,silent,old,yellow,768.5262426999998,None,768.5262426999998,None,3,1.9490145999998276,768.5262426999998,None,1.9490145999998276,770.4980660000001,None,771.0121337,None,771.0121337,None,n,0.303158099999564,771.0121337,None,0.303158099999564,,,Silent13,001,2022_Aug_03_1538,ProdSingRedoBetween,2021.2.3,59.883825378867684,
,,,,48,0,48,0,,,,,,,,,,,,,,,,,,,,,,773.7981204999996,None,,,,,,,,,,,,,,,,,column,36,49,silent,old,blue,771.8510501999999,None,771.8510501999999,None,1,1.1921798000003037,771.8510501999999,None,1.1921798000003037,773.0658911,None,773.5869129000002,None,773.5869129000002,None,n,0.19236189999992348,773.5869129000002,None,0.19236189999992348,,,Silent13,001,2022_Aug_03_1538,ProdSingRedoBetween,2021.2.3,59.883825378867684,
,,,,49,0,49,0,,,,,,,,,,,,,,,,,,,,,,777.2354771,None,,,,,,,,,,,,,,,,,character,61,50,silent,old,red,774.3090673999995,None,774.3090673999995,None,6,1.6061436999998477,774.3090673999995,None,1.6061436999998477,775.9346532,None,776.4394241,None,776.4394241,None,f,0.7717599000006885,776.4394241,None,0.7717599000006885,,,Silent13,001,2022_Aug_03_1538,ProdSingRedoBetween,2021.2.3,59.883825378867684,
,,,,50,0,50,0,,,,,,,,,,,,,,,,,,,,,,781.0050483999994,None,,,,,,,,,,,,,,,,,smooth,137,51,silent,new,null,777.7352710999994,None,777.7352710999994,None,1,1.6439077000004545,777.7352710999994,None,1.6439077000004545,779.4123485999999,None,779.9222066000002,None,779.9222066000002,None,n,1.0649773999994068,779.9222066000002,None,1.0649773999994068,,,Silent13,001,2022_Aug_03_1538,ProdSingRedoBetween,2021.2.3,59.883825378867684,
,,,,51,0,51,0,,,,,,,,,,,,,,,,,,,,,,784.5263978000003,None,,,,,,,,,,,,,,,,,vision,44,52,silent,old,blue,781.5141003999997,None,781.5141003999997,None,5,1.801336500000616,781.5141003999997,None,1.801336500000616,783.3468230999997,None,783.8583227999998,None,783.8583227999998,None,f,0.6409621000002517,783.8583227999998,None,0.6409621000002517,,,Silent13,001,2022_Aug_03_1538,ProdSingRedoBetween,2021.2.3,59.883825378867684,
,,,,52,0,52,0,,,,,,,,,,,,,,,,,,,,,,789.2468546999999,None,,,,,,,,,,,,,,,,,right,130,53,silent,new,null,785.0364001999997,None,785.0364001999997,None,2,1.8548208000001978,785.0364001999997,None,1.8548208000001978,786.9120991,None,787.4126459999998,None,787.4126459999998,None,n,1.814587300000312,787.4126459999998,None,1.814587300000312,,,Silent13,001,2022_Aug_03_1538,ProdSingRedoBetween,2021.2.3,59.883825378867684,
,,,,53,0,53,0,,,,,,,,,,,,,,,,,,,,,,791.9203761999997,None,,,,,,,,,,,,,,,,,testimony,72,54,silent,old,red,789.7572546000001,None,789.7572546000001,None,1,1.286093599999731,789.7572546000001,None,1.286093599999731,791.0741165999998,None,791.5824487999998,None,791.5824487999998,None,n,0.3172178000004351,791.5824487999998,None,0.3172178000004351,,,Silent13,001,2022_Aug_03_1538,ProdSingRedoBetween,2021.2.3,59.883825378867684,
,,,,54,0,54,0,,,,,,,,,,,,,,,,,,,,,,796.0201974000001,None,,,,,,,,,,,,,,,,,medicine,66,55,silent,old,red,792.4422159999995,None,792.4422159999995,None,4,2.7210246999993615,792.4422159999995,None,2.7210246999993615,795.1870633999997,None,795.6913093000003,None,795.6913093000003,None,n,0.30380830000012793,795.6913093000003,None,0.30380830000012793,,,Silent13,001,2022_Aug_03_1538,ProdSingRedoBetween,2021.2.3,59.883825378867684,
,,,,55,0,55,0,,,,,,,,,,,,,,,,,,,,,,798.7059934999997,None,,,,,,,,,,,,,,,,,debate,71,56,silent,old,red,796.5206809000001,None,796.5206809000001,None,1,1.4104622000004383,796.5206809000001,None,1.4104622000004383,797.9553003000001,None,798.4558969,None,798.4558969,None,n,0.21926719999919442,798.4558969,None,0.21926719999919442,,,Silent13,001,2022_Aug_03_1538,ProdSingRedoBetween,2021.2.3,59.883825378867684,
,,,,56,0,56,0,,,,,,,,,,,,,,,,,,,,,,801.2586191999999,None,,,,,,,,,,,,,,,,,thick,148,57,silent,new,null,799.2068014999995,None,799.2068014999995,None,1,1.2364124999994601,799.2068014999995,None,1.2364124999994601,800.4578941,None,800.958893,None,800.958893,None,n,0.2763150000000678,800.958893,None,0.2763150000000678,,,Silent13,001,2022_Aug_03_1538,ProdSingRedoBetween,2021.2.3,59.883825378867684,
,,,,57,0,57,0,,,,,,,,,,,,,,,,,,,,,,804.5951705999996,None,,,,,,,,,,,,,,,,,couch,92,58,silent,new,null,801.7593305,None,801.7593305,None,4,1.787862099999984,801.7593305,None,1.787862099999984,803.5796476999994,None,804.0948884999998,None,804.0948884999998,None,f,0.4763144000007742,804.0948884999998,None,0.4763144000007742,,,Silent13,001,2022_Aug_03_1538,ProdSingRedoBetween,2021.2.3,59.883825378867684,
,,,,58,0,58,0,,,,,,,,,,,,,,,,,,,,,,807.9852076999996,None,,,,,,,,,,,,,,,,,guest,34,59,silent,old,blue,805.1032639999994,None,805.1032639999994,None,6,1.891870800000106,805.1032639999994,None,1.891870800000106,807.0143518999994,None,807.5151713999994,None,807.5151713999994,None,f,0.4480796999996528,807.5151713999994,None,0.4480796999996528,,,Silent13,001,2022_Aug_03_1538,ProdSingRedoBetween,2021.2.3,59.883825378867684,
,,,,59,0,59,0,,,,,,,,,,,,,,,,,,,,,,810.6514605000002,None,,,,,,,,,,,,,,,,,turkey,164,60,silent,new,null,808.4993021999999,None,808.4993021999999,None,1,1.3439392999998745,808.4993021999999,None,1.3439392999998745,809.8736512999994,None,810.3846372999997,None,810.3846372999997,None,n,0.25047129999984463,810.3846372999997,None,0.25047129999984463,,,Silent13,001,2022_Aug_03_1538,ProdSingRedoBetween,2021.2.3,59.883825378867684,
,,,,60,0,60,0,,,,,,,,,,,,,,,,,,,,,,813.7378403000002,None,,,,,,,,,,,,,,,,,household,114,61,silent,new,null,811.1519094999994,None,811.1519094999994,None,1,1.7553630000002158,811.1519094999994,None,1.7553630000002158,812.9371537999996,None,813.4377319999994,None,813.4377319999994,None,n,0.2854442999996536,813.4377319999994,None,0.2854442999996536,,,Silent13,001,2022_Aug_03_1538,ProdSingRedoBetween,2021.2.3,59.883825378867684,
,,,,61,0,61,0,,,,,,,,,,,,,,,,,,,,,,816.5403641000003,None,,,,,,,,,,,,,,,,,waste,14,62,silent,old,yellow,814.2384514999994,None,814.2384514999994,None,1,1.4848255000006247,814.2384514999994,None,1.4848255000006247,815.7397272999997,None,816.2405475999994,None,816.2405475999994,None,n,0.28261750000001484,816.2405475999994,None,0.28261750000001484,,,Silent13,001,2022_Aug_03_1538,ProdSingRedoBetween,2021.2.3,59.883825378867684,
,,,,62,0,62,0,,,,,,,,,,,,,,,,,,,,,,820.6947915000001,None,,,,,,,,,,,,,,,,,impact,161,63,silent,new,null,817.0413608999997,None,817.0413608999997,None,3,2.8098990999997113,817.0413608999997,None,2.8098990999997113,819.8785662999999,None,820.3779069000002,None,820.3779069000002,None,n,0.28929490000064106,820.3779069000002,None,0.28929490000064106,,,Silent13,001,2022_Aug_03_1538,ProdSingRedoBetween,2021.2.3,59.883825378867684,
,,,,63,0,63,0,,,,,,,,,,,,,,,,,,,,,,823.2642092999995,None,,,,,,,,,,,,,,,,,nation,171,64,silent,new,null,821.2091788999996,None,821.2091788999996,None,1,1.250086599999122,821.2091788999996,None,1.250086599999122,822.4822824000003,None,823.0023185,None,823.0023185,None,n,0.24095560000023397,823.0023185,None,0.24095560000023397,,,Silent13,001,2022_Aug_03_1538,ProdSingRedoBetween,2021.2.3,59.883825378867684,
,,,,64,0,64,0,,,,,,,,,,,,,,,,,,,,,,826.6173450999995,None,,,,,,,,,,,,,,,,,private,150,65,silent,new,null,823.7758358000001,None,823.7758358000001,None,5,1.723371799999768,823.7758358000001,None,1.723371799999768,825.5185273999996,None,826.0337344999998,None,826.0337344999998,None,f,0.5615382000005411,826.0337344999998,None,0.5615382000005411,,,Silent13,001,2022_Aug_03_1538,ProdSingRedoBetween,2021.2.3,59.883825378867684,
,,,,65,0,65,0,,,,,,,,,,,,,,,,,,,,,,829.9875749000003,None,,,,,,,,,,,,,,,,,express,98,66,silent,new,null,827.1208053,None,827.1208053,None,1,2.146736800000326,827.1208053,None,2.146736800000326,829.2927492999997,None,829.8042471999997,None,829.8042471999997,None,n,0.1670415000007779,829.8042471999997,None,0.1670415000007779,,,Silent13,001,2022_Aug_03_1538,ProdSingRedoBetween,2021.2.3,59.883825378867684,
,,,,66,0,66,0,,,,,,,,,,,,,,,,,,,,,,833.1738604000002,None,,,,,,,,,,,,,,,,,title,75,67,silent,old,red,830.4907542000001,None,830.4907542000001,None,6,1.5205917000002955,830.4907542000001,None,1.5205917000002955,832.0430912000002,None,832.5578461999994,None,832.5578461999994,None,f,0.58944960000008,832.5578461999994,None,0.58944960000008,,,Silent13,001,2022_Aug_03_1538,ProdSingRedoBetween,2021.2.3,59.883825378867684,
,,,,67,0,67,0,,,,,,,,,,,,,,,,,,,,,,836.0767914999997,None,,,,,,,,,,,,,,,,,conference,82,68,silent,old,red,833.6909840999997,None,833.6909840999997,None,1,1.4721565999998347,833.6909840999997,None,1.4721565999998347,835.1996448,None,835.7101766999995,None,835.7101766999995,None,n,0.34905020000041986,835.7101766999995,None,0.34905020000041986,,,Silent13,001,2022_Aug_03_1538,ProdSingRedoBetween,2021.2.3,59.883825378867684,
,,,,68,0,68,0,,,,,,,,,,,,,,,,,,,,,,838.6796071999997,None,,,,,,,,,,,,,,,,,beginning,120,69,silent,new,null,836.5825046999998,None,836.5825046999998,None,1,1.292887200000223,836.5825046999998,None,1.292887200000223,837.8952670999997,None,838.4009724999996,None,838.4009724999996,None,n,0.2582834000004368,838.4009724999996,None,0.2582834000004368,,,Silent13,001,2022_Aug_03_1538,ProdSingRedoBetween,2021.2.3,59.883825378867684,
,,,,69,0,69,0,,,,,,,,,,,,,,,,,,,,,,841.3005818000001,None,,,,,,,,,,,,,,,,,election,141,70,silent,new,null,839.1907898999998,None,839.1907898999998,None,1,1.340407600000617,839.1907898999998,None,1.340407600000617,840.5491768000002,None,841.0487693999994,None,841.0487693999994,None,n,0.2343818999997893,841.0487693999994,None,0.2343818999997893,,,Silent13,001,2022_Aug_03_1538,ProdSingRedoBetween,2021.2.3,59.883825378867684,
,,,,70,0,70,0,,,,,,,,,,,,,,,,,,,,,,843.9515481999997,None,,,,,,,,,,,,,,,,,religion,174,71,silent,new,null,841.8000247999998,None,841.8000247999998,None,1,1.3312282000006235,841.8000247999998,None,1.3312282000006235,843.1507679999995,None,843.6513422999997,None,843.6513422999997,None,n,0.28007179999985965,843.6513422999997,None,0.28007179999985965,,,Silent13,001,2022_Aug_03_1538,ProdSingRedoBetween,2021.2.3,59.883825378867684,
,,,,71,0,71,0,,,,,,,,,,,,,,,,,,,,,,846.8710561999997,None,,,,,,,,,,,,,,,,,mechanical,128,72,silent,new,null,844.4565574999997,None,844.4565574999997,None,1,1.5226885000001857,844.4565574999997,None,1.5226885000001857,846.0045644000002,None,846.5101869999999,None,846.5101869999999,None,n,0.3410980999997264,846.5101869999999,None,0.3410980999997264,,,Silent13,001,2022_Aug_03_1538,ProdSingRedoBetween,2021.2.3,59.883825378867684,
,,,,72,0,72,0,,,,,,,,,,,,,,,,,,,,,,851.7785099000002,None,,,,,,,,,,,,,,,,,clear,58,73,silent,old,blue,847.3749271999995,None,847.3749271999995,None,6,2.9644374999998035,847.3749271999995,None,2.9644374999998035,850.3653165999995,None,850.8752168000001,None,850.8752168000001,None,f,0.8802845000000161,850.8752168000001,None,0.8802845000000161,,,Silent13,001,2022_Aug_03_1538,ProdSingRedoBetween,2021.2.3,59.883825378867684,
,,,,73,0,73,0,,,,,,,,,,,,,,,,,,,,,,854.2496639999999,None,,,,,,,,,,,,,,,,,quarter,52,74,silent,old,blue,852.2989084999999,None,852.2989084999999,None,1,1.2243544000002657,852.2989084999999,None,1.2243544000002657,853.5455852999994,None,854.0489557999999,None,854.0489557999999,None,n,0.17041470000003756,854.0489557999999,None,0.17041470000003756,,,Silent13,001,2022_Aug_03_1538,ProdSingRedoBetween,2021.2.3,59.883825378867684,
,,,,74,0,74,0,,,,,,,,,,,,,,,,,,,,,,856.8170830999998,None,,,,,,,,,,,,,,,,,reading,176,75,silent,new,null,854.7788536999997,None,854.7788536999997,None,1,1.1447269999998753,854.7788536999997,None,1.1447269999998753,855.9528202000001,None,856.4660346999999,None,856.4660346999999,None,n,0.32125249999990046,856.4660346999999,None,0.32125249999990046,,,Silent13,001,2022_Aug_03_1538,ProdSingRedoBetween,2021.2.3,59.883825378867684,
,,,,75,0,75,0,,,,,,,,,,,,,,,,,,,,,,860.3176874000001,None,,,,,,,,,,,,,,,,,agreement,5,76,silent,old,yellow,857.3366885999994,None,857.3366885999994,None,4,1.6985642999998163,857.3366885999994,None,1.6985642999998163,859.0517744999997,None,859.5710033999994,None,859.5710033999994,None,n,0.7203108999992764,859.5710033999994,None,0.7203108999992764,,,Silent13,001,2022_Aug_03_1538,ProdSingRedoBetween,2021.2.3,59.883825378867684,
,,,,76,0,76,0,,,,,,,,,,,,,,,,,,,,,,862.7702546,None,,,,,,,,,,,,,,,,,dozen,169,77,silent,new,null,860.8311600999996,None,860.8311600999996,None,1,1.1722260999995342,860.8311600999996,None,1.1722260999995342,862.0227360999997,None,862.5421612,None,862.5421612,None,n,0.20512909999979456,862.5421612,None,0.20512909999979456,,,Silent13,001,2022_Aug_03_1538,ProdSingRedoBetween,2021.2.3,59.883825378867684,
,,,,77,0,77,0,,,,,,,,,,,,,,,,,,,,,,865.2064467,None,,,,,,,,,,,,,,,,,series,146,78,silent,new,null,863.2775855999998,None,863.2775855999998,None,1,1.1096345000005385,863.2775855999998,None,1.1096345000005385,864.4061505999998,None,864.9058512000001,None,864.9058512000001,None,n,0.2733396999992692,864.9058512000001,None,0.2733396999992692,,,Silent13,001,2022_Aug_03_1538,ProdSingRedoBetween,2021.2.3,59.883825378867684,
,,,,78,0,78,0,,,,,,,,,,,,,,,,,,,,,,867.7106118000002,None,,,,,,,,,,,,,,,,,split,143,79,silent,new,null,865.7066051000002,None,865.7066051000002,None,1,1.1606926000004023,865.7066051000002,None,1.1606926000004023,866.8942501000001,None,867.4082426999994,None,867.4082426999994,None,n,0.2831445000001622,867.4082426999994,None,0.2831445000001622,,,Silent13,001,2022_Aug_03_1538,ProdSingRedoBetween,2021.2.3,59.883825378867684,
,,,,79,0,79,0,,,,,,,,,,,,,,,,,,,,,,870.7447389999998,None,,,,,,,,,,,,,,,,,measure,118,80,silent,new,null,868.2362499000001,None,868.2362499000001,None,3,1.8309712999998737,868.2362499000001,None,1.8309712999998737,870.0952402000003,None,870.5951923000002,None,870.5951923000002,None,f,0.12023479999970732,870.5951923000002,None,0.12023479999970732,,,Silent13,001,2022_Aug_03_1538,ProdSingRedoBetween,2021.2.3,59.883825378867684,
,,,,80,0,80,0,,,,,,,,,,,,,,,,,,,,,,873.2307903999999,None,,,,,,,,,,,,,,,,,narrow,129,81,silent,new,null,871.2524114999997,None,871.2524114999997,None,1,1.190881100000297,871.2524114999997,None,1.190881100000297,872.4645769999997,None,872.9668191999999,None,872.9668191999999,None,n,0.23640249999971275,872.9668191999999,None,0.23640249999971275,,,Silent13,001,2022_Aug_03_1538,ProdSingRedoBetween,2021.2.3,59.883825378867684,
,,,,81,0,81,0,,,,,,,,,,,,,,,,,,,,,,876.0502543000002,None,,,,,,,,,,,,,,,,,style,77,82,silent,old,red,873.7402536999998,None,873.7402536999998,None,6,1.6310261999997238,873.7402536999998,None,1.6310261999997238,875.4006263000001,None,875.9033055999998,None,875.9033055999998,None,f,0.12400410000009288,875.9033055999998,None,0.12400410000009288,,,Silent13,001,2022_Aug_03_1538,ProdSingRedoBetween,2021.2.3,59.883825378867684,
,,,,82,0,82,0,,,,,,,,,,,,,,,,,,,,,,879.0866232999997,None,,,,,,,,,,,,,,,,,interview,165,83,silent,new,null,876.5659703000001,None,876.5659703000001,None,5,1.8453354000002946,876.5659703000001,None,1.8453354000002946,878.4411640999997,None,878.9589352000003,None,878.9589352000003,None,f,0.10838799999964976,878.9589352000003,None,0.10838799999964976,,,Silent13,001,2022_Aug_03_1538,ProdSingRedoBetween,2021.2.3,59.883825378867684,
,,,,83,0,83,0,,,,,,,,,,,,,,,,,,,,,,882.857137,None,,,,,,,,,,,,,,,,,universal,68,84,silent,old,red,879.5974111999994,None,879.5974111999994,None,2,2.085850099999334,879.5974111999994,None,2.085850099999334,881.7085660000002,None,882.2303268999995,None,882.2303268999995,None,n,0.6049052999997002,882.2303268999995,None,0.6049052999997002,,,Silent13,001,2022_Aug_03_1538,ProdSingRedoBetween,2021.2.3,59.883825378867684,
,,,,84,0,84,0,,,,,,,,,,,,,,,,,,,,,,887.5451542000001,None,,,,,,,,,,,,,,,,,answer,37,85,silent,old,blue,883.3733375000002,None,883.3733375000002,None,3,3.3499233000002278,883.3733375000002,None,3.3499233000002278,886.7456138999996,None,887.2501250999994,None,887.2501250999994,None,n,0.27330350000011094,887.2501250999994,None,0.27330350000011094,,,Silent13,001,2022_Aug_03_1538,ProdSingRedoBetween,2021.2.3,59.883825378867684,
,,,,85,0,85,0,,,,,,,,,,,,,,,,,,,,,,890.7315669999998,None,,,,,,,,,,,,,,,,,captain,152,86,silent,new,null,888.0576876999994,None,888.0576876999994,None,5,1.8415854000004401,888.0576876999994,None,1.8415854000004401,889.9152784999997,None,890.4209982000002,None,890.4209982000002,None,n,0.2863084999999046,890.4209982000002,None,0.2863084999999046,,,Silent13,001,2022_Aug_03_1538,ProdSingRedoBetween,2021.2.3,59.883825378867684,
,,,,86,0,86,0,,,,,,,,,,,,,,,,,,,,,,893.2615667,None,,,,,,,,,,,,,,,,,south,168,87,silent,new,null,891.2416880999999,None,891.2416880999999,None,1,1.2655543000000762,891.2416880999999,None,1.2655543000000762,892.5343990000001,None,893.0365437999999,None,893.0365437999999,None,n,0.19877499999984138,893.0365437999999,None,0.19877499999984138,,,Silent13,001,2022_Aug_03_1538,ProdSingRedoBetween,2021.2.3,59.883825378867684,
,,,,87,0,87,0,,,,,,,,,,,,,,,,,,,,,,895.5723595,None,,,,,,,,,,,,,,,,,sunset,108,88,silent,new,null,893.7857364000001,None,893.7857364000001,None,1,1.0175366000003123,893.7857364000001,None,1.0175366000003123,894.825261,None,895.3360565000003,None,895.3360565000003,None,n,0.21114769999985583,895.3360565000003,None,0.21114769999985583,,,Silent13,001,2022_Aug_03_1538,ProdSingRedoBetween,2021.2.3,59.883825378867684,
,,,,88,0,88,0,,,,,,,,,,,,,,,,,,,,,,898.0722779999996,None,,,,,,,,,,,,,,,,,birth,99,89,silent,new,null,896.0892087000002,None,896.0892087000002,None,1,1.1221470000000409,896.0892087000002,None,1.1221470000000409,897.2451092000001,None,897.7572381999998,None,897.7572381999998,None,n,0.294125499999609,897.7572381999998,None,0.294125499999609,,,Silent13,001,2022_Aug_03_1538,ProdSingRedoBetween,2021.2.3,59.883825378867684,
,,,,89,0,89,0,,,,,,,,,,,,,,,,,,,,,,900.6413882999996,None,,,,,,,,,,,,,,,,,balance,6,90,silent,old,yellow,898.5819391999994,None,898.5819391999994,None,1,1.2852388000001156,898.5819391999994,None,1.2852388000001156,899.8908308,None,900.4000488000001,None,900.4000488000001,None,n,0.21927310000046418,900.4000488000001,None,0.21927310000046418,,,Silent13,001,2022_Aug_03_1538,ProdSingRedoBetween,2021.2.3,59.883825378867684,
,,,,90,0,90,0,,,,,,,,,,,,,,,,,,,,,,903.4152370000002,None,,,,,,,,,,,,,,,,,permit,119,91,silent,new,null,901.1445158999995,None,901.1445158999995,None,1,1.290768400000161,901.1445158999995,None,1.290768400000161,902.4624535000003,None,902.9782938999997,None,902.9782938999997,None,n,0.4090912000001481,902.9782938999997,None,0.4090912000001481,,,Silent13,001,2022_Aug_03_1538,ProdSingRedoBetween,2021.2.3,59.883825378867684,
,,,,91,0,91,0,,,,,,,,,,,,,,,,,,,,,,906.0299734,None,,,,,,,,,,,,,,,,,touch,111,92,silent,new,null,903.9382555000002,None,903.9382555000002,None,1,1.288999600000352,903.9382555000002,None,1.288999600000352,905.2536995,None,905.7635319000001,None,905.7635319000001,None,n,0.24768940000012662,905.7635319000001,None,0.24768940000012662,,,Silent13,001,2022_Aug_03_1538,ProdSingRedoBetween,2021.2.3,59.883825378867684,
,,,,92,0,92,0,,,,,,,,,,,,,,,,,,,,,,908.6228178000001,None,,,,,,,,,,,,,,,,,fight,127,93,silent,new,null,906.5399344999996,None,906.5399344999996,None,1,1.1753593000003093,906.5399344999996,None,1.1753593000003093,907.7412033,None,908.2489820000001,None,908.2489820000001,None,n,0.34633519999988494,908.2489820000001,None,0.34633519999988494,,,Silent13,001,2022_Aug_03_1538,ProdSingRedoBetween,2021.2.3,59.883825378867684,
,,,,93,0,93,0,,,,,,,,,,,,,,,,,,,,,,911.3021647999994,None,,,,,,,,,,,,,,,,,silence,20,94,silent,old,yellow,909.1403177000002,None,909.1403177000002,None,1,1.2550963000003321,909.1403177000002,None,1.2550963000003321,910.4288602999995,None,910.9352266999995,None,910.9352266999995,None,n,0.340028199999324,910.9352266999995,None,0.340028199999324,,,Silent13,001,2022_Aug_03_1538,ProdSingRedoBetween,2021.2.3,59.883825378867684,
,,,,94,0,94,0,,,,,,,,,,,,,,,,,,,,,,914.9742780999995,None,,,,,,,,,,,,,,,,,device,160,95,silent,new,null,911.8113746999998,None,911.8113746999998,None,3,2.47180759999992,911.8113746999998,None,2.47180759999992,914.3125363999998,None,914.8258513000001,None,914.8258513000001,None,n,0.12144340000031661,914.8258513000001,None,0.12144340000031661,,,Silent13,001,2022_Aug_03_1538,ProdSingRedoBetween,2021.2.3,59.883825378867684,
,,,,95,0,95,0,,,,,,,,,,,,,,,,,,,,,,918.2758042999994,None,,,,,,,,,,,,,,,,,government,13,96,silent,old,yellow,915.5044243000002,None,915.5044243000002,None,5,1.890750300000036,915.5044243000002,None,1.890750300000036,917.4268893999997,None,917.9462275999995,None,917.9462275999995,None,f,0.3051314000003913,917.9462275999995,None,0.3051314000003913,,,Silent13,001,2022_Aug_03_1538,ProdSingRedoBetween,2021.2.3,59.883825378867684,
,,,,96,0,96,0,,,,,,,,,,,,,,,,,,,,,,921.0980789999994,None,,,,,,,,,,,,,,,,,department,17,97,silent,old,yellow,918.7841286000003,None,918.7841286000003,None,1,1.3712306999996144,918.7841286000003,None,1.3712306999996144,920.1828017999997,None,920.6990169999999,None,920.6990169999999,None,n,0.3764040999994904,920.6990169999999,None,0.3764040999994904,,,Silent13,001,2022_Aug_03_1538,ProdSingRedoBetween,2021.2.3,59.883825378867684,
,,,,97,0,97,0,,,,,,,,,,,,,,,,,,,,,,924.0980886999996,None,,,,,,,,,,,,,,,,,accident,140,98,silent,new,null,921.6191817999998,None,921.6191817999998,None,3,1.7763089000000036,921.6191817999998,None,1.7763089000000036,923.4207495999999,None,923.9315854999995,None,923.9315854999995,None,f,0.15181049999955576,923.9315854999995,None,0.15181049999955576,,,Silent13,001,2022_Aug_03_1538,ProdSingRedoBetween,2021.2.3,59.883825378867684,
,,,,98,0,98,0,,,,,,,,,,,,,,,,,,,,,,927.2182167999999,None,,,,,,,,,,,,,,,,,portion,69,99,silent,old,red,924.6021427999995,None,924.6021427999995,None,4,1.9852950000004057,924.6021427999995,None,1.9852950000004057,926.6202708999999,None,927.1348231000002,None,927.1348231000002,None,f,0.060465199999271135,927.1348231000002,None,0.060465199999271135,,,Silent13,001,2022_Aug_03_1538,ProdSingRedoBetween,2021.2.3,59.883825378867684,
,,,,99,0,99,0,,,,,,,,,,,,,,,,,,,,,,929.7887106999997,None,,,,,,,,,,,,,,,,,revolution,177,100,silent,new,null,927.7261990999996,None,927.7261990999996,None,1,1.3410940000003393,927.7261990999996,None,1.3410940000003393,929.0896444,None,929.6067619999994,None,929.6067619999994,None,n,0.15660990000014863,929.6067619999994,None,0.15660990000014863,,,Silent13,001,2022_Aug_03_1538,ProdSingRedoBetween,2021.2.3,59.883825378867684,
,,,,100,0,100,0,,,,,,,,,,,,,,,,,,,,,,932.5067650999999,None,,,,,,,,,,,,,,,,,author,145,101,silent,new,null,930.2958407999995,None,930.2958407999995,None,1,1.4195252999998047,930.2958407999995,None,1.4195252999998047,931.7470551999995,None,932.2567374999999,None,932.2567374999999,None,n,0.22656929999993736,932.2567374999999,None,0.22656929999993736,,,Silent13,001,2022_Aug_03_1538,ProdSingRedoBetween,2021.2.3,59.883825378867684,
,,,,101,0,101,0,,,,,,,,,,,,,,,,,,,,,,935.0425703999999,None,,,,,,,,,,,,,,,,,institute,47,102,silent,old,blue,933.0171619000002,None,933.0171619000002,None,1,1.2421425000002273,933.0171619000002,None,1.2421425000002273,934.2762817000003,None,934.7813882999999,None,934.7813882999999,None,n,0.24585210000077495,934.7813882999999,None,0.24585210000077495,,,Silent13,001,2022_Aug_03_1538,ProdSingRedoBetween,2021.2.3,59.883825378867684,
,,,,102,0,102,0,,,,,,,,,,,,,,,,,,,,,,939.7808605,None,,,,,,,,,,,,,,,,,beauty,87,103,silent,old,red,935.5519251999995,None,935.5519251999995,None,3,1.763278999999784,935.5519251999995,None,1.763278999999784,937.3457591999995,None,937.8510839999999,None,937.8510839999999,None,f,1.9122463000003336,937.8510839999999,None,1.9122463000003336,,,Silent13,001,2022_Aug_03_1538,ProdSingRedoBetween,2021.2.3,59.883825378867684,
,,,,103,0,103,0,,,,,,,,,,,,,,,,,,,,,,942.7670044999995,None,,,,,,,,,,,,,,,,,contract,73,104,silent,old,red,940.2823295999997,None,940.2823295999997,None,3,1.9049718999995093,940.2823295999997,None,1.9049718999995093,942.2170572999994,None,942.7204776999997,None,942.7204776999997,None,f,0.026799499999469845,942.7204776999997,None,0.026799499999469845,,,Silent13,001,2022_Aug_03_1538,ProdSingRedoBetween,2021.2.3,59.883825378867684,
,,,,104,0,104,0,,,,,,,,,,,,,,,,,,,,,,945.1526480000002,None,,,,,,,,,,,,,,,,,straight,124,105,silent,new,null,943.2760566999996,None,943.2760566999996,None,1,1.119311700000253,943.2760566999996,None,1.119311700000253,944.4257355999998,None,944.9368190999994,None,944.9368190999994,None,n,0.1865008000004309,944.9368190999994,None,0.1865008000004309,,,Silent13,001,2022_Aug_03_1538,ProdSingRedoBetween,2021.2.3,59.883825378867684,
,,,,105,0,105,0,,,,,,,,,,,,,,,,,,,,,,947.4549672000003,None,,,,,,,,,,,,,,,,,watch,102,106,silent,new,null,945.6559572999995,None,945.6559572999995,None,1,1.1154056000004857,945.6559572999995,None,1.1154056000004857,946.7923075999997,None,947.3049208000002,None,947.3049208000002,None,n,0.13044170000011945,947.3049208000002,None,0.13044170000011945,,,Silent13,001,2022_Aug_03_1538,ProdSingRedoBetween,2021.2.3,59.883825378867684,
,,,,106,0,106,0,,,,,,,,,,,,,,,,,,,,,,950.5914192,None,,,,,,,,,,,,,,,,,gesture,56,107,silent,old,blue,947.9674647000002,None,947.9674647000002,None,1,1.5158203999999387,947.9674647000002,None,1.5158203999999387,949.5103318000001,None,950.0254636,None,950.0254636,None,n,0.5458263999998962,950.0254636,None,0.5458263999998962,,,Silent13,001,2022_Aug_03_1538,ProdSingRedoBetween,2021.2.3,59.883825378867684,
,,,,107,0,107,0,,,,,,,,,,,,,,,,,,,,,,956.4319862000002,None,,,,,,,,,,,,,,,,,guide,115,108,silent,new,null,951.0997386999998,None,951.0997386999998,None,3,2.495480800000223,951.0997386999998,None,2.495480800000223,953.6120358999997,None,954.1137191999997,None,954.1137191999997,None,f,2.2975017999997362,954.1137191999997,None,2.2975017999997362,,,Silent13,001,2022_Aug_03_1538,ProdSingRedoBetween,2021.2.3,59.883825378867684,
,,,,108,0,108,0,,,,,,,,,,,,,,,,,,,,,,959.4066978000001,None,,,,,,,,,,,,,,,,,concern,110,109,silent,new,null,956.9312123,None,956.9312123,None,1,1.7681522000002587,956.9312123,None,1.7681522000002587,958.7293450999996,None,959.2399980999999,None,959.2399980999999,None,n,0.13156720000006317,959.2399980999999,None,0.13156720000006317,,,Silent13,001,2022_Aug_03_1538,ProdSingRedoBetween,2021.2.3,59.883825378867684,
,,,,109,0,109,0,,,,,,,,,,,,,,,,,,,,,,962.1529664999998,None,,,,,,,,,,,,,,,,,career,24,110,silent,old,yellow,959.9207955000002,None,959.9207955000002,None,6,1.4825031999998828,959.9207955000002,None,1.4825031999998828,961.4199055999998,None,961.9229801000001,None,961.9229801000001,None,f,0.2003537000000506,961.9229801000001,None,0.2003537000000506,,,Silent13,001,2022_Aug_03_1538,ProdSingRedoBetween,2021.2.3,59.883825378867684,
,,,,110,0,110,0,,,,,,,,,,,,,,,,,,,,,,966.5738657000002,None,,,,,,,,,,,,,,,,,generation,0,111,silent,old,yellow,962.6603187999999,None,962.6603187999999,None,4,2.4149217000003773,962.6603187999999,None,2.4149217000003773,965.1066614000001,None,965.6116848000001,None,965.6116848000001,None,f,0.9355886000003011,965.6116848000001,None,0.9355886000003011,,,Silent13,001,2022_Aug_03_1538,ProdSingRedoBetween,2021.2.3,59.883825378867684,
,,,,111,0,111,0,,,,,,,,,,,,,,,,,,,,,,971.1123683999995,None,,,,,,,,,,,,,,,,,partner,54,112,silent,old,blue,967.0909131999997,None,967.0909131999997,None,6,3.1122488999999405,967.0909131999997,None,3.1122488999999405,970.2285702999998,None,970.7295287999996,None,970.7295287999996,None,r,0.36171569999987696,970.7295287999996,None,0.36171569999987696,,,Silent13,001,2022_Aug_03_1538,ProdSingRedoBetween,2021.2.3,59.883825378867684,
,,,,112,0,112,0,,,,,,,,,,,,,,,,,,,,,,973.8494954999996,None,,,,,,,,,,,,,,,,,quantity,94,113,silent,new,null,971.6202935000001,None,971.6202935000001,None,1,1.5510136000002603,971.6202935000001,None,1.5510136000002603,973.2002044999999,None,973.7277525999998,None,973.7277525999998,None,n,0.09959189999972295,973.7277525999998,None,0.09959189999972295,,,Silent13,001,2022_Aug_03_1538,ProdSingRedoBetween,2021.2.3,59.883825378867684,
,,,,113,0,113,0,,,,,,,,,,,,,,,,,,,,,,976.4506138999996,None,,,,,,,,,,,,,,,,,mayor,151,114,silent,new,null,974.3590228000003,None,974.3590228000003,None,1,1.2764264999996158,974.3590228000003,None,1.2764264999996158,975.6675802,None,976.1761470000001,None,976.1761470000001,None,n,0.24322269999993296,976.1761470000001,None,0.24322269999993296,,,Silent13,001,2022_Aug_03_1538,ProdSingRedoBetween,2021.2.3,59.883825378867684,
,,,,114,0,114,0,,,,,,,,,,,,,,,,,,,,,,979.0866249000001,None,,,,,,,,,,,,,,,,,sound,139,115,silent,new,null,976.9618165000002,None,976.9618165000002,None,1,1.2975079999996524,976.9618165000002,None,1.2975079999996524,978.2871324999996,None,978.7861809999995,None,978.7861809999995,None,n,0.2730733999997028,978.7861809999995,None,0.2730733999997028,,,Silent13,001,2022_Aug_03_1538,ProdSingRedoBetween,2021.2.3,59.883825378867684,
,,,,115,0,115,0,,,,,,,,,,,,,,,,,,,,,,981.7726186999998,None,,,,,,,,,,,,,,,,,block,10,116,silent,old,yellow,979.5911662999997,None,979.5911662999997,None,1,1.3323873999997886,979.5911662999997,None,1.3323873999997886,980.9710796999998,None,981.4813660999998,None,981.4813660999998,None,n,0.2738721000005171,981.4813660999998,None,0.2738721000005171,,,Silent13,001,2022_Aug_03_1538,ProdSingRedoBetween,2021.2.3,59.883825378867684,
,,,,116,0,116,0,,,,,,,,,,,,,,,,,,,,,,984.4586309999995,None,,,,,,,,,,,,,,,,,production,62,117,silent,old,red,982.2802481999997,None,982.2802481999997,None,1,1.3070738999995228,982.2802481999997,None,1.3070738999995228,983.6098843,None,984.1250760000003,None,984.1250760000003,None,n,0.31822419999934937,984.1250760000003,None,0.31822419999934937,,,Silent13,001,2022_Aug_03_1538,ProdSingRedoBetween,2021.2.3,59.883825378867684,
,,,,117,0,117,0,,,,,,,,,,,,,,,,,,,,,,988.5794998000001,None,,,,,,,,,,,,,,,,,cousin,29,118,silent,old,blue,984.9632100999997,None,984.9632100999997,None,6,2.3520818999995754,984.9632100999997,None,2.3520818999995754,987.3466761,None,987.8625443000001,None,987.8625443000001,None,r,0.6928789000003235,987.8625443000001,None,0.6928789000003235,,,Silent13,001,2022_Aug_03_1538,ProdSingRedoBetween,2021.2.3,59.883825378867684,
,,,,118,0,118,0,,,,,,,,,,,,,,,,,,,,,,990.8651125999995,None,,,,,,,,,,,,,,,,,strength,112,119,silent,new,null,989.0800245999999,None,989.0800245999999,None,1,1.0912679000002754,989.0800245999999,None,1.0912679000002754,990.2009195,None,990.7164572000001,None,990.7164572000001,None,n,0.11880399999972724,990.7164572000001,None,0.11880399999972724,,,Silent13,001,2022_Aug_03_1538,ProdSingRedoBetween,2021.2.3,59.883825378867684,
,,,,119,0,119,0,,,,,,,,,,,,,,,,,,,,,,995.7199430000001,None,,,,,,,,,,,,,,,,,brilliant,78,120,silent,old,red,991.3671818000003,None,991.3671818000003,None,1,1.4043375999999625,991.3671818000003,None,1.4043375999999625,992.8086367999995,None,993.3189937999996,None,993.3189937999996,None,n,2.372328199999174,993.3189937999996,None,2.372328199999174,,,Silent13,001,2022_Aug_03_1538,ProdSingRedoBetween,2021.2.3,59.883825378867684,
,,,,120,0,120,0,,,,,,,,,,,,,,,,,,,,,,998.8562956999995,None,,,,,,,,,,,,,,,,,command,88,121,silent,old,red,996.2276680999994,None,996.2276680999994,None,5,1.8636034000001018,996.2276680999994,None,1.8636034000001018,998.1229597000001,None,998.6290159999999,None,998.6290159999999,None,f,0.19839950000005047,998.6290159999999,None,0.19839950000005047,,,Silent13,001,2022_Aug_03_1538,ProdSingRedoBetween,2021.2.3,59.883825378867684,
,,,,121,0,121,0,,,,,,,,,,,,,,,,,,,,,,1001.2935492999995,None,,,,,,,,,,,,,,,,,suggestion,51,122,silent,old,blue,999.3737867,None,999.3737867,None,1,1.1816337999998723,999.3737867,None,1.1816337999998723,1000.5868351999998,None,1001.1006210999994,None,1001.1006210999994,None,n,0.16669459999957326,1001.1006210999994,None,0.16669459999957326,,,Silent13,001,2022_Aug_03_1538,ProdSingRedoBetween,2021.2.3,59.883825378867684,
,,,,122,0,122,0,,,,,,,,,,,,,,,,,,,,,,1004.0615191999996,None,,,,,,,,,,,,,,,,,general,80,123,silent,old,red,1001.7929259000002,None,1001.7929259000002,None,1,1.498535300000185,1001.7929259000002,None,1.498535300000185,1003.3165859999999,None,1003.8281263999997,None,1003.8281263999997,None,n,0.21509510000032606,1003.8281263999997,None,0.21509510000032606,,,Silent13,001,2022_Aug_03_1538,ProdSingRedoBetween,2021.2.3,59.883825378867684,
,,,,123,0,123,0,,,,,,,,,,,,,,,,,,,,,,1006.7809123999996,None,,,,,,,,,,,,,,,,,detective,33,124,silent,old,blue,1004.5698769999999,None,1004.5698769999999,None,1,1.3134358999996039,1004.5698769999999,None,1.3134358999996039,1005.9143770000001,None,1006.4201721999998,None,1006.4201721999998,None,n,0.33512900000005175,1006.4201721999998,None,0.33512900000005175,,,Silent13,001,2022_Aug_03_1538,ProdSingRedoBetween,2021.2.3,59.883825378867684,
,,,,124,0,124,0,,,,,,,,,,,,,,,,,,,,,,1009.7172230999995,None,,,,,,,,,,,,,,,,,course,179,125,silent,new,null,1007.2882967999994,None,1007.2882967999994,None,3,1.7790799999993396,1007.2882967999994,None,1.7790799999993396,1009.0863319,None,1009.6035094999997,None,1009.6035094999997,None,f,0.09572750000006636,1009.6035094999997,None,0.09572750000006636,,,Silent13,001,2022_Aug_03_1538,ProdSingRedoBetween,2021.2.3,59.883825378867684,
,,,,125,0,125,0,,,,,,,,,,,,,,,,,,,,,,1012.3723341999994,None,,,,,,,,,,,,,,,,,damage,90,126,silent,new,null,1010.2260648000001,None,1010.2260648000001,None,1,1.3771606000000247,1010.2260648000001,None,1.3771606000000247,1011.6217311,None,1012.1407423,None,1012.1407423,None,n,0.20671109999966575,1012.1407423,None,0.20671109999966575,,,Silent13,001,2022_Aug_03_1538,ProdSingRedoBetween,2021.2.3,59.883825378867684,
,,,,126,0,126,0,,,,,,,,,,,,,,,,,,,,,,1014.9279514,None,,,,,,,,,,,,,,,,,disease,1,127,silent,old,yellow,1012.8983849999995,None,1012.8983849999995,None,1,1.288863400000082,1012.8983849999995,None,1.288863400000082,1014.2066963999996,None,1014.7110428999995,None,1014.7110428999995,None,n,0.1961657000001651,1014.7110428999995,None,0.1961657000001651,,,Silent13,001,2022_Aug_03_1538,ProdSingRedoBetween,2021.2.3,59.883825378867684,
,,,,127,0,127,0,,,,,,,,,,,,,,,,,,,,,,1017.5083689000003,None,,,,,,,,,,,,,,,,,search,41,128,silent,old,blue,1015.4427206,None,1015.4427206,None,1,1.2807729000005565,1015.4427206,None,1.2807729000005565,1016.7509281000002,None,1017.2581528999999,None,1017.2581528999999,None,n,0.22526159999961237,1017.2581528999999,None,0.22526159999961237,,,Silent13,001,2022_Aug_03_1538,ProdSingRedoBetween,2021.2.3,59.883825378867684,
,,,,128,0,128,0,,,,,,,,,,,,,,,,,,,,,,1020.2110172000002,None,,,,,,,,,,,,,,,,,shape,27,129,silent,old,yellow,1018.0162880999997,None,1018.0162880999997,None,1,1.3390314999996917,1018.0162880999997,None,1.3390314999996917,1019.3781303999995,None,1019.8801072999995,None,1019.8801072999995,None,n,0.3151567000004434,1019.8801072999995,None,0.3151567000004434,,,Silent13,001,2022_Aug_03_1538,ProdSingRedoBetween,2021.2.3,59.883825378867684,
,,,,129,0,129,0,,,,,,,,,,,,,,,,,,,,,,1026.7363254000002,None,,,,,,,,,,,,,,,,,guard,18,130,silent,old,yellow,1020.7132724000003,None,1020.7132724000003,None,4,5.106010800000149,1020.7132724000003,None,5.106010800000149,1025.8499892999998,None,1026.3506729,None,1026.3506729,None,f,0.3567616000000271,1026.3506729,None,0.3567616000000271,,,Silent13,001,2022_Aug_03_1538,ProdSingRedoBetween,2021.2.3,59.883825378867684,
,,,,130,0,130,0,,,,,,,,,,,,,,,,,,,,,,1029.9707774999997,None,,,,,,,,,,,,,,,,,provision,91,131,silent,new,null,1027.2704642999997,None,1027.2704642999997,None,1,1.1009289000003264,1027.2704642999997,None,1.1009289000003264,1028.4174763,None,1028.9257638,None,1028.9257638,None,n,1.0215484999998807,1028.9257638,None,1.0215484999998807,,,Silent13,001,2022_Aug_03_1538,ProdSingRedoBetween,2021.2.3,59.883825378867684,
,,,,131,0,131,0,,,,,,,,,,,,,,,,,,,,,,1032.4232305999994,None,,,,,,,,,,,,,,,,,history,22,132,silent,old,yellow,1030.4837608999997,None,1030.4837608999997,None,1,1.2475473000004058,1030.4837608999997,None,1.2475473000004058,1031.7571018999997,None,1032.2562423999998,None,1032.2562423999998,None,n,0.147083300000304,1032.2562423999998,None,0.147083300000304,,,Silent13,001,2022_Aug_03_1538,ProdSingRedoBetween,2021.2.3,59.883825378867684,
,,,,132,0,132,0,,,,,,,,,,,,,,,,,,,,,,1036.1325614999996,None,,,,,,,,,,,,,,,,,equipment,109,133,silent,new,null,1032.9358280999995,None,1032.9358280999995,None,1,2.3154770999999528,1032.9358280999995,None,2.3154770999999528,1035.2785361999995,None,1035.7932185,None,1035.7932185,None,n,0.31413900000006834,1035.7932185,None,0.31413900000006834,,,Silent13,001,2022_Aug_03_1538,ProdSingRedoBetween,2021.2.3,59.883825378867684,
,,,,133,0,133,0,,,,,,,,,,,,,,,,,,,,,,1038.5460037000003,None,,,,,,,,,,,,,,,,,bucket,49,134,silent,old,blue,1036.6446649999998,None,1036.6446649999998,None,1,1.1907427000005555,1036.6446649999998,None,1.1907427000005555,1037.8642191,None,1038.3792696,None,1038.3792696,None,n,0.1440973999997368,1038.3792696,None,0.1440973999997368,,,Silent13,001,2022_Aug_03_1538,ProdSingRedoBetween,2021.2.3,59.883825378867684,
,,,,134,0,134,0,,,,,,,,,,,,,,,,,,,,,,1041.0151342,None,,,,,,,,,,,,,,,,,platform,126,135,silent,new,null,1039.0531179999998,None,1039.0531179999998,None,1,1.214205100000072,1039.0531179999998,None,1.214205100000072,1040.2986511,None,1040.8049499999997,None,1040.8049499999997,None,n,0.18227979999937816,1040.8049499999997,None,0.18227979999937816,,,Silent13,001,2022_Aug_03_1538,ProdSingRedoBetween,2021.2.3,59.883825378867684,
,,,,135,0,135,0,,,,,,,,,,,,,,,,,,,,,,1043.5851898,None,,,,,,,,,,,,,,,,,novel,107,136,silent,new,null,1041.5252627,None,1041.5252627,None,1,1.2380585999999312,1041.5252627,None,1.2380585999999312,1042.7847156999997,None,1043.2894385999998,None,1043.2894385999998,None,n,0.2658419999997932,1043.2894385999998,None,0.2658419999997932,,,Silent13,001,2022_Aug_03_1538,ProdSingRedoBetween,2021.2.3,59.883825378867684,
,,,,136,0,136,0,,,,,,,,,,,,,,,,,,,,,,1046.3224915,None,,,,,,,,,,,,,,,,,still,159,137,silent,new,null,1044.0942880000002,None,1044.0942880000002,None,1,1.2689588000002914,1044.0942880000002,None,1.2689588000002914,1045.3887788000002,None,1045.9113792999997,None,1045.9113792999997,None,n,0.37983580000036454,1045.9113792999997,None,0.37983580000036454,,,Silent13,001,2022_Aug_03_1538,ProdSingRedoBetween,2021.2.3,59.883825378867684,
,,,,137,0,137,0,,,,,,,,,,,,,,,,,,,,,,1053.2110699999994,None,,,,,,,,,,,,,,,,,marriage,45,138,silent,old,blue,1046.8429115999998,None,1046.8429115999998,None,6,2.1604158000000098,1046.8429115999998,None,2.1604158000000098,1049.0242727999994,None,1049.5280905999998,None,1049.5280905999998,None,r,3.667254199999661,1049.5280905999998,None,3.667254199999661,,,Silent13,001,2022_Aug_03_1538,ProdSingRedoBetween,2021.2.3,59.883825378867684,
,,,,138,0,138,0,,,,,,,,,,,,,,,,,,,,,,1056.7141307000002,None,,,,,,,,,,,,,,,,,scene,40,139,silent,old,blue,1053.7130732999995,None,1053.7130732999995,None,3,2.050239299999703,1053.7130732999995,None,2.050239299999703,1055.7811188999995,None,1056.2836751999994,None,1056.2836751999994,None,f,0.39965830000073765,1056.2836751999994,None,0.39965830000073765,,,Silent13,001,2022_Aug_03_1538,ProdSingRedoBetween,2021.2.3,59.883825378867684,
,,,,139,0,139,0,,,,,,,,,,,,,,,,,,,,,,1060.0341158,None,,,,,,,,,,,,,,,,,hunger,100,140,silent,new,null,1057.2240354999994,None,1057.2240354999994,None,1,1.9311741000001348,1057.2240354999994,None,1.9311741000001348,1059.1850402,None,1059.7052920999995,None,1059.7052920999995,None,n,0.3060930000001463,1059.7052920999995,None,0.3060930000001463,,,Silent13,001,2022_Aug_03_1538,ProdSingRedoBetween,2021.2.3,59.883825378867684,
,,,,140,0,140,0,,,,,,,,,,,,,,,,,,,,,,1062.9209001,None,,,,,,,,,,,,,,,,,goose,173,141,silent,new,null,1060.5377897999997,None,1060.5377897999997,None,1,1.5055261000006794,1060.5377897999997,None,1.5055261000006794,1062.0718202999997,None,1062.5867073,None,1062.5867073,None,n,0.3047881000002235,1062.5867073,None,0.3047881000002235,,,Silent13,001,2022_Aug_03_1538,ProdSingRedoBetween,2021.2.3,59.883825378867684,
,,,,141,0,141,0,,,,,,,,,,,,,,,,,,,,,,1066.9741778999996,None,,,,,,,,,,,,,,,,,subject,39,142,silent,old,blue,1063.4306608999996,None,1063.4306608999996,None,5,2.5726685999998153,1063.4306608999996,None,2.5726685999998153,1066.0254144,None,1066.5453584999996,None,1066.5453584999996,None,f,0.4019161999995049,1066.5453584999996,None,0.4019161999995049,,,Silent13,001,2022_Aug_03_1538,ProdSingRedoBetween,2021.2.3,59.883825378867684,
,,,,142,0,142,0,,,,,,,,,,,,,,,,,,,,,,1069.4268329999995,None,,,,,,,,,,,,,,,,,point,74,143,silent,old,red,1067.4818108,None,1067.4818108,None,1,1.1375464000002466,1067.4818108,None,1.1375464000002466,1068.6442471999999,None,1069.1491102999998,None,1069.1491102999998,None,n,0.2543097999996462,1069.1491102999998,None,0.2543097999996462,,,Silent13,001,2022_Aug_03_1538,ProdSingRedoBetween,2021.2.3,59.883825378867684,
,,,,143,0,143,0,,,,,,,,,,,,,,,,,,,,,,1072.7635302999997,None,,,,,,,,,,,,,,,,,pattern,156,144,silent,new,null,1069.9424764999994,None,1069.9424764999994,None,2,1.9649204999996073,1069.9424764999994,None,1.9649204999996073,1071.9361485999998,None,1072.4494921999994,None,1072.4494921999994,None,f,0.28983830000015587,1072.4494921999994,None,0.28983830000015587,,,Silent13,001,2022_Aug_03_1538,ProdSingRedoBetween,2021.2.3,59.883825378867684,
,,,,144,0,144,0,,,,,,,,,,,,,,,,,,,,,,1075.7329648999994,None,,,,,,,,,,,,,,,,,center,122,145,silent,new,null,1073.2700293999997,None,1073.2700293999997,None,1,1.733184199999414,1073.2700293999997,None,1.733184199999414,1075.0395485999998,None,1075.5494825999995,None,1075.5494825999995,None,n,0.15790019999985816,1075.5494825999995,None,0.15790019999985816,,,Silent13,001,2022_Aug_03_1538,ProdSingRedoBetween,2021.2.3,59.883825378867684,
,,,,145,0,145,0,,,,,,,,,,,,,,,,,,,,,,1078.5871584999995,None,,,,,,,,,,,,,,,,,design,167,146,silent,new,null,1076.2449969,None,1076.2449969,None,1,1.6223685999993904,1076.2449969,None,1.6223685999993904,1077.8935292999995,None,1078.4044089999998,None,1078.4044089999998,None,n,0.16698400000041147,1078.4044089999998,None,0.16698400000041147,,,Silent13,001,2022_Aug_03_1538,ProdSingRedoBetween,2021.2.3,59.883825378867684,
,,,,146,0,146,0,,,,,,,,,,,,,,,,,,,,,,1081.438843,None,,,,,,,,,,,,,,,,,republic,60,147,silent,old,red,1079.0892961999998,None,1079.0892961999998,None,1,1.4980495999998311,1079.0892961999998,None,1.4980495999998311,1080.6058746999997,None,1081.1105003000002,None,1081.1105003000002,None,n,0.30079339999974763,1081.1105003000002,None,0.30079339999974763,,,Silent13,001,2022_Aug_03_1538,ProdSingRedoBetween,2021.2.3,59.883825378867684,
,,,,147,0,147,0,,,,,,,,,,,,,,,,,,,,,,1085.0257905999997,None,,,,,,,,,,,,,,,,,finance,142,148,silent,new,null,1081.9422447999996,None,1081.9422447999996,None,1,1.4531526999999187,1081.9422447999996,None,1.4531526999999187,1083.4261924000002,None,1083.9413193,None,1083.9413193,None,n,1.0540432000007058,1083.9413193,None,1.0540432000007058,,,Silent13,001,2022_Aug_03_1538,ProdSingRedoBetween,2021.2.3,59.883825378867684,
,,,,148,0,148,0,,,,,,,,,,,,,,,,,,,,,,1088.6627761,None,,,,,,,,,,,,,,,,,commercial,19,149,silent,old,yellow,1085.5284978999998,None,1085.5284978999998,None,6,1.8108411000002889,1085.5284978999998,None,1.8108411000002889,1087.3612947000001,None,1087.8660395999996,None,1087.8660395999996,None,f,0.7692323000001124,1087.8660395999996,None,0.7692323000001124,,,Silent13,001,2022_Aug_03_1538,ProdSingRedoBetween,2021.2.3,59.883825378867684,
,,,,149,0,149,0,,,,,,,,,,,,,,,,,,,,,,1091.2486689999996,None,,,,,,,,,,,,,,,,,problem,175,150,silent,new,null,1089.1713209,None,1089.1713209,None,1,1.215982300000178,1089.1713209,None,1.215982300000178,1090.4144046000001,None,1090.9150874999996,None,1090.9150874999996,None,n,0.3042568000000756,1090.9150874999996,None,0.3042568000000756,,,Silent13,001,2022_Aug_03_1538,ProdSingRedoBetween,2021.2.3,59.883825378867684,
,,,,150,0,150,0,,,,,,,,,,,,,,,,,,,,,,1094.0345522999996,None,,,,,,,,,,,,,,,,,cover,70,151,silent,old,red,1091.7547987999997,None,1091.7547987999997,None,2,1.4965502000004562,1091.7547987999997,None,1.4965502000004562,1093.2707946,None,1093.7846498999997,None,1093.7846498999997,None,f,0.22672579999925802,1093.7846498999997,None,0.22672579999925802,,,Silent13,001,2022_Aug_03_1538,ProdSingRedoBetween,2021.2.3,59.883825378867684,
,,,,151,0,151,0,,,,,,,,,,,,,,,,,,,,,,1100.1742008,None,,,,,,,,,,,,,,,,,break,85,152,silent,old,red,1094.5353168000001,None,1094.5353168000001,None,6,3.555935999999747,1094.5353168000001,None,3.555935999999747,1098.1305082,None,1098.6399365999996,None,1098.6399365999996,None,r,1.5073402000007263,1098.6399365999996,None,1.5073402000007263,,,Silent13,001,2022_Aug_03_1538,ProdSingRedoBetween,2021.2.3,59.883825378867684,
,,,,152,0,152,0,,,,,,,,,,,,,,,,,,,,,,1102.7599064999995,None,,,,,,,,,,,,,,,,,article,136,153,silent,new,null,1100.6746728999997,None,1100.6746728999997,None,1,1.3046778999996604,1100.6746728999997,None,1.3046778999996604,1102.0094155999996,None,1102.5173871999996,None,1102.5173871999996,None,n,0.21393299999999726,1102.5173871999996,None,0.21393299999999726,,,Silent13,001,2022_Aug_03_1538,ProdSingRedoBetween,2021.2.3,59.883825378867684,
,,,,153,0,153,0,,,,,,,,,,,,,,,,,,,,,,1105.2960570999994,None,,,,,,,,,,,,,,,,,payment,123,154,silent,new,null,1103.2732135999995,None,1103.2732135999995,None,1,1.2261781000006522,1103.2732135999995,None,1.2261781000006522,1104.5298593999996,None,1105.0334676000002,None,1105.0334676000002,None,n,0.24179480000020703,1105.0334676000002,None,0.24179480000020703,,,Silent13,001,2022_Aug_03_1538,ProdSingRedoBetween,2021.2.3,59.883825378867684,
,,,,154,0,154,0,,,,,,,,,,,,,,,,,,,,,,1108.4159017000002,None,,,,,,,,,,,,,,,,,ground,26,155,silent,old,yellow,1105.7969329999996,None,1105.7969329999996,None,3,1.9424148000007335,1105.7969329999996,None,1.9424148000007335,1107.7661135999997,None,1108.2682694999994,None,1108.2682694999994,None,f,0.12708219999967696,1108.2682694999994,None,0.12708219999967696,,,Silent13,001,2022_Aug_03_1538,ProdSingRedoBetween,2021.2.3,59.883825378867684,
,,,,155,0,155,0,,,,,,,,,,,,,,,,,,,,,,1110.6028129999995,None,,,,,,,,,,,,,,,,,benefit,59,156,silent,old,yellow,1108.9265888,None,1108.9265888,None,1,1.0367407000003368,1108.9265888,None,1.0367407000003368,1109.9881018999995,None,1110.5012510999995,None,1110.5012510999995,None,n,0.07819870000002993,1110.5012510999995,None,0.07819870000002993,,,Silent13,001,2022_Aug_03_1538,ProdSingRedoBetween,2021.2.3,59.883825378867684,
,,,,156,0,156,0,,,,,,,,,,,,,,,,,,,,,,1113.5209525,None,,,,,,,,,,,,,,,,,union,172,157,silent,new,null,1111.1064430999995,None,1111.1064430999995,None,1,1.3770132999998168,1111.1064430999995,None,1.3770132999998168,1112.5030989999996,None,1113.0078017999995,None,1113.0078017999995,None,n,0.48355130000072677,1113.0078017999995,None,0.48355130000072677,,,Silent13,001,2022_Aug_03_1538,ProdSingRedoBetween,2021.2.3,59.883825378867684,
,,,,157,0,157,0,,,,,,,,,,,,,,,,,,,,,,1117.3080549999995,None,,,,,,,,,,,,,,,,,signal,42,158,silent,old,blue,1114.0292344,None,1114.0292344,None,1,1.3660566000007748,1114.0292344,None,1.3660566000007748,1115.4234259999994,None,1115.9234603999994,None,1115.9234603999994,None,n,1.367833299999802,1115.9234603999994,None,1.367833299999802,,,Silent13,001,2022_Aug_03_1538,ProdSingRedoBetween,2021.2.3,59.883825378867684,
,,,,158,0,158,0,,,,,,,,,,,,,,,,,,,,,,1120.9783793999995,None,,,,,,,,,,,,,,,,,power,76,159,silent,old,red,1117.8112261999995,None,1117.8112261999995,None,4,2.1839890999999625,1117.8112261999995,None,2.1839890999999625,1120.0152448999997,None,1120.5281451,None,1120.5281451,None,f,0.41923549999955867,1120.5281451,None,0.41923549999955867,,,Silent13,001,2022_Aug_03_1538,ProdSingRedoBetween,2021.2.3,59.883825378867684,
,,,,159,0,159,0,,,,,,,,,,,,,,,,,,,,,,1123.6309859000003,None,,,,,,,,,,,,,,,,,heavy,32,160,silent,old,blue,1121.4874713999998,None,1121.4874713999998,None,1,1.2199231999993572,1121.4874713999998,None,1.2199231999993572,1122.735756,None,1123.2525514,None,1123.2525514,None,n,0.3507596999997986,1123.2525514,None,0.3507596999997986,,,Silent13,001,2022_Aug_03_1538,ProdSingRedoBetween,2021.2.3,59.883825378867684,
,,,,160,0,160,0,,,,,,,,,,,,,,,,,,,,,,1127.8184340999996,None,,,,,,,,,,,,,,,,,distance,28,161,silent,old,yellow,1124.1398503,None,1124.1398503,None,1,1.7354925999998159,1124.1398503,None,1.7354925999998159,1125.9012338000002,None,1126.4005693999998,None,1126.4005693999998,None,f,1.4027712000006431,1126.4005693999998,None,1.4027712000006431,,,Silent13,001,2022_Aug_03_1538,ProdSingRedoBetween,2021.2.3,59.883825378867684,
,,,,161,0,161,0,,,,,,,,,,,,,,,,,,,,,,1131.9236117,None,,,,,,,,,,,,,,,,,defeat,43,162,silent,old,blue,1128.3300554999996,None,1128.3300554999996,None,1,2.665249799999401,1128.3300554999996,None,2.665249799999401,1131.0238404000002,None,1131.5477204999997,None,1131.5477204999997,None,n,0.3438369999994393,1131.5477204999997,None,0.3438369999994393,,,Silent13,001,2022_Aug_03_1538,ProdSingRedoBetween,2021.2.3,59.883825378867684,
,,,,162,0,162,0,,,,,,,,,,,,,,,,,,,,,,1134.7254598999998,None,,,,,,,,,,,,,,,,,mankind,57,163,silent,old,blue,1132.4305943,None,1132.4305943,None,1,1.3967581000006248,1132.4305943,None,1.3967581000006248,1133.859767,None,1134.3795242999995,None,1134.3795242999995,None,n,0.3199555999999575,1134.3795242999995,None,0.3199555999999575,,,Silent13,001,2022_Aug_03_1538,ProdSingRedoBetween,2021.2.3,59.883825378867684,
,,,,163,0,163,0,,,,,,,,,,,,,,,,,,,,,,1137.3447996999994,None,,,,,,,,,,,,,,,,,congress,170,164,silent,new,null,1135.2275064999994,None,1135.2275064999994,None,1,1.2718092000004617,1135.2275064999994,None,1.2718092000004617,1136.5285078999996,None,1137.0350350999997,None,1137.0350350999997,None,n,0.2883411000002525,1137.0350350999997,None,0.2883411000002525,,,Silent13,001,2022_Aug_03_1538,ProdSingRedoBetween,2021.2.3,59.883825378867684,
,,,,164,0,164,0,,,,,,,,,,,,,,,,,,,,,,1140.1474853,None,,,,,,,,,,,,,,,,,little,81,165,silent,old,red,1137.8602243999994,None,1137.8602243999994,None,1,1.5431965999996464,1137.8602243999994,None,1.5431965999996464,1139.4364729,None,1139.9472993,None,1139.9472993,None,n,0.1840924999996787,1139.9472993,None,0.1840924999996787,,,Silent13,001,2022_Aug_03_1538,ProdSingRedoBetween,2021.2.3,59.883825378867684,
,,,,165,0,165,0,,,,,,,,,,,,,,,,,,,,,,1143.3340336,None,,,,,,,,,,,,,,,,,throw,63,166,silent,old,red,1140.6543209000001,None,1140.6543209000001,None,6,1.700988900000084,1140.6543209000001,None,1.700988900000084,1142.384102,None,1142.8878759999998,None,1142.8878759999998,None,f,0.41941940000015165,1142.8878759999998,None,0.41941940000015165,,,Silent13,001,2022_Aug_03_1538,ProdSingRedoBetween,2021.2.3,59.883825378867684,
,,,,166,0,166,0,,,,,,,,,,,,,,,,,,,,,,1145.9864895,None,,,,,,,,,,,,,,,,,collection,134,167,silent,new,null,1143.8434456999994,None,1143.8434456999994,None,1,1.3998523999998724,1143.8434456999994,None,1.3998523999998724,1145.2703027999996,None,1145.7785281999995,None,1145.7785281999995,None,n,0.1769133999996484,1145.7785281999995,None,0.1769133999996484,,,Silent13,001,2022_Aug_03_1538,ProdSingRedoBetween,2021.2.3,59.883825378867684,
,,,,167,0,167,0,,,,,,,,,,,,,,,,,,,,,,1151.8258521999996,None,,,,,,,,,,,,,,,,,primary,16,168,silent,old,yellow,1146.4901107999995,None,1146.4901107999995,None,1,2.6813929999998436,1146.4901107999995,None,2.6813929999998436,1149.2020022999995,None,1149.7102712999995,None,1149.7102712999995,None,n,2.0932455000001937,1149.7102712999995,None,2.0932455000001937,,,Silent13,001,2022_Aug_03_1538,ProdSingRedoBetween,2021.2.3,59.883825378867684,
,,,,168,0,168,0,,,,,,,,,,,,,,,,,,,,,,1154.3451613999996,None,,,,,,,,,,,,,,,,,society,125,169,silent,new,null,1152.3276408000002,None,1152.3276408000002,None,1,1.2757537999996202,1152.3276408000002,None,1.2757537999996202,1153.6322512999996,None,1154.1449076,None,1154.1449076,None,n,0.17835420000028535,1154.1449076,None,0.17835420000028535,,,Silent13,001,2022_Aug_03_1538,ProdSingRedoBetween,2021.2.3,59.883825378867684,
,,,,169,0,169,0,,,,,,,,,,,,,,,,,,,,,,1157.2490355,None,,,,,,,,,,,,,,,,,committee,46,170,silent,old,blue,1154.8528563,None,1154.8528563,None,1,1.7025008999999045,1154.8528563,None,1.7025008999999045,1156.5816620999994,None,1157.0892808999997,None,1157.0892808999997,None,n,0.1301922000002378,1157.0892808999997,None,0.1301922000002378,,,Silent13,001,2022_Aug_03_1538,ProdSingRedoBetween,2021.2.3,59.883825378867684,
,,,,170,0,170,0,,,,,,,,,,,,,,,,,,,,,,1159.9506185,None,,,,,,,,,,,,,,,,,space,25,171,silent,old,yellow,1157.7538319999994,None,1157.7538319999994,None,1,1.3295739000004687,1157.7538319999994,None,1.3295739000004687,1159.0999102999995,None,1159.6000431000002,None,1159.6000431000002,None,n,0.33128280000073573,1159.6000431000002,None,0.33128280000073573,,,Silent13,001,2022_Aug_03_1538,ProdSingRedoBetween,2021.2.3,59.883825378867684,
,,,,171,0,171,0,,,,,,,,,,,,,,,,,,,,,,1162.7699301000002,None,,,,,,,,,,,,,,,,,pancakes,97,172,silent,new,null,1160.4614089999995,None,1160.4614089999995,None,1,1.373904200000652,1160.4614089999995,None,1.373904200000652,1161.8541353,None,1162.3696019999998,None,1162.3696019999998,None,n,0.37770389999968756,1162.3696019999998,None,0.37770389999968756,,,Silent13,001,2022_Aug_03_1538,ProdSingRedoBetween,2021.2.3,59.883825378867684,
,,,,172,0,172,0,,,,,,,,,,,,,,,,,,,,,,1165.7395716,None,,,,,,,,,,,,,,,,,weight,55,173,silent,old,blue,1163.2763202999995,None,1163.2763202999995,None,3,1.7189165999998295,1163.2763202999995,None,1.7189165999998295,1165.0282826000002,None,1165.5394755999996,None,1165.5394755999996,None,f,0.17578859999957785,1165.5394755999996,None,0.17578859999957785,,,Silent13,001,2022_Aug_03_1538,ProdSingRedoBetween,2021.2.3,59.883825378867684,
,,,,173,0,173,0,,,,,,,,,,,,,,,,,,,,,,1168.3286139000002,None,,,,,,,,,,,,,,,,,blind,48,174,silent,old,blue,1166.2465081999999,None,1166.2465081999999,None,1,1.2928939000003083,1166.2465081999999,None,1.2928939000003083,1167.5599205999997,None,1168.0761536999998,None,1168.0761536999998,None,n,0.23121439999977156,1168.0761536999998,None,0.23121439999977156,,,Silent13,001,2022_Aug_03_1538,ProdSingRedoBetween,2021.2.3,59.883825378867684,
,,,,174,0,174,0,,,,,,,,,,,,,,,,,,,,,,1171.2492549999997,None,,,,,,,,,,,,,,,,,safety,53,175,silent,old,blue,1168.8450606999995,None,1168.8450606999995,None,4,1.7263166000002457,1168.8450606999995,None,1.7263166000002457,1170.5960768999994,None,1171.0998717000002,None,1171.0998717000002,None,f,0.12769459999981336,1171.0998717000002,None,0.12769459999981336,,,Silent13,001,2022_Aug_03_1538,ProdSingRedoBetween,2021.2.3,59.883825378867684,
,,,,175,0,175,0,,,,,,,,,,,,,,,,,,,,,,1173.7812702,None,,,,,,,,,,,,,,,,,surface,113,176,silent,new,null,1171.7661608999997,None,1171.7661608999997,None,1,1.3092242000002443,1171.7661608999997,None,1.3092242000002443,1173.0996421,None,1173.6169394999997,None,1173.6169394999997,None,n,0.14639870000064548,1173.6169394999997,None,0.14639870000064548,,,Silent13,001,2022_Aug_03_1538,ProdSingRedoBetween,2021.2.3,59.883825378867684,
,,,,176,0,176,0,,,,,,,,,,,,,,,,,,,,,,1176.4171971999995,None,,,,,,,,,,,,,,,,,escape,89,177,silent,old,red,1174.2920918999998,None,1174.2920918999998,None,1,1.3032839999996213,1174.2920918999998,None,1.3032839999996213,1175.6175397999996,None,1176.1170498000001,None,1176.1170498000001,None,n,0.27040630000010424,1176.1170498000001,None,0.27040630000010424,,,Silent13,001,2022_Aug_03_1538,ProdSingRedoBetween,2021.2.3,59.883825378867684,
,,,,177,0,177,0,,,,,,,,,,,,,,,,,,,,,,1179.0123591000001,None,,,,,,,,,,,,,,,,,hearing,83,178,silent,old,red,1176.9274561000002,None,1176.9274561000002,None,1,1.3399905999995099,1176.9274561000002,None,1.3399905999995099,1178.2891949999994,None,1178.8116814999994,None,1178.8116814999994,None,n,0.16002260000004753,1178.8116814999994,None,0.16002260000004753,,,Silent13,001,2022_Aug_03_1538,ProdSingRedoBetween,2021.2.3,59.883825378867684,
