StudyLoop.thisRepN,StudyLoop.thisTrialN,StudyLoop.thisN,StudyLoop.thisIndex,TestLoop.thisRepN,TestLoop.thisTrialN,TestLoop.thisN,TestLoop.thisIndex,textCondition.started,textCondition.stopped,keyCondition.keys,keyCondition.rt,keyCondition.started,keyCondition.stopped,Condition,textWelcome.started,textWelcome.stopped,keyWelcome.keys,keyWelcome.rt,keyWelcome.started,keyWelcome.stopped,textAloud.started,textAloud.stopped,textSilent.started,textSilent.stopped,textSing.started,textSing.stopped,conditional_text.started,conditional_text.stopped,textBlank500.started,textBlank500.stopped,study_word,study_num,study_order,study_type,word_color,textStudy.started,textStudy.stopped,keyStudy.keys,keyStudy.started,keyStudy.stopped,textTestInstructions.started,textTestInstructions.stopped,key_resp_3.keys,key_resp_3.rt,key_resp_3.started,key_resp_3.stopped,test_word,test_num,test_order,test_condition,old_new_test,test_word_original_color,textConf.started,textConf.stopped,textConfScale.started,textConfScale.stopped,keyConf.keys,keyConf.rt,keyConf.started,keyConf.stopped,confidence response time,textTestBlank.started,textTestBlank.stopped,textRKN.started,textRKN.stopped,textRKNScale.started,textRKNScale.stopped,keyRKN.keys,keyRKN.rt,keyRKN.started,keyRKN.stopped,rkn response time,textEnd.started,textEnd.stopped,participant,session,date,expName,psychopyVersion,frameRate,
,,,,,,,,20.803074500000548,None,c,0.7887570000002597,20.803074500000548,None,,,,,,,,,,,,,,,,,,,,,,,,,,,,,,,,,,,,,,,,,,,,,,,,,,,,,,,,,,,,,,140Sing,001,2023_Oct_27_1333,ProdSingRedoBetween,2021.2.3,59.9192408473993,
,,,,,,,,,,,,,,SingTest,21.62853559999985,None,space,147.74709970000004,21.62853559999985,None,,,,,,,,,,,,,,,,,,,,,,,,,,,,,,,,,,,,,,,,,,,,,,,,,,,,,,,140Sing,001,2023_Oct_27_1333,ProdSingRedoBetween,2021.2.3,59.9192408473993,
0,0,0,0,,,,,,,,,,,,,,,,,,21.62853559999985,None,21.62853559999985,None,21.62853559999985,None,21.62853559999985,None,171.90922600000067,None,article,49,1,sing,blue,169.9075539000005,None,None,169.9075539000005,None,,,,,,,,,,,,,,,,,,,,,,,,,,,,,,,,,,,140Sing,001,2023_Oct_27_1333,ProdSingRedoBetween,2021.2.3,59.9192408473993,
1,0,1,0,,,,,,,,,,,,,,,,,,,,,,,,,,174.4118752000004,None,display,13,2,sing,yellow,172.4098210000002,None,None,172.4098210000002,None,,,,,,,,,,,,,,,,,,,,,,,,,,,,,,,,,,,140Sing,001,2023_Oct_27_1333,ProdSingRedoBetween,2021.2.3,59.9192408473993,
2,0,2,0,,,,,,,,,,,,,,,,,,,,,,,,,,176.91433320000033,None,rural,50,3,sing,blue,174.91248859999996,None,None,174.91248859999996,None,,,,,,,,,,,,,,,,,,,,,,,,,,,,,,,,,,,140Sing,001,2023_Oct_27_1333,ProdSingRedoBetween,2021.2.3,59.9192408473993,
3,0,3,0,,,,,,,,,,,,,,,,,,,,,,,,,,179.41707029999998,None,voice,69,4,sing,red,177.4165311000006,None,None,177.4165311000006,None,,,,,,,,,,,,,,,,,,,,,,,,,,,,,,,,,,,140Sing,001,2023_Oct_27_1333,ProdSingRedoBetween,2021.2.3,59.9192408473993,
4,0,4,0,,,,,,,,,,,,,,,,,,,,,,,,,,181.9193795000001,None,trial,29,5,sing,blue,179.9175423000006,None,None,179.9175423000006,None,,,,,,,,,,,,,,,,,,,,,,,,,,,,,,,,,,,140Sing,001,2023_Oct_27_1333,ProdSingRedoBetween,2021.2.3,59.9192408473993,
5,0,5,0,,,,,,,,,,,,,,,,,,,,,,,,,,184.4222862000006,None,second,40,6,sing,blue,182.42008400000032,None,None,182.42008400000032,None,,,,,,,,,,,,,,,,,,,,,,,,,,,,,,,,,,,140Sing,001,2023_Oct_27_1333,ProdSingRedoBetween,2021.2.3,59.9192408473993,
6,0,6,0,,,,,,,,,,,,,,,,,,,,,,,,,,186.92456610000045,None,season,62,7,sing,red,184.92256840000027,None,None,184.92256840000027,None,,,,,,,,,,,,,,,,,,,,,,,,,,,,,,,,,,,140Sing,001,2023_Oct_27_1333,ProdSingRedoBetween,2021.2.3,59.9192408473993,
7,0,7,0,,,,,,,,,,,,,,,,,,,,,,,,,,189.42720869999994,None,addition,85,8,sing,red,187.4249144000005,None,None,187.4249144000005,None,,,,,,,,,,,,,,,,,,,,,,,,,,,,,,,,,,,140Sing,001,2023_Oct_27_1333,ProdSingRedoBetween,2021.2.3,59.9192408473993,
8,0,8,0,,,,,,,,,,,,,,,,,,,,,,,,,,191.92939960000058,None,mechanical,45,9,sing,blue,189.92740670000057,None,None,189.92740670000057,None,,,,,,,,,,,,,,,,,,,,,,,,,,,,,,,,,,,140Sing,001,2023_Oct_27_1333,ProdSingRedoBetween,2021.2.3,59.9192408473993,
9,0,9,0,,,,,,,,,,,,,,,,,,,,,,,,,,194.4488994000003,None,subject,56,10,sing,blue,192.4339058000005,None,None,192.4339058000005,None,,,,,,,,,,,,,,,,,,,,,,,,,,,,,,,,,,,140Sing,001,2023_Oct_27_1333,ProdSingRedoBetween,2021.2.3,59.9192408473993,
10,0,10,0,,,,,,,,,,,,,,,,,,,,,,,,,,196.95113840000067,None,beauty,24,11,sing,yellow,194.94918640000014,None,None,194.94918640000014,None,,,,,,,,,,,,,,,,,,,,,,,,,,,,,,,,,,,140Sing,001,2023_Oct_27_1333,ProdSingRedoBetween,2021.2.3,59.9192408473993,
11,0,11,0,,,,,,,,,,,,,,,,,,,,,,,,,,199.4538536,None,brilliant,22,12,sing,yellow,197.45140249999986,None,None,197.45140249999986,None,,,,,,,,,,,,,,,,,,,,,,,,,,,,,,,,,,,140Sing,001,2023_Oct_27_1333,ProdSingRedoBetween,2021.2.3,59.9192408473993,
12,0,12,0,,,,,,,,,,,,,,,,,,,,,,,,,,201.9563533999999,None,speech,53,13,sing,blue,199.95419430000038,None,None,199.95419430000038,None,,,,,,,,,,,,,,,,,,,,,,,,,,,,,,,,,,,140Sing,001,2023_Oct_27_1333,ProdSingRedoBetween,2021.2.3,59.9192408473993,
13,0,13,0,,,,,,,,,,,,,,,,,,,,,,,,,,204.4587844000007,None,personnel,77,14,sing,red,202.4570618000007,None,None,202.4570618000007,None,,,,,,,,,,,,,,,,,,,,,,,,,,,,,,,,,,,140Sing,001,2023_Oct_27_1333,ProdSingRedoBetween,2021.2.3,59.9192408473993,
14,0,14,0,,,,,,,,,,,,,,,,,,,,,,,,,,206.96091780000006,None,guide,60,15,sing,red,204.95909160000065,None,None,204.95909160000065,None,,,,,,,,,,,,,,,,,,,,,,,,,,,,,,,,,,,140Sing,001,2023_Oct_27_1333,ProdSingRedoBetween,2021.2.3,59.9192408473993,
15,0,15,0,,,,,,,,,,,,,,,,,,,,,,,,,,209.46369229999982,None,skill,51,16,sing,blue,207.46143389999997,None,None,207.46143389999997,None,,,,,,,,,,,,,,,,,,,,,,,,,,,,,,,,,,,140Sing,001,2023_Oct_27_1333,ProdSingRedoBetween,2021.2.3,59.9192408473993,
16,0,16,0,,,,,,,,,,,,,,,,,,,,,,,,,,211.9662274000002,None,heavy,10,17,sing,yellow,209.9638203000004,None,None,209.9638203000004,None,,,,,,,,,,,,,,,,,,,,,,,,,,,,,,,,,,,140Sing,001,2023_Oct_27_1333,ProdSingRedoBetween,2021.2.3,59.9192408473993,
17,0,17,0,,,,,,,,,,,,,,,,,,,,,,,,,,214.46879100000024,None,primary,30,18,sing,blue,212.4665911000002,None,None,212.4665911000002,None,,,,,,,,,,,,,,,,,,,,,,,,,,,,,,,,,,,140Sing,001,2023_Oct_27_1333,ProdSingRedoBetween,2021.2.3,59.9192408473993,
18,0,18,0,,,,,,,,,,,,,,,,,,,,,,,,,,216.97096469999997,None,working,3,19,sing,yellow,214.97089360000064,None,None,214.97089360000064,None,,,,,,,,,,,,,,,,,,,,,,,,,,,,,,,,,,,140Sing,001,2023_Oct_27_1333,ProdSingRedoBetween,2021.2.3,59.9192408473993,
19,0,19,0,,,,,,,,,,,,,,,,,,,,,,,,,,219.47356670000045,None,beginning,82,20,sing,red,217.47168020000026,None,None,217.47168020000026,None,,,,,,,,,,,,,,,,,,,,,,,,,,,,,,,,,,,140Sing,001,2023_Oct_27_1333,ProdSingRedoBetween,2021.2.3,59.9192408473993,
20,0,20,0,,,,,,,,,,,,,,,,,,,,,,,,,,221.9761152000001,None,height,27,21,sing,yellow,219.97440170000027,None,None,219.97440170000027,None,,,,,,,,,,,,,,,,,,,,,,,,,,,,,,,,,,,140Sing,001,2023_Oct_27_1333,ProdSingRedoBetween,2021.2.3,59.9192408473993,
21,0,21,0,,,,,,,,,,,,,,,,,,,,,,,,,,224.4949731000006,None,signal,58,22,sing,blue,222.4830019000001,None,None,222.4830019000001,None,,,,,,,,,,,,,,,,,,,,,,,,,,,,,,,,,,,140Sing,001,2023_Oct_27_1333,ProdSingRedoBetween,2021.2.3,59.9192408473993,
22,0,22,0,,,,,,,,,,,,,,,,,,,,,,,,,,226.99766570000065,None,husband,65,23,sing,red,224.99597670000003,None,None,224.99597670000003,None,,,,,,,,,,,,,,,,,,,,,,,,,,,,,,,,,,,140Sing,001,2023_Oct_27_1333,ProdSingRedoBetween,2021.2.3,59.9192408473993,
23,0,23,0,,,,,,,,,,,,,,,,,,,,,,,,,,229.50044620000062,None,stranger,81,24,sing,red,227.49849320000067,None,None,227.49849320000067,None,,,,,,,,,,,,,,,,,,,,,,,,,,,,,,,,,,,140Sing,001,2023_Oct_27_1333,ProdSingRedoBetween,2021.2.3,59.9192408473993,
24,0,24,0,,,,,,,,,,,,,,,,,,,,,,,,,,232.00292369999988,None,region,79,25,sing,red,230.0010151000006,None,None,230.0010151000006,None,,,,,,,,,,,,,,,,,,,,,,,,,,,,,,,,,,,140Sing,001,2023_Oct_27_1333,ProdSingRedoBetween,2021.2.3,59.9192408473993,
25,0,25,0,,,,,,,,,,,,,,,,,,,,,,,,,,234.50541780000003,None,atmosphere,71,26,sing,red,232.5031138000004,None,None,232.5031138000004,None,,,,,,,,,,,,,,,,,,,,,,,,,,,,,,,,,,,140Sing,001,2023_Oct_27_1333,ProdSingRedoBetween,2021.2.3,59.9192408473993,
26,0,26,0,,,,,,,,,,,,,,,,,,,,,,,,,,237.0078024000004,None,character,7,27,sing,yellow,235.0057983000006,None,None,235.0057983000006,None,,,,,,,,,,,,,,,,,,,,,,,,,,,,,,,,,,,140Sing,001,2023_Oct_27_1333,ProdSingRedoBetween,2021.2.3,59.9192408473993,
27,0,27,0,,,,,,,,,,,,,,,,,,,,,,,,,,239.5101623999999,None,childhood,1,28,sing,yellow,237.50833169999987,None,None,237.50833169999987,None,,,,,,,,,,,,,,,,,,,,,,,,,,,,,,,,,,,140Sing,001,2023_Oct_27_1333,ProdSingRedoBetween,2021.2.3,59.9192408473993,
28,0,28,0,,,,,,,,,,,,,,,,,,,,,,,,,,242.01267700000062,None,design,44,29,sing,blue,240.010757,None,None,240.010757,None,,,,,,,,,,,,,,,,,,,,,,,,,,,,,,,,,,,140Sing,001,2023_Oct_27_1333,ProdSingRedoBetween,2021.2.3,59.9192408473993,
29,0,29,0,,,,,,,,,,,,,,,,,,,,,,,,,,244.51514290000068,None,session,86,30,sing,red,242.5132321000001,None,None,242.5132321000001,None,,,,,,,,,,,,,,,,,,,,,,,,,,,,,,,,,,,140Sing,001,2023_Oct_27_1333,ProdSingRedoBetween,2021.2.3,59.9192408473993,
30,0,30,0,,,,,,,,,,,,,,,,,,,,,,,,,,247.01769650000006,None,symbol,64,31,sing,red,245.01593150000008,None,None,245.01593150000008,None,,,,,,,,,,,,,,,,,,,,,,,,,,,,,,,,,,,140Sing,001,2023_Oct_27_1333,ProdSingRedoBetween,2021.2.3,59.9192408473993,
31,0,31,0,,,,,,,,,,,,,,,,,,,,,,,,,,249.5201090999999,None,fellow,20,32,sing,yellow,247.5184822000001,None,None,247.5184822000001,None,,,,,,,,,,,,,,,,,,,,,,,,,,,,,,,,,,,140Sing,001,2023_Oct_27_1333,ProdSingRedoBetween,2021.2.3,59.9192408473993,
32,0,32,0,,,,,,,,,,,,,,,,,,,,,,,,,,252.0227605,None,cover,41,33,sing,blue,250.02078690000053,None,None,250.02078690000053,None,,,,,,,,,,,,,,,,,,,,,,,,,,,,,,,,,,,140Sing,001,2023_Oct_27_1333,ProdSingRedoBetween,2021.2.3,59.9192408473993,
33,0,33,0,,,,,,,,,,,,,,,,,,,,,,,,,,254.5251173000006,None,incident,59,34,sing,yellow,252.52318819999982,None,None,252.52318819999982,None,,,,,,,,,,,,,,,,,,,,,,,,,,,,,,,,,,,140Sing,001,2023_Oct_27_1333,ProdSingRedoBetween,2021.2.3,59.9192408473993,
34,0,34,0,,,,,,,,,,,,,,,,,,,,,,,,,,257.02749290000065,None,bureau,33,35,sing,blue,255.0269460999998,None,None,255.0269460999998,None,,,,,,,,,,,,,,,,,,,,,,,,,,,,,,,,,,,140Sing,001,2023_Oct_27_1333,ProdSingRedoBetween,2021.2.3,59.9192408473993,
35,0,35,0,,,,,,,,,,,,,,,,,,,,,,,,,,259.5300378000002,None,pattern,52,36,sing,blue,257.5284908000003,None,None,257.5284908000003,None,,,,,,,,,,,,,,,,,,,,,,,,,,,,,,,,,,,140Sing,001,2023_Oct_27_1333,ProdSingRedoBetween,2021.2.3,59.9192408473993,
36,0,36,0,,,,,,,,,,,,,,,,,,,,,,,,,,262.0329259,None,reading,32,37,sing,blue,260.0306182000004,None,None,260.0306182000004,None,,,,,,,,,,,,,,,,,,,,,,,,,,,,,,,,,,,140Sing,001,2023_Oct_27_1333,ProdSingRedoBetween,2021.2.3,59.9192408473993,
37,0,37,0,,,,,,,,,,,,,,,,,,,,,,,,,,264.53544710000006,None,escape,66,38,sing,red,262.53310220000003,None,None,262.53310220000003,None,,,,,,,,,,,,,,,,,,,,,,,,,,,,,,,,,,,140Sing,001,2023_Oct_27_1333,ProdSingRedoBetween,2021.2.3,59.9192408473993,
38,0,38,0,,,,,,,,,,,,,,,,,,,,,,,,,,267.03768260000015,None,question,87,39,sing,red,265.03578480000033,None,None,265.03578480000033,None,,,,,,,,,,,,,,,,,,,,,,,,,,,,,,,,,,,140Sing,001,2023_Oct_27_1333,ProdSingRedoBetween,2021.2.3,59.9192408473993,
39,0,39,0,,,,,,,,,,,,,,,,,,,,,,,,,,269.54012200000034,None,travel,17,40,sing,yellow,267.5383238000004,None,None,267.5383238000004,None,,,,,,,,,,,,,,,,,,,,,,,,,,,,,,,,,,,140Sing,001,2023_Oct_27_1333,ProdSingRedoBetween,2021.2.3,59.9192408473993,
40,0,40,0,,,,,,,,,,,,,,,,,,,,,,,,,,272.04277230000025,None,express,0,41,sing,yellow,270.0408103,None,None,270.0408103,None,,,,,,,,,,,,,,,,,,,,,,,,,,,,,,,,,,,140Sing,001,2023_Oct_27_1333,ProdSingRedoBetween,2021.2.3,59.9192408473993,
41,0,41,0,,,,,,,,,,,,,,,,,,,,,,,,,,274.54548690000047,None,colonel,8,42,sing,yellow,272.54329529999995,None,None,272.54329529999995,None,,,,,,,,,,,,,,,,,,,,,,,,,,,,,,,,,,,140Sing,001,2023_Oct_27_1333,ProdSingRedoBetween,2021.2.3,59.9192408473993,
42,0,42,0,,,,,,,,,,,,,,,,,,,,,,,,,,277.0473128000003,None,tragedy,88,43,sing,red,275.0460928000002,None,None,275.0460928000002,None,,,,,,,,,,,,,,,,,,,,,,,,,,,,,,,,,,,140Sing,001,2023_Oct_27_1333,ProdSingRedoBetween,2021.2.3,59.9192408473993,
43,0,43,0,,,,,,,,,,,,,,,,,,,,,,,,,,279.5501377999999,None,whole,74,44,sing,red,277.5482597,None,None,277.5482597,None,,,,,,,,,,,,,,,,,,,,,,,,,,,,,,,,,,,140Sing,001,2023_Oct_27_1333,ProdSingRedoBetween,2021.2.3,59.9192408473993,
44,0,44,0,,,,,,,,,,,,,,,,,,,,,,,,,,282.05261940000037,None,running,68,45,sing,red,280.0508239999999,None,None,280.0508239999999,None,,,,,,,,,,,,,,,,,,,,,,,,,,,,,,,,,,,140Sing,001,2023_Oct_27_1333,ProdSingRedoBetween,2021.2.3,59.9192408473993,
45,0,45,0,,,,,,,,,,,,,,,,,,,,,,,,,,284.55510050000066,None,evidence,18,46,sing,yellow,282.5530434000002,None,None,282.5530434000002,None,,,,,,,,,,,,,,,,,,,,,,,,,,,,,,,,,,,140Sing,001,2023_Oct_27_1333,ProdSingRedoBetween,2021.2.3,59.9192408473993,
46,0,46,0,,,,,,,,,,,,,,,,,,,,,,,,,,287.05763840000054,None,sleep,2,47,sing,yellow,285.05581880000045,None,None,285.05581880000045,None,,,,,,,,,,,,,,,,,,,,,,,,,,,,,,,,,,,140Sing,001,2023_Oct_27_1333,ProdSingRedoBetween,2021.2.3,59.9192408473993,
47,0,47,0,,,,,,,,,,,,,,,,,,,,,,,,,,289.5605817000005,None,enemy,9,48,sing,yellow,287.5583161000004,None,None,287.5583161000004,None,,,,,,,,,,,,,,,,,,,,,,,,,,,,,,,,,,,140Sing,001,2023_Oct_27_1333,ProdSingRedoBetween,2021.2.3,59.9192408473993,
48,0,48,0,,,,,,,,,,,,,,,,,,,,,,,,,,292.0626940000002,None,watch,31,49,sing,blue,290.06119370000033,None,None,290.06119370000033,None,,,,,,,,,,,,,,,,,,,,,,,,,,,,,,,,,,,140Sing,001,2023_Oct_27_1333,ProdSingRedoBetween,2021.2.3,59.9192408473993,
49,0,49,0,,,,,,,,,,,,,,,,,,,,,,,,,,294.5654634000002,None,captain,4,50,sing,yellow,292.56301919999987,None,None,292.56301919999987,None,,,,,,,,,,,,,,,,,,,,,,,,,,,,,,,,,,,140Sing,001,2023_Oct_27_1333,ProdSingRedoBetween,2021.2.3,59.9192408473993,
50,0,50,0,,,,,,,,,,,,,,,,,,,,,,,,,,297.0675220000003,None,patient,37,51,sing,blue,295.0655802000001,None,None,295.0655802000001,None,,,,,,,,,,,,,,,,,,,,,,,,,,,,,,,,,,,140Sing,001,2023_Oct_27_1333,ProdSingRedoBetween,2021.2.3,59.9192408473993,
51,0,51,0,,,,,,,,,,,,,,,,,,,,,,,,,,299.57031110000025,None,cross,76,52,sing,red,297.56835409999985,None,None,297.56835409999985,None,,,,,,,,,,,,,,,,,,,,,,,,,,,,,,,,,,,140Sing,001,2023_Oct_27_1333,ProdSingRedoBetween,2021.2.3,59.9192408473993,
52,0,52,0,,,,,,,,,,,,,,,,,,,,,,,,,,302.07273350000014,None,match,84,53,sing,red,300.07058589999997,None,None,300.07058589999997,None,,,,,,,,,,,,,,,,,,,,,,,,,,,,,,,,,,,140Sing,001,2023_Oct_27_1333,ProdSingRedoBetween,2021.2.3,59.9192408473993,
53,0,53,0,,,,,,,,,,,,,,,,,,,,,,,,,,304.57563029999983,None,native,78,54,sing,red,302.57308900000044,None,None,302.57308900000044,None,,,,,,,,,,,,,,,,,,,,,,,,,,,,,,,,,,,140Sing,001,2023_Oct_27_1333,ProdSingRedoBetween,2021.2.3,59.9192408473993,
54,0,54,0,,,,,,,,,,,,,,,,,,,,,,,,,,307.07729480000035,None,present,5,55,sing,yellow,305.07637200000045,None,None,305.07637200000045,None,,,,,,,,,,,,,,,,,,,,,,,,,,,,,,,,,,,140Sing,001,2023_Oct_27_1333,ProdSingRedoBetween,2021.2.3,59.9192408473993,
55,0,55,0,,,,,,,,,,,,,,,,,,,,,,,,,,309.58047780000015,None,commercial,55,56,sing,blue,307.5780912,None,None,307.5780912,None,,,,,,,,,,,,,,,,,,,,,,,,,,,,,,,,,,,140Sing,001,2023_Oct_27_1333,ProdSingRedoBetween,2021.2.3,59.9192408473993,
56,0,56,0,,,,,,,,,,,,,,,,,,,,,,,,,,312.0828683,None,trash,26,57,sing,yellow,310.0805083000005,None,None,310.0805083000005,None,,,,,,,,,,,,,,,,,,,,,,,,,,,,,,,,,,,140Sing,001,2023_Oct_27_1333,ProdSingRedoBetween,2021.2.3,59.9192408473993,
57,0,57,0,,,,,,,,,,,,,,,,,,,,,,,,,,314.5850373000003,None,break,73,58,sing,red,312.5855281000004,None,None,312.5855281000004,None,,,,,,,,,,,,,,,,,,,,,,,,,,,,,,,,,,,140Sing,001,2023_Oct_27_1333,ProdSingRedoBetween,2021.2.3,59.9192408473993,
58,0,58,0,,,,,,,,,,,,,,,,,,,,,,,,,,317.0877453000003,None,agreement,57,59,sing,blue,315.0886066000003,None,None,315.0886066000003,None,,,,,,,,,,,,,,,,,,,,,,,,,,,,,,,,,,,140Sing,001,2023_Oct_27_1333,ProdSingRedoBetween,2021.2.3,59.9192408473993,
59,0,59,0,,,,,,,,,,,,,,,,,,,,,,,,,,319.5899546999999,None,block,54,60,sing,blue,317.58805500000017,None,None,317.58805500000017,None,,,,,,,,,,,,,,,,,,,,,,,,,,,,,,,,,,,140Sing,001,2023_Oct_27_1333,ProdSingRedoBetween,2021.2.3,59.9192408473993,
60,0,60,0,,,,,,,,,,,,,,,,,,,,,,,,,,322.09298000000035,None,under,72,61,sing,red,320.09059530000013,None,None,320.09059530000013,None,,,,,,,,,,,,,,,,,,,,,,,,,,,,,,,,,,,140Sing,001,2023_Oct_27_1333,ProdSingRedoBetween,2021.2.3,59.9192408473993,
61,0,61,0,,,,,,,,,,,,,,,,,,,,,,,,,,324.5952906000002,None,agency,46,62,sing,blue,322.5935717000002,None,None,322.5935717000002,None,,,,,,,,,,,,,,,,,,,,,,,,,,,,,,,,,,,140Sing,001,2023_Oct_27_1333,ProdSingRedoBetween,2021.2.3,59.9192408473993,
62,0,62,0,,,,,,,,,,,,,,,,,,,,,,,,,,327.0977197000002,None,damage,23,63,sing,yellow,325.0958341000005,None,None,325.0958341000005,None,,,,,,,,,,,,,,,,,,,,,,,,,,,,,,,,,,,140Sing,001,2023_Oct_27_1333,ProdSingRedoBetween,2021.2.3,59.9192408473993,
63,0,63,0,,,,,,,,,,,,,,,,,,,,,,,,,,329.6005101999999,None,recall,80,64,sing,red,327.598062,None,None,327.598062,None,,,,,,,,,,,,,,,,,,,,,,,,,,,,,,,,,,,140Sing,001,2023_Oct_27_1333,ProdSingRedoBetween,2021.2.3,59.9192408473993,
64,0,64,0,,,,,,,,,,,,,,,,,,,,,,,,,,332.10259870000027,None,universal,43,65,sing,blue,330.1006339000005,None,None,330.1006339000005,None,,,,,,,,,,,,,,,,,,,,,,,,,,,,,,,,,,,140Sing,001,2023_Oct_27_1333,ProdSingRedoBetween,2021.2.3,59.9192408473993,
65,0,65,0,,,,,,,,,,,,,,,,,,,,,,,,,,334.6053300000003,None,poetry,70,66,sing,red,332.6030158000003,None,None,332.6030158000003,None,,,,,,,,,,,,,,,,,,,,,,,,,,,,,,,,,,,140Sing,001,2023_Oct_27_1333,ProdSingRedoBetween,2021.2.3,59.9192408473993,
66,0,66,0,,,,,,,,,,,,,,,,,,,,,,,,,,337.1074126000003,None,payment,39,67,sing,blue,335.10567360000005,None,None,335.10567360000005,None,,,,,,,,,,,,,,,,,,,,,,,,,,,,,,,,,,,140Sing,001,2023_Oct_27_1333,ProdSingRedoBetween,2021.2.3,59.9192408473993,
67,0,67,0,,,,,,,,,,,,,,,,,,,,,,,,,,339.61044370000036,None,orchestra,36,68,sing,blue,337.6082918000002,None,None,337.6082918000002,None,,,,,,,,,,,,,,,,,,,,,,,,,,,,,,,,,,,140Sing,001,2023_Oct_27_1333,ProdSingRedoBetween,2021.2.3,59.9192408473993,
68,0,68,0,,,,,,,,,,,,,,,,,,,,,,,,,,342.1127393000006,None,bright,19,69,sing,yellow,340.11059000000023,None,None,340.11059000000023,None,,,,,,,,,,,,,,,,,,,,,,,,,,,,,,,,,,,140Sing,001,2023_Oct_27_1333,ProdSingRedoBetween,2021.2.3,59.9192408473993,
69,0,69,0,,,,,,,,,,,,,,,,,,,,,,,,,,344.6152772000005,None,service,47,70,sing,blue,342.6130854000003,None,None,342.6130854000003,None,,,,,,,,,,,,,,,,,,,,,,,,,,,,,,,,,,,140Sing,001,2023_Oct_27_1333,ProdSingRedoBetween,2021.2.3,59.9192408473993,
70,0,70,0,,,,,,,,,,,,,,,,,,,,,,,,,,347.1175854000003,None,quiet,89,71,sing,red,345.11593340000036,None,None,345.11593340000036,None,,,,,,,,,,,,,,,,,,,,,,,,,,,,,,,,,,,140Sing,001,2023_Oct_27_1333,ProdSingRedoBetween,2021.2.3,59.9192408473993,
71,0,71,0,,,,,,,,,,,,,,,,,,,,,,,,,,349.62023469999986,None,sound,14,72,sing,yellow,347.6179957000004,None,None,347.6179957000004,None,,,,,,,,,,,,,,,,,,,,,,,,,,,,,,,,,,,140Sing,001,2023_Oct_27_1333,ProdSingRedoBetween,2021.2.3,59.9192408473993,
72,0,72,0,,,,,,,,,,,,,,,,,,,,,,,,,,352.12306720000015,None,frank,67,73,sing,red,350.12045750000016,None,None,350.12045750000016,None,,,,,,,,,,,,,,,,,,,,,,,,,,,,,,,,,,,140Sing,001,2023_Oct_27_1333,ProdSingRedoBetween,2021.2.3,59.9192408473993,
73,0,73,0,,,,,,,,,,,,,,,,,,,,,,,,,,354.6254478000001,None,minor,12,74,sing,yellow,352.6231065000002,None,None,352.6231065000002,None,,,,,,,,,,,,,,,,,,,,,,,,,,,,,,,,,,,140Sing,001,2023_Oct_27_1333,ProdSingRedoBetween,2021.2.3,59.9192408473993,
74,0,74,0,,,,,,,,,,,,,,,,,,,,,,,,,,357.1276324999999,None,department,16,75,sing,yellow,355.12570700000015,None,None,355.12570700000015,None,,,,,,,,,,,,,,,,,,,,,,,,,,,,,,,,,,,140Sing,001,2023_Oct_27_1333,ProdSingRedoBetween,2021.2.3,59.9192408473993,
75,0,75,0,,,,,,,,,,,,,,,,,,,,,,,,,,359.6304635000006,None,brief,11,76,sing,yellow,357.62802420000025,None,None,357.62802420000025,None,,,,,,,,,,,,,,,,,,,,,,,,,,,,,,,,,,,140Sing,001,2023_Oct_27_1333,ProdSingRedoBetween,2021.2.3,59.9192408473993,
76,0,76,0,,,,,,,,,,,,,,,,,,,,,,,,,,362.13277300000027,None,piece,25,77,sing,yellow,360.1310054000005,None,None,360.1310054000005,None,,,,,,,,,,,,,,,,,,,,,,,,,,,,,,,,,,,140Sing,001,2023_Oct_27_1333,ProdSingRedoBetween,2021.2.3,59.9192408473993,
77,0,77,0,,,,,,,,,,,,,,,,,,,,,,,,,,364.63505560000067,None,build,83,78,sing,red,362.63350549999996,None,None,362.63350549999996,None,,,,,,,,,,,,,,,,,,,,,,,,,,,,,,,,,,,140Sing,001,2023_Oct_27_1333,ProdSingRedoBetween,2021.2.3,59.9192408473993,
78,0,78,0,,,,,,,,,,,,,,,,,,,,,,,,,,367.1377074000002,None,broke,6,79,sing,yellow,365.1353790000003,None,None,365.1353790000003,None,,,,,,,,,,,,,,,,,,,,,,,,,,,,,,,,,,,140Sing,001,2023_Oct_27_1333,ProdSingRedoBetween,2021.2.3,59.9192408473993,
79,0,79,0,,,,,,,,,,,,,,,,,,,,,,,,,,369.64031239999986,None,salary,75,80,sing,red,367.63804359999995,None,None,367.63804359999995,None,,,,,,,,,,,,,,,,,,,,,,,,,,,,,,,,,,,140Sing,001,2023_Oct_27_1333,ProdSingRedoBetween,2021.2.3,59.9192408473993,
80,0,80,0,,,,,,,,,,,,,,,,,,,,,,,,,,372.1424212000002,None,prime,28,81,sing,yellow,370.14070230000016,None,None,370.14070230000016,None,,,,,,,,,,,,,,,,,,,,,,,,,,,,,,,,,,,140Sing,001,2023_Oct_27_1333,ProdSingRedoBetween,2021.2.3,59.9192408473993,
81,0,81,0,,,,,,,,,,,,,,,,,,,,,,,,,,374.6450872000005,None,write,48,82,sing,blue,372.6432960000002,None,None,372.6432960000002,None,,,,,,,,,,,,,,,,,,,,,,,,,,,,,,,,,,,140Sing,001,2023_Oct_27_1333,ProdSingRedoBetween,2021.2.3,59.9192408473993,
82,0,82,0,,,,,,,,,,,,,,,,,,,,,,,,,,377.1474728000003,None,thick,35,83,sing,blue,375.1455921000006,None,None,375.1455921000006,None,,,,,,,,,,,,,,,,,,,,,,,,,,,,,,,,,,,140Sing,001,2023_Oct_27_1333,ProdSingRedoBetween,2021.2.3,59.9192408473993,
83,0,83,0,,,,,,,,,,,,,,,,,,,,,,,,,,379.6505885000006,None,number,38,84,sing,blue,377.64819270000044,None,None,377.64819270000044,None,,,,,,,,,,,,,,,,,,,,,,,,,,,,,,,,,,,140Sing,001,2023_Oct_27_1333,ProdSingRedoBetween,2021.2.3,59.9192408473993,
84,0,84,0,,,,,,,,,,,,,,,,,,,,,,,,,,382.15280130000065,None,fashion,61,85,sing,red,380.1507197000001,None,None,380.1507197000001,None,,,,,,,,,,,,,,,,,,,,,,,,,,,,,,,,,,,140Sing,001,2023_Oct_27_1333,ProdSingRedoBetween,2021.2.3,59.9192408473993,
85,0,85,0,,,,,,,,,,,,,,,,,,,,,,,,,,384.6554710999999,None,still,21,86,sing,yellow,382.6529678000006,None,None,382.6529678000006,None,,,,,,,,,,,,,,,,,,,,,,,,,,,,,,,,,,,140Sing,001,2023_Oct_27_1333,ProdSingRedoBetween,2021.2.3,59.9192408473993,
86,0,86,0,,,,,,,,,,,,,,,,,,,,,,,,,,387.1574930000006,None,foundation,42,87,sing,blue,385.15588600000046,None,None,385.15588600000046,None,,,,,,,,,,,,,,,,,,,,,,,,,,,,,,,,,,,140Sing,001,2023_Oct_27_1333,ProdSingRedoBetween,2021.2.3,59.9192408473993,
87,0,87,0,,,,,,,,,,,,,,,,,,,,,,,,,,389.6598025000003,None,nation,63,88,sing,red,387.65842840000005,None,None,387.65842840000005,None,,,,,,,,,,,,,,,,,,,,,,,,,,,,,,,,,,,140Sing,001,2023_Oct_27_1333,ProdSingRedoBetween,2021.2.3,59.9192408473993,
88,0,88,0,,,,,,,,,,,,,,,,,,,,,,,,,,392.1629229,None,executive,15,89,sing,yellow,390.16081810000014,None,None,390.16081810000014,None,,,,,,,,,,,,,,,,,,,,,,,,,,,,,,,,,,,140Sing,001,2023_Oct_27_1333,ProdSingRedoBetween,2021.2.3,59.9192408473993,
89,0,89,0,,,,,,,,,,,,,,,,,,,,,,,,,,394.66518730000007,None,attack,34,90,sing,blue,392.6630817000005,None,None,392.6630817000005,None,,,,,,,,,,,,,,,,,,,,,,,,,,,,,,,,,,,140Sing,001,2023_Oct_27_1333,ProdSingRedoBetween,2021.2.3,59.9192408473993,
,,,,,,,,,,,,,,,,,,,,,,,,,,,,,,,,,,,,,,,,,395.16562500000055,None,k,131.56164979999994,395.16562500000055,None,,,,,,,,,,,,,,,,,,,,,,,,,,,,,140Sing,001,2023_Oct_27_1333,ProdSingRedoBetween,2021.2.3,59.9192408473993,
,,,,0,0,0,0,,,,,,,,,,,,,,,,,,,,,,552.7396967000004,None,,,,,,,,,,,,,,,,,solution,95,1,sing,new,null,527.2545574000005,None,527.2545574000005,None,2,16.336717499999395,527.2545574000005,None,16.336717499999395,543.6149044000003,None,544.1150011999998,None,544.1150011999998,None,n,8.596194800000376,544.1150011999998,None,8.596194800000376,,,140Sing,001,2023_Oct_27_1333,ProdSingRedoBetween,2021.2.3,59.9192408473993,
,,,,1,0,1,0,,,,,,,,,,,,,,,,,,,,,,559.7154268000004,None,,,,,,,,,,,,,,,,,column,112,2,sing,new,null,553.2399744000004,None,553.2399744000004,None,1,3.7673626000005243,553.2399744000004,None,3.7673626000005243,557.0299499000002,None,557.5445101000005,None,557.5445101000005,None,n,2.150718300000335,557.5445101000005,None,2.150718300000335,,,140Sing,001,2023_Oct_27_1333,ProdSingRedoBetween,2021.2.3,59.9192408473993,
,,,,2,0,2,0,,,,,,,,,,,,,,,,,,,,,,571.6752985000003,None,,,,,,,,,,,,,,,,,center,160,3,sing,new,null,560.2303310000007,None,560.2303310000007,None,1,6.857032400000207,560.2303310000007,None,6.857032400000207,567.1040962000006,None,567.6044017000004,None,567.6044017000004,None,n,4.042768899999828,567.6044017000004,None,4.042768899999828,,,140Sing,001,2023_Oct_27_1333,ProdSingRedoBetween,2021.2.3,59.9192408473993,
,,,,3,0,3,0,,,,,,,,,,,,,,,,,,,,,,578.3651503000001,None,,,,,,,,,,,,,,,,,private,117,4,sing,new,null,572.1762966000006,None,572.1762966000006,None,1,4.4948732000002565,572.1762966000006,None,4.4948732000002565,576.7067788000004,None,577.2145569000004,None,577.2145569000004,None,n,1.1286267000004955,577.2145569000004,None,1.1286267000004955,,,140Sing,001,2023_Oct_27_1333,ProdSingRedoBetween,2021.2.3,59.9192408473993,
,,,,4,0,4,0,,,,,,,,,,,,,,,,,,,,,,581.5543869000003,None,,,,,,,,,,,,,,,,,report,156,5,sing,new,null,578.8672885000005,None,578.8672885000005,None,1,1.587917799999559,578.8672885000005,None,1.587917799999559,580.4845261999999,None,580.9842237000003,None,580.9842237000003,None,n,0.550960199999281,580.9842237000003,None,0.550960199999281,,,140Sing,001,2023_Oct_27_1333,ProdSingRedoBetween,2021.2.3,59.9192408473993,
,,,,5,0,5,0,,,,,,,,,,,,,,,,,,,,,,585.3384047999998,None,,,,,,,,,,,,,,,,,volume,94,6,sing,new,null,582.0704679999999,None,582.0704679999999,None,1,2.0806835000003048,582.0704679999999,None,2.0806835000003048,584.1756556,None,584.6881561,None,584.6881561,None,n,0.6230550000000221,584.6881561,None,0.6230550000000221,,,140Sing,001,2023_Oct_27_1333,ProdSingRedoBetween,2021.2.3,59.9192408473993,
,,,,6,0,6,0,,,,,,,,,,,,,,,,,,,,,,588.0578114,None,,,,,,,,,,,,,,,,,congress,130,7,sing,new,null,585.8454630000006,None,585.8454630000006,None,1,1.1858068999999887,585.8454630000006,None,1.1858068999999887,587.0578298,None,587.5575357000007,None,587.5575357000007,None,n,0.4817430000002787,587.5575357000007,None,0.4817430000002787,,,140Sing,001,2023_Oct_27_1333,ProdSingRedoBetween,2021.2.3,59.9192408473993,
,,,,7,0,7,0,,,,,,,,,,,,,,,,,,,,,,590.6939001999999,None,,,,,,,,,,,,,,,,,frank,67,8,sing,old,red,588.5713974,None,588.5713974,None,1,1.1078655000001163,588.5713974,None,1.1078655000001163,589.7151275000006,None,590.2269501999999,None,590.2269501999999,None,n,0.444223299999976,590.2269501999999,None,0.444223299999976,,,140Sing,001,2023_Oct_27_1333,ProdSingRedoBetween,2021.2.3,59.9192408473993,
,,,,8,0,8,0,,,,,,,,,,,,,,,,,,,,,,593.3467178000001,None,,,,,,,,,,,,,,,,,benefit,172,9,sing,new,null,591.1947383000006,None,591.1947383000006,None,1,1.1164787999996406,591.1947383000006,None,1.1164787999996406,592.3288932000005,None,592.8294071,None,592.8294071,None,n,0.4898401999998896,592.8294071,None,0.4898401999998896,,,140Sing,001,2023_Oct_27_1333,ProdSingRedoBetween,2021.2.3,59.9192408473993,
,,,,9,0,9,0,,,,,,,,,,,,,,,,,,,,,,596.0323603000006,None,,,,,,,,,,,,,,,,,religion,108,10,sing,new,null,593.8490740000007,None,593.8490740000007,None,1,1.1581172999995033,593.8490740000007,None,1.1581172999995033,595.0370823000003,None,595.5489582999999,None,595.5489582999999,None,n,0.4663626999999906,595.5489582999999,None,0.4663626999999906,,,140Sing,001,2023_Oct_27_1333,ProdSingRedoBetween,2021.2.3,59.9192408473993,
,,,,10,0,10,0,,,,,,,,,,,,,,,,,,,,,,599.2191186,None,,,,,,,,,,,,,,,,,question,87,11,sing,old,red,596.5335374000006,None,596.5335374000006,None,1,1.6656236000007993,596.5335374000006,None,1.6656236000007993,598.2181029000003,None,598.7188307000006,None,598.7188307000006,None,n,0.47231449999981123,598.7188307000006,None,0.47231449999981123,,,140Sing,001,2023_Oct_27_1333,ProdSingRedoBetween,2021.2.3,59.9192408473993,
,,,,11,0,11,0,,,,,,,,,,,,,,,,,,,,,,601.8382871000003,None,,,,,,,,,,,,,,,,,surface,167,12,sing,new,null,599.7211436000007,None,599.7211436000007,None,1,1.0781456000004255,599.7211436000007,None,1.0781456000004255,600.8234358999998,None,601.3379062000004,None,601.3379062000004,None,n,0.4693775000005189,601.3379062000004,None,0.4693775000005189,,,140Sing,001,2023_Oct_27_1333,ProdSingRedoBetween,2021.2.3,59.9192408473993,
,,,,12,0,12,0,,,,,,,,,,,,,,,,,,,,,,609.2290552000004,None,,,,,,,,,,,,,,,,,tragedy,88,13,sing,old,red,602.3391601000003,None,602.3391601000003,None,6,1.9640076000005138,602.3391601000003,None,1.9640076000005138,604.3240960000003,None,604.8250776000004,None,604.8250776000004,None,r,4.37403329999961,604.8250776000004,None,4.37403329999961,,,140Sing,001,2023_Oct_27_1333,ProdSingRedoBetween,2021.2.3,59.9192408473993,
,,,,13,0,13,0,,,,,,,,,,,,,,,,,,,,,,614.6368969000005,None,,,,,,,,,,,,,,,,,broke,6,14,sing,old,yellow,609.7298391000004,None,609.7298391000004,None,6,3.3412590000007185,609.7298391000004,None,3.3412590000007185,613.0998753000003,None,613.6002139000002,None,613.6002139000002,None,r,1.014931699999579,613.6002139000002,None,1.014931699999579,,,140Sing,001,2023_Oct_27_1333,ProdSingRedoBetween,2021.2.3,59.9192408473993,
,,,,14,0,14,0,,,,,,,,,,,,,,,,,,,,,,618.4048719000002,None,,,,,,,,,,,,,,,,,spoke,118,15,sing,new,null,615.1519500000004,None,615.1519500000004,None,1,1.8152800000007119,615.1519500000004,None,1.8152800000007119,616.9946366000004,None,617.5041715000007,None,617.5041715000007,None,n,0.8790757999995549,617.5041715000007,None,0.8790757999995549,,,140Sing,001,2023_Oct_27_1333,ProdSingRedoBetween,2021.2.3,59.9192408473993,
,,,,15,0,15,0,,,,,,,,,,,,,,,,,,,,,,625.2784497000002,None,,,,,,,,,,,,,,,,,agency,46,16,sing,old,blue,618.9056656000002,None,618.9056656000002,None,1,5.525499800000034,618.9056656000002,None,5.525499800000034,624.4634697000001,None,624.9782691999999,None,624.9782691999999,None,n,0.2688312999998743,624.9782691999999,None,0.2688312999998743,,,140Sing,001,2023_Oct_27_1333,ProdSingRedoBetween,2021.2.3,59.9192408473993,
,,,,16,0,16,0,,,,,,,,,,,,,,,,,,,,,,627.7823649000002,None,,,,,,,,,,,,,,,,,sweet,119,17,sing,new,null,625.7794159000005,None,625.7794159000005,None,1,1.1637115999992602,625.7794159000005,None,1.1637115999992602,626.9718449000002,None,627.4813209000004,None,627.4813209000004,None,n,0.27779889999965235,627.4813209000004,None,0.27779889999965235,,,140Sing,001,2023_Oct_27_1333,ProdSingRedoBetween,2021.2.3,59.9192408473993,
,,,,17,0,17,0,,,,,,,,,,,,,,,,,,,,,,630.2170898000004,None,,,,,,,,,,,,,,,,,welcome,134,18,sing,new,null,628.2851780999999,None,628.2851780999999,None,1,1.1699760000001334,628.2851780999999,None,1.1699760000001334,629.4853246000002,None,630.0011424000004,None,630.0011424000004,None,n,0.19002610000006825,630.0011424000004,None,0.19002610000006825,,,140Sing,001,2023_Oct_27_1333,ProdSingRedoBetween,2021.2.3,59.9192408473993,
,,,,18,0,18,0,,,,,,,,,,,,,,,,,,,,,,635.054701,None,,,,,,,,,,,,,,,,,match,84,19,sing,old,red,630.7172089000005,None,630.7172089000005,None,6,2.385980600000039,630.7172089000005,None,2.385980600000039,633.1240648000003,None,633.6369574999999,None,633.6369574999999,None,f,1.3941808999998102,633.6369574999999,None,1.3941808999998102,,,140Sing,001,2023_Oct_27_1333,ProdSingRedoBetween,2021.2.3,59.9192408473993,
,,,,19,0,19,0,,,,,,,,,,,,,,,,,,,,,,638.9559454,None,,,,,,,,,,,,,,,,,trial,29,20,sing,old,blue,635.5556919,None,635.5556919,None,1,2.659395599999698,635.5556919,None,2.659395599999698,638.2441819000005,None,638.7587371,None,638.7587371,None,n,0.1683431000001292,638.7587371,None,0.1683431000001292,,,140Sing,001,2023_Oct_27_1333,ProdSingRedoBetween,2021.2.3,59.9192408473993,
,,,,20,0,20,0,,,,,,,,,,,,,,,,,,,,,,648.3527558000005,None,,,,,,,,,,,,,,,,,article,49,21,sing,old,blue,639.4600258,None,639.4600258,None,2,3.1472180000000662,639.4600258,None,3.1472180000000662,642.6336455999999,None,643.1463057000001,None,643.1463057000001,None,f,5.1889071999994485,643.1463057000001,None,5.1889071999994485,,,140Sing,001,2023_Oct_27_1333,ProdSingRedoBetween,2021.2.3,59.9192408473993,
,,,,21,0,21,0,,,,,,,,,,,,,,,,,,,,,,652.9725994999999,None,,,,,,,,,,,,,,,,,subject,56,22,sing,old,blue,648.8559733000002,None,648.8559733000002,None,1,3.2711645999997927,648.8559733000002,None,3.2711645999997927,652.1582326000007,None,652.6723369000001,None,652.6723369000001,None,n,0.27088760000060574,652.6723369000001,None,0.27088760000060574,,,140Sing,001,2023_Oct_27_1333,ProdSingRedoBetween,2021.2.3,59.9192408473993,
,,,,22,0,22,0,,,,,,,,,,,,,,,,,,,,,,655.3919026000003,None,,,,,,,,,,,,,,,,,prime,28,23,sing,old,yellow,653.4735580000006,None,653.4735580000006,None,1,1.189650399999664,653.4735580000006,None,1.189650399999664,654.6939597999999,None,655.2087135000002,None,655.2087135000002,None,n,0.1664608999999473,655.2087135000002,None,0.1664608999999473,,,140Sing,001,2023_Oct_27_1333,ProdSingRedoBetween,2021.2.3,59.9192408473993,
,,,,23,0,23,0,,,,,,,,,,,,,,,,,,,,,,657.6108958000004,None,,,,,,,,,,,,,,,,,owner,138,24,sing,new,null,655.8981137999999,None,655.8981137999999,None,1,1.028932199999872,655.8981137999999,None,1.028932199999872,656.9455128999998,None,657.4610386000004,None,657.4610386000004,None,n,0.12209299999994982,657.4610386000004,None,0.12209299999994982,,,140Sing,001,2023_Oct_27_1333,ProdSingRedoBetween,2021.2.3,59.9192408473993,
,,,,24,0,24,0,,,,,,,,,,,,,,,,,,,,,,661.5646230000002,None,,,,,,,,,,,,,,,,,department,16,25,sing,old,yellow,658.1119792999998,None,658.1119792999998,None,6,1.3030982000000222,658.1119792999998,None,1.3030982000000222,659.4457465000005,None,659.9466928000002,None,659.9466928000002,None,r,1.5884015999999974,659.9466928000002,None,1.5884015999999974,,,140Sing,001,2023_Oct_27_1333,ProdSingRedoBetween,2021.2.3,59.9192408473993,
,,,,25,0,25,0,,,,,,,,,,,,,,,,,,,,,,664.6192521000003,None,,,,,,,,,,,,,,,,,direction,105,26,sing,new,null,662.0654244000007,None,662.0654244000007,None,1,1.317678600000363,662.0654244000007,None,1.317678600000363,663.4007932000004,None,663.9006131000006,None,663.9006131000006,None,n,0.6985702000001766,663.9006131000006,None,0.6985702000001766,,,140Sing,001,2023_Oct_27_1333,ProdSingRedoBetween,2021.2.3,59.9192408473993,
,,,,26,0,26,0,,,,,,,,,,,,,,,,,,,,,,667.4874330000002,None,,,,,,,,,,,,,,,,,contract,103,27,sing,new,null,665.1198113,None,665.1198113,None,1,1.1992955999994592,665.1198113,None,1.1992955999994592,666.3364053000005,None,666.8367118000006,None,666.8367118000006,None,n,0.6264010000004419,666.8367118000006,None,0.6264010000004419,,,140Sing,001,2023_Oct_27_1333,ProdSingRedoBetween,2021.2.3,59.9192408473993,
,,,,27,0,27,0,,,,,,,,,,,,,,,,,,,,,,670.0898766,None,,,,,,,,,,,,,,,,,collection,175,28,sing,new,null,667.9882155000005,None,667.9882155000005,None,1,1.3308857000001808,667.9882155000005,None,1.3308857000001808,669.3389066,None,669.8401111000003,None,669.8401111000003,None,n,0.2229311000000962,669.8401111000003,None,0.2229311000000962,,,140Sing,001,2023_Oct_27_1333,ProdSingRedoBetween,2021.2.3,59.9192408473993,
,,,,28,0,28,0,,,,,,,,,,,,,,,,,,,,,,672.9258946,None,,,,,,,,,,,,,,,,,number,38,29,sing,old,blue,670.5912693999999,None,670.5912693999999,None,1,1.5839458000000377,670.5912693999999,None,1.5839458000000377,672.1993302000001,None,672.7096760000004,None,672.7096760000004,None,n,0.20145030000003317,672.7096760000004,None,0.20145030000003317,,,140Sing,001,2023_Oct_27_1333,ProdSingRedoBetween,2021.2.3,59.9192408473993,
,,,,29,0,29,0,,,,,,,,,,,,,,,,,,,,,,675.3616826000007,None,,,,,,,,,,,,,,,,,appeal,169,30,sing,new,null,673.4265712000006,None,673.4265712000006,None,1,1.1805432999999539,673.4265712000006,None,1.1805432999999539,674.6341610999998,None,675.1450826,None,675.1450826,None,n,0.19015119999949093,675.1450826,None,0.19015119999949093,,,140Sing,001,2023_Oct_27_1333,ProdSingRedoBetween,2021.2.3,59.9192408473993,
,,,,30,0,30,0,,,,,,,,,,,,,,,,,,,,,,682.9859155000004,None,,,,,,,,,,,,,,,,,foundation,42,31,sing,old,blue,675.8634246000001,None,675.8634246000001,None,6,5.087616499999967,675.8634246000001,None,5.087616499999967,680.9758980000006,None,681.4848665,None,681.4848665,None,f,1.474176599999737,681.4848665,None,1.474176599999737,,,140Sing,001,2023_Oct_27_1333,ProdSingRedoBetween,2021.2.3,59.9192408473993,
,,,,31,0,31,0,,,,,,,,,,,,,,,,,,,,,,688.8585376000001,None,,,,,,,,,,,,,,,,,escape,66,32,sing,old,red,683.4867979,None,683.4867979,None,5,3.9922710000000734,683.4867979,None,3.9922710000000734,687.5073215000002,None,688.0079129000005,None,688.0079129000005,None,f,0.8312707000004593,688.0079129000005,None,0.8312707000004593,,,140Sing,001,2023_Oct_27_1333,ProdSingRedoBetween,2021.2.3,59.9192408473993,
,,,,32,0,32,0,,,,,,,,,,,,,,,,,,,,,,691.8447581,None,,,,,,,,,,,,,,,,,personnel,77,33,sing,old,red,689.3593078000004,None,689.3593078000004,None,6,1.5518910000000687,689.3593078000004,None,1.5518910000000687,690.9294764000006,None,691.4448471000005,None,691.4448471000005,None,r,0.3782752999995864,691.4448471000005,None,0.3782752999995864,,,140Sing,001,2023_Oct_27_1333,ProdSingRedoBetween,2021.2.3,59.9192408473993,
,,,,33,0,33,0,,,,,,,,,,,,,,,,,,,,,,694.4641521000003,None,,,,,,,,,,,,,,,,,platform,154,34,sing,new,null,692.3451838999999,None,692.3451838999999,None,1,1.4619696999998268,692.3451838999999,None,1.4619696999998268,693.830293,None,694.3312916000004,None,694.3312916000004,None,n,0.10779180000008637,694.3312916000004,None,0.10779180000008637,,,140Sing,001,2023_Oct_27_1333,ProdSingRedoBetween,2021.2.3,59.9192408473993,
,,,,34,0,34,0,,,,,,,,,,,,,,,,,,,,,,698.1511713,None,,,,,,,,,,,,,,,,,atmosphere,71,35,sing,old,red,694.9665622000002,None,694.9665622000002,None,6,1.2965653999999631,694.9665622000002,None,1.2965653999999631,696.2852988000004,None,696.7999816000001,None,696.7999816000001,None,r,1.3351528000002872,696.7999816000001,None,1.3351528000002872,,,140Sing,001,2023_Oct_27_1333,ProdSingRedoBetween,2021.2.3,59.9192408473993,
,,,,35,0,35,0,,,,,,,,,,,,,,,,,,,,,,701.9381217999999,None,,,,,,,,,,,,,,,,,permit,149,36,sing,new,null,698.6518439000001,None,698.6518439000001,None,1,2.6354998999995587,698.6518439000001,None,2.6354998999995587,701.3041051,None,701.8052318999999,None,701.8052318999999,None,n,0.10588300000017625,701.8052318999999,None,0.10588300000017625,,,140Sing,001,2023_Oct_27_1333,ProdSingRedoBetween,2021.2.3,59.9192408473993,
,,,,36,0,36,0,,,,,,,,,,,,,,,,,,,,,,706.3258879000005,None,,,,,,,,,,,,,,,,,fellow,20,37,sing,old,yellow,702.4386000000004,None,702.4386000000004,None,6,2.1764963999994507,702.4386000000004,None,2.1764963999994507,704.6422326000002,None,705.1416847,None,705.1416847,None,r,1.1693358000002263,705.1416847,None,1.1693358000002263,,,140Sing,001,2023_Oct_27_1333,ProdSingRedoBetween,2021.2.3,59.9192408473993,
,,,,37,0,37,0,,,,,,,,,,,,,,,,,,,,,,709.3957627,None,,,,,,,,,,,,,,,,,pattern,52,38,sing,old,blue,706.8266221000003,None,706.8266221000003,None,6,1.5324273000005633,706.8266221000003,None,1.5324273000005633,708.3790552,None,708.8788626000005,None,708.8788626000005,None,r,0.48816360000000714,708.8788626000005,None,0.48816360000000714,,,140Sing,001,2023_Oct_27_1333,ProdSingRedoBetween,2021.2.3,59.9192408473993,
,,,,38,0,38,0,,,,,,,,,,,,,,,,,,,,,,715.7857222000002,None,,,,,,,,,,,,,,,,,sight,132,39,sing,new,null,709.8964298999999,None,709.8964298999999,None,1,2.9026474000002054,709.8964298999999,None,2.9026474000002054,712.8179767000001,None,713.3336552999999,None,713.3336552999999,None,n,2.4334423000000243,713.3336552999999,None,2.4334423000000243,,,140Sing,001,2023_Oct_27_1333,ProdSingRedoBetween,2021.2.3,59.9192408473993,
,,,,39,0,39,0,,,,,,,,,,,,,,,,,,,,,,720.4089349000005,None,,,,,,,,,,,,,,,,,review,155,40,sing,new,null,716.2862687000006,None,716.2862687000006,None,1,3.472776100000374,716.2862687000006,None,3.472776100000374,719.7907593,None,720.2901568000007,None,720.2901568000007,None,n,0.10095240000009653,720.2901568000007,None,0.10095240000009653,,,140Sing,001,2023_Oct_27_1333,ProdSingRedoBetween,2021.2.3,59.9192408473993,
,,,,40,0,40,0,,,,,,,,,,,,,,,,,,,,,,723.1268679000004,None,,,,,,,,,,,,,,,,,brilliant,22,41,sing,old,yellow,720.9241540000003,None,720.9241540000003,None,1,1.4668810999992274,720.9241540000003,None,1.4668810999992274,722.4092891999999,None,722.9092406999998,None,722.9092406999998,None,n,0.19389200000023266,722.9092406999998,None,0.19389200000023266,,,140Sing,001,2023_Oct_27_1333,ProdSingRedoBetween,2021.2.3,59.9192408473993,
,,,,41,0,41,0,,,,,,,,,,,,,,,,,,,,,,725.4951979000007,None,,,,,,,,,,,,,,,,,signal,58,42,sing,old,blue,723.6358200000004,None,723.6358200000004,None,6,1.267311200000222,723.6358200000004,None,1.267311200000222,724.9320574000003,None,725.4454831000003,None,725.4454831000003,None,r,0.025769399999262532,725.4454831000003,None,0.025769399999262532,,,140Sing,001,2023_Oct_27_1333,ProdSingRedoBetween,2021.2.3,59.9192408473993,
,,,,42,0,42,0,,,,,,,,,,,,,,,,,,,,,,727.9974823000002,None,,,,,,,,,,,,,,,,,point,128,43,sing,new,null,725.9975389000001,None,725.9975389000001,None,1,1.3934787999996843,725.9975389000001,None,1.3934787999996843,727.4185557999999,None,727.9312558000001,None,727.9312558000001,None,n,0.05175220000000991,727.9312558000001,None,0.05175220000000991,,,140Sing,001,2023_Oct_27_1333,ProdSingRedoBetween,2021.2.3,59.9192408473993,
,,,,43,0,43,0,,,,,,,,,,,,,,,,,,,,,,734.8379265000003,None,,,,,,,,,,,,,,,,,present,5,44,sing,old,yellow,728.4981580000003,None,728.4981580000003,None,2,5.556848000000173,728.4981580000003,None,5.556848000000173,734.0775838999998,None,734.5880383000003,None,734.5880383000003,None,n,0.21904639999956999,734.5880383000003,None,0.21904639999956999,,,140Sing,001,2023_Oct_27_1333,ProdSingRedoBetween,2021.2.3,59.9192408473993,
,,,,44,0,44,0,,,,,,,,,,,,,,,,,,,,,,740.4101208000002,None,,,,,,,,,,,,,,,,,right,115,45,sing,new,null,735.3398874000004,None,735.3398874000004,None,2,4.419185800000378,735.3398874000004,None,4.419185800000378,739.7845059000001,None,740.2933410000005,None,740.2933410000005,None,n,0.08967349999966245,740.2933410000005,None,0.08967349999966245,,,140Sing,001,2023_Oct_27_1333,ProdSingRedoBetween,2021.2.3,59.9192408473993,
,,,,45,0,45,0,,,,,,,,,,,,,,,,,,,,,,746.0323223000005,None,,,,,,,,,,,,,,,,,region,79,46,sing,old,red,740.9112793000004,None,740.9112793000004,None,5,3.919798300000366,740.9112793000004,None,3.919798300000366,744.847777,None,745.3486140000005,None,745.3486140000005,None,f,0.6583812999997463,745.3486140000005,None,0.6583812999997463,,,140Sing,001,2023_Oct_27_1333,ProdSingRedoBetween,2021.2.3,59.9192408473993,
,,,,46,0,46,0,,,,,,,,,,,,,,,,,,,,,,748.5011688000004,None,,,,,,,,,,,,,,,,,minor,12,47,sing,old,yellow,746.5330069000001,None,746.5330069000001,None,6,1.3380127000000357,746.5330069000001,None,1.3380127000000357,747.9015317000003,None,748.4014505000005,None,748.4014505000005,None,r,0.06957430000056775,748.4014505000005,None,0.06957430000056775,,,140Sing,001,2023_Oct_27_1333,ProdSingRedoBetween,2021.2.3,59.9192408473993,
,,,,47,0,47,0,,,,,,,,,,,,,,,,,,,,,,751.1207203000004,None,,,,,,,,,,,,,,,,,smooth,153,48,sing,new,null,749.0063746000005,None,749.0063746000005,None,1,1.5126067999999577,749.0063746000005,None,1.5126067999999577,750.5407316999999,None,751.0540927000002,None,751.0540927000002,None,n,0.049003799999809416,751.0540927000002,None,0.049003799999809416,,,140Sing,001,2023_Oct_27_1333,ProdSingRedoBetween,2021.2.3,59.9192408473993,
,,,,48,0,48,0,,,,,,,,,,,,,,,,,,,,,,753.9736581000006,None,,,,,,,,,,,,,,,,,block,54,49,sing,old,blue,751.6213248000004,None,751.6213248000004,None,1,1.6976590000003853,751.6213248000004,None,1.6976590000003853,753.339559,None,753.8404089000005,None,753.8404089000005,None,n,0.1026676999999836,753.8404089000005,None,0.1026676999999836,,,140Sing,001,2023_Oct_27_1333,ProdSingRedoBetween,2021.2.3,59.9192408473993,
,,,,49,0,49,0,,,,,,,,,,,,,,,,,,,,,,758.1612543000001,None,,,,,,,,,,,,,,,,,payment,39,50,sing,old,blue,754.4742924000002,None,754.4742924000002,None,2,3.1007869000004575,754.4742924000002,None,3.1007869000004575,757.5952225000001,None,758.0948549000004,None,758.0948549000004,None,n,0.048300199999175675,758.0948549000004,None,0.048300199999175675,,,140Sing,001,2023_Oct_27_1333,ProdSingRedoBetween,2021.2.3,59.9192408473993,
,,,,50,0,50,0,,,,,,,,,,,,,,,,,,,,,,760.8473853000005,None,,,,,,,,,,,,,,,,,whole,74,51,sing,old,red,758.6616764999999,None,758.6616764999999,None,1,1.5293209999999817,758.6616764999999,None,1.5293209999999817,760.2172438000007,None,760.7307073000002,None,760.7307073000002,None,n,0.0923996999999872,760.7307073000002,None,0.0923996999999872,,,140Sing,001,2023_Oct_27_1333,ProdSingRedoBetween,2021.2.3,59.9192408473993,
,,,,51,0,51,0,,,,,,,,,,,,,,,,,,,,,,763.5997613,None,,,,,,,,,,,,,,,,,dance,143,52,sing,new,null,761.3477524999998,None,761.3477524999998,None,1,1.6111839999994118,761.3477524999998,None,1.6111839999994118,762.9881161000003,None,763.5001872000003,None,763.5001872000003,None,n,0.07490940000025148,763.5001872000003,None,0.07490940000025148,,,140Sing,001,2023_Oct_27_1333,ProdSingRedoBetween,2021.2.3,59.9192408473993,
,,,,52,0,52,0,,,,,,,,,,,,,,,,,,,,,,766.6530954999998,None,,,,,,,,,,,,,,,,,watch,31,53,sing,old,blue,764.1006058000003,None,764.1006058000003,None,6,1.4983244999993985,764.1006058000003,None,1.4983244999993985,765.6225093000003,None,766.1354824,None,766.1354824,None,r,0.49582139999984065,766.1354824,None,0.49582139999984065,,,140Sing,001,2023_Oct_27_1333,ProdSingRedoBetween,2021.2.3,59.9192408473993,
,,,,53,0,53,0,,,,,,,,,,,,,,,,,,,,,,769.2058537000003,None,,,,,,,,,,,,,,,,,distance,114,54,sing,new,null,767.1535365,None,767.1535365,None,1,1.4214643999994223,767.1535365,None,1.4214643999994223,768.6051527999998,None,769.1055419000004,None,769.1055419000004,None,n,0.06941579999966052,769.1055419000004,None,0.06941579999966052,,,140Sing,001,2023_Oct_27_1333,ProdSingRedoBetween,2021.2.3,59.9192408473993,
,,,,54,0,54,0,,,,,,,,,,,,,,,,,,,,,,772.2085781000005,None,,,,,,,,,,,,,,,,,people,164,55,sing,new,null,769.7061727999999,None,769.7061727999999,None,1,1.452776900000572,769.7061727999999,None,1.452776900000572,771.1953883000006,None,771.7080685999999,None,771.7080685999999,None,n,0.475183399999878,771.7080685999999,None,0.475183399999878,,,140Sing,001,2023_Oct_27_1333,ProdSingRedoBetween,2021.2.3,59.9192408473993,
,,,,55,0,55,0,,,,,,,,,,,,,,,,,,,,,,774.5943576,None,,,,,,,,,,,,,,,,,youth,93,56,sing,new,null,772.7106328999998,None,772.7106328999998,None,1,1.2643713000006755,772.7106328999998,None,1.2643713000006755,773.9965370999998,None,774.5109163000006,None,774.5109163000006,None,n,0.0640875999997661,774.5109163000006,None,0.0640875999997661,,,140Sing,001,2023_Oct_27_1333,ProdSingRedoBetween,2021.2.3,59.9192408473993,
,,,,56,0,56,0,,,,,,,,,,,,,,,,,,,,,,779.5177143999999,None,,,,,,,,,,,,,,,,,afternoon,147,57,sing,new,null,775.0946801,None,775.0946801,None,1,3.688345499999741,775.0946801,None,3.688345499999741,778.7983198000002,None,779.2992008000001,None,779.2992008000001,None,n,0.1877254000000903,779.2992008000001,None,0.1877254000000903,,,140Sing,001,2023_Oct_27_1333,ProdSingRedoBetween,2021.2.3,59.9192408473993,
,,,,57,0,57,0,,,,,,,,,,,,,,,,,,,,,,782.3353698999999,None,,,,,,,,,,,,,,,,,evidence,18,58,sing,old,yellow,780.0331148000005,None,780.0331148000005,None,1,1.5737959000007322,780.0331148000005,None,1.5737959000007322,781.6428456000003,None,782.1521217,None,782.1521217,None,n,0.1668790000003355,782.1521217,None,0.1668790000003355,,,140Sing,001,2023_Oct_27_1333,ProdSingRedoBetween,2021.2.3,59.9192408473993,
,,,,58,0,58,0,,,,,,,,,,,,,,,,,,,,,,785.9387680999998,None,,,,,,,,,,,,,,,,,addition,85,59,sing,old,red,782.8436915000002,None,782.8436915000002,None,1,2.419350199999826,782.8436915000002,None,2.419350199999826,785.2945208000001,None,785.8056192000004,None,785.8056192000004,None,n,0.11339940000016213,785.8056192000004,None,0.11339940000016213,,,140Sing,001,2023_Oct_27_1333,ProdSingRedoBetween,2021.2.3,59.9192408473993,
,,,,59,0,59,0,,,,,,,,,,,,,,,,,,,,,,789.5331301000006,None,,,,,,,,,,,,,,,,,master,158,60,sing,new,null,786.4405678000003,None,786.4405678000003,None,1,2.4944357000003947,786.4405678000003,None,2.4944357000003947,788.9621867000005,None,789.4759966000001,None,789.4759966000001,None,n,0.027025200000025507,789.4759966000001,None,0.027025200000025507,,,140Sing,001,2023_Oct_27_1333,ProdSingRedoBetween,2021.2.3,59.9192408473993,
,,,,60,0,60,0,,,,,,,,,,,,,,,,,,,,,,791.5945081999998,None,,,,,,,,,,,,,,,,,state,148,61,sing,new,null,790.0480353000003,None,790.0480353000003,None,1,0.9669377000000168,790.0480353000003,None,0.9669377000000168,791.0473552000003,None,791.5613394000002,None,791.5613394000002,None,n,0.005749099999775353,791.5613394000002,None,0.005749099999775353,,,140Sing,001,2023_Oct_27_1333,ProdSingRedoBetween,2021.2.3,59.9192408473993,
,,,,61,0,61,0,,,,,,,,,,,,,,,,,,,,,,793.7634971000007,None,,,,,,,,,,,,,,,,,answer,163,62,sing,new,null,792.0951458999998,None,792.0951458999998,None,1,0.9358506000007765,792.0951458999998,None,0.9358506000007765,793.0658821000006,None,793.5801164000004,None,793.5801164000004,None,n,0.15485489999991842,793.5801164000004,None,0.15485489999991842,,,140Sing,001,2023_Oct_27_1333,ProdSingRedoBetween,2021.2.3,59.9192408473993,
,,,,62,0,62,0,,,,,,,,,,,,,,,,,,,,,,796.1491780000006,None,,,,,,,,,,,,,,,,,bucket,120,63,sing,new,null,794.2662015000005,None,794.2662015000005,None,1,1.1968121999998402,794.2662015000005,None,1.1968121999998402,795.4815543000004,None,795.9821778000005,None,795.9821778000005,None,n,0.1448365999995076,795.9821778000005,None,0.1448365999995076,,,140Sing,001,2023_Oct_27_1333,ProdSingRedoBetween,2021.2.3,59.9192408473993,
,,,,63,0,63,0,,,,,,,,,,,,,,,,,,,,,,798.4850686,None,,,,,,,,,,,,,,,,,mayor,102,64,sing,new,null,796.6497807000005,None,796.6497807000005,None,1,1.14921940000022,796.6497807000005,None,1.14921940000022,797.8234060000004,None,798.3347909000004,None,798.3347909000004,None,n,0.12831929999993008,798.3347909000004,None,0.12831929999993008,,,140Sing,001,2023_Oct_27_1333,ProdSingRedoBetween,2021.2.3,59.9192408473993,
,,,,64,0,64,0,,,,,,,,,,,,,,,,,,,,,,802.9722408000007,None,,,,,,,,,,,,,,,,,piece,25,65,sing,old,yellow,798.9888707,None,798.9888707,None,6,1.6820534999997108,798.9888707,None,1.6820534999997108,800.6869013000005,None,801.1878225999999,None,801.1878225999999,None,r,1.7551372999996602,801.1878225999999,None,1.7551372999996602,,,140Sing,001,2023_Oct_27_1333,ProdSingRedoBetween,2021.2.3,59.9192408473993,
,,,,65,0,65,0,,,,,,,,,,,,,,,,,,,,,,807.7104988000001,None,,,,,,,,,,,,,,,,,patient,37,66,sing,old,blue,803.4769747,None,803.4769747,None,4,3.481958399999712,803.4769747,None,3.481958399999712,806.9828685000002,None,807.4937770000006,None,807.4937770000006,None,f,0.1931127000007109,807.4937770000006,None,0.1931127000007109,,,140Sing,001,2023_Oct_27_1333,ProdSingRedoBetween,2021.2.3,59.9192408473993,
,,,,66,0,66,0,,,,,,,,,,,,,,,,,,,,,,810.2963209999998,None,,,,,,,,,,,,,,,,,majority,174,67,sing,new,null,808.2110419999999,None,808.2110419999999,None,1,1.35586609999973,808.2110419999999,None,1.35586609999973,809.6004547000002,None,810.1131876999998,None,810.1131876999998,None,n,0.15775269999994634,810.1131876999998,None,0.15775269999994634,,,140Sing,001,2023_Oct_27_1333,ProdSingRedoBetween,2021.2.3,59.9192408473993,
,,,,67,0,67,0,,,,,,,,,,,,,,,,,,,,,,812.6325698999999,None,,,,,,,,,,,,,,,,,entrance,136,68,sing,new,null,810.7971189,None,810.7971189,None,1,1.1137924000004205,810.7971189,None,1.1137924000004205,811.9326418999999,None,812.4321275000002,None,812.4321275000002,None,n,0.183063200000106,812.4321275000002,None,0.183063200000106,,,140Sing,001,2023_Oct_27_1333,ProdSingRedoBetween,2021.2.3,59.9192408473993,
,,,,68,0,68,0,,,,,,,,,,,,,,,,,,,,,,815.1549572000004,None,,,,,,,,,,,,,,,,,population,111,69,sing,new,null,813.1324184000005,None,813.1324184000005,None,1,1.3064761000005092,813.1324184000005,None,1.3064761000005092,814.4671619999999,None,814.9676245999999,None,814.9676245999999,None,n,0.16734580000047572,814.9676245999999,None,0.16734580000047572,,,140Sing,001,2023_Oct_27_1333,ProdSingRedoBetween,2021.2.3,59.9192408473993,
,,,,69,0,69,0,,,,,,,,,,,,,,,,,,,,,,817.6705867999999,None,,,,,,,,,,,,,,,,,reading,32,70,sing,old,blue,815.6690673000003,None,815.6690673000003,None,1,1.2258043000001635,815.6690673000003,None,1.2258043000001635,816.9235132000003,None,817.4371519000006,None,817.4371519000006,None,n,0.20178800000030606,817.4371519000006,None,0.20178800000030606,,,140Sing,001,2023_Oct_27_1333,ProdSingRedoBetween,2021.2.3,59.9192408473993,
,,,,70,0,70,0,,,,,,,,,,,,,,,,,,,,,,823.2592798000005,None,,,,,,,,,,,,,,,,,design,44,71,sing,old,blue,818.1724217999999,None,818.1724217999999,None,2,2.6264823999999862,818.1724217999999,None,2.6264823999999862,820.8237390000004,None,821.3243032,None,821.3243032,None,f,1.914555599999403,821.3243032,None,1.914555599999403,,,140Sing,001,2023_Oct_27_1333,ProdSingRedoBetween,2021.2.3,59.9192408473993,
,,,,71,0,71,0,,,,,,,,,,,,,,,,,,,,,,826.8798838000002,None,,,,,,,,,,,,,,,,,threat,161,72,sing,new,null,823.7608262000003,None,823.7608262000003,None,1,1.542106099999728,823.7608262000003,None,1.542106099999728,825.3304525000003,None,825.8453275000002,None,825.8453275000002,None,n,1.017698699999528,825.8453275000002,None,1.017698699999528,,,140Sing,001,2023_Oct_27_1333,ProdSingRedoBetween,2021.2.3,59.9192408473993,
,,,,72,0,72,0,,,,,,,,,,,,,,,,,,,,,,829.7492671,None,,,,,,,,,,,,,,,,,break,73,73,sing,old,red,827.3799046000004,None,827.3799046000004,None,1,1.7709759999997914,827.3799046000004,None,1.7709759999997914,829.1839340000006,None,829.6990268,None,829.6990268,None,n,0.019889799999873503,829.6990268,None,0.019889799999873503,,,140Sing,001,2023_Oct_27_1333,ProdSingRedoBetween,2021.2.3,59.9192408473993,
,,,,73,0,73,0,,,,,,,,,,,,,,,,,,,,,,835.3897135000007,None,,,,,,,,,,,,,,,,,write,48,74,sing,old,blue,830.2507979000002,None,830.2507979000002,None,6,4.4920640999998795,830.2507979000002,None,4.4920640999998795,834.7731553000003,None,835.2880900999999,None,835.2880900999999,None,f,0.07079140000041662,835.2880900999999,None,0.07079140000041662,,,140Sing,001,2023_Oct_27_1333,ProdSingRedoBetween,2021.2.3,59.9192408473993,
,,,,74,0,74,0,,,,,,,,,,,,,,,,,,,,,,837.9584223000002,None,,,,,,,,,,,,,,,,,brief,11,75,sing,old,yellow,835.9055195000001,None,835.9055195000001,None,1,1.4934500999997908,835.9055195000001,None,1.4934500999997908,837.4269998999998,None,837.9408840000006,None,837.9408840000006,None,n,0.0023042000002533314,837.9408840000006,None,0.0023042000002533314,,,140Sing,001,2023_Oct_27_1333,ProdSingRedoBetween,2021.2.3,59.9192408473993,
,,,,75,0,75,0,,,,,,,,,,,,,,,,,,,,,,842.5286267000001,None,,,,,,,,,,,,,,,,,thick,35,76,sing,old,blue,838.4583190000003,None,838.4583190000003,None,6,2.9805317000000286,838.4583190000003,None,2.9805317000000286,841.4645519000005,None,841.9783428999999,None,841.9783428999999,None,r,0.5326873000003616,841.9783428999999,None,0.5326873000003616,,,140Sing,001,2023_Oct_27_1333,ProdSingRedoBetween,2021.2.3,59.9192408473993,
,,,,76,0,76,0,,,,,,,,,,,,,,,,,,,,,,844.9812516000002,None,,,,,,,,,,,,,,,,,order,179,77,sing,new,null,843.0290281000007,None,843.0290281000007,None,1,1.3299919000000955,843.0290281000007,None,1.3299919000000955,844.3811171000007,None,844.8812039000004,None,844.8812039000004,None,n,0.07768260000011651,844.8812039000004,None,0.07768260000011651,,,140Sing,001,2023_Oct_27_1333,ProdSingRedoBetween,2021.2.3,59.9192408473993,
,,,,77,0,77,0,,,,,,,,,,,,,,,,,,,,,,851.7552241000003,None,,,,,,,,,,,,,,,,,service,47,78,sing,old,blue,845.4815091999999,None,845.4815091999999,None,4,5.541300899999442,845.4815091999999,None,5.541300899999442,851.0565317,None,851.5711365000006,None,851.5711365000006,None,f,0.15571899999940797,851.5711365000006,None,0.15571899999940797,,,140Sing,001,2023_Oct_27_1333,ProdSingRedoBetween,2021.2.3,59.9192408473993,
,,,,78,0,78,0,,,,,,,,,,,,,,,,,,,,,,856.1588497000002,None,,,,,,,,,,,,,,,,,crisis,144,79,sing,new,null,852.2588169,None,852.2588169,None,1,1.3160330999999132,852.2588169,None,1.3160330999999132,853.5928862000001,None,854.1068522000005,None,854.1068522000005,None,n,2.0200067999994644,854.1068522000005,None,2.0200067999994644,,,140Sing,001,2023_Oct_27_1333,ProdSingRedoBetween,2021.2.3,59.9192408473993,
,,,,79,0,79,0,,,,,,,,,,,,,,,,,,,,,,863.1494063,None,,,,,,,,,,,,,,,,,edition,100,80,sing,new,null,856.6595680999999,None,856.6595680999999,None,1,5.891335499999514,856.6595680999999,None,5.891335499999514,862.5819766000004,None,863.0826000000006,None,863.0826000000006,None,n,0.044255900000280235,863.0826000000006,None,0.044255900000280235,,,140Sing,001,2023_Oct_27_1333,ProdSingRedoBetween,2021.2.3,59.9192408473993,
,,,,80,0,80,0,,,,,,,,,,,,,,,,,,,,,,867.1198450000002,None,,,,,,,,,,,,,,,,,beauty,24,81,sing,old,yellow,863.6513412000004,None,863.6513412000004,None,5,2.2116486999993867,863.6513412000004,None,2.2116486999993867,865.8856329999999,None,866.3858815000003,None,866.3858815000003,None,f,0.7170072999997501,866.3858815000003,None,0.7170072999997501,,,140Sing,001,2023_Oct_27_1333,ProdSingRedoBetween,2021.2.3,59.9192408473993,
,,,,81,0,81,0,,,,,,,,,,,,,,,,,,,,,,884.5374882000006,None,,,,,,,,,,,,,,,,,engineer,171,82,sing,new,null,867.6204530000005,None,867.6204530000005,None,1,16.218494300000202,867.6204530000005,None,16.218494300000202,883.8700376000006,None,884.3708492000005,None,884.3708492000005,None,n,0.14798910000081378,884.3708492000005,None,0.14798910000081378,,,140Sing,001,2023_Oct_27_1333,ProdSingRedoBetween,2021.2.3,59.9192408473993,
,,,,82,0,82,0,,,,,,,,,,,,,,,,,,,,,,888.3580075999998,None,,,,,,,,,,,,,,,,,bright,19,83,sing,old,yellow,885.0381888000002,None,885.0381888000002,None,1,2.53663030000007,885.0381888000002,None,2.53663030000007,887.5912741000002,None,888.0911087000004,None,888.0911087000004,None,n,0.23593479999999545,888.0911087000004,None,0.23593479999999545,,,140Sing,001,2023_Oct_27_1333,ProdSingRedoBetween,2021.2.3,59.9192408473993,
,,,,83,0,83,0,,,,,,,,,,,,,,,,,,,,,,891.3792962000007,None,,,,,,,,,,,,,,,,,management,140,84,sing,new,null,888.8582417000007,None,888.8582417000007,None,1,1.8605741999999736,888.8582417000007,None,1.8605741999999736,890.7438004000005,None,891.2442930000007,None,891.2442930000007,None,n,0.1065734000003431,891.2442930000007,None,0.1065734000003431,,,140Sing,001,2023_Oct_27_1333,ProdSingRedoBetween,2021.2.3,59.9192408473993,
,,,,84,0,84,0,,,,,,,,,,,,,,,,,,,,,,895.4980350000005,None,,,,,,,,,,,,,,,,,sound,14,85,sing,old,yellow,891.8947173000006,None,891.8947173000006,None,6,1.6720697000000655,891.8947173000006,None,1.6720697000000655,893.5987107999999,None,894.1133241000007,None,894.1133241000007,None,r,1.3655805000007604,894.1133241000007,None,1.3655805000007604,,,140Sing,001,2023_Oct_27_1333,ProdSingRedoBetween,2021.2.3,59.9192408473993,
,,,,85,0,85,0,,,,,,,,,,,,,,,,,,,,,,903.3559259000003,None,,,,,,,,,,,,,,,,,bicycle,173,86,sing,new,null,895.9992124,None,895.9992124,None,1,6.775600900000427,895.9992124,None,6.775600900000427,902.8064116000005,None,903.3059111000002,None,903.3059111000002,None,n,0.028943700000127137,903.3059111000002,None,0.028943700000127137,,,140Sing,001,2023_Oct_27_1333,ProdSingRedoBetween,2021.2.3,59.9192408473993,
,,,,86,0,86,0,,,,,,,,,,,,,,,,,,,,,,908.0606057000005,None,,,,,,,,,,,,,,,,,mechanical,45,87,sing,old,blue,903.8565939,None,903.8565939,None,6,2.4383294999997815,903.8565939,None,2.4383294999997815,906.3255841,None,906.8265937000006,None,906.8265937000006,None,f,1.2042177000002994,906.8265937000006,None,1.2042177000002994,,,140Sing,001,2023_Oct_27_1333,ProdSingRedoBetween,2021.2.3,59.9192408473993,
,,,,87,0,87,0,,,,,,,,,,,,,,,,,,,,,,911.8476729000004,None,,,,,,,,,,,,,,,,,recall,80,88,sing,old,red,908.5615684000004,None,908.5615684000004,None,6,2.1092403000002378,908.5615684000004,None,2.1092403000002378,910.7045707000007,None,911.2139628000004,None,911.2139628000004,None,f,0.6168939999997747,911.2139628000004,None,0.6168939999997747,,,140Sing,001,2023_Oct_27_1333,ProdSingRedoBetween,2021.2.3,59.9192408473993,
,,,,88,0,88,0,,,,,,,,,,,,,,,,,,,,,,917.7901382999999,None,,,,,,,,,,,,,,,,,universal,43,89,sing,old,blue,912.3653135000004,None,912.3653135000004,None,5,4.073463699999593,912.3653135000004,None,4.073463699999593,916.4691922000002,None,916.9697319000006,None,916.9697319000006,None,f,0.7971759000001839,916.9697319000006,None,0.7971759000001839,,,140Sing,001,2023_Oct_27_1333,ProdSingRedoBetween,2021.2.3,59.9192408473993,
,,,,89,0,89,0,,,,,,,,,,,,,,,,,,,,,,920.4894265000003,None,,,,,,,,,,,,,,,,,space,121,90,sing,new,null,918.3042745000002,None,918.3042745000002,None,1,1.5665116999998645,918.3042745000002,None,1.5665116999998645,919.8900973999998,None,920.3898668000002,None,920.3898668000002,None,n,0.07290009999996983,920.3898668000002,None,0.07290009999996983,,,140Sing,001,2023_Oct_27_1333,ProdSingRedoBetween,2021.2.3,59.9192408473993,
,,,,90,0,90,0,,,,,,,,,,,,,,,,,,,,,,923.5426888000002,None,,,,,,,,,,,,,,,,,colonel,8,91,sing,old,yellow,920.9900905000004,None,920.9900905000004,None,6,1.2807078000005276,920.9900905000004,None,1.2807078000005276,922.2918295,None,922.7920050000002,None,922.7920050000002,None,r,0.7268316999998206,922.7920050000002,None,0.7268316999998206,,,140Sing,001,2023_Oct_27_1333,ProdSingRedoBetween,2021.2.3,59.9192408473993,
,,,,91,0,91,0,,,,,,,,,,,,,,,,,,,,,,930.750196,None,,,,,,,,,,,,,,,,,season,62,92,sing,old,red,924.0431843000006,None,924.0431843000006,None,2,4.755571400000008,924.0431843000006,None,4.755571400000008,928.8146375000006,None,929.3150417000006,None,929.3150417000006,None,f,1.4117552999996406,929.3150417000006,None,1.4117552999996406,,,140Sing,001,2023_Oct_27_1333,ProdSingRedoBetween,2021.2.3,59.9192408473993,
,,,,92,0,92,0,,,,,,,,,,,,,,,,,,,,,,933.3359040000005,None,,,,,,,,,,,,,,,,,goose,109,93,sing,new,null,931.2507493000003,None,931.2507493000003,None,1,1.4439834999993764,931.2507493000003,None,1.4439834999993764,932.7185282,None,933.2191518,None,933.2191518,None,n,0.09169519999977638,933.2191518,None,0.09169519999977638,,,140Sing,001,2023_Oct_27_1333,ProdSingRedoBetween,2021.2.3,59.9192408473993,
,,,,93,0,93,0,,,,,,,,,,,,,,,,,,,,,,936.3576086000003,None,,,,,,,,,,,,,,,,,curve,141,94,sing,new,null,933.8363669999999,None,933.8363669999999,None,1,1.9304113999996844,933.8363669999999,None,1.9304113999996844,935.7883066000004,None,936.2891482000005,None,936.2891482000005,None,n,0.04574200000024575,936.2891482000005,None,0.04574200000024575,,,140Sing,001,2023_Oct_27_1333,ProdSingRedoBetween,2021.2.3,59.9192408473993,
,,,,94,0,94,0,,,,,,,,,,,,,,,,,,,,,,938.4574507000007,None,,,,,,,,,,,,,,,,,drama,122,95,sing,new,null,936.8754413000006,None,936.8754413000006,None,1,0.9712924999994357,936.8754413000006,None,0.9712924999994357,937.8737603999998,None,938.3749591000005,None,938.3749591000005,None,n,0.055835400000432855,938.3749591000005,None,0.055835400000432855,,,140Sing,001,2023_Oct_27_1333,ProdSingRedoBetween,2021.2.3,59.9192408473993,
,,,,95,0,95,0,,,,,,,,,,,,,,,,,,,,,,940.5101589000005,None,,,,,,,,,,,,,,,,,incident,59,96,sing,old,yellow,938.9580388000004,None,938.9580388000004,None,1,0.9287509999994654,938.9580388000004,None,0.9287509999994654,939.9091257,None,940.4100308000006,None,940.4100308000006,None,n,0.08476080000036745,940.4100308000006,None,0.08476080000036745,,,140Sing,001,2023_Oct_27_1333,ProdSingRedoBetween,2021.2.3,59.9192408473993,
,,,,96,0,96,0,,,,,,,,,,,,,,,,,,,,,,945.0308499000002,None,,,,,,,,,,,,,,,,,second,40,97,sing,old,blue,941.0126235000007,None,941.0126235000007,None,2,2.4501709999995,941.0126235000007,None,2.4501709999995,943.4812320999999,None,943.9981132000003,None,943.9981132000003,None,n,1.0087108999996417,943.9981132000003,None,1.0087108999996417,,,140Sing,001,2023_Oct_27_1333,ProdSingRedoBetween,2021.2.3,59.9192408473993,
,,,,97,0,97,0,,,,,,,,,,,,,,,,,,,,,,948.0338110000002,None,,,,,,,,,,,,,,,,,store,99,98,sing,new,null,945.5313530000003,None,945.5313530000003,None,1,1.0034034999998767,945.5313530000003,None,1.0034034999998767,946.5522547,None,947.0663359999999,None,947.0663359999999,None,n,0.9484192999998413,947.0663359999999,None,0.9484192999998413,,,140Sing,001,2023_Oct_27_1333,ProdSingRedoBetween,2021.2.3,59.9192408473993,
,,,,98,0,98,0,,,,,,,,,,,,,,,,,,,,,,950.4861664,None,,,,,,,,,,,,,,,,,oxygen,104,99,sing,new,null,948.5351236000006,None,948.5351236000006,None,1,1.0235851000006733,948.5351236000006,None,1.0235851000006733,949.5865760000006,None,950.0859730000002,None,950.0859730000002,None,n,0.37679709999974875,950.0859730000002,None,0.37679709999974875,,,140Sing,001,2023_Oct_27_1333,ProdSingRedoBetween,2021.2.3,59.9192408473993,
,,,,99,0,99,0,,,,,,,,,,,,,,,,,,,,,,952.9225460000007,None,,,,,,,,,,,,,,,,,public,98,100,sing,new,null,950.9902570000004,None,950.9902570000004,None,1,1.0564929999991364,950.9902570000004,None,1.0564929999991364,952.0743061000003,None,952.5890253000007,None,952.5890253000007,None,n,0.30574720000004163,952.5890253000007,None,0.30574720000004163,,,140Sing,001,2023_Oct_27_1333,ProdSingRedoBetween,2021.2.3,59.9192408473993,
,,,,100,0,100,0,,,,,,,,,,,,,,,,,,,,,,956.9593721000001,None,,,,,,,,,,,,,,,,,under,72,101,sing,old,red,953.4226835999998,None,953.4226835999998,None,6,1.8721322000001237,953.4226835999998,None,1.8721322000001237,955.3267762000005,None,955.8417640000007,None,955.8417640000007,None,r,1.1011097000000518,955.8417640000007,None,1.1011097000000518,,,140Sing,001,2023_Oct_27_1333,ProdSingRedoBetween,2021.2.3,59.9192408473993,
,,,,101,0,101,0,,,,,,,,,,,,,,,,,,,,,,963.0152697000003,None,,,,,,,,,,,,,,,,,group,139,102,sing,new,null,957.4602330000007,None,957.4602330000007,None,1,4.938484499999504,957.4602330000007,None,4.938484499999504,962.4148230000001,None,962.9154192000005,None,962.9154192000005,None,n,0.08340200000020559,962.9154192000005,None,0.08340200000020559,,,140Sing,001,2023_Oct_27_1333,ProdSingRedoBetween,2021.2.3,59.9192408473993,
,,,,102,0,102,0,,,,,,,,,,,,,,,,,,,,,,967.4882586000003,None,,,,,,,,,,,,,,,,,cover,41,103,sing,old,blue,963.5160417000006,None,963.5160417000006,None,2,2.7387116999998398,963.5160417000006,None,2.7387116999998398,966.2895266000005,None,966.8026417000001,None,966.8026417000001,None,n,0.66830359999949,966.8026417000001,None,0.66830359999949,,,140Sing,001,2023_Oct_27_1333,ProdSingRedoBetween,2021.2.3,59.9192408473993,
,,,,103,0,103,0,,,,,,,,,,,,,,,,,,,,,,971.0498409000002,None,,,,,,,,,,,,,,,,,general,106,104,sing,new,null,967.9917052999999,None,967.9917052999999,None,1,2.2870327000000543,967.9917052999999,None,2.2870327000000543,970.3060224999999,None,970.8067662000003,None,970.8067662000003,None,n,0.2160530999999537,970.8067662000003,None,0.2160530999999537,,,140Sing,001,2023_Oct_27_1333,ProdSingRedoBetween,2021.2.3,59.9192408473993,
,,,,104,0,104,0,,,,,,,,,,,,,,,,,,,,,,973.6426240000001,None,,,,,,,,,,,,,,,,,speech,53,105,sing,old,blue,971.5577655000006,None,971.5577655000006,None,1,1.4971402999999555,971.5577655000006,None,1.4971402999999555,973.0800192000006,None,973.5927207000004,None,973.5927207000004,None,n,0.03014210000037565,973.5927207000004,None,0.03014210000037565,,,140Sing,001,2023_Oct_27_1333,ProdSingRedoBetween,2021.2.3,59.9192408473993,
,,,,105,0,105,0,,,,,,,,,,,,,,,,,,,,,,975.8451337000006,None,,,,,,,,,,,,,,,,,history,145,106,sing,new,null,974.1461156000005,None,974.1461156000005,None,1,1.084620200000245,974.1461156000005,None,1.084620200000245,975.2640054000003,None,975.7783346000006,None,975.7783346000006,None,n,0.036388600000464066,975.7783346000006,None,0.036388600000464066,,,140Sing,001,2023_Oct_27_1333,ProdSingRedoBetween,2021.2.3,59.9192408473993,
,,,,106,0,106,0,,,,,,,,,,,,,,,,,,,,,,979.4821701999999,None,,,,,,,,,,,,,,,,,marriage,110,107,sing,new,null,976.3462940999998,None,976.3462940999998,None,1,2.2604236000006495,976.3462940999998,None,2.2604236000006495,978.6338845999999,None,979.1487563000001,None,979.1487563000001,None,n,0.31405720000020665,979.1487563000001,None,0.31405720000020665,,,140Sing,001,2023_Oct_27_1333,ProdSingRedoBetween,2021.2.3,59.9192408473993,
,,,,107,0,107,0,,,,,,,,,,,,,,,,,,,,,,981.8344083000002,None,,,,,,,,,,,,,,,,,enemy,9,108,sing,old,yellow,979.9853123000003,None,979.9853123000003,None,1,1.2934306999995897,979.9853123000003,None,1.2934306999995897,981.3006641000002,None,981.8011943000001,None,981.8011943000001,None,n,0.00554420000025857,981.8011943000001,None,0.00554420000025857,,,140Sing,001,2023_Oct_27_1333,ProdSingRedoBetween,2021.2.3,59.9192408473993,
,,,,108,0,108,0,,,,,,,,,,,,,,,,,,,,,,984.5872440000003,None,,,,,,,,,,,,,,,,,trash,26,109,sing,old,yellow,982.3386613000002,None,982.3386613000002,None,6,1.2920376000001852,982.3386613000002,None,1.2920376000001852,983.6537988,None,984.1537791999999,None,984.1537791999999,None,r,0.4130810999995447,984.1537791999999,None,0.4130810999995447,,,140Sing,001,2023_Oct_27_1333,ProdSingRedoBetween,2021.2.3,59.9192408473993,
,,,,109,0,109,0,,,,,,,,,,,,,,,,,,,,,,990.8937945000007,None,,,,,,,,,,,,,,,,,damage,23,110,sing,old,yellow,985.0934419000005,None,985.0934419000005,None,2,5.0252590000000055,985.0934419000005,None,5.0252590000000055,990.1436352000001,None,990.6432345000003,None,990.6432345000003,None,f,0.2276986000006218,990.6432345000003,None,0.2276986000006218,,,140Sing,001,2023_Oct_27_1333,ProdSingRedoBetween,2021.2.3,59.9192408473993,
,,,,110,0,110,0,,,,,,,,,,,,,,,,,,,,,,995.9651377,None,,,,,,,,,,,,,,,,,skill,51,111,sing,old,blue,991.3936397000007,None,991.3936397000007,None,2,3.7970466000006127,991.3936397000007,None,3.7970466000006127,995.2201593999998,None,995.7324831000005,None,995.7324831000005,None,f,0.20222689999991417,995.7324831000005,None,0.20222689999991417,,,140Sing,001,2023_Oct_27_1333,ProdSingRedoBetween,2021.2.3,59.9192408473993,
,,,,111,0,111,0,,,,,,,,,,,,,,,,,,,,,,998.4673487,None,,,,,,,,,,,,,,,,,audience,176,112,sing,new,null,996.4687451999998,None,996.4687451999998,None,1,1.4259905000008075,996.4687451999998,None,1.4259905000008075,997.9186880000007,None,998.4341294000005,None,998.4341294000005,None,n,0.012569700000312878,998.4341294000005,None,0.012569700000312878,,,140Sing,001,2023_Oct_27_1333,ProdSingRedoBetween,2021.2.3,59.9192408473993,
,,,,112,0,112,0,,,,,,,,,,,,,,,,,,,,,,1001.8375165000007,None,,,,,,,,,,,,,,,,,breath,152,113,sing,new,null,998.9680171999998,None,998.9680171999998,None,1,2.2867064000001847,998.9680171999998,None,2.2867064000001847,1001.2785975000006,None,1001.7877806000006,None,1001.7877806000006,None,n,0.019001900000148453,1001.7877806000006,None,0.019001900000148453,,,140Sing,001,2023_Oct_27_1333,ProdSingRedoBetween,2021.2.3,59.9192408473993,
,,,,113,0,113,0,,,,,,,,,,,,,,,,,,,,,,1004.4403568000007,None,,,,,,,,,,,,,,,,,stranger,81,114,sing,old,red,1002.3382801000007,None,1002.3382801000007,None,1,1.3084177000000636,1002.3382801000007,None,1.3084177000000636,1003.6735804,None,1004.1733596000004,None,1004.1733596000004,None,n,0.24942419999933918,1004.1733596000004,None,0.24942419999933918,,,140Sing,001,2023_Oct_27_1333,ProdSingRedoBetween,2021.2.3,59.9192408473993,
,,,,114,0,114,0,,,,,,,,,,,,,,,,,,,,,,1006.7808257000006,None,,,,,,,,,,,,,,,,,mankind,91,115,sing,new,null,1004.9409255,None,1004.9409255,None,1,1.2578114999996615,1004.9409255,None,1.2578114999996615,1006.2252693999999,None,1006.7264599,None,1006.7264599,None,n,0.032352999999602616,1006.7264599,None,0.032352999999602616,,,140Sing,001,2023_Oct_27_1333,ProdSingRedoBetween,2021.2.3,59.9192408473993,
,,,,115,0,115,0,,,,,,,,,,,,,,,,,,,,,,1010.5128271000003,None,,,,,,,,,,,,,,,,,height,27,116,sing,old,yellow,1007.2928658000001,None,1007.2928658000001,None,1,1.2418273000002955,1007.2928658000001,None,1.2418273000002955,1008.5665696000005,None,1009.0784270000004,None,1009.0784270000004,None,n,1.4082365000003847,1009.0784270000004,None,1.4082365000003847,,,140Sing,001,2023_Oct_27_1333,ProdSingRedoBetween,2021.2.3,59.9192408473993,
,,,,116,0,116,0,,,,,,,,,,,,,,,,,,,,,,1012.8820886000003,None,,,,,,,,,,,,,,,,,color,168,117,sing,new,null,1011.0243842,None,1011.0243842,None,1,1.23028130000057,1011.0243842,None,1.23028130000057,1012.2847544000006,None,1012.798675,None,1012.798675,None,n,0.056067800000164425,1012.798675,None,0.056067800000164425,,,140Sing,001,2023_Oct_27_1333,ProdSingRedoBetween,2021.2.3,59.9192408473993,
,,,,117,0,117,0,,,,,,,,,,,,,,,,,,,,,,1016.5242783000003,None,,,,,,,,,,,,,,,,,commercial,55,118,sing,old,blue,1013.3822639999999,None,1013.3822639999999,None,2,1.9844248999997944,1013.3822639999999,None,1.9844248999997944,1015.3910603000004,None,1015.9023425000005,None,1015.9023425000005,None,n,0.6004938000005495,1015.9023425000005,None,0.6004938000005495,,,140Sing,001,2023_Oct_27_1333,ProdSingRedoBetween,2021.2.3,59.9192408473993,
,,,,118,0,118,0,,,,,,,,,,,,,,,,,,,,,,1018.7042832000006,None,,,,,,,,,,,,,,,,,running,68,119,sing,old,red,1017.0359293000001,None,1017.0359293000001,None,1,1.0508205000005546,1017.0359293000001,None,1.0508205000005546,1018.1096256000001,None,1018.6211423000004,None,1018.6211423000004,None,n,0.05757510000057664,1018.6211423000004,None,0.05757510000057664,,,140Sing,001,2023_Oct_27_1333,ProdSingRedoBetween,2021.2.3,59.9192408473993,
,,,,119,0,119,0,,,,,,,,,,,,,,,,,,,,,,1021.0233826000003,None,,,,,,,,,,,,,,,,,south,177,120,sing,new,null,1019.2050921999999,None,1019.2050921999999,None,1,1.193592799999351,1019.2050921999999,None,1.193592799999351,1020.4290202000002,None,1020.9399411000004,None,1020.9399411000004,None,n,0.05874630000016623,1020.9399411000004,None,0.05874630000016623,,,140Sing,001,2023_Oct_27_1333,ProdSingRedoBetween,2021.2.3,59.9192408473993,
,,,,120,0,120,0,,,,,,,,,,,,,,,,,,,,,,1026.0281801,None,,,,,,,,,,,,,,,,,character,7,121,sing,old,yellow,1021.524042,None,1021.524042,None,6,3.5066311000000496,1021.524042,None,3.5066311000000496,1025.0663032000002,None,1025.5779170000005,None,1025.5779170000005,None,f,0.4288016000000425,1025.5779170000005,None,0.4288016000000425,,,140Sing,001,2023_Oct_27_1333,ProdSingRedoBetween,2021.2.3,59.9192408473993,
,,,,121,0,121,0,,,,,,,,,,,,,,,,,,,,,,1029.5818374,None,,,,,,,,,,,,,,,,,husband,65,122,sing,old,red,1026.5291981999999,None,1026.5291981999999,None,6,1.461464399999386,1026.5291981999999,None,1.461464399999386,1028.0164085000006,None,1028.5308984000003,None,1028.5308984000003,None,r,1.0277565999995204,1028.5308984000003,None,1.0277565999995204,,,140Sing,001,2023_Oct_27_1333,ProdSingRedoBetween,2021.2.3,59.9192408473993,
,,,,122,0,122,0,,,,,,,,,,,,,,,,,,,,,,1032.6685705999998,None,,,,,,,,,,,,,,,,,guide,60,123,sing,old,red,1030.0823705000003,None,1030.0823705000003,None,1,1.7402781000000687,1030.0823705000003,None,1.7402781000000687,1031.8570998000005,None,1032.3682894000003,None,1032.3682894000003,None,n,0.2784144999995988,1032.3682894000003,None,0.2784144999995988,,,140Sing,001,2023_Oct_27_1333,ProdSingRedoBetween,2021.2.3,59.9192408473993,
,,,,123,0,123,0,,,,,,,,,,,,,,,,,,,,,,1035.8051572000004,None,,,,,,,,,,,,,,,,,pancakes,113,124,sing,new,null,1033.1701634,None,1033.1701634,None,1,1.1167153000005783,1033.1701634,None,1.1167153000005783,1034.3072655000005,None,1034.8204089,None,1034.8204089,None,n,0.9623225000004823,1034.8204089,None,0.9623225000004823,,,140Sing,001,2023_Oct_27_1333,ProdSingRedoBetween,2021.2.3,59.9192408473993,
,,,,124,0,124,0,,,,,,,,,,,,,,,,,,,,,,1040.4261671000004,None,,,,,,,,,,,,,,,,,council,116,125,sing,new,null,1036.3074154000005,None,1036.3074154000005,None,1,3.323240800000349,1036.3074154000005,None,3.323240800000349,1039.6595242000003,None,1040.1592458000005,None,1040.1592458000005,None,n,0.2473874999996042,1040.1592458000005,None,0.2473874999996042,,,140Sing,001,2023_Oct_27_1333,ProdSingRedoBetween,2021.2.3,59.9192408473993,
,,,,125,0,125,0,,,,,,,,,,,,,,,,,,,,,,1042.6951958,None,,,,,,,,,,,,,,,,,impact,137,126,sing,new,null,1040.9266591000005,None,1040.9266591000005,None,1,1.1360144999998738,1040.9266591000005,None,1.1360144999998738,1042.0965771,None,1042.6117644000005,None,1042.6117644000005,None,n,0.06703969999944093,1042.6117644000005,None,0.06703969999944093,,,140Sing,001,2023_Oct_27_1333,ProdSingRedoBetween,2021.2.3,59.9192408473993,
,,,,126,0,126,0,,,,,,,,,,,,,,,,,,,,,,1046.4825107000006,None,,,,,,,,,,,,,,,,,bureau,33,127,sing,old,blue,1043.1957511,None,1043.1957511,None,6,1.4191043999999238,1043.1957511,None,1.4191043999999238,1044.6387013000003,None,1045.1474895000001,None,1045.1474895000001,None,r,1.3071450000006735,1045.1474895000001,None,1.3071450000006735,,,140Sing,001,2023_Oct_27_1333,ProdSingRedoBetween,2021.2.3,59.9192408473993,
,,,,127,0,127,0,,,,,,,,,,,,,,,,,,,,,,1048.884962,None,,,,,,,,,,,,,,,,,candidate,125,128,sing,new,null,1046.9903761000005,None,1046.9903761000005,None,1,1.2723241000003327,1046.9903761000005,None,1.2723241000003327,1048.2876934000005,None,1048.801262,None,1048.801262,None,n,0.0615047000001141,1048.801262,None,0.0615047000001141,,,140Sing,001,2023_Oct_27_1333,ProdSingRedoBetween,2021.2.3,59.9192408473993,
,,,,128,0,128,0,,,,,,,,,,,,,,,,,,,,,,1054.1729289000004,None,,,,,,,,,,,,,,,,,trend,165,129,sing,new,null,1049.3847809,None,1049.3847809,None,1,4.045815600000424,1049.3847809,None,4.045815600000424,1053.4596510000001,None,1053.9729043000007,None,1053.9729043000007,None,n,0.1777751999998145,1053.9729043000007,None,0.1777751999998145,,,140Sing,001,2023_Oct_27_1333,ProdSingRedoBetween,2021.2.3,59.9192408473993,
,,,,129,0,129,0,,,,,,,,,,,,,,,,,,,,,,1060.0122161,None,,,,,,,,,,,,,,,,,background,123,130,sing,new,null,1054.6736034000005,None,1054.6736034000005,None,1,4.637056099999427,1054.6736034000005,None,4.637056099999427,1059.3301384000006,None,1059.8454047000005,None,1059.8454047000005,None,n,0.13722640000014508,1059.8454047000005,None,0.13722640000014508,,,140Sing,001,2023_Oct_27_1333,ProdSingRedoBetween,2021.2.3,59.9192408473993,
,,,,130,0,130,0,,,,,,,,,,,,,,,,,,,,,,1062.7652726000006,None,,,,,,,,,,,,,,,,,captain,4,131,sing,old,yellow,1060.5130223000006,None,1060.5130223000006,None,1,1.6616153000004488,1060.5130223000006,None,1.6616153000004488,1062.1977831000004,None,1062.6987063000006,None,1062.6987063000006,None,n,0.04391799999939394,1062.6987063000006,None,0.04391799999939394,,,140Sing,001,2023_Oct_27_1333,ProdSingRedoBetween,2021.2.3,59.9192408473993,
,,,,131,0,131,0,,,,,,,,,,,,,,,,,,,,,,1067.7033073000002,None,,,,,,,,,,,,,,,,,primary,30,132,sing,old,blue,1063.2658298000006,None,1063.2658298000006,None,1,3.620873500000016,1063.2658298000006,None,3.620873500000016,1066.9026506,None,1067.4033327000006,None,1067.4033327000006,None,n,0.283328900000015,1067.4033327000006,None,0.283328900000015,,,140Sing,001,2023_Oct_27_1333,ProdSingRedoBetween,2021.2.3,59.9192408473993,
,,,,132,0,132,0,,,,,,,,,,,,,,,,,,,,,,1070.6065003000003,None,,,,,,,,,,,,,,,,,appearance,159,133,sing,new,null,1068.2039020000002,None,1068.2039020000002,None,1,1.810735800000657,1068.2039020000002,None,1.810735800000657,1070.0413181000004,None,1070.5579220999998,None,1070.5579220999998,None,n,0.024845599999935075,1070.5579220999998,None,0.024845599999935075,,,140Sing,001,2023_Oct_27_1333,ProdSingRedoBetween,2021.2.3,59.9192408473993,
,,,,133,0,133,0,,,,,,,,,,,,,,,,,,,,,,1072.9584992999999,None,,,,,,,,,,,,,,,,,alert,126,134,sing,new,null,1071.1067970000004,None,1071.1067970000004,None,1,1.1959822999997414,1071.1067970000004,None,1.1959822999997414,1072.324713,None,1072.8254610000004,None,1072.8254610000004,None,n,0.10918049999963841,1072.8254610000004,None,0.10918049999963841,,,140Sing,001,2023_Oct_27_1333,ProdSingRedoBetween,2021.2.3,59.9192408473993,
,,,,134,0,134,0,,,,,,,,,,,,,,,,,,,,,,1076.1447342000001,None,,,,,,,,,,,,,,,,,heavy,10,135,sing,old,yellow,1073.4601221000003,None,1073.4601221000003,None,1,1.1944956000006641,1073.4601221000003,None,1.1944956000006641,1074.6789291000005,None,1075.1948306000004,None,1075.1948306000004,None,n,0.9318880999999237,1075.1948306000004,None,0.9318880999999237,,,140Sing,001,2023_Oct_27_1333,ProdSingRedoBetween,2021.2.3,59.9192408473993,
,,,,135,0,135,0,,,,,,,,,,,,,,,,,,,,,,1081.9674417000006,None,,,,,,,,,,,,,,,,,testimony,92,136,sing,new,null,1076.6456096000002,None,1076.6456096000002,None,1,0.9849300000005314,1076.6456096000002,None,0.9849300000005314,1077.6514095000002,None,1078.1636936000004,None,1078.1636936000004,None,n,3.778995499999837,1078.1636936000004,None,3.778995499999837,,,140Sing,001,2023_Oct_27_1333,ProdSingRedoBetween,2021.2.3,59.9192408473993,
,,,,136,0,136,0,,,,,,,,,,,,,,,,,,,,,,1084.4541112000006,None,,,,,,,,,,,,,,,,,quiet,89,137,sing,old,red,1082.4679513,None,1082.4679513,None,1,1.3467246999998679,1082.4679513,None,1.3467246999998679,1083.8358659000005,None,1084.3370786000005,None,1084.3370786000005,None,n,0.09360590000051161,1084.3370786000005,None,0.09360590000051161,,,140Sing,001,2023_Oct_27_1333,ProdSingRedoBetween,2021.2.3,59.9192408473993,
,,,,137,0,137,0,,,,,,,,,,,,,,,,,,,,,,1086.6571819,None,,,,,,,,,,,,,,,,,rural,50,138,sing,old,blue,1084.9564475000006,None,1084.9564475000006,None,1,1.0021649999998772,1084.9564475000006,None,1.0021649999998772,1085.9922754,None,1086.5054303000006,None,1086.5054303000006,None,n,0.1251564000003782,1086.5054303000006,None,0.1251564000003782,,,140Sing,001,2023_Oct_27_1333,ProdSingRedoBetween,2021.2.3,59.9192408473993,
,,,,138,0,138,0,,,,,,,,,,,,,,,,,,,,,,1089.3415076,None,,,,,,,,,,,,,,,,,symbol,64,139,sing,old,red,1087.1586501000002,None,1087.1586501000002,None,1,1.5519550999997591,1087.1586501000002,None,1.5519550999997591,1088.7443942999998,None,1089.2581776000006,None,1089.2581776000006,None,n,0.05239579999943089,1089.2581776000006,None,0.05239579999943089,,,140Sing,001,2023_Oct_27_1333,ProdSingRedoBetween,2021.2.3,59.9192408473993,
,,,,139,0,139,0,,,,,,,,,,,,,,,,,,,,,,1091.7663996,None,,,,,,,,,,,,,,,,,silence,96,140,sing,new,null,1089.8421447,None,1089.8421447,None,1,1.1484111999998277,1089.8421447,None,1.1484111999998277,1091.0102699,None,1091.5104763,None,1091.5104763,None,n,0.23224199999913253,1091.5104763,None,0.23224199999913253,,,140Sing,001,2023_Oct_27_1333,ProdSingRedoBetween,2021.2.3,59.9192408473993,
,,,,140,0,140,0,,,,,,,,,,,,,,,,,,,,,,1095.7831747,None,,,,,,,,,,,,,,,,,production,129,141,sing,new,null,1092.2817713000004,None,1092.2817713000004,None,1,2.764961300000323,1092.2817713000004,None,2.764961300000323,1095.0657706000002,None,1095.5644596000002,None,1095.5644596000002,None,n,0.1941357000005155,1095.5644596000002,None,0.1941357000005155,,,140Sing,001,2023_Oct_27_1333,ProdSingRedoBetween,2021.2.3,59.9192408473993,
,,,,141,0,141,0,,,,,,,,,,,,,,,,,,,,,,1099.2346441,None,,,,,,,,,,,,,,,,,build,83,142,sing,old,red,1096.2856987000005,None,1096.2856987000005,None,1,1.0728906000003917,1096.2856987000005,None,1.0728906000003917,1097.3828141000004,None,1097.8833251000005,None,1097.8833251000005,None,n,1.331381599999986,1097.8833251000005,None,1.331381599999986,,,140Sing,001,2023_Oct_27_1333,ProdSingRedoBetween,2021.2.3,59.9192408473993,
,,,,142,0,142,0,,,,,,,,,,,,,,,,,,,,,,1104.5066563999999,None,,,,,,,,,,,,,,,,,executive,15,143,sing,old,yellow,1099.7359333000004,None,1099.7359333000004,None,6,4.206630300000143,1099.7359333000004,None,4.206630300000143,1103.9741760000006,None,1104.4738845000002,None,1104.4738845000002,None,f,0.004739799999697425,1104.4738845000002,None,0.004739799999697425,,,140Sing,001,2023_Oct_27_1333,ProdSingRedoBetween,2021.2.3,59.9192408473993,
,,,,143,0,143,0,,,,,,,,,,,,,,,,,,,,,,1109.8121592000007,None,,,,,,,,,,,,,,,,,childhood,1,144,sing,old,yellow,1105.0076724,None,1105.0076724,None,1,3.118959499999619,1105.0076724,None,3.118959499999619,1108.1438071000002,None,1108.6441258000004,None,1108.6441258000004,None,n,1.1465103000000454,1108.6441258000004,None,1.1465103000000454,,,140Sing,001,2023_Oct_27_1333,ProdSingRedoBetween,2021.2.3,59.9192408473993,
,,,,144,0,144,0,,,,,,,,,,,,,,,,,,,,,,1114.1829714000005,None,,,,,,,,,,,,,,,,,pretty,97,145,sing,new,null,1110.3130563000004,None,1110.3130563000004,None,1,3.1336381999999503,1110.3130563000004,None,3.1336381999999503,1113.4684095000002,None,1113.9832662,None,1113.9832662,None,n,0.18347290000019711,1113.9832662,None,0.18347290000019711,,,140Sing,001,2023_Oct_27_1333,ProdSingRedoBetween,2021.2.3,59.9192408473993,
,,,,145,0,145,0,,,,,,,,,,,,,,,,,,,,,,1116.6020249000003,None,,,,,,,,,,,,,,,,,device,107,146,sing,new,null,1114.6867962000006,None,1114.6867962000006,None,1,1.1357599000002665,1114.6867962000006,None,1.1357599000002665,1115.8565405,None,1116.3687411,None,1116.3687411,None,n,0.21384429999943677,1116.3687411,None,0.21384429999943677,,,140Sing,001,2023_Oct_27_1333,ProdSingRedoBetween,2021.2.3,59.9192408473993,
,,,,146,0,146,0,,,,,,,,,,,,,,,,,,,,,,1118.8876651,None,,,,,,,,,,,,,,,,,attack,34,147,sing,old,blue,1117.1031297,None,1117.1031297,None,1,1.0714302999995198,1117.1031297,None,1.0714302999995198,1118.2064263000002,None,1118.7213393000002,None,1118.7213393000002,None,n,0.14933680000012828,1118.7213393000002,None,0.14933680000012828,,,140Sing,001,2023_Oct_27_1333,ProdSingRedoBetween,2021.2.3,59.9192408473993,
,,,,147,0,147,0,,,,,,,,,,,,,,,,,,,,,,1121.3410218,None,,,,,,,,,,,,,,,,,business,157,148,sing,new,null,1119.3885395000007,None,1119.3885395000007,None,1,1.226110200000221,1119.3885395000007,None,1.226110200000221,1120.6488,None,1121.1565565,None,1121.1565565,None,n,0.15405090000058408,1121.1565565,None,0.15405090000058408,,,140Sing,001,2023_Oct_27_1333,ProdSingRedoBetween,2021.2.3,59.9192408473993,
,,,,148,0,148,0,,,,,,,,,,,,,,,,,,,,,,1123.6090156,None,,,,,,,,,,,,,,,,,medicine,131,149,sing,new,null,1121.8410045,None,1121.8410045,None,1,1.1895414000000528,1121.8410045,None,1.1895414000000528,1123.0584218000004,None,1123.5592256,None,1123.5592256,None,n,0.023407399999996414,1123.5592256,None,0.023407399999996414,,,140Sing,001,2023_Oct_27_1333,ProdSingRedoBetween,2021.2.3,59.9192408473993,
,,,,149,0,149,0,,,,,,,,,,,,,,,,,,,,,,1126.0614462000003,None,,,,,,,,,,,,,,,,,accident,135,150,sing,new,null,1124.1107777000007,None,1124.1107777000007,None,1,1.3437622000001284,1124.1107777000007,None,1.3437622000001284,1125.4830826000007,None,1125.9948439999998,None,1125.9948439999998,None,n,0.043685800000275776,1125.9948439999998,None,0.043685800000275776,,,140Sing,001,2023_Oct_27_1333,ProdSingRedoBetween,2021.2.3,59.9192408473993,
,,,,150,0,150,0,,,,,,,,,,,,,,,,,,,,,,1128.2138357000003,None,,,,,,,,,,,,,,,,,instrument,151,151,sing,new,null,1126.5626462,None,1126.5626462,None,1,1.0439107000001968,1126.5626462,None,1.0439107000001968,1127.6301831,None,1128.1305952000002,None,1128.1305952000002,None,n,0.06804569999985688,1128.1305952000002,None,0.06804569999985688,,,140Sing,001,2023_Oct_27_1333,ProdSingRedoBetween,2021.2.3,59.9192408473993,
,,,,151,0,151,0,,,,,,,,,,,,,,,,,,,,,,1132.9351582,None,,,,,,,,,,,,,,,,,beginning,82,152,sing,old,red,1128.7154139000004,None,1128.7154139000004,None,6,1.9071027999998478,1128.7154139000004,None,1.9071027999998478,1130.6495595000006,None,1131.1501961000004,None,1131.1501961000004,None,f,1.768528999999944,1131.1501961000004,None,1.768528999999944,,,140Sing,001,2023_Oct_27_1333,ProdSingRedoBetween,2021.2.3,59.9192408473993,
,,,,152,0,152,0,,,,,,,,,,,,,,,,,,,,,,1135.2079678999999,None,,,,,,,,,,,,,,,,,working,3,153,sing,old,yellow,1133.4362838000006,None,1133.4362838000006,None,1,1.0902850000002218,1133.4362838000006,None,1.0902850000002218,1134.5573113,None,1135.0707966,None,1135.0707966,None,n,0.10391100000015285,1135.0707966,None,0.10391100000015285,,,140Sing,001,2023_Oct_27_1333,ProdSingRedoBetween,2021.2.3,59.9192408473993,
,,,,153,0,153,0,,,,,,,,,,,,,,,,,,,,,,1137.4062121000006,None,,,,,,,,,,,,,,,,,victory,146,154,sing,new,null,1135.7210494,None,1135.7210494,None,1,1.0614893000001757,1135.7210494,None,1.0614893000001757,1136.8103602,None,1137.3227651000007,None,1137.3227651000007,None,n,0.059885900000153924,1137.3227651000007,None,0.059885900000153924,,,140Sing,001,2023_Oct_27_1333,ProdSingRedoBetween,2021.2.3,59.9192408473993,
,,,,154,0,154,0,,,,,,,,,,,,,,,,,,,,,,1141.8610908,None,,,,,,,,,,,,,,,,,travel,17,155,sing,old,yellow,1137.9065445000006,None,1137.9065445000006,None,1,3.3161251000001357,1137.9065445000006,None,3.3161251000001357,1141.2438438,None,1141.7441568000004,None,1141.7441568000004,None,n,0.08633980000013253,1141.7441568000004,None,0.08633980000013253,,,140Sing,001,2023_Oct_27_1333,ProdSingRedoBetween,2021.2.3,59.9192408473993,
,,,,155,0,155,0,,,,,,,,,,,,,,,,,,,,,,1144.4304669000003,None,,,,,,,,,,,,,,,,,meeting,124,156,sing,new,null,1142.3632910000006,None,1142.3632910000006,None,1,1.4272382999997717,1142.3632910000006,None,1.4272382999997717,1143.8125279000005,None,1144.313255,None,1144.313255,None,n,0.0933604000001651,1144.313255,None,0.0933604000001651,,,140Sing,001,2023_Oct_27_1333,ProdSingRedoBetween,2021.2.3,59.9192408473993,
,,,,156,0,156,0,,,,,,,,,,,,,,,,,,,,,,1146.8844680000002,None,,,,,,,,,,,,,,,,,express,0,157,sing,old,yellow,1144.9323485000004,None,1144.9323485000004,None,1,1.3622730999995838,1144.9323485000004,None,1.3622730999995838,1146.3158402,None,1146.8157792000002,None,1146.8157792000002,None,n,0.046740499999941676,1146.8157792000002,None,0.046740499999941676,,,140Sing,001,2023_Oct_27_1333,ProdSingRedoBetween,2021.2.3,59.9192408473993,
,,,,157,0,157,0,,,,,,,,,,,,,,,,,,,,,,1149.3680945000006,None,,,,,,,,,,,,,,,,,agreement,57,158,sing,old,blue,1147.3998289,None,1147.3998289,None,1,1.3588481999995565,1147.3998289,None,1.3588481999995565,1148.7845125000003,None,1149.2851774,None,1149.2851774,None,n,0.0655322000002343,1149.2851774,None,0.0655322000002343,,,140Sing,001,2023_Oct_27_1333,ProdSingRedoBetween,2021.2.3,59.9192408473993,
,,,,158,0,158,0,,,,,,,,,,,,,,,,,,,,,,1151.8052720000005,None,,,,,,,,,,,,,,,,,period,142,159,sing,new,null,1149.8686616000005,None,1149.8686616000005,None,1,1.3618618999998944,1149.8686616000005,None,1.3618618999998944,1151.2531592000005,None,1151.7540556000004,None,1151.7540556000004,None,n,0.028484600000410865,1151.7540556000004,None,0.028484600000410865,,,140Sing,001,2023_Oct_27_1333,ProdSingRedoBetween,2021.2.3,59.9192408473993,
,,,,159,0,159,0,,,,,,,,,,,,,,,,,,,,,,1154.0393826999998,None,,,,,,,,,,,,,,,,,cross,76,160,sing,old,red,1152.3218367999998,None,1152.3218367999998,None,1,1.1007948999995278,1152.3218367999998,None,1.1007948999995278,1153.4390431000002,None,1153.9396415,None,1153.9396415,None,n,0.07494039999983215,1153.9396415,None,0.07494039999983215,,,140Sing,001,2023_Oct_27_1333,ProdSingRedoBetween,2021.2.3,59.9192408473993,
,,,,160,0,160,0,,,,,,,,,,,,,,,,,,,,,,1156.3418694000002,None,,,,,,,,,,,,,,,,,corner,166,161,sing,new,null,1154.5402234000003,None,1154.5402234000003,None,1,1.138417400000435,1154.5402234000003,None,1.138417400000435,1155.7078935,None,1156.2085201,None,1156.2085201,None,n,0.11001419999956852,1156.2085201,None,0.11001419999956852,,,140Sing,001,2023_Oct_27_1333,ProdSingRedoBetween,2021.2.3,59.9192408473993,
,,,,161,0,161,0,,,,,,,,,,,,,,,,,,,,,,1161.0630015000006,None,,,,,,,,,,,,,,,,,salary,75,162,sing,old,red,1156.8432374000004,None,1156.8432374000004,None,5,2.603240899999946,1156.8432374000004,None,2.603240899999946,1159.4783386,None,1159.9788686000002,None,1159.9788686000002,None,f,1.0596384000000398,1159.9788686000002,None,1.0596384000000398,,,140Sing,001,2023_Oct_27_1333,ProdSingRedoBetween,2021.2.3,59.9192408473993,
,,,,162,0,162,0,,,,,,,,,,,,,,,,,,,,,,1164.0494727000005,None,,,,,,,,,,,,,,,,,plane,127,163,sing,new,null,1161.5640972,None,1161.5640972,None,1,1.5145505000000412,1161.5640972,None,1.5145505000000412,1163.0982171000005,None,1163.5992595000007,None,1163.5992595000007,None,n,0.42326970000067377,1163.5992595000007,None,0.42326970000067377,,,140Sing,001,2023_Oct_27_1333,ProdSingRedoBetween,2021.2.3,59.9192408473993,
,,,,163,0,163,0,,,,,,,,,,,,,,,,,,,,,,1170.2056870000006,None,,,,,,,,,,,,,,,,,native,78,164,sing,old,red,1164.5500445000007,None,1164.5500445000007,None,4,4.78455380000014,1164.5500445000007,None,4.78455380000014,1169.3551558,None,1169.8552473999998,None,1169.8552473999998,None,f,0.3354490000001533,1169.8552473999998,None,0.3354490000001533,,,140Sing,001,2023_Oct_27_1333,ProdSingRedoBetween,2021.2.3,59.9192408473993,
,,,,164,0,164,0,,,,,,,,,,,,,,,,,,,,,,1181.9005829000007,None,,,,,,,,,,,,,,,,,graduate,162,165,sing,new,null,1170.7097203000003,None,1170.7097203000003,None,2,8.232854800000496,1170.7097203000003,None,8.232854800000496,1178.9668052000006,None,1179.4820205000005,None,1179.4820205000005,None,n,2.3886437000001024,1179.4820205000005,None,2.3886437000001024,,,140Sing,001,2023_Oct_27_1333,ProdSingRedoBetween,2021.2.3,59.9192408473993,
,,,,165,0,165,0,,,,,,,,,,,,,,,,,,,,,,1184.3869216000003,None,,,,,,,,,,,,,,,,,poetry,70,166,sing,old,red,1182.4029228,None,1182.4029228,None,6,1.2999383999995189,1182.4029228,None,1.2999383999995189,1183.7206108999999,None,1184.2361699000003,None,1184.2361699000003,None,f,0.13068339999972522,1184.2361699000003,None,0.13068339999972522,,,140Sing,001,2023_Oct_27_1333,ProdSingRedoBetween,2021.2.3,59.9192408473993,
,,,,166,0,166,0,,,,,,,,,,,,,,,,,,,,,,1189.7583976000005,None,,,,,,,,,,,,,,,,,short,170,167,sing,new,null,1184.8880325999999,None,1184.8880325999999,None,2,3.3585534000003463,1184.8880325999999,None,3.3585534000003463,1188.2765421000004,None,1188.7908879000006,None,1188.7908879000006,None,n,0.943646799999442,1188.7908879000006,None,0.943646799999442,,,140Sing,001,2023_Oct_27_1333,ProdSingRedoBetween,2021.2.3,59.9192408473993,
,,,,167,0,167,0,,,,,,,,,,,,,,,,,,,,,,1192.7450437000007,None,,,,,,,,,,,,,,,,,sleep,2,168,sing,old,yellow,1190.2591529000001,None,1190.2591529000001,None,1,1.619358199999624,1190.2591529000001,None,1.619358199999624,1191.8970636000004,None,1192.4113164999999,None,1192.4113164999999,None,n,0.3151298000002498,1192.4113164999999,None,0.3151298000002498,,,140Sing,001,2023_Oct_27_1333,ProdSingRedoBetween,2021.2.3,59.9192408473993,
,,,,168,0,168,0,,,,,,,,,,,,,,,,,,,,,,1195.9645936000006,None,,,,,,,,,,,,,,,,,display,13,169,sing,old,yellow,1193.2470976000004,None,1193.2470976000004,None,2,2.079427399999986,1193.2470976000004,None,2.079427399999986,1195.3547349,None,1195.8646604000005,None,1195.8646604000005,None,n,0.07791129999986879,1195.8646604000005,None,0.07791129999986879,,,140Sing,001,2023_Oct_27_1333,ProdSingRedoBetween,2021.2.3,59.9192408473993,
,,,,169,0,169,0,,,,,,,,,,,,,,,,,,,,,,1199.0346585000007,None,,,,,,,,,,,,,,,,,member,133,170,sing,new,null,1196.4653894000003,None,1196.4653894000003,None,1,2.01307209999959,1196.4653894000003,None,2.01307209999959,1198.5005091000003,None,1199.0013055999998,None,1199.0013055999998,None,n,0.013312800000676361,1199.0013055999998,None,0.013312800000676361,,,140Sing,001,2023_Oct_27_1333,ProdSingRedoBetween,2021.2.3,59.9192408473993,
,,,,170,0,170,0,,,,,,,,,,,,,,,,,,,,,,1201.8536172000004,None,,,,,,,,,,,,,,,,,nation,63,171,sing,old,red,1199.5356534000002,None,1199.5356534000002,None,2,1.6547997000006944,1199.5356534000002,None,1.6547997000006944,1201.2231793,None,1201.7370581000005,None,1201.7370581000005,None,n,0.08540499999980966,1201.7370581000005,None,0.08540499999980966,,,140Sing,001,2023_Oct_27_1333,ProdSingRedoBetween,2021.2.3,59.9192408473993,
,,,,171,0,171,0,,,,,,,,,,,,,,,,,,,,,,1204.0060739,None,,,,,,,,,,,,,,,,,fashion,61,172,sing,old,red,1202.3559615000004,None,1202.3559615000004,None,2,1.0825950999997076,1202.3559615000004,None,1.0825950999997076,1203.4627584999998,None,1203.9727001,None,1203.9727001,None,n,0.017829100000199105,1203.9727001,None,0.017829100000199105,,,140Sing,001,2023_Oct_27_1333,ProdSingRedoBetween,2021.2.3,59.9192408473993,
,,,,172,0,172,0,,,,,,,,,,,,,,,,,,,,,,1206.9922290000004,None,,,,,,,,,,,,,,,,,budget,90,173,sing,new,null,1204.5072226000002,None,1204.5072226000002,None,2,1.795273100000486,1204.5072226000002,None,1.795273100000486,1206.3257769000002,None,1206.8261121000005,None,1206.8261121000005,None,n,0.14838849999978265,1206.8261121000005,None,0.14838849999978265,,,140Sing,001,2023_Oct_27_1333,ProdSingRedoBetween,2021.2.3,59.9192408473993,
,,,,173,0,173,0,,,,,,,,,,,,,,,,,,,,,,1212.6645558,None,,,,,,,,,,,,,,,,,voice,69,174,sing,old,red,1207.4932304000004,None,1207.4932304000004,None,5,4.361242200000561,1207.4932304000004,None,4.361242200000561,1211.8860310999999,None,1212.3975702000007,None,1212.3975702000007,None,f,0.24086199999965174,1212.3975702000007,None,0.24086199999965174,,,140Sing,001,2023_Oct_27_1333,ProdSingRedoBetween,2021.2.3,59.9192408473993,
,,,,174,0,174,0,,,,,,,,,,,,,,,,,,,,,,1221.7408215000005,None,,,,,,,,,,,,,,,,,session,86,175,sing,old,red,1213.1658568000003,None,1213.1658568000003,None,4,6.848579000000427,1213.1658568000003,None,6.848579000000427,1220.0418137000006,None,1220.5561842000006,None,1220.5561842000006,None,f,1.1622368000007555,1220.5561842000006,None,1.1622368000007555,,,140Sing,001,2023_Oct_27_1333,ProdSingRedoBetween,2021.2.3,59.9192408473993,
,,,,175,0,175,0,,,,,,,,,,,,,,,,,,,,,,1227.7298889000003,None,,,,,,,,,,,,,,,,,exchange,101,176,sing,new,null,1222.2463499000005,None,1222.2463499000005,None,1,3.912099600000147,1222.2463499000005,None,3.912099600000147,1226.1792411000006,None,1226.6790152000003,None,1226.6790152000003,None,n,1.0314268000001903,1226.6790152000003,None,1.0314268000001903,,,140Sing,001,2023_Oct_27_1333,ProdSingRedoBetween,2021.2.3,59.9192408473993,
,,,,176,0,176,0,,,,,,,,,,,,,,,,,,,,,,1230.6327685000006,None,,,,,,,,,,,,,,,,,orchestra,36,177,sing,old,blue,1228.2306115000001,None,1228.2306115000001,None,6,1.743939899999532,1228.2306115000001,None,1.743939899999532,1230.0069479000003,None,1230.5159134000005,None,1230.5159134000005,None,r,0.09861259999979666,1230.5159134000005,None,0.09861259999979666,,,140Sing,001,2023_Oct_27_1333,ProdSingRedoBetween,2021.2.3,59.9192408473993,
,,,,177,0,177,0,,,,,,,,,,,,,,,,,,,,,,1238.9602867000003,None,,,,,,,,,,,,,,,,,still,21,178,sing,old,yellow,1231.1351825000002,None,1231.1351825000002,None,3,6.255226000000221,1231.1351825000002,None,6.255226000000221,1237.4074984,None,1237.9231682,None,1237.9231682,None,f,1.011222699999962,1237.9231682,None,1.011222699999962,,,140Sing,001,2023_Oct_27_1333,ProdSingRedoBetween,2021.2.3,59.9192408473993,
,,,,178,0,178,0,,,,,,,,,,,,,,,,,,,,,,1246.7658685000006,None,,,,,,,,,,,,,,,,,estate,178,179,sing,new,null,1239.4793414000005,None,1239.4793414000005,None,1,1.311195399999633,1239.4793414000005,None,1.311195399999633,1240.8101059,None,1241.3098770000006,None,1241.3098770000006,None,n,5.4326131999996505,1241.3098770000006,None,5.4326131999996505,,,140Sing,001,2023_Oct_27_1333,ProdSingRedoBetween,2021.2.3,59.9192408473993,
,,,,179,0,179,0,,,,,,,,,,,,,,,,,,,,,,1252.1537949000003,None,,,,,,,,,,,,,,,,,range,150,180,sing,new,null,1247.2678660000001,None,1247.2678660000001,None,2,4.322511900000791,1247.2678660000001,None,4.322511900000791,1251.6203022,None,1252.1205694,None,1252.1205694,None,n,0.013982899999973597,1252.1205694,None,0.013982899999973597,,,140Sing,001,2023_Oct_27_1333,ProdSingRedoBetween,2021.2.3,59.9192408473993,
,,,,,,,,,,,,,,,,,,,,,,,,,,,,,,,,,,,,,,,,,,,,,,,,,,,,,,,,,,,,,,,,,,,,,,,,,1252.6551727000005,None,,,,,,,
