StudyLoop.thisRepN,StudyLoop.thisTrialN,StudyLoop.thisN,StudyLoop.thisIndex,TestLoop.thisRepN,TestLoop.thisTrialN,TestLoop.thisN,TestLoop.thisIndex,textCondition.started,textCondition.stopped,keyCondition.keys,keyCondition.rt,keyCondition.started,keyCondition.stopped,Condition,textWelcome.started,textWelcome.stopped,keyWelcome.keys,keyWelcome.rt,keyWelcome.started,keyWelcome.stopped,textAloud.started,textAloud.stopped,textSilent.started,textSilent.stopped,textSing.started,textSing.stopped,conditional_text.started,conditional_text.stopped,textBlank500.started,textBlank500.stopped,study_word,study_num,study_order,study_type,word_color,textStudy.started,textStudy.stopped,keyStudy.keys,keyStudy.started,keyStudy.stopped,textTestInstructions.started,textTestInstructions.stopped,key_resp_3.keys,key_resp_3.rt,key_resp_3.started,key_resp_3.stopped,test_word,test_num,test_order,test_condition,old_new_test,test_word_original_color,textConf.started,textConf.stopped,textConfScale.started,textConfScale.stopped,keyConf.keys,keyConf.rt,keyConf.started,keyConf.stopped,confidence response time,textTestBlank.started,textTestBlank.stopped,textRKN.started,textRKN.stopped,textRKNScale.started,textRKNScale.stopped,keyRKN.keys,keyRKN.rt,keyRKN.started,keyRKN.stopped,rkn response time,textEnd.started,textEnd.stopped,participant,session,date,expName,psychopyVersion,frameRate,
,,,,,,,,12.699406700000509,None,b,1.8855484999994587,12.699406700000509,None,,,,,,,,,,,,,,,,,,,,,,,,,,,,,,,,,,,,,,,,,,,,,,,,,,,,,,,,,,,,,,14Aloud,001,2022_Aug_03_1602,ProdSingRedoBetween,2021.2.3,59.89322236306214,
,,,,,,,,,,,,,,AloudTest,14.629470900000342,None,space,199.58744640000077,14.629470900000342,None,,,,,,,,,,,,,,,,,,,,,,,,,,,,,,,,,,,,,,,,,,,,,,,,,,,,,,,14Aloud,001,2022_Aug_03_1602,ProdSingRedoBetween,2021.2.3,59.89322236306214,
0,0,0,0,,,,,,,,,,,,,,,,,,14.629470900000342,None,14.629470900000342,None,14.629470900000342,None,14.629470900000342,None,216.7640581000005,None,childhood,81,1,aloud,red,214.75276580000082,None,None,214.75276580000082,None,,,,,,,,,,,,,,,,,,,,,,,,,,,,,,,,,,,14Aloud,001,2022_Aug_03_1602,ProdSingRedoBetween,2021.2.3,59.89322236306214,
1,0,1,0,,,,,,,,,,,,,,,,,,,,,,,,,,219.26637800000026,None,pancakes,86,2,aloud,red,217.26656710000043,None,None,217.26656710000043,None,,,,,,,,,,,,,,,,,,,,,,,,,,,,,,,,,,,14Aloud,001,2022_Aug_03_1602,ProdSingRedoBetween,2021.2.3,59.89322236306214,
2,0,2,0,,,,,,,,,,,,,,,,,,,,,,,,,,221.76904490000015,None,taste,71,3,aloud,red,219.76687949999996,None,None,219.76687949999996,None,,,,,,,,,,,,,,,,,,,,,,,,,,,,,,,,,,,14Aloud,001,2022_Aug_03_1602,ProdSingRedoBetween,2021.2.3,59.89322236306214,
3,0,3,0,,,,,,,,,,,,,,,,,,,,,,,,,,224.28823400000056,None,sweet,51,4,aloud,blue,222.27503909999996,None,None,222.27503909999996,None,,,,,,,,,,,,,,,,,,,,,,,,,,,,,,,,,,,14Aloud,001,2022_Aug_03_1602,ProdSingRedoBetween,2021.2.3,59.89322236306214,
4,0,4,0,,,,,,,,,,,,,,,,,,,,,,,,,,226.7908279000003,None,judge,9,5,aloud,yellow,224.79000840000026,None,None,224.79000840000026,None,,,,,,,,,,,,,,,,,,,,,,,,,,,,,,,,,,,14Aloud,001,2022_Aug_03_1602,ProdSingRedoBetween,2021.2.3,59.89322236306214,
5,0,5,0,,,,,,,,,,,,,,,,,,,,,,,,,,229.3099714,None,agency,64,6,aloud,red,227.30650390000028,None,None,227.30650390000028,None,,,,,,,,,,,,,,,,,,,,,,,,,,,,,,,,,,,14Aloud,001,2022_Aug_03_1602,ProdSingRedoBetween,2021.2.3,59.89322236306214,
6,0,6,0,,,,,,,,,,,,,,,,,,,,,,,,,,231.81225880000056,None,recall,58,7,aloud,blue,229.81044230000043,None,None,229.81044230000043,None,,,,,,,,,,,,,,,,,,,,,,,,,,,,,,,,,,,14Aloud,001,2022_Aug_03_1602,ProdSingRedoBetween,2021.2.3,59.89322236306214,
7,0,7,0,,,,,,,,,,,,,,,,,,,,,,,,,,234.33160700000008,None,watch,85,8,aloud,red,232.32351760000074,None,None,232.32351760000074,None,,,,,,,,,,,,,,,,,,,,,,,,,,,,,,,,,,,14Aloud,001,2022_Aug_03_1602,ProdSingRedoBetween,2021.2.3,59.89322236306214,
8,0,8,0,,,,,,,,,,,,,,,,,,,,,,,,,,236.83432730000004,None,resistance,80,9,aloud,red,234.83197380000001,None,None,234.83197380000001,None,,,,,,,,,,,,,,,,,,,,,,,,,,,,,,,,,,,14Aloud,001,2022_Aug_03_1602,ProdSingRedoBetween,2021.2.3,59.89322236306214,
9,0,9,0,,,,,,,,,,,,,,,,,,,,,,,,,,239.35313610000048,None,harmony,89,10,aloud,red,237.3400717000004,None,None,237.3400717000004,None,,,,,,,,,,,,,,,,,,,,,,,,,,,,,,,,,,,14Aloud,001,2022_Aug_03_1602,ProdSingRedoBetween,2021.2.3,59.89322236306214,
10,0,10,0,,,,,,,,,,,,,,,,,,,,,,,,,,241.87267280000015,None,curve,24,11,aloud,yellow,239.85923160000038,None,None,239.85923160000038,None,,,,,,,,,,,,,,,,,,,,,,,,,,,,,,,,,,,14Aloud,001,2022_Aug_03_1602,ProdSingRedoBetween,2021.2.3,59.89322236306214,
11,0,11,0,,,,,,,,,,,,,,,,,,,,,,,,,,244.37478640000063,None,period,65,12,aloud,red,242.3728000000001,None,None,242.3728000000001,None,,,,,,,,,,,,,,,,,,,,,,,,,,,,,,,,,,,14Aloud,001,2022_Aug_03_1602,ProdSingRedoBetween,2021.2.3,59.89322236306214,
12,0,12,0,,,,,,,,,,,,,,,,,,,,,,,,,,246.87760700000035,None,crisis,47,13,aloud,blue,244.87610440000026,None,None,244.87610440000026,None,,,,,,,,,,,,,,,,,,,,,,,,,,,,,,,,,,,14Aloud,001,2022_Aug_03_1602,ProdSingRedoBetween,2021.2.3,59.89322236306214,
13,0,13,0,,,,,,,,,,,,,,,,,,,,,,,,,,249.3964721000002,None,death,72,14,aloud,red,247.38115900000048,None,None,247.38115900000048,None,,,,,,,,,,,,,,,,,,,,,,,,,,,,,,,,,,,14Aloud,001,2022_Aug_03_1602,ProdSingRedoBetween,2021.2.3,59.89322236306214,
14,0,14,0,,,,,,,,,,,,,,,,,,,,,,,,,,251.89920239999992,None,review,40,15,aloud,blue,249.8969231000001,None,None,249.8969231000001,None,,,,,,,,,,,,,,,,,,,,,,,,,,,,,,,,,,,14Aloud,001,2022_Aug_03_1602,ProdSingRedoBetween,2021.2.3,59.89322236306214,
15,0,15,0,,,,,,,,,,,,,,,,,,,,,,,,,,254.40174019999995,None,sight,30,16,aloud,blue,252.39970080000057,None,None,252.39970080000057,None,,,,,,,,,,,,,,,,,,,,,,,,,,,,,,,,,,,14Aloud,001,2022_Aug_03_1602,ProdSingRedoBetween,2021.2.3,59.89322236306214,
16,0,16,0,,,,,,,,,,,,,,,,,,,,,,,,,,256.90422880000006,None,agreement,75,17,aloud,red,254.90438470000026,None,None,254.90438470000026,None,,,,,,,,,,,,,,,,,,,,,,,,,,,,,,,,,,,14Aloud,001,2022_Aug_03_1602,ProdSingRedoBetween,2021.2.3,59.89322236306214,
17,0,17,0,,,,,,,,,,,,,,,,,,,,,,,,,,259.40689680000014,None,silence,11,18,aloud,yellow,257.4064758000004,None,None,257.4064758000004,None,,,,,,,,,,,,,,,,,,,,,,,,,,,,,,,,,,,14Aloud,001,2022_Aug_03_1602,ProdSingRedoBetween,2021.2.3,59.89322236306214,
18,0,18,0,,,,,,,,,,,,,,,,,,,,,,,,,,261.9091922000007,None,career,18,19,aloud,yellow,259.9083685000005,None,None,259.9083685000005,None,,,,,,,,,,,,,,,,,,,,,,,,,,,,,,,,,,,14Aloud,001,2022_Aug_03_1602,ProdSingRedoBetween,2021.2.3,59.89322236306214,
19,0,19,0,,,,,,,,,,,,,,,,,,,,,,,,,,264.4117476000001,None,division,66,20,aloud,red,262.4118096000002,None,None,262.4118096000002,None,,,,,,,,,,,,,,,,,,,,,,,,,,,,,,,,,,,14Aloud,001,2022_Aug_03_1602,ProdSingRedoBetween,2021.2.3,59.89322236306214,
20,0,20,0,,,,,,,,,,,,,,,,,,,,,,,,,,266.91433620000043,None,clean,55,21,aloud,blue,264.91532670000015,None,None,264.91532670000015,None,,,,,,,,,,,,,,,,,,,,,,,,,,,,,,,,,,,14Aloud,001,2022_Aug_03_1602,ProdSingRedoBetween,2021.2.3,59.89322236306214,
21,0,21,0,,,,,,,,,,,,,,,,,,,,,,,,,,269.4332282000005,None,personnel,16,22,aloud,yellow,267.4218408000006,None,None,267.4218408000006,None,,,,,,,,,,,,,,,,,,,,,,,,,,,,,,,,,,,14Aloud,001,2022_Aug_03_1602,ProdSingRedoBetween,2021.2.3,59.89322236306214,
22,0,22,0,,,,,,,,,,,,,,,,,,,,,,,,,,271.95247930000005,None,pattern,7,23,aloud,yellow,269.93732420000015,None,None,269.93732420000015,None,,,,,,,,,,,,,,,,,,,,,,,,,,,,,,,,,,,14Aloud,001,2022_Aug_03_1602,ProdSingRedoBetween,2021.2.3,59.89322236306214,
23,0,23,0,,,,,,,,,,,,,,,,,,,,,,,,,,274.45505870000034,None,reading,63,24,aloud,red,272.4529555000008,None,None,272.4529555000008,None,,,,,,,,,,,,,,,,,,,,,,,,,,,,,,,,,,,14Aloud,001,2022_Aug_03_1602,ProdSingRedoBetween,2021.2.3,59.89322236306214,
24,0,24,0,,,,,,,,,,,,,,,,,,,,,,,,,,276.9575207000007,None,election,46,25,aloud,blue,274.95544580000023,None,None,274.95544580000023,None,,,,,,,,,,,,,,,,,,,,,,,,,,,,,,,,,,,14Aloud,001,2022_Aug_03_1602,ProdSingRedoBetween,2021.2.3,59.89322236306214,
25,0,25,0,,,,,,,,,,,,,,,,,,,,,,,,,,279.4764180000002,None,private,88,26,aloud,red,277.46230790000027,None,None,277.46230790000027,None,,,,,,,,,,,,,,,,,,,,,,,,,,,,,,,,,,,14Aloud,001,2022_Aug_03_1602,ProdSingRedoBetween,2021.2.3,59.89322236306214,
26,0,26,0,,,,,,,,,,,,,,,,,,,,,,,,,,281.9792888000002,None,match,20,27,aloud,yellow,279.9773154000004,None,None,279.9773154000004,None,,,,,,,,,,,,,,,,,,,,,,,,,,,,,,,,,,,14Aloud,001,2022_Aug_03_1602,ProdSingRedoBetween,2021.2.3,59.89322236306214,
27,0,27,0,,,,,,,,,,,,,,,,,,,,,,,,,,284.48166630000014,None,thing,79,28,aloud,red,282.48070520000056,None,None,282.48070520000056,None,,,,,,,,,,,,,,,,,,,,,,,,,,,,,,,,,,,14Aloud,001,2022_Aug_03_1602,ProdSingRedoBetween,2021.2.3,59.89322236306214,
28,0,28,0,,,,,,,,,,,,,,,,,,,,,,,,,,286.9840572000003,None,republic,23,29,aloud,yellow,284.98404200000004,None,None,284.98404200000004,None,,,,,,,,,,,,,,,,,,,,,,,,,,,,,,,,,,,14Aloud,001,2022_Aug_03_1602,ProdSingRedoBetween,2021.2.3,59.89322236306214,
29,0,29,0,,,,,,,,,,,,,,,,,,,,,,,,,,289.4867296000002,None,chief,60,30,aloud,red,287.4848013999999,None,None,287.4848013999999,None,,,,,,,,,,,,,,,,,,,,,,,,,,,,,,,,,,,14Aloud,001,2022_Aug_03_1602,ProdSingRedoBetween,2021.2.3,59.89322236306214,
30,0,30,0,,,,,,,,,,,,,,,,,,,,,,,,,,291.98923900000045,None,position,2,31,aloud,yellow,289.9872479000005,None,None,289.9872479000005,None,,,,,,,,,,,,,,,,,,,,,,,,,,,,,,,,,,,14Aloud,001,2022_Aug_03_1602,ProdSingRedoBetween,2021.2.3,59.89322236306214,
31,0,31,0,,,,,,,,,,,,,,,,,,,,,,,,,,294.4917271000004,None,error,0,32,aloud,yellow,292.4897424999999,None,None,292.4897424999999,None,,,,,,,,,,,,,,,,,,,,,,,,,,,,,,,,,,,14Aloud,001,2022_Aug_03_1602,ProdSingRedoBetween,2021.2.3,59.89322236306214,
32,0,32,0,,,,,,,,,,,,,,,,,,,,,,,,,,297.0109813000008,None,government,45,33,aloud,blue,295.0053252000007,None,None,295.0053252000007,None,,,,,,,,,,,,,,,,,,,,,,,,,,,,,,,,,,,14Aloud,001,2022_Aug_03_1602,ProdSingRedoBetween,2021.2.3,59.89322236306214,
33,0,33,0,,,,,,,,,,,,,,,,,,,,,,,,,,299.5131293000004,None,month,53,34,aloud,blue,297.5111549000003,None,None,297.5111549000003,None,,,,,,,,,,,,,,,,,,,,,,,,,,,,,,,,,,,14Aloud,001,2022_Aug_03_1602,ProdSingRedoBetween,2021.2.3,59.89322236306214,
34,0,34,0,,,,,,,,,,,,,,,,,,,,,,,,,,302.01608750000014,None,escape,28,35,aloud,yellow,300.01383740000074,None,None,300.01383740000074,None,,,,,,,,,,,,,,,,,,,,,,,,,,,,,,,,,,,14Aloud,001,2022_Aug_03_1602,ProdSingRedoBetween,2021.2.3,59.89322236306214,
35,0,35,0,,,,,,,,,,,,,,,,,,,,,,,,,,304.5352470000007,None,working,84,36,aloud,red,302.5268851999999,None,None,302.5268851999999,None,,,,,,,,,,,,,,,,,,,,,,,,,,,,,,,,,,,14Aloud,001,2022_Aug_03_1602,ProdSingRedoBetween,2021.2.3,59.89322236306214,
36,0,36,0,,,,,,,,,,,,,,,,,,,,,,,,,,307.0542834000007,None,scale,44,37,aloud,blue,305.0397745,None,None,305.0397745,None,,,,,,,,,,,,,,,,,,,,,,,,,,,,,,,,,,,14Aloud,001,2022_Aug_03_1602,ProdSingRedoBetween,2021.2.3,59.89322236306214,
37,0,37,0,,,,,,,,,,,,,,,,,,,,,,,,,,309.5732818000006,None,entrance,50,38,aloud,blue,307.5615204000005,None,None,307.5615204000005,None,,,,,,,,,,,,,,,,,,,,,,,,,,,,,,,,,,,14Aloud,001,2022_Aug_03_1602,ProdSingRedoBetween,2021.2.3,59.89322236306214,
38,0,38,0,,,,,,,,,,,,,,,,,,,,,,,,,,312.0759370000005,None,council,59,39,aloud,yellow,310.07379370000035,None,None,310.07379370000035,None,,,,,,,,,,,,,,,,,,,,,,,,,,,,,,,,,,,14Aloud,001,2022_Aug_03_1602,ProdSingRedoBetween,2021.2.3,59.89322236306214,
39,0,39,0,,,,,,,,,,,,,,,,,,,,,,,,,,314.5785566000004,None,route,5,40,aloud,yellow,312.5765056,None,None,312.5765056,None,,,,,,,,,,,,,,,,,,,,,,,,,,,,,,,,,,,14Aloud,001,2022_Aug_03_1602,ProdSingRedoBetween,2021.2.3,59.89322236306214,
40,0,40,0,,,,,,,,,,,,,,,,,,,,,,,,,,317.08101970000007,None,shock,26,41,aloud,yellow,315.0817392000008,None,None,315.0817392000008,None,,,,,,,,,,,,,,,,,,,,,,,,,,,,,,,,,,,14Aloud,001,2022_Aug_03_1602,ProdSingRedoBetween,2021.2.3,59.89322236306214,
41,0,41,0,,,,,,,,,,,,,,,,,,,,,,,,,,319.6001986000001,None,south,32,42,aloud,blue,317.589825,None,None,317.589825,None,,,,,,,,,,,,,,,,,,,,,,,,,,,,,,,,,,,14Aloud,001,2022_Aug_03_1602,ProdSingRedoBetween,2021.2.3,59.89322236306214,
42,0,42,0,,,,,,,,,,,,,,,,,,,,,,,,,,322.1027275000006,None,fashion,76,43,aloud,red,320.1017101000007,None,None,320.1017101000007,None,,,,,,,,,,,,,,,,,,,,,,,,,,,,,,,,,,,14Aloud,001,2022_Aug_03_1602,ProdSingRedoBetween,2021.2.3,59.89322236306214,
43,0,43,0,,,,,,,,,,,,,,,,,,,,,,,,,,324.6218503,None,people,82,44,aloud,red,322.61306950000017,None,None,322.61306950000017,None,,,,,,,,,,,,,,,,,,,,,,,,,,,,,,,,,,,14Aloud,001,2022_Aug_03_1602,ProdSingRedoBetween,2021.2.3,59.89322236306214,
44,0,44,0,,,,,,,,,,,,,,,,,,,,,,,,,,327.12446230000023,None,discovery,61,45,aloud,red,325.1250781000008,None,None,325.1250781000008,None,,,,,,,,,,,,,,,,,,,,,,,,,,,,,,,,,,,14Aloud,001,2022_Aug_03_1602,ProdSingRedoBetween,2021.2.3,59.89322236306214,
45,0,45,0,,,,,,,,,,,,,,,,,,,,,,,,,,329.6269333,None,school,14,46,aloud,yellow,327.62485020000076,None,None,327.62485020000076,None,,,,,,,,,,,,,,,,,,,,,,,,,,,,,,,,,,,14Aloud,001,2022_Aug_03_1602,ProdSingRedoBetween,2021.2.3,59.89322236306214,
46,0,46,0,,,,,,,,,,,,,,,,,,,,,,,,,,332.12934080000014,None,service,25,47,aloud,yellow,330.1274286000007,None,None,330.1274286000007,None,,,,,,,,,,,,,,,,,,,,,,,,,,,,,,,,,,,14Aloud,001,2022_Aug_03_1602,ProdSingRedoBetween,2021.2.3,59.89322236306214,
47,0,47,0,,,,,,,,,,,,,,,,,,,,,,,,,,334.6486431000003,None,running,37,48,aloud,blue,332.6362158000002,None,None,332.6362158000002,None,,,,,,,,,,,,,,,,,,,,,,,,,,,,,,,,,,,14Aloud,001,2022_Aug_03_1602,ProdSingRedoBetween,2021.2.3,59.89322236306214,
48,0,48,0,,,,,,,,,,,,,,,,,,,,,,,,,,337.1511096000004,None,order,4,49,aloud,yellow,335.1490895000006,None,None,335.1490895000006,None,,,,,,,,,,,,,,,,,,,,,,,,,,,,,,,,,,,14Aloud,001,2022_Aug_03_1602,ProdSingRedoBetween,2021.2.3,59.89322236306214,
49,0,49,0,,,,,,,,,,,,,,,,,,,,,,,,,,339.66993230000026,None,owner,1,50,aloud,yellow,337.6627995000008,None,None,337.6627995000008,None,,,,,,,,,,,,,,,,,,,,,,,,,,,,,,,,,,,14Aloud,001,2022_Aug_03_1602,ProdSingRedoBetween,2021.2.3,59.89322236306214,
50,0,50,0,,,,,,,,,,,,,,,,,,,,,,,,,,342.1728552000004,None,population,21,51,aloud,yellow,340.17064070000015,None,None,340.17064070000015,None,,,,,,,,,,,,,,,,,,,,,,,,,,,,,,,,,,,14Aloud,001,2022_Aug_03_1602,ProdSingRedoBetween,2021.2.3,59.89322236306214,
51,0,51,0,,,,,,,,,,,,,,,,,,,,,,,,,,344.6753854000008,None,shape,29,52,aloud,blue,342.6754223000007,None,None,342.6754223000007,None,,,,,,,,,,,,,,,,,,,,,,,,,,,,,,,,,,,14Aloud,001,2022_Aug_03_1602,ProdSingRedoBetween,2021.2.3,59.89322236306214,
52,0,52,0,,,,,,,,,,,,,,,,,,,,,,,,,,347.1944007000002,None,dispute,33,53,aloud,blue,345.1832862000001,None,None,345.1832862000001,None,,,,,,,,,,,,,,,,,,,,,,,,,,,,,,,,,,,14Aloud,001,2022_Aug_03_1602,ProdSingRedoBetween,2021.2.3,59.89322236306214,
53,0,53,0,,,,,,,,,,,,,,,,,,,,,,,,,,349.69699670000045,None,court,15,54,aloud,yellow,347.6949301000004,None,None,347.6949301000004,None,,,,,,,,,,,,,,,,,,,,,,,,,,,,,,,,,,,14Aloud,001,2022_Aug_03_1602,ProdSingRedoBetween,2021.2.3,59.89322236306214,
54,0,54,0,,,,,,,,,,,,,,,,,,,,,,,,,,352.1994555000001,None,produce,69,55,aloud,red,350.1992786999999,None,None,350.1992786999999,None,,,,,,,,,,,,,,,,,,,,,,,,,,,,,,,,,,,14Aloud,001,2022_Aug_03_1602,ProdSingRedoBetween,2021.2.3,59.89322236306214,
55,0,55,0,,,,,,,,,,,,,,,,,,,,,,,,,,354.7020409000006,None,drama,49,56,aloud,blue,352.7000435,None,None,352.7000435,None,,,,,,,,,,,,,,,,,,,,,,,,,,,,,,,,,,,14Aloud,001,2022_Aug_03_1602,ProdSingRedoBetween,2021.2.3,59.89322236306214,
56,0,56,0,,,,,,,,,,,,,,,,,,,,,,,,,,357.2043876000007,None,theme,74,57,aloud,red,355.20241609999994,None,None,355.20241609999994,None,,,,,,,,,,,,,,,,,,,,,,,,,,,,,,,,,,,14Aloud,001,2022_Aug_03_1602,ProdSingRedoBetween,2021.2.3,59.89322236306214,
57,0,57,0,,,,,,,,,,,,,,,,,,,,,,,,,,359.7071349000007,None,crowd,62,58,aloud,red,357.7049119000003,None,None,357.7049119000003,None,,,,,,,,,,,,,,,,,,,,,,,,,,,,,,,,,,,14Aloud,001,2022_Aug_03_1602,ProdSingRedoBetween,2021.2.3,59.89322236306214,
58,0,58,0,,,,,,,,,,,,,,,,,,,,,,,,,,362.2091097000002,None,corner,13,59,aloud,yellow,360.20767070000056,None,None,360.20767070000056,None,,,,,,,,,,,,,,,,,,,,,,,,,,,,,,,,,,,14Aloud,001,2022_Aug_03_1602,ProdSingRedoBetween,2021.2.3,59.89322236306214,
59,0,59,0,,,,,,,,,,,,,,,,,,,,,,,,,,364.71191400000043,None,broke,12,60,aloud,yellow,362.7097394000002,None,None,362.7097394000002,None,,,,,,,,,,,,,,,,,,,,,,,,,,,,,,,,,,,14Aloud,001,2022_Aug_03_1602,ProdSingRedoBetween,2021.2.3,59.89322236306214,
60,0,60,0,,,,,,,,,,,,,,,,,,,,,,,,,,367.2144866000008,None,strength,67,61,aloud,red,365.21242110000003,None,None,365.21242110000003,None,,,,,,,,,,,,,,,,,,,,,,,,,,,,,,,,,,,14Aloud,001,2022_Aug_03_1602,ProdSingRedoBetween,2021.2.3,59.89322236306214,
61,0,61,0,,,,,,,,,,,,,,,,,,,,,,,,,,369.71660190000057,None,citizen,3,62,aloud,yellow,367.7163457000006,None,None,367.7163457000006,None,,,,,,,,,,,,,,,,,,,,,,,,,,,,,,,,,,,14Aloud,001,2022_Aug_03_1602,ProdSingRedoBetween,2021.2.3,59.89322236306214,
62,0,62,0,,,,,,,,,,,,,,,,,,,,,,,,,,372.21941920000063,None,tragedy,17,63,aloud,yellow,370.21731010000076,None,None,370.21731010000076,None,,,,,,,,,,,,,,,,,,,,,,,,,,,,,,,,,,,14Aloud,001,2022_Aug_03_1602,ProdSingRedoBetween,2021.2.3,59.89322236306214,
63,0,63,0,,,,,,,,,,,,,,,,,,,,,,,,,,374.7385828000006,None,provision,87,64,aloud,red,372.73101750000023,None,None,372.73101750000023,None,,,,,,,,,,,,,,,,,,,,,,,,,,,,,,,,,,,14Aloud,001,2022_Aug_03_1602,ProdSingRedoBetween,2021.2.3,59.89322236306214,
64,0,64,0,,,,,,,,,,,,,,,,,,,,,,,,,,377.2410909,None,solution,57,65,aloud,blue,375.2419507000004,None,None,375.2419507000004,None,,,,,,,,,,,,,,,,,,,,,,,,,,,,,,,,,,,14Aloud,001,2022_Aug_03_1602,ProdSingRedoBetween,2021.2.3,59.89322236306214,
65,0,65,0,,,,,,,,,,,,,,,,,,,,,,,,,,379.7436071000002,None,comfort,42,66,aloud,blue,377.74351170000045,None,None,377.74351170000045,None,,,,,,,,,,,,,,,,,,,,,,,,,,,,,,,,,,,14Aloud,001,2022_Aug_03_1602,ProdSingRedoBetween,2021.2.3,59.89322236306214,
66,0,66,0,,,,,,,,,,,,,,,,,,,,,,,,,,382.2461374000004,None,range,41,67,aloud,blue,380.24409130000004,None,None,380.24409130000004,None,,,,,,,,,,,,,,,,,,,,,,,,,,,,,,,,,,,14Aloud,001,2022_Aug_03_1602,ProdSingRedoBetween,2021.2.3,59.89322236306214,
67,0,67,0,,,,,,,,,,,,,,,,,,,,,,,,,,384.74858050000057,None,region,56,68,aloud,blue,382.7467237999999,None,None,382.7467237999999,None,,,,,,,,,,,,,,,,,,,,,,,,,,,,,,,,,,,14Aloud,001,2022_Aug_03_1602,ProdSingRedoBetween,2021.2.3,59.89322236306214,
68,0,68,0,,,,,,,,,,,,,,,,,,,,,,,,,,387.2510987000005,None,design,22,69,aloud,yellow,385.24974290000046,None,None,385.24974290000046,None,,,,,,,,,,,,,,,,,,,,,,,,,,,,,,,,,,,14Aloud,001,2022_Aug_03_1602,ProdSingRedoBetween,2021.2.3,59.89322236306214,
69,0,69,0,,,,,,,,,,,,,,,,,,,,,,,,,,389.75360440000077,None,smell,43,70,aloud,blue,387.75166080000054,None,None,387.75166080000054,None,,,,,,,,,,,,,,,,,,,,,,,,,,,,,,,,,,,14Aloud,001,2022_Aug_03_1602,ProdSingRedoBetween,2021.2.3,59.89322236306214,
70,0,70,0,,,,,,,,,,,,,,,,,,,,,,,,,,392.25610400000005,None,bright,8,71,aloud,yellow,390.2540974000003,None,None,390.2540974000003,None,,,,,,,,,,,,,,,,,,,,,,,,,,,,,,,,,,,14Aloud,001,2022_Aug_03_1602,ProdSingRedoBetween,2021.2.3,59.89322236306214,
71,0,71,0,,,,,,,,,,,,,,,,,,,,,,,,,,394.7583157000008,None,patient,39,72,aloud,blue,392.75919520000025,None,None,392.75919520000025,None,,,,,,,,,,,,,,,,,,,,,,,,,,,,,,,,,,,14Aloud,001,2022_Aug_03_1602,ProdSingRedoBetween,2021.2.3,59.89322236306214,
72,0,72,0,,,,,,,,,,,,,,,,,,,,,,,,,,397.27786689999994,None,object,38,73,aloud,blue,395.2633831000003,None,None,395.2633831000003,None,,,,,,,,,,,,,,,,,,,,,,,,,,,,,,,,,,,14Aloud,001,2022_Aug_03_1602,ProdSingRedoBetween,2021.2.3,59.89322236306214,
73,0,73,0,,,,,,,,,,,,,,,,,,,,,,,,,,399.7802388,None,store,27,74,aloud,yellow,397.7803077000008,None,None,397.7803077000008,None,,,,,,,,,,,,,,,,,,,,,,,,,,,,,,,,,,,14Aloud,001,2022_Aug_03_1602,ProdSingRedoBetween,2021.2.3,59.89322236306214,
74,0,74,0,,,,,,,,,,,,,,,,,,,,,,,,,,402.28289160000077,None,drove,10,75,aloud,yellow,400.28092220000053,None,None,400.28092220000053,None,,,,,,,,,,,,,,,,,,,,,,,,,,,,,,,,,,,14Aloud,001,2022_Aug_03_1602,ProdSingRedoBetween,2021.2.3,59.89322236306214,
75,0,75,0,,,,,,,,,,,,,,,,,,,,,,,,,,404.7853287000007,None,commercial,68,76,aloud,red,402.7855668000002,None,None,402.7855668000002,None,,,,,,,,,,,,,,,,,,,,,,,,,,,,,,,,,,,14Aloud,001,2022_Aug_03_1602,ProdSingRedoBetween,2021.2.3,59.89322236306214,
76,0,76,0,,,,,,,,,,,,,,,,,,,,,,,,,,407.28787140000077,None,beginning,35,77,aloud,blue,405.28581960000065,None,None,405.28581960000065,None,,,,,,,,,,,,,,,,,,,,,,,,,,,,,,,,,,,14Aloud,001,2022_Aug_03_1602,ProdSingRedoBetween,2021.2.3,59.89322236306214,
77,0,77,0,,,,,,,,,,,,,,,,,,,,,,,,,,409.79036300000007,None,engineer,77,78,aloud,red,407.790121,None,None,407.790121,None,,,,,,,,,,,,,,,,,,,,,,,,,,,,,,,,,,,14Aloud,001,2022_Aug_03_1602,ProdSingRedoBetween,2021.2.3,59.89322236306214,
78,0,78,0,,,,,,,,,,,,,,,,,,,,,,,,,,412.30947600000036,None,profession,54,79,aloud,blue,410.2941146000003,None,None,410.2941146000003,None,,,,,,,,,,,,,,,,,,,,,,,,,,,,,,,,,,,14Aloud,001,2022_Aug_03_1602,ProdSingRedoBetween,2021.2.3,59.89322236306214,
79,0,79,0,,,,,,,,,,,,,,,,,,,,,,,,,,414.8120080000008,None,finish,36,80,aloud,blue,412.81122200000027,None,None,412.81122200000027,None,,,,,,,,,,,,,,,,,,,,,,,,,,,,,,,,,,,14Aloud,001,2022_Aug_03_1602,ProdSingRedoBetween,2021.2.3,59.89322236306214,
80,0,80,0,,,,,,,,,,,,,,,,,,,,,,,,,,417.31435130000045,None,safety,31,81,aloud,blue,415.3142065000002,None,None,415.3142065000002,None,,,,,,,,,,,,,,,,,,,,,,,,,,,,,,,,,,,14Aloud,001,2022_Aug_03_1602,ProdSingRedoBetween,2021.2.3,59.89322236306214,
81,0,81,0,,,,,,,,,,,,,,,,,,,,,,,,,,419.81706230000054,None,mankind,34,82,aloud,blue,417.81750379999994,None,None,417.81750379999994,None,,,,,,,,,,,,,,,,,,,,,,,,,,,,,,,,,,,14Aloud,001,2022_Aug_03_1602,ProdSingRedoBetween,2021.2.3,59.89322236306214,
82,0,82,0,,,,,,,,,,,,,,,,,,,,,,,,,,422.3362579000004,None,platform,73,83,aloud,red,420.3209131000003,None,None,420.3209131000003,None,,,,,,,,,,,,,,,,,,,,,,,,,,,,,,,,,,,14Aloud,001,2022_Aug_03_1602,ProdSingRedoBetween,2021.2.3,59.89322236306214,
83,0,83,0,,,,,,,,,,,,,,,,,,,,,,,,,,424.8551001000005,None,level,48,84,aloud,blue,422.8396216000001,None,None,422.8396216000001,None,,,,,,,,,,,,,,,,,,,,,,,,,,,,,,,,,,,14Aloud,001,2022_Aug_03_1602,ProdSingRedoBetween,2021.2.3,59.89322236306214,
84,0,84,0,,,,,,,,,,,,,,,,,,,,,,,,,,427.3578864000001,None,damage,83,85,aloud,red,425.35559360000025,None,None,425.35559360000025,None,,,,,,,,,,,,,,,,,,,,,,,,,,,,,,,,,,,14Aloud,001,2022_Aug_03_1602,ProdSingRedoBetween,2021.2.3,59.89322236306214,
85,0,85,0,,,,,,,,,,,,,,,,,,,,,,,,,,429.86033430000043,None,spoke,6,86,aloud,yellow,427.8583993000002,None,None,427.8583993000002,None,,,,,,,,,,,,,,,,,,,,,,,,,,,,,,,,,,,14Aloud,001,2022_Aug_03_1602,ProdSingRedoBetween,2021.2.3,59.89322236306214,
86,0,86,0,,,,,,,,,,,,,,,,,,,,,,,,,,432.36307940000006,None,degree,52,87,aloud,blue,430.3624537000005,None,None,430.3624537000005,None,,,,,,,,,,,,,,,,,,,,,,,,,,,,,,,,,,,14Aloud,001,2022_Aug_03_1602,ProdSingRedoBetween,2021.2.3,59.89322236306214,
87,0,87,0,,,,,,,,,,,,,,,,,,,,,,,,,,434.8653776000001,None,color,78,88,aloud,red,432.8640890000006,None,None,432.8640890000006,None,,,,,,,,,,,,,,,,,,,,,,,,,,,,,,,,,,,14Aloud,001,2022_Aug_03_1602,ProdSingRedoBetween,2021.2.3,59.89322236306214,
88,0,88,0,,,,,,,,,,,,,,,,,,,,,,,,,,437.3679555000008,None,guard,19,89,aloud,yellow,435.36568330000046,None,None,435.36568330000046,None,,,,,,,,,,,,,,,,,,,,,,,,,,,,,,,,,,,14Aloud,001,2022_Aug_03_1602,ProdSingRedoBetween,2021.2.3,59.89322236306214,
89,0,89,0,,,,,,,,,,,,,,,,,,,,,,,,,,439.8872278000008,None,conference,70,90,aloud,red,437.87182200000007,None,None,437.87182200000007,None,,,,,,,,,,,,,,,,,,,,,,,,,,,,,,,,,,,14Aloud,001,2022_Aug_03_1602,ProdSingRedoBetween,2021.2.3,59.89322236306214,
,,,,,,,,,,,,,,,,,,,,,,,,,,,,,,,,,,,,,,,,,440.3879435000008,None,k,104.88520599999993,440.3879435000008,None,,,,,,,,,,,,,,,,,,,,,,,,,,,,,14Aloud,001,2022_Aug_03_1602,ProdSingRedoBetween,2021.2.3,59.89322236306214,
,,,,0,0,0,0,,,,,,,,,,,,,,,,,,,,,,570.6009508000006,None,,,,,,,,,,,,,,,,,harmony,89,1,aloud,old,red,545.8034107000003,None,545.8034107000003,None,4,16.229564300000675,545.8034107000003,None,16.229564300000675,562.0603040000005,None,562.5686292,None,562.5686292,None,n,8.008423799999946,562.5686292,None,8.008423799999946,,,14Aloud,001,2022_Aug_03_1602,ProdSingRedoBetween,2021.2.3,59.89322236306214,
,,,,1,0,1,0,,,,,,,,,,,,,,,,,,,,,,587.5846125000007,None,,,,,,,,,,,,,,,,,session,120,2,aloud,new,null,571.1108142000003,None,571.1108142000003,None,1,12.930253399999856,571.1108142000003,None,12.930253399999856,584.0656833000003,None,584.5691246000006,None,584.5691246000006,None,n,2.9999331999997594,584.5691246000006,None,2.9999331999997594,,,14Aloud,001,2022_Aug_03_1602,ProdSingRedoBetween,2021.2.3,59.89322236306214,
,,,,2,0,2,0,,,,,,,,,,,,,,,,,,,,,,592.8399086,None,,,,,,,,,,,,,,,,,beauty,156,3,aloud,new,null,588.0957275000001,None,588.0957275000001,None,1,3.169328800000585,588.0957275000001,None,3.169328800000585,591.2892298000006,None,591.7942800000001,None,591.7942800000001,None,n,1.0147084999998697,591.7942800000001,None,1.0147084999998697,,,14Aloud,001,2022_Aug_03_1602,ProdSingRedoBetween,2021.2.3,59.89322236306214,
,,,,3,0,3,0,,,,,,,,,,,,,,,,,,,,,,597.0441473999999,None,,,,,,,,,,,,,,,,,quiet,132,4,aloud,new,null,593.3509885000003,None,593.3509885000003,None,3,2.0660742000000027,593.3509885000003,None,2.0660742000000027,595.4437408000003,None,595.9512324000007,None,595.9512324000007,None,f,1.0739805000002889,595.9512324000007,None,1.0739805000002889,,,14Aloud,001,2022_Aug_03_1602,ProdSingRedoBetween,2021.2.3,59.89322236306214,
,,,,4,0,4,0,,,,,,,,,,,,,,,,,,,,,,602.5996449000004,None,,,,,,,,,,,,,,,,,appeal,136,5,aloud,new,null,597.5520038000004,None,597.5520038000004,None,1,3.7369638000000123,597.5520038000004,None,3.7369638000000123,601.3165937000003,None,601.8180477000005,None,601.8180477000005,None,n,0.7590105999997832,601.8180477000005,None,0.7590105999997832,,,14Aloud,001,2022_Aug_03_1602,ProdSingRedoBetween,2021.2.3,59.89322236306214,
,,,,5,0,5,0,,,,,,,,,,,,,,,,,,,,,,605.9209212000005,None,,,,,,,,,,,,,,,,,people,82,6,aloud,old,red,603.1089723000005,None,603.1089723000005,None,1,1.8440276999999696,603.1089723000005,None,1.8440276999999696,604.9706628000004,None,605.4885049000004,None,605.4885049000004,None,n,0.4008123000003252,605.4885049000004,None,0.4008123000003252,,,14Aloud,001,2022_Aug_03_1602,ProdSingRedoBetween,2021.2.3,59.89322236306214,
,,,,6,0,6,0,,,,,,,,,,,,,,,,,,,,,,608.8225381000002,None,,,,,,,,,,,,,,,,,swift,137,7,aloud,new,null,606.4321608,None,606.4321608,None,1,1.4728944000007687,606.4321608,None,1.4728944000007687,607.9228824000002,None,608.4248970000008,None,608.4248970000008,None,n,0.368157699999756,608.4248970000008,None,0.368157699999756,,,14Aloud,001,2022_Aug_03_1602,ProdSingRedoBetween,2021.2.3,59.89322236306214,
,,,,7,0,7,0,,,,,,,,,,,,,,,,,,,,,,612.1925266000007,None,,,,,,,,,,,,,,,,,interview,124,8,aloud,new,null,609.3345696000006,None,609.3345696000006,None,1,2.090411099999983,609.3345696000006,None,2.090411099999983,611.4431295000004,None,611.9444206000007,None,611.9444206000007,None,n,0.22467990000041027,611.9444206000007,None,0.22467990000041027,,,14Aloud,001,2022_Aug_03_1602,ProdSingRedoBetween,2021.2.3,59.89322236306214,
,,,,8,0,8,0,,,,,,,,,,,,,,,,,,,,,,622.6363167,None,,,,,,,,,,,,,,,,,guard,19,9,aloud,old,yellow,612.7000884000008,None,612.7000884000008,None,6,4.404946899999231,612.7000884000008,None,4.404946899999231,617.1307365000002,None,617.6311691000001,None,617.6311691000001,None,r,4.977865700000621,617.6311691000001,None,4.977865700000621,,,14Aloud,001,2022_Aug_03_1602,ProdSingRedoBetween,2021.2.3,59.89322236306214,
,,,,9,0,9,0,,,,,,,,,,,,,,,,,,,,,,627.5745969,None,,,,,,,,,,,,,,,,,contract,168,10,aloud,new,null,623.1460404,None,623.1460404,None,3,2.639028999999937,623.1460404,None,2.639028999999937,625.8078331000006,None,626.3101644000008,None,626.3101644000008,None,n,1.2429097999993246,626.3101644000008,None,1.2429097999993246,,,14Aloud,001,2022_Aug_03_1602,ProdSingRedoBetween,2021.2.3,59.89322236306214,
,,,,10,0,10,0,,,,,,,,,,,,,,,,,,,,,,631.7995692000004,None,,,,,,,,,,,,,,,,,danger,123,11,aloud,new,null,628.0812998000001,None,628.0812998000001,None,1,2.9917727000001832,628.0812998000001,None,2.9917727000001832,631.0946739000001,None,631.6003613000003,None,631.6003613000003,None,n,0.17675679999956628,631.6003613000003,None,0.17675679999956628,,,14Aloud,001,2022_Aug_03_1602,ProdSingRedoBetween,2021.2.3,59.89322236306214,
,,,,11,0,11,0,,,,,,,,,,,,,,,,,,,,,,638.0850928,None,,,,,,,,,,,,,,,,,patient,39,12,aloud,old,blue,632.3173513000002,None,632.3173513000002,None,6,3.7637070000000676,632.3173513000002,None,3.7637070000000676,636.1006954000004,None,636.6069079000008,None,636.6069079000008,None,r,1.4583403999995426,636.6069079000008,None,1.4583403999995426,,,14Aloud,001,2022_Aug_03_1602,ProdSingRedoBetween,2021.2.3,59.89322236306214,
,,,,12,0,12,0,,,,,,,,,,,,,,,,,,,,,,643.1404143,None,,,,,,,,,,,,,,,,,election,46,13,aloud,old,blue,638.5883593000008,None,638.5883593000008,None,6,3.060729199999514,638.5883593000008,None,3.060729199999514,641.6738452,None,642.1903167,None,642.1903167,None,f,0.9308600000003935,642.1903167,None,0.9308600000003935,,,14Aloud,001,2022_Aug_03_1602,ProdSingRedoBetween,2021.2.3,59.89322236306214,
,,,,13,0,13,0,,,,,,,,,,,,,,,,,,,,,,647.2609118,None,,,,,,,,,,,,,,,,,region,56,14,aloud,old,blue,643.6405882000008,None,643.6405882000008,None,5,2.336489899999833,643.6405882000008,None,2.336489899999833,645.9928212000004,None,646.4976414000002,None,646.4976414000002,None,f,0.7434257999993861,646.4976414000002,None,0.7434257999993861,,,14Aloud,001,2022_Aug_03_1602,ProdSingRedoBetween,2021.2.3,59.89322236306214,
,,,,14,0,14,0,,,,,,,,,,,,,,,,,,,,,,652.0490651,None,,,,,,,,,,,,,,,,,pattern,7,15,aloud,old,yellow,647.7678464,None,647.7678464,None,3,2.45722189999924,647.7678464,None,2.45722189999924,650.248396,None,650.7499469000004,None,650.7499469000004,None,n,1.2751508999999714,650.7499469000004,None,1.2751508999999714,,,14Aloud,001,2022_Aug_03_1602,ProdSingRedoBetween,2021.2.3,59.89322236306214,
,,,,15,0,15,0,,,,,,,,,,,,,,,,,,,,,,655.4357410000002,None,,,,,,,,,,,,,,,,,level,48,16,aloud,old,blue,652.5600947000003,None,652.5600947000003,None,1,1.8969917999993413,652.5600947000003,None,1.8969917999993413,654.4893079000003,None,655.0021245000007,None,655.0021245000007,None,n,0.4148784999997588,655.0021245000007,None,0.4148784999997588,,,14Aloud,001,2022_Aug_03_1602,ProdSingRedoBetween,2021.2.3,59.89322236306214,
,,,,16,0,16,0,,,,,,,,,,,,,,,,,,,,,,658.2385701000003,None,,,,,,,,,,,,,,,,,alert,160,17,aloud,new,null,655.9378726000004,None,655.9378726000004,None,1,1.3592427000003227,655.9378726000004,None,1.3592427000003227,657.3231961000001,None,657.8383014000001,None,657.8383014000001,None,n,0.37882100000024366,657.8383014000001,None,0.37882100000024366,,,14Aloud,001,2022_Aug_03_1602,ProdSingRedoBetween,2021.2.3,59.89322236306214,
,,,,17,0,17,0,,,,,,,,,,,,,,,,,,,,,,661.4084085000004,None,,,,,,,,,,,,,,,,,comfort,42,18,aloud,old,blue,658.7389882000007,None,658.7389882000007,None,1,1.701997900000606,658.7389882000007,None,1.701997900000606,660.4587122000003,None,660.9619494000008,None,660.9619494000008,None,n,0.4231640999996671,660.9619494000008,None,0.4231640999996671,,,14Aloud,001,2022_Aug_03_1602,ProdSingRedoBetween,2021.2.3,59.89322236306214,
,,,,18,0,18,0,,,,,,,,,,,,,,,,,,,,,,664.1166800999999,None,,,,,,,,,,,,,,,,,dream,128,19,aloud,new,null,661.9162711000008,None,661.9162711000008,None,2,1.3167760000005728,661.9162711000008,None,1.3167760000005728,663.2609275000004,None,663.7648974000003,None,663.7648974000003,None,n,0.3244310999998561,663.7648974000003,None,0.3244310999998561,,,14Aloud,001,2022_Aug_03_1602,ProdSingRedoBetween,2021.2.3,59.89322236306214,
,,,,19,0,19,0,,,,,,,,,,,,,,,,,,,,,,670.4674397000008,None,,,,,,,,,,,,,,,,,range,41,20,aloud,old,blue,664.6378594000007,None,664.6378594000007,None,3,3.283179399999426,664.6378594000007,None,3.283179399999426,667.9483138000005,None,668.4522251000008,None,668.4522251000008,None,f,1.996797300000253,668.4522251000008,None,1.996797300000253,,,14Aloud,001,2022_Aug_03_1602,ProdSingRedoBetween,2021.2.3,59.89322236306214,
,,,,20,0,20,0,,,,,,,,,,,,,,,,,,,,,,674.6716467000006,None,,,,,,,,,,,,,,,,,personnel,16,21,aloud,old,yellow,670.9784484000002,None,670.9784484000002,None,6,2.262641999999687,670.9784484000002,None,2.262641999999687,673.2713319000004,None,673.7709018000005,None,673.7709018000005,None,r,0.8782160999999178,673.7709018000005,None,0.8782160999999178,,,14Aloud,001,2022_Aug_03_1602,ProdSingRedoBetween,2021.2.3,59.89322236306214,
,,,,21,0,21,0,,,,,,,,,,,,,,,,,,,,,,678.1250990000008,None,,,,,,,,,,,,,,,,,discovery,61,22,aloud,old,red,675.1907718000002,None,675.1907718000002,None,5,2.026467199999388,675.1907718000002,None,2.026467199999388,677.2537322000007,None,677.7641620000004,None,677.7641620000004,None,f,0.34095149999939167,677.7641620000004,None,0.34095149999939167,,,14Aloud,001,2022_Aug_03_1602,ProdSingRedoBetween,2021.2.3,59.89322236306214,
,,,,22,0,22,0,,,,,,,,,,,,,,,,,,,,,,682.4812595000003,None,,,,,,,,,,,,,,,,,industry,134,23,aloud,new,null,678.6287080000002,None,678.6287080000002,None,1,2.972374099999797,678.6287080000002,None,2.972374099999797,681.6294915000008,None,682.1394689000008,None,682.1394689000008,None,n,0.31754349999937403,682.1394689000008,None,0.31754349999937403,,,14Aloud,001,2022_Aug_03_1602,ProdSingRedoBetween,2021.2.3,59.89322236306214,
,,,,23,0,23,0,,,,,,,,,,,,,,,,,,,,,,687.4510319000001,None,,,,,,,,,,,,,,,,,member,173,24,aloud,new,null,682.9966114000008,None,682.9966114000008,None,1,3.308481500000198,682.9966114000008,None,3.308481500000198,686.3358076000004,None,686.8536224,None,686.8536224,None,n,0.5714656999998624,686.8536224,None,0.5714656999998624,,,14Aloud,001,2022_Aug_03_1602,ProdSingRedoBetween,2021.2.3,59.89322236306214,
,,,,24,0,24,0,,,,,,,,,,,,,,,,,,,,,,696.9973636000004,None,,,,,,,,,,,,,,,,,payment,115,25,aloud,new,null,687.9674609000003,None,687.9674609000003,None,1,8.265608499999871,687.9674609000003,None,8.265608499999871,696.2606878000006,None,696.7605117000003,None,696.7605117000003,None,n,0.2087214999992284,696.7605117000003,None,0.2087214999992284,,,14Aloud,001,2022_Aug_03_1602,ProdSingRedoBetween,2021.2.3,59.89322236306214,
,,,,25,0,25,0,,,,,,,,,,,,,,,,,,,,,,699.5594581000005,None,,,,,,,,,,,,,,,,,position,2,26,aloud,old,yellow,697.5121865000001,None,697.5121865000001,None,1,1.224883800000498,697.5121865000001,None,1.224883800000498,698.7664268000008,None,699.2841445000004,None,699.2841445000004,None,n,0.24498529999982566,699.2841445000004,None,0.24498529999982566,,,14Aloud,001,2022_Aug_03_1602,ProdSingRedoBetween,2021.2.3,59.89322236306214,
,,,,26,0,26,0,,,,,,,,,,,,,,,,,,,,,,703.8341380000002,None,,,,,,,,,,,,,,,,,match,20,27,aloud,old,yellow,700.0651153000008,None,700.0651153000008,None,1,2.2241227000004073,700.0651153000008,None,2.2241227000004073,702.3254341000002,None,702.8345750000008,None,702.8345750000008,None,n,0.9824895000001561,702.8345750000008,None,0.9824895000001561,,,14Aloud,001,2022_Aug_03_1602,ProdSingRedoBetween,2021.2.3,59.89322236306214,
,,,,27,0,27,0,,,,,,,,,,,,,,,,,,,,,,706.4034084000004,None,,,,,,,,,,,,,,,,,straight,107,28,aloud,new,null,704.3495998000008,None,704.3495998000008,None,1,1.3793840999996974,704.3495998000008,None,1.3793840999996974,705.7585548000006,None,706.2700956000008,None,706.2700956000008,None,n,0.10702440000022762,706.2700956000008,None,0.10702440000022762,,,14Aloud,001,2022_Aug_03_1602,ProdSingRedoBetween,2021.2.3,59.89322236306214,
,,,,28,0,28,0,,,,,,,,,,,,,,,,,,,,,,709.4076332000004,None,,,,,,,,,,,,,,,,,agreement,75,29,aloud,old,red,706.9097078000004,None,706.9097078000004,None,6,1.5713636000000406,706.9097078000004,None,1.5713636000000406,708.5064549000008,None,709.0124849000003,None,709.0124849000003,None,r,0.3726720999993631,709.0124849000003,None,0.3726720999993631,,,14Aloud,001,2022_Aug_03_1602,ProdSingRedoBetween,2021.2.3,59.89322236306214,
,,,,29,0,29,0,,,,,,,,,,,,,,,,,,,,,,712.5594937000005,None,,,,,,,,,,,,,,,,,public,158,30,aloud,new,null,709.9100256000002,None,709.9100256000002,None,2,1.7150111999999353,709.9100256000002,None,1.7150111999999353,711.6441843000002,None,712.1663942000005,None,712.1663942000005,None,n,0.36272009999993315,712.1663942000005,None,0.36272009999993315,,,14Aloud,001,2022_Aug_03_1602,ProdSingRedoBetween,2021.2.3,59.89322236306214,
,,,,30,0,30,0,,,,,,,,,,,,,,,,,,,,,,715.4789151000004,None,,,,,,,,,,,,,,,,,month,53,31,aloud,old,blue,713.0627653000001,None,713.0627653000001,None,1,1.634439100000236,713.0627653000001,None,1.634439100000236,714.7283875000003,None,715.2313803000006,None,715.2313803000006,None,n,0.22572370000034425,715.2313803000006,None,0.22572370000034425,,,14Aloud,001,2022_Aug_03_1602,ProdSingRedoBetween,2021.2.3,59.89322236306214,
,,,,31,0,31,0,,,,,,,,,,,,,,,,,,,,,,720.8511637000001,None,,,,,,,,,,,,,,,,,route,5,32,aloud,old,yellow,715.9879477000004,None,715.9879477000004,None,6,3.4371428000004016,715.9879477000004,None,3.4371428000004016,719.4498906000008,None,719.9504130000005,None,719.9504130000005,None,r,0.8746369000000414,719.9504130000005,None,0.8746369000000414,,,14Aloud,001,2022_Aug_03_1602,ProdSingRedoBetween,2021.2.3,59.89322236306214,
,,,,32,0,32,0,,,,,,,,,,,,,,,,,,,,,,724.0877408000006,None,,,,,,,,,,,,,,,,,population,21,33,aloud,old,yellow,721.3612694000003,None,721.3612694000003,None,4,1.9038537000005817,721.3612694000003,None,1.9038537000005817,723.2907020000002,None,723.8140170000006,None,723.8140170000006,None,f,0.2511720000002242,723.8140170000006,None,0.2511720000002242,,,14Aloud,001,2022_Aug_03_1602,ProdSingRedoBetween,2021.2.3,59.89322236306214,
,,,,33,0,33,0,,,,,,,,,,,,,,,,,,,,,,730.7610665000002,None,,,,,,,,,,,,,,,,,report,154,34,aloud,new,null,724.5989741000003,None,724.5989741000003,None,1,5.226049500000045,724.5989741000003,None,5.226049500000045,729.8476698000004,None,730.3605544000002,None,730.3605544000002,None,n,0.37656299999980547,730.3605544000002,None,0.37656299999980547,,,14Aloud,001,2022_Aug_03_1602,ProdSingRedoBetween,2021.2.3,59.89322236306214,
,,,,34,0,34,0,,,,,,,,,,,,,,,,,,,,,,734.8818306000003,None,,,,,,,,,,,,,,,,,sweet,51,35,aloud,old,blue,731.2711131000005,None,731.2711131000005,None,1,2.233994399999574,731.2711131000005,None,2.233994399999574,733.5318450000004,None,734.0359771000003,None,734.0359771000003,None,n,0.8212332000002789,734.0359771000003,None,0.8212332000002789,,,14Aloud,001,2022_Aug_03_1602,ProdSingRedoBetween,2021.2.3,59.89322236306214,
,,,,35,0,35,0,,,,,,,,,,,,,,,,,,,,,,738.3519476000001,None,,,,,,,,,,,,,,,,,thing,79,36,aloud,old,red,735.4040527000006,None,735.4040527000006,None,4,1.5810338999999658,735.4040527000006,None,1.5810338999999658,737.0006920000005,None,737.5025171000007,None,737.5025171000007,None,f,0.8265992999995433,737.5025171000007,None,0.8265992999995433,,,14Aloud,001,2022_Aug_03_1602,ProdSingRedoBetween,2021.2.3,59.89322236306214,
,,,,36,0,36,0,,,,,,,,,,,,,,,,,,,,,,741.8723168000006,None,,,,,,,,,,,,,,,,,career,18,37,aloud,old,yellow,738.8585779000005,None,738.8585779000005,None,6,2.1586149999993722,738.8585779000005,None,2.1586149999993722,741.0430892000004,None,741.5553010000003,None,741.5553010000003,None,r,0.28583849999995437,741.5553010000003,None,0.28583849999995437,,,14Aloud,001,2022_Aug_03_1602,ProdSingRedoBetween,2021.2.3,59.89322236306214,
,,,,37,0,37,0,,,,,,,,,,,,,,,,,,,,,,747.3944408000007,None,,,,,,,,,,,,,,,,,subject,159,38,aloud,new,null,742.3864775000002,None,742.3864775000002,None,3,3.1025282999999035,742.3864775000002,None,3.1025282999999035,745.5120297000003,None,746.0263595000006,None,746.0263595000006,None,f,1.3507875000004788,746.0263595000006,None,1.3507875000004788,,,14Aloud,001,2022_Aug_03_1602,ProdSingRedoBetween,2021.2.3,59.89322236306214,
,,,,38,0,38,0,,,,,,,,,,,,,,,,,,,,,,751.565208,None,,,,,,,,,,,,,,,,,captain,157,39,aloud,new,null,747.9000327000003,None,747.9000327000003,None,1,2.1492318999999043,747.9000327000003,None,2.1492318999999043,750.0874630000008,None,750.5991424000003,None,750.5991424000003,None,n,0.9459609999994427,750.5991424000003,None,0.9459609999994427,,,14Aloud,001,2022_Aug_03_1602,ProdSingRedoBetween,2021.2.3,59.89322236306214,
,,,,39,0,39,0,,,,,,,,,,,,,,,,,,,,,,757.3209092000006,None,,,,,,,,,,,,,,,,,reach,130,40,aloud,new,null,752.0752062000001,None,752.0752062000001,None,3,4.461830700000064,752.0752062000001,None,4.461830700000064,756.5532582000005,None,757.0583405000007,None,757.0583405000007,None,f,0.246847099999286,757.0583405000007,None,0.246847099999286,,,14Aloud,001,2022_Aug_03_1602,ProdSingRedoBetween,2021.2.3,59.89322236306214,
,,,,40,0,40,0,,,,,,,,,,,,,,,,,,,,,,760.2570357000004,None,,,,,,,,,,,,,,,,,community,165,41,aloud,new,null,757.8351661000006,None,757.8351661000006,None,3,1.5580117999998038,757.8351661000006,None,1.5580117999998038,759.4373193000001,None,759.9401331000008,None,759.9401331000008,None,f,0.30083469999954104,759.9401331000008,None,0.30083469999954104,,,14Aloud,001,2022_Aug_03_1602,ProdSingRedoBetween,2021.2.3,59.89322236306214,
,,,,41,0,41,0,,,,,,,,,,,,,,,,,,,,,,763.6635291000002,None,,,,,,,,,,,,,,,,,revolution,116,42,aloud,new,null,760.7704825999999,None,760.7704825999999,None,1,2.1907443000000058,760.7704825999999,None,2.1907443000000058,762.9852469000007,None,763.4938582000004,None,763.4938582000004,None,n,0.14753469999959634,763.4938582000004,None,0.14753469999959634,,,14Aloud,001,2022_Aug_03_1602,ProdSingRedoBetween,2021.2.3,59.89322236306214,
,,,,42,0,42,0,,,,,,,,,,,,,,,,,,,,,,767.6038458000003,None,,,,,,,,,,,,,,,,,crisis,47,43,aloud,old,blue,764.1883232,None,764.1883232,None,6,1.6368037000002005,764.1883232,None,1.6368037000002005,765.8647936000007,None,766.3875038000006,None,766.3875038000006,None,r,1.1896422999998322,766.3875038000006,None,1.1896422999998322,,,14Aloud,001,2022_Aug_03_1602,ProdSingRedoBetween,2021.2.3,59.89322236306214,
,,,,43,0,43,0,,,,,,,,,,,,,,,,,,,,,,771.2682301000004,None,,,,,,,,,,,,,,,,,watch,85,44,aloud,old,red,768.1159477000001,None,768.1159477000001,None,5,2.0931853000001865,768.1159477000001,None,2.0931853000001865,770.2350882000001,None,770.7342718,None,770.7342718,None,f,0.514743400000043,770.7342718,None,0.514743400000043,,,14Aloud,001,2022_Aug_03_1602,ProdSingRedoBetween,2021.2.3,59.89322236306214,
,,,,44,0,44,0,,,,,,,,,,,,,,,,,,,,,,774.9385067000003,None,,,,,,,,,,,,,,,,,literature,94,45,aloud,new,null,771.7688219000001,None,771.7688219000001,None,2,2.5283273000004556,771.7688219000001,None,2.5283273000004556,774.3210557000002,None,774.8243478000004,None,774.8243478000004,None,n,0.08877829999983078,774.8243478000004,None,0.08877829999983078,,,14Aloud,001,2022_Aug_03_1602,ProdSingRedoBetween,2021.2.3,59.89322236306214,
,,,,45,0,45,0,,,,,,,,,,,,,,,,,,,,,,779.3929679000003,None,,,,,,,,,,,,,,,,,front,91,46,aloud,new,null,775.4475957000004,None,775.4475957000004,None,1,2.161461899999267,775.4475957000004,None,2.161461899999267,777.6295871000002,None,778.1435649000005,None,778.1435649000005,None,n,1.2255529999993087,778.1435649000005,None,1.2255529999993087,,,14Aloud,001,2022_Aug_03_1602,ProdSingRedoBetween,2021.2.3,59.89322236306214,
,,,,46,0,46,0,,,,,,,,,,,,,,,,,,,,,,782.6189359,None,,,,,,,,,,,,,,,,,tough,100,47,aloud,new,null,779.9012838000008,None,779.9012838000008,None,1,1.8358354000001782,779.9012838000008,None,1.8358354000001782,781.7629423000008,None,782.2651185000004,None,782.2651185000004,None,n,0.3201724999998987,782.2651185000004,None,0.3201724999998987,,,14Aloud,001,2022_Aug_03_1602,ProdSingRedoBetween,2021.2.3,59.89322236306214,
,,,,47,0,47,0,,,,,,,,,,,,,,,,,,,,,,785.1486441000006,None,,,,,,,,,,,,,,,,,cousin,153,48,aloud,new,null,783.1404762000002,None,783.1404762000002,None,1,1.2206555000002481,783.1404762000002,None,1.2206555000002481,784.3829634000003,None,784.9009180000003,None,784.9009180000003,None,n,0.22022180000021763,784.9009180000003,None,0.22022180000021763,,,14Aloud,001,2022_Aug_03_1602,ProdSingRedoBetween,2021.2.3,59.89322236306214,
,,,,48,0,48,0,,,,,,,,,,,,,,,,,,,,,,788.3851143000002,None,,,,,,,,,,,,,,,,,measure,139,49,aloud,new,null,785.6498754000004,None,785.6498754000004,None,1,1.9591932000002998,785.6498754000004,None,1.9591932000002998,787.6381287000004,None,788.1518719000005,None,788.1518719000005,None,n,0.21717650000027788,788.1518719000005,None,0.21717650000027788,,,14Aloud,001,2022_Aug_03_1602,ProdSingRedoBetween,2021.2.3,59.89322236306214,
,,,,49,0,49,0,,,,,,,,,,,,,,,,,,,,,,792.3225833000006,None,,,,,,,,,,,,,,,,,color,78,50,aloud,old,red,788.8857359000003,None,788.8857359000003,None,6,1.9473900000002686,788.8857359000003,None,1.9473900000002686,790.8553694000002,None,791.3550850000001,None,791.3550850000001,None,r,0.9421512999997503,791.3550850000001,None,0.9421512999997503,,,14Aloud,001,2022_Aug_03_1602,ProdSingRedoBetween,2021.2.3,59.89322236306214,
,,,,50,0,50,0,,,,,,,,,,,,,,,,,,,,,,796.1597568000007,None,,,,,,,,,,,,,,,,,cover,126,51,aloud,new,null,792.8308182000001,None,792.8308182000001,None,3,2.226207499999873,792.8308182000001,None,2.226207499999873,795.0776971000005,None,795.5926606000003,None,795.5926606000003,None,n,0.5444643999999244,795.5926606000003,None,0.5444643999999244,,,14Aloud,001,2022_Aug_03_1602,ProdSingRedoBetween,2021.2.3,59.89322236306214,
,,,,51,0,51,0,,,,,,,,,,,,,,,,,,,,,,799.3640541000004,None,,,,,,,,,,,,,,,,,store,27,52,aloud,old,yellow,796.6710018000003,None,796.6710018000003,None,1,1.3381262000002607,796.6710018000003,None,1.3381262000002607,798.0280655000006,None,798.5320344000002,None,798.5320344000002,None,n,0.8051664000004166,798.5320344000002,None,0.8051664000004166,,,14Aloud,001,2022_Aug_03_1602,ProdSingRedoBetween,2021.2.3,59.89322236306214,
,,,,52,0,52,0,,,,,,,,,,,,,,,,,,,,,,801.7822154000005,None,,,,,,,,,,,,,,,,,smell,43,53,aloud,old,blue,799.8672956,None,799.8672956,None,1,1.1818312999994305,799.8672956,None,1.1818312999994305,801.0670474000008,None,801.5844453,None,801.5844453,None,n,0.17657650000001013,801.5844453,None,0.17657650000001013,,,14Aloud,001,2022_Aug_03_1602,ProdSingRedoBetween,2021.2.3,59.89322236306214,
,,,,53,0,53,0,,,,,,,,,,,,,,,,,,,,,,805.6197228000001,None,,,,,,,,,,,,,,,,,provision,87,54,aloud,old,red,802.2943184000005,None,802.2943184000005,None,5,1.4588008000000627,802.2943184000005,None,1.4588008000000627,803.7887564000002,None,804.3013283,None,804.3013283,None,f,1.2919478000003437,804.3013283,None,1.2919478000003437,,,14Aloud,001,2022_Aug_03_1602,ProdSingRedoBetween,2021.2.3,59.89322236306214,
,,,,54,0,54,0,,,,,,,,,,,,,,,,,,,,,,812.3760181000007,None,,,,,,,,,,,,,,,,,solution,57,55,aloud,old,blue,806.1359308000001,None,806.1359308000001,None,1,2.121308200000385,806.1359308000001,None,2.121308200000385,808.2930551,None,808.8070254000004,None,808.8070254000004,None,f,3.5541373999994903,808.8070254000004,None,3.5541373999994903,,,14Aloud,001,2022_Aug_03_1602,ProdSingRedoBetween,2021.2.3,59.89322236306214,
,,,,55,0,55,0,,,,,,,,,,,,,,,,,,,,,,815.8833344000004,None,,,,,,,,,,,,,,,,,history,113,56,aloud,new,null,812.8915938,None,812.8915938,None,1,2.341675800000303,812.8915938,None,2.341675800000303,815.2698921000001,None,815.7795251000007,None,815.7795251000007,None,n,0.06969540000045527,815.7795251000007,None,0.06969540000045527,,,14Aloud,001,2022_Aug_03_1602,ProdSingRedoBetween,2021.2.3,59.89322236306214,
,,,,56,0,56,0,,,,,,,,,,,,,,,,,,,,,,819.7163606000004,None,,,,,,,,,,,,,,,,,leader,164,57,aloud,new,null,816.4026754000006,None,816.4026754000006,None,1,1.8544629999996687,816.4026754000006,None,1.8544629999996687,818.2827774000007,None,818.7896697000006,None,818.7896697000006,None,f,0.9073997000004965,818.7896697000006,None,0.9073997000004965,,,14Aloud,001,2022_Aug_03_1602,ProdSingRedoBetween,2021.2.3,59.89322236306214,
,,,,57,0,57,0,,,,,,,,,,,,,,,,,,,,,,822.2022870000001,None,,,,,,,,,,,,,,,,,thick,125,58,aloud,new,null,820.2190419000008,None,820.2190419000008,None,1,1.214009199999964,820.2190419000008,None,1.214009199999964,821.4533146000003,None,821.9689872000008,None,821.9689872000008,None,n,0.2162769999995362,821.9689872000008,None,0.2162769999995362,,,14Aloud,001,2022_Aug_03_1602,ProdSingRedoBetween,2021.2.3,59.89322236306214,
,,,,58,0,58,0,,,,,,,,,,,,,,,,,,,,,,824.7886669,None,,,,,,,,,,,,,,,,,shape,29,59,aloud,old,blue,822.7093005000006,None,822.7093005000006,None,3,1.291844299999866,822.7093005000006,None,1.291844299999866,824.0222712000004,None,824.5261655000004,None,824.5261655000004,None,f,0.23489710000012565,824.5261655000004,None,0.23489710000012565,,,14Aloud,001,2022_Aug_03_1602,ProdSingRedoBetween,2021.2.3,59.89322236306214,
,,,,59,0,59,0,,,,,,,,,,,,,,,,,,,,,,827.3075146000001,None,,,,,,,,,,,,,,,,,waste,167,60,aloud,new,null,825.2950985000007,None,825.2950985000007,None,1,1.2500691000004736,825.2950985000007,None,1.2500691000004736,826.5752297000008,None,827.0958959,None,827.0958959,None,n,0.18537279999964085,827.0958959,None,0.18537279999964085,,,14Aloud,001,2022_Aug_03_1602,ProdSingRedoBetween,2021.2.3,59.89322236306214,
,,,,60,0,60,0,,,,,,,,,,,,,,,,,,,,,,835.6659638000001,None,,,,,,,,,,,,,,,,,present,148,61,aloud,new,null,827.8190261,None,827.8190261,None,2,4.774110499999551,827.8190261,None,4.774110499999551,832.6145820000002,None,833.1341223,None,833.1341223,None,n,2.5151136000004044,833.1341223,None,2.5151136000004044,,,14Aloud,001,2022_Aug_03_1602,ProdSingRedoBetween,2021.2.3,59.89322236306214,
,,,,61,0,61,0,,,,,,,,,,,,,,,,,,,,,,838.5688068,None,,,,,,,,,,,,,,,,,shock,26,62,aloud,old,yellow,836.1747745000002,None,836.1747745000002,None,1,1.5383178000001863,836.1747745000002,None,1.5383178000001863,837.7344665,None,838.2403127000007,None,838.2403127000007,None,n,0.30484530000012455,838.2403127000007,None,0.30484530000012455,,,14Aloud,001,2022_Aug_03_1602,ProdSingRedoBetween,2021.2.3,59.89322236306214,
,,,,62,0,62,0,,,,,,,,,,,,,,,,,,,,,,841.2714622000003,None,,,,,,,,,,,,,,,,,empty,110,63,aloud,new,null,839.0695770000002,None,839.0695770000002,None,1,1.4675203999995574,839.0695770000002,None,1.4675203999995574,840.5540936000007,None,841.0544927999999,None,841.0544927999999,None,n,0.1866971999997986,841.0544927999999,None,0.1866971999997986,,,14Aloud,001,2022_Aug_03_1602,ProdSingRedoBetween,2021.2.3,59.89322236306214,
,,,,63,0,63,0,,,,,,,,,,,,,,,,,,,,,,843.8574721000005,None,,,,,,,,,,,,,,,,,signal,109,64,aloud,new,null,841.7867833,None,841.7867833,None,1,1.310464199999842,841.7867833,None,1.310464199999842,843.1296952000002,None,843.6424257000008,None,843.6424257000008,None,n,0.19877590000032797,843.6424257000008,None,0.19877590000032797,,,14Aloud,001,2022_Aug_03_1602,ProdSingRedoBetween,2021.2.3,59.89322236306214,
,,,,64,0,64,0,,,,,,,,,,,,,,,,,,,,,,847.7612990000007,None,,,,,,,,,,,,,,,,,blind,175,65,aloud,new,null,844.3579386000001,None,844.3579386000001,None,3,2.29917210000076,844.3579386000001,None,2.29917210000076,846.6775091,None,847.1803364000007,None,847.1803364000007,None,f,0.5569820999999138,847.1803364000007,None,0.5569820999999138,,,14Aloud,001,2022_Aug_03_1602,ProdSingRedoBetween,2021.2.3,59.89322236306214,
,,,,65,0,65,0,,,,,,,,,,,,,,,,,,,,,,856.6535048000005,None,,,,,,,,,,,,,,,,,problem,172,66,aloud,new,null,848.2753271000001,None,848.2753271000001,None,4,6.677796899999521,848.2753271000001,None,6.677796899999521,854.9715631000008,None,855.4888551000004,None,855.4888551000004,None,n,1.1363489000004847,855.4888551000004,None,1.1363489000004847,,,14Aloud,001,2022_Aug_03_1602,ProdSingRedoBetween,2021.2.3,59.89322236306214,
,,,,66,0,66,0,,,,,,,,,,,,,,,,,,,,,,859.8400500000007,None,,,,,,,,,,,,,,,,,power,142,67,aloud,new,null,857.1679379000007,None,857.1679379000007,None,3,1.7773457000002963,857.1679379000007,None,1.7773457000002963,858.9726477000004,None,859.4773969000007,None,859.4773969000007,None,f,0.34787990000040736,859.4773969000007,None,0.34787990000040736,,,14Aloud,001,2022_Aug_03_1602,ProdSingRedoBetween,2021.2.3,59.89322236306214,
,,,,67,0,67,0,,,,,,,,,,,,,,,,,,,,,,862.3256397000005,None,,,,,,,,,,,,,,,,,drama,49,68,aloud,old,blue,860.3432561,None,860.3432561,None,1,1.2818301999996038,860.3432561,None,1.2818301999996038,861.6417639000001,None,862.1424696000004,None,862.1424696000004,None,n,0.154685999999856,862.1424696000004,None,0.154685999999856,,,14Aloud,001,2022_Aug_03_1602,ProdSingRedoBetween,2021.2.3,59.89322236306214,
,,,,68,0,68,0,,,,,,,,,,,,,,,,,,,,,,864.7782262000001,None,,,,,,,,,,,,,,,,,second,177,69,aloud,new,null,862.8460748000007,None,862.8460748000007,None,1,1.195127500000126,862.8460748000007,None,1.195127500000126,864.0675035000004,None,864.5802547000003,None,864.5802547000003,None,n,0.1807982999998785,864.5802547000003,None,0.1807982999998785,,,14Aloud,001,2022_Aug_03_1602,ProdSingRedoBetween,2021.2.3,59.89322236306214,
,,,,69,0,69,0,,,,,,,,,,,,,,,,,,,,,,867.4807378000005,None,,,,,,,,,,,,,,,,,general,101,70,aloud,new,null,865.2793283999999,None,865.2793283999999,None,4,1.4657234999995126,865.2793283999999,None,1.4657234999995126,866.7654520000006,None,867.2809235000004,None,867.2809235000004,None,f,0.1842506000002686,867.2809235000004,None,0.1842506000002686,,,14Aloud,001,2022_Aug_03_1602,ProdSingRedoBetween,2021.2.3,59.89322236306214,
,,,,70,0,70,0,,,,,,,,,,,,,,,,,,,,,,878.0082415000006,None,,,,,,,,,,,,,,,,,capital,92,71,aloud,new,null,867.9887111000007,None,867.9887111000007,None,4,7.324583099999472,867.9887111000007,None,7.324583099999472,875.3388750000004,None,875.8395347000005,None,875.8395347000005,None,n,2.1375574000003326,875.8395347000005,None,2.1375574000003326,,,14Aloud,001,2022_Aug_03_1602,ProdSingRedoBetween,2021.2.3,59.89322236306214,
,,,,71,0,71,0,,,,,,,,,,,,,,,,,,,,,,881.4632965999999,None,,,,,,,,,,,,,,,,,angle,141,72,aloud,new,null,878.5137861000003,None,878.5137861000003,None,1,1.567275399999744,878.5137861000003,None,1.567275399999744,880.1101017000001,None,880.6203113000001,None,880.6203113000001,None,n,0.8129447000001164,880.6203113000001,None,0.8129447000001164,,,14Aloud,001,2022_Aug_03_1602,ProdSingRedoBetween,2021.2.3,59.89322236306214,
,,,,72,0,72,0,,,,,,,,,,,,,,,,,,,,,,884.7482505000007,None,,,,,,,,,,,,,,,,,service,25,73,aloud,old,yellow,881.9835324000005,None,881.9835324000005,None,6,2.0336914999998044,881.9835324000005,None,2.0336914999998044,884.0487644000004,None,884.5563227000002,None,884.5563227000002,None,r,0.1648471000007703,884.5563227000002,None,0.1648471000007703,,,14Aloud,001,2022_Aug_03_1602,ProdSingRedoBetween,2021.2.3,59.89322236306214,
,,,,73,0,73,0,,,,,,,,,,,,,,,,,,,,,,888.4019022000002,None,,,,,,,,,,,,,,,,,strain,151,74,aloud,new,null,885.2517198000005,None,885.2517198000005,None,4,1.5414370999997118,885.2517198000005,None,1.5414370999997118,886.8180899000008,None,887.3174856000005,None,887.3174856000005,None,f,1.0597276000007696,887.3174856000005,None,1.0597276000007696,,,14Aloud,001,2022_Aug_03_1602,ProdSingRedoBetween,2021.2.3,59.89322236306214,
,,,,74,0,74,0,,,,,,,,,,,,,,,,,,,,,,892.4392999000002,None,,,,,,,,,,,,,,,,,course,166,75,aloud,new,null,888.9103780000005,None,888.9103780000005,None,2,2.106758300000365,888.9103780000005,None,2.106758300000365,891.0390449000006,None,891.5389241000003,None,891.5389241000003,None,n,0.8783339000001433,891.5389241000003,None,0.8783339000001433,,,14Aloud,001,2022_Aug_03_1602,ProdSingRedoBetween,2021.2.3,59.89322236306214,
,,,,75,0,75,0,,,,,,,,,,,,,,,,,,,,,,895.5856096000007,None,,,,,,,,,,,,,,,,,message,98,76,aloud,new,null,892.9516433000008,None,892.9516433000008,None,1,1.7695254999998724,892.9516433000008,None,1.7695254999998724,894.7447103000004,None,895.2621689000007,None,895.2621689000007,None,n,0.2912761000006867,895.2621689000007,None,0.2912761000006867,,,14Aloud,001,2022_Aug_03_1602,ProdSingRedoBetween,2021.2.3,59.89322236306214,
,,,,76,0,76,0,,,,,,,,,,,,,,,,,,,,,,897.8707077000008,None,,,,,,,,,,,,,,,,,burden,144,77,aloud,new,null,896.0931552000002,None,896.0931552000002,None,1,1.0360037000000375,896.0931552000002,None,1.0360037000000375,897.1448713,None,897.6501252000007,None,897.6501252000007,None,n,0.19130840000070748,897.6501252000007,None,0.19130840000070748,,,14Aloud,001,2022_Aug_03_1602,ProdSingRedoBetween,2021.2.3,59.89322236306214,
,,,,77,0,77,0,,,,,,,,,,,,,,,,,,,,,,899.9800666000001,None,,,,,,,,,,,,,,,,,little,170,78,aloud,new,null,898.381437,None,898.381437,None,1,0.963767000000189,898.381437,None,0.963767000000189,899.3689018000005,None,899.8802342000008,None,899.8802342000008,None,n,0.07296190000033675,899.8802342000008,None,0.07296190000033675,,,14Aloud,001,2022_Aug_03_1602,ProdSingRedoBetween,2021.2.3,59.89322236306214,
,,,,78,0,78,0,,,,,,,,,,,,,,,,,,,,,,902.7328484,None,,,,,,,,,,,,,,,,,spoke,6,79,aloud,old,yellow,900.4877378000001,None,900.4877378000001,None,1,1.6094416999994792,900.4877378000001,None,1.6094416999994792,902.1246061000002,None,902.6406979000003,None,902.6406979000003,None,n,0.06452030000036757,902.6406979000003,None,0.06452030000036757,,,14Aloud,001,2022_Aug_03_1602,ProdSingRedoBetween,2021.2.3,59.89322236306214,
,,,,79,0,79,0,,,,,,,,,,,,,,,,,,,,,,905.2526049000007,None,,,,,,,,,,,,,,,,,under,112,80,aloud,new,null,903.2372080000005,None,903.2372080000005,None,1,1.3878672999999253,903.2372080000005,None,1.3878672999999253,904.6514529000005,None,905.1521836000002,None,905.1521836000002,None,n,0.0728969000001598,905.1521836000002,None,0.0728969000001598,,,14Aloud,001,2022_Aug_03_1602,ProdSingRedoBetween,2021.2.3,59.89322236306214,
,,,,80,0,80,0,,,,,,,,,,,,,,,,,,,,,,908.9391327000003,None,,,,,,,,,,,,,,,,,religion,161,81,aloud,new,null,905.7532251000002,None,905.7532251000002,None,1,1.2639206999992894,905.7532251000002,None,1.2639206999992894,907.0381596000007,None,907.5389751000002,None,907.5389751000002,None,n,1.3821820000002845,907.5389751000002,None,1.3821820000002845,,,14Aloud,001,2022_Aug_03_1602,ProdSingRedoBetween,2021.2.3,59.89322236306214,
,,,,81,0,81,0,,,,,,,,,,,,,,,,,,,,,,911.3915654000002,None,,,,,,,,,,,,,,,,,staff,163,82,aloud,new,null,909.4614249000006,None,909.4614249000006,None,1,1.1957007000000885,909.4614249000006,None,1.1957007000000885,910.6764840000005,None,911.1951750000007,None,911.1951750000007,None,n,0.16596120000031078,911.1951750000007,None,0.16596120000031078,,,14Aloud,001,2022_Aug_03_1602,ProdSingRedoBetween,2021.2.3,59.89322236306214,
,,,,82,0,82,0,,,,,,,,,,,,,,,,,,,,,,915.7792091000001,None,,,,,,,,,,,,,,,,,running,37,83,aloud,old,blue,911.9013233000005,None,911.9013233000005,None,6,1.8759333000007246,911.9013233000005,None,1.8759333000007246,913.7993654000002,None,914.3110606,None,914.3110606,None,r,1.450007999999798,914.3110606,None,1.450007999999798,,,14Aloud,001,2022_Aug_03_1602,ProdSingRedoBetween,2021.2.3,59.89322236306214,
,,,,83,0,83,0,,,,,,,,,,,,,,,,,,,,,,918.4196760000004,None,,,,,,,,,,,,,,,,,tragedy,17,84,aloud,old,yellow,916.2831739000003,None,916.2831739000003,None,6,1.4540809000000081,916.2831739000003,None,1.4540809000000081,917.7743249000005,None,918.2818212000002,None,918.2818212000002,None,r,0.11157850000017788,918.2818212000002,None,0.11157850000017788,,,14Aloud,001,2022_Aug_03_1602,ProdSingRedoBetween,2021.2.3,59.89322236306214,
,,,,84,0,84,0,,,,,,,,,,,,,,,,,,,,,,921.9519904000008,None,,,,,,,,,,,,,,,,,theme,74,85,aloud,old,red,918.9386785000006,None,918.9386785000006,None,4,2.2704907999996067,918.9386785000006,None,2.2704907999996067,921.2365611000005,None,921.7537134000004,None,921.7537134000004,None,f,0.17563460000019404,921.7537134000004,None,0.17563460000019404,,,14Aloud,001,2022_Aug_03_1602,ProdSingRedoBetween,2021.2.3,59.89322236306214,
,,,,85,0,85,0,,,,,,,,,,,,,,,,,,,,,,925.1386295000002,None,,,,,,,,,,,,,,,,,principal,118,86,aloud,new,null,922.4623332000001,None,922.4623332000001,None,1,1.9388240999996924,922.4623332000001,None,1.9388240999996924,924.4243536000004,None,924.9461960000008,None,924.9461960000008,None,n,0.1670003999997789,924.9461960000008,None,0.1670003999997789,,,14Aloud,001,2022_Aug_03_1602,ProdSingRedoBetween,2021.2.3,59.89322236306214,
,,,,86,0,86,0,,,,,,,,,,,,,,,,,,,,,,927.7303194000006,None,,,,,,,,,,,,,,,,,impact,90,87,aloud,new,null,925.6416910000007,None,925.6416910000007,None,1,1.407474600000569,925.6416910000007,None,1.407474600000569,927.0767540000006,None,927.5949667000004,None,927.5949667000004,None,n,0.11032750000049418,927.5949667000004,None,0.11032750000049418,,,14Aloud,001,2022_Aug_03_1602,ProdSingRedoBetween,2021.2.3,59.89322236306214,
,,,,87,0,87,0,,,,,,,,,,,,,,,,,,,,,,931.2280500000006,None,,,,,,,,,,,,,,,,,agency,64,88,aloud,old,red,928.2569282000004,None,928.2569282000004,None,6,2.2401473999998416,928.2569282000004,None,2.2401473999998416,930.5289961000008,None,931.0321300000005,None,931.0321300000005,None,f,0.17713449999973818,931.0321300000005,None,0.17713449999973818,,,14Aloud,001,2022_Aug_03_1602,ProdSingRedoBetween,2021.2.3,59.89322236306214,
,,,,88,0,88,0,,,,,,,,,,,,,,,,,,,,,,933.6805303000001,None,,,,,,,,,,,,,,,,,goose,171,89,aloud,new,null,931.7322302000002,None,931.7322302000002,None,1,1.2608454000001075,931.7322302000002,None,1.2608454000001075,933.0145649000006,None,933.5182408000001,None,933.5182408000001,None,n,0.14693369999986317,933.5182408000001,None,0.14693369999986317,,,14Aloud,001,2022_Aug_03_1602,ProdSingRedoBetween,2021.2.3,59.89322236306214,
,,,,89,0,89,0,,,,,,,,,,,,,,,,,,,,,,936.4833143000005,None,,,,,,,,,,,,,,,,,pancakes,86,90,aloud,old,red,934.1904926000007,None,934.1904926000007,None,6,1.426625499999318,934.1904926000007,None,1.426625499999318,935.6339695000006,None,936.1330903000007,None,936.1330903000007,None,r,0.3321562000000995,936.1330903000007,None,0.3321562000000995,,,14Aloud,001,2022_Aug_03_1602,ProdSingRedoBetween,2021.2.3,59.89322236306214,
,,,,90,0,90,0,,,,,,,,,,,,,,,,,,,,,,940.7042062,None,,,,,,,,,,,,,,,,,direction,140,91,aloud,new,null,936.9837030000008,None,936.9837030000008,None,1,2.4093830000001617,936.9837030000008,None,2.4093830000001617,939.4243465,None,939.9368099000003,None,939.9368099000003,None,n,0.752360200000112,939.9368099000003,None,0.752360200000112,,,14Aloud,001,2022_Aug_03_1602,ProdSingRedoBetween,2021.2.3,59.89322236306214,
,,,,91,0,91,0,,,,,,,,,,,,,,,,,,,,,,944.3910593,None,,,,,,,,,,,,,,,,,division,66,92,aloud,old,red,941.2101250000005,None,941.2101250000005,None,6,2.4550594000002093,941.2101250000005,None,2.4550594000002093,943.6929877000002,None,944.2149638999999,None,944.2149638999999,None,f,0.15426949999982753,944.2149638999999,None,0.15426949999982753,,,14Aloud,001,2022_Aug_03_1602,ProdSingRedoBetween,2021.2.3,59.89322236306214,
,,,,92,0,92,0,,,,,,,,,,,,,,,,,,,,,,946.5872357000007,None,,,,,,,,,,,,,,,,,dance,138,93,aloud,new,null,944.8921614999999,None,944.8921614999999,None,1,0.9651978000001691,944.8921614999999,None,0.9651978000001691,945.8831243000004,None,946.3933046000002,None,946.3933046000002,None,n,0.1598054999994929,946.3933046000002,None,0.1598054999994929,,,14Aloud,001,2022_Aug_03_1602,ProdSingRedoBetween,2021.2.3,59.89322236306214,
,,,,93,0,93,0,,,,,,,,,,,,,,,,,,,,,,949.1459091000006,None,,,,,,,,,,,,,,,,,beginning,35,94,aloud,old,blue,947.1027636000008,None,947.1027636000008,None,6,1.2184235000004264,947.1027636000008,None,1.2184235000004264,948.3469927000006,None,948.8713613,None,948.8713613,None,r,0.2498252000004868,948.8713613,None,0.2498252000004868,,,14Aloud,001,2022_Aug_03_1602,ProdSingRedoBetween,2021.2.3,59.89322236306214,
,,,,94,0,94,0,,,,,,,,,,,,,,,,,,,,,,951.5148075000006,None,,,,,,,,,,,,,,,,,research,129,95,aloud,new,null,949.6542423999999,None,949.6542423999999,None,1,1.2749390999997559,949.6542423999999,None,1.2749390999997559,950.9487438000006,None,951.4528035000003,None,951.4528035000003,None,n,0.03639880000082485,951.4528035000003,None,0.03639880000082485,,,14Aloud,001,2022_Aug_03_1602,ProdSingRedoBetween,2021.2.3,59.89322236306214,
,,,,95,0,95,0,,,,,,,,,,,,,,,,,,,,,,954.0008171,None,,,,,,,,,,,,,,,,,strength,67,96,aloud,old,red,952.0158976000002,None,952.0158976000002,None,1,1.2973205999996935,952.0158976000002,None,1.2973205999996935,953.3371196000007,None,953.8550007000003,None,953.8550007000003,None,n,0.13012660000003962,953.8550007000003,None,0.13012660000003962,,,14Aloud,001,2022_Aug_03_1602,ProdSingRedoBetween,2021.2.3,59.89322236306214,
,,,,96,0,96,0,,,,,,,,,,,,,,,,,,,,,,956.2364201,None,,,,,,,,,,,,,,,,,trash,147,97,aloud,new,null,954.5127756000002,None,954.5127756000002,None,1,1.0484040000001187,954.5127756000002,None,1.0484040000001187,955.5892503000005,None,956.1145652000005,None,956.1145652000005,None,n,0.10269500000049447,956.1145652000005,None,0.10269500000049447,,,14Aloud,001,2022_Aug_03_1602,ProdSingRedoBetween,2021.2.3,59.89322236306214,
,,,,97,0,97,0,,,,,,,,,,,,,,,,,,,,,,959.9232023000004,None,,,,,,,,,,,,,,,,,speech,179,98,aloud,new,null,956.7400489000001,None,956.7400489000001,None,6,1.877040799999122,956.7400489000001,None,1.877040799999122,958.6386897000002,None,959.1451338000006,None,959.1451338000006,None,r,0.7599852000003011,959.1451338000006,None,0.7599852000003011,,,14Aloud,001,2022_Aug_03_1602,ProdSingRedoBetween,2021.2.3,59.89322236306214,
,,,,98,0,98,0,,,,,,,,,,,,,,,,,,,,,,962.4258972000007,None,,,,,,,,,,,,,,,,,death,72,99,aloud,old,red,960.4240067000001,None,960.4240067000001,None,6,1.1291825999996945,960.4240067000001,None,1.1291825999996945,961.5767497000006,None,962.0936810000003,None,962.0936810000003,None,r,0.3076463000006697,962.0936810000003,None,0.3076463000006697,,,14Aloud,001,2022_Aug_03_1602,ProdSingRedoBetween,2021.2.3,59.89322236306214,
,,,,99,0,99,0,,,,,,,,,,,,,,,,,,,,,,966.6304287000003,None,,,,,,,,,,,,,,,,,judge,9,100,aloud,old,yellow,962.9288431000004,None,962.9288431000004,None,4,2.9683328000000984,962.9288431000004,None,2.9683328000000984,965.9158285000003,None,966.4299305000004,None,966.4299305000004,None,f,0.17116359999999986,966.4299305000004,None,0.17116359999999986,,,14Aloud,001,2022_Aug_03_1602,ProdSingRedoBetween,2021.2.3,59.89322236306214,
,,,,100,0,100,0,,,,,,,,,,,,,,,,,,,,,,969.3007244,None,,,,,,,,,,,,,,,,,education,122,101,aloud,new,null,967.1378987000007,None,967.1378987000007,None,6,1.2792872999998508,967.1378987000007,None,1.2792872999998508,968.4328370000003,None,968.9323409000008,None,968.9323409000008,None,f,0.348888800000168,968.9323409000008,None,0.348888800000168,,,14Aloud,001,2022_Aug_03_1602,ProdSingRedoBetween,2021.2.3,59.89322236306214,
,,,,101,0,101,0,,,,,,,,,,,,,,,,,,,,,,972.0521959000007,None,,,,,,,,,,,,,,,,,private,88,102,aloud,old,red,969.8164724000007,None,969.8164724000007,None,1,1.4967258999995465,969.8164724000007,None,1.4967258999995465,971.3367215000007,None,971.8586322000001,None,971.8586322000001,None,n,0.1664797000003091,971.8586322000001,None,0.1664797000003091,,,14Aloud,001,2022_Aug_03_1602,ProdSingRedoBetween,2021.2.3,59.89322236306214,
,,,,102,0,102,0,,,,,,,,,,,,,,,,,,,,,,979.4928938000003,None,,,,,,,,,,,,,,,,,order,4,103,aloud,old,yellow,972.5577873000002,None,972.5577873000002,None,5,5.475432000000183,972.5577873000002,None,5.475432000000183,978.057965,None,978.5631541000002,None,978.5631541000002,None,f,0.910032300000239,978.5631541000002,None,0.910032300000239,,,14Aloud,001,2022_Aug_03_1602,ProdSingRedoBetween,2021.2.3,59.89322236306214,
,,,,103,0,103,0,,,,,,,,,,,,,,,,,,,,,,981.7816162000008,None,,,,,,,,,,,,,,,,,collection,97,104,aloud,new,null,979.9992607000004,None,979.9992607000004,None,1,1.16994109999996,979.9992607000004,None,1.16994109999996,981.1958870000008,None,981.7006541000001,None,981.7006541000001,None,n,0.0606035000000702,981.7006541000001,None,0.0606035000000702,,,14Aloud,001,2022_Aug_03_1602,ProdSingRedoBetween,2021.2.3,59.89322236306214,
,,,,104,0,104,0,,,,,,,,,,,,,,,,,,,,,,984.8816503000007,None,,,,,,,,,,,,,,,,,native,152,105,aloud,new,null,982.2977313000001,None,982.2977313000001,None,1,1.9354700999992929,982.2977313000001,None,1.9354700999992929,984.2686410000006,None,984.7815382000008,None,984.7815382000008,None,n,0.08358010000029026,984.7815382000008,None,0.08358010000029026,,,14Aloud,001,2022_Aug_03_1602,ProdSingRedoBetween,2021.2.3,59.89322236306214,
,,,,105,0,105,0,,,,,,,,,,,,,,,,,,,,,,987.0004716000003,None,,,,,,,,,,,,,,,,,state,102,106,aloud,new,null,985.3888054000008,None,985.3888054000008,None,1,0.972395000000688,985.3888054000008,None,0.972395000000688,986.3844124000007,None,986.8838622000003,None,986.8838622000003,None,n,0.10137729999951262,986.8838622000003,None,0.10137729999951262,,,14Aloud,001,2022_Aug_03_1602,ProdSingRedoBetween,2021.2.3,59.89322236306214,
,,,,106,0,106,0,,,,,,,,,,,,,,,,,,,,,,989.4028547000007,None,,,,,,,,,,,,,,,,,gesture,131,107,aloud,new,null,987.5039077000001,None,987.5039077000001,None,2,1.185477400000309,987.5039077000001,None,1.185477400000309,988.7266337000001,None,989.2361645000001,None,989.2361645000001,None,n,0.14903480000066338,989.2361645000001,None,0.14903480000066338,,,14Aloud,001,2022_Aug_03_1602,ProdSingRedoBetween,2021.2.3,59.89322236306214,
,,,,107,0,107,0,,,,,,,,,,,,,,,,,,,,,,991.6217442000006,None,,,,,,,,,,,,,,,,,center,150,108,aloud,new,null,989.9145058000004,None,989.9145058000004,None,1,0.9667075999996086,989.9145058000004,None,0.9667075999996086,990.9041629000003,None,991.4049408999999,None,991.4049408999999,None,n,0.18828550000034738,991.4049408999999,None,0.18828550000034738,,,14Aloud,001,2022_Aug_03_1602,ProdSingRedoBetween,2021.2.3,59.89322236306214,
,,,,108,0,108,0,,,,,,,,,,,,,,,,,,,,,,995.6791326000002,None,,,,,,,,,,,,,,,,,recall,58,109,aloud,old,blue,992.1311476999999,None,992.1311476999999,None,2,2.9099702000003163,992.1311476999999,None,2.9099702000003163,995.0594913000004,None,995.5615841000008,None,995.5615841000008,None,n,0.0957354000001942,995.5615841000008,None,0.0957354000001942,,,14Aloud,001,2022_Aug_03_1602,ProdSingRedoBetween,2021.2.3,59.89322236306214,
,,,,109,0,109,0,,,,,,,,,,,,,,,,,,,,,,998.3622197000004,None,,,,,,,,,,,,,,,,,split,104,110,aloud,new,null,996.1960895000002,None,996.1960895000002,None,1,1.5971306999999797,996.1960895000002,None,1.5971306999999797,997.8147695000007,None,998.3323622000007,None,998.3323622000007,None,n,0.004991599999812024,998.3323622000007,None,0.004991599999812024,,,14Aloud,001,2022_Aug_03_1602,ProdSingRedoBetween,2021.2.3,59.89322236306214,
,,,,110,0,110,0,,,,,,,,,,,,,,,,,,,,,,1001.3314579000007,None,,,,,,,,,,,,,,,,,government,45,111,aloud,old,blue,998.8700241000006,None,998.8700241000006,None,4,1.3150854000004983,998.8700241000006,None,1.3150854000004983,1000.2186901000005,None,1000.7309708000003,None,1000.7309708000003,None,n,0.5821567000002688,1000.7309708000003,None,0.5821567000002688,,,14Aloud,001,2022_Aug_03_1602,ProdSingRedoBetween,2021.2.3,59.89322236306214,
,,,,111,0,111,0,,,,,,,,,,,,,,,,,,,,,,1004.3010965000003,None,,,,,,,,,,,,,,,,,production,174,112,aloud,new,null,1001.8406870000008,None,1001.8406870000008,None,1,1.5363986000002114,1001.8406870000008,None,1.5363986000002114,1003.4077972000005,None,1003.9250871000004,None,1003.9250871000004,None,n,0.3480405000000246,1003.9250871000004,None,0.3480405000000246,,,14Aloud,001,2022_Aug_03_1602,ProdSingRedoBetween,2021.2.3,59.89322236306214,
,,,,112,0,112,0,,,,,,,,,,,,,,,,,,,,,,1006.7537768000002,None,,,,,,,,,,,,,,,,,congress,103,113,aloud,new,null,1004.8019209000004,None,1004.8019209000004,None,1,1.2392791000002035,1004.8019209000004,None,1.2392791000002035,1006.0704161000003,None,1006.5743528000003,None,1006.5743528000003,None,n,0.15489239999988058,1006.5743528000003,None,0.15489239999988058,,,14Aloud,001,2022_Aug_03_1602,ProdSingRedoBetween,2021.2.3,59.89322236306214,
,,,,113,0,113,0,,,,,,,,,,,,,,,,,,,,,,1009.2558352000005,None,,,,,,,,,,,,,,,,,school,14,114,aloud,old,yellow,1007.2674620000007,None,1007.2674620000007,None,6,1.1578246999997646,1007.2674620000007,None,1.1578246999997646,1008.4563743000008,None,1008.9643651000006,None,1008.9643651000006,None,r,0.2690621000001556,1008.9643651000006,None,0.2690621000001556,,,14Aloud,001,2022_Aug_03_1602,ProdSingRedoBetween,2021.2.3,59.89322236306214,
,,,,114,0,114,0,,,,,,,,,,,,,,,,,,,,,,1013.9607176,None,,,,,,,,,,,,,,,,,column,93,115,aloud,new,null,1009.759008,None,1009.759008,None,3,3.378304400000161,1009.759008,None,3.378304400000161,1013.1602687000004,None,1013.6649068000006,None,1013.6649068000006,None,f,0.27238169999964157,1013.6649068000006,None,0.27238169999964157,,,14Aloud,001,2022_Aug_03_1602,ProdSingRedoBetween,2021.2.3,59.89322236306214,
,,,,115,0,115,0,,,,,,,,,,,,,,,,,,,,,,1017.8979992000004,None,,,,,,,,,,,,,,,,,produce,69,116,aloud,old,red,1014.4644954000005,None,1014.4644954000005,None,1,2.592694599999959,1014.4644954000005,None,2.592694599999959,1017.0817288000007,None,1017.5826657000007,None,1017.5826657000007,None,n,0.29045980000046256,1017.5826657000007,None,0.29045980000046256,,,14Aloud,001,2022_Aug_03_1602,ProdSingRedoBetween,2021.2.3,59.89322236306214,
,,,,116,0,116,0,,,,,,,,,,,,,,,,,,,,,,1020.2837178,None,,,,,,,,,,,,,,,,,prime,105,117,aloud,new,null,1018.4102168,None,1018.4102168,None,1,1.1750987999994322,1018.4102168,None,1.1750987999994322,1019.6314849,None,1020.1355853000005,None,1020.1355853000005,None,n,0.12163019999934477,1020.1355853000005,None,0.12163019999934477,,,14Aloud,001,2022_Aug_03_1602,ProdSingRedoBetween,2021.2.3,59.89322236306214,
,,,,117,0,117,0,,,,,,,,,,,,,,,,,,,,,,1022.7059513000004,None,,,,,,,,,,,,,,,,,budget,114,118,aloud,new,null,1020.7929214000005,None,1020.7929214000005,None,2,1.176129899999978,1020.7929214000005,None,1.176129899999978,1021.9852592000007,None,1022.4890646000003,None,1022.4890646000003,None,n,0.18441190000066854,1022.4890646000003,None,0.18441190000066854,,,14Aloud,001,2022_Aug_03_1602,ProdSingRedoBetween,2021.2.3,59.89322236306214,
,,,,118,0,118,0,,,,,,,,,,,,,,,,,,,,,,1029.5762594000007,None,,,,,,,,,,,,,,,,,owner,1,119,aloud,old,yellow,1023.2243936000004,None,1023.2243936000004,None,3,5.7047724000003655,1023.2243936000004,None,5.7047724000003655,1028.9782842000004,None,1029.4929189000004,None,1029.4929189000004,None,n,0.060190899999724934,1029.4929189000004,None,0.060190899999724934,,,14Aloud,001,2022_Aug_03_1602,ProdSingRedoBetween,2021.2.3,59.89322236306214,
,,,,119,0,119,0,,,,,,,,,,,,,,,,,,,,,,1032.8462850000005,None,,,,,,,,,,,,,,,,,silence,11,120,aloud,old,yellow,1030.0807138,None,1030.0807138,None,1,1.5844434000000547,1030.0807138,None,1.5844434000000547,1031.6968152,None,1032.2172261000005,None,1032.2172261000005,None,f,0.6080105000000913,1032.2172261000005,None,0.6080105000000913,,,14Aloud,001,2022_Aug_03_1602,ProdSingRedoBetween,2021.2.3,59.89322236306214,
,,,,120,0,120,0,,,,,,,,,,,,,,,,,,,,,,1035.6324872000005,None,,,,,,,,,,,,,,,,,citizen,3,121,aloud,old,yellow,1033.3597627,None,1033.3597627,None,6,1.361371599999984,1033.3597627,None,1.361371599999984,1034.7492022000006,None,1035.252703,None,1035.252703,None,r,0.3565884999998161,1035.252703,None,0.3565884999998161,,,14Aloud,001,2022_Aug_03_1602,ProdSingRedoBetween,2021.2.3,59.89322236306214,
,,,,121,0,121,0,,,,,,,,,,,,,,,,,,,,,,1038.0856604,None,,,,,,,,,,,,,,,,,error,0,122,aloud,old,yellow,1036.1490814000008,None,1036.1490814000008,None,6,1.1320871000007173,1036.1490814000008,None,1.1320871000007173,1037.3005248,None,1037.8020569,None,1037.8020569,None,f,0.25521609999941575,1037.8020569,None,0.25521609999941575,,,14Aloud,001,2022_Aug_03_1602,ProdSingRedoBetween,2021.2.3,59.89322236306214,
,,,,122,0,122,0,,,,,,,,,,,,,,,,,,,,,,1041.0042543,None,,,,,,,,,,,,,,,,,comedy,143,123,aloud,new,null,1038.5945969000004,None,1038.5945969000004,None,2,1.6145300999996834,1038.5945969000004,None,1.6145300999996834,1040.2388310000006,None,1040.7557332000006,None,1040.7557332000006,None,n,0.22946789999969042,1040.7557332000006,None,0.22946789999969042,,,14Aloud,001,2022_Aug_03_1602,ProdSingRedoBetween,2021.2.3,59.89322236306214,
,,,,123,0,123,0,,,,,,,,,,,,,,,,,,,,,,1044.9584067000005,None,,,,,,,,,,,,,,,,,resistance,80,124,aloud,old,red,1041.5124843000003,None,1041.5124843000003,None,6,1.8567274000006364,1041.5124843000003,None,1.8567274000006364,1043.3923659000002,None,1043.9074879,None,1043.9074879,None,r,1.029719699999987,1043.9074879,None,1.029719699999987,,,14Aloud,001,2022_Aug_03_1602,ProdSingRedoBetween,2021.2.3,59.89322236306214,
,,,,124,0,124,0,,,,,,,,,,,,,,,,,,,,,,1047.5787355000002,None,,,,,,,,,,,,,,,,,platform,73,125,aloud,old,red,1045.4668380000003,None,1045.4668380000003,None,1,1.238462499999514,1045.4668380000003,None,1.238462499999514,1046.7360582000001,None,1047.2506101000008,None,1047.2506101000008,None,n,0.3026732999996966,1047.2506101000008,None,0.3026732999996966,,,14Aloud,001,2022_Aug_03_1602,ProdSingRedoBetween,2021.2.3,59.89322236306214,
,,,,125,0,125,0,,,,,,,,,,,,,,,,,,,,,,1050.3804433000005,None,,,,,,,,,,,,,,,,,republic,23,126,aloud,old,yellow,1048.0829700000004,None,1048.0829700000004,None,6,1.4223722999995516,1048.0829700000004,None,1.4223722999995516,1049.5354943000002,None,1050.0478774000003,None,1050.0478774000003,None,f,0.3054093999999168,1050.0478774000003,None,0.3054093999999168,,,14Aloud,001,2022_Aug_03_1602,ProdSingRedoBetween,2021.2.3,59.89322236306214,
,,,,126,0,126,0,,,,,,,,,,,,,,,,,,,,,,1052.8203025000003,None,,,,,,,,,,,,,,,,,enemy,111,127,aloud,new,null,1050.8868435000004,None,1050.8868435000004,None,1,1.1543695999998818,1050.8868435000004,None,1.1543695999998818,1052.0671201000005,None,1052.5864902000003,None,1052.5864902000003,None,n,0.20697889999973995,1052.5864902000003,None,0.20697889999973995,,,14Aloud,001,2022_Aug_03_1602,ProdSingRedoBetween,2021.2.3,59.89322236306214,
,,,,127,0,127,0,,,,,,,,,,,,,,,,,,,,,,1056.4698225000002,None,,,,,,,,,,,,,,,,,commercial,68,128,aloud,old,red,1053.3398578000006,None,1053.3398578000006,None,6,1.1732590000001437,1053.3398578000006,None,1.1732590000001437,1054.5357935000002,None,1055.0350385000002,None,1055.0350385000002,None,f,1.4061923999997816,1055.0350385000002,None,1.4061923999997816,,,14Aloud,001,2022_Aug_03_1602,ProdSingRedoBetween,2021.2.3,59.89322236306214,
,,,,128,0,128,0,,,,,,,,,,,,,,,,,,,,,,1062.9761805000007,None,,,,,,,,,,,,,,,,,murder,127,129,aloud,new,null,1056.9759884000005,None,1056.9759884000005,None,4,3.7052161999999953,1056.9759884000005,None,3.7052161999999953,1060.7087861,None,1061.2116145,None,1061.2116145,None,r,1.7336196999995082,1061.2116145,None,1.7336196999995082,,,14Aloud,001,2022_Aug_03_1602,ProdSingRedoBetween,2021.2.3,59.89322236306214,
,,,,129,0,129,0,,,,,,,,,,,,,,,,,,,,,,1072.2357164000005,None,,,,,,,,,,,,,,,,,fashion,76,130,aloud,old,red,1063.4870842,None,1063.4870842,None,3,7.9140949000002365,1063.4870842,None,7.9140949000002365,1071.4194342,None,1071.9186673000004,None,1071.9186673000004,None,f,0.29068759999972826,1071.9186673000004,None,0.29068759999972826,,,14Aloud,001,2022_Aug_03_1602,ProdSingRedoBetween,2021.2.3,59.89322236306214,
,,,,130,0,130,0,,,,,,,,,,,,,,,,,,,,,,1074.5544128000001,None,,,,,,,,,,,,,,,,,bright,8,131,aloud,old,yellow,1072.7465445000007,None,1072.7465445000007,None,1,1.1826662000003125,1072.7465445000007,None,1.1826662000003125,1073.9540780000007,None,1074.4573581000004,None,1074.4573581000004,None,n,0.07184959999995044,1074.4573581000004,None,0.07184959999995044,,,14Aloud,001,2022_Aug_03_1602,ProdSingRedoBetween,2021.2.3,59.89322236306214,
,,,,131,0,131,0,,,,,,,,,,,,,,,,,,,,,,1078.1748957,None,,,,,,,,,,,,,,,,,scale,44,132,aloud,old,blue,1075.0576468,None,1075.0576468,None,1,1.735609299999851,1075.0576468,None,1.735609299999851,1076.8264357000007,None,1077.3411033000002,None,1077.3411033000002,None,n,0.804146800000126,1077.3411033000002,None,0.804146800000126,,,14Aloud,001,2022_Aug_03_1602,ProdSingRedoBetween,2021.2.3,59.89322236306214,
,,,,132,0,132,0,,,,,,,,,,,,,,,,,,,,,,1081.3614489000001,None,,,,,,,,,,,,,,,,,court,15,133,aloud,old,yellow,1078.6769668000006,None,1078.6769668000006,None,2,1.4283878000005643,1078.6769668000006,None,1.4283878000005643,1080.1336883000004,None,1080.6461713000008,None,1080.6461713000008,None,r,0.6991238000000521,1080.6461713000008,None,0.6991238000000521,,,14Aloud,001,2022_Aug_03_1602,ProdSingRedoBetween,2021.2.3,59.89322236306214,
,,,,133,0,133,0,,,,,,,,,,,,,,,,,,,,,,1084.5479773000006,None,,,,,,,,,,,,,,,,,reading,63,134,aloud,old,red,1081.8703171000006,None,1081.8703171000006,None,5,1.7709589000005508,1081.8703171000006,None,1.7709589000005508,1083.6655463000006,None,1084.1809967,None,1084.1809967,None,r,0.34015699999963545,1084.1809967,None,0.34015699999963545,,,14Aloud,001,2022_Aug_03_1602,ProdSingRedoBetween,2021.2.3,59.89322236306214,
,,,,134,0,134,0,,,,,,,,,,,,,,,,,,,,,,1087.3172252000004,None,,,,,,,,,,,,,,,,,motion,149,135,aloud,new,null,1085.0551248000002,None,1085.0551248000002,None,1,1.3381747000003088,1085.0551248000002,None,1.3381747000003088,1086.4174111000002,None,1086.9246543,None,1086.9246543,None,n,0.3645713000005344,1086.9246543,None,0.3645713000005344,,,14Aloud,001,2022_Aug_03_1602,ProdSingRedoBetween,2021.2.3,59.89322236306214,
,,,,135,0,135,0,,,,,,,,,,,,,,,,,,,,,,1090.7874832000007,None,,,,,,,,,,,,,,,,,surface,99,136,aloud,new,null,1087.8284921000004,None,1087.8284921000004,None,2,1.4288128999996843,1087.8284921000004,None,1.4288128999996843,1089.2890701000006,None,1089.8030672000004,None,1089.8030672000004,None,n,0.9661857999999484,1089.8030672000004,None,0.9661857999999484,,,14Aloud,001,2022_Aug_03_1602,ProdSingRedoBetween,2021.2.3,59.89322236306214,
,,,,136,0,136,0,,,,,,,,,,,,,,,,,,,,,,1093.4401734000003,None,,,,,,,,,,,,,,,,,south,32,137,aloud,old,blue,1091.2905445000006,None,1091.2905445000006,None,1,1.3189358000008724,1091.2905445000006,None,1.3189358000008724,1092.6442058000002,None,1093.1566717000005,None,1093.1566717000005,None,n,0.2605903000003309,1093.1566717000005,None,0.2605903000003309,,,14Aloud,001,2022_Aug_03_1602,ProdSingRedoBetween,2021.2.3,59.89322236306214,
,,,,137,0,137,0,,,,,,,,,,,,,,,,,,,,,,1096.1762454,None,,,,,,,,,,,,,,,,,management,108,138,aloud,new,null,1093.9434467,None,1093.9434467,None,2,1.3937880999992558,1093.9434467,None,1.3937880999992558,1095.3597243000004,None,1095.8649031000004,None,1095.8649031000004,None,n,0.28041990000019723,1095.8649031000004,None,0.28041990000019723,,,14Aloud,001,2022_Aug_03_1602,ProdSingRedoBetween,2021.2.3,59.89322236306214,
,,,,138,0,138,0,,,,,,,,,,,,,,,,,,,,,,1098.8955989000006,None,,,,,,,,,,,,,,,,,conference,70,139,aloud,old,red,1096.6792615000004,None,1096.6792615000004,None,5,1.321882799999912,1096.6792615000004,None,1.321882799999912,1098.0290459000007,None,1098.5284999000005,None,1098.5284999000005,None,r,0.33672329999990325,1098.5284999000005,None,0.33672329999990325,,,14Aloud,001,2022_Aug_03_1602,ProdSingRedoBetween,2021.2.3,59.89322236306214,
,,,,139,0,139,0,,,,,,,,,,,,,,,,,,,,,,1101.6089191,None,,,,,,,,,,,,,,,,,department,106,140,aloud,new,null,1099.4051259000007,None,1099.4051259000007,None,3,1.3560972999994192,1099.4051259000007,None,1.3560972999994192,1100.7825844000008,None,1101.2981354000003,None,1101.2981354000003,None,f,0.27144419999967795,1101.2981354000003,None,0.27144419999967795,,,14Aloud,001,2022_Aug_03_1602,ProdSingRedoBetween,2021.2.3,59.89322236306214,
,,,,140,0,140,0,,,,,,,,,,,,,,,,,,,,,,1104.0006744000002,None,,,,,,,,,,,,,,,,,review,40,141,aloud,old,blue,1102.1220631000006,None,1102.1220631000006,None,4,1.0713028999998642,1102.1220631000006,None,1.0713028999998642,1103.2169350000004,None,1103.7302366000004,None,1103.7302366000004,None,f,0.25500430000010965,1103.7302366000004,None,0.25500430000010965,,,14Aloud,001,2022_Aug_03_1602,ProdSingRedoBetween,2021.2.3,59.89322236306214,
,,,,141,0,141,0,,,,,,,,,,,,,,,,,,,,,,1106.4364540000006,None,,,,,,,,,,,,,,,,,entrance,50,142,aloud,old,blue,1104.5038227000005,None,1104.5038227000005,None,1,1.1134357000000819,1104.5038227000005,None,1.1134357000000819,1105.6415257000008,None,1106.1558027,None,1106.1558027,None,n,0.26152019999972254,1106.1558027,None,0.26152019999972254,,,14Aloud,001,2022_Aug_03_1602,ProdSingRedoBetween,2021.2.3,59.89322236306214,
,,,,142,0,142,0,,,,,,,,,,,,,,,,,,,,,,1109.5755261000004,None,,,,,,,,,,,,,,,,,corner,13,143,aloud,old,yellow,1106.9416958000002,None,1106.9416958000002,None,2,1.8194587999996656,1106.9416958000002,None,1.8194587999996656,1108.7886520000002,None,1109.2923936000007,None,1109.2923936000007,None,n,0.2531672000004619,1109.2923936000007,None,0.2531672000004619,,,14Aloud,001,2022_Aug_03_1602,ProdSingRedoBetween,2021.2.3,59.89322236306214,
,,,,143,0,143,0,,,,,,,,,,,,,,,,,,,,,,1112.4925267000008,None,,,,,,,,,,,,,,,,,crowd,62,144,aloud,old,red,1110.1048381,None,1110.1048381,None,1,1.4003094999998211,1110.1048381,None,1.4003094999998211,1111.5261688,None,1112.0336101000003,None,1112.0336101000003,None,n,0.4396013000005041,1112.0336101000003,None,0.4396013000005041,,,14Aloud,001,2022_Aug_03_1602,ProdSingRedoBetween,2021.2.3,59.89322236306214,
,,,,144,0,144,0,,,,,,,,,,,,,,,,,,,,,,1114.8615907000003,None,,,,,,,,,,,,,,,,,display,135,145,aloud,new,null,1113.0023058000006,None,1113.0023058000006,None,1,1.1589775000002192,1113.0023058000006,None,1.1589775000002192,1114.1788015000002,None,1114.6839822000002,None,1114.6839822000002,None,n,0.14926720000039495,1114.6839822000002,None,0.14926720000039495,,,14Aloud,001,2022_Aug_03_1602,ProdSingRedoBetween,2021.2.3,59.89322236306214,
,,,,145,0,145,0,,,,,,,,,,,,,,,,,,,,,,1117.5309378000002,None,,,,,,,,,,,,,,,,,working,84,146,aloud,old,red,1115.3745558,None,1115.3745558,None,5,1.3867285999995147,1115.3745558,None,1.3867285999995147,1116.7824342000004,None,1117.2975004,None,1117.2975004,None,r,0.20776030000070023,1117.2975004,None,0.20776030000070023,,,14Aloud,001,2022_Aug_03_1602,ProdSingRedoBetween,2021.2.3,59.89322236306214,
,,,,146,0,146,0,,,,,,,,,,,,,,,,,,,,,,1120.1165141000001,None,,,,,,,,,,,,,,,,,drove,10,147,aloud,old,yellow,1118.0455095000007,None,1118.0455095000007,None,1,1.2838572000000568,1118.0455095000007,None,1.2838572000000568,1119.3507298000004,None,1119.8664346000005,None,1119.8664346000005,None,n,0.22271970000019792,1119.8664346000005,None,0.22271970000019792,,,14Aloud,001,2022_Aug_03_1602,ProdSingRedoBetween,2021.2.3,59.89322236306214,
,,,,147,0,147,0,,,,,,,,,,,,,,,,,,,,,,1122.5859621,None,,,,,,,,,,,,,,,,,attack,178,148,aloud,new,null,1120.6238837,None,1120.6238837,None,1,1.0813490000000456,1120.6238837,None,1.0813490000000456,1121.7382184000007,None,1122.2523508000004,None,1122.2523508000004,None,n,0.30892820000008214,1122.2523508000004,None,0.30892820000008214,,,14Aloud,001,2022_Aug_03_1602,ProdSingRedoBetween,2021.2.3,59.89322236306214,
,,,,148,0,148,0,,,,,,,,,,,,,,,,,,,,,,1125.0384551000006,None,,,,,,,,,,,,,,,,,whole,121,149,aloud,new,null,1123.0957361,None,1123.0957361,None,2,1.257450200000676,1123.0957361,None,1.257450200000676,1124.3722426000004,None,1124.8716847000005,None,1124.8716847000005,None,n,0.14556590000029246,1124.8716847000005,None,0.14556590000029246,,,14Aloud,001,2022_Aug_03_1602,ProdSingRedoBetween,2021.2.3,59.89322236306214,
,,,,149,0,149,0,,,,,,,,,,,,,,,,,,,,,,1127.30735,None,,,,,,,,,,,,,,,,,union,145,150,aloud,new,null,1125.5485874000005,None,1125.5485874000005,None,1,1.108962000000247,1125.5485874000005,None,1.108962000000247,1126.6832619000006,None,1127.1914743000007,None,1127.1914743000007,None,n,0.09773279999990336,1127.1914743000007,None,0.09773279999990336,,,14Aloud,001,2022_Aug_03_1602,ProdSingRedoBetween,2021.2.3,59.89322236306214,
,,,,150,0,150,0,,,,,,,,,,,,,,,,,,,,,,1129.9316617000004,None,,,,,,,,,,,,,,,,,council,59,151,aloud,old,yellow,1127.8145169,None,1127.8145169,None,5,1.258631200000309,1127.8145169,None,1.258631200000309,1129.0925047,None,1129.5929253000004,None,1129.5929253000004,None,f,0.3125598999995418,1129.5929253000004,None,0.3125598999995418,,,14Aloud,001,2022_Aug_03_1602,ProdSingRedoBetween,2021.2.3,59.89322236306214,
,,,,151,0,151,0,,,,,,,,,,,,,,,,,,,,,,1132.3027488000007,None,,,,,,,,,,,,,,,,,executive,119,152,aloud,new,null,1130.4520994000004,None,1130.4520994000004,None,1,1.1250700000000506,1130.4520994000004,None,1.1250700000000506,1131.6067992000008,None,1132.1119762000008,None,1132.1119762000008,None,n,0.16128849999950035,1132.1119762000008,None,0.16128849999950035,,,14Aloud,001,2022_Aug_03_1602,ProdSingRedoBetween,2021.2.3,59.89322236306214,
,,,,152,0,152,0,,,,,,,,,,,,,,,,,,,,,,1135.2819586000005,None,,,,,,,,,,,,,,,,,period,65,153,aloud,old,red,1132.8157091000003,None,1132.8157091000003,None,6,1.5214608999995107,1132.8157091000003,None,1.5214608999995107,1134.3652915000002,None,1134.8649809000008,None,1134.8649809000008,None,f,0.400297899999714,1134.8649809000008,None,0.400297899999714,,,14Aloud,001,2022_Aug_03_1602,ProdSingRedoBetween,2021.2.3,59.89322236306214,
,,,,153,0,153,0,,,,,,,,,,,,,,,,,,,,,,1138.2706534000008,None,,,,,,,,,,,,,,,,,curve,24,154,aloud,old,yellow,1135.7936205000005,None,1135.7936205000005,None,6,1.599619999999959,1135.7936205000005,None,1.599619999999959,1137.4232084000005,None,1137.9385756000001,None,1137.9385756000001,None,r,0.31079030000000785,1137.9385756000001,None,0.31079030000000785,,,14Aloud,001,2022_Aug_03_1602,ProdSingRedoBetween,2021.2.3,59.89322236306214,
,,,,154,0,154,0,,,,,,,,,,,,,,,,,,,,,,1140.5036082000006,None,,,,,,,,,,,,,,,,,drink,117,155,aloud,new,null,1138.7919905000008,None,1138.7919905000008,None,1,1.033311600000161,1138.7919905000008,None,1.033311600000161,1139.8647501000005,None,1140.3758587000002,None,1140.3758587000002,None,n,0.09740710000005492,1140.3758587000002,None,0.09740710000005492,,,14Aloud,001,2022_Aug_03_1602,ProdSingRedoBetween,2021.2.3,59.89322236306214,
,,,,155,0,155,0,,,,,,,,,,,,,,,,,,,,,,1142.7894891000005,None,,,,,,,,,,,,,,,,,taste,71,156,aloud,old,red,1141.0104359000006,None,1141.0104359000006,None,1,1.0868461000000025,1141.0104359000006,None,1.0868461000000025,1142.1234183000006,None,1142.6285018000008,None,1142.6285018000008,None,n,0.1406992000001992,1142.6285018000008,None,0.1406992000001992,,,14Aloud,001,2022_Aug_03_1602,ProdSingRedoBetween,2021.2.3,59.89322236306214,
,,,,156,0,156,0,,,,,,,,,,,,,,,,,,,,,,1145.0248152000004,None,,,,,,,,,,,,,,,,,frank,169,157,aloud,new,null,1143.2945746000005,None,1143.2945746000005,None,1,1.0907665000004272,1143.2945746000005,None,1.0907665000004272,1144.4142774000002,None,1144.9310886000003,None,1144.9310886000003,None,n,0.07019660000059957,1144.9310886000003,None,0.07019660000059957,,,14Aloud,001,2022_Aug_03_1602,ProdSingRedoBetween,2021.2.3,59.89322236306214,
,,,,157,0,157,0,,,,,,,,,,,,,,,,,,,,,,1147.5275168000007,None,,,,,,,,,,,,,,,,,pressure,133,158,aloud,new,null,1145.5283624000003,None,1145.5283624000003,None,3,1.216842999999244,1145.5283624000003,None,1.216842999999244,1146.7600645000002,None,1147.2647607000008,None,1147.2647607000008,None,n,0.23254929999984597,1147.2647607000008,None,0.23254929999984597,,,14Aloud,001,2022_Aug_03_1602,ProdSingRedoBetween,2021.2.3,59.89322236306214,
,,,,158,0,158,0,,,,,,,,,,,,,,,,,,,,,,1149.9633306000005,None,,,,,,,,,,,,,,,,,nature,155,159,aloud,new,null,1148.0306690000007,None,1148.0306690000007,None,1,1.0826326999995217,1148.0306690000007,None,1.0826326999995217,1149.1309757000008,None,1149.6462161,None,1149.6462161,None,n,0.2909295999997994,1149.6462161,None,0.2909295999997994,,,14Aloud,001,2022_Aug_03_1602,ProdSingRedoBetween,2021.2.3,59.89322236306214,
,,,,159,0,159,0,,,,,,,,,,,,,,,,,,,,,,1152.6159658000006,None,,,,,,,,,,,,,,,,,broke,12,160,aloud,old,yellow,1150.4637933000004,None,1150.4637933000004,None,6,1.4094513999998526,1150.4637933000004,None,1.4094513999998526,1151.8986075000003,None,1152.4024035000002,None,1152.4024035000002,None,r,0.19087860000036017,1152.4024035000002,None,0.19087860000036017,,,14Aloud,001,2022_Aug_03_1602,ProdSingRedoBetween,2021.2.3,59.89322236306214,
,,,,160,0,160,0,,,,,,,,,,,,,,,,,,,,,,1154.7854757000005,None,,,,,,,,,,,,,,,,,voice,96,161,aloud,new,null,1153.1200251,None,1153.1200251,None,2,0.9132990999996764,1153.1200251,None,0.9132990999996764,1154.0575665000006,None,1154.5722146000007,None,1154.5722146000007,None,n,0.19709010000042326,1154.5722146000007,None,0.19709010000042326,,,14Aloud,001,2022_Aug_03_1602,ProdSingRedoBetween,2021.2.3,59.89322236306214,
,,,,161,0,161,0,,,,,,,,,,,,,,,,,,,,,,1157.4374263,None,,,,,,,,,,,,,,,,,damage,83,162,aloud,old,red,1155.2894803,None,1155.2894803,None,3,1.2238736999997855,1155.2894803,None,1.2238736999997855,1156.5384215000004,None,1157.0568951000005,None,1157.0568951000005,None,f,0.3523609000003489,1157.0568951000005,None,0.3523609000003489,,,14Aloud,001,2022_Aug_03_1602,ProdSingRedoBetween,2021.2.3,59.89322236306214,
,,,,162,0,162,0,,,,,,,,,,,,,,,,,,,,,,1160.2418862000004,None,,,,,,,,,,,,,,,,,finish,36,163,aloud,old,blue,1157.9467573000002,None,1157.9467573000002,None,6,1.5425307000004977,1157.9467573000002,None,1.5425307000004977,1159.5149844000007,None,1160.0265914000001,None,1160.0265914000001,None,r,0.182730100000299,1160.0265914000001,None,0.182730100000299,,,14Aloud,001,2022_Aug_03_1602,ProdSingRedoBetween,2021.2.3,59.89322236306214,
,,,,163,0,163,0,,,,,,,,,,,,,,,,,,,,,,1162.9263165000002,None,,,,,,,,,,,,,,,,,dispute,33,164,aloud,old,blue,1160.7591825,None,1160.7591825,None,4,1.3621346999998423,1160.7591825,None,1.3621346999998423,1162.1498779000003,None,1162.6593959000002,None,1162.6593959000002,None,f,0.23792690000027505,1162.6593959000002,None,0.23792690000027505,,,14Aloud,001,2022_Aug_03_1602,ProdSingRedoBetween,2021.2.3,59.89322236306214,
,,,,164,0,164,0,,,,,,,,,,,,,,,,,,,,,,1165.4621586000003,None,,,,,,,,,,,,,,,,,sight,30,165,aloud,old,blue,1163.4408956000007,None,1163.4408956000007,None,3,1.264465299999756,1163.4408956000007,None,1.264465299999756,1164.7342518000005,None,1165.249992,None,1165.249992,None,f,0.18326040000010835,1165.249992,None,0.18326040000010835,,,14Aloud,001,2022_Aug_03_1602,ProdSingRedoBetween,2021.2.3,59.89322236306214,
,,,,165,0,165,0,,,,,,,,,,,,,,,,,,,,,,1169.9166000000005,None,,,,,,,,,,,,,,,,,background,176,166,aloud,new,null,1165.9733949000001,None,1165.9733949000001,None,6,2.4598540000006324,1165.9733949000001,None,2.4598540000006324,1168.4494785000006,None,1168.9603327000004,None,1168.9603327000004,None,f,0.928840599999603,1168.9603327000004,None,0.928840599999603,,,14Aloud,001,2022_Aug_03_1602,ProdSingRedoBetween,2021.2.3,59.89322236306214,
,,,,166,0,166,0,,,,,,,,,,,,,,,,,,,,,,1172.6527099000004,None,,,,,,,,,,,,,,,,,chief,60,167,aloud,old,red,1170.4266106000005,None,1170.4266106000005,None,6,1.510664899999938,1170.4266106000005,None,1.510664899999938,1171.9743274000002,None,1172.4908491000006,None,1172.4908491000006,None,f,0.14239110000016808,1172.4908491000006,None,0.14239110000016808,,,14Aloud,001,2022_Aug_03_1602,ProdSingRedoBetween,2021.2.3,59.89322236306214,
,,,,167,0,167,0,,,,,,,,,,,,,,,,,,,,,,1175.2089729,None,,,,,,,,,,,,,,,,,engineer,77,168,aloud,old,red,1173.1547072000003,None,1173.1547072000003,None,4,1.2224736999996821,1173.1547072000003,None,1.2224736999996821,1174.4044309,None,1174.9104961000003,None,1174.9104961000003,None,f,0.2669762000004994,1174.9104961000003,None,0.2669762000004994,,,14Aloud,001,2022_Aug_03_1602,ProdSingRedoBetween,2021.2.3,59.89322236306214,
,,,,168,0,168,0,,,,,,,,,,,,,,,,,,,,,,1177.6909986,None,,,,,,,,,,,,,,,,,childhood,81,169,aloud,old,red,1175.7268541000003,None,1175.7268541000003,None,6,1.210539400000016,1175.7268541000003,None,1.210539400000016,1176.9656741000008,None,1177.4766103000002,None,1177.4766103000002,None,r,0.19661480000013398,1177.4766103000002,None,0.19661480000013398,,,14Aloud,001,2022_Aug_03_1602,ProdSingRedoBetween,2021.2.3,59.89322236306214,
,,,,169,0,169,0,,,,,,,,,,,,,,,,,,,,,,1181.7116940000005,None,,,,,,,,,,,,,,,,,profession,54,170,aloud,old,blue,1178.2046119000006,None,1178.2046119000006,None,1,2.444655899999816,1178.2046119000006,None,2.444655899999816,1180.6800983000003,None,1181.1977584000006,None,1181.1977584000006,None,n,0.4835086000002775,1181.1977584000006,None,0.4835086000002775,,,14Aloud,001,2022_Aug_03_1602,ProdSingRedoBetween,2021.2.3,59.89322236306214,
,,,,170,0,170,0,,,,,,,,,,,,,,,,,,,,,,1184.5368037000007,None,,,,,,,,,,,,,,,,,escape,28,171,aloud,old,yellow,1182.2198589,None,1182.2198589,None,2,1.4454028000000108,1182.2198589,None,1.4454028000000108,1183.6814891000004,None,1184.1880178000001,None,1184.1880178000001,None,f,0.3175636999994822,1184.1880178000001,None,0.3175636999994822,,,14Aloud,001,2022_Aug_03_1602,ProdSingRedoBetween,2021.2.3,59.89322236306214,
,,,,171,0,171,0,,,,,,,,,,,,,,,,,,,,,,1187.434193,None,,,,,,,,,,,,,,,,,object,38,172,aloud,old,blue,1185.0529875000002,None,1185.0529875000002,None,3,1.5802679999997054,1185.0529875000002,None,1.5802679999997054,1186.6513198000002,None,1187.156806,None,1187.156806,None,r,0.2604399000001649,1187.156806,None,0.2604399000001649,,,14Aloud,001,2022_Aug_03_1602,ProdSingRedoBetween,2021.2.3,59.89322236306214,
,,,,172,0,172,0,,,,,,,,,,,,,,,,,,,,,,1189.8865456000003,None,,,,,,,,,,,,,,,,,husband,146,173,aloud,new,null,1187.9459686,None,1187.9459686,None,1,1.2233050999993793,1187.9459686,None,1.2233050999993793,1189.1919189,None,1189.7031233000007,None,1189.7031233000007,None,n,0.16210010000031616,1189.7031233000007,None,0.16210010000031616,,,14Aloud,001,2022_Aug_03_1602,ProdSingRedoBetween,2021.2.3,59.89322236306214,
,,,,173,0,173,0,,,,,,,,,,,,,,,,,,,,,,1191.9553027000002,None,,,,,,,,,,,,,,,,,answer,95,174,aloud,new,null,1190.3901741,None,1190.3901741,None,1,0.8830754999999044,1190.3901741,None,0.8830754999999044,1191.3059377,None,1191.8051094000002,None,1191.8051094000002,None,n,0.13227530000040133,1191.8051094000002,None,0.13227530000040133,,,14Aloud,001,2022_Aug_03_1602,ProdSingRedoBetween,2021.2.3,59.89322236306214,
,,,,174,0,174,0,,,,,,,,,,,,,,,,,,,,,,1194.6625098000004,None,,,,,,,,,,,,,,,,,mankind,34,175,aloud,old,blue,1192.4740589000003,None,1192.4740589000003,None,6,1.4310961000001043,1192.4740589000003,None,1.4310961000001043,1193.9239145000001,None,1194.4245634000008,None,1194.4245634000008,None,f,0.21665649999977177,1194.4245634000008,None,0.21665649999977177,,,14Aloud,001,2022_Aug_03_1602,ProdSingRedoBetween,2021.2.3,59.89322236306214,
,,,,175,0,175,0,,,,,,,,,,,,,,,,,,,,,,1196.9269898000002,None,,,,,,,,,,,,,,,,,medicine,162,176,aloud,new,null,1195.1772732,None,1195.1772732,None,1,1.0960887999999613,1195.1772732,None,1.0960887999999613,1196.2927104,None,1196.7936952,None,1196.7936952,None,n,0.10356670000055601,1196.7936952,None,0.10356670000055601,,,14Aloud,001,2022_Aug_03_1602,ProdSingRedoBetween,2021.2.3,59.89322236306214,
,,,,176,0,176,0,,,,,,,,,,,,,,,,,,,,,,1199.5628526,None,,,,,,,,,,,,,,,,,safety,31,177,aloud,old,blue,1197.4450288000007,None,1197.4450288000007,None,6,1.0602381999997306,1197.4450288000007,None,1.0602381999997306,1198.5320906000006,None,1199.0456152000006,None,1199.0456152000006,None,r,0.4999703999992562,1199.0456152000006,None,0.4999703999992562,,,14Aloud,001,2022_Aug_03_1602,ProdSingRedoBetween,2021.2.3,59.89322236306214,
,,,,177,0,177,0,,,,,,,,,,,,,,,,,,,,,,1201.6482732000004,None,,,,,,,,,,,,,,,,,clean,55,178,aloud,old,blue,1200.0738403000005,None,1200.0738403000005,None,1,0.9595625000001746,1200.0738403000005,None,0.9595625000001746,1201.0673165000007,None,1201.5816720000003,None,1201.5816720000003,None,n,0.0437114999995174,1201.5816720000003,None,0.0437114999995174,,,14Aloud,001,2022_Aug_03_1602,ProdSingRedoBetween,2021.2.3,59.89322236306214,
,,,,178,0,178,0,,,,,,,,,,,,,,,,,,,,,,1203.9965626000003,None,,,,,,,,,,,,,,,,,degree,52,179,aloud,old,blue,1202.1490116000004,None,1202.1490116000004,None,1,1.276257099999384,1202.1490116000004,None,1.276257099999384,1203.4500862000004,None,1203.9576636000002,None,1203.9576636000002,None,n,0.0038764000000810483,1203.9576636000002,None,0.0038764000000810483,,,14Aloud,001,2022_Aug_03_1602,ProdSingRedoBetween,2021.2.3,59.89322236306214,
,,,,179,0,179,0,,,,,,,,,,,,,,,,,,,,,,1206.8034594,None,,,,,,,,,,,,,,,,,design,22,180,aloud,old,yellow,1204.5089096000002,None,1204.5089096000002,None,3,1.4124808999995366,1204.5089096000002,None,1.4124808999995366,1205.9593374000005,None,1206.4698855000006,None,1206.4698855000006,None,f,0.3152704000003723,1206.4698855000006,None,0.3152704000003723,,,14Aloud,001,2022_Aug_03_1602,ProdSingRedoBetween,2021.2.3,59.89322236306214,
,,,,,,,,,,,,,,,,,,,,,,,,,,,,,,,,,,,,,,,,,,,,,,,,,,,,,,,,,,,,,,,,,,,,,,,,,1207.3047000000006,None,,,,,,,
