StudyLoop.thisRepN,StudyLoop.thisTrialN,StudyLoop.thisN,StudyLoop.thisIndex,TestLoop.thisRepN,TestLoop.thisTrialN,TestLoop.thisN,TestLoop.thisIndex,textCondition.started,textCondition.stopped,keyCondition.keys,keyCondition.rt,keyCondition.started,keyCondition.stopped,Condition,textWelcome.started,textWelcome.stopped,keyWelcome.keys,keyWelcome.rt,keyWelcome.started,keyWelcome.stopped,textAloud.started,textAloud.stopped,textSilent.started,textSilent.stopped,textSing.started,textSing.stopped,conditional_text.started,conditional_text.stopped,textBlank500.started,textBlank500.stopped,study_word,study_num,study_order,study_type,word_color,textStudy.started,textStudy.stopped,keyStudy.keys,keyStudy.started,keyStudy.stopped,textTestInstructions.started,textTestInstructions.stopped,key_resp_3.keys,key_resp_3.rt,key_resp_3.started,key_resp_3.stopped,test_word,test_num,test_order,test_condition,old_new_test,test_word_original_color,textConf.started,textConf.stopped,textConfScale.started,textConfScale.stopped,keyConf.keys,keyConf.rt,keyConf.started,keyConf.stopped,confidence response time,textTestBlank.started,textTestBlank.stopped,textRKN.started,textRKN.stopped,textRKNScale.started,textRKNScale.stopped,keyRKN.keys,keyRKN.rt,keyRKN.started,keyRKN.stopped,rkn response time,textEnd.started,textEnd.stopped,participant,session,date,expName,psychopyVersion,frameRate,
,,,,,,,,21.22364989999994,None,c,3.028976299999954,21.22364989999994,None,,,,,,,,,,,,,,,,,,,,,,,,,,,,,,,,,,,,,,,,,,,,,,,,,,,,,,,,,,,,,,Sing15,001,2022_Aug_04_1424,ProdSingRedoBetween,2021.2.3,60.050033688054526,
,,,,,,,,,,,,,,SingTest,24.303293800000006,None,space,216.47699150000005,24.303293800000006,None,,,,,,,,,,,,,,,,,,,,,,,,,,,,,,,,,,,,,,,,,,,,,,,,,,,,,,,Sing15,001,2022_Aug_04_1424,ProdSingRedoBetween,2021.2.3,60.050033688054526,
0,0,0,0,,,,,,,,,,,,,,,,,,24.303293800000006,None,24.303293800000006,None,24.303293800000006,None,24.303293800000006,None,243.30478879999998,None,crisis,23,1,sing,yellow,241.30513580000002,None,None,241.30513580000002,None,,,,,,,,,,,,,,,,,,,,,,,,,,,,,,,,,,,Sing15,001,2022_Aug_04_1424,ProdSingRedoBetween,2021.2.3,60.050033688054526,
1,0,1,0,,,,,,,,,,,,,,,,,,,,,,,,,,245.82381480000004,None,quick,17,2,sing,yellow,243.81076610000002,None,None,243.81076610000002,None,,,,,,,,,,,,,,,,,,,,,,,,,,,,,,,,,,,Sing15,001,2022_Aug_04_1424,ProdSingRedoBetween,2021.2.3,60.050033688054526,
2,0,2,0,,,,,,,,,,,,,,,,,,,,,,,,,,248.32658179999999,None,appeal,15,3,sing,yellow,246.3273411,None,None,246.3273411,None,,,,,,,,,,,,,,,,,,,,,,,,,,,,,,,,,,,Sing15,001,2022_Aug_04_1424,ProdSingRedoBetween,2021.2.3,60.050033688054526,
3,0,3,0,,,,,,,,,,,,,,,,,,,,,,,,,,250.828845,None,hearing,48,4,sing,blue,248.82696839999994,None,None,248.82696839999994,None,,,,,,,,,,,,,,,,,,,,,,,,,,,,,,,,,,,Sing15,001,2022_Aug_04_1424,ProdSingRedoBetween,2021.2.3,60.050033688054526,
4,0,4,0,,,,,,,,,,,,,,,,,,,,,,,,,,253.34788760000004,None,watch,40,5,sing,blue,251.33333259999995,None,None,251.33333259999995,None,,,,,,,,,,,,,,,,,,,,,,,,,,,,,,,,,,,Sing15,001,2022_Aug_04_1424,ProdSingRedoBetween,2021.2.3,60.050033688054526,
5,0,5,0,,,,,,,,,,,,,,,,,,,,,,,,,,255.8505629,None,pattern,85,6,sing,red,253.84885469999995,None,None,253.84885469999995,None,,,,,,,,,,,,,,,,,,,,,,,,,,,,,,,,,,,Sing15,001,2022_Aug_04_1424,ProdSingRedoBetween,2021.2.3,60.050033688054526,
6,0,6,0,,,,,,,,,,,,,,,,,,,,,,,,,,258.3699273,None,block,27,7,sing,yellow,256.3549861,None,None,256.3549861,None,,,,,,,,,,,,,,,,,,,,,,,,,,,,,,,,,,,Sing15,001,2022_Aug_04_1424,ProdSingRedoBetween,2021.2.3,60.050033688054526,
7,0,7,0,,,,,,,,,,,,,,,,,,,,,,,,,,260.8888674,None,volume,81,8,sing,red,258.8784289,None,None,258.8784289,None,,,,,,,,,,,,,,,,,,,,,,,,,,,,,,,,,,,Sing15,001,2022_Aug_04_1424,ProdSingRedoBetween,2021.2.3,60.050033688054526,
8,0,8,0,,,,,,,,,,,,,,,,,,,,,,,,,,263.3914231,None,light,42,9,sing,blue,261.38950339999997,None,None,261.38950339999997,None,,,,,,,,,,,,,,,,,,,,,,,,,,,,,,,,,,,Sing15,001,2022_Aug_04_1424,ProdSingRedoBetween,2021.2.3,60.050033688054526,
9,0,9,0,,,,,,,,,,,,,,,,,,,,,,,,,,265.8939567,None,resistance,7,10,sing,yellow,263.89187979999997,None,None,263.89187979999997,None,,,,,,,,,,,,,,,,,,,,,,,,,,,,,,,,,,,Sing15,001,2022_Aug_04_1424,ProdSingRedoBetween,2021.2.3,60.050033688054526,
10,0,10,0,,,,,,,,,,,,,,,,,,,,,,,,,,268.3963936,None,dispute,43,11,sing,blue,266.39443729999994,None,None,266.39443729999994,None,,,,,,,,,,,,,,,,,,,,,,,,,,,,,,,,,,,Sing15,001,2022_Aug_04_1424,ProdSingRedoBetween,2021.2.3,60.050033688054526,
11,0,11,0,,,,,,,,,,,,,,,,,,,,,,,,,,270.89907489999996,None,husband,50,12,sing,blue,268.8969327,None,None,268.8969327,None,,,,,,,,,,,,,,,,,,,,,,,,,,,,,,,,,,,Sing15,001,2022_Aug_04_1424,ProdSingRedoBetween,2021.2.3,60.050033688054526,
12,0,12,0,,,,,,,,,,,,,,,,,,,,,,,,,,273.40162929999997,None,period,83,13,sing,red,271.4013265,None,None,271.4013265,None,,,,,,,,,,,,,,,,,,,,,,,,,,,,,,,,,,,Sing15,001,2022_Aug_04_1424,ProdSingRedoBetween,2021.2.3,60.050033688054526,
13,0,13,0,,,,,,,,,,,,,,,,,,,,,,,,,,275.92078389999995,None,escape,56,14,sing,blue,273.9057928,None,None,273.9057928,None,,,,,,,,,,,,,,,,,,,,,,,,,,,,,,,,,,,Sing15,001,2022_Aug_04_1424,ProdSingRedoBetween,2021.2.3,60.050033688054526,
14,0,14,0,,,,,,,,,,,,,,,,,,,,,,,,,,278.42339419999996,None,mechanical,1,15,sing,yellow,276.4223416,None,None,276.4223416,None,,,,,,,,,,,,,,,,,,,,,,,,,,,,,,,,,,,Sing15,001,2022_Aug_04_1424,ProdSingRedoBetween,2021.2.3,60.050033688054526,
15,0,15,0,,,,,,,,,,,,,,,,,,,,,,,,,,280.94252819999997,None,cross,31,16,sing,blue,278.929027,None,None,278.929027,None,,,,,,,,,,,,,,,,,,,,,,,,,,,,,,,,,,,Sing15,001,2022_Aug_04_1424,ProdSingRedoBetween,2021.2.3,60.050033688054526,
16,0,16,0,,,,,,,,,,,,,,,,,,,,,,,,,,283.46136849999994,None,platform,8,17,sing,yellow,281.44824629999994,None,None,281.44824629999994,None,,,,,,,,,,,,,,,,,,,,,,,,,,,,,,,,,,,Sing15,001,2022_Aug_04_1424,ProdSingRedoBetween,2021.2.3,60.050033688054526,
17,0,17,0,,,,,,,,,,,,,,,,,,,,,,,,,,285.9641782,None,guard,69,18,sing,red,283.9620502,None,None,283.9620502,None,,,,,,,,,,,,,,,,,,,,,,,,,,,,,,,,,,,Sing15,001,2022_Aug_04_1424,ProdSingRedoBetween,2021.2.3,60.050033688054526,
18,0,18,0,,,,,,,,,,,,,,,,,,,,,,,,,,288.4665563,None,community,64,19,sing,red,286.46457499999997,None,None,286.46457499999997,None,,,,,,,,,,,,,,,,,,,,,,,,,,,,,,,,,,,Sing15,001,2022_Aug_04_1424,ProdSingRedoBetween,2021.2.3,60.050033688054526,
19,0,19,0,,,,,,,,,,,,,,,,,,,,,,,,,,290.9689432,None,cover,14,20,sing,yellow,288.9675538,None,None,288.9675538,None,,,,,,,,,,,,,,,,,,,,,,,,,,,,,,,,,,,Sing15,001,2022_Aug_04_1424,ProdSingRedoBetween,2021.2.3,60.050033688054526,
20,0,20,0,,,,,,,,,,,,,,,,,,,,,,,,,,293.471459,None,notice,88,21,sing,red,291.4694614,None,None,291.4694614,None,,,,,,,,,,,,,,,,,,,,,,,,,,,,,,,,,,,Sing15,001,2022_Aug_04_1424,ProdSingRedoBetween,2021.2.3,60.050033688054526,
21,0,21,0,,,,,,,,,,,,,,,,,,,,,,,,,,295.97415279999996,None,prime,73,22,sing,red,293.97232529999997,None,None,293.97232529999997,None,,,,,,,,,,,,,,,,,,,,,,,,,,,,,,,,,,,Sing15,001,2022_Aug_04_1424,ProdSingRedoBetween,2021.2.3,60.050033688054526,
22,0,22,0,,,,,,,,,,,,,,,,,,,,,,,,,,298.49311939999996,None,management,18,23,sing,yellow,296.48003099999994,None,None,296.48003099999994,None,,,,,,,,,,,,,,,,,,,,,,,,,,,,,,,,,,,Sing15,001,2022_Aug_04_1424,ProdSingRedoBetween,2021.2.3,60.050033688054526,
23,0,23,0,,,,,,,,,,,,,,,,,,,,,,,,,,301.01213759999996,None,religion,86,24,sing,red,298.9974078,None,None,298.9974078,None,,,,,,,,,,,,,,,,,,,,,,,,,,,,,,,,,,,Sing15,001,2022_Aug_04_1424,ProdSingRedoBetween,2021.2.3,60.050033688054526,
24,0,24,0,,,,,,,,,,,,,,,,,,,,,,,,,,303.51478439999994,None,court,57,25,sing,blue,301.512825,None,None,301.512825,None,,,,,,,,,,,,,,,,,,,,,,,,,,,,,,,,,,,Sing15,001,2022_Aug_04_1424,ProdSingRedoBetween,2021.2.3,60.050033688054526,
25,0,25,0,,,,,,,,,,,,,,,,,,,,,,,,,,306.01744199999996,None,testimony,61,26,sing,red,304.0152557,None,None,304.0152557,None,,,,,,,,,,,,,,,,,,,,,,,,,,,,,,,,,,,Sing15,001,2022_Aug_04_1424,ProdSingRedoBetween,2021.2.3,60.050033688054526,
26,0,26,0,,,,,,,,,,,,,,,,,,,,,,,,,,308.5196641,None,swift,10,27,sing,yellow,306.5201882,None,None,306.5201882,None,,,,,,,,,,,,,,,,,,,,,,,,,,,,,,,,,,,Sing15,001,2022_Aug_04_1424,ProdSingRedoBetween,2021.2.3,60.050033688054526,
27,0,27,0,,,,,,,,,,,,,,,,,,,,,,,,,,311.0224458,None,orchestra,45,28,sing,blue,309.02027050000004,None,None,309.02027050000004,None,,,,,,,,,,,,,,,,,,,,,,,,,,,,,,,,,,,Sing15,001,2022_Aug_04_1424,ProdSingRedoBetween,2021.2.3,60.050033688054526,
28,0,28,0,,,,,,,,,,,,,,,,,,,,,,,,,,313.541554,None,profession,60,29,sing,red,311.53080320000004,None,None,311.53080320000004,None,,,,,,,,,,,,,,,,,,,,,,,,,,,,,,,,,,,Sing15,001,2022_Aug_04_1424,ProdSingRedoBetween,2021.2.3,60.050033688054526,
29,0,29,0,,,,,,,,,,,,,,,,,,,,,,,,,,316.0442061,None,waste,55,30,sing,blue,314.0422132,None,None,314.0422132,None,,,,,,,,,,,,,,,,,,,,,,,,,,,,,,,,,,,Sing15,001,2022_Aug_04_1424,ProdSingRedoBetween,2021.2.3,60.050033688054526,
30,0,30,0,,,,,,,,,,,,,,,,,,,,,,,,,,318.5633253,None,division,76,31,sing,red,316.55011119999995,None,None,316.55011119999995,None,,,,,,,,,,,,,,,,,,,,,,,,,,,,,,,,,,,Sing15,001,2022_Aug_04_1424,ProdSingRedoBetween,2021.2.3,60.050033688054526,
31,0,31,0,,,,,,,,,,,,,,,,,,,,,,,,,,321.06560390000004,None,express,19,32,sing,yellow,319.0665268,None,None,319.0665268,None,,,,,,,,,,,,,,,,,,,,,,,,,,,,,,,,,,,Sing15,001,2022_Aug_04_1424,ProdSingRedoBetween,2021.2.3,60.050033688054526,
32,0,32,0,,,,,,,,,,,,,,,,,,,,,,,,,,323.5850372,None,bucket,47,33,sing,blue,321.56984750000004,None,None,321.56984750000004,None,,,,,,,,,,,,,,,,,,,,,,,,,,,,,,,,,,,Sing15,001,2022_Aug_04_1424,ProdSingRedoBetween,2021.2.3,60.050033688054526,
33,0,33,0,,,,,,,,,,,,,,,,,,,,,,,,,,326.0872206,None,military,38,34,sing,blue,324.0882897,None,None,324.0882897,None,,,,,,,,,,,,,,,,,,,,,,,,,,,,,,,,,,,Sing15,001,2022_Aug_04_1424,ProdSingRedoBetween,2021.2.3,60.050033688054526,
34,0,34,0,,,,,,,,,,,,,,,,,,,,,,,,,,328.60653449999995,None,strength,30,35,sing,blue,326.59157830000004,None,None,326.59157830000004,None,,,,,,,,,,,,,,,,,,,,,,,,,,,,,,,,,,,Sing15,001,2022_Aug_04_1424,ProdSingRedoBetween,2021.2.3,60.050033688054526,
35,0,35,0,,,,,,,,,,,,,,,,,,,,,,,,,,331.1256207,None,rapid,39,36,sing,blue,329.11064980000003,None,None,329.11064980000003,None,,,,,,,,,,,,,,,,,,,,,,,,,,,,,,,,,,,Sing15,001,2022_Aug_04_1424,ProdSingRedoBetween,2021.2.3,60.050033688054526,
36,0,36,0,,,,,,,,,,,,,,,,,,,,,,,,,,333.6450384,None,recall,68,37,sing,red,331.63196849999997,None,None,331.63196849999997,None,,,,,,,,,,,,,,,,,,,,,,,,,,,,,,,,,,,Sing15,001,2022_Aug_04_1424,ProdSingRedoBetween,2021.2.3,60.050033688054526,
37,0,37,0,,,,,,,,,,,,,,,,,,,,,,,,,,336.14760809999996,None,message,5,38,sing,yellow,334.14637200000004,None,None,334.14637200000004,None,,,,,,,,,,,,,,,,,,,,,,,,,,,,,,,,,,,Sing15,001,2022_Aug_04_1424,ProdSingRedoBetween,2021.2.3,60.050033688054526,
38,0,38,0,,,,,,,,,,,,,,,,,,,,,,,,,,338.66647720000003,None,produce,32,39,sing,blue,336.65955640000004,None,None,336.65955640000004,None,,,,,,,,,,,,,,,,,,,,,,,,,,,,,,,,,,,Sing15,001,2022_Aug_04_1424,ProdSingRedoBetween,2021.2.3,60.050033688054526,
39,0,39,0,,,,,,,,,,,,,,,,,,,,,,,,,,341.1859504,None,salary,44,40,sing,blue,339.17529149999996,None,None,339.17529149999996,None,,,,,,,,,,,,,,,,,,,,,,,,,,,,,,,,,,,Sing15,001,2022_Aug_04_1424,ProdSingRedoBetween,2021.2.3,60.050033688054526,
40,0,40,0,,,,,,,,,,,,,,,,,,,,,,,,,,343.68855999999994,None,fashion,36,41,sing,blue,341.6862926,None,None,341.6862926,None,,,,,,,,,,,,,,,,,,,,,,,,,,,,,,,,,,,Sing15,001,2022_Aug_04_1424,ProdSingRedoBetween,2021.2.3,60.050033688054526,
41,0,41,0,,,,,,,,,,,,,,,,,,,,,,,,,,346.1909276,None,afternoon,79,42,sing,red,344.19094499999994,None,None,344.19094499999994,None,,,,,,,,,,,,,,,,,,,,,,,,,,,,,,,,,,,Sing15,001,2022_Aug_04_1424,ProdSingRedoBetween,2021.2.3,60.050033688054526,
42,0,42,0,,,,,,,,,,,,,,,,,,,,,,,,,,348.69345079999994,None,grade,70,43,sing,red,346.6925198,None,None,346.6925198,None,,,,,,,,,,,,,,,,,,,,,,,,,,,,,,,,,,,Sing15,001,2022_Aug_04_1424,ProdSingRedoBetween,2021.2.3,60.050033688054526,
43,0,43,0,,,,,,,,,,,,,,,,,,,,,,,,,,351.2125926,None,conference,11,44,sing,yellow,349.19941529999994,None,None,349.19941529999994,None,,,,,,,,,,,,,,,,,,,,,,,,,,,,,,,,,,,Sing15,001,2022_Aug_04_1424,ProdSingRedoBetween,2021.2.3,60.050033688054526,
44,0,44,0,,,,,,,,,,,,,,,,,,,,,,,,,,353.73161789999995,None,subject,65,45,sing,red,351.72029599999996,None,None,351.72029599999996,None,,,,,,,,,,,,,,,,,,,,,,,,,,,,,,,,,,,Sing15,001,2022_Aug_04_1424,ProdSingRedoBetween,2021.2.3,60.050033688054526,
45,0,45,0,,,,,,,,,,,,,,,,,,,,,,,,,,356.23405519999994,None,rough,4,46,sing,yellow,354.232081,None,None,354.232081,None,,,,,,,,,,,,,,,,,,,,,,,,,,,,,,,,,,,Sing15,001,2022_Aug_04_1424,ProdSingRedoBetween,2021.2.3,60.050033688054526,
46,0,46,0,,,,,,,,,,,,,,,,,,,,,,,,,,358.7364133,None,surprise,51,47,sing,blue,356.7345696,None,None,356.7345696,None,,,,,,,,,,,,,,,,,,,,,,,,,,,,,,,,,,,Sing15,001,2022_Aug_04_1424,ProdSingRedoBetween,2021.2.3,60.050033688054526,
47,0,47,0,,,,,,,,,,,,,,,,,,,,,,,,,,361.2390084,None,graduate,35,48,sing,blue,359.237072,None,None,359.237072,None,,,,,,,,,,,,,,,,,,,,,,,,,,,,,,,,,,,Sing15,001,2022_Aug_04_1424,ProdSingRedoBetween,2021.2.3,60.050033688054526,
48,0,48,0,,,,,,,,,,,,,,,,,,,,,,,,,,363.7416233,None,column,54,49,sing,blue,361.7395351,None,None,361.7395351,None,,,,,,,,,,,,,,,,,,,,,,,,,,,,,,,,,,,Sing15,001,2022_Aug_04_1424,ProdSingRedoBetween,2021.2.3,60.050033688054526,
49,0,49,0,,,,,,,,,,,,,,,,,,,,,,,,,,366.24394689999997,None,brilliant,82,50,sing,red,364.2419129,None,None,364.2419129,None,,,,,,,,,,,,,,,,,,,,,,,,,,,,,,,,,,,Sing15,001,2022_Aug_04_1424,ProdSingRedoBetween,2021.2.3,60.050033688054526,
50,0,50,0,,,,,,,,,,,,,,,,,,,,,,,,,,368.74650640000004,None,quantity,34,51,sing,blue,366.745274,None,None,366.745274,None,,,,,,,,,,,,,,,,,,,,,,,,,,,,,,,,,,,Sing15,001,2022_Aug_04_1424,ProdSingRedoBetween,2021.2.3,60.050033688054526,
51,0,51,0,,,,,,,,,,,,,,,,,,,,,,,,,,371.2489991,None,bright,41,52,sing,blue,369.2469245,None,None,369.2469245,None,,,,,,,,,,,,,,,,,,,,,,,,,,,,,,,,,,,Sing15,001,2022_Aug_04_1424,ProdSingRedoBetween,2021.2.3,60.050033688054526,
52,0,52,0,,,,,,,,,,,,,,,,,,,,,,,,,,373.75139219999994,None,guide,26,53,sing,yellow,371.74946750000004,None,None,371.74946750000004,None,,,,,,,,,,,,,,,,,,,,,,,,,,,,,,,,,,,Sing15,001,2022_Aug_04_1424,ProdSingRedoBetween,2021.2.3,60.050033688054526,
53,0,53,0,,,,,,,,,,,,,,,,,,,,,,,,,,376.25422289999995,None,service,9,54,sing,yellow,374.25190439999994,None,None,374.25190439999994,None,,,,,,,,,,,,,,,,,,,,,,,,,,,,,,,,,,,Sing15,001,2022_Aug_04_1424,ProdSingRedoBetween,2021.2.3,60.050033688054526,
54,0,54,0,,,,,,,,,,,,,,,,,,,,,,,,,,378.75653909999994,None,attack,52,55,sing,blue,376.75561000000005,None,None,376.75561000000005,None,,,,,,,,,,,,,,,,,,,,,,,,,,,,,,,,,,,Sing15,001,2022_Aug_04_1424,ProdSingRedoBetween,2021.2.3,60.050033688054526,
55,0,55,0,,,,,,,,,,,,,,,,,,,,,,,,,,381.2592264,None,session,24,56,sing,yellow,379.2579631,None,None,379.2579631,None,,,,,,,,,,,,,,,,,,,,,,,,,,,,,,,,,,,Sing15,001,2022_Aug_04_1424,ProdSingRedoBetween,2021.2.3,60.050033688054526,
56,0,56,0,,,,,,,,,,,,,,,,,,,,,,,,,,383.7614942,None,atmosphere,29,57,sing,blue,381.762598,None,None,381.762598,None,,,,,,,,,,,,,,,,,,,,,,,,,,,,,,,,,,,Sing15,001,2022_Aug_04_1424,ProdSingRedoBetween,2021.2.3,60.050033688054526,
57,0,57,0,,,,,,,,,,,,,,,,,,,,,,,,,,386.28094269999997,None,council,6,58,sing,yellow,384.26567309999996,None,None,384.26567309999996,None,,,,,,,,,,,,,,,,,,,,,,,,,,,,,,,,,,,Sing15,001,2022_Aug_04_1424,ProdSingRedoBetween,2021.2.3,60.050033688054526,
58,0,58,0,,,,,,,,,,,,,,,,,,,,,,,,,,388.78344200000004,None,shape,77,59,sing,red,386.7827751,None,None,386.7827751,None,,,,,,,,,,,,,,,,,,,,,,,,,,,,,,,,,,,Sing15,001,2022_Aug_04_1424,ProdSingRedoBetween,2021.2.3,60.050033688054526,
59,0,59,0,,,,,,,,,,,,,,,,,,,,,,,,,,391.30265799999995,None,place,13,60,sing,yellow,389.28720079999994,None,None,389.28720079999994,None,,,,,,,,,,,,,,,,,,,,,,,,,,,,,,,,,,,Sing15,001,2022_Aug_04_1424,ProdSingRedoBetween,2021.2.3,60.050033688054526,
60,0,60,0,,,,,,,,,,,,,,,,,,,,,,,,,,393.82157759999996,None,broad,53,61,sing,blue,391.80978819999996,None,None,391.80978819999996,None,,,,,,,,,,,,,,,,,,,,,,,,,,,,,,,,,,,Sing15,001,2022_Aug_04_1424,ProdSingRedoBetween,2021.2.3,60.050033688054526,
61,0,61,0,,,,,,,,,,,,,,,,,,,,,,,,,,396.32425509999996,None,ground,63,62,sing,red,394.3221376,None,None,394.3221376,None,,,,,,,,,,,,,,,,,,,,,,,,,,,,,,,,,,,Sing15,001,2022_Aug_04_1424,ProdSingRedoBetween,2021.2.3,60.050033688054526,
62,0,62,0,,,,,,,,,,,,,,,,,,,,,,,,,,398.8269408,None,exchange,66,63,sing,red,396.82635689999995,None,None,396.82635689999995,None,,,,,,,,,,,,,,,,,,,,,,,,,,,,,,,,,,,Sing15,001,2022_Aug_04_1424,ProdSingRedoBetween,2021.2.3,60.050033688054526,
63,0,63,0,,,,,,,,,,,,,,,,,,,,,,,,,,401.3291146,None,surface,89,64,sing,red,399.329693,None,None,399.329693,None,,,,,,,,,,,,,,,,,,,,,,,,,,,,,,,,,,,Sing15,001,2022_Aug_04_1424,ProdSingRedoBetween,2021.2.3,60.050033688054526,
64,0,64,0,,,,,,,,,,,,,,,,,,,,,,,,,,403.8316738,None,individual,46,65,sing,blue,401.8311222,None,None,401.8311222,None,,,,,,,,,,,,,,,,,,,,,,,,,,,,,,,,,,,Sing15,001,2022_Aug_04_1424,ProdSingRedoBetween,2021.2.3,60.050033688054526,
65,0,65,0,,,,,,,,,,,,,,,,,,,,,,,,,,406.33429720000004,None,chief,16,66,sing,yellow,404.33294190000004,None,None,404.33294190000004,None,,,,,,,,,,,,,,,,,,,,,,,,,,,,,,,,,,,Sing15,001,2022_Aug_04_1424,ProdSingRedoBetween,2021.2.3,60.050033688054526,
66,0,66,0,,,,,,,,,,,,,,,,,,,,,,,,,,408.85341689999996,None,theme,80,67,sing,red,406.83809069999995,None,None,406.83809069999995,None,,,,,,,,,,,,,,,,,,,,,,,,,,,,,,,,,,,Sing15,001,2022_Aug_04_1424,ProdSingRedoBetween,2021.2.3,60.050033688054526,
67,0,67,0,,,,,,,,,,,,,,,,,,,,,,,,,,411.35596499999997,None,household,87,68,sing,red,409.35578680000003,None,None,409.35578680000003,None,,,,,,,,,,,,,,,,,,,,,,,,,,,,,,,,,,,Sing15,001,2022_Aug_04_1424,ProdSingRedoBetween,2021.2.3,60.050033688054526,
68,0,68,0,,,,,,,,,,,,,,,,,,,,,,,,,,413.87512620000007,None,break,25,69,sing,yellow,411.8617727000001,None,None,411.8617727000001,None,,,,,,,,,,,,,,,,,,,,,,,,,,,,,,,,,,,Sing15,001,2022_Aug_04_1424,ProdSingRedoBetween,2021.2.3,60.050033688054526,
69,0,69,0,,,,,,,,,,,,,,,,,,,,,,,,,,416.3775742999999,None,department,78,70,sing,red,414.37835010000003,None,None,414.37835010000003,None,,,,,,,,,,,,,,,,,,,,,,,,,,,,,,,,,,,Sing15,001,2022_Aug_04_1424,ProdSingRedoBetween,2021.2.3,60.050033688054526,
70,0,70,0,,,,,,,,,,,,,,,,,,,,,,,,,,418.8968027000001,None,smooth,37,71,sing,blue,416.88136729999997,None,None,416.88136729999997,None,,,,,,,,,,,,,,,,,,,,,,,,,,,,,,,,,,,Sing15,001,2022_Aug_04_1424,ProdSingRedoBetween,2021.2.3,60.050033688054526,
71,0,71,0,,,,,,,,,,,,,,,,,,,,,,,,,,421.3990506,None,alert,21,72,sing,yellow,419.3989941,None,None,419.3989941,None,,,,,,,,,,,,,,,,,,,,,,,,,,,,,,,,,,,Sing15,001,2022_Aug_04_1424,ProdSingRedoBetween,2021.2.3,60.050033688054526,
72,0,72,0,,,,,,,,,,,,,,,,,,,,,,,,,,423.9018274,None,danger,0,73,sing,yellow,421.90042300000005,None,None,421.90042300000005,None,,,,,,,,,,,,,,,,,,,,,,,,,,,,,,,,,,,Sing15,001,2022_Aug_04_1424,ProdSingRedoBetween,2021.2.3,60.050033688054526,
73,0,73,0,,,,,,,,,,,,,,,,,,,,,,,,,,426.4207308,None,union,59,74,sing,yellow,424.40595529999996,None,None,424.40595529999996,None,,,,,,,,,,,,,,,,,,,,,,,,,,,,,,,,,,,Sing15,001,2022_Aug_04_1424,ProdSingRedoBetween,2021.2.3,60.050033688054526,
74,0,74,0,,,,,,,,,,,,,,,,,,,,,,,,,,428.9399183999999,None,science,22,75,sing,yellow,426.9266768,None,None,426.9266768,None,,,,,,,,,,,,,,,,,,,,,,,,,,,,,,,,,,,Sing15,001,2022_Aug_04_1424,ProdSingRedoBetween,2021.2.3,60.050033688054526,
75,0,75,0,,,,,,,,,,,,,,,,,,,,,,,,,,431.44231790000003,None,pressure,33,76,sing,blue,429.44045989999995,None,None,429.44045989999995,None,,,,,,,,,,,,,,,,,,,,,,,,,,,,,,,,,,,Sing15,001,2022_Aug_04_1424,ProdSingRedoBetween,2021.2.3,60.050033688054526,
76,0,76,0,,,,,,,,,,,,,,,,,,,,,,,,,,433.9448006,None,tennis,72,77,sing,red,431.9429479999999,None,None,431.9429479999999,None,,,,,,,,,,,,,,,,,,,,,,,,,,,,,,,,,,,Sing15,001,2022_Aug_04_1424,ProdSingRedoBetween,2021.2.3,60.050033688054526,
77,0,77,0,,,,,,,,,,,,,,,,,,,,,,,,,,436.4475973000001,None,straight,74,78,sing,red,434.4462747,None,None,434.4462747,None,,,,,,,,,,,,,,,,,,,,,,,,,,,,,,,,,,,Sing15,001,2022_Aug_04_1424,ProdSingRedoBetween,2021.2.3,60.050033688054526,
78,0,78,0,,,,,,,,,,,,,,,,,,,,,,,,,,438.9666766999999,None,suggestion,84,79,sing,red,436.9552180999999,None,None,436.9552180999999,None,,,,,,,,,,,,,,,,,,,,,,,,,,,,,,,,,,,Sing15,001,2022_Aug_04_1424,ProdSingRedoBetween,2021.2.3,60.050033688054526,
79,0,79,0,,,,,,,,,,,,,,,,,,,,,,,,,,441.469339,None,burden,49,80,sing,blue,439.4672940999999,None,None,439.4672940999999,None,,,,,,,,,,,,,,,,,,,,,,,,,,,,,,,,,,,Sing15,001,2022_Aug_04_1424,ProdSingRedoBetween,2021.2.3,60.050033688054526,
80,0,80,0,,,,,,,,,,,,,,,,,,,,,,,,,,443.9718255,None,dream,75,81,sing,red,441.9720113000001,None,None,441.9720113000001,None,,,,,,,,,,,,,,,,,,,,,,,,,,,,,,,,,,,Sing15,001,2022_Aug_04_1424,ProdSingRedoBetween,2021.2.3,60.050033688054526,
81,0,81,0,,,,,,,,,,,,,,,,,,,,,,,,,,446.4907427999999,None,relation,58,82,sing,blue,444.47523150000006,None,None,444.47523150000006,None,,,,,,,,,,,,,,,,,,,,,,,,,,,,,,,,,,,Sing15,001,2022_Aug_04_1424,ProdSingRedoBetween,2021.2.3,60.050033688054526,
82,0,82,0,,,,,,,,,,,,,,,,,,,,,,,,,,448.9935137,None,count,62,83,sing,red,446.9928241,None,None,446.9928241,None,,,,,,,,,,,,,,,,,,,,,,,,,,,,,,,,,,,Sing15,001,2022_Aug_04_1424,ProdSingRedoBetween,2021.2.3,60.050033688054526,
83,0,83,0,,,,,,,,,,,,,,,,,,,,,,,,,,451.512661,None,revolution,2,84,sing,yellow,449.4991385000001,None,None,449.4991385000001,None,,,,,,,,,,,,,,,,,,,,,,,,,,,,,,,,,,,Sing15,001,2022_Aug_04_1424,ProdSingRedoBetween,2021.2.3,60.050033688054526,
84,0,84,0,,,,,,,,,,,,,,,,,,,,,,,,,,454.0149237999999,None,travel,71,85,sing,red,452.01459279999995,None,None,452.01459279999995,None,,,,,,,,,,,,,,,,,,,,,,,,,,,,,,,,,,,Sing15,001,2022_Aug_04_1424,ProdSingRedoBetween,2021.2.3,60.050033688054526,
85,0,85,0,,,,,,,,,,,,,,,,,,,,,,,,,,456.53445149999993,None,machinery,12,86,sing,yellow,454.5217057,None,None,454.5217057,None,,,,,,,,,,,,,,,,,,,,,,,,,,,,,,,,,,,Sing15,001,2022_Aug_04_1424,ProdSingRedoBetween,2021.2.3,60.050033688054526,
86,0,86,0,,,,,,,,,,,,,,,,,,,,,,,,,,459.0533820999999,None,direction,20,87,sing,yellow,457.0383004,None,None,457.0383004,None,,,,,,,,,,,,,,,,,,,,,,,,,,,,,,,,,,,Sing15,001,2022_Aug_04_1424,ProdSingRedoBetween,2021.2.3,60.050033688054526,
87,0,87,0,,,,,,,,,,,,,,,,,,,,,,,,,,461.5558165,None,phrase,67,88,sing,red,459.5539873,None,None,459.5539873,None,,,,,,,,,,,,,,,,,,,,,,,,,,,,,,,,,,,Sing15,001,2022_Aug_04_1424,ProdSingRedoBetween,2021.2.3,60.050033688054526,
88,0,88,0,,,,,,,,,,,,,,,,,,,,,,,,,,464.0582866,None,poetry,3,89,sing,yellow,462.0563594,None,None,462.0563594,None,,,,,,,,,,,,,,,,,,,,,,,,,,,,,,,,,,,Sing15,001,2022_Aug_04_1424,ProdSingRedoBetween,2021.2.3,60.050033688054526,
89,0,89,0,,,,,,,,,,,,,,,,,,,,,,,,,,466.5609534,None,smell,28,90,sing,yellow,464.5611761,None,None,464.5611761,None,,,,,,,,,,,,,,,,,,,,,,,,,,,,,,,,,,,Sing15,001,2022_Aug_04_1424,ProdSingRedoBetween,2021.2.3,60.050033688054526,
,,,,,,,,,,,,,,,,,,,,,,,,,,,,,,,,,,,,,,,,,467.0619127,None,k,92.88592859999994,467.0619127,None,,,,,,,,,,,,,,,,,,,,,,,,,,,,,Sing15,001,2022_Aug_04_1424,ProdSingRedoBetween,2021.2.3,60.050033688054526,
,,,,0,0,0,0,,,,,,,,,,,,,,,,,,,,,,577.1378937,None,,,,,,,,,,,,,,,,,pattern,85,1,sing,old,red,560.4736942,None,560.4736942,None,5,12.58624789999999,560.4736942,None,12.58624789999999,573.0851304999999,None,573.5905984000001,None,573.5905984000001,None,r,3.5173221000000012,573.5905984000001,None,3.5173221000000012,,,Sing15,001,2022_Aug_04_1424,ProdSingRedoBetween,2021.2.3,60.050033688054526,
,,,,1,0,1,0,,,,,,,,,,,,,,,,,,,,,,584.3950500999999,None,,,,,,,,,,,,,,,,,nation,147,2,sing,new,null,577.6497566999999,None,577.6497566999999,None,3,4.330191099999865,577.6497566999999,None,4.330191099999865,582.0101520000001,None,582.5161295999999,None,582.5161295999999,None,n,1.8637638000000152,582.5161295999999,None,1.8637638000000152,,,Sing15,001,2022_Aug_04_1424,ProdSingRedoBetween,2021.2.3,60.050033688054526,
,,,,2,0,2,0,,,,,,,,,,,,,,,,,,,,,,591.1019753,None,,,,,,,,,,,,,,,,,concern,175,3,sing,new,null,584.9013838999999,None,584.9013838999999,None,3,4.102587000000085,584.9013838999999,None,4.102587000000085,589.0340392999999,None,589.5378553,None,589.5378553,None,f,1.5380655999999817,589.5378553,None,1.5380655999999817,,,Sing15,001,2022_Aug_04_1424,ProdSingRedoBetween,2021.2.3,60.050033688054526,
,,,,3,0,3,0,,,,,,,,,,,,,,,,,,,,,,597.5082167999999,None,,,,,,,,,,,,,,,,,finance,104,4,sing,new,null,591.6095071,None,591.6095071,None,2,3.0744399000000158,591.6095071,None,3.0744399000000158,594.706713,None,595.2084311000001,None,595.2084311000001,None,n,2.2834762999998475,595.2084311000001,None,2.2834762999998475,,,Sing15,001,2022_Aug_04_1424,ProdSingRedoBetween,2021.2.3,60.050033688054526,
,,,,4,0,4,0,,,,,,,,,,,,,,,,,,,,,,602.9969179,None,,,,,,,,,,,,,,,,,express,19,5,sing,old,yellow,598.0169205,None,598.0169205,None,4,3.1229749000001448,598.0169205,None,3.1229749000001448,601.1632792999999,None,601.6667944999999,None,601.6667944999999,None,f,1.3131834999999228,601.6667944999999,None,1.3131834999999228,,,Sing15,001,2022_Aug_04_1424,ProdSingRedoBetween,2021.2.3,60.050033688054526,
,,,,5,0,5,0,,,,,,,,,,,,,,,,,,,,,,610.9884255,None,,,,,,,,,,,,,,,,,frank,133,6,sing,new,null,603.5081617999999,None,603.5081617999999,None,1,5.5117140999998355,603.5081617999999,None,5.5117140999998355,609.0380677999999,None,609.5422902999999,None,609.5422902999999,None,n,1.421596000000136,609.5422902999999,None,1.421596000000136,,,Sing15,001,2022_Aug_04_1424,ProdSingRedoBetween,2021.2.3,60.050033688054526,
,,,,6,0,6,0,,,,,,,,,,,,,,,,,,,,,,616.6439293000001,None,,,,,,,,,,,,,,,,,revolution,2,7,sing,old,yellow,611.4919041999999,None,611.4919041999999,None,5,3.4559580000000096,611.4919041999999,None,3.4559580000000096,614.9765722,None,615.4838440999999,None,615.4838440999999,None,r,1.1361801000000469,615.4838440999999,None,1.1361801000000469,,,Sing15,001,2022_Aug_04_1424,ProdSingRedoBetween,2021.2.3,60.050033688054526,
,,,,7,0,7,0,,,,,,,,,,,,,,,,,,,,,,623.5009425000001,None,,,,,,,,,,,,,,,,,column,54,8,sing,old,blue,617.1538980999999,None,617.1538980999999,None,4,3.6899908999998843,617.1538980999999,None,3.6899908999998843,620.8658588000001,None,621.3710917999999,None,621.3710917999999,None,f,2.1127665000001343,621.3710917999999,None,2.1127665000001343,,,Sing15,001,2022_Aug_04_1424,ProdSingRedoBetween,2021.2.3,60.050033688054526,
,,,,8,0,8,0,,,,,,,,,,,,,,,,,,,,,,629.2065665,None,,,,,,,,,,,,,,,,,conference,11,9,sing,old,yellow,624.0042814000001,None,624.0042814000001,None,6,3.0077722000000904,624.0042814000001,None,3.0077722000000904,627.0481285000001,None,627.5549873,None,627.5549873,None,r,1.6329757000000882,627.5549873,None,1.6329757000000882,,,Sing15,001,2022_Aug_04_1424,ProdSingRedoBetween,2021.2.3,60.050033688054526,
,,,,9,0,9,0,,,,,,,,,,,,,,,,,,,,,,632.9281793,None,,,,,,,,,,,,,,,,,salary,44,10,sing,old,blue,629.7151366,None,629.7151366,None,3,2.296694000000116,629.7151366,None,2.296694000000116,632.0434740000001,None,632.5474469000001,None,632.5474469000001,None,f,0.3525227999998606,632.5474469000001,None,0.3525227999998606,,,Sing15,001,2022_Aug_04_1424,ProdSingRedoBetween,2021.2.3,60.050033688054526,
,,,,10,0,10,0,,,,,,,,,,,,,,,,,,,,,,638.1987601000001,None,,,,,,,,,,,,,,,,,youth,111,11,sing,new,null,633.433471,None,633.433471,None,2,3.370316399999865,633.433471,None,3.370316399999865,636.8318566,None,637.3376678,None,637.3376678,None,n,0.8421790000002147,637.3376678,None,0.8421790000002147,,,Sing15,001,2022_Aug_04_1424,ProdSingRedoBetween,2021.2.3,60.050033688054526,
,,,,11,0,11,0,,,,,,,,,,,,,,,,,,,,,,643.1703669999999,None,,,,,,,,,,,,,,,,,reading,158,12,sing,new,null,638.7085453,None,638.7085453,None,4,2.8472897999999986,638.7085453,None,2.8472897999999986,641.5861963,None,642.0883683,None,642.0883683,None,f,1.0514677999999549,642.0883683,None,1.0514677999999549,,,Sing15,001,2022_Aug_04_1424,ProdSingRedoBetween,2021.2.3,60.050033688054526,
,,,,12,0,12,0,,,,,,,,,,,,,,,,,,,,,,649.8436548,None,,,,,,,,,,,,,,,,,department,78,13,sing,old,red,643.6736874999999,None,643.6736874999999,None,4,3.66604540000003,643.6736874999999,None,3.66604540000003,647.3592398999999,None,647.8622256000001,None,647.8622256000001,None,f,1.9656099999999697,647.8622256000001,None,1.9656099999999697,,,Sing15,001,2022_Aug_04_1424,ProdSingRedoBetween,2021.2.3,60.050033688054526,
,,,,13,0,13,0,,,,,,,,,,,,,,,,,,,,,,654.8654098,None,,,,,,,,,,,,,,,,,service,9,14,sing,old,yellow,650.3471451,None,650.3471451,None,6,2.9846288000001095,650.3471451,None,2.9846288000001095,653.3488345000001,None,653.8539297,None,653.8539297,None,r,0.9819821999999476,653.8539297,None,0.9819821999999476,,,Sing15,001,2022_Aug_04_1424,ProdSingRedoBetween,2021.2.3,60.050033688054526,
,,,,14,0,14,0,,,,,,,,,,,,,,,,,,,,,,659.1529828,None,,,,,,,,,,,,,,,,,charter,148,15,sing,new,null,655.3690766,None,655.3690766,None,1,1.5867880000000696,655.3690766,None,1.5867880000000696,656.9891290999999,None,657.5016439999999,None,657.5016439999999,None,n,1.6222503999999844,657.5016439999999,None,1.6222503999999844,,,Sing15,001,2022_Aug_04_1424,ProdSingRedoBetween,2021.2.3,60.050033688054526,
,,,,15,0,15,0,,,,,,,,,,,,,,,,,,,,,,663.2105627999999,None,,,,,,,,,,,,,,,,,property,163,16,sing,new,null,659.6620143,None,659.6620143,None,1,2.005835100000013,659.6620143,None,2.005835100000013,661.6936430000001,None,662.2090221000001,None,662.2090221000001,None,n,0.9789158999999472,662.2090221000001,None,0.9789158999999472,,,Sing15,001,2022_Aug_04_1424,ProdSingRedoBetween,2021.2.3,60.050033688054526,
,,,,16,0,16,0,,,,,,,,,,,,,,,,,,,,,,668.4122993000001,None,,,,,,,,,,,,,,,,,spoke,165,17,sing,new,null,663.7308321999999,None,663.7308321999999,None,3,2.8890727000000425,663.7308321999999,None,2.8890727000000425,666.6517154000001,None,667.1613378,None,667.1613378,None,n,1.2264932999999019,667.1613378,None,1.2264932999999019,,,Sing15,001,2022_Aug_04_1424,ProdSingRedoBetween,2021.2.3,60.050033688054526,
,,,,17,0,17,0,,,,,,,,,,,,,,,,,,,,,,674.0683838,None,,,,,,,,,,,,,,,,,resistance,7,18,sing,old,yellow,668.9208189999999,None,668.9208189999999,None,6,2.267189700000017,668.9208189999999,None,2.267189700000017,671.2266678000001,None,671.7364465,None,671.7364465,None,r,2.315403300000071,671.7364465,None,2.315403300000071,,,Sing15,001,2022_Aug_04_1424,ProdSingRedoBetween,2021.2.3,60.050033688054526,
,,,,18,0,18,0,,,,,,,,,,,,,,,,,,,,,,682.793535,None,,,,,,,,,,,,,,,,,bright,41,19,sing,old,blue,674.5751138,None,674.5751138,None,4,2.4927536000000146,674.5751138,None,2.4927536000000146,677.0897384,None,677.6049379000001,None,677.6049379000001,None,f,5.166903899999852,677.6049379000001,None,5.166903899999852,,,Sing15,001,2022_Aug_04_1424,ProdSingRedoBetween,2021.2.3,60.050033688054526,
,,,,19,0,19,0,,,,,,,,,,,,,,,,,,,,,,687.8483781,None,,,,,,,,,,,,,,,,,captain,157,20,sing,new,null,683.3041800999999,None,683.3041800999999,None,1,3.2275825000001532,683.3041800999999,None,3.2275825000001532,686.5483796999999,None,687.0497115999999,None,687.0497115999999,None,n,0.7781098000000384,687.0497115999999,None,0.7781098000000384,,,Sing15,001,2022_Aug_04_1424,ProdSingRedoBetween,2021.2.3,60.050033688054526,
,,,,20,0,20,0,,,,,,,,,,,,,,,,,,,,,,693.8876318,None,,,,,,,,,,,,,,,,,produce,32,21,sing,old,blue,688.3518071999999,None,688.3518071999999,None,5,3.7720162999999047,688.3518071999999,None,3.7720162999999047,692.1535896,None,692.6589635999999,None,692.6589635999999,None,r,1.2088733000000502,692.6589635999999,None,1.2088733000000502,,,Sing15,001,2022_Aug_04_1424,ProdSingRedoBetween,2021.2.3,60.050033688054526,
,,,,21,0,21,0,,,,,,,,,,,,,,,,,,,,,,699.6101908999999,None,,,,,,,,,,,,,,,,,notice,88,22,sing,old,red,694.396326,None,694.396326,None,4,3.519447499999842,694.396326,None,3.519447499999842,697.942757,None,698.4448894,None,698.4448894,None,r,1.1429209000000355,698.4448894,None,1.1429209000000355,,,Sing15,001,2022_Aug_04_1424,ProdSingRedoBetween,2021.2.3,60.050033688054526,
,,,,22,0,22,0,,,,,,,,,,,,,,,,,,,,,,706.2166004000001,None,,,,,,,,,,,,,,,,,silence,140,23,sing,new,null,700.1214123,None,700.1214123,None,3,4.650316300000213,700.1214123,None,4.650316300000213,704.7999992,None,705.3097063,None,705.3097063,None,n,0.8860955999998623,705.3097063,None,0.8860955999998623,,,Sing15,001,2022_Aug_04_1424,ProdSingRedoBetween,2021.2.3,60.050033688054526,
,,,,23,0,23,0,,,,,,,,,,,,,,,,,,,,,,711.6555535,None,,,,,,,,,,,,,,,,,cover,14,24,sing,old,yellow,706.7257334000001,None,706.7257334000001,None,3,3.078011800000013,706.7257334000001,None,3.078011800000013,709.8203960000001,None,710.3242049,None,710.3242049,None,f,1.3116124000000582,710.3242049,None,1.3116124000000582,,,Sing15,001,2022_Aug_04_1424,ProdSingRedoBetween,2021.2.3,60.050033688054526,
,,,,24,0,24,0,,,,,,,,,,,,,,,,,,,,,,716.6937330999999,None,,,,,,,,,,,,,,,,,throw,145,25,sing,new,null,712.1638511000001,None,712.1638511000001,None,3,2.183854500000052,712.1638511000001,None,2.183854500000052,714.3757545000001,None,714.8782174999999,None,714.8782174999999,None,f,1.797485399999914,714.8782174999999,None,1.797485399999914,,,Sing15,001,2022_Aug_04_1424,ProdSingRedoBetween,2021.2.3,60.050033688054526,
,,,,25,0,25,0,,,,,,,,,,,,,,,,,,,,,,721.4986062,None,,,,,,,,,,,,,,,,,command,119,26,sing,new,null,717.1943584,None,717.1943584,None,2,2.9454030000001694,717.1943584,None,2.9454030000001694,720.1649505,None,720.6685468000001,None,720.6685468000001,None,n,0.8072617999998783,720.6685468000001,None,0.8072617999998783,,,Sing15,001,2022_Aug_04_1424,ProdSingRedoBetween,2021.2.3,60.050033688054526,
,,,,26,0,26,0,,,,,,,,,,,,,,,,,,,,,,726.8877226,None,,,,,,,,,,,,,,,,,crisis,23,27,sing,old,yellow,722.0023472,None,722.0023472,None,3,3.4254212000000734,722.0023472,None,3.4254212000000734,725.4535989999999,None,725.9589662000001,None,725.9589662000001,None,n,0.9008077000000867,725.9589662000001,None,0.9008077000000867,,,Sing15,001,2022_Aug_04_1424,ProdSingRedoBetween,2021.2.3,60.050033688054526,
,,,,27,0,27,0,,,,,,,,,,,,,,,,,,,,,,731.8922752999999,None,,,,,,,,,,,,,,,,,community,64,28,sing,old,red,727.3909701,None,727.3909701,None,3,3.7167460999999093,727.3909701,None,3.7167460999999093,731.1260915,None,731.6294845,None,731.6294845,None,n,0.24627809999992678,731.6294845,None,0.24627809999992678,,,Sing15,001,2022_Aug_04_1424,ProdSingRedoBetween,2021.2.3,60.050033688054526,
,,,,28,0,28,0,,,,,,,,,,,,,,,,,,,,,,737.0809773000001,None,,,,,,,,,,,,,,,,,error,100,29,sing,new,null,732.4026785000001,None,732.4026785000001,None,3,3.521171099999947,732.4026785000001,None,3.521171099999947,735.9521525,None,736.4694298,None,736.4694298,None,n,0.5824098000000504,736.4694298,None,0.5824098000000504,,,Sing15,001,2022_Aug_04_1424,ProdSingRedoBetween,2021.2.3,60.050033688054526,
,,,,29,0,29,0,,,,,,,,,,,,,,,,,,,,,,742.1858904000001,None,,,,,,,,,,,,,,,,,story,149,30,sing,new,null,737.5894567999999,None,737.5894567999999,None,3,1.6943017999999483,737.5894567999999,None,1.6943017999999483,739.3010261,None,739.8055399,None,739.8055399,None,f,2.3501582999999755,739.8055399,None,2.3501582999999755,,,Sing15,001,2022_Aug_04_1424,ProdSingRedoBetween,2021.2.3,60.050033688054526,
,,,,30,0,30,0,,,,,,,,,,,,,,,,,,,,,,747.2409292,None,,,,,,,,,,,,,,,,,alert,21,31,sing,old,yellow,742.6951991000001,None,742.6951991000001,None,4,2.6685439000000315,742.6951991000001,None,2.6685439000000315,745.3891891000001,None,745.8955888,None,745.8955888,None,f,1.324186999999938,745.8955888,None,1.324186999999938,,,Sing15,001,2022_Aug_04_1424,ProdSingRedoBetween,2021.2.3,60.050033688054526,
,,,,31,0,31,0,,,,,,,,,,,,,,,,,,,,,,753.5806802,None,,,,,,,,,,,,,,,,,chief,16,32,sing,old,yellow,747.7434189,None,747.7434189,None,6,2.9485718999999335,747.7434189,None,2.9485718999999335,750.7132009,None,751.2322836999999,None,751.2322836999999,None,r,2.3233824999999797,751.2322836999999,None,2.3233824999999797,,,Sing15,001,2022_Aug_04_1424,ProdSingRedoBetween,2021.2.3,60.050033688054526,
,,,,32,0,32,0,,,,,,,,,,,,,,,,,,,,,,759.1361893000001,None,,,,,,,,,,,,,,,,,quantity,34,33,sing,old,blue,754.0823353999999,None,754.0823353999999,None,3,4.353531599999997,754.0823353999999,None,4.353531599999997,758.4597961,None,758.9748978,None,758.9748978,None,n,0.1329044999999951,758.9748978,None,0.1329044999999951,,,Sing15,001,2022_Aug_04_1424,ProdSingRedoBetween,2021.2.3,60.050033688054526,
,,,,33,0,33,0,,,,,,,,,,,,,,,,,,,,,,765.8594760999999,None,,,,,,,,,,,,,,,,,measure,172,34,sing,new,null,759.6447839,None,759.6447839,None,5,4.422785299999987,759.6447839,None,4.422785299999987,764.0946142,None,764.6127269000001,None,764.6127269000001,None,f,1.230935099999897,764.6127269000001,None,1.230935099999897,,,Sing15,001,2022_Aug_04_1424,ProdSingRedoBetween,2021.2.3,60.050033688054526,
,,,,34,0,34,0,,,,,,,,,,,,,,,,,,,,,,771.3482672,None,,,,,,,,,,,,,,,,,build,160,35,sing,new,null,766.3663773999999,None,766.3663773999999,None,4,3.613333799999964,766.3663773999999,None,3.613333799999964,769.9968974999999,None,770.5020443000001,None,770.5020443000001,None,f,0.8297105999999985,770.5020443000001,None,0.8297105999999985,,,Sing15,001,2022_Aug_04_1424,ProdSingRedoBetween,2021.2.3,60.050033688054526,
,,,,35,0,35,0,,,,,,,,,,,,,,,,,,,,,,774.4847746999999,None,,,,,,,,,,,,,,,,,quick,17,36,sing,old,yellow,771.8632296000001,None,771.8632296000001,None,3,2.0044354000001476,771.8632296000001,None,2.0044354000001476,773.8856980999999,None,774.3908067,None,774.3908067,None,n,0.07690709999997125,774.3908067,None,0.07690709999997125,,,Sing15,001,2022_Aug_04_1424,ProdSingRedoBetween,2021.2.3,60.050033688054526,
,,,,36,0,36,0,,,,,,,,,,,,,,,,,,,,,,780.8077687,None,,,,,,,,,,,,,,,,,profession,60,37,sing,old,red,774.9954152999999,None,774.9954152999999,None,5,4.2244267999999465,774.9954152999999,None,4.2244267999999465,779.2512944,None,779.7655099000001,None,779.7655099000001,None,r,1.0141929999999775,779.7655099000001,None,1.0141929999999775,,,Sing15,001,2022_Aug_04_1424,ProdSingRedoBetween,2021.2.3,60.050033688054526,
,,,,37,0,37,0,,,,,,,,,,,,,,,,,,,,,,789.5331415999999,None,,,,,,,,,,,,,,,,,grade,70,38,sing,old,red,781.3231089999999,None,781.3231089999999,None,4,6.568536600000016,781.3231089999999,None,6.568536600000016,787.9206531,None,788.4335510999999,None,788.4335510999999,None,n,1.0741617000001042,788.4335510999999,None,1.0741617000001042,,,Sing15,001,2022_Aug_04_1424,ProdSingRedoBetween,2021.2.3,60.050033688054526,
,,,,38,0,38,0,,,,,,,,,,,,,,,,,,,,,,798.4254066999999,None,,,,,,,,,,,,,,,,,victory,159,39,sing,new,null,790.0430071999999,None,790.0430071999999,None,5,6.1686803000000054,790.0430071999999,None,6.1686803000000054,796.2412443000001,None,796.7464117,None,796.7464117,None,f,1.6572955999999976,796.7464117,None,1.6572955999999976,,,Sing15,001,2022_Aug_04_1424,ProdSingRedoBetween,2021.2.3,60.050033688054526,
,,,,39,0,39,0,,,,,,,,,,,,,,,,,,,,,,807.4012553,None,,,,,,,,,,,,,,,,,military,38,40,sing,old,blue,798.9291989000001,None,798.9291989000001,None,3,5.098461100000122,798.9291989000001,None,5.098461100000122,804.0487459000001,None,804.5509380999999,None,804.5509380999999,None,f,2.8207371000000876,804.5509380999999,None,2.8207371000000876,,,Sing15,001,2022_Aug_04_1424,ProdSingRedoBetween,2021.2.3,60.050033688054526,
,,,,40,0,40,0,,,,,,,,,,,,,,,,,,,,,,810.5708744000001,None,,,,,,,,,,,,,,,,,smooth,37,41,sing,old,blue,807.9101462000001,None,807.9101462000001,None,3,2.053558399999929,807.9101462000001,None,2.053558399999929,809.9880272,None,810.4920388,None,810.4920388,None,n,0.04760590000000775,810.4920388,None,0.04760590000000775,,,Sing15,001,2022_Aug_04_1424,ProdSingRedoBetween,2021.2.3,60.050033688054526,
,,,,41,0,41,0,,,,,,,,,,,,,,,,,,,,,,813.7239099999999,None,,,,,,,,,,,,,,,,,background,143,42,sing,new,null,811.0909264,None,811.0909264,None,1,1.4247731000000385,811.0909264,None,1.4247731000000385,812.5414843000001,None,813.0599139000001,None,813.0599139000001,None,n,0.6476814999998624,813.0599139000001,None,0.6476814999998624,,,Sing15,001,2022_Aug_04_1424,ProdSingRedoBetween,2021.2.3,60.050033688054526,
,,,,42,0,42,0,,,,,,,,,,,,,,,,,,,,,,817.6283642000001,None,,,,,,,,,,,,,,,,,poetry,3,43,sing,old,yellow,814.2317505999999,None,814.2317505999999,None,6,2.7959642000000713,814.2317505999999,None,2.7959642000000713,817.0447240999999,None,817.544543,None,817.544543,None,r,0.059063700000024255,817.544543,None,0.059063700000024255,,,Sing15,001,2022_Aug_04_1424,ProdSingRedoBetween,2021.2.3,60.050033688054526,
,,,,43,0,43,0,,,,,,,,,,,,,,,,,,,,,,822.432618,None,,,,,,,,,,,,,,,,,machinery,12,44,sing,old,yellow,818.1321602999999,None,818.1321602999999,None,4,2.767513400000098,818.1321602999999,None,2.767513400000098,820.9186938999999,None,821.4355653,None,821.4355653,None,f,0.9761089999999513,821.4355653,None,0.9761089999999513,,,Sing15,001,2022_Aug_04_1424,ProdSingRedoBetween,2021.2.3,60.050033688054526,
,,,,44,0,44,0,,,,,,,,,,,,,,,,,,,,,,829.1894092,None,,,,,,,,,,,,,,,,,message,5,45,sing,old,yellow,822.9452114999999,None,822.9452114999999,None,5,4.466494699999885,822.9452114999999,None,4.466494699999885,827.4376001,None,827.9382278999999,None,827.9382278999999,None,r,1.2333730000000287,827.9382278999999,None,1.2333730000000287,,,Sing15,001,2022_Aug_04_1424,ProdSingRedoBetween,2021.2.3,60.050033688054526,
,,,,45,0,45,0,,,,,,,,,,,,,,,,,,,,,,834.1444024,None,,,,,,,,,,,,,,,,,individual,46,46,sing,old,blue,829.6977838999999,None,829.6977838999999,None,4,3.4258851999998114,829.6977838999999,None,3.4258851999998114,833.1434079999999,None,833.6440520000001,None,833.6440520000001,None,f,0.4716729000001578,833.6440520000001,None,0.4716729000001578,,,Sing15,001,2022_Aug_04_1424,ProdSingRedoBetween,2021.2.3,60.050033688054526,
,,,,46,0,46,0,,,,,,,,,,,,,,,,,,,,,,838.8844041,None,,,,,,,,,,,,,,,,,general,91,47,sing,new,null,834.6468471000001,None,834.6468471000001,None,4,2.8368067999999766,834.6468471000001,None,2.8368067999999766,837.5231398000001,None,838.0324165,None,838.0324165,None,f,0.8192328000000089,838.0324165,None,0.8192328000000089,,,Sing15,001,2022_Aug_04_1424,ProdSingRedoBetween,2021.2.3,60.050033688054526,
,,,,47,0,47,0,,,,,,,,,,,,,,,,,,,,,,844.5546746,None,,,,,,,,,,,,,,,,,corner,101,48,sing,new,null,839.4027796,None,839.4027796,None,3,3.624858000000131,839.4027796,None,3.624858000000131,843.0532000999999,None,843.5579909,None,843.5579909,None,n,0.9658282000000327,843.5579909,None,0.9658282000000327,,,Sing15,001,2022_Aug_04_1424,ProdSingRedoBetween,2021.2.3,60.050033688054526,
,,,,48,0,48,0,,,,,,,,,,,,,,,,,,,,,,849.4597162,None,,,,,,,,,,,,,,,,,fight,124,49,sing,new,null,845.0675065999999,None,845.0675065999999,None,3,2.608091899999863,845.0675065999999,None,2.608091899999863,847.6924846,None,848.1957695000001,None,848.1957695000001,None,n,1.247937200000024,848.1957695000001,None,1.247937200000024,,,Sing15,001,2022_Aug_04_1424,ProdSingRedoBetween,2021.2.3,60.050033688054526,
,,,,49,0,49,0,,,,,,,,,,,,,,,,,,,,,,857.0671422999999,None,,,,,,,,,,,,,,,,,broad,53,50,sing,old,blue,849.9634924,None,849.9634924,None,4,4.888136700000132,849.9634924,None,4.888136700000132,854.8816531,None,855.386546,None,855.386546,None,f,1.6491218000001027,855.386546,None,1.6491218000001027,,,Sing15,001,2022_Aug_04_1424,ProdSingRedoBetween,2021.2.3,60.050033688054526,
,,,,50,0,50,0,,,,,,,,,,,,,,,,,,,,,,862.0721452,None,,,,,,,,,,,,,,,,,pressure,33,51,sing,old,blue,857.5766265,None,857.5766265,None,6,2.619392800000014,857.5766265,None,2.619392800000014,860.2302763,None,860.7403308999999,None,860.7403308999999,None,r,1.3033265999999912,860.7403308999999,None,1.3033265999999912,,,Sing15,001,2022_Aug_04_1424,ProdSingRedoBetween,2021.2.3,60.050033688054526,
,,,,51,0,51,0,,,,,,,,,,,,,,,,,,,,,,865.7259561999999,None,,,,,,,,,,,,,,,,,state,135,52,sing,new,null,862.5820318000001,None,862.5820318000001,None,3,2.5335145000001376,862.5820318000001,None,2.5335145000001376,865.1434701999999,None,865.6459038999999,None,865.6459038999999,None,n,0.0536835999998857,865.6459038999999,None,0.0536835999998857,,,Sing15,001,2022_Aug_04_1424,ProdSingRedoBetween,2021.2.3,60.050033688054526,
,,,,52,0,52,0,,,,,,,,,,,,,,,,,,,,,,869.8299961,None,,,,,,,,,,,,,,,,,strain,154,53,sing,new,null,866.2352776,None,866.2352776,None,1,1.8723706999999195,866.2352776,None,1.8723706999999195,868.1295921999999,None,868.6334591,None,868.6334591,None,n,1.1701723999999558,868.6334591,None,1.1701723999999558,,,Sing15,001,2022_Aug_04_1424,ProdSingRedoBetween,2021.2.3,60.050033688054526,
,,,,53,0,53,0,,,,,,,,,,,,,,,,,,,,,,876.2196655,None,,,,,,,,,,,,,,,,,session,24,54,sing,old,yellow,870.3322567,None,870.3322567,None,5,2.983312699999942,870.3322567,None,2.983312699999942,873.3349224000001,None,873.8381750000001,None,873.8381750000001,None,r,2.3574700000001485,873.8381750000001,None,2.3574700000001485,,,Sing15,001,2022_Aug_04_1424,ProdSingRedoBetween,2021.2.3,60.050033688054526,
,,,,54,0,54,0,,,,,,,,,,,,,,,,,,,,,,880.8106972999999,None,,,,,,,,,,,,,,,,,swift,10,55,sing,old,yellow,876.7230622,None,876.7230622,None,6,2.1925390999999763,876.7230622,None,2.1925390999999763,878.9403654,None,879.4571071,None,879.4571071,None,r,1.322362000000112,879.4571071,None,1.322362000000112,,,Sing15,001,2022_Aug_04_1424,ProdSingRedoBetween,2021.2.3,60.050033688054526,
,,,,55,0,55,0,,,,,,,,,,,,,,,,,,,,,,884.394462,None,,,,,,,,,,,,,,,,,welcome,134,56,sing,new,null,881.3251006,None,881.3251006,None,1,1.758442099999911,881.3251006,None,1.758442099999911,883.1205067999999,None,883.6270646,None,883.6270646,None,n,0.7524536000000808,883.6270646,None,0.7524536000000808,,,Sing15,001,2022_Aug_04_1424,ProdSingRedoBetween,2021.2.3,60.050033688054526,
,,,,56,0,56,0,,,,,,,,,,,,,,,,,,,,,,889.0492026,None,,,,,,,,,,,,,,,,,guard,69,57,sing,old,red,884.9012233999999,None,884.9012233999999,None,4,3.046335400000089,884.9012233999999,None,3.046335400000089,887.9658124,None,888.4653418,None,888.4653418,None,f,0.5622973999998067,888.4653418,None,0.5622973999998067,,,Sing15,001,2022_Aug_04_1424,ProdSingRedoBetween,2021.2.3,60.050033688054526,
,,,,57,0,57,0,,,,,,,,,,,,,,,,,,,,,,893.7706378,None,,,,,,,,,,,,,,,,,management,18,58,sing,old,yellow,889.5631851,None,889.5631851,None,4,3.6243696999999884,889.5631851,None,3.6243696999999884,893.2043145,None,893.7059715999999,None,893.7059715999999,None,n,0.04952099999991333,893.7059715999999,None,0.04952099999991333,,,Sing15,001,2022_Aug_04_1424,ProdSingRedoBetween,2021.2.3,60.050033688054526,
,,,,58,0,58,0,,,,,,,,,,,,,,,,,,,,,,897.1406440000001,None,,,,,,,,,,,,,,,,,republic,155,59,sing,new,null,894.2844103,None,894.2844103,None,1,1.5352423999997882,894.2844103,None,1.5352423999997882,895.8398552000001,None,896.3465383,None,896.3465383,None,n,0.7770211999998082,896.3465383,None,0.7770211999998082,,,Sing15,001,2022_Aug_04_1424,ProdSingRedoBetween,2021.2.3,60.050033688054526,
,,,,59,0,59,0,,,,,,,,,,,,,,,,,,,,,,899.9934166999999,None,,,,,,,,,,,,,,,,,colonel,136,60,sing,new,null,897.6529747,None,897.6529747,None,1,1.4466116000000966,897.6529747,None,1.4466116000000966,899.1301282,None,899.6431814,None,899.6431814,None,n,0.32041469999990113,899.6431814,None,0.32041469999990113,,,Sing15,001,2022_Aug_04_1424,ProdSingRedoBetween,2021.2.3,60.050033688054526,
,,,,60,0,60,0,,,,,,,,,,,,,,,,,,,,,,906.6999934,None,,,,,,,,,,,,,,,,,government,171,61,sing,new,null,900.4978986000001,None,900.4978986000001,None,3,3.921707999999853,900.4978986000001,None,3.921707999999853,904.449153,None,904.9508266,None,904.9508266,None,f,1.7247323999999935,904.9508266,None,1.7247323999999935,,,Sing15,001,2022_Aug_04_1424,ProdSingRedoBetween,2021.2.3,60.050033688054526,
,,,,61,0,61,0,,,,,,,,,,,,,,,,,,,,,,911.3214777999999,None,,,,,,,,,,,,,,,,,graduate,35,62,sing,old,blue,907.2077750999999,None,907.2077750999999,None,5,3.1157878000001347,907.2077750999999,None,3.1157878000001347,910.3544694,None,910.8583186999999,None,910.8583186999999,None,r,0.44115199999987453,910.8583186999999,None,0.44115199999987453,,,Sing15,001,2022_Aug_04_1424,ProdSingRedoBetween,2021.2.3,60.050033688054526,
,,,,62,0,62,0,,,,,,,,,,,,,,,,,,,,,,918.6452996999999,None,,,,,,,,,,,,,,,,,place,13,63,sing,old,yellow,911.8298503000001,None,911.8298503000001,None,3,4.9017443000000185,911.8298503000001,None,4.9017443000000185,916.7610018,None,917.2644909,None,917.2644909,None,f,1.3632123999998385,917.2644909,None,1.3632123999998385,,,Sing15,001,2022_Aug_04_1424,ProdSingRedoBetween,2021.2.3,60.050033688054526,
,,,,63,0,63,0,,,,,,,,,,,,,,,,,,,,,,923.0830993,None,,,,,,,,,,,,,,,,,recall,68,64,sing,old,red,919.1458769000001,None,919.1458769000001,None,4,2.433744799999886,919.1458769000001,None,2.433744799999886,921.5982764,None,922.102993,None,922.102993,None,n,0.9565351999999621,922.102993,None,0.9565351999999621,,,Sing15,001,2022_Aug_04_1424,ProdSingRedoBetween,2021.2.3,60.050033688054526,
,,,,64,0,64,0,,,,,,,,,,,,,,,,,,,,,,929.7730194999999,None,,,,,,,,,,,,,,,,,travel,71,65,sing,old,red,923.592087,None,923.592087,None,5,4.7954429000001255,923.592087,None,4.7954429000001255,928.4064805,None,928.9116784999999,None,928.9116784999999,None,f,0.835881900000004,928.9116784999999,None,0.835881900000004,,,Sing15,001,2022_Aug_04_1424,ProdSingRedoBetween,2021.2.3,60.050033688054526,
,,,,65,0,65,0,,,,,,,,,,,,,,,,,,,,,,938.7487498,None,,,,,,,,,,,,,,,,,suggestion,84,66,sing,old,red,930.281837,None,930.281837,None,4,4.745863600000121,930.281837,None,4.745863600000121,935.0523129000001,None,935.5623005,None,935.5623005,None,f,3.1691920999999184,935.5623005,None,3.1691920999999184,,,Sing15,001,2022_Aug_04_1424,ProdSingRedoBetween,2021.2.3,60.050033688054526,
,,,,66,0,66,0,,,,,,,,,,,,,,,,,,,,,,945.8103722000001,None,,,,,,,,,,,,,,,,,comedy,169,67,sing,new,null,939.2522340999999,None,939.2522340999999,None,2,1.7831875000001673,939.2522340999999,None,1.7831875000001673,941.0523808999999,None,941.5551462999999,None,941.5551462999999,None,n,4.232341700000006,941.5551462999999,None,4.232341700000006,,,Sing15,001,2022_Aug_04_1424,ProdSingRedoBetween,2021.2.3,60.050033688054526,
,,,,67,0,67,0,,,,,,,,,,,,,,,,,,,,,,952.3457799,None,,,,,,,,,,,,,,,,,brilliant,82,68,sing,old,red,946.3283873999999,None,946.3283873999999,None,5,3.8191918999998506,946.3283873999999,None,3.8191918999998506,950.1776474999999,None,950.6805079000001,None,950.6805079000001,None,f,1.6349925000001804,950.6805079000001,None,1.6349925000001804,,,Sing15,001,2022_Aug_04_1424,ProdSingRedoBetween,2021.2.3,60.050033688054526,
,,,,68,0,68,0,,,,,,,,,,,,,,,,,,,,,,957.4507475,None,,,,,,,,,,,,,,,,,region,108,69,sing,new,null,952.8546736000001,None,952.8546736000001,None,3,2.8369152999998732,952.8546736000001,None,2.8369152999998732,955.7157233,None,956.217369,None,956.217369,None,n,1.218158399999993,956.217369,None,1.218158399999993,,,Sing15,001,2022_Aug_04_1424,ProdSingRedoBetween,2021.2.3,60.050033688054526,
,,,,69,0,69,0,,,,,,,,,,,,,,,,,,,,,,961.0920960000001,None,,,,,,,,,,,,,,,,,household,87,70,sing,old,red,957.9534194999999,None,957.9534194999999,None,3,2.2260843999999906,957.9534194999999,None,2.2260843999999906,960.2046912000001,None,960.7096697,None,960.7096697,None,n,0.35801839999999174,960.7096697,None,0.35801839999999174,,,Sing15,001,2022_Aug_04_1424,ProdSingRedoBetween,2021.2.3,60.050033688054526,
,,,,70,0,70,0,,,,,,,,,,,,,,,,,,,,,,963.8406216999999,None,,,,,,,,,,,,,,,,,point,167,71,sing,new,null,961.6131607,None,961.6131607,None,4,1.3744040999999925,961.6131607,None,1.3744040999999925,963.0061585999999,None,963.5095541999999,None,963.5095541999999,None,n,0.30992510000010043,963.5095541999999,None,0.30992510000010043,,,Sing15,001,2022_Aug_04_1424,ProdSingRedoBetween,2021.2.3,60.050033688054526,
,,,,71,0,71,0,,,,,,,,,,,,,,,,,,,,,,978.4550514,None,,,,,,,,,,,,,,,,,color,174,72,sing,new,null,964.3500273,None,964.3500273,None,4,11.389471200000116,964.3500273,None,11.389471200000116,975.7871252,None,976.2862565999999,None,976.2862565999999,None,f,2.149249200000213,976.2862565999999,None,2.149249200000213,,,Sing15,001,2022_Aug_04_1424,ProdSingRedoBetween,2021.2.3,60.050033688054526,
,,,,72,0,72,0,,,,,,,,,,,,,,,,,,,,,,983.1779019999999,None,,,,,,,,,,,,,,,,,relation,58,73,sing,old,blue,978.9636877999999,None,978.9636877999999,None,5,3.231785799999898,978.9636877999999,None,3.231785799999898,982.2262942,None,982.7365812,None,982.7365812,None,f,0.4189851000000999,982.7365812,None,0.4189851000000999,,,Sing15,001,2022_Aug_04_1424,ProdSingRedoBetween,2021.2.3,60.050033688054526,
,,,,73,0,73,0,,,,,,,,,,,,,,,,,,,,,,989.9677479,None,,,,,,,,,,,,,,,,,vision,137,74,sing,new,null,983.6849921999999,None,983.6849921999999,None,4,3.966495299999906,983.6849921999999,None,3.966495299999906,987.6819149999999,None,988.1813858,None,988.1813858,None,f,1.7661826999999448,988.1813858,None,1.7661826999999448,,,Sing15,001,2022_Aug_04_1424,ProdSingRedoBetween,2021.2.3,60.050033688054526,
,,,,74,0,74,0,,,,,,,,,,,,,,,,,,,,,,993.8704032,None,,,,,,,,,,,,,,,,,contract,107,75,sing,new,null,990.4731434999999,None,990.4731434999999,None,2,1.9862937999998849,990.4731434999999,None,1.9862937999998849,992.4867893,None,992.990088,None,992.990088,None,n,0.8615070999999261,992.990088,None,0.8615070999999261,,,Sing15,001,2022_Aug_04_1424,ProdSingRedoBetween,2021.2.3,60.050033688054526,
,,,,75,0,75,0,,,,,,,,,,,,,,,,,,,,,,998.8586923999999,None,,,,,,,,,,,,,,,,,surface,89,76,sing,old,red,994.3829085,None,994.3829085,None,5,3.492556899999954,994.3829085,None,3.492556899999954,997.8924027999999,None,998.3917418999999,None,998.3917418999999,None,r,0.4438228000001345,998.3917418999999,None,0.4438228000001345,,,Sing15,001,2022_Aug_04_1424,ProdSingRedoBetween,2021.2.3,60.050033688054526,
,,,,76,0,76,0,,,,,,,,,,,,,,,,,,,,,,1003.4631758,None,,,,,,,,,,,,,,,,,universal,156,77,sing,new,null,999.3762191000001,None,999.3762191000001,None,2,3.443381100000124,999.3762191000001,None,3.443381100000124,1002.8481284,None,1003.3687554999999,None,1003.3687554999999,None,n,0.06663499999990563,1003.3687554999999,None,0.06663499999990563,,,Sing15,001,2022_Aug_04_1424,ProdSingRedoBetween,2021.2.3,60.050033688054526,
,,,,77,0,77,0,,,,,,,,,,,,,,,,,,,,,,1009.8698729,None,,,,,,,,,,,,,,,,,growth,120,78,sing,new,null,1003.9638666000001,None,1003.9638666000001,None,4,3.8634930000000622,1003.9638666000001,None,3.8634930000000622,1007.8554436,None,1008.3683259,None,1008.3683259,None,f,1.4751495000000432,1008.3683259,None,1.4751495000000432,,,Sing15,001,2022_Aug_04_1424,ProdSingRedoBetween,2021.2.3,60.050033688054526,
,,,,78,0,78,0,,,,,,,,,,,,,,,,,,,,,,1015.8332221000001,None,,,,,,,,,,,,,,,,,break,25,79,sing,old,yellow,1010.3731313000001,None,1010.3731313000001,None,5,4.566447200000084,1010.3731313000001,None,4.566447200000084,1014.9594875,None,1015.4632626,None,1015.4632626,None,f,0.3324786000000586,1015.4632626,None,0.3324786000000586,,,Sing15,001,2022_Aug_04_1424,ProdSingRedoBetween,2021.2.3,60.050033688054526,
,,,,79,0,79,0,,,,,,,,,,,,,,,,,,,,,,1021.0476088999999,None,,,,,,,,,,,,,,,,,force,118,80,sing,new,null,1016.3496935999999,None,1016.3496935999999,None,3,3.8217807000000903,1016.3496935999999,None,3.8217807000000903,1020.1978824,None,1020.7023423999999,None,1020.7023423999999,None,n,0.3171800999998595,1020.7023423999999,None,0.3171800999998595,,,Sing15,001,2022_Aug_04_1424,ProdSingRedoBetween,2021.2.3,60.050033688054526,
,,,,80,0,80,0,,,,,,,,,,,,,,,,,,,,,,1026.7364891,None,,,,,,,,,,,,,,,,,straight,74,81,sing,old,red,1021.5559251,None,1021.5559251,None,6,3.4794560999998794,1021.5559251,None,3.4794560999998794,1025.0527413,None,1025.5521175,None,1025.5521175,None,r,1.155449200000021,1025.5521175,None,1.155449200000021,,,Sing15,001,2022_Aug_04_1424,ProdSingRedoBetween,2021.2.3,60.050033688054526,
,,,,81,0,81,0,,,,,,,,,,,,,,,,,,,,,,1030.8095838,None,,,,,,,,,,,,,,,,,medicine,146,82,sing,new,null,1027.2423128,None,1027.2423128,None,2,2.5691355999999814,1027.2423128,None,2.5691355999999814,1029.8429573,None,1030.3568865,None,1030.3568865,None,n,0.43063280000001214,1030.3568865,None,0.43063280000001214,,,Sing15,001,2022_Aug_04_1424,ProdSingRedoBetween,2021.2.3,60.050033688054526,
,,,,82,0,82,0,,,,,,,,,,,,,,,,,,,,,,1034.1441964,None,,,,,,,,,,,,,,,,,taste,153,83,sing,new,null,1031.3329667,None,1031.3329667,None,3,1.8304367999999158,1031.3329667,None,1.8304367999999158,1033.1939425,None,1033.6936679,None,1033.6936679,None,n,0.42164470000011534,1033.6936679,None,0.42164470000011534,,,Sing15,001,2022_Aug_04_1424,ProdSingRedoBetween,2021.2.3,60.050033688054526,
,,,,83,0,83,0,,,,,,,,,,,,,,,,,,,,,,1037.8475294,None,,,,,,,,,,,,,,,,,crowd,114,84,sing,new,null,1034.65357,None,1034.65357,None,5,2.5258303000000524,1034.65357,None,2.5258303000000524,1037.1980978,None,1037.7016458,None,1037.7016458,None,n,0.11778220000019246,1037.7016458,None,0.11778220000019246,,,Sing15,001,2022_Aug_04_1424,ProdSingRedoBetween,2021.2.3,60.050033688054526,
,,,,84,0,84,0,,,,,,,,,,,,,,,,,,,,,,1041.851675,None,,,,,,,,,,,,,,,,,cross,31,85,sing,old,blue,1038.3553578,None,1038.3553578,None,3,2.8320662000000993,1038.3553578,None,2.8320662000000993,1041.2186618,None,1041.7238437,None,1041.7238437,None,n,0.1035541999999623,1041.7238437,None,0.1035541999999623,,,Sing15,001,2022_Aug_04_1424,ProdSingRedoBetween,2021.2.3,60.050033688054526,
,,,,85,0,85,0,,,,,,,,,,,,,,,,,,,,,,1047.3238996,None,,,,,,,,,,,,,,,,,impact,179,86,sing,new,null,1042.3585545,None,1042.3585545,None,4,4.053011800000149,1042.3585545,None,4.053011800000149,1046.4433519,None,1046.9567954,None,1046.9567954,None,f,0.3506695999999465,1046.9567954,None,0.3506695999999465,,,Sing15,001,2022_Aug_04_1424,ProdSingRedoBetween,2021.2.3,60.050033688054526,
,,,,86,0,86,0,,,,,,,,,,,,,,,,,,,,,,1052.8125338,None,,,,,,,,,,,,,,,,,school,90,87,sing,new,null,1047.8292665,None,1047.8292665,None,3,4.318282199999885,1047.8292665,None,4.318282199999885,1052.1796615,None,1052.6830945,None,1052.6830945,None,n,0.10440599999992628,1052.6830945,None,0.10440599999992628,,,Sing15,001,2022_Aug_04_1424,ProdSingRedoBetween,2021.2.3,60.050033688054526,
,,,,87,0,87,0,,,,,,,,,,,,,,,,,,,,,,1055.1316426,None,,,,,,,,,,,,,,,,,angle,142,88,sing,new,null,1053.3210429,None,1053.3210429,None,1,1.2503154999999424,1053.3210429,None,1.2503154999999424,1054.5976904,None,1055.1019709,None,1055.1019709,None,n,0.013492399999904592,1055.1019709,None,0.013492399999904592,,,Sing15,001,2022_Aug_04_1424,ProdSingRedoBetween,2021.2.3,60.050033688054526,
,,,,88,0,88,0,,,,,,,,,,,,,,,,,,,,,,1061.2376088,None,,,,,,,,,,,,,,,,,husband,50,89,sing,old,blue,1055.6429378,None,1055.6429378,None,6,2.3604427000000214,1055.6429378,None,2.3604427000000214,1058.0352909,None,1058.5391587,None,1058.5391587,None,r,2.680241699999897,1058.5391587,None,2.680241699999897,,,Sing15,001,2022_Aug_04_1424,ProdSingRedoBetween,2021.2.3,60.050033688054526,
,,,,89,0,89,0,,,,,,,,,,,,,,,,,,,,,,1065.4761619,None,,,,,,,,,,,,,,,,,height,105,90,sing,new,null,1061.7412822,None,1061.7412822,None,3,3.1021367999999256,1061.7412822,None,3.1021367999999256,1064.8753009,None,1065.3782187,None,1065.3782187,None,f,0.08113400000002002,1065.3782187,None,0.08113400000002002,,,Sing15,001,2022_Aug_04_1424,ProdSingRedoBetween,2021.2.3,60.050033688054526,
,,,,90,0,90,0,,,,,,,,,,,,,,,,,,,,,,1070.0964016,None,,,,,,,,,,,,,,,,,society,102,91,sing,new,null,1065.9893784,None,1065.9893784,None,2,3.405952500000012,1065.9893784,None,3.405952500000012,1069.4145098,None,1069.9362864,None,1069.9362864,None,n,0.13112660000001597,1069.9362864,None,0.13112660000001597,,,Sing15,001,2022_Aug_04_1424,ProdSingRedoBetween,2021.2.3,60.050033688054526,
,,,,91,0,91,0,,,,,,,,,,,,,,,,,,,,,,1073.9836245,None,,,,,,,,,,,,,,,,,block,27,92,sing,old,yellow,1070.6069144,None,1070.6069144,None,5,2.55638840000006,1070.6069144,None,2.55638840000006,1073.1841953,None,1073.6839334,None,1073.6839334,None,f,0.2713771999999608,1073.6839334,None,0.2713771999999608,,,Sing15,001,2022_Aug_04_1424,ProdSingRedoBetween,2021.2.3,60.050033688054526,
,,,,92,0,92,0,,,,,,,,,,,,,,,,,,,,,,1078.0710524,None,,,,,,,,,,,,,,,,,period,83,93,sing,old,red,1074.4843953,None,1074.4843953,None,6,2.4072702999999365,1074.4843953,None,2.4072702999999365,1076.9273805999999,None,1077.4372608,None,1077.4372608,None,r,0.6061424000001807,1077.4372608,None,0.6061424000001807,,,Sing15,001,2022_Aug_04_1424,ProdSingRedoBetween,2021.2.3,60.050033688054526,
,,,,93,0,93,0,,,,,,,,,,,,,,,,,,,,,,1084.4288342,None,,,,,,,,,,,,,,,,,majority,177,94,sing,new,null,1078.5746145,None,1078.5746145,None,3,2.5167161999997916,1078.5746145,None,2.5167161999997916,1081.1089309,None,1081.6150355,None,1081.6150355,None,f,2.7883942000000843,1081.6150355,None,2.7883942000000843,,,Sing15,001,2022_Aug_04_1424,ProdSingRedoBetween,2021.2.3,60.050033688054526,
,,,,94,0,94,0,,,,,,,,,,,,,,,,,,,,,,1089.6494568,None,,,,,,,,,,,,,,,,,thing,122,95,sing,new,null,1084.9296666,None,1084.9296666,None,1,2.1456960000000436,1084.9296666,None,2.1456960000000436,1087.0982621,None,1087.5987956,None,1087.5987956,None,n,2.028604200000018,1087.5987956,None,2.028604200000018,,,Sing15,001,2022_Aug_04_1424,ProdSingRedoBetween,2021.2.3,60.050033688054526,
,,,,95,0,95,0,,,,,,,,,,,,,,,,,,,,,,1092.7023819,None,,,,,,,,,,,,,,,,,afternoon,79,96,sing,old,red,1090.1562346,None,1090.1562346,None,4,1.8472225000000435,1090.1562346,None,1.8472225000000435,1092.0271006,None,1092.5355726,None,1092.5355726,None,n,0.13978079999992588,1092.5355726,None,0.13978079999992588,,,Sing15,001,2022_Aug_04_1424,ProdSingRedoBetween,2021.2.3,60.050033688054526,
,,,,96,0,96,0,,,,,,,,,,,,,,,,,,,,,,1095.638561,None,,,,,,,,,,,,,,,,,range,115,97,sing,new,null,1093.2072394,None,1093.2072394,None,4,1.8200988999999481,1093.2072394,None,1.8200988999999481,1095.0547337,None,1095.5552811,None,1095.5552811,None,f,0.056057300000020405,1095.5552811,None,0.056057300000020405,,,Sing15,001,2022_Aug_04_1424,ProdSingRedoBetween,2021.2.3,60.050033688054526,
,,,,97,0,97,0,,,,,,,,,,,,,,,,,,,,,,1110.4867753,None,,,,,,,,,,,,,,,,,right,123,98,sing,new,null,1096.1453706,None,1096.1453706,None,4,12.21799370000008,1096.1453706,None,12.21799370000008,1108.3847897,None,1108.8876779,None,1108.8876779,None,f,1.5716428000000633,1108.8876779,None,1.5716428000000633,,,Sing15,001,2022_Aug_04_1424,ProdSingRedoBetween,2021.2.3,60.050033688054526,
,,,,98,0,98,0,,,,,,,,,,,,,,,,,,,,,,1115.9421995,None,,,,,,,,,,,,,,,,,mechanical,1,99,sing,old,yellow,1110.9966061,None,1110.9966061,None,3,3.7426357000001644,1110.9966061,None,3.7426357000001644,1114.7587068,None,1115.2602532,None,1115.2602532,None,f,0.6551225999999133,1115.2602532,None,0.6551225999999133,,,Sing15,001,2022_Aug_04_1424,ProdSingRedoBetween,2021.2.3,60.050033688054526,
,,,,99,0,99,0,,,,,,,,,,,,,,,,,,,,,,1120.4169781,None,,,,,,,,,,,,,,,,,staff,162,100,sing,new,null,1116.4456926999999,None,1116.4456926999999,None,3,2.9576786999998603,1116.4456926999999,None,2.9576786999998603,1119.4302525,None,1119.9297589,None,1119.9297589,None,n,0.45775750000007065,1119.9297589,None,0.45775750000007065,,,Sing15,001,2022_Aug_04_1424,ProdSingRedoBetween,2021.2.3,60.050033688054526,
,,,,100,0,100,0,,,,,,,,,,,,,,,,,,,,,,1126.870155,None,,,,,,,,,,,,,,,,,watch,40,101,sing,old,blue,1120.9380563,None,1120.9380563,None,4,4.441362300000037,1120.9380563,None,4.441362300000037,1125.4095083,None,1125.9189962,None,1125.9189962,None,f,0.9323315000001458,1125.9189962,None,0.9323315000001458,,,Sing15,001,2022_Aug_04_1424,ProdSingRedoBetween,2021.2.3,60.050033688054526,
,,,,101,0,101,0,,,,,,,,,,,,,,,,,,,,,,1133.7265566,None,,,,,,,,,,,,,,,,,count,62,102,sing,old,red,1127.3736261,None,1127.3736261,None,5,4.7257675000000745,1127.3736261,None,4.7257675000000745,1132.1293633,None,1132.6428386,None,1132.6428386,None,f,1.0564095999998244,1132.6428386,None,1.0564095999998244,,,Sing15,001,2022_Aug_04_1424,ProdSingRedoBetween,2021.2.3,60.050033688054526,
,,,,102,0,102,0,,,,,,,,,,,,,,,,,,,,,,1137.0800086,None,,,,,,,,,,,,,,,,,agency,125,103,sing,new,null,1134.235192,None,1134.235192,None,3,1.9360675000000356,1134.235192,None,1.9360675000000356,1136.2047674,None,1136.7128647,None,1136.7128647,None,n,0.3464934999999514,1136.7128647,None,0.3464934999999514,,,Sing15,001,2022_Aug_04_1424,ProdSingRedoBetween,2021.2.3,60.050033688054526,
,,,,103,0,103,0,,,,,,,,,,,,,,,,,,,,,,1145.2050823,None,,,,,,,,,,,,,,,,,direction,20,104,sing,old,yellow,1137.584402,None,1137.584402,None,4,5.067088300000023,1137.584402,None,5.067088300000023,1142.6747229,None,1143.1862021,None,1143.1862021,None,r,2.0011429999999564,1143.1862021,None,2.0011429999999564,,,Sing15,001,2022_Aug_04_1424,ProdSingRedoBetween,2021.2.3,60.050033688054526,
,,,,104,0,104,0,,,,,,,,,,,,,,,,,,,,,,1154.3805006,None,,,,,,,,,,,,,,,,,light,42,105,sing,old,blue,1145.7165184,None,1145.7165184,None,5,7.166932600000109,1145.7165184,None,7.166932600000109,1152.9180828,None,1153.4295965,None,1153.4295965,None,f,0.9337292999998681,1153.4295965,None,0.9337292999998681,,,Sing15,001,2022_Aug_04_1424,ProdSingRedoBetween,2021.2.3,60.050033688054526,
,,,,105,0,105,0,,,,,,,,,,,,,,,,,,,,,,1158.5680849999999,None,,,,,,,,,,,,,,,,,shape,77,106,sing,old,red,1154.8836097,None,1154.8836097,None,5,2.4237774999999147,1154.8836097,None,2.4237774999999147,1157.3349511,None,1157.8383749,None,1157.8383749,None,f,0.7009997000000112,1157.8383749,None,0.7009997000000112,,,Sing15,001,2022_Aug_04_1424,ProdSingRedoBetween,2021.2.3,60.050033688054526,
,,,,106,0,106,0,,,,,,,,,,,,,,,,,,,,,,1163.8409613,None,,,,,,,,,,,,,,,,,escape,56,107,sing,old,blue,1159.0887129,None,1159.0887129,None,3,3.3306866000000355,1159.0887129,None,3.3306866000000355,1162.4465797,None,1162.9589661,None,1162.9589661,None,n,0.8524371999999403,1162.9589661,None,0.8524371999999403,,,Sing15,001,2022_Aug_04_1424,ProdSingRedoBetween,2021.2.3,60.050033688054526,
,,,,107,0,107,0,,,,,,,,,,,,,,,,,,,,,,1168.3611221,None,,,,,,,,,,,,,,,,,number,121,108,sing,new,null,1164.3442047,None,1164.3442047,None,5,3.3231298999999126,1164.3442047,None,3.3231298999999126,1167.6939037,None,1168.1946973,None,1168.1946973,None,f,0.14460189999999784,1168.1946973,None,0.14460189999999784,,,Sing15,001,2022_Aug_04_1424,ProdSingRedoBetween,2021.2.3,60.050033688054526,
,,,,108,0,108,0,,,,,,,,,,,,,,,,,,,,,,1171.4308524,None,,,,,,,,,,,,,,,,,balance,176,109,sing,new,null,1168.8685242,None,1168.8685242,None,2,1.8629605999999512,1168.8685242,None,1.8629605999999512,1170.7517455,None,1171.2642623,None,1171.2642623,None,n,0.13900579999994989,1171.2642623,None,0.13900579999994989,,,Sing15,001,2022_Aug_04_1424,ProdSingRedoBetween,2021.2.3,60.050033688054526,
,,,,109,0,109,0,,,,,,,,,,,,,,,,,,,,,,1177.6204171,None,,,,,,,,,,,,,,,,,clean,144,110,sing,new,null,1171.943888,None,1171.943888,None,1,4.38748489999989,1171.943888,None,4.38748489999989,1176.3586086999999,None,1176.8735487,None,1176.8735487,None,n,0.7218722000000071,1176.8735487,None,0.7218722000000071,,,Sing15,001,2022_Aug_04_1424,ProdSingRedoBetween,2021.2.3,60.050033688054526,
,,,,110,0,110,0,,,,,,,,,,,,,,,,,,,,,,1184.5607952,None,,,,,,,,,,,,,,,,,subject,65,111,sing,old,red,1178.1256461,None,1178.1256461,None,4,4.101794299999938,1178.1256461,None,4.101794299999938,1182.2669466,None,1182.7890608,None,1182.7890608,None,r,1.7422064999998383,1182.7890608,None,1.7422064999998383,,,Sing15,001,2022_Aug_04_1424,ProdSingRedoBetween,2021.2.3,60.050033688054526,
,,,,111,0,111,0,,,,,,,,,,,,,,,,,,,,,,1198.0741956,None,,,,,,,,,,,,,,,,,court,57,112,sing,old,blue,1185.0694048,None,1185.0694048,None,3,10.037837200000013,1185.0694048,None,10.037837200000013,1195.1408336,None,1195.6595012,None,1195.6595012,None,r,2.3917681999998877,1195.6595012,None,2.3917681999998877,,,Sing15,001,2022_Aug_04_1424,ProdSingRedoBetween,2021.2.3,60.050033688054526,
,,,,112,0,112,0,,,,,,,,,,,,,,,,,,,,,,1210.504571,None,,,,,,,,,,,,,,,,,stand,168,113,sing,new,null,1198.5843196,None,1198.5843196,None,5,10.746933999999783,1198.5843196,None,10.746933999999783,1209.3534007,None,1209.8558455,None,1209.8558455,None,f,0.6274151000000074,1209.8558455,None,0.6274151000000074,,,Sing15,001,2022_Aug_04_1424,ProdSingRedoBetween,2021.2.3,60.050033688054526,
,,,,113,0,113,0,,,,,,,,,,,,,,,,,,,,,,1216.1921904,None,,,,,,,,,,,,,,,,,waste,55,114,sing,old,blue,1211.0098322,None,1211.0098322,None,6,2.609319900000173,1211.0098322,None,2.609319900000173,1213.6414953,None,1214.157135,None,1214.157135,None,r,2.00615700000003,1214.157135,None,2.00615700000003,,,Sing15,001,2022_Aug_04_1424,ProdSingRedoBetween,2021.2.3,60.050033688054526,
,,,,114,0,114,0,,,,,,,,,,,,,,,,,,,,,,1220.2964938,None,,,,,,,,,,,,,,,,,accident,93,115,sing,new,null,1216.704396,None,1216.704396,None,3,2.6109055000001717,1216.704396,None,2.6109055000001717,1219.3508388,None,1219.8655788,None,1219.8655788,None,f,0.40977669999983846,1219.8655788,None,0.40977669999983846,,,Sing15,001,2022_Aug_04_1424,ProdSingRedoBetween,2021.2.3,60.050033688054526,
,,,,115,0,115,0,,,,,,,,,,,,,,,,,,,,,,1224.1835929,None,,,,,,,,,,,,,,,,,turkey,112,116,sing,new,null,1220.8027287,None,1220.8027287,None,1,1.5844618000000992,1220.8027287,None,1.5844618000000992,1222.4164085,None,1222.917045,None,1222.917045,None,n,1.2461961000001338,1222.917045,None,1.2461961000001338,,,Sing15,001,2022_Aug_04_1424,ProdSingRedoBetween,2021.2.3,60.050033688054526,
,,,,116,0,116,0,,,,,,,,,,,,,,,,,,,,,,1229.0217633,None,,,,,,,,,,,,,,,,,smell,28,117,sing,old,yellow,1224.6934949,None,1224.6934949,None,4,3.3177588000000924,1224.6934949,None,3.3177588000000924,1228.0387966,None,1228.5420334,None,1228.5420334,None,f,0.46119870000006813,1228.5420334,None,0.46119870000006813,,,Sing15,001,2022_Aug_04_1424,ProdSingRedoBetween,2021.2.3,60.050033688054526,
,,,,117,0,117,0,,,,,,,,,,,,,,,,,,,,,,1236.1288127999999,None,,,,,,,,,,,,,,,,,patient,141,118,sing,new,null,1229.5309698,None,1229.5309698,None,4,5.0402603,1229.5309698,None,5.0402603,1234.5945167,None,1235.1058988,None,1235.1058988,None,f,1.001355999999987,1235.1058988,None,1.001355999999987,,,Sing15,001,2022_Aug_04_1424,ProdSingRedoBetween,2021.2.3,60.050033688054526,
,,,,118,0,118,0,,,,,,,,,,,,,,,,,,,,,,1241.8845679,None,,,,,,,,,,,,,,,,,substance,138,119,sing,new,null,1236.6336415,None,1236.6336415,None,2,3.7615891000000374,1236.6336415,None,3.7615891000000374,1240.4184664,None,1240.9392788,None,1240.9392788,None,n,0.9278813999999329,1240.9392788,None,0.9278813999999329,,,Sing15,001,2022_Aug_04_1424,ProdSingRedoBetween,2021.2.3,60.050033688054526,
,,,,119,0,119,0,,,,,,,,,,,,,,,,,,,,,,1247.8405786,None,,,,,,,,,,,,,,,,,hearing,48,120,sing,old,blue,1242.39247,None,1242.39247,None,4,4.86667280000006,1242.39247,None,4.86667280000006,1247.2905477,None,1247.7951878,None,1247.7951878,None,f,0.016071699999884004,1247.7951878,None,0.016071699999884004,,,Sing15,001,2022_Aug_04_1424,ProdSingRedoBetween,2021.2.3,60.050033688054526,
,,,,120,0,120,0,,,,,,,,,,,,,,,,,,,,,,1250.4431533,None,,,,,,,,,,,,,,,,,cousin,117,121,sing,new,null,1248.3410235,None,1248.3410235,None,1,1.4462017999999262,1248.3410235,None,1.4462017999999262,1249.8104134,None,1250.3163484,None,1250.3163484,None,n,0.1107948999999735,1250.3163484,None,0.1107948999999735,,,Sing15,001,2022_Aug_04_1424,ProdSingRedoBetween,2021.2.3,60.050033688054526,
,,,,121,0,121,0,,,,,,,,,,,,,,,,,,,,,,1253.8631407,None,,,,,,,,,,,,,,,,,union,59,122,sing,old,yellow,1250.9500078,None,1250.9500078,None,4,2.1412021000001005,1250.9500078,None,2.1412021000001005,1253.1141975,None,1253.6299344,None,1253.6299344,None,f,0.2132693000000927,1253.6299344,None,0.2132693000000927,,,Sing15,001,2022_Aug_04_1424,ProdSingRedoBetween,2021.2.3,60.050033688054526,
,,,,122,0,122,0,,,,,,,,,,,,,,,,,,,,,,1256.4823233,None,,,,,,,,,,,,,,,,,death,94,123,sing,new,null,1254.3700947,None,1254.3700947,None,1,1.3531173999999737,1254.3700947,None,1.3531173999999737,1255.7494106,None,1256.2544049,None,1256.2544049,None,n,0.196874600000001,1256.2544049,None,0.196874600000001,,,Sing15,001,2022_Aug_04_1424,ProdSingRedoBetween,2021.2.3,60.050033688054526,
,,,,123,0,123,0,,,,,,,,,,,,,,,,,,,,,,1259.0348762,None,,,,,,,,,,,,,,,,,dozen,103,124,sing,new,null,1256.9962488,None,1256.9962488,None,1,1.2309342999999444,1256.9962488,None,1.2309342999999444,1258.2524107,None,1258.7514298,None,1258.7514298,None,n,0.26772009999990587,1258.7514298,None,0.26772009999990587,,,Sing15,001,2022_Aug_04_1424,ProdSingRedoBetween,2021.2.3,60.050033688054526,
,,,,124,0,124,0,,,,,,,,,,,,,,,,,,,,,,1261.8714067,None,,,,,,,,,,,,,,,,,ground,63,125,sing,old,red,1259.5357027,None,1259.5357027,None,3,1.6036285999998654,1259.5357027,None,1.6036285999998654,1261.1704719,None,1261.6766858,None,1261.6766858,None,f,0.166406600000073,1261.6766858,None,0.166406600000073,,,Sing15,001,2022_Aug_04_1424,ProdSingRedoBetween,2021.2.3,60.050033688054526,
,,,,125,0,125,0,,,,,,,,,,,,,,,,,,,,,,1267.9542645,None,,,,,,,,,,,,,,,,,orchestra,45,126,sing,old,blue,1262.3831398,None,1262.3831398,None,4,4.787906599999815,1262.3831398,None,4.787906599999815,1267.2020812,None,1267.7105028,None,1267.7105028,None,f,0.20456690000014532,1267.7105028,None,0.20456690000014532,,,Sing15,001,2022_Aug_04_1424,ProdSingRedoBetween,2021.2.3,60.050033688054526,
,,,,126,0,126,0,,,,,,,,,,,,,,,,,,,,,,1271.7143572,None,,,,,,,,,,,,,,,,,opening,96,127,sing,new,null,1268.4682313,None,1268.4682313,None,2,2.4949534999998377,1268.4682313,None,2.4949534999998377,1270.9814615,None,1271.4846796,None,1271.4846796,None,n,0.21450989999993908,1271.4846796,None,0.21450989999993908,,,Sing15,001,2022_Aug_04_1424,ProdSingRedoBetween,2021.2.3,60.050033688054526,
,,,,127,0,127,0,,,,,,,,,,,,,,,,,,,,,,1275.5347862,None,,,,,,,,,,,,,,,,,exchange,66,128,sing,old,red,1272.2221672,None,1272.2221672,None,4,2.637032599999884,1272.2221672,None,2.637032599999884,1274.885452,None,1275.3919031,None,1275.3919031,None,f,0.12331199999994169,1275.3919031,None,0.12331199999994169,,,Sing15,001,2022_Aug_04_1424,ProdSingRedoBetween,2021.2.3,60.050033688054526,
,,,,128,0,128,0,,,,,,,,,,,,,,,,,,,,,,1278.921539,None,,,,,,,,,,,,,,,,,danger,0,129,sing,old,yellow,1276.0366596,None,1276.0366596,None,3,2.166517299999896,1276.0366596,None,2.166517299999896,1278.2238634,None,1278.7381095,None,1278.7381095,None,f,0.16112780000003113,1278.7381095,None,0.16112780000003113,,,Sing15,001,2022_Aug_04_1424,ProdSingRedoBetween,2021.2.3,60.050033688054526,
,,,,129,0,129,0,,,,,,,,,,,,,,,,,,,,,,1283.3955274,None,,,,,,,,,,,,,,,,,partner,127,130,sing,new,null,1279.4333977,None,1279.4333977,None,2,3.129795399999921,1279.4333977,None,3.129795399999921,1282.5926093,None,1283.0962367,None,1283.0962367,None,n,0.27514400000018213,1283.0962367,None,0.27514400000018213,,,Sing15,001,2022_Aug_04_1424,ProdSingRedoBetween,2021.2.3,60.050033688054526,
,,,,130,0,130,0,,,,,,,,,,,,,,,,,,,,,,1287.0296924,None,,,,,,,,,,,,,,,,,owner,161,131,sing,new,null,1283.9175718,None,1283.9175718,None,2,2.4455083000000286,1283.9175718,None,2.4455083000000286,1286.3792424,None,1286.8819674,None,1286.8819674,None,n,0.1290951999999379,1286.8819674,None,0.1290951999999379,,,Sing15,001,2022_Aug_04_1424,ProdSingRedoBetween,2021.2.3,60.050033688054526,
,,,,131,0,131,0,,,,,,,,,,,,,,,,,,,,,,1289.9324463,None,,,,,,,,,,,,,,,,,rapid,39,132,sing,old,blue,1287.540637,None,1287.540637,None,4,1.6625346999999238,1287.540637,None,1.6625346999999238,1289.2327595,None,1289.7382988,None,1289.7382988,None,f,0.1688653000001068,1289.7382988,None,0.1688653000001068,,,Sing15,001,2022_Aug_04_1424,ProdSingRedoBetween,2021.2.3,60.050033688054526,
,,,,132,0,132,0,,,,,,,,,,,,,,,,,,,,,,1295.7050576,None,,,,,,,,,,,,,,,,,atmosphere,29,133,sing,old,blue,1290.4446382,None,1290.4446382,None,3,4.542458699999997,1290.4446382,None,4.542458699999997,1295.0055766,None,1295.5051186,None,1295.5051186,None,f,0.1700321000000713,1295.5051186,None,0.1700321000000713,,,Sing15,001,2022_Aug_04_1424,ProdSingRedoBetween,2021.2.3,60.050033688054526,
,,,,133,0,133,0,,,,,,,,,,,,,,,,,,,,,,1300.559798,None,,,,,,,,,,,,,,,,,threat,139,134,sing,new,null,1296.2083259,None,1296.2083259,None,2,3.6827817000000778,1296.2083259,None,3.6827817000000778,1299.9101484999999,None,1300.4131534,None,1300.4131534,None,n,0.11797630000000936,1300.4131534,None,0.11797630000000936,,,Sing15,001,2022_Aug_04_1424,ProdSingRedoBetween,2021.2.3,60.050033688054526,
,,,,134,0,134,0,,,,,,,,,,,,,,,,,,,,,,1309.0517274,None,,,,,,,,,,,,,,,,,strength,30,135,sing,old,blue,1301.0722528,None,1301.0722528,None,5,2.986793099999886,1301.0722528,None,2.986793099999886,1304.0832621,None,1304.5974477,None,1304.5974477,None,f,4.4297094999999445,1304.5974477,None,4.4297094999999445,,,Sing15,001,2022_Aug_04_1424,ProdSingRedoBetween,2021.2.3,60.050033688054526,
,,,,135,0,135,0,,,,,,,,,,,,,,,,,,,,,,1316.079364,None,,,,,,,,,,,,,,,,,close,126,136,sing,new,null,1309.5631137999999,None,1309.5631137999999,None,4,5.208128700000088,1309.5631137999999,None,5.208128700000088,1314.7907772,None,1315.2974157,None,1315.2974157,None,f,0.761996100000033,1315.2974157,None,0.761996100000033,,,Sing15,001,2022_Aug_04_1424,ProdSingRedoBetween,2021.2.3,60.050033688054526,
,,,,136,0,136,0,,,,,,,,,,,,,,,,,,,,,,1318.8781025,None,,,,,,,,,,,,,,,,,payment,99,137,sing,new,null,1316.6006101,None,1316.6006101,None,2,1.3705411999999342,1316.6006101,None,1.3705411999999342,1317.9974454,None,1318.5112575,None,1318.5112575,None,n,0.34780320000004394,1318.5112575,None,0.34780320000004394,,,Sing15,001,2022_Aug_04_1424,ProdSingRedoBetween,2021.2.3,60.050033688054526,
,,,,137,0,137,0,,,,,,,,,,,,,,,,,,,,,,1321.9660859,None,,,,,,,,,,,,,,,,,theme,80,138,sing,old,red,1319.3928101,None,1319.3928101,None,2,1.4663970999999947,1319.3928101,None,1.4663970999999947,1320.8851908,None,1321.397494,None,1321.397494,None,n,0.5496819999998479,1321.397494,None,0.5496819999998479,,,Sing15,001,2022_Aug_04_1424,ProdSingRedoBetween,2021.2.3,60.050033688054526,
,,,,138,0,138,0,,,,,,,,,,,,,,,,,,,,,,1328.1707636,None,,,,,,,,,,,,,,,,,prime,73,139,sing,old,red,1322.4716566,None,1322.4716566,None,5,4.603449599999976,1322.4716566,None,4.603449599999976,1327.1039638,None,1327.6058602,None,1327.6058602,None,f,0.5413900999999441,1327.6058602,None,0.5413900999999441,,,Sing15,001,2022_Aug_04_1424,ProdSingRedoBetween,2021.2.3,60.050033688054526,
,,,,139,0,139,0,,,,,,,,,,,,,,,,,,,,,,1332.9419986999999,None,,,,,,,,,,,,,,,,,science,22,140,sing,old,yellow,1328.6711812,None,1328.6711812,None,2,2.8998487999999725,1328.6711812,None,2.8998487999999725,1331.595451,None,1332.1112033,None,1332.1112033,None,n,0.8119221000001744,1332.1112033,None,0.8119221000001744,,,Sing15,001,2022_Aug_04_1424,ProdSingRedoBetween,2021.2.3,60.050033688054526,
,,,,140,0,140,0,,,,,,,,,,,,,,,,,,,,,,1340.2659419,None,,,,,,,,,,,,,,,,,permit,97,141,sing,new,null,1333.4426344,None,1333.4426344,None,3,6.128583499999877,1333.4426344,None,6.128583499999877,1339.6034115,None,1340.1167062,None,1340.1167062,None,f,0.13452979999988202,1340.1167062,None,0.13452979999988202,,,Sing15,001,2022_Aug_04_1424,ProdSingRedoBetween,2021.2.3,60.050033688054526,
,,,,141,0,141,0,,,,,,,,,,,,,,,,,,,,,,1345.2877315,None,,,,,,,,,,,,,,,,,problem,110,142,sing,new,null,1340.7698199,None,1340.7698199,None,5,3.84924379999984,1340.7698199,None,3.84924379999984,1344.6420109,None,1345.156895,None,1345.156895,None,f,0.102300699999887,1345.156895,None,0.102300699999887,,,Sing15,001,2022_Aug_04_1424,ProdSingRedoBetween,2021.2.3,60.050033688054526,
,,,,142,0,142,0,,,,,,,,,,,,,,,,,,,,,,1348.0904828,None,,,,,,,,,,,,,,,,,quarter,113,143,sing,new,null,1345.8012891,None,1345.8012891,None,1,1.2738354999999046,1345.8012891,None,1.2738354999999046,1347.1077616,None,1347.6097597,None,1347.6097597,None,n,0.45736440000018774,1347.6097597,None,0.45736440000018774,,,Sing15,001,2022_Aug_04_1424,ProdSingRedoBetween,2021.2.3,60.050033688054526,
,,,,143,0,143,0,,,,,,,,,,,,,,,,,,,,,,1351.0101308,None,,,,,,,,,,,,,,,,,crime,95,144,sing,new,null,1348.5971274,None,1348.5971274,None,3,1.8059713000000102,1348.5971274,None,1.8059713000000102,1350.4261084,None,1350.9297624,None,1350.9297624,None,n,0.06535689999986971,1350.9297624,None,0.06535689999986971,,,Sing15,001,2022_Aug_04_1424,ProdSingRedoBetween,2021.2.3,60.050033688054526,
,,,,144,0,144,0,,,,,,,,,,,,,,,,,,,,,,1353.8965187,None,,,,,,,,,,,,,,,,,tennis,72,145,sing,old,red,1351.5243113,None,1351.5243113,None,2,1.6308756999999332,1351.5243113,None,1.6308756999999332,1353.1858656,None,1353.7034755,None,1353.7034755,None,n,0.17149479999989126,1353.7034755,None,0.17149479999989126,,,Sing15,001,2022_Aug_04_1424,ProdSingRedoBetween,2021.2.3,60.050033688054526,
,,,,145,0,145,0,,,,,,,,,,,,,,,,,,,,,,1368.1105664,None,,,,,,,,,,,,,,,,,burden,49,146,sing,old,blue,1354.404085,None,1354.404085,None,4,9.078899799999817,1354.404085,None,9.078899799999817,1363.5106457,None,1364.0233572,None,1364.0233572,None,r,4.067713799999865,1364.0233572,None,4.067713799999865,,,Sing15,001,2022_Aug_04_1424,ProdSingRedoBetween,2021.2.3,60.050033688054526,
,,,,146,0,146,0,,,,,,,,,,,,,,,,,,,,,,1378.2373028,None,,,,,,,,,,,,,,,,,surprise,51,147,sing,old,blue,1368.6150783,None,1368.6150783,None,6,3.5960115000000314,1368.6150783,None,3.5960115000000314,1372.2338356,None,1372.7486732,None,1372.7486732,None,r,5.462440799999968,1372.7486732,None,5.462440799999968,,,Sing15,001,2022_Aug_04_1424,ProdSingRedoBetween,2021.2.3,60.050033688054526,
,,,,147,0,147,0,,,,,,,,,,,,,,,,,,,,,,1381.0412498,None,,,,,,,,,,,,,,,,,murder,164,148,sing,new,null,1378.7472687,None,1378.7472687,None,1,1.4958272999999735,1378.7472687,None,1.4958272999999735,1380.2751692,None,1380.7936663,None,1380.7936663,None,n,0.217545599999994,1380.7936663,None,0.217545599999994,,,Sing15,001,2022_Aug_04_1424,ProdSingRedoBetween,2021.2.3,60.050033688054526,
,,,,148,0,148,0,,,,,,,,,,,,,,,,,,,,,,1383.7428575,None,,,,,,,,,,,,,,,,,sunset,130,149,sing,new,null,1381.5453316,None,1381.5453316,None,1,1.393744599999991,1381.5453316,None,1.393744599999991,1382.9723077,None,1383.4808174,None,1383.4808174,None,n,0.23428880000005847,1383.4808174,None,0.23428880000005847,,,Sing15,001,2022_Aug_04_1424,ProdSingRedoBetween,2021.2.3,60.050033688054526,
,,,,149,0,149,0,,,,,,,,,,,,,,,,,,,,,,1388.7812668,None,,,,,,,,,,,,,,,,,phrase,67,150,sing,old,red,1384.2539336,None,1384.2539336,None,3,1.9491358999998738,1384.2539336,None,1.9491358999998738,1386.2298334,None,1386.7321086,None,1386.7321086,None,f,2.02294239999992,1386.7321086,None,2.02294239999992,,,Sing15,001,2022_Aug_04_1424,ProdSingRedoBetween,2021.2.3,60.050033688054526,
,,,,150,0,150,0,,,,,,,,,,,,,,,,,,,,,,1392.5861555,None,,,,,,,,,,,,,,,,,reach,166,151,sing,new,null,1389.2821147,None,1389.2821147,None,5,2.5369596999998976,1389.2821147,None,2.5369596999998976,1391.8342168,None,1392.337638,None,1392.337638,None,f,0.21727680000003602,1392.337638,None,0.21727680000003602,,,Sing15,001,2022_Aug_04_1424,ProdSingRedoBetween,2021.2.3,60.050033688054526,
,,,,151,0,151,0,,,,,,,,,,,,,,,,,,,,,,1396.5722038,None,,,,,,,,,,,,,,,,,council,6,152,sing,old,yellow,1393.085453,None,1393.085453,None,6,1.7334928000000218,1393.085453,None,1.7334928000000218,1394.8455153,None,1395.3544145,None,1395.3544145,None,r,1.2006399999997939,1395.3544145,None,1.2006399999997939,,,Sing15,001,2022_Aug_04_1424,ProdSingRedoBetween,2021.2.3,60.050033688054526,
,,,,152,0,152,0,,,,,,,,,,,,,,,,,,,,,,1401.7441699,None,,,,,,,,,,,,,,,,,length,173,153,sing,new,null,1397.0789942,None,1397.0789942,None,4,3.9879852000001392,1397.0789942,None,3.9879852000001392,1401.094935,None,1401.5940288,None,1401.5940288,None,f,0.1211255999999139,1401.5940288,None,0.1211255999999139,,,Sing15,001,2022_Aug_04_1424,ProdSingRedoBetween,2021.2.3,60.050033688054526,
,,,,153,0,153,0,,,,,,,,,,,,,,,,,,,,,,1407.2662713,None,,,,,,,,,,,,,,,,,appeal,15,154,sing,old,yellow,1402.2463974,None,1402.2463974,None,5,3.444612300000017,1402.2463974,None,3.444612300000017,1405.7160504,None,1406.2191224,None,1406.2191224,None,f,1.0239616000001206,1406.2191224,None,1.0239616000001206,,,Sing15,001,2022_Aug_04_1424,ProdSingRedoBetween,2021.2.3,60.050033688054526,
,,,,154,0,154,0,,,,,,,,,,,,,,,,,,,,,,1412.1713695,None,,,,,,,,,,,,,,,,,volume,81,155,sing,old,red,1407.7696404,None,1407.7696404,None,4,2.4813254999999117,1407.7696404,None,2.4813254999999117,1410.2708325,None,1410.7772666,None,1410.7772666,None,f,1.3777325000000928,1410.7772666,None,1.3777325000000928,,,Sing15,001,2022_Aug_04_1424,ProdSingRedoBetween,2021.2.3,60.050033688054526,
,,,,155,0,155,0,,,,,,,,,,,,,,,,,,,,,,1416.0249831,None,,,,,,,,,,,,,,,,,territory,128,156,sing,new,null,1412.6802428,None,1412.6802428,None,2,2.466886899999963,1412.6802428,None,2.466886899999963,1415.1811901,None,1415.6915981,None,1415.6915981,None,f,0.3114771999998993,1415.6915981,None,0.3114771999998993,,,Sing15,001,2022_Aug_04_1424,ProdSingRedoBetween,2021.2.3,60.050033688054526,
,,,,156,0,156,0,,,,,,,,,,,,,,,,,,,,,,1421.7142779,None,,,,,,,,,,,,,,,,,dispute,43,157,sing,old,blue,1416.5408806,None,1416.5408806,None,4,4.502136100000143,1416.5408806,None,4.502136100000143,1421.0648489,None,1421.569564,None,1421.569564,None,f,0.11372700000015357,1421.569564,None,0.11372700000015357,,,Sing15,001,2022_Aug_04_1424,ProdSingRedoBetween,2021.2.3,60.050033688054526,
,,,,157,0,157,0,,,,,,,,,,,,,,,,,,,,,,1424.934095,None,,,,,,,,,,,,,,,,,shear,106,158,sing,new,null,1422.2257546,None,1422.2257546,None,2,1.9611647999997786,1422.2257546,None,1.9611647999997786,1424.2166257,None,1424.7171931,None,1424.7171931,None,n,0.18980050000004667,1424.7171931,None,0.18980050000004667,,,Sing15,001,2022_Aug_04_1424,ProdSingRedoBetween,2021.2.3,60.050033688054526,
,,,,158,0,158,0,,,,,,,,,,,,,,,,,,,,,,1429.3216104,None,,,,,,,,,,,,,,,,,platform,8,159,sing,old,yellow,1425.444013,None,1425.444013,None,3,2.7190114999998514,1425.444013,None,2.7190114999998514,1428.1884322,None,1428.6877894,None,1428.6877894,None,n,0.6112379999999575,1428.6877894,None,0.6112379999999575,,,Sing15,001,2022_Aug_04_1424,ProdSingRedoBetween,2021.2.3,60.050033688054526,
,,,,159,0,159,0,,,,,,,,,,,,,,,,,,,,,,1434.2098804000002,None,,,,,,,,,,,,,,,,,fashion,36,160,sing,old,blue,1429.8344488,None,1429.8344488,None,3,3.328628399999843,1429.8344488,None,3.328628399999843,1433.1939895,None,1433.7136193000001,None,1433.7136193000001,None,n,0.46541830000023765,1433.7136193000001,None,0.46541830000023765,,,Sing15,001,2022_Aug_04_1424,ProdSingRedoBetween,2021.2.3,60.050033688054526,
,,,,160,0,160,0,,,,,,,,,,,,,,,,,,,,,,1436.8355565000002,None,,,,,,,,,,,,,,,,,mayor,151,161,sing,new,null,1434.710736,None,1434.710736,None,2,1.3002908000003117,1434.710736,None,1.3002908000003117,1436.0297147,None,1436.5320407,None,1436.5320407,None,n,0.27925980000009076,1436.5320407,None,0.27925980000009076,,,Sing15,001,2022_Aug_04_1424,ProdSingRedoBetween,2021.2.3,60.050033688054526,
,,,,161,0,161,0,,,,,,,,,,,,,,,,,,,,,,1441.3694185999998,None,,,,,,,,,,,,,,,,,rough,4,162,sing,old,yellow,1437.3465124,None,1437.3465124,None,6,1.9524976999996397,1437.3465124,None,1.9524976999996397,1439.3202926,None,1439.832632,None,1439.832632,None,r,1.5065288999999211,1439.832632,None,1.5065288999999211,,,Sing15,001,2022_Aug_04_1424,ProdSingRedoBetween,2021.2.3,60.050033688054526,
,,,,162,0,162,0,,,,,,,,,,,,,,,,,,,,,,1445.5711913,None,,,,,,,,,,,,,,,,,century,131,163,sing,new,null,1441.8887782000002,None,1441.8887782000002,None,2,3.050220299999637,1441.8887782000002,None,3.050220299999637,1444.9761125999999,None,1445.4894577999999,None,1445.4894577999999,None,n,0.057537499999853026,1445.4894577999999,None,0.057537499999853026,,,Sing15,001,2022_Aug_04_1424,ProdSingRedoBetween,2021.2.3,60.050033688054526,
,,,,163,0,163,0,,,,,,,,,,,,,,,,,,,,,,1450.4093472999998,None,,,,,,,,,,,,,,,,,speech,132,164,sing,new,null,1446.0822749,None,1446.0822749,None,4,3.5686995000000934,1446.0822749,None,3.5686995000000934,1449.6767543,None,1450.1811134,None,1450.1811134,None,f,0.1979348999998365,1450.1811134,None,0.1979348999998365,,,Sing15,001,2022_Aug_04_1424,ProdSingRedoBetween,2021.2.3,60.050033688054526,
,,,,164,0,164,0,,,,,,,,,,,,,,,,,,,,,,1457.6247699,None,,,,,,,,,,,,,,,,,beginning,98,165,sing,new,null,1450.9134291,None,1450.9134291,None,5,4.569496000000072,1450.9134291,None,4.569496000000072,1455.497761,None,1456.0014350000001,None,1456.0014350000001,None,r,1.5935653999999886,1456.0014350000001,None,1.5935653999999886,,,Sing15,001,2022_Aug_04_1424,ProdSingRedoBetween,2021.2.3,60.050033688054526,
,,,,165,0,165,0,,,,,,,,,,,,,,,,,,,,,,1464.2229679000002,None,,,,,,,,,,,,,,,,,education,116,166,sing,new,null,1458.1338190000001,None,1458.1338190000001,None,5,5.1971723000001475,1458.1338190000001,None,5.1971723000001475,1463.3565500999998,None,1463.8607317,None,1463.8607317,None,r,0.34237260000008973,1463.8607317,None,0.34237260000008973,,,Sing15,001,2022_Aug_04_1424,ProdSingRedoBetween,2021.2.3,60.050033688054526,
,,,,166,0,166,0,,,,,,,,,,,,,,,,,,,,,,1468.4773188,None,,,,,,,,,,,,,,,,,committee,92,167,sing,new,null,1464.7262296,None,1464.7262296,None,3,3.1007989999998244,1464.7262296,None,3.1007989999998244,1467.8444178,None,1468.3481858,None,1468.3481858,None,f,0.10274039999967499,1468.3481858,None,0.10274039999967499,,,Sing15,001,2022_Aug_04_1424,ProdSingRedoBetween,2021.2.3,60.050033688054526,
,,,,167,0,167,0,,,,,,,,,,,,,,,,,,,,,,1473.3654874,None,,,,,,,,,,,,,,,,,account,178,168,sing,new,null,1468.9806469999999,None,1468.9806469999999,None,3,3.638401899999735,1468.9806469999999,None,3.638401899999735,1472.6489098000002,None,1473.1544663999998,None,1473.1544663999998,None,f,0.18442439999989801,1473.1544663999998,None,0.18442439999989801,,,Sing15,001,2022_Aug_04_1424,ProdSingRedoBetween,2021.2.3,60.050033688054526,
,,,,168,0,168,0,,,,,,,,,,,,,,,,,,,,,,1478.5207781,None,,,,,,,,,,,,,,,,,route,109,169,sing,new,null,1473.8740157000002,None,1473.8740157000002,None,2,3.9529286999995747,1473.8740157000002,None,3.9529286999995747,1477.8534184,None,1478.3576091999998,None,1478.3576091999998,None,n,0.13334320000012667,1478.3576091999998,None,0.13334320000012667,,,Sing15,001,2022_Aug_04_1424,ProdSingRedoBetween,2021.2.3,60.050033688054526,
,,,,169,0,169,0,,,,,,,,,,,,,,,,,,,,,,1481.8573621,None,,,,,,,,,,,,,,,,,capital,129,170,sing,new,null,1479.028566,None,1479.028566,None,3,2.198414999999841,1479.028566,None,2.198414999999841,1481.2577974,None,1481.7618812,None,1481.7618812,None,f,0.07327929999974003,1481.7618812,None,0.07327929999974003,,,Sing15,001,2022_Aug_04_1424,ProdSingRedoBetween,2021.2.3,60.050033688054526,
,,,,170,0,170,0,,,,,,,,,,,,,,,,,,,,,,1486.3452375000002,None,,,,,,,,,,,,,,,,,division,76,171,sing,old,red,1482.368238,None,1482.368238,None,5,3.370716200000061,1482.368238,None,3.370716200000061,1485.7638000000002,None,1486.286869,None,1486.286869,None,r,0.03632079999988491,1486.286869,None,0.03632079999988491,,,Sing15,001,2022_Aug_04_1424,ProdSingRedoBetween,2021.2.3,60.050033688054526,
,,,,171,0,171,0,,,,,,,,,,,,,,,,,,,,,,1492.1511163,None,,,,,,,,,,,,,,,,,testimony,61,172,sing,old,red,1486.8576196,None,1486.8576196,None,2,3.121331800000007,1486.8576196,None,3.121331800000007,1490.0000679999998,None,1490.5035807,None,1490.5035807,None,n,1.6273408000001837,1490.5035807,None,1.6273408000001837,,,Sing15,001,2022_Aug_04_1424,ProdSingRedoBetween,2021.2.3,60.050033688054526,
,,,,172,0,172,0,,,,,,,,,,,,,,,,,,,,,,1495.4709791,None,,,,,,,,,,,,,,,,,equipment,152,173,sing,new,null,1492.6607672999999,None,1492.6607672999999,None,1,1.6621946000000207,1492.6607672999999,None,1.6621946000000207,1494.3552031,None,1494.8705510999998,None,1494.8705510999998,None,n,0.5804087000001346,1494.8705510999998,None,0.5804087000001346,,,Sing15,001,2022_Aug_04_1424,ProdSingRedoBetween,2021.2.3,60.050033688054526,
,,,,173,0,173,0,,,,,,,,,,,,,,,,,,,,,,1500.1089158,None,,,,,,,,,,,,,,,,,dream,75,174,sing,old,red,1495.9806905,None,1495.9806905,None,6,2.2782223000003796,1495.9806905,None,2.2782223000003796,1498.2748009000002,None,1498.7768452,None,1498.7768452,None,r,1.31408059999967,1498.7768452,None,1.31408059999967,,,Sing15,001,2022_Aug_04_1424,ProdSingRedoBetween,2021.2.3,60.050033688054526,
,,,,174,0,174,0,,,,,,,,,,,,,,,,,,,,,,1504.4634412999999,None,,,,,,,,,,,,,,,,,religion,86,175,sing,old,red,1500.6192759,None,1500.6192759,None,3,2.1596267999998418,1500.6192759,None,2.1596267999998418,1502.8000505999998,None,1503.3152850000001,None,1503.3152850000001,None,n,1.119656599999871,1503.3152850000001,None,1.119656599999871,,,Sing15,001,2022_Aug_04_1424,ProdSingRedoBetween,2021.2.3,60.050033688054526,
,,,,175,0,175,0,,,,,,,,,,,,,,,,,,,,,,1512.2044858999998,None,,,,,,,,,,,,,,,,,empty,170,176,sing,new,null,1504.9746805999998,None,1504.9746805999998,None,5,6.364537299999938,1504.9746805999998,None,6.364537299999938,1511.3758468,None,1511.889971,None,1511.889971,None,r,0.2969546999997874,1511.889971,None,0.2969546999997874,,,Sing15,001,2022_Aug_04_1424,ProdSingRedoBetween,2021.2.3,60.050033688054526,
,,,,176,0,176,0,,,,,,,,,,,,,,,,,,,,,,1520.1789595999999,None,,,,,,,,,,,,,,,,,defeat,150,177,sing,new,null,1512.7128833000002,None,1512.7128833000002,None,5,2.5140165999996498,1512.7128833000002,None,2.5140165999996498,1515.2583684,None,1515.7615216,None,1515.7615216,None,r,4.393409199999951,1515.7615216,None,4.393409199999951,,,Sing15,001,2022_Aug_04_1424,ProdSingRedoBetween,2021.2.3,60.050033688054526,
,,,,177,0,177,0,,,,,,,,,,,,,,,,,,,,,,1527.5698693999998,None,,,,,,,,,,,,,,,,,guide,26,178,sing,old,yellow,1520.6809558,None,1520.6809558,None,5,5.530009300000074,1520.6809558,None,5.530009300000074,1526.2395511999998,None,1526.7544195,None,1526.7544195,None,r,0.7925261999998838,1526.7544195,None,0.7925261999998838,,,Sing15,001,2022_Aug_04_1424,ProdSingRedoBetween,2021.2.3,60.050033688054526,
,,,,178,0,178,0,,,,,,,,,,,,,,,,,,,,,,1530.5394513,None,,,,,,,,,,,,,,,,,bucket,47,179,sing,old,blue,1528.0821594,None,1528.0821594,None,1,1.7126987000001463,1528.0821594,None,1.7126987000001463,1529.8231212,None,1530.3245793,None,1530.3245793,None,n,0.1902556000000004,1530.3245793,None,0.1902556000000004,,,Sing15,001,2022_Aug_04_1424,ProdSingRedoBetween,2021.2.3,60.050033688054526,
,,,,179,0,179,0,,,,,,,,,,,,,,,,,,,,,,1535.8779977,None,,,,,,,,,,,,,,,,,attack,52,180,sing,old,blue,1531.0434098,None,1531.0434098,None,4,2.335494899999958,1531.0434098,None,2.335494899999958,1533.4115914,None,1533.9294624,None,1533.9294624,None,f,1.9297212999999829,1533.9294624,None,1.9297212999999829,,,Sing15,001,2022_Aug_04_1424,ProdSingRedoBetween,2021.2.3,60.050033688054526,
,,,,,,,,,,,,,,,,,,,,,,,,,,,,,,,,,,,,,,,,,,,,,,,,,,,,,,,,,,,,,,,,,,,,,,,,,1536.3792290000001,None,,,,,,,
