StudyLoop.thisRepN,StudyLoop.thisTrialN,StudyLoop.thisN,StudyLoop.thisIndex,TestLoop.thisRepN,TestLoop.thisTrialN,TestLoop.thisN,TestLoop.thisIndex,textCondition.started,textCondition.stopped,keyCondition.keys,keyCondition.rt,keyCondition.started,keyCondition.stopped,Condition,textWelcome.started,textWelcome.stopped,keyWelcome.keys,keyWelcome.rt,keyWelcome.started,keyWelcome.stopped,textAloud.started,textAloud.stopped,textSilent.started,textSilent.stopped,textSing.started,textSing.stopped,conditional_text.started,conditional_text.stopped,textBlank500.started,textBlank500.stopped,study_word,study_num,study_order,study_type,word_color,textStudy.started,textStudy.stopped,keyStudy.keys,keyStudy.started,keyStudy.stopped,textTestInstructions.started,textTestInstructions.stopped,key_resp_3.keys,key_resp_3.rt,key_resp_3.started,key_resp_3.stopped,test_word,test_num,test_order,test_condition,old_new_test,test_word_original_color,textConf.started,textConf.stopped,textConfScale.started,textConfScale.stopped,keyConf.keys,keyConf.rt,keyConf.started,keyConf.stopped,confidence response time,textTestBlank.started,textTestBlank.stopped,textRKN.started,textRKN.stopped,textRKNScale.started,textRKNScale.stopped,keyRKN.keys,keyRKN.rt,keyRKN.started,keyRKN.stopped,rkn response time,textEnd.started,textEnd.stopped,participant,session,date,expName,psychopyVersion,frameRate,
,,,,,,,,21.36111549999987,None,c,1.7713850000000093,21.36111549999987,None,,,,,,,,,,,,,,,,,,,,,,,,,,,,,,,,,,,,,,,,,,,,,,,,,,,,,,,,,,,,,,177 Sing,001,2022_Dec_01_1501,ProdSingRedoBetween,2021.2.3,59.99692815789722,
,,,,,,,,,,,,,,SingTest,23.194386600000144,None,space,237.61017419999916,23.194386600000144,None,,,,,,,,,,,,,,,,,,,,,,,,,,,,,,,,,,,,,,,,,,,,,,,,,,,,,,,177 Sing,001,2022_Dec_01_1501,ProdSingRedoBetween,2021.2.3,59.99692815789722,
0,0,0,0,,,,,,,,,,,,,,,,,,23.194386600000144,None,23.194386600000144,None,23.194386600000144,None,23.194386600000144,None,263.3435013999988,None,empty,44,1,sing,blue,261.34384019999925,None,None,261.34384019999925,None,,,,,,,,,,,,,,,,,,,,,,,,,,,,,,,,,,,177 Sing,001,2022_Dec_01_1501,ProdSingRedoBetween,2021.2.3,59.99692815789722,
1,0,1,0,,,,,,,,,,,,,,,,,,,,,,,,,,265.862545699998,None,volume,30,2,sing,blue,263.8501225,None,None,263.8501225,None,,,,,,,,,,,,,,,,,,,,,,,,,,,,,,,,,,,177 Sing,001,2022_Dec_01_1501,ProdSingRedoBetween,2021.2.3,59.99692815789722,
2,0,2,0,,,,,,,,,,,,,,,,,,,,,,,,,,268.38183149999895,None,broad,24,3,sing,yellow,266.3670431999999,None,None,266.3670431999999,None,,,,,,,,,,,,,,,,,,,,,,,,,,,,,,,,,,,177 Sing,001,2022_Dec_01_1501,ProdSingRedoBetween,2021.2.3,59.99692815789722,
3,0,3,0,,,,,,,,,,,,,,,,,,,,,,,,,,270.90104809999684,None,passage,59,4,sing,yellow,268.8857578999996,None,None,268.8857578999996,None,,,,,,,,,,,,,,,,,,,,,,,,,,,,,,,,,,,177 Sing,001,2022_Dec_01_1501,ProdSingRedoBetween,2021.2.3,59.99692815789722,
4,0,4,0,,,,,,,,,,,,,,,,,,,,,,,,,,273.40338979999797,None,route,88,5,sing,red,271.40212489999976,None,None,271.40212489999976,None,,,,,,,,,,,,,,,,,,,,,,,,,,,,,,,,,,,177 Sing,001,2022_Dec_01_1501,ProdSingRedoBetween,2021.2.3,59.99692815789722,
5,0,5,0,,,,,,,,,,,,,,,,,,,,,,,,,,275.92277589999867,None,cousin,17,6,sing,yellow,273.90770249999696,None,None,273.90770249999696,None,,,,,,,,,,,,,,,,,,,,,,,,,,,,,,,,,,,177 Sing,001,2022_Dec_01_1501,ProdSingRedoBetween,2021.2.3,59.99692815789722,
6,0,6,0,,,,,,,,,,,,,,,,,,,,,,,,,,278.4419514000001,None,narrow,11,7,sing,yellow,276.4272805999972,None,None,276.4272805999972,None,,,,,,,,,,,,,,,,,,,,,,,,,,,,,,,,,,,177 Sing,001,2022_Dec_01_1501,ProdSingRedoBetween,2021.2.3,59.99692815789722,
7,0,7,0,,,,,,,,,,,,,,,,,,,,,,,,,,280.9444595999994,None,generation,84,8,sing,red,278.9449730999986,None,None,278.9449730999986,None,,,,,,,,,,,,,,,,,,,,,,,,,,,,,,,,,,,177 Sing,001,2022_Dec_01_1501,ProdSingRedoBetween,2021.2.3,59.99692815789722,
8,0,8,0,,,,,,,,,,,,,,,,,,,,,,,,,,283.46346379999886,None,silence,41,9,sing,blue,281.4538021999979,None,None,281.4538021999979,None,,,,,,,,,,,,,,,,,,,,,,,,,,,,,,,,,,,177 Sing,001,2022_Dec_01_1501,ProdSingRedoBetween,2021.2.3,59.99692815789722,
9,0,9,0,,,,,,,,,,,,,,,,,,,,,,,,,,285.9827789999981,None,heavy,6,10,sing,yellow,283.96740639999916,None,None,283.96740639999916,None,,,,,,,,,,,,,,,,,,,,,,,,,,,,,,,,,,,177 Sing,001,2022_Dec_01_1501,ProdSingRedoBetween,2021.2.3,59.99692815789722,
10,0,10,0,,,,,,,,,,,,,,,,,,,,,,,,,,288.5020463999972,None,election,78,11,sing,red,286.48748499999783,None,None,286.48748499999783,None,,,,,,,,,,,,,,,,,,,,,,,,,,,,,,,,,,,177 Sing,001,2022_Dec_01_1501,ProdSingRedoBetween,2021.2.3,59.99692815789722,
11,0,11,0,,,,,,,,,,,,,,,,,,,,,,,,,,291.0210982999997,None,primary,22,12,sing,yellow,289.007440399997,None,None,289.007440399997,None,,,,,,,,,,,,,,,,,,,,,,,,,,,,,,,,,,,177 Sing,001,2022_Dec_01_1501,ProdSingRedoBetween,2021.2.3,59.99692815789722,
12,0,12,0,,,,,,,,,,,,,,,,,,,,,,,,,,293.5238516999998,None,message,14,13,sing,yellow,291.52163729999666,None,None,291.52163729999666,None,,,,,,,,,,,,,,,,,,,,,,,,,,,,,,,,,,,177 Sing,001,2022_Dec_01_1501,ProdSingRedoBetween,2021.2.3,59.99692815789722,
13,0,13,0,,,,,,,,,,,,,,,,,,,,,,,,,,296.02615539999897,None,guard,77,14,sing,red,294.0239853999992,None,None,294.0239853999992,None,,,,,,,,,,,,,,,,,,,,,,,,,,,,,,,,,,,177 Sing,001,2022_Dec_01_1501,ProdSingRedoBetween,2021.2.3,59.99692815789722,
14,0,14,0,,,,,,,,,,,,,,,,,,,,,,,,,,298.5451308999982,None,suggestion,23,15,sing,yellow,296.5303279999971,None,None,296.5303279999971,None,,,,,,,,,,,,,,,,,,,,,,,,,,,,,,,,,,,177 Sing,001,2022_Dec_01_1501,ProdSingRedoBetween,2021.2.3,59.99692815789722,
15,0,15,0,,,,,,,,,,,,,,,,,,,,,,,,,,301.06428519999827,None,meeting,7,16,sing,yellow,299.05509379999785,None,None,299.05509379999785,None,,,,,,,,,,,,,,,,,,,,,,,,,,,,,,,,,,,177 Sing,001,2022_Dec_01_1501,ProdSingRedoBetween,2021.2.3,59.99692815789722,
16,0,16,0,,,,,,,,,,,,,,,,,,,,,,,,,,303.56698969999707,None,society,75,17,sing,red,301.56480759999977,None,None,301.56480759999977,None,,,,,,,,,,,,,,,,,,,,,,,,,,,,,,,,,,,177 Sing,001,2022_Dec_01_1501,ProdSingRedoBetween,2021.2.3,59.99692815789722,
17,0,17,0,,,,,,,,,,,,,,,,,,,,,,,,,,306.06946609999795,None,course,65,18,sing,red,304.06945209999685,None,None,304.06945209999685,None,,,,,,,,,,,,,,,,,,,,,,,,,,,,,,,,,,,177 Sing,001,2022_Dec_01_1501,ProdSingRedoBetween,2021.2.3,59.99692815789722,
18,0,18,0,,,,,,,,,,,,,,,,,,,,,,,,,,308.572063399999,None,fight,62,19,sing,red,306.5711737999991,None,None,306.5711737999991,None,,,,,,,,,,,,,,,,,,,,,,,,,,,,,,,,,,,177 Sing,001,2022_Dec_01_1501,ProdSingRedoBetween,2021.2.3,59.99692815789722,
19,0,19,0,,,,,,,,,,,,,,,,,,,,,,,,,,311.09124959999826,None,candidate,48,20,sing,blue,309.07853799999793,None,None,309.07853799999793,None,,,,,,,,,,,,,,,,,,,,,,,,,,,,,,,,,,,177 Sing,001,2022_Dec_01_1501,ProdSingRedoBetween,2021.2.3,59.99692815789722,
20,0,20,0,,,,,,,,,,,,,,,,,,,,,,,,,,313.6102097999974,None,suspect,64,21,sing,red,311.5949931999967,None,None,311.5949931999967,None,,,,,,,,,,,,,,,,,,,,,,,,,,,,,,,,,,,177 Sing,001,2022_Dec_01_1501,ProdSingRedoBetween,2021.2.3,59.99692815789722,
21,0,21,0,,,,,,,,,,,,,,,,,,,,,,,,,,316.1295312000002,None,detective,27,22,sing,yellow,314.11637379999956,None,None,314.11637379999956,None,,,,,,,,,,,,,,,,,,,,,,,,,,,,,,,,,,,177 Sing,001,2022_Dec_01_1501,ProdSingRedoBetween,2021.2.3,59.99692815789722,
22,0,22,0,,,,,,,,,,,,,,,,,,,,,,,,,,318.63207249999687,None,thick,26,23,sing,yellow,316.63120649999837,None,None,316.63120649999837,None,,,,,,,,,,,,,,,,,,,,,,,,,,,,,,,,,,,177 Sing,001,2022_Dec_01_1501,ProdSingRedoBetween,2021.2.3,59.99692815789722,
23,0,23,0,,,,,,,,,,,,,,,,,,,,,,,,,,321.1345569999976,None,measure,35,24,sing,blue,319.1347612999998,None,None,319.1347612999998,None,,,,,,,,,,,,,,,,,,,,,,,,,,,,,,,,,,,177 Sing,001,2022_Dec_01_1501,ProdSingRedoBetween,2021.2.3,59.99692815789722,
24,0,24,0,,,,,,,,,,,,,,,,,,,,,,,,,,323.63727239999935,None,running,12,25,sing,yellow,321.63777659999687,None,None,321.63777659999687,None,,,,,,,,,,,,,,,,,,,,,,,,,,,,,,,,,,,177 Sing,001,2022_Dec_01_1501,ProdSingRedoBetween,2021.2.3,59.99692815789722,
25,0,25,0,,,,,,,,,,,,,,,,,,,,,,,,,,326.15626829999746,None,question,39,26,sing,blue,324.15026769999895,None,None,324.15026769999895,None,,,,,,,,,,,,,,,,,,,,,,,,,,,,,,,,,,,177 Sing,001,2022_Dec_01_1501,ProdSingRedoBetween,2021.2.3,59.99692815789722,
26,0,26,0,,,,,,,,,,,,,,,,,,,,,,,,,,328.65881439999794,None,report,51,27,sing,blue,326.6566105999991,None,None,326.6566105999991,None,,,,,,,,,,,,,,,,,,,,,,,,,,,,,,,,,,,177 Sing,001,2022_Dec_01_1501,ProdSingRedoBetween,2021.2.3,59.99692815789722,
27,0,27,0,,,,,,,,,,,,,,,,,,,,,,,,,,331.161235399999,None,reading,10,28,sing,yellow,329.159807,None,None,329.159807,None,,,,,,,,,,,,,,,,,,,,,,,,,,,,,,,,,,,177 Sing,001,2022_Dec_01_1501,ProdSingRedoBetween,2021.2.3,59.99692815789722,
28,0,28,0,,,,,,,,,,,,,,,,,,,,,,,,,,333.68050219999714,None,department,38,29,sing,blue,331.67136839999876,None,None,331.67136839999876,None,,,,,,,,,,,,,,,,,,,,,,,,,,,,,,,,,,,177 Sing,001,2022_Dec_01_1501,ProdSingRedoBetween,2021.2.3,59.99692815789722,
29,0,29,0,,,,,,,,,,,,,,,,,,,,,,,,,,336.1828863999981,None,property,82,30,sing,red,334.18271099999765,None,None,334.18271099999765,None,,,,,,,,,,,,,,,,,,,,,,,,,,,,,,,,,,,177 Sing,001,2022_Dec_01_1501,ProdSingRedoBetween,2021.2.3,59.99692815789722,
30,0,30,0,,,,,,,,,,,,,,,,,,,,,,,,,,338.70209279999835,None,range,4,31,sing,yellow,336.6936876999971,None,None,336.6936876999971,None,,,,,,,,,,,,,,,,,,,,,,,,,,,,,,,,,,,177 Sing,001,2022_Dec_01_1501,ProdSingRedoBetween,2021.2.3,59.99692815789722,
31,0,31,0,,,,,,,,,,,,,,,,,,,,,,,,,,341.22131909999734,None,audience,54,32,sing,blue,339.2066195999978,None,None,339.2066195999978,None,,,,,,,,,,,,,,,,,,,,,,,,,,,,,,,,,,,177 Sing,001,2022_Dec_01_1501,ProdSingRedoBetween,2021.2.3,59.99692815789722,
32,0,32,0,,,,,,,,,,,,,,,,,,,,,,,,,,343.7238096000001,None,broke,43,33,sing,blue,341.7238698999972,None,None,341.7238698999972,None,,,,,,,,,,,,,,,,,,,,,,,,,,,,,,,,,,,177 Sing,001,2022_Dec_01_1501,ProdSingRedoBetween,2021.2.3,59.99692815789722,
33,0,33,0,,,,,,,,,,,,,,,,,,,,,,,,,,346.2262536999988,None,shear,25,34,sing,yellow,344.2270412999969,None,None,344.2270412999969,None,,,,,,,,,,,,,,,,,,,,,,,,,,,,,,,,,,,177 Sing,001,2022_Dec_01_1501,ProdSingRedoBetween,2021.2.3,59.99692815789722,
34,0,34,0,,,,,,,,,,,,,,,,,,,,,,,,,,348.7455444999978,None,permit,0,35,sing,yellow,346.73687549999886,None,None,346.73687549999886,None,,,,,,,,,,,,,,,,,,,,,,,,,,,,,,,,,,,177 Sing,001,2022_Dec_01_1501,ProdSingRedoBetween,2021.2.3,59.99692815789722,
35,0,35,0,,,,,,,,,,,,,,,,,,,,,,,,,,351.2480624999989,None,entrance,52,36,sing,blue,349.2483222999981,None,None,349.2483222999981,None,,,,,,,,,,,,,,,,,,,,,,,,,,,,,,,,,,,177 Sing,001,2022_Dec_01_1501,ProdSingRedoBetween,2021.2.3,59.99692815789722,
36,0,36,0,,,,,,,,,,,,,,,,,,,,,,,,,,353.75049299999955,None,travel,60,37,sing,red,351.7506540999966,None,None,351.7506540999966,None,,,,,,,,,,,,,,,,,,,,,,,,,,,,,,,,,,,177 Sing,001,2022_Dec_01_1501,ProdSingRedoBetween,2021.2.3,59.99692815789722,
37,0,37,0,,,,,,,,,,,,,,,,,,,,,,,,,,356.25312089999716,None,little,16,38,sing,yellow,354.2527921000001,None,None,354.2527921000001,None,,,,,,,,,,,,,,,,,,,,,,,,,,,,,,,,,,,177 Sing,001,2022_Dec_01_1501,ProdSingRedoBetween,2021.2.3,59.99692815789722,
38,0,38,0,,,,,,,,,,,,,,,,,,,,,,,,,,358.7721114999986,None,burden,68,39,sing,red,356.757236999998,None,None,356.757236999998,None,,,,,,,,,,,,,,,,,,,,,,,,,,,,,,,,,,,177 Sing,001,2022_Dec_01_1501,ProdSingRedoBetween,2021.2.3,59.99692815789722,
39,0,39,0,,,,,,,,,,,,,,,,,,,,,,,,,,361.27468880000015,None,clear,80,40,sing,red,359.27266359999703,None,None,359.27266359999703,None,,,,,,,,,,,,,,,,,,,,,,,,,,,,,,,,,,,177 Sing,001,2022_Dec_01_1501,ProdSingRedoBetween,2021.2.3,59.99692815789722,
40,0,40,0,,,,,,,,,,,,,,,,,,,,,,,,,,363.79388649999964,None,voice,34,41,sing,blue,361.78529269999854,None,None,361.78529269999854,None,,,,,,,,,,,,,,,,,,,,,,,,,,,,,,,,,,,177 Sing,001,2022_Dec_01_1501,ProdSingRedoBetween,2021.2.3,59.99692815789722,
41,0,41,0,,,,,,,,,,,,,,,,,,,,,,,,,,366.29638689999774,None,track,53,42,sing,blue,364.29610489999686,None,None,364.29610489999686,None,,,,,,,,,,,,,,,,,,,,,,,,,,,,,,,,,,,177 Sing,001,2022_Dec_01_1501,ProdSingRedoBetween,2021.2.3,59.99692815789722,
42,0,42,0,,,,,,,,,,,,,,,,,,,,,,,,,,368.8155044999985,None,estate,63,43,sing,red,366.8027243999968,None,None,366.8027243999968,None,,,,,,,,,,,,,,,,,,,,,,,,,,,,,,,,,,,177 Sing,001,2022_Dec_01_1501,ProdSingRedoBetween,2021.2.3,59.99692815789722,
43,0,43,0,,,,,,,,,,,,,,,,,,,,,,,,,,371.3347357999992,None,author,55,44,sing,blue,369.32078649999676,None,None,369.32078649999676,None,,,,,,,,,,,,,,,,,,,,,,,,,,,,,,,,,,,177 Sing,001,2022_Dec_01_1501,ProdSingRedoBetween,2021.2.3,59.99692815789722,
44,0,44,0,,,,,,,,,,,,,,,,,,,,,,,,,,373.85398279999936,None,payment,61,45,sing,red,371.8386486999989,None,None,371.8386486999989,None,,,,,,,,,,,,,,,,,,,,,,,,,,,,,,,,,,,177 Sing,001,2022_Dec_01_1501,ProdSingRedoBetween,2021.2.3,59.99692815789722,
45,0,45,0,,,,,,,,,,,,,,,,,,,,,,,,,,376.35613620000004,None,damage,56,46,sing,blue,374.35705309999685,None,None,374.35705309999685,None,,,,,,,,,,,,,,,,,,,,,,,,,,,,,,,,,,,177 Sing,001,2022_Dec_01_1501,ProdSingRedoBetween,2021.2.3,59.99692815789722,
46,0,46,0,,,,,,,,,,,,,,,,,,,,,,,,,,378.8589858999985,None,union,33,47,sing,blue,376.85871439999755,None,None,376.85871439999755,None,,,,,,,,,,,,,,,,,,,,,,,,,,,,,,,,,,,177 Sing,001,2022_Dec_01_1501,ProdSingRedoBetween,2021.2.3,59.99692815789722,
47,0,47,0,,,,,,,,,,,,,,,,,,,,,,,,,,381.36141789999965,None,engineer,32,48,sing,blue,379.3596615999995,None,None,379.3596615999995,None,,,,,,,,,,,,,,,,,,,,,,,,,,,,,,,,,,,177 Sing,001,2022_Dec_01_1501,ProdSingRedoBetween,2021.2.3,59.99692815789722,
48,0,48,0,,,,,,,,,,,,,,,,,,,,,,,,,,383.86397699999725,None,death,76,49,sing,red,381.8624820999976,None,None,381.8624820999976,None,,,,,,,,,,,,,,,,,,,,,,,,,,,,,,,,,,,177 Sing,001,2022_Dec_01_1501,ProdSingRedoBetween,2021.2.3,59.99692815789722,
49,0,49,0,,,,,,,,,,,,,,,,,,,,,,,,,,386.3830890999998,None,thing,67,50,sing,red,384.368091999997,None,None,384.368091999997,None,,,,,,,,,,,,,,,,,,,,,,,,,,,,,,,,,,,177 Sing,001,2022_Dec_01_1501,ProdSingRedoBetween,2021.2.3,59.99692815789722,
50,0,50,0,,,,,,,,,,,,,,,,,,,,,,,,,,388.88569089999874,None,collection,28,51,sing,yellow,386.8836381000001,None,None,386.8836381000001,None,,,,,,,,,,,,,,,,,,,,,,,,,,,,,,,,,,,177 Sing,001,2022_Dec_01_1501,ProdSingRedoBetween,2021.2.3,59.99692815789722,
51,0,51,0,,,,,,,,,,,,,,,,,,,,,,,,,,391.4048374999984,None,style,49,52,sing,blue,389.3917088999988,None,None,389.3917088999988,None,,,,,,,,,,,,,,,,,,,,,,,,,,,,,,,,,,,177 Sing,001,2022_Dec_01_1501,ProdSingRedoBetween,2021.2.3,59.99692815789722,
52,0,52,0,,,,,,,,,,,,,,,,,,,,,,,,,,393.92394579999745,None,literature,21,53,sing,yellow,391.9087417999981,None,None,391.9087417999981,None,,,,,,,,,,,,,,,,,,,,,,,,,,,,,,,,,,,177 Sing,001,2022_Dec_01_1501,ProdSingRedoBetween,2021.2.3,59.99692815789722,
53,0,53,0,,,,,,,,,,,,,,,,,,,,,,,,,,396.42648169999666,None,height,37,54,sing,blue,394.4244880999977,None,None,394.4244880999977,None,,,,,,,,,,,,,,,,,,,,,,,,,,,,,,,,,,,177 Sing,001,2022_Dec_01_1501,ProdSingRedoBetween,2021.2.3,59.99692815789722,
54,0,54,0,,,,,,,,,,,,,,,,,,,,,,,,,,398.94560419999834,None,break,3,55,sing,yellow,396.9301869999981,None,None,396.9301869999981,None,,,,,,,,,,,,,,,,,,,,,,,,,,,,,,,,,,,177 Sing,001,2022_Dec_01_1501,ProdSingRedoBetween,2021.2.3,59.99692815789722,
55,0,55,0,,,,,,,,,,,,,,,,,,,,,,,,,,401.4648548999976,None,discovery,73,56,sing,red,399.45480009999665,None,None,399.45480009999665,None,,,,,,,,,,,,,,,,,,,,,,,,,,,,,,,,,,,177 Sing,001,2022_Dec_01_1501,ProdSingRedoBetween,2021.2.3,59.99692815789722,
56,0,56,0,,,,,,,,,,,,,,,,,,,,,,,,,,403.98403399999734,None,disease,18,57,sing,yellow,401.97050209999725,None,None,401.97050209999725,None,,,,,,,,,,,,,,,,,,,,,,,,,,,,,,,,,,,177 Sing,001,2022_Dec_01_1501,ProdSingRedoBetween,2021.2.3,59.99692815789722,
57,0,57,0,,,,,,,,,,,,,,,,,,,,,,,,,,406.4865185999988,None,shape,58,58,sing,blue,404.4866434999967,None,None,404.4866434999967,None,,,,,,,,,,,,,,,,,,,,,,,,,,,,,,,,,,,177 Sing,001,2022_Dec_01_1501,ProdSingRedoBetween,2021.2.3,59.99692815789722,
58,0,58,0,,,,,,,,,,,,,,,,,,,,,,,,,,409.00581239999883,None,division,69,59,sing,red,406.9911508999976,None,None,406.9911508999976,None,,,,,,,,,,,,,,,,,,,,,,,,,,,,,,,,,,,177 Sing,001,2022_Dec_01_1501,ProdSingRedoBetween,2021.2.3,59.99692815789722,
59,0,59,0,,,,,,,,,,,,,,,,,,,,,,,,,,411.5249008999999,None,incident,15,60,sing,yellow,409.51500889999807,None,None,409.51500889999807,None,,,,,,,,,,,,,,,,,,,,,,,,,,,,,,,,,,,177 Sing,001,2022_Dec_01_1501,ProdSingRedoBetween,2021.2.3,59.99692815789722,
60,0,60,0,,,,,,,,,,,,,,,,,,,,,,,,,,414.0441565000001,None,group,81,61,sing,red,412.0292784999983,None,None,412.0292784999983,None,,,,,,,,,,,,,,,,,,,,,,,,,,,,,,,,,,,177 Sing,001,2022_Dec_01_1501,ProdSingRedoBetween,2021.2.3,59.99692815789722,
61,0,61,0,,,,,,,,,,,,,,,,,,,,,,,,,,416.5634622999969,None,native,70,62,sing,red,414.54831179999746,None,None,414.54831179999746,None,,,,,,,,,,,,,,,,,,,,,,,,,,,,,,,,,,,177 Sing,001,2022_Dec_01_1501,ProdSingRedoBetween,2021.2.3,59.99692815789722,
62,0,62,0,,,,,,,,,,,,,,,,,,,,,,,,,,419.06573500000013,None,captain,66,63,sing,red,417.0666547999972,None,None,417.0666547999972,None,,,,,,,,,,,,,,,,,,,,,,,,,,,,,,,,,,,177 Sing,001,2022_Dec_01_1501,ProdSingRedoBetween,2021.2.3,59.99692815789722,
63,0,63,0,,,,,,,,,,,,,,,,,,,,,,,,,,421.5682457999974,None,commercial,5,64,sing,yellow,419.5664584999977,None,None,419.5664584999977,None,,,,,,,,,,,,,,,,,,,,,,,,,,,,,,,,,,,177 Sing,001,2022_Dec_01_1501,ProdSingRedoBetween,2021.2.3,59.99692815789722,
64,0,64,0,,,,,,,,,,,,,,,,,,,,,,,,,,424.0708564999986,None,profession,74,65,sing,red,422.07055539999783,None,None,422.07055539999783,None,,,,,,,,,,,,,,,,,,,,,,,,,,,,,,,,,,,177 Sing,001,2022_Dec_01_1501,ProdSingRedoBetween,2021.2.3,59.99692815789722,
65,0,65,0,,,,,,,,,,,,,,,,,,,,,,,,,,426.58995119999963,None,blind,50,66,sing,blue,424.5747795999996,None,None,424.5747795999996,None,,,,,,,,,,,,,,,,,,,,,,,,,,,,,,,,,,,177 Sing,001,2022_Dec_01_1501,ProdSingRedoBetween,2021.2.3,59.99692815789722,
66,0,66,0,,,,,,,,,,,,,,,,,,,,,,,,,,429.0922490999983,None,threat,2,67,sing,yellow,427.0911718999996,None,None,427.0911718999996,None,,,,,,,,,,,,,,,,,,,,,,,,,,,,,,,,,,,177 Sing,001,2022_Dec_01_1501,ProdSingRedoBetween,2021.2.3,59.99692815789722,
67,0,67,0,,,,,,,,,,,,,,,,,,,,,,,,,,431.5948978999986,None,direction,85,68,sing,red,429.5942507,None,None,429.5942507,None,,,,,,,,,,,,,,,,,,,,,,,,,,,,,,,,,,,177 Sing,001,2022_Dec_01_1501,ProdSingRedoBetween,2021.2.3,59.99692815789722,
68,0,68,0,,,,,,,,,,,,,,,,,,,,,,,,,,434.11408689999735,None,victory,47,69,sing,blue,432.099836399997,None,None,432.099836399997,None,,,,,,,,,,,,,,,,,,,,,,,,,,,,,,,,,,,177 Sing,001,2022_Dec_01_1501,ProdSingRedoBetween,2021.2.3,59.99692815789722,
69,0,69,0,,,,,,,,,,,,,,,,,,,,,,,,,,436.61669959999927,None,afternoon,9,70,sing,yellow,434.6146302999987,None,None,434.6146302999987,None,,,,,,,,,,,,,,,,,,,,,,,,,,,,,,,,,,,177 Sing,001,2022_Dec_01_1501,ProdSingRedoBetween,2021.2.3,59.99692815789722,
70,0,70,0,,,,,,,,,,,,,,,,,,,,,,,,,,439.1359206999987,None,waste,42,71,sing,blue,437.1207617999971,None,None,437.1207617999971,None,,,,,,,,,,,,,,,,,,,,,,,,,,,,,,,,,,,177 Sing,001,2022_Dec_01_1501,ProdSingRedoBetween,2021.2.3,59.99692815789722,
71,0,71,0,,,,,,,,,,,,,,,,,,,,,,,,,,441.6549786999967,None,weight,8,72,sing,yellow,439.6399896999974,None,None,439.6399896999974,None,,,,,,,,,,,,,,,,,,,,,,,,,,,,,,,,,,,177 Sing,001,2022_Dec_01_1501,ProdSingRedoBetween,2021.2.3,59.99692815789722,
72,0,72,0,,,,,,,,,,,,,,,,,,,,,,,,,,444.17424729999766,None,pattern,31,73,sing,blue,442.16307179999785,None,None,442.16307179999785,None,,,,,,,,,,,,,,,,,,,,,,,,,,,,,,,,,,,177 Sing,001,2022_Dec_01_1501,ProdSingRedoBetween,2021.2.3,59.99692815789722,
73,0,73,0,,,,,,,,,,,,,,,,,,,,,,,,,,446.6766557999981,None,weather,87,74,sing,red,444.6762641999994,None,None,444.6762641999994,None,,,,,,,,,,,,,,,,,,,,,,,,,,,,,,,,,,,177 Sing,001,2022_Dec_01_1501,ProdSingRedoBetween,2021.2.3,59.99692815789722,
74,0,74,0,,,,,,,,,,,,,,,,,,,,,,,,,,449.1792248999991,None,committee,19,75,sing,yellow,447.1782456999972,None,None,447.1782456999972,None,,,,,,,,,,,,,,,,,,,,,,,,,,,,,,,,,,,177 Sing,001,2022_Dec_01_1501,ProdSingRedoBetween,2021.2.3,59.99692815789722,
75,0,75,0,,,,,,,,,,,,,,,,,,,,,,,,,,451.6983740999967,None,novel,29,76,sing,blue,449.68427529999826,None,None,449.68427529999826,None,,,,,,,,,,,,,,,,,,,,,,,,,,,,,,,,,,,177 Sing,001,2022_Dec_01_1501,ProdSingRedoBetween,2021.2.3,59.99692815789722,
76,0,76,0,,,,,,,,,,,,,,,,,,,,,,,,,,454.20087539999804,None,exchange,72,77,sing,red,452.19886789999873,None,None,452.19886789999873,None,,,,,,,,,,,,,,,,,,,,,,,,,,,,,,,,,,,177 Sing,001,2022_Dec_01_1501,ProdSingRedoBetween,2021.2.3,59.99692815789722,
77,0,77,0,,,,,,,,,,,,,,,,,,,,,,,,,,456.7202004999999,None,emergency,20,78,sing,yellow,454.7078647999988,None,None,454.7078647999988,None,,,,,,,,,,,,,,,,,,,,,,,,,,,,,,,,,,,177 Sing,001,2022_Dec_01_1501,ProdSingRedoBetween,2021.2.3,59.99692815789722,
78,0,78,0,,,,,,,,,,,,,,,,,,,,,,,,,,459.2392456999987,None,tennis,86,79,sing,red,457.231017099999,None,None,457.231017099999,None,,,,,,,,,,,,,,,,,,,,,,,,,,,,,,,,,,,177 Sing,001,2022_Dec_01_1501,ProdSingRedoBetween,2021.2.3,59.99692815789722,
79,0,79,0,,,,,,,,,,,,,,,,,,,,,,,,,,461.7417428999979,None,write,1,80,sing,yellow,459.7412680999987,None,None,459.7412680999987,None,,,,,,,,,,,,,,,,,,,,,,,,,,,,,,,,,,,177 Sing,001,2022_Dec_01_1501,ProdSingRedoBetween,2021.2.3,59.99692815789722,
80,0,80,0,,,,,,,,,,,,,,,,,,,,,,,,,,464.2442902999974,None,plane,57,81,sing,blue,462.24337430000014,None,None,462.24337430000014,None,,,,,,,,,,,,,,,,,,,,,,,,,,,,,,,,,,,177 Sing,001,2022_Dec_01_1501,ProdSingRedoBetween,2021.2.3,59.99692815789722,
81,0,81,0,,,,,,,,,,,,,,,,,,,,,,,,,,466.7632100999981,None,breath,13,82,sing,yellow,464.7511898999983,None,None,464.7511898999983,None,,,,,,,,,,,,,,,,,,,,,,,,,,,,,,,,,,,177 Sing,001,2022_Dec_01_1501,ProdSingRedoBetween,2021.2.3,59.99692815789722,
82,0,82,0,,,,,,,,,,,,,,,,,,,,,,,,,,469.2826782999982,None,equipment,71,83,sing,red,467.27241479999793,None,None,467.27241479999793,None,,,,,,,,,,,,,,,,,,,,,,,,,,,,,,,,,,,177 Sing,001,2022_Dec_01_1501,ProdSingRedoBetween,2021.2.3,59.99692815789722,
83,0,83,0,,,,,,,,,,,,,,,,,,,,,,,,,,471.7851383999987,None,account,36,84,sing,blue,469.78526359999887,None,None,469.78526359999887,None,,,,,,,,,,,,,,,,,,,,,,,,,,,,,,,,,,,177 Sing,001,2022_Dec_01_1501,ProdSingRedoBetween,2021.2.3,59.99692815789722,
84,0,84,0,,,,,,,,,,,,,,,,,,,,,,,,,,474.2876206000001,None,notice,45,85,sing,blue,472.2877410999972,None,None,472.2877410999972,None,,,,,,,,,,,,,,,,,,,,,,,,,,,,,,,,,,,177 Sing,001,2022_Dec_01_1501,ProdSingRedoBetween,2021.2.3,59.99692815789722,
85,0,85,0,,,,,,,,,,,,,,,,,,,,,,,,,,476.7900770999986,None,owner,89,86,sing,red,474.7893404999995,None,None,474.7893404999995,None,,,,,,,,,,,,,,,,,,,,,,,,,,,,,,,,,,,177 Sing,001,2022_Dec_01_1501,ProdSingRedoBetween,2021.2.3,59.99692815789722,
86,0,86,0,,,,,,,,,,,,,,,,,,,,,,,,,,479.30932149999717,None,clean,79,87,sing,red,477.2996493999999,None,None,477.2996493999999,None,,,,,,,,,,,,,,,,,,,,,,,,,,,,,,,,,,,177 Sing,001,2022_Dec_01_1501,ProdSingRedoBetween,2021.2.3,59.99692815789722,
87,0,87,0,,,,,,,,,,,,,,,,,,,,,,,,,,481.81196679999994,None,answer,83,88,sing,red,479.8119293999989,None,None,479.8119293999989,None,,,,,,,,,,,,,,,,,,,,,,,,,,,,,,,,,,,177 Sing,001,2022_Dec_01_1501,ProdSingRedoBetween,2021.2.3,59.99692815789722,
88,0,88,0,,,,,,,,,,,,,,,,,,,,,,,,,,484.3309956999983,None,skill,40,89,sing,blue,482.31715319999785,None,None,482.31715319999785,None,,,,,,,,,,,,,,,,,,,,,,,,,,,,,,,,,,,177 Sing,001,2022_Dec_01_1501,ProdSingRedoBetween,2021.2.3,59.99692815789722,
89,0,89,0,,,,,,,,,,,,,,,,,,,,,,,,,,486.83347989999675,None,nature,46,90,sing,blue,484.83149349999803,None,None,484.83149349999803,None,,,,,,,,,,,,,,,,,,,,,,,,,,,,,,,,,,,177 Sing,001,2022_Dec_01_1501,ProdSingRedoBetween,2021.2.3,59.99692815789722,
,,,,,,,,,,,,,,,,,,,,,,,,,,,,,,,,,,,,,,,,,487.3343332999975,None,k,195.81470350000018,487.3343332999975,None,,,,,,,,,,,,,,,,,,,,,,,,,,,,,177 Sing,001,2022_Dec_01_1501,ProdSingRedoBetween,2021.2.3,59.99692815789722,
,,,,0,0,0,0,,,,,,,,,,,,,,,,,,,,,,727.490581799997,None,,,,,,,,,,,,,,,,,order,173,1,sing,new,null,683.6865003999992,None,683.6865003999992,None,4,32.42233479999777,683.6865003999992,None,32.42233479999777,716.1336405000002,None,716.6467650999984,None,716.6467650999984,None,r,10.814017699998658,716.6467650999984,None,10.814017699998658,,,177 Sing,001,2022_Dec_01_1501,ProdSingRedoBetween,2021.2.3,59.99692815789722,
,,,,1,0,1,0,,,,,,,,,,,,,,,,,,,,,,740.7039406999975,None,,,,,,,,,,,,,,,,,estate,63,2,sing,old,red,727.997711,None,727.997711,None,6,7.735225500000524,727.997711,None,7.735225500000524,735.7637856000001,None,736.2708525999988,None,736.2708525999988,None,f,4.41404639999746,736.2708525999988,None,4.41404639999746,,,177 Sing,001,2022_Dec_01_1501,ProdSingRedoBetween,2021.2.3,59.99692815789722,
,,,,2,0,2,0,,,,,,,,,,,,,,,,,,,,,,748.8661695999981,None,,,,,,,,,,,,,,,,,distance,125,3,sing,new,null,741.220883799997,None,741.220883799997,None,5,3.3840158999992127,741.220883799997,None,3.3840158999992127,744.633308299999,None,745.1460353999973,None,745.1460353999973,None,r,3.698867399998562,745.1460353999973,None,3.698867399998562,,,177 Sing,001,2022_Dec_01_1501,ProdSingRedoBetween,2021.2.3,59.99692815789722,
,,,,3,0,3,0,,,,,,,,,,,,,,,,,,,,,,757.2704191999983,None,,,,,,,,,,,,,,,,,committee,19,4,sing,old,yellow,749.3859648999969,None,749.3859648999969,None,6,2.906893699997454,749.3859648999969,None,2.906893699997454,752.3216503999975,None,752.8384455999985,None,752.8384455999985,None,r,4.41436419999809,752.8384455999985,None,4.41436419999809,,,177 Sing,001,2022_Dec_01_1501,ProdSingRedoBetween,2021.2.3,59.99692815789722,
,,,,4,0,4,0,,,,,,,,,,,,,,,,,,,,,,766.6962523999973,None,,,,,,,,,,,,,,,,,quantity,162,5,sing,new,null,757.7828236999994,None,757.7828236999994,None,4,5.741980399998283,757.7828236999994,None,5.741980399998283,763.5512208,None,764.0652941999979,None,764.0652941999979,None,r,2.6035475000026054,764.0652941999979,None,2.6035475000026054,,,177 Sing,001,2022_Dec_01_1501,ProdSingRedoBetween,2021.2.3,59.99692815789722,
,,,,5,0,5,0,,,,,,,,,,,,,,,,,,,,,,776.506843799998,None,,,,,,,,,,,,,,,,,leader,138,6,sing,new,null,767.2068083999984,None,767.2068083999984,None,5,6.558104399999138,767.2068083999984,None,6.558104399999138,773.7938878999994,None,774.3086339000001,None,774.3086339000001,None,r,2.168241699997452,774.3086339000001,None,2.168241699997452,,,177 Sing,001,2022_Dec_01_1501,ProdSingRedoBetween,2021.2.3,59.99692815789722,
,,,,6,0,6,0,,,,,,,,,,,,,,,,,,,,,,785.3831045999978,None,,,,,,,,,,,,,,,,,question,39,7,sing,old,blue,777.0173510999994,None,777.0173510999994,None,4,5.499588600003335,777.0173510999994,None,5.499588600003335,782.5562649999993,None,783.0651163999974,None,783.0651163999974,None,r,2.291821099999652,783.0651163999974,None,2.291821099999652,,,177 Sing,001,2022_Dec_01_1501,ProdSingRedoBetween,2021.2.3,59.99692815789722,
,,,,7,0,7,0,,,,,,,,,,,,,,,,,,,,,,798.6784186999976,None,,,,,,,,,,,,,,,,,private,93,8,sing,new,null,785.8947864999973,None,785.8947864999973,None,3,3.3420680000017455,785.8947864999973,None,3.3420680000017455,789.2553343999971,None,789.7762140999985,None,789.7762140999985,None,r,8.884599299999536,789.7762140999985,None,8.884599299999536,,,177 Sing,001,2022_Dec_01_1501,ProdSingRedoBetween,2021.2.3,59.99692815789722,
,,,,8,0,8,0,,,,,,,,,,,,,,,,,,,,,,810.5736507000001,None,,,,,,,,,,,,,,,,,discovery,73,9,sing,old,red,799.1878883999998,None,799.1878883999998,None,4,9.960946800001693,799.1878883999998,None,9.960946800001693,809.172289099999,None,809.6792219999988,None,809.6792219999988,None,r,0.8697183999975096,809.6792219999988,None,0.8697183999975096,,,177 Sing,001,2022_Dec_01_1501,ProdSingRedoBetween,2021.2.3,59.99692815789722,
,,,,9,0,9,0,,,,,,,,,,,,,,,,,,,,,,817.1803445999976,None,,,,,,,,,,,,,,,,,trash,133,10,sing,new,null,811.0837685999977,None,811.0837685999977,None,3,2.47307020000153,811.0837685999977,None,2.47307020000153,813.5780018999976,None,814.0863633999979,None,814.0863633999979,None,r,3.062469800002873,814.0863633999979,None,3.062469800002873,,,177 Sing,001,2022_Dec_01_1501,ProdSingRedoBetween,2021.2.3,59.99692815789722,
,,,,10,0,10,0,,,,,,,,,,,,,,,,,,,,,,824.9212915999997,None,,,,,,,,,,,,,,,,,tragedy,170,11,sing,new,null,817.6839368000001,None,817.6839368000001,None,4,3.592963899998722,817.6839368000001,None,3.592963899998722,821.3083058999982,None,821.8183594000002,None,821.8183594000002,None,r,3.0745093000005,821.8183594000002,None,3.0745093000005,,,177 Sing,001,2022_Dec_01_1501,ProdSingRedoBetween,2021.2.3,59.99692815789722,
,,,,11,0,11,0,,,,,,,,,,,,,,,,,,,,,,831.8121256999984,None,,,,,,,,,,,,,,,,,write,1,12,sing,old,yellow,825.4342943999982,None,825.4342943999982,None,4,3.234593000001041,825.4342943999982,None,3.234593000001041,828.6931038999974,None,829.1967781999992,None,829.1967781999992,None,r,2.600047600000835,829.1967781999992,None,2.600047600000835,,,177 Sing,001,2022_Dec_01_1501,ProdSingRedoBetween,2021.2.3,59.99692815789722,
,,,,12,0,12,0,,,,,,,,,,,,,,,,,,,,,,838.6016658999979,None,,,,,,,,,,,,,,,,,broad,24,13,sing,old,yellow,832.3199494999972,None,832.3199494999972,None,4,2.9008155000010447,832.3199494999972,None,2.9008155000010447,835.2493005999968,None,835.7551897999983,None,835.7551897999983,None,r,2.8176893000018026,835.7551897999983,None,2.8176893000018026,,,177 Sing,001,2022_Dec_01_1501,ProdSingRedoBetween,2021.2.3,59.99692815789722,
,,,,13,0,13,0,,,,,,,,,,,,,,,,,,,,,,849.0788431999972,None,,,,,,,,,,,,,,,,,heavy,6,14,sing,old,yellow,839.1136531999982,None,839.1136531999982,None,4,6.819307199999457,839.1136531999982,None,6.819307199999457,845.9640725999998,None,846.4821027999969,None,846.4821027999969,None,r,2.578693100000237,846.4821027999969,None,2.578693100000237,,,177 Sing,001,2022_Dec_01_1501,ProdSingRedoBetween,2021.2.3,59.99692815789722,
,,,,14,0,14,0,,,,,,,,,,,,,,,,,,,,,,855.7733016999991,None,,,,,,,,,,,,,,,,,audience,54,15,sing,old,blue,849.5874003999998,None,849.5874003999998,None,5,3.569418900002347,849.5874003999998,None,3.569418900002347,853.1850916999974,None,853.7021767999977,None,853.7021767999977,None,r,2.0388739999980316,853.7021767999977,None,2.0388739999980316,,,177 Sing,001,2022_Dec_01_1501,ProdSingRedoBetween,2021.2.3,59.99692815789722,
,,,,15,0,15,0,,,,,,,,,,,,,,,,,,,,,,863.3957252999971,None,,,,,,,,,,,,,,,,,style,49,16,sing,old,blue,856.2947180999981,None,856.2947180999981,None,4,3.3741741000012553,856.2947180999981,None,3.3741741000012553,859.6962787999983,None,860.2085236999992,None,860.2085236999992,None,r,3.1564409999991767,860.2085236999992,None,3.1564409999991767,,,177 Sing,001,2022_Dec_01_1501,ProdSingRedoBetween,2021.2.3,59.99692815789722,
,,,,16,0,16,0,,,,,,,,,,,,,,,,,,,,,,871.2677301999975,None,,,,,,,,,,,,,,,,,power,169,17,sing,new,null,863.9210313999974,None,863.9210313999974,None,3,2.771812899998622,863.9210313999974,None,2.771812899998622,866.7161777999972,None,867.2367134999986,None,867.2367134999986,None,r,4.0161442000026,867.2367134999986,None,4.0161442000026,,,177 Sing,001,2022_Dec_01_1501,ProdSingRedoBetween,2021.2.3,59.99692815789722,
,,,,17,0,17,0,,,,,,,,,,,,,,,,,,,,,,881.5466452999972,None,,,,,,,,,,,,,,,,,guard,77,18,sing,old,red,871.7797199999986,None,871.7797199999986,None,5,4.689225300000544,871.7797199999986,None,4.689225300000544,876.4975861999992,None,877.0068839999985,None,877.0068839999985,None,r,4.510090300002048,877.0068839999985,None,4.510090300002048,,,177 Sing,001,2022_Dec_01_1501,ProdSingRedoBetween,2021.2.3,59.99692815789722,
,,,,18,0,18,0,,,,,,,,,,,,,,,,,,,,,,888.7351437999969,None,,,,,,,,,,,,,,,,,budget,146,19,sing,new,null,882.0664542999984,None,882.0664542999984,None,3,3.6266667999989295,882.0664542999984,None,3.6266667999989295,885.7263589999966,None,886.2346046999992,None,886.2346046999992,None,r,2.4821843000027,886.2346046999992,None,2.4821843000027,,,177 Sing,001,2022_Dec_01_1501,ProdSingRedoBetween,2021.2.3,59.99692815789722,
,,,,19,0,19,0,,,,,,,,,,,,,,,,,,,,,,897.3270366999968,None,,,,,,,,,,,,,,,,,narrow,11,20,sing,old,yellow,889.2457125999972,None,889.2457125999972,None,5,5.30318989999796,889.2457125999972,None,5.30318989999796,894.5776105999976,None,895.0953800999996,None,895.0953800999996,None,r,2.2133772000015597,895.0953800999996,None,2.2133772000015597,,,177 Sing,001,2022_Dec_01_1501,ProdSingRedoBetween,2021.2.3,59.99692815789722,
,,,,20,0,20,0,,,,,,,,,,,,,,,,,,,,,,903.6050859999996,None,,,,,,,,,,,,,,,,,command,126,21,sing,new,null,897.8340551000001,None,897.8340551000001,None,4,4.283030899998266,897.8340551000001,None,4.283030899998266,902.1454541999992,None,902.6539271999973,None,902.6539271999973,None,r,0.9190219999982219,902.6539271999973,None,0.9190219999982219,,,177 Sing,001,2022_Dec_01_1501,ProdSingRedoBetween,2021.2.3,59.99692815789722,
,,,,21,0,21,0,,,,,,,,,,,,,,,,,,,,,,911.4452172999991,None,,,,,,,,,,,,,,,,,concern,115,22,sing,new,null,904.1256700999984,None,904.1256700999984,None,5,4.095205699999497,904.1256700999984,None,4.095205699999497,908.2389788999972,None,908.7427938000001,None,908.7427938000001,None,r,2.670350899999903,908.7427938000001,None,2.670350899999903,,,177 Sing,001,2022_Dec_01_1501,ProdSingRedoBetween,2021.2.3,59.99692815789722,
,,,,22,0,22,0,,,,,,,,,,,,,,,,,,,,,,920.2358669999994,None,,,,,,,,,,,,,,,,,suspect,64,23,sing,old,red,911.9677435999984,None,911.9677435999984,None,5,4.54912940000213,911.9677435999984,None,4.54912940000213,916.5491108999995,None,917.0677902999996,None,917.0677902999996,None,r,3.1372945999974036,917.0677902999996,None,3.1372945999974036,,,177 Sing,001,2022_Dec_01_1501,ProdSingRedoBetween,2021.2.3,59.99692815789722,
,,,,23,0,23,0,,,,,,,,,,,,,,,,,,,,,,926.9106999999967,None,,,,,,,,,,,,,,,,,salary,176,24,sing,new,null,920.7609914999994,None,920.7609914999994,None,4,3.7958609999986948,920.7609914999994,None,3.7958609999986948,924.5890085999999,None,925.094354599998,None,925.094354599998,None,r,1.790678499997739,925.094354599998,None,1.790678499997739,,,177 Sing,001,2022_Dec_01_1501,ProdSingRedoBetween,2021.2.3,59.99692815789722,
,,,,24,0,24,0,,,,,,,,,,,,,,,,,,,,,,936.4348918999967,None,,,,,,,,,,,,,,,,,childhood,158,25,sing,new,null,927.4367324999985,None,927.4367324999985,None,5,6.12822320000123,927.4367324999985,None,6.12822320000123,933.5853566999976,None,934.0969982999995,None,934.0969982999995,None,r,2.3159462999974494,934.0969982999995,None,2.3159462999974494,,,177 Sing,001,2022_Dec_01_1501,ProdSingRedoBetween,2021.2.3,59.99692815789722,
,,,,25,0,25,0,,,,,,,,,,,,,,,,,,,,,,945.7755545,None,,,,,,,,,,,,,,,,,scene,98,26,sing,new,null,936.9520040999996,None,936.9520040999996,None,4,2.16492880000078,936.9520040999996,None,2.16492880000078,939.1408005999983,None,939.6528101999975,None,939.6528101999975,None,r,6.104090700002416,939.6528101999975,None,6.104090700002416,,,177 Sing,001,2022_Dec_01_1501,ProdSingRedoBetween,2021.2.3,59.99692815789722,
,,,,26,0,26,0,,,,,,,,,,,,,,,,,,,,,,954.3838490999988,None,,,,,,,,,,,,,,,,,passage,59,27,sing,old,yellow,946.2842186999987,None,946.2842186999987,None,5,6.67283320000206,946.2842186999987,None,6.67283320000206,952.9934864999996,None,953.5063696999969,None,953.5063696999969,None,r,0.8507205999994767,953.5063696999969,None,0.8507205999994767,,,177 Sing,001,2022_Dec_01_1501,ProdSingRedoBetween,2021.2.3,59.99692815789722,
,,,,27,0,27,0,,,,,,,,,,,,,,,,,,,,,,961.4577798999999,None,,,,,,,,,,,,,,,,,character,112,28,sing,new,null,954.8895994999984,None,954.8895994999984,None,5,4.203360600000451,954.8895994999984,None,4.203360600000451,959.128557699998,None,959.6393966999967,None,959.6393966999967,None,r,1.7975255000019388,959.6393966999967,None,1.7975255000019388,,,177 Sing,001,2022_Dec_01_1501,ProdSingRedoBetween,2021.2.3,59.99692815789722,
,,,,28,0,28,0,,,,,,,,,,,,,,,,,,,,,,967.2469114999985,None,,,,,,,,,,,,,,,,,running,12,29,sing,old,yellow,961.9662503,None,961.9662503,None,6,3.910973100002593,961.9662503,None,3.910973100002593,965.9029437999998,None,966.4167966999994,None,966.4167966999994,None,r,0.8040528999990784,966.4167966999994,None,0.8040528999990784,,,177 Sing,001,2022_Dec_01_1501,ProdSingRedoBetween,2021.2.3,59.99692815789722,
,,,,29,0,29,0,,,,,,,,,,,,,,,,,,,,,,975.0380353999972,None,,,,,,,,,,,,,,,,,literature,21,30,sing,old,yellow,967.7575699999979,None,967.7575699999979,None,5,5.831358300001739,967.7575699999979,None,5.831358300001739,973.6241237999966,None,974.1373524999981,None,974.1373524999981,None,r,0.8755915000001551,974.1373524999981,None,0.8755915000001551,,,177 Sing,001,2022_Dec_01_1501,ProdSingRedoBetween,2021.2.3,59.99692815789722,
,,,,30,0,30,0,,,,,,,,,,,,,,,,,,,,,,981.1607361999995,None,,,,,,,,,,,,,,,,,novel,29,31,sing,old,blue,975.5556484999979,None,975.5556484999979,None,4,3.5212506000025314,975.5556484999979,None,3.5212506000025314,979.0952533999989,None,979.6119728999984,None,979.6119728999984,None,r,1.5289842999991379,979.6119728999984,None,1.5289842999991379,,,177 Sing,001,2022_Dec_01_1501,ProdSingRedoBetween,2021.2.3,59.99692815789722,
,,,,31,0,31,0,,,,,,,,,,,,,,,,,,,,,,988.6688127999987,None,,,,,,,,,,,,,,,,,society,75,32,sing,old,red,981.6703745999985,None,981.6703745999985,None,5,3.3345382000006794,981.6703745999985,None,3.3345382000006794,985.036400099998,None,985.5486681000002,None,985.5486681000002,None,r,3.0883372999996936,985.5486681000002,None,3.0883372999996936,,,177 Sing,001,2022_Dec_01_1501,ProdSingRedoBetween,2021.2.3,59.99692815789722,
,,,,32,0,32,0,,,,,,,,,,,,,,,,,,,,,,996.6950417999979,None,,,,,,,,,,,,,,,,,shear,25,33,sing,old,yellow,989.1795340999997,None,989.1795340999997,None,4,6.153454699997383,989.1795340999997,None,6.153454699997383,995.3664710999983,None,995.8757383999982,None,995.8757383999982,None,f,0.801204700001108,995.8757383999982,None,0.801204700001108,,,177 Sing,001,2022_Dec_01_1501,ProdSingRedoBetween,2021.2.3,59.99692815789722,
,,,,33,0,33,0,,,,,,,,,,,,,,,,,,,,,,1002.4651872999966,None,,,,,,,,,,,,,,,,,silence,41,34,sing,old,blue,997.2116517999966,None,997.2116517999966,None,6,3.593305700000201,997.2116517999966,None,3.593305700000201,1000.832075899998,None,1001.3371797999971,None,1001.3371797999971,None,r,1.107774000000063,1001.3371797999971,None,1.107774000000063,,,177 Sing,001,2022_Dec_01_1501,ProdSingRedoBetween,2021.2.3,59.99692815789722,
,,,,34,0,34,0,,,,,,,,,,,,,,,,,,,,,,1014.0118984999972,None,,,,,,,,,,,,,,,,,marriage,142,35,sing,new,null,1002.9735697999968,None,1002.9735697999968,None,5,5.919436200001655,1002.9735697999968,None,5.919436200001655,1008.9226284999968,None,1009.4290455999981,None,1009.4290455999981,None,r,4.551887000001443,1009.4290455999981,None,4.551887000001443,,,177 Sing,001,2022_Dec_01_1501,ProdSingRedoBetween,2021.2.3,59.99692815789722,
,,,,35,0,35,0,,,,,,,,,,,,,,,,,,,,,,1020.8506128999979,None,,,,,,,,,,,,,,,,,appeal,134,36,sing,new,null,1014.5154968999996,None,1014.5154968999996,None,4,3.1616137999990315,1014.5154968999996,None,3.1616137999990315,1017.7071283999976,None,1018.2149181999994,None,1018.2149181999994,None,f,2.606035000000702,1018.2149181999994,None,2.606035000000702,,,177 Sing,001,2022_Dec_01_1501,ProdSingRedoBetween,2021.2.3,59.99692815789722,
,,,,36,0,36,0,,,,,,,,,,,,,,,,,,,,,,1025.924882299998,None,,,,,,,,,,,,,,,,,relation,157,37,sing,new,null,1021.3511607,None,1021.3511607,None,4,3.317933300000732,1021.3511607,None,3.317933300000732,1024.6931969999969,None,1025.2084743999985,None,1025.2084743999985,None,r,0.6845117000011669,1025.2084743999985,None,0.6845117000011669,,,177 Sing,001,2022_Dec_01_1501,ProdSingRedoBetween,2021.2.3,59.99692815789722,
,,,,37,0,37,0,,,,,,,,,,,,,,,,,,,,,,1030.7771414999988,None,,,,,,,,,,,,,,,,,clean,79,38,sing,old,red,1026.4489684,None,1026.4489684,None,5,2.820057800003269,1026.4489684,None,2.820057800003269,1029.3013630999994,None,1029.8096748999997,None,1029.8096748999997,None,r,0.9472540999995545,1029.8096748999997,None,0.9472540999995545,,,177 Sing,001,2022_Dec_01_1501,ProdSingRedoBetween,2021.2.3,59.99692815789722,
,,,,38,0,38,0,,,,,,,,,,,,,,,,,,,,,,1036.7498109999979,None,,,,,,,,,,,,,,,,,balance,155,39,sing,new,null,1031.2865224999987,None,1031.2865224999987,None,5,3.6864096999997855,1031.2865224999987,None,3.6864096999997855,1034.999068099998,None,1035.5029990999974,None,1035.5029990999974,None,r,1.2219220000006317,1035.5029990999974,None,1.2219220000006317,,,177 Sing,001,2022_Dec_01_1501,ProdSingRedoBetween,2021.2.3,59.99692815789722,
,,,,39,0,39,0,,,,,,,,,,,,,,,,,,,,,,1040.4219916999973,None,,,,,,,,,,,,,,,,,ground,132,40,sing,new,null,1037.261771999998,None,1037.261771999998,None,4,2.1912905000026512,1037.261771999998,None,2.1912905000026512,1039.484143499998,None,1039.9950847999971,None,1039.9950847999971,None,r,0.4019758000031288,1039.9950847999971,None,0.4019758000031288,,,177 Sing,001,2022_Dec_01_1501,ProdSingRedoBetween,2021.2.3,59.99692815789722,
,,,,40,0,40,0,,,,,,,,,,,,,,,,,,,,,,1047.9275959999977,None,,,,,,,,,,,,,,,,,agency,164,41,sing,new,null,1040.9562856999983,None,1040.9562856999983,None,4,5.3926291999996465,1040.9562856999983,None,5.3926291999996465,1046.3788976999967,None,1046.8963126999988,None,1046.8963126999988,None,f,1.0126328000005742,1046.8963126999988,None,1.0126328000005742,,,177 Sing,001,2022_Dec_01_1501,ProdSingRedoBetween,2021.2.3,59.99692815789722,
,,,,41,0,41,0,,,,,,,,,,,,,,,,,,,,,,1051.2655504999966,None,,,,,,,,,,,,,,,,,service,131,42,sing,new,null,1048.434147699998,None,1048.434147699998,None,5,1.698829700002534,1048.434147699998,None,1.698829700002534,1050.1665773999994,None,1050.682826999997,None,1050.682826999997,None,r,0.5621955999995407,1050.682826999997,None,0.5621955999995407,,,177 Sing,001,2022_Dec_01_1501,ProdSingRedoBetween,2021.2.3,59.99692815789722,
,,,,42,0,42,0,,,,,,,,,,,,,,,,,,,,,,1054.885769499997,None,,,,,,,,,,,,,,,,,empty,44,43,sing,old,blue,1051.768511299997,None,1051.768511299997,None,6,2.020454499997868,1051.768511299997,None,2.020454499997868,1053.8215308,None,1054.335860799998,None,1054.335860799998,None,r,0.5330904000002192,1054.335860799998,None,0.5330904000002192,,,177 Sing,001,2022_Dec_01_1501,ProdSingRedoBetween,2021.2.3,59.99692815789722,
,,,,43,0,43,0,,,,,,,,,,,,,,,,,,,,,,1060.4410252999987,None,,,,,,,,,,,,,,,,,signal,147,44,sing,new,null,1055.3926536,None,1055.3926536,None,4,2.9723454999984824,1055.3926536,None,2.9723454999984824,1058.3964650999987,None,1058.9158935999985,None,1058.9158935999985,None,r,1.4971737999985635,1058.9158935999985,None,1.4971737999985635,,,177 Sing,001,2022_Dec_01_1501,ProdSingRedoBetween,2021.2.3,59.99692815789722,
,,,,44,0,44,0,,,,,,,,,,,,,,,,,,,,,,1065.4617518999985,None,,,,,,,,,,,,,,,,,session,152,45,sing,new,null,1060.9604069999987,None,1060.9604069999987,None,4,3.7165958999976283,1060.9604069999987,None,3.7165958999976283,1064.705596599997,None,1065.2133706999994,None,1065.2133706999994,None,r,0.22358510000049137,1065.2133706999994,None,0.22358510000049137,,,177 Sing,001,2022_Dec_01_1501,ProdSingRedoBetween,2021.2.3,59.99692815789722,
,,,,45,0,45,0,,,,,,,,,,,,,,,,,,,,,,1070.835739299997,None,,,,,,,,,,,,,,,,,finance,97,46,sing,new,null,1065.975305,None,1065.975305,None,4,2.7977484000002733,1065.975305,None,2.7977484000002733,1068.8083161999966,None,1069.3157326,None,1069.3157326,None,r,1.4973332000008668,1069.3157326,None,1.4973332000008668,,,177 Sing,001,2022_Dec_01_1501,ProdSingRedoBetween,2021.2.3,59.99692815789722,
,,,,46,0,46,0,,,,,,,,,,,,,,,,,,,,,,1084.4474644000002,None,,,,,,,,,,,,,,,,,oxygen,167,47,sing,new,null,1071.3655155999986,None,1071.3655155999986,None,3,11.367522599997756,1071.3655155999986,None,11.367522599997756,1082.7720864999974,None,1083.2827287,None,1083.2827287,None,r,1.1381942999978492,1083.2827287,None,1.1381942999978492,,,177 Sing,001,2022_Dec_01_1501,ProdSingRedoBetween,2021.2.3,59.99692815789722,
,,,,47,0,47,0,,,,,,,,,,,,,,,,,,,,,,1091.003988999997,None,,,,,,,,,,,,,,,,,message,14,48,sing,old,yellow,1084.9600232999983,None,1084.9600232999983,None,4,3.5489776999966125,1084.9600232999983,None,3.5489776999966125,1088.5405445999968,None,1089.0591140999968,None,1089.0591140999968,None,r,1.9218685000014375,1089.0591140999968,None,1.9218685000014375,,,177 Sing,001,2022_Dec_01_1501,ProdSingRedoBetween,2021.2.3,59.99692815789722,
,,,,48,0,48,0,,,,,,,,,,,,,,,,,,,,,,1095.9254933999982,None,,,,,,,,,,,,,,,,,track,53,49,sing,old,blue,1091.5160964999995,None,1091.5160964999995,None,3,2.7048840999996173,1091.5160964999995,None,2.7048840999996173,1094.2471955,None,1094.7679908999999,None,1094.7679908999999,None,r,1.1409530999990238,1094.7679908999999,None,1.1409530999990238,,,177 Sing,001,2022_Dec_01_1501,ProdSingRedoBetween,2021.2.3,59.99692815789722,
,,,,49,0,49,0,,,,,,,,,,,,,,,,,,,,,,1103.2845836999986,None,,,,,,,,,,,,,,,,,range,4,50,sing,old,yellow,1096.4377539999987,None,1096.4377539999987,None,4,3.223189000000275,1096.4377539999987,None,3.223189000000275,1099.6804367999976,None,1100.185416799999,None,1100.185416799999,None,f,3.0754161000004387,1100.185416799999,None,3.0754161000004387,,,177 Sing,001,2022_Dec_01_1501,ProdSingRedoBetween,2021.2.3,59.99692815789722,
,,,,50,0,50,0,,,,,,,,,,,,,,,,,,,,,,1108.3879452,None,,,,,,,,,,,,,,,,,breath,13,51,sing,old,yellow,1103.8034339999977,None,1103.8034339999977,None,4,2.1054911999999604,1103.8034339999977,None,2.1054911999999604,1105.9369976999988,None,1106.4451477999974,None,1106.4451477999974,None,r,1.9117659000003187,1106.4451477999974,None,1.9117659000003187,,,177 Sing,001,2022_Dec_01_1501,ProdSingRedoBetween,2021.2.3,59.99692815789722,
,,,,51,0,51,0,,,,,,,,,,,,,,,,,,,,,,1115.395009099997,None,,,,,,,,,,,,,,,,,south,178,52,sing,new,null,1108.899931699998,None,1108.899931699998,None,3,2.112959800000681,1108.899931699998,None,2.112959800000681,1111.041905099999,None,1111.5416773999968,None,1111.5416773999968,None,r,3.83124239999961,1111.5416773999968,None,3.83124239999961,,,177 Sing,001,2022_Dec_01_1501,ProdSingRedoBetween,2021.2.3,59.99692815789722,
,,,,52,0,52,0,,,,,,,,,,,,,,,,,,,,,,1120.1665221999974,None,,,,,,,,,,,,,,,,,health,96,53,sing,new,null,1115.9036006999995,None,1115.9036006999995,None,3,2.0053578000006382,1115.9036006999995,None,2.0053578000006382,1117.9335132999986,None,1118.4479475999979,None,1118.4479475999979,None,r,1.7010144000014407,1118.4479475999979,None,1.7010144000014407,,,177 Sing,001,2022_Dec_01_1501,ProdSingRedoBetween,2021.2.3,59.99692815789722,
,,,,53,0,53,0,,,,,,,,,,,,,,,,,,,,,,1124.5398350999967,None,,,,,,,,,,,,,,,,,thick,26,54,sing,old,yellow,1120.6883237999973,None,1120.6883237999973,None,4,2.788711900000635,1120.6883237999973,None,2.788711900000635,1123.5109322999997,None,1124.020745599999,None,1124.020745599999,None,r,0.488413799997943,1124.020745599999,None,0.488413799997943,,,177 Sing,001,2022_Dec_01_1501,ProdSingRedoBetween,2021.2.3,59.99692815789722,
,,,,54,0,54,0,,,,,,,,,,,,,,,,,,,,,,1130.910577999999,None,,,,,,,,,,,,,,,,,partner,105,55,sing,new,null,1125.0684930999996,None,1125.0684930999996,None,3,3.880496599998878,1125.0684930999996,None,3.880496599998878,1128.9767906999987,None,1129.4766278999996,None,1129.4766278999996,None,r,1.4163656999990053,1129.4766278999996,None,1.4163656999990053,,,177 Sing,001,2022_Dec_01_1501,ProdSingRedoBetween,2021.2.3,59.99692815789722,
,,,,55,0,55,0,,,,,,,,,,,,,,,,,,,,,,1137.350199299999,None,,,,,,,,,,,,,,,,,union,33,56,sing,old,blue,1131.4127058999984,None,1131.4127058999984,None,5,3.7602637999989383,1131.4127058999984,None,3.7602637999989383,1135.1992350999972,None,1135.704462499998,None,1135.704462499998,None,f,1.6204303999984404,1135.704462499998,None,1.6204303999984404,,,177 Sing,001,2022_Dec_01_1501,ProdSingRedoBetween,2021.2.3,59.99692815789722,
,,,,56,0,56,0,,,,,,,,,,,,,,,,,,,,,,1142.9256864999988,None,,,,,,,,,,,,,,,,,design,111,57,sing,new,null,1137.857561599998,None,1137.857561599998,None,4,1.6754922999971313,1137.857561599998,None,1.6754922999971313,1139.5535576000002,None,1140.052969999997,None,1140.052969999997,None,f,2.848154000002978,1140.052969999997,None,2.848154000002978,,,177 Sing,001,2022_Dec_01_1501,ProdSingRedoBetween,2021.2.3,59.99692815789722,
,,,,57,0,57,0,,,,,,,,,,,,,,,,,,,,,,1147.5437961999996,None,,,,,,,,,,,,,,,,,cross,148,58,sing,new,null,1143.4499020999974,None,1143.4499020999974,None,4,2.6030642000005173,1143.4499020999974,None,2.6030642000005173,1146.0771983999985,None,1146.5833552999975,None,1146.5833552999975,None,r,0.941723699997965,1146.5833552999975,None,0.941723699997965,,,177 Sing,001,2022_Dec_01_1501,ProdSingRedoBetween,2021.2.3,59.99692815789722,
,,,,58,0,58,0,,,,,,,,,,,,,,,,,,,,,,1152.5886468999997,None,,,,,,,,,,,,,,,,,watch,165,59,sing,new,null,1148.0577209999974,None,1148.0577209999974,None,3,1.5232790000009118,1148.0577209999974,None,1.5232790000009118,1149.597078699997,None,1150.1040280999987,None,1150.1040280999987,None,r,2.4610410000022966,1150.1040280999987,None,2.4610410000022966,,,177 Sing,001,2022_Dec_01_1501,ProdSingRedoBetween,2021.2.3,59.99692815789722,
,,,,59,0,59,0,,,,,,,,,,,,,,,,,,,,,,1157.9041386999997,None,,,,,,,,,,,,,,,,,attack,135,60,sing,new,null,1153.1079032999987,None,1153.1079032999987,None,4,3.1371038999968732,1153.1079032999987,None,3.1371038999968732,1156.2726732999981,None,1156.7863732999976,None,1156.7863732999976,None,r,1.0986336000023584,1156.7863732999976,None,1.0986336000023584,,,177 Sing,001,2022_Dec_01_1501,ProdSingRedoBetween,2021.2.3,59.99692815789722,
,,,,60,0,60,0,,,,,,,,,,,,,,,,,,,,,,1162.444017599999,None,,,,,,,,,,,,,,,,,collection,28,61,sing,old,yellow,1158.4143528999994,None,1158.4143528999994,None,5,2.630714999999327,1158.4143528999994,None,2.630714999999327,1161.0747837999988,None,1161.5787985999996,None,1161.5787985999996,None,r,0.8422959000017727,1161.5787985999996,None,0.8422959000017727,,,177 Sing,001,2022_Dec_01_1501,ProdSingRedoBetween,2021.2.3,59.99692815789722,
,,,,61,0,61,0,,,,,,,,,,,,,,,,,,,,,,1167.5471794999976,None,,,,,,,,,,,,,,,,,music,102,62,sing,new,null,1162.9647502999978,None,1162.9647502999978,None,4,3.2641903000003367,1162.9647502999978,None,3.2641903000003367,1166.2472376999976,None,1166.7505157999985,None,1166.7505157999985,None,r,0.7664688000004389,1166.7505157999985,None,0.7664688000004389,,,177 Sing,001,2022_Dec_01_1501,ProdSingRedoBetween,2021.2.3,59.99692815789722,
,,,,62,0,62,0,,,,,,,,,,,,,,,,,,,,,,1185.5149945999983,None,,,,,,,,,,,,,,,,,background,156,63,sing,new,null,1168.0621477999994,None,1168.0621477999994,None,3,12.86291379999966,1168.0621477999994,None,12.86291379999966,1180.9451722999984,None,1181.4482046999983,None,1181.4482046999983,None,r,4.044808500002546,1181.4482046999983,None,4.044808500002546,,,177 Sing,001,2022_Dec_01_1501,ProdSingRedoBetween,2021.2.3,59.99692815789722,
,,,,63,0,63,0,,,,,,,,,,,,,,,,,,,,,,1190.3366457999982,None,,,,,,,,,,,,,,,,,husband,101,64,sing,new,null,1186.0268937999972,None,1186.0268937999972,None,3,2.2579390999999305,1186.0268937999972,None,2.2579390999999305,1188.3024262,None,1188.808113199997,None,1188.808113199997,None,r,1.5008076000012807,1188.808113199997,None,1.5008076000012807,,,177 Sing,001,2022_Dec_01_1501,ProdSingRedoBetween,2021.2.3,59.99692815789722,
,,,,64,0,64,0,,,,,,,,,,,,,,,,,,,,,,1194.0903177999971,None,,,,,,,,,,,,,,,,,author,55,65,sing,old,blue,1190.8448123999988,None,1190.8448123999988,None,4,1.9682462999990094,1190.8448123999988,None,1.9682462999990094,1192.8431896999973,None,1193.3560346999984,None,1193.3560346999984,None,r,0.7130211000003328,1193.3560346999984,None,0.7130211000003328,,,177 Sing,001,2022_Dec_01_1501,ProdSingRedoBetween,2021.2.3,59.99692815789722,
,,,,65,0,65,0,,,,,,,,,,,,,,,,,,,,,,1202.7008343999987,None,,,,,,,,,,,,,,,,,period,114,66,sing,new,null,1194.5977811999983,None,1194.5977811999983,None,3,6.431115800001862,1194.5977811999983,None,6.431115800001862,1201.0492023999977,None,1201.5704893999973,None,1201.5704893999973,None,r,1.106563900000765,1201.5704893999973,None,1.106563900000765,,,177 Sing,001,2022_Dec_01_1501,ProdSingRedoBetween,2021.2.3,59.99692815789722,
,,,,66,0,66,0,,,,,,,,,,,,,,,,,,,,,,1209.2235993999966,None,,,,,,,,,,,,,,,,,burden,68,67,sing,old,red,1203.2257447999982,None,1203.2257447999982,None,4,2.8594155000027968,1203.2257447999982,None,2.8594155000027968,1206.1111003999977,None,1206.619637099997,None,1206.619637099997,None,r,2.585409300001629,1206.619637099997,None,2.585409300001629,,,177 Sing,001,2022_Dec_01_1501,ProdSingRedoBetween,2021.2.3,59.99692815789722,
,,,,67,0,67,0,,,,,,,,,,,,,,,,,,,,,,1212.6922362999976,None,,,,,,,,,,,,,,,,,split,124,68,sing,new,null,1209.7323313999987,None,1209.7323313999987,None,3,1.6006815000000643,1209.7323313999987,None,1.6006815000000643,1211.3607409999968,None,1211.8803819999994,None,1211.8803819999994,None,r,0.7808234000003722,1211.8803819999994,None,0.7808234000003722,,,177 Sing,001,2022_Dec_01_1501,ProdSingRedoBetween,2021.2.3,59.99692815789722,
,,,,68,0,68,0,,,,,,,,,,,,,,,,,,,,,,1217.5471571999988,None,,,,,,,,,,,,,,,,,death,76,69,sing,old,red,1213.203651599997,None,1213.203651599997,None,5,3.129647300000215,1213.203651599997,None,3.129647300000215,1216.3712049999995,None,1216.8801896999976,None,1216.8801896999976,None,r,0.6368561999988742,1216.8801896999976,None,0.6368561999988742,,,177 Sing,001,2022_Dec_01_1501,ProdSingRedoBetween,2021.2.3,59.99692815789722,
,,,,69,0,69,0,,,,,,,,,,,,,,,,,,,,,,1222.6355341999988,None,,,,,,,,,,,,,,,,,exchange,72,70,sing,old,red,1218.0619937999982,None,1218.0619937999982,None,5,2.575030699998024,1218.0619937999982,None,2.575030699998024,1220.6793939999989,None,1221.1888048999972,None,1221.1888048999972,None,r,1.4242302999991807,1221.1888048999972,None,1.4242302999991807,,,177 Sing,001,2022_Dec_01_1501,ProdSingRedoBetween,2021.2.3,59.99692815789722,
,,,,70,0,70,0,,,,,,,,,,,,,,,,,,,,,,1226.7562655000002,None,,,,,,,,,,,,,,,,,bicycle,104,71,sing,new,null,1223.1450108999998,None,1223.1450108999998,None,3,1.860008999999991,1223.1450108999998,None,1.860008999999991,1225.0227804999995,None,1225.523425899999,None,1225.523425899999,None,r,1.2097149000001082,1225.523425899999,None,1.2097149000001082,,,177 Sing,001,2022_Dec_01_1501,ProdSingRedoBetween,2021.2.3,59.99692815789722,
,,,,71,0,71,0,,,,,,,,,,,,,,,,,,,,,,1231.9281770999987,None,,,,,,,,,,,,,,,,,income,174,72,sing,new,null,1227.2703287999975,None,1227.2703287999975,None,3,2.4546501000004355,1227.2703287999975,None,2.4546501000004355,1229.7459322999966,None,1230.2599362999972,None,1230.2599362999972,None,r,1.6491007000004174,1230.2599362999972,None,1.6491007000004174,,,177 Sing,001,2022_Dec_01_1501,ProdSingRedoBetween,2021.2.3,59.99692815789722,
,,,,72,0,72,0,,,,,,,,,,,,,,,,,,,,,,1237.9842424999988,None,,,,,,,,,,,,,,,,,colonel,141,73,sing,new,null,1232.433742899997,None,1232.433742899997,None,5,2.7792685000022175,1232.433742899997,None,2.7792685000022175,1235.2332444999993,None,1235.7519940999991,None,1235.7519940999991,None,r,2.2049929999993765,1235.7519940999991,None,2.2049929999993765,,,177 Sing,001,2022_Dec_01_1501,ProdSingRedoBetween,2021.2.3,59.99692815789722,
,,,,73,0,73,0,,,,,,,,,,,,,,,,,,,,,,1246.1757340999975,None,,,,,,,,,,,,,,,,,little,16,74,sing,old,yellow,1238.5006628999981,None,1238.5006628999981,None,4,6.016434299999673,1238.5006628999981,None,6.016434299999673,1244.5504683,None,1245.0636877999968,None,1245.0636877999968,None,r,1.0933394000021508,1245.0636877999968,None,1.0933394000021508,,,177 Sing,001,2022_Dec_01_1501,ProdSingRedoBetween,2021.2.3,59.99692815789722,
,,,,74,0,74,0,,,,,,,,,,,,,,,,,,,,,,1251.3807847999997,None,,,,,,,,,,,,,,,,,murder,151,75,sing,new,null,1246.6832413999982,None,1246.6832413999982,None,3,3.5780795000027865,1246.6832413999982,None,3.5780795000027865,1250.2934930999982,None,1250.8012249999992,None,1250.8012249999992,None,r,0.5638276000026963,1250.8012249999992,None,0.5638276000026963,,,177 Sing,001,2022_Dec_01_1501,ProdSingRedoBetween,2021.2.3,59.99692815789722,
,,,,75,0,75,0,,,,,,,,,,,,,,,,,,,,,,1259.5389526,None,,,,,,,,,,,,,,,,,skill,40,76,sing,old,blue,1251.8939059999975,None,1251.8939059999975,None,4,4.871129600000131,1251.8939059999975,None,4.871129600000131,1256.7891926999982,None,1257.3086589999984,None,1257.3086589999984,None,r,2.208391300002404,1257.3086589999984,None,2.208391300002404,,,177 Sing,001,2022_Dec_01_1501,ProdSingRedoBetween,2021.2.3,59.99692815789722,
,,,,76,0,76,0,,,,,,,,,,,,,,,,,,,,,,1266.9145465000001,None,,,,,,,,,,,,,,,,,profession,74,77,sing,old,red,1260.0594095999986,None,1260.0594095999986,None,4,2.913610499999777,1260.0594095999986,None,2.913610499999777,1262.995729899998,None,1263.517163499997,None,1263.517163499997,None,f,3.3678676999988966,1263.517163499997,None,3.3678676999988966,,,177 Sing,001,2022_Dec_01_1501,ProdSingRedoBetween,2021.2.3,59.99692815789722,
,,,,77,0,77,0,,,,,,,,,,,,,,,,,,,,,,1270.967275199997,None,,,,,,,,,,,,,,,,,pattern,31,78,sing,old,blue,1267.4265903999985,None,1267.4265903999985,None,4,2.4344836000018404,1267.4265903999985,None,2.4344836000018404,1269.8881425,None,1270.4014454999997,None,1270.4014454999997,None,r,0.5475836000005074,1270.4014454999997,None,0.5475836000005074,,,177 Sing,001,2022_Dec_01_1501,ProdSingRedoBetween,2021.2.3,59.99692815789722,
,,,,78,0,78,0,,,,,,,,,,,,,,,,,,,,,,1280.4600049999972,None,,,,,,,,,,,,,,,,,population,120,79,sing,new,null,1271.470207399998,None,1271.470207399998,None,4,5.582843399999547,1271.470207399998,None,5.582843399999547,1277.0777939,None,1277.598565999997,None,1277.598565999997,None,r,2.838505100000475,1277.598565999997,None,2.838505100000475,,,177 Sing,001,2022_Dec_01_1501,ProdSingRedoBetween,2021.2.3,59.99692815789722,
,,,,79,0,79,0,,,,,,,,,,,,,,,,,,,,,,1285.951592999998,None,,,,,,,,,,,,,,,,,department,38,80,sing,old,blue,1280.967726699997,None,1280.967726699997,None,5,3.661182899999403,1280.967726699997,None,3.661182899999403,1284.6507773999983,None,1285.1725916999967,None,1285.1725916999967,None,r,0.7524916000002122,1285.1725916999967,None,0.7524916000002122,,,177 Sing,001,2022_Dec_01_1501,ProdSingRedoBetween,2021.2.3,59.99692815789722,
,,,,80,0,80,0,,,,,,,,,,,,,,,,,,,,,,1289.337926199998,None,,,,,,,,,,,,,,,,,judge,123,81,sing,new,null,1286.4750811999984,None,1286.4750811999984,None,3,1.522065000001021,1286.4750811999984,None,1.522065000001021,1288.029840799998,None,1288.5413590999997,None,1288.5413590999997,None,r,0.7677198999990651,1288.5413590999997,None,0.7677198999990651,,,177 Sing,001,2022_Dec_01_1501,ProdSingRedoBetween,2021.2.3,59.99692815789722,
,,,,81,0,81,0,,,,,,,,,,,,,,,,,,,,,,1295.6968745999984,None,,,,,,,,,,,,,,,,,edition,153,82,sing,new,null,1289.8661436000002,None,1289.8661436000002,None,3,1.4108811000005517,1289.8661436000002,None,1.4108811000005517,1291.3050560999982,None,1291.807676499997,None,1291.807676499997,None,f,3.8534304999993765,1291.807676499997,None,3.8534304999993765,,,177 Sing,001,2022_Dec_01_1501,ProdSingRedoBetween,2021.2.3,59.99692815789722,
,,,,82,0,82,0,,,,,,,,,,,,,,,,,,,,,,1299.731339599999,None,,,,,,,,,,,,,,,,,cousin,17,83,sing,old,yellow,1296.2141986999995,None,1296.2141986999995,None,5,2.486820899997838,1296.2141986999995,None,2.486820899997838,1298.7302038999987,None,1299.2500893999968,None,1299.2500893999968,None,r,0.459005700002308,1299.2500893999968,None,0.459005700002308,,,177 Sing,001,2022_Dec_01_1501,ProdSingRedoBetween,2021.2.3,59.99692815789722,
,,,,83,0,83,0,,,,,,,,,,,,,,,,,,,,,,1305.3849077999985,None,,,,,,,,,,,,,,,,,figure,168,84,sing,new,null,1300.2484428999996,None,1300.2484428999996,None,4,1.9165878000021621,1300.2484428999996,None,1.9165878000021621,1302.183843499999,None,1302.6991366999973,None,1302.6991366999973,None,r,2.6578783999975713,1302.6991366999973,None,2.6578783999975713,,,177 Sing,001,2022_Dec_01_1501,ProdSingRedoBetween,2021.2.3,59.99692815789722,
,,,,84,0,84,0,,,,,,,,,,,,,,,,,,,,,,1310.859497399997,None,,,,,,,,,,,,,,,,,candidate,48,85,sing,old,blue,1305.8969794999975,None,1305.8969794999975,None,5,2.8760722000006353,1305.8969794999975,None,2.8760722000006353,1308.7896003999995,None,1309.298477999997,None,1309.298477999997,None,r,1.5306199999977252,1309.298477999997,None,1.5306199999977252,,,177 Sing,001,2022_Dec_01_1501,ProdSingRedoBetween,2021.2.3,59.99692815789722,
,,,,85,0,85,0,,,,,,,,,,,,,,,,,,,,,,1314.2446638000001,None,,,,,,,,,,,,,,,,,dance,119,86,sing,new,null,1311.3785267999992,None,1311.3785267999992,None,3,1.5544314999970084,1311.3785267999992,None,1.5544314999970084,1312.961830999997,None,1313.4764623999981,None,1313.4764623999981,None,r,0.7365041000011843,1313.4764623999981,None,0.7365041000011843,,,177 Sing,001,2022_Dec_01_1501,ProdSingRedoBetween,2021.2.3,59.99692815789722,
,,,,86,0,86,0,,,,,,,,,,,,,,,,,,,,,,1319.354325799999,None,,,,,,,,,,,,,,,,,volume,30,87,sing,old,blue,1314.7540911999968,None,1314.7540911999968,None,4,2.4670379999988654,1314.7540911999968,None,2.4670379999988654,1317.2545886999978,None,1317.7641836999974,None,1317.7641836999974,None,r,1.568955200000346,1317.7641836999974,None,1.568955200000346,,,177 Sing,001,2022_Dec_01_1501,ProdSingRedoBetween,2021.2.3,59.99692815789722,
,,,,87,0,87,0,,,,,,,,,,,,,,,,,,,,,,1322.788638599999,None,,,,,,,,,,,,,,,,,motion,179,88,sing,new,null,1319.870778499997,None,1319.870778499997,None,3,1.76627709999957,1319.870778499997,None,1.76627709999957,1321.6686352999968,None,1322.1685085999998,None,1322.1685085999998,None,r,0.5966068000016094,1322.1685085999998,None,0.5966068000016094,,,177 Sing,001,2022_Dec_01_1501,ProdSingRedoBetween,2021.2.3,59.99692815789722,
,,,,88,0,88,0,,,,,,,,,,,,,,,,,,,,,,1326.3058405999982,None,,,,,,,,,,,,,,,,,equipment,71,89,sing,old,red,1323.307373399999,None,1323.307373399999,None,4,1.5297095000023546,1323.307373399999,None,1.5297095000023546,1324.8576833999978,None,1325.3790351999996,None,1325.3790351999996,None,r,0.9060652999978629,1325.3790351999996,None,0.9060652999978629,,,177 Sing,001,2022_Dec_01_1501,ProdSingRedoBetween,2021.2.3,59.99692815789722,
,,,,89,0,89,0,,,,,,,,,,,,,,,,,,,,,,1329.8637432999967,None,,,,,,,,,,,,,,,,,length,145,90,sing,new,null,1326.8161072999974,None,1326.8161072999974,None,4,1.8130339000017557,1326.8161072999974,None,1.8130339000017557,1328.660506199998,None,1329.1788425999985,None,1329.1788425999985,None,r,0.6583004999993136,1329.1788425999985,None,0.6583004999993136,,,177 Sing,001,2022_Dec_01_1501,ProdSingRedoBetween,2021.2.3,59.99692815789722,
,,,,90,0,90,0,,,,,,,,,,,,,,,,,,,,,,1335.3816270999996,None,,,,,,,,,,,,,,,,,account,36,91,sing,old,blue,1330.380201699998,None,1330.380201699998,None,3,3.376917000001413,1330.380201699998,None,3.376917000001413,1333.7859493999968,None,1334.2989789999992,None,1334.2989789999992,None,r,1.0660902999989048,1334.2989789999992,None,1.0660902999989048,,,177 Sing,001,2022_Dec_01_1501,ProdSingRedoBetween,2021.2.3,59.99692815789722,
,,,,91,0,91,0,,,,,,,,,,,,,,,,,,,,,,1339.1019846999989,None,,,,,,,,,,,,,,,,,graduate,108,92,sing,new,null,1335.8926788999997,None,1335.8926788999997,None,3,2.144643699997687,1335.8926788999997,None,2.144643699997687,1338.0738827999994,None,1338.5848312999988,None,1338.5848312999988,None,r,0.5002367999986745,1338.5848312999988,None,0.5002367999986745,,,177 Sing,001,2022_Dec_01_1501,ProdSingRedoBetween,2021.2.3,59.99692815789722,
,,,,92,0,92,0,,,,,,,,,,,,,,,,,,,,,,1345.2748205999997,None,,,,,,,,,,,,,,,,,theme,136,93,sing,new,null,1339.6135044999974,None,1339.6135044999974,None,4,3.4315774999995483,1339.6135044999974,None,3.4315774999995483,1343.0753394999992,None,1343.5897095,None,1343.5897095,None,r,1.6553719000003184,1343.5897095,None,1.6553719000003184,,,177 Sing,001,2022_Dec_01_1501,ProdSingRedoBetween,2021.2.3,59.99692815789722,
,,,,93,0,93,0,,,,,,,,,,,,,,,,,,,,,,1353.0011130999992,None,,,,,,,,,,,,,,,,,route,88,94,sing,old,red,1345.785654299998,None,1345.785654299998,None,6,6.083473500002583,1345.785654299998,None,6.083473500002583,1351.8994476999978,None,1352.4054505999993,None,1352.4054505999993,None,r,0.5756375999990269,1352.4054505999993,None,0.5756375999990269,,,177 Sing,001,2022_Dec_01_1501,ProdSingRedoBetween,2021.2.3,59.99692815789722,
,,,,94,0,94,0,,,,,,,,,,,,,,,,,,,,,,1356.7695843999973,None,,,,,,,,,,,,,,,,,emergency,20,95,sing,old,yellow,1353.5199044,None,1353.5199044,None,6,2.381169600001158,1353.5199044,None,2.381169600001158,1355.9200313999972,None,1356.423696599999,None,1356.423696599999,None,r,0.3253815999996732,1356.423696599999,None,0.3253815999996732,,,177 Sing,001,2022_Dec_01_1501,ProdSingRedoBetween,2021.2.3,59.99692815789722,
,,,,95,0,95,0,,,,,,,,,,,,,,,,,,,,,,1359.5390467999969,None,,,,,,,,,,,,,,,,,straight,159,96,sing,new,null,1357.274461699999,None,1357.274461699999,None,4,1.6746223000009195,1357.274461699999,None,1.6746223000009195,1358.9738268,None,1359.4929137,None,1359.4929137,None,r,0.016192700000829063,1359.4929137,None,0.016192700000829063,,,177 Sing,001,2022_Dec_01_1501,ProdSingRedoBetween,2021.2.3,59.99692815789722,
,,,,96,0,96,0,,,,,,,,,,,,,,,,,,,,,,1362.9780053999966,None,,,,,,,,,,,,,,,,,permit,0,97,sing,old,yellow,1360.047044199997,None,1360.047044199997,None,6,1.7101199999997334,1360.047044199997,None,1.7101199999997334,1361.7828420999977,None,1362.3003905999976,None,1362.3003905999976,None,r,0.6568060999998124,1362.3003905999976,None,0.6568060999998124,,,177 Sing,001,2022_Dec_01_1501,ProdSingRedoBetween,2021.2.3,59.99692815789722,
,,,,97,0,97,0,,,,,,,,,,,,,,,,,,,,,,1365.811982299998,None,,,,,,,,,,,,,,,,,device,177,98,sing,new,null,1363.5007207999988,None,1363.5007207999988,None,3,1.5363722000001871,1363.5007207999988,None,1.5363722000001871,1365.0645480999992,None,1365.5855503999992,None,1365.5855503999992,None,r,0.19548170000052778,1365.5855503999992,None,0.19548170000052778,,,177 Sing,001,2022_Dec_01_1501,ProdSingRedoBetween,2021.2.3,59.99692815789722,
,,,,98,0,98,0,,,,,,,,,,,,,,,,,,,,,,1368.4164471999975,None,,,,,,,,,,,,,,,,,growth,94,99,sing,new,null,1366.3245922999995,None,1366.3245922999995,None,4,1.4084575999986555,1366.3245922999995,None,1.4084575999986555,1367.7699111000002,None,1368.2869264999972,None,1368.2869264999972,None,r,0.10228619999907096,1368.2869264999972,None,0.10228619999907096,,,177 Sing,001,2022_Dec_01_1501,ProdSingRedoBetween,2021.2.3,59.99692815789722,
,,,,99,0,99,0,,,,,,,,,,,,,,,,,,,,,,1373.2193896999997,None,,,,,,,,,,,,,,,,,disease,18,100,sing,old,yellow,1368.9442310999984,None,1368.9442310999984,None,5,3.4368839000017033,1368.9442310999984,None,3.4368839000017033,1372.409012799999,None,1372.919181899997,None,1372.919181899997,None,r,0.27792070000214153,1372.919181899997,None,0.27792070000214153,,,177 Sing,001,2022_Dec_01_1501,ProdSingRedoBetween,2021.2.3,59.99692815789722,
,,,,100,0,100,0,,,,,,,,,,,,,,,,,,,,,,1376.3278821999993,None,,,,,,,,,,,,,,,,,travel,60,101,sing,old,red,1373.726472899998,None,1373.726472899998,None,3,1.2626682999980403,1373.726472899998,None,1.2626682999980403,1375.0075456999984,None,1375.5268596999995,None,1375.5268596999995,None,r,0.7663451999978861,1375.5268596999995,None,0.7663451999978861,,,177 Sing,001,2022_Dec_01_1501,ProdSingRedoBetween,2021.2.3,59.99692815789722,
,,,,101,0,101,0,,,,,,,,,,,,,,,,,,,,,,1380.2764620999988,None,,,,,,,,,,,,,,,,,alert,109,102,sing,new,null,1376.8454977000001,None,1376.8454977000001,None,3,2.799657899999147,1376.8454977000001,None,2.799657899999147,1379.6829741999973,None,1380.1930264999974,None,1380.1930264999974,None,r,0.06007780000072671,1380.1930264999974,None,0.06007780000072671,,,177 Sing,001,2022_Dec_01_1501,ProdSingRedoBetween,2021.2.3,59.99692815789722,
,,,,102,0,102,0,,,,,,,,,,,,,,,,,,,,,,1383.2961026999983,None,,,,,,,,,,,,,,,,,measure,35,103,sing,old,blue,1380.7873788999968,None,1380.7873788999968,None,3,1.8099651999982598,1380.7873788999968,None,1.8099651999982598,1382.6278937999996,None,1383.1331807999995,None,1383.1331807999995,None,r,0.14403429999947548,1383.1331807999995,None,0.14403429999947548,,,177 Sing,001,2022_Dec_01_1501,ProdSingRedoBetween,2021.2.3,59.99692815789722,
,,,,103,0,103,0,,,,,,,,,,,,,,,,,,,,,,1387.5709656,None,,,,,,,,,,,,,,,,,minute,107,104,sing,new,null,1383.8082842999975,None,1383.8082842999975,None,4,1.908901999999216,1383.8082842999975,None,1.908901999999216,1385.7454174999984,None,1386.2491396999976,None,1386.2491396999976,None,r,1.2920096999987436,1386.2491396999976,None,1.2920096999987436,,,177 Sing,001,2022_Dec_01_1501,ProdSingRedoBetween,2021.2.3,59.99692815789722,
,,,,104,0,104,0,,,,,,,,,,,,,,,,,,,,,,1392.6073846,None,,,,,,,,,,,,,,,,,block,95,105,sing,new,null,1388.0945581999986,None,1388.0945581999986,None,3,3.7584454999996524,1388.0945581999986,None,3.7584454999996524,1391.8747453999968,None,1392.3886773999984,None,1392.3886773999984,None,r,0.20053980000011506,1392.3886773999984,None,0.20053980000011506,,,177 Sing,001,2022_Dec_01_1501,ProdSingRedoBetween,2021.2.3,59.99692815789722,
,,,,105,0,105,0,,,,,,,,,,,,,,,,,,,,,,1398.8616882999995,None,,,,,,,,,,,,,,,,,weather,87,106,sing,old,red,1393.1307968,None,1393.1307968,None,5,3.962505899999087,1393.1307968,None,3.962505899999087,1397.1174044,None,1397.6387294999986,None,1397.6387294999986,None,r,1.198379900000873,1397.6387294999986,None,1.198379900000873,,,177 Sing,001,2022_Dec_01_1501,ProdSingRedoBetween,2021.2.3,59.99692815789722,
,,,,106,0,106,0,,,,,,,,,,,,,,,,,,,,,,1405.5850697999995,None,,,,,,,,,,,,,,,,,victory,47,107,sing,old,blue,1399.3731568999974,None,1399.3731568999974,None,4,3.903980600000068,1399.3731568999974,None,3.903980600000068,1403.3038173999994,None,1403.8168482,None,1403.8168482,None,r,1.7482691000004706,1403.8168482,None,1.7482691000004706,,,177 Sing,001,2022_Dec_01_1501,ProdSingRedoBetween,2021.2.3,59.99692815789722,
,,,,107,0,107,0,,,,,,,,,,,,,,,,,,,,,,1408.2043552999967,None,,,,,,,,,,,,,,,,,sweet,161,108,sing,new,null,1406.0992759,None,1406.0992759,None,3,1.4258088000024145,1406.0992759,None,1.4258088000024145,1407.5544534999972,None,1408.0543562999992,None,1408.0543562999992,None,r,0.1187820000013744,1408.0543562999992,None,0.1187820000013744,,,177 Sing,001,2022_Dec_01_1501,ProdSingRedoBetween,2021.2.3,59.99692815789722,
,,,,108,0,108,0,,,,,,,,,,,,,,,,,,,,,,1411.6242036999975,None,,,,,,,,,,,,,,,,,surprise,139,109,sing,new,null,1408.7183065999998,None,1408.7183065999998,None,4,1.9587675000002491,1408.7183065999998,None,1.9587675000002491,1410.7090487999994,None,1411.2241011999977,None,1411.2241011999977,None,r,0.3810475000027509,1411.2241011999977,None,0.3810475000027509,,,177 Sing,001,2022_Dec_01_1501,ProdSingRedoBetween,2021.2.3,59.99692815789722,
,,,,109,0,109,0,,,,,,,,,,,,,,,,,,,,,,1418.1642845999995,None,,,,,,,,,,,,,,,,,public,160,110,sing,new,null,1412.1403575999975,None,1412.1403575999975,None,3,4.95269620000181,1412.1403575999975,None,4.95269620000181,1417.1148579999972,None,1417.630589299999,None,1417.630589299999,None,r,0.5184774999979709,1417.630589299999,None,0.5184774999979709,,,177 Sing,001,2022_Dec_01_1501,ProdSingRedoBetween,2021.2.3,59.99692815789722,
,,,,110,0,110,0,,,,,,,,,,,,,,,,,,,,,,1421.5174464999982,None,,,,,,,,,,,,,,,,,afternoon,9,111,sing,old,yellow,1418.675795199997,None,1418.675795199997,None,6,2.017332499999611,1418.675795199997,None,2.017332499999611,1420.7241366999988,None,1421.2373757999994,None,1421.2373757999994,None,r,0.26371320000180276,1421.2373757999994,None,0.26371320000180276,,,177 Sing,001,2022_Dec_01_1501,ProdSingRedoBetween,2021.2.3,59.99692815789722,
,,,,111,0,111,0,,,,,,,,,,,,,,,,,,,,,,1427.748635699998,None,,,,,,,,,,,,,,,,,phrase,118,112,sing,new,null,1422.0360008999996,None,1422.0360008999996,None,3,4.449118600001384,1422.0360008999996,None,4.449118600001384,1426.509521699998,None,1427.0288322999986,None,1427.0288322999986,None,r,0.6965988999982073,1427.0288322999986,None,0.6965988999982073,,,177 Sing,001,2022_Dec_01_1501,ProdSingRedoBetween,2021.2.3,59.99692815789722,
,,,,112,0,112,0,,,,,,,,,,,,,,,,,,,,,,1433.2485061999978,None,,,,,,,,,,,,,,,,,congress,110,113,sing,new,null,1428.2718228999984,None,1428.2718228999984,None,3,1.5812960999974166,1428.2718228999984,None,1.5812960999974166,1429.8792721999998,None,1430.3986774999976,None,1430.3986774999976,None,f,2.830496700000367,1430.3986774999976,None,2.830496700000367,,,177 Sing,001,2022_Dec_01_1501,ProdSingRedoBetween,2021.2.3,59.99692815789722,
,,,,113,0,113,0,,,,,,,,,,,,,,,,,,,,,,1439.5188497999989,None,,,,,,,,,,,,,,,,,engineer,32,114,sing,old,blue,1433.7754392999996,None,1433.7754392999996,None,4,4.35768040000039,1433.7754392999996,None,4.35768040000039,1438.1527347999981,None,1438.6694419999985,None,1438.6694419999985,None,r,0.8316682000004221,1438.6694419999985,None,0.8316682000004221,,,177 Sing,001,2022_Dec_01_1501,ProdSingRedoBetween,2021.2.3,59.99692815789722,
,,,,114,0,114,0,,,,,,,,,,,,,,,,,,,,,,1445.4082086999988,None,,,,,,,,,,,,,,,,,weight,8,115,sing,old,yellow,1440.030595199998,None,1440.030595199998,None,5,4.60651610000059,1440.030595199998,None,4.60651610000059,1444.6608560999994,None,1445.179758299997,None,1445.179758299997,None,r,0.20148390000031213,1445.179758299997,None,0.20148390000031213,,,177 Sing,001,2022_Dec_01_1501,ProdSingRedoBetween,2021.2.3,59.99692815789722,
,,,,115,0,115,0,,,,,,,,,,,,,,,,,,,,,,1448.1609775999968,None,,,,,,,,,,,,,,,,,break,3,116,sing,old,yellow,1445.9255380999966,None,1445.9255380999966,None,4,1.4475697000016226,1445.9255380999966,None,1.4475697000016226,1447.3951309999975,None,1447.900955899997,None,1447.900955899997,None,r,0.2321153000011691,1447.900955899997,None,0.2321153000011691,,,177 Sing,001,2022_Dec_01_1501,ProdSingRedoBetween,2021.2.3,59.99692815789722,
,,,,116,0,116,0,,,,,,,,,,,,,,,,,,,,,,1452.6987316999985,None,,,,,,,,,,,,,,,,,clear,80,117,sing,old,red,1448.6693403999998,None,1448.6693403999998,None,3,2.831734700001107,1448.6693403999998,None,2.831734700001107,1451.5317399999985,None,1452.0360690999987,None,1452.0360690999987,None,r,0.6331535999997868,1452.0360690999987,None,0.6331535999997868,,,177 Sing,001,2022_Dec_01_1501,ProdSingRedoBetween,2021.2.3,59.99692815789722,
,,,,117,0,117,0,,,,,,,,,,,,,,,,,,,,,,1458.404444599997,None,,,,,,,,,,,,,,,,,primary,22,118,sing,old,yellow,1453.2108898999977,None,1453.2108898999977,None,4,3.7702669000027527,1453.2108898999977,None,3.7702669000027527,1457.010467,None,1457.5281097999978,None,1457.5281097999978,None,r,0.8609612000000197,1457.5281097999978,None,0.8609612000000197,,,177 Sing,001,2022_Dec_01_1501,ProdSingRedoBetween,2021.2.3,59.99692815789722,
,,,,118,0,118,0,,,,,,,,,,,,,,,,,,,,,,1463.7779033999977,None,,,,,,,,,,,,,,,,,payment,61,119,sing,old,red,1458.9167460999997,None,1458.9167460999997,None,3,3.9444458999969356,1458.9167460999997,None,3.9444458999969356,1462.9023732999995,None,1463.4151184999973,None,1463.4151184999973,None,r,0.3340021000003617,1463.4151184999973,None,0.3340021000003617,,,177 Sing,001,2022_Dec_01_1501,ProdSingRedoBetween,2021.2.3,59.99692815789722,
,,,,119,0,119,0,,,,,,,,,,,,,,,,,,,,,,1467.3003671999977,None,,,,,,,,,,,,,,,,,comedy,90,120,sing,new,null,1464.2874598999988,None,1464.2874598999988,None,3,1.8060144999981276,1464.2874598999988,None,1.8060144999981276,1466.120533199999,None,1466.6354291999996,None,1466.6354291999996,None,r,0.6418105999982799,1466.6354291999996,None,0.6418105999982799,,,177 Sing,001,2022_Dec_01_1501,ProdSingRedoBetween,2021.2.3,59.99692815789722,
,,,,120,0,120,0,,,,,,,,,,,,,,,,,,,,,,1470.833620399997,None,,,,,,,,,,,,,,,,,center,149,121,sing,new,null,1467.8199854999984,None,1467.8199854999984,None,4,1.8173612999999023,1467.8199854999984,None,1.8173612999999023,1469.6745096999985,None,1470.1847555999993,None,1470.1847555999993,None,r,0.6283631000005698,1470.1847555999993,None,0.6283631000005698,,,177 Sing,001,2022_Dec_01_1501,ProdSingRedoBetween,2021.2.3,59.99692815789722,
,,,,121,0,121,0,,,,,,,,,,,,,,,,,,,,,,1474.4037613,None,,,,,,,,,,,,,,,,,drama,128,122,sing,new,null,1471.3370020000002,None,1471.3370020000002,None,4,1.700293399997463,1471.3370020000002,None,1.700293399997463,1473.063556099998,None,1473.5826030999997,None,1473.5826030999997,None,r,0.7985191000007035,1473.5826030999997,None,0.7985191000007035,,,177 Sing,001,2022_Dec_01_1501,ProdSingRedoBetween,2021.2.3,59.99692815789722,
,,,,122,0,122,0,,,,,,,,,,,,,,,,,,,,,,1479.3921701,None,,,,,,,,,,,,,,,,,bright,171,123,sing,new,null,1474.9139805999985,None,1474.9139805999985,None,3,3.299109200001112,1474.9139805999985,None,3.299109200001112,1478.2432496999972,None,1478.7616887999975,None,1478.7616887999975,None,r,0.6115718000000925,1478.7616887999975,None,0.6115718000000925,,,177 Sing,001,2022_Dec_01_1501,ProdSingRedoBetween,2021.2.3,59.99692815789722,
,,,,123,0,123,0,,,,,,,,,,,,,,,,,,,,,,1482.328416799999,None,,,,,,,,,,,,,,,,,season,129,124,sing,new,null,1479.9004814,None,1479.9004814,None,3,1.2886204999995243,1479.9004814,None,1.2886204999995243,1481.211937699998,None,1481.717122099999,None,1481.717122099999,None,r,0.5919959999991988,1481.717122099999,None,0.5919959999991988,,,177 Sing,001,2022_Dec_01_1501,ProdSingRedoBetween,2021.2.3,59.99692815789722,
,,,,124,0,124,0,,,,,,,,,,,,,,,,,,,,,,1486.415863299997,None,,,,,,,,,,,,,,,,,suggestion,23,125,sing,old,yellow,1482.8407210999976,None,1482.8407210999976,None,4,2.7323827000000165,1482.8407210999976,None,2.7323827000000165,1485.6015555999984,None,1486.1206563999986,None,1486.1206563999986,None,r,0.268438300001435,1486.1206563999986,None,0.268438300001435,,,177 Sing,001,2022_Dec_01_1501,ProdSingRedoBetween,2021.2.3,59.99692815789722,
,,,,125,0,125,0,,,,,,,,,,,,,,,,,,,,,,1489.2687253999975,None,,,,,,,,,,,,,,,,,shape,58,126,sing,old,blue,1486.9265519,None,1486.9265519,None,3,1.246479500001442,1486.9265519,None,1.246479500001442,1488.200900599997,None,1488.7112740999983,None,1488.7112740999983,None,r,0.5418922999997449,1488.7112740999983,None,0.5418922999997449,,,177 Sing,001,2022_Dec_01_1501,ProdSingRedoBetween,2021.2.3,59.99692815789722,
,,,,126,0,126,0,,,,,,,,,,,,,,,,,,,,,,1493.1726165,None,,,,,,,,,,,,,,,,,hunger,116,127,sing,new,null,1489.7733055999997,None,1489.7733055999997,None,3,2.407853699998668,1489.7733055999997,None,2.407853699998668,1492.2121530999975,None,1492.7220811999978,None,1492.7220811999978,None,r,0.4270518999983324,1492.7220811999978,None,0.4270518999983324,,,177 Sing,001,2022_Dec_01_1501,ProdSingRedoBetween,2021.2.3,59.99692815789722,
,,,,127,0,127,0,,,,,,,,,,,,,,,,,,,,,,1496.0428393999973,None,,,,,,,,,,,,,,,,,group,81,128,sing,old,red,1493.6838579999967,None,1493.6838579999967,None,4,1.545167100000981,1493.6838579999967,None,1.545167100000981,1495.262505499999,None,1495.779684899997,None,1495.779684899997,None,r,0.23356979999880423,1495.779684899997,None,0.23356979999880423,,,177 Sing,001,2022_Dec_01_1501,ProdSingRedoBetween,2021.2.3,59.99692815789722,
,,,,128,0,128,0,,,,,,,,,,,,,,,,,,,,,,1499.180413799997,None,,,,,,,,,,,,,,,,,generation,84,129,sing,old,red,1496.549687499999,None,1496.549687499999,None,5,1.7513354000002437,1496.549687499999,None,1.7513354000002437,1498.329958899998,None,1498.8483274999999,None,1498.8483274999999,None,r,0.3008512999986124,1498.8483274999999,None,0.3008512999986124,,,177 Sing,001,2022_Dec_01_1501,ProdSingRedoBetween,2021.2.3,59.99692815789722,
,,,,129,0,129,0,,,,,,,,,,,,,,,,,,,,,,1503.8165746999985,None,,,,,,,,,,,,,,,,,plane,57,130,sing,old,blue,1499.6991428000001,None,1499.6991428000001,None,3,2.049960199998168,1499.6991428000001,None,2.049960199998168,1501.7660129999967,None,1502.2714707999985,None,1502.2714707999985,None,r,1.5176170999984606,1502.2714707999985,None,1.5176170999984606,,,177 Sing,001,2022_Dec_01_1501,ProdSingRedoBetween,2021.2.3,59.99692815789722,
,,,,130,0,130,0,,,,,,,,,,,,,,,,,,,,,,1507.2199077999976,None,,,,,,,,,,,,,,,,,direction,85,131,sing,old,red,1504.3304469999966,None,1504.3304469999966,None,5,1.6987609999996494,1504.3304469999966,None,1.6987609999996494,1506.0620819999967,None,1506.573415499999,None,1506.573415499999,None,r,0.6156654999977036,1506.573415499999,None,0.6156654999977036,,,177 Sing,001,2022_Dec_01_1501,ProdSingRedoBetween,2021.2.3,59.99692815789722,
,,,,131,0,131,0,,,,,,,,,,,,,,,,,,,,,,1511.374128899999,None,,,,,,,,,,,,,,,,,atmosphere,163,132,sing,new,null,1507.7238577999997,None,1507.7238577999997,None,3,2.2894496000008075,1507.7238577999997,None,2.2894496000008075,1510.0462567999966,None,1510.5568372999987,None,1510.5568372999987,None,f,0.8002644000007422,1510.5568372999987,None,0.8002644000007422,,,177 Sing,001,2022_Dec_01_1501,ProdSingRedoBetween,2021.2.3,59.99692815789722,
,,,,132,0,132,0,,,,,,,,,,,,,,,,,,,,,,1516.012057699998,None,,,,,,,,,,,,,,,,,touch,150,133,sing,new,null,1511.8905625999978,None,1511.8905625999978,None,3,3.266542900000786,1511.8905625999978,None,3.266542900000786,1515.180540999998,None,1515.6954673999971,None,1515.6954673999971,None,r,0.3016898999994737,1515.6954673999971,None,0.3016898999994737,,,177 Sing,001,2022_Dec_01_1501,ProdSingRedoBetween,2021.2.3,59.99692815789722,
,,,,133,0,133,0,,,,,,,,,,,,,,,,,,,,,,1520.3664076999994,None,,,,,,,,,,,,,,,,,damage,56,134,sing,old,blue,1516.5216686999993,None,1516.5216686999993,None,5,2.9474917000006826,1516.5216686999993,None,2.9474917000006826,1519.499853899997,None,1520.0039322999983,None,1520.0039322999983,None,r,0.3372410999982094,1520.0039322999983,None,0.3372410999982094,,,177 Sing,001,2022_Dec_01_1501,ProdSingRedoBetween,2021.2.3,59.99692815789722,
,,,,134,0,134,0,,,,,,,,,,,,,,,,,,,,,,1525.1211844999998,None,,,,,,,,,,,,,,,,,swift,91,135,sing,new,null,1520.8675255999988,None,1520.8675255999988,None,3,2.03373030000148,1520.8675255999988,None,2.03373030000148,1522.9309823999974,None,1523.4395017999996,None,1523.4395017999996,None,f,1.6616651000003912,1523.4395017999996,None,1.6616651000003912,,,177 Sing,001,2022_Dec_01_1501,ProdSingRedoBetween,2021.2.3,59.99692815789722,
,,,,135,0,135,0,,,,,,,,,,,,,,,,,,,,,,1528.993760199999,None,,,,,,,,,,,,,,,,,production,175,136,sing,new,null,1525.624883999997,None,1525.624883999997,None,3,1.2603750999987824,1525.624883999997,None,1.2603750999987824,1526.9147720999972,None,1527.4255672,None,1527.4255672,None,f,1.5397197999991477,1527.4255672,None,1.5397197999991477,,,177 Sing,001,2022_Dec_01_1501,ProdSingRedoBetween,2021.2.3,59.99692815789722,
,,,,136,0,136,0,,,,,,,,,,,,,,,,,,,,,,1531.644465399997,None,,,,,,,,,,,,,,,,,voice,34,137,sing,old,blue,1529.5198255999967,None,1529.5198255999967,None,4,1.181369600002654,1529.5198255999967,None,1.181369600002654,1530.7288833999992,None,1531.2439249999989,None,1531.2439249999989,None,r,0.3772817999997642,1531.2439249999989,None,0.3772817999997642,,,177 Sing,001,2022_Dec_01_1501,ProdSingRedoBetween,2021.2.3,59.99692815789722,
,,,,137,0,137,0,,,,,,,,,,,,,,,,,,,,,,1534.8309261999966,None,,,,,,,,,,,,,,,,,rural,121,138,sing,new,null,1532.1476342999995,None,1532.1476342999995,None,2,1.785546200000681,1532.1476342999995,None,1.785546200000681,1533.964301,None,1534.471475299997,None,1534.471475299997,None,r,0.34166320000076666,1534.471475299997,None,0.34166320000076666,,,177 Sing,001,2022_Dec_01_1501,ProdSingRedoBetween,2021.2.3,59.99692815789722,
,,,,138,0,138,0,,,,,,,,,,,,,,,,,,,,,,1538.5365214999983,None,,,,,,,,,,,,,,,,,notice,45,139,sing,old,blue,1535.3386866999972,None,1535.3386866999972,None,4,2.10645199999999,1535.3386866999972,None,2.10645199999999,1537.4678120999997,None,1537.9718011999976,None,1537.9718011999976,None,r,0.5373174000014842,1537.9718011999976,None,0.5373174000014842,,,177 Sing,001,2022_Dec_01_1501,ProdSingRedoBetween,2021.2.3,59.99692815789722,
,,,,139,0,139,0,,,,,,,,,,,,,,,,,,,,,,1543.789835399999,None,,,,,,,,,,,,,,,,,interview,113,140,sing,new,null,1539.0747378999986,None,1539.0747378999986,None,5,3.3545758000000205,1539.0747378999986,None,3.3545758000000205,1542.4676537999985,None,1542.9803141999982,None,1542.9803141999982,None,r,0.7928646000000299,1542.9803141999982,None,0.7928646000000299,,,177 Sing,001,2022_Dec_01_1501,ProdSingRedoBetween,2021.2.3,59.99692815789722,
,,,,140,0,140,0,,,,,,,,,,,,,,,,,,,,,,1546.5091682999991,None,,,,,,,,,,,,,,,,,dream,144,141,sing,new,null,1544.3010565999975,None,1544.3010565999975,None,3,1.0720414999996137,1544.3010565999975,None,1.0720414999996137,1545.3990914999995,None,1545.9088366999968,None,1545.9088366999968,None,r,0.5764916000007361,1545.9088366999968,None,0.5764916000007361,,,177 Sing,001,2022_Dec_01_1501,ProdSingRedoBetween,2021.2.3,59.99692815789722,
,,,,141,0,141,0,,,,,,,,,,,,,,,,,,,,,,1549.732334299999,None,,,,,,,,,,,,,,,,,election,78,142,sing,old,red,1547.0136957999966,None,1547.0136957999966,None,3,1.4394915999982913,1547.0136957999966,None,1.4394915999982913,1548.477939299999,None,1548.9850977999995,None,1548.9850977999995,None,r,0.7162093999977515,1548.9850977999995,None,0.7162093999977515,,,177 Sing,001,2022_Dec_01_1501,ProdSingRedoBetween,2021.2.3,59.99692815789722,
,,,,142,0,142,0,,,,,,,,,,,,,,,,,,,,,,1554.3670617999996,None,,,,,,,,,,,,,,,,,broke,43,143,sing,old,blue,1550.2555202999974,None,1550.2555202999974,None,3,2.901724999999715,1550.2555202999974,None,2.901724999999715,1553.1913085999986,None,1553.7046257000002,None,1553.7046257000002,None,r,0.6445366000007198,1553.7046257000002,None,0.6445366000007198,,,177 Sing,001,2022_Dec_01_1501,ProdSingRedoBetween,2021.2.3,59.99692815789722,
,,,,143,0,143,0,,,,,,,,,,,,,,,,,,,,,,1560.5563522999983,None,,,,,,,,,,,,,,,,,course,65,144,sing,old,red,1554.880732499998,None,1554.880732499998,None,3,4.100446000000375,1554.880732499998,None,4.100446000000375,1559.0121500999994,None,1559.5248319999992,None,1559.5248319999992,None,r,1.0165008999974816,1559.5248319999992,None,1.0165008999974816,,,177 Sing,001,2022_Dec_01_1501,ProdSingRedoBetween,2021.2.3,59.99692815789722,
,,,,144,0,144,0,,,,,,,,,,,,,,,,,,,,,,1563.5311229,None,,,,,,,,,,,,,,,,,debate,140,145,sing,new,null,1561.0680646999972,None,1561.0680646999972,None,4,1.3050977000020794,1561.0680646999972,None,1.3050977000020794,1562.393516,None,1562.917273199997,None,1562.917273199997,None,r,0.5919659999999567,1562.917273199997,None,0.5919659999999567,,,177 Sing,001,2022_Dec_01_1501,ProdSingRedoBetween,2021.2.3,59.99692815789722,
,,,,145,0,145,0,,,,,,,,,,,,,,,,,,,,,,1566.0162906999976,None,,,,,,,,,,,,,,,,,meeting,7,146,sing,old,yellow,1564.0438464,None,1564.0438464,None,3,1.025361600000906,1564.0438464,None,1.025361600000906,1565.1008226999984,None,1565.6128065999983,None,1565.6128065999983,None,r,0.3845439999968221,1565.6128065999983,None,0.3845439999968221,,,177 Sing,001,2022_Dec_01_1501,ProdSingRedoBetween,2021.2.3,59.99692815789722,
,,,,146,0,146,0,,,,,,,,,,,,,,,,,,,,,,1570.9021951999966,None,,,,,,,,,,,,,,,,,rough,143,147,sing,new,null,1566.5374925999968,None,1566.5374925999968,None,4,3.4757769999996526,1566.5374925999968,None,3.4757769999996526,1570.0404541999997,None,1570.5517910999988,None,1570.5517910999988,None,r,0.33350179999979446,1570.5517910999988,None,0.33350179999979446,,,177 Sing,001,2022_Dec_01_1501,ProdSingRedoBetween,2021.2.3,59.99692815789722,
,,,,147,0,147,0,,,,,,,,,,,,,,,,,,,,,,1573.172908499997,None,,,,,,,,,,,,,,,,,commercial,5,148,sing,old,yellow,1571.4198122999987,None,1571.4198122999987,None,5,0.9933920000003127,1571.4198122999987,None,0.9933920000003127,1572.4397802999993,None,1572.9534013999983,None,1572.9534013999983,None,r,0.19588160000057542,1572.9534013999983,None,0.19588160000057542,,,177 Sing,001,2022_Dec_01_1501,ProdSingRedoBetween,2021.2.3,59.99692815789722,
,,,,148,0,148,0,,,,,,,,,,,,,,,,,,,,,,1577.807005999999,None,,,,,,,,,,,,,,,,,native,70,149,sing,old,red,1573.7007597999982,None,1573.7007597999982,None,2,2.9285755999990215,1573.7007597999982,None,2.9285755999990215,1576.665858299999,None,1577.176569299998,None,1577.176569299998,None,r,0.6125963000013144,1577.176569299998,None,0.6125963000013144,,,177 Sing,001,2022_Dec_01_1501,ProdSingRedoBetween,2021.2.3,59.99692815789722,
,,,,149,0,149,0,,,,,,,,,,,,,,,,,,,,,,1581.1983467999999,None,,,,,,,,,,,,,,,,,owner,89,150,sing,old,red,1578.3204970999977,None,1578.3204970999977,None,4,1.9407204999988608,1578.3204970999977,None,1.9407204999988608,1580.281090499997,None,1580.797251,None,1580.797251,None,r,0.3760679999977583,1580.797251,None,0.3760679999977583,,,177 Sing,001,2022_Dec_01_1501,ProdSingRedoBetween,2021.2.3,59.99692815789722,
,,,,150,0,150,0,,,,,,,,,,,,,,,,,,,,,,1583.9131822999989,None,,,,,,,,,,,,,,,,,height,37,151,sing,old,blue,1581.7150298999986,None,1581.7150298999986,None,3,1.258322000001499,1581.7150298999986,None,1.258322000001499,1583.0038085999986,None,1583.5130126999975,None,1583.5130126999975,None,r,0.38018819999706466,1583.5130126999975,None,0.38018819999706466,,,177 Sing,001,2022_Dec_01_1501,ProdSingRedoBetween,2021.2.3,59.99692815789722,
,,,,151,0,151,0,,,,,,,,,,,,,,,,,,,,,,1586.7694321999988,None,,,,,,,,,,,,,,,,,nature,46,152,sing,old,blue,1584.4249909999999,None,1584.4249909999999,None,4,1.5001556999995955,1584.4249909999999,None,1.5001556999995955,1585.950344599998,None,1586.468303499998,None,1586.468303499998,None,r,0.2730368000011367,1586.468303499998,None,0.2730368000011367,,,177 Sing,001,2022_Dec_01_1501,ProdSingRedoBetween,2021.2.3,59.99692815789722,
,,,,152,0,152,0,,,,,,,,,,,,,,,,,,,,,,1594.6072922999992,None,,,,,,,,,,,,,,,,,tennis,86,153,sing,old,red,1587.2925015999972,None,1587.2925015999972,None,5,6.120642800000496,1587.2925015999972,None,6.120642800000496,1593.442808099997,None,1593.9607999,None,1593.9607999,None,r,0.6203424999985145,1593.9607999,None,0.6203424999985145,,,177 Sing,001,2022_Dec_01_1501,ProdSingRedoBetween,2021.2.3,59.99692815789722,
,,,,153,0,153,0,,,,,,,,,,,,,,,,,,,,,,1599.9626063999967,None,,,,,,,,,,,,,,,,,staff,106,154,sing,new,null,1595.115884699997,None,1595.115884699997,None,3,3.7773393000024953,1595.115884699997,None,3.7773393000024953,1598.9136857999983,None,1599.4318835999984,None,1599.4318835999984,None,r,0.5092780999984825,1599.4318835999984,None,0.5092780999984825,,,177 Sing,001,2022_Dec_01_1501,ProdSingRedoBetween,2021.2.3,59.99692815789722,
,,,,154,0,154,0,,,,,,,,,,,,,,,,,,,,,,1602.8013638999983,None,,,,,,,,,,,,,,,,,light,127,155,sing,new,null,1600.473175199997,None,1600.473175199997,None,4,1.4679918000001635,1600.473175199997,None,1.4679918000001635,1601.967141899997,None,1602.4842738999978,None,1602.4842738999978,None,r,0.2970445999999356,1602.4842738999978,None,0.2970445999999356,,,177 Sing,001,2022_Dec_01_1501,ProdSingRedoBetween,2021.2.3,59.99692815789722,
,,,,155,0,155,0,,,,,,,,,,,,,,,,,,,,,,1606.0186780999975,None,,,,,,,,,,,,,,,,,captain,66,156,sing,old,red,1603.3218094999975,None,1603.3218094999975,None,3,2.011449099998572,1603.3218094999975,None,2.011449099998572,1605.355278199997,None,1605.8685183999987,None,1605.8685183999987,None,r,0.1287746000016341,1605.8685183999987,None,0.1287746000016341,,,177 Sing,001,2022_Dec_01_1501,ProdSingRedoBetween,2021.2.3,59.99692815789722,
,,,,156,0,156,0,,,,,,,,,,,,,,,,,,,,,,1608.9549690999993,None,,,,,,,,,,,,,,,,,entrance,52,157,sing,old,blue,1606.5250801000002,None,1606.5250801000002,None,3,1.8320925000007264,1606.5250801000002,None,1.8320925000007264,1608.3883424999985,None,1608.888364399998,None,1608.888364399998,None,r,0.03684400000202004,1608.888364399998,None,0.03684400000202004,,,177 Sing,001,2022_Dec_01_1501,ProdSingRedoBetween,2021.2.3,59.99692815789722,
,,,,157,0,157,0,,,,,,,,,,,,,,,,,,,,,,1611.257251799998,None,,,,,,,,,,,,,,,,,property,82,158,sing,old,red,1609.469240399998,None,1609.469240399998,None,4,1.1760833000007551,1609.469240399998,None,1.1760833000007551,1610.685680399998,None,1611.1960572999997,None,1611.1960572999997,None,r,0.03311979999853065,1611.1960572999997,None,0.03311979999853065,,,177 Sing,001,2022_Dec_01_1501,ProdSingRedoBetween,2021.2.3,59.99692815789722,
,,,,158,0,158,0,,,,,,,,,,,,,,,,,,,,,,1613.6096438999994,None,,,,,,,,,,,,,,,,,express,122,159,sing,new,null,1611.768939499998,None,1611.768939499998,None,3,1.132351700001891,1611.768939499998,None,1.132351700001891,1612.9319770000002,None,1613.4457580999988,None,1613.4457580999988,None,r,0.143424199999572,1613.4457580999988,None,0.143424199999572,,,177 Sing,001,2022_Dec_01_1501,ProdSingRedoBetween,2021.2.3,59.99692815789722,
,,,,159,0,159,0,,,,,,,,,,,,,,,,,,,,,,1616.5291100999966,None,,,,,,,,,,,,,,,,,resistance,99,160,sing,new,null,1614.121049199999,None,1614.121049199999,None,3,1.628416900002776,1614.121049199999,None,1.628416900002776,1615.7895398999972,None,1616.2956736999986,None,1616.2956736999986,None,r,0.20540750000145636,1616.2956736999986,None,0.20540750000145636,,,177 Sing,001,2022_Dec_01_1501,ProdSingRedoBetween,2021.2.3,59.99692815789722,
,,,,160,0,160,0,,,,,,,,,,,,,,,,,,,,,,1620.0994331000002,None,,,,,,,,,,,,,,,,,bureau,100,161,sing,new,null,1617.0453237000002,None,1617.0453237000002,None,2,1.3438987000008638,1617.0453237000002,None,1.3438987000008638,1618.416503299999,None,1618.9401631999972,None,1618.9401631999972,None,f,1.1370434000018577,1618.9401631999972,None,1.1370434000018577,,,177 Sing,001,2022_Dec_01_1501,ProdSingRedoBetween,2021.2.3,59.99692815789722,
,,,,161,0,161,0,,,,,,,,,,,,,,,,,,,,,,1626.8907838999985,None,,,,,,,,,,,,,,,,,waste,42,162,sing,old,blue,1620.6171918,None,1620.6171918,None,5,4.052005599998665,1620.6171918,None,4.052005599998665,1624.6979934999981,None,1625.2073962999966,None,1625.2073962999966,None,r,1.6619929000007687,1625.2073962999966,None,1.6619929000007687,,,177 Sing,001,2022_Dec_01_1501,ProdSingRedoBetween,2021.2.3,59.99692815789722,
,,,,162,0,162,0,,,,,,,,,,,,,,,,,,,,,,1630.009316599997,None,,,,,,,,,,,,,,,,,threat,2,163,sing,old,yellow,1627.394232499999,None,1627.394232499999,None,4,1.8750905000015337,1627.394232499999,None,1.8750905000015337,1629.3066696999995,None,1629.8122962999987,None,1629.8122962999987,None,r,0.16890430000057677,1629.8122962999987,None,0.16890430000057677,,,177 Sing,001,2022_Dec_01_1501,ProdSingRedoBetween,2021.2.3,59.99692815789722,
,,,,163,0,163,0,,,,,,,,,,,,,,,,,,,,,,1633.7156645999967,None,,,,,,,,,,,,,,,,,count,166,164,sing,new,null,1630.5159262999987,None,1630.5159262999987,None,3,2.1534434000022884,1630.5159262999987,None,2.1534434000022884,1632.7054431999968,None,1633.2195587999995,None,1633.2195587999995,None,r,0.4737439999989874,1633.2195587999995,None,0.4737439999989874,,,177 Sing,001,2022_Dec_01_1501,ProdSingRedoBetween,2021.2.3,59.99692815789722,
,,,,164,0,164,0,,,,,,,,,,,,,,,,,,,,,,1636.2394647,None,,,,,,,,,,,,,,,,,enemy,103,165,sing,new,null,1634.2352782999988,None,1634.2352782999988,None,4,1.3940067000003182,1634.2352782999988,None,1.3940067000003182,1635.6516041999967,None,1636.1786345,None,1636.1786345,None,r,0.034873599997808924,1636.1786345,None,0.034873599997808924,,,177 Sing,001,2022_Dec_01_1501,ProdSingRedoBetween,2021.2.3,59.99692815789722,
,,,,165,0,165,0,,,,,,,,,,,,,,,,,,,,,,1642.9779037999979,None,,,,,,,,,,,,,,,,,report,51,166,sing,old,blue,1636.7569158999977,None,1636.7569158999977,None,3,4.800358200001938,1636.7569158999977,None,4.800358200001938,1641.5965613999979,None,1642.112261899998,None,1642.112261899998,None,r,0.8291478000028292,1642.112261899998,None,0.8291478000028292,,,177 Sing,001,2022_Dec_01_1501,ProdSingRedoBetween,2021.2.3,59.99692815789722,
,,,,166,0,166,0,,,,,,,,,,,,,,,,,,,,,,1646.6927262999998,None,,,,,,,,,,,,,,,,,reading,10,167,sing,old,yellow,1643.5030593999982,None,1643.5030593999982,None,4,1.4381561000009242,1643.5030593999982,None,1.4381561000009242,1644.958718599999,None,1645.4649071999993,None,1645.4649071999993,None,r,1.204300900000817,1645.4649071999993,None,1.204300900000817,,,177 Sing,001,2022_Dec_01_1501,ProdSingRedoBetween,2021.2.3,59.99692815789722,
,,,,167,0,167,0,,,,,,,,,,,,,,,,,,,,,,1651.4359270999994,None,,,,,,,,,,,,,,,,,thing,67,168,sing,old,red,1647.1979509999983,None,1647.1979509999983,None,2,1.423313400002371,1647.1979509999983,None,1.423313400002371,1648.6525062999972,None,1649.1691055999981,None,1649.1691055999981,None,f,2.2361601999982668,1649.1691055999981,None,2.2361601999982668,,,177 Sing,001,2022_Dec_01_1501,ProdSingRedoBetween,2021.2.3,59.99692815789722,
,,,,168,0,168,0,,,,,,,,,,,,,,,,,,,,,,1655.5014794999988,None,,,,,,,,,,,,,,,,,blind,50,169,sing,old,blue,1651.950906799997,None,1651.950906799997,None,4,1.902333299996826,1651.950906799997,None,1.902333299996826,1653.8886212999969,None,1654.401176899999,None,1654.401176899999,None,r,1.084021099999518,1654.401176899999,None,1.084021099999518,,,177 Sing,001,2022_Dec_01_1501,ProdSingRedoBetween,2021.2.3,59.99692815789722,
,,,,169,0,169,0,,,,,,,,,,,,,,,,,,,,,,1661.6167516999994,None,,,,,,,,,,,,,,,,,sleep,117,170,sing,new,null,1656.0085948999986,None,1656.0085948999986,None,3,4.148694900002738,1656.0085948999986,None,4.148694900002738,1660.1841651999966,None,1660.6946544999992,None,1660.6946544999992,None,r,0.8946704999980284,1660.6946544999992,None,0.8946704999980284,,,177 Sing,001,2022_Dec_01_1501,ProdSingRedoBetween,2021.2.3,59.99692815789722,
,,,,170,0,170,0,,,,,,,,,,,,,,,,,,,,,,1665.163635099998,None,,,,,,,,,,,,,,,,,crime,172,171,sing,new,null,1662.1352759999972,None,1662.1352759999972,None,3,1.8699691000001621,1662.1352759999972,None,1.8699691000001621,1664.029203099999,None,1664.5441444999997,None,1664.5441444999997,None,r,0.5891028000005463,1664.5441444999997,None,0.5891028000005463,,,177 Sing,001,2022_Dec_01_1501,ProdSingRedoBetween,2021.2.3,59.99692815789722,
,,,,171,0,171,0,,,,,,,,,,,,,,,,,,,,,,1667.9306031999986,None,,,,,,,,,,,,,,,,,fight,62,172,sing,old,red,1665.682718699998,None,1665.682718699998,None,4,1.1865193999983603,1665.682718699998,None,1.1865193999983603,1666.901470599998,None,1667.4169462999998,None,1667.4169462999998,None,r,0.49226869999984046,1667.4169462999998,None,0.49226869999984046,,,177 Sing,001,2022_Dec_01_1501,ProdSingRedoBetween,2021.2.3,59.99692815789722,
,,,,172,0,172,0,,,,,,,,,,,,,,,,,,,,,,1674.5371670999994,None,,,,,,,,,,,,,,,,,turkey,130,173,sing,new,null,1668.442307899997,None,1668.442307899997,None,2,4.1710464999996475,1668.442307899997,None,4.1710464999996475,1672.6443906999993,None,1673.1581980999981,None,1673.1581980999981,None,r,1.3590188000016497,1673.1581980999981,None,1.3590188000016497,,,177 Sing,001,2022_Dec_01_1501,ProdSingRedoBetween,2021.2.3,59.99692815789722,
,,,,173,0,173,0,,,,,,,,,,,,,,,,,,,,,,1678.8922269999966,None,,,,,,,,,,,,,,,,,detective,27,174,sing,old,yellow,1675.048566999998,None,1675.048566999998,None,3,2.1406438000012713,1675.048566999998,None,2.1406438000012713,1677.2099137999976,None,1677.738083799999,None,1677.738083799999,None,r,1.123225299998012,1677.738083799999,None,1.123225299998012,,,177 Sing,001,2022_Dec_01_1501,ProdSingRedoBetween,2021.2.3,59.99692815789722,
,,,,174,0,174,0,,,,,,,,,,,,,,,,,,,,,,1682.8955747999971,None,,,,,,,,,,,,,,,,,defeat,154,175,sing,new,null,1679.4110162999968,None,1679.4110162999968,None,4,2.338199399997393,1679.4110162999968,None,2.338199399997393,1681.7806964999982,None,1682.299903199997,None,1682.299903199997,None,r,0.5773463999976229,1682.299903199997,None,0.5773463999976229,,,177 Sing,001,2022_Dec_01_1501,ProdSingRedoBetween,2021.2.3,59.99692815789722,
,,,,175,0,175,0,,,,,,,,,,,,,,,,,,,,,,1685.5481710999993,None,,,,,,,,,,,,,,,,,division,69,176,sing,old,red,1683.4055102999992,None,1683.4055102999992,None,4,1.327736900002492,1683.4055102999992,None,1.327736900002492,1684.7670581999992,None,1685.2865517999999,None,1685.2865517999999,None,r,0.23865680000017164,1685.2865517999999,None,0.23865680000017164,,,177 Sing,001,2022_Dec_01_1501,ProdSingRedoBetween,2021.2.3,59.99692815789722,
,,,,176,0,176,0,,,,,,,,,,,,,,,,,,,,,,1688.653140399998,None,,,,,,,,,,,,,,,,,incident,15,177,sing,old,yellow,1686.0639936999978,None,1686.0639936999978,None,3,1.2372789999972156,1686.0639936999978,None,1.2372789999972156,1687.3243109999967,None,1687.8373111,None,1687.8373111,None,r,0.7840821999998298,1687.8373111,None,0.7840821999998298,,,177 Sing,001,2022_Dec_01_1501,ProdSingRedoBetween,2021.2.3,59.99692815789722,
,,,,177,0,177,0,,,,,,,,,,,,,,,,,,,,,,1692.3048767,None,,,,,,,,,,,,,,,,,still,92,178,sing,new,null,1689.1727174999978,None,1689.1727174999978,None,4,2.1365813999982493,1689.1727174999978,None,2.1365813999982493,1691.3488195999998,None,1691.8584844999968,None,1691.8584844999968,None,r,0.4267422999982955,1691.8584844999968,None,0.4267422999982955,,,177 Sing,001,2022_Dec_01_1501,ProdSingRedoBetween,2021.2.3,59.99692815789722,
