StudyLoop.thisRepN,StudyLoop.thisTrialN,StudyLoop.thisN,StudyLoop.thisIndex,TestLoop.thisRepN,TestLoop.thisTrialN,TestLoop.thisN,TestLoop.thisIndex,textCondition.started,textCondition.stopped,keyCondition.keys,keyCondition.rt,keyCondition.started,keyCondition.stopped,Condition,textWelcome.started,textWelcome.stopped,keyWelcome.keys,keyWelcome.rt,keyWelcome.started,keyWelcome.stopped,textAloud.started,textAloud.stopped,textSilent.started,textSilent.stopped,textSing.started,textSing.stopped,conditional_text.started,conditional_text.stopped,textBlank500.started,textBlank500.stopped,study_word,study_num,study_order,study_type,word_color,textStudy.started,textStudy.stopped,keyStudy.keys,keyStudy.started,keyStudy.stopped,textTestInstructions.started,textTestInstructions.stopped,key_resp_3.keys,key_resp_3.rt,key_resp_3.started,key_resp_3.stopped,test_word,test_num,test_order,test_condition,old_new_test,test_word_original_color,textConf.started,textConf.stopped,textConfScale.started,textConfScale.stopped,keyConf.keys,keyConf.rt,keyConf.started,keyConf.stopped,confidence response time,textTestBlank.started,textTestBlank.stopped,textRKN.started,textRKN.stopped,textRKNScale.started,textRKNScale.stopped,keyRKN.keys,keyRKN.rt,keyRKN.started,keyRKN.stopped,rkn response time,textEnd.started,textEnd.stopped,participant,session,date,expName,psychopyVersion,frameRate,
,,,,,,,,52.55984130001161,None,b,1.1805347000045003,52.55984130001161,None,,,,,,,,,,,,,,,,,,,,,,,,,,,,,,,,,,,,,,,,,,,,,,,,,,,,,,,,,,,,,,Aloud17,001,2022_Aug_05_1515,ProdSingRedoBetween,2021.2.3,59.88511639286038,
,,,,,,,,,,,,,,AloudTest,53.78354790000594,None,space,150.88450620000367,53.78354790000594,None,,,,,,,,,,,,,,,,,,,,,,,,,,,,,,,,,,,,,,,,,,,,,,,,,,,,,,,Aloud17,001,2022_Aug_05_1515,ProdSingRedoBetween,2021.2.3,59.88511639286038,
0,0,0,0,,,,,,,,,,,,,,,,,,53.78354790000594,None,53.78354790000594,None,53.78354790000594,None,53.78354790000594,None,207.21365030000743,None,error,86,1,aloud,red,205.20010680000996,None,None,205.20010680000996,None,,,,,,,,,,,,,,,,,,,,,,,,,,,,,,,,,,,Aloud17,001,2022_Aug_05_1515,ProdSingRedoBetween,2021.2.3,59.88511639286038,
1,0,1,0,,,,,,,,,,,,,,,,,,,,,,,,,,209.7163101000042,None,damage,40,2,aloud,blue,207.71419060000335,None,None,207.71419060000335,None,,,,,,,,,,,,,,,,,,,,,,,,,,,,,,,,,,,Aloud17,001,2022_Aug_05_1515,ProdSingRedoBetween,2021.2.3,59.88511639286038,
2,0,2,0,,,,,,,,,,,,,,,,,,,,,,,,,,212.21863800000574,None,citizen,39,3,aloud,blue,210.21955740000703,None,None,210.21955740000703,None,,,,,,,,,,,,,,,,,,,,,,,,,,,,,,,,,,,Aloud17,001,2022_Aug_05_1515,ProdSingRedoBetween,2021.2.3,59.88511639286038,
3,0,3,0,,,,,,,,,,,,,,,,,,,,,,,,,,214.72120300000824,None,taste,18,4,aloud,yellow,212.71912750000774,None,None,212.71912750000774,None,,,,,,,,,,,,,,,,,,,,,,,,,,,,,,,,,,,Aloud17,001,2022_Aug_05_1515,ProdSingRedoBetween,2021.2.3,59.88511639286038,
4,0,4,0,,,,,,,,,,,,,,,,,,,,,,,,,,217.22355690000404,None,school,44,5,aloud,blue,215.22394750000967,None,None,215.22394750000967,None,,,,,,,,,,,,,,,,,,,,,,,,,,,,,,,,,,,Aloud17,001,2022_Aug_05_1515,ProdSingRedoBetween,2021.2.3,59.88511639286038,
5,0,5,0,,,,,,,,,,,,,,,,,,,,,,,,,,219.72616330000164,None,orchestra,8,6,aloud,yellow,217.72431670001242,None,None,217.72431670001242,None,,,,,,,,,,,,,,,,,,,,,,,,,,,,,,,,,,,Aloud17,001,2022_Aug_05_1515,ProdSingRedoBetween,2021.2.3,59.88511639286038,
6,0,6,0,,,,,,,,,,,,,,,,,,,,,,,,,,222.22873630000686,None,hearing,30,7,aloud,blue,220.22667680001177,None,None,220.22667680001177,None,,,,,,,,,,,,,,,,,,,,,,,,,,,,,,,,,,,Aloud17,001,2022_Aug_05_1515,ProdSingRedoBetween,2021.2.3,59.88511639286038,
7,0,7,0,,,,,,,,,,,,,,,,,,,,,,,,,,224.74788240001362,None,weather,58,8,aloud,blue,222.73360990000947,None,None,222.73360990000947,None,,,,,,,,,,,,,,,,,,,,,,,,,,,,,,,,,,,Aloud17,001,2022_Aug_05_1515,ProdSingRedoBetween,2021.2.3,59.88511639286038,
8,0,8,0,,,,,,,,,,,,,,,,,,,,,,,,,,227.2501695000101,None,provision,13,9,aloud,yellow,225.25012850000348,None,None,225.25012850000348,None,,,,,,,,,,,,,,,,,,,,,,,,,,,,,,,,,,,Aloud17,001,2022_Aug_05_1515,ProdSingRedoBetween,2021.2.3,59.88511639286038,
9,0,9,0,,,,,,,,,,,,,,,,,,,,,,,,,,229.752836700005,None,produce,66,10,aloud,red,227.75076230001287,None,None,227.75076230001287,None,,,,,,,,,,,,,,,,,,,,,,,,,,,,,,,,,,,Aloud17,001,2022_Aug_05_1515,ProdSingRedoBetween,2021.2.3,59.88511639286038,
10,0,10,0,,,,,,,,,,,,,,,,,,,,,,,,,,232.25543450000987,None,title,0,11,aloud,yellow,230.25349500001175,None,None,230.25349500001175,None,,,,,,,,,,,,,,,,,,,,,,,,,,,,,,,,,,,Aloud17,001,2022_Aug_05_1515,ProdSingRedoBetween,2021.2.3,59.88511639286038,
11,0,11,0,,,,,,,,,,,,,,,,,,,,,,,,,,234.77443940000376,None,article,69,12,aloud,red,232.7589779000118,None,None,232.7589779000118,None,,,,,,,,,,,,,,,,,,,,,,,,,,,,,,,,,,,Aloud17,001,2022_Aug_05_1515,ProdSingRedoBetween,2021.2.3,59.88511639286038,
12,0,12,0,,,,,,,,,,,,,,,,,,,,,,,,,,237.27699380001286,None,passage,20,13,aloud,yellow,235.2749376000138,None,None,235.2749376000138,None,,,,,,,,,,,,,,,,,,,,,,,,,,,,,,,,,,,Aloud17,001,2022_Aug_05_1515,ProdSingRedoBetween,2021.2.3,59.88511639286038,
13,0,13,0,,,,,,,,,,,,,,,,,,,,,,,,,,239.79615690000355,None,fellow,16,14,aloud,yellow,237.78933360001247,None,None,237.78933360001247,None,,,,,,,,,,,,,,,,,,,,,,,,,,,,,,,,,,,Aloud17,001,2022_Aug_05_1515,ProdSingRedoBetween,2021.2.3,59.88511639286038,
14,0,14,0,,,,,,,,,,,,,,,,,,,,,,,,,,242.29856380001002,None,beginning,37,15,aloud,blue,240.29667440000048,None,None,240.29667440000048,None,,,,,,,,,,,,,,,,,,,,,,,,,,,,,,,,,,,Aloud17,001,2022_Aug_05_1515,ProdSingRedoBetween,2021.2.3,59.88511639286038,
15,0,15,0,,,,,,,,,,,,,,,,,,,,,,,,,,244.80122710000433,None,smell,38,16,aloud,blue,242.8004163000005,None,None,242.8004163000005,None,,,,,,,,,,,,,,,,,,,,,,,,,,,,,,,,,,,Aloud17,001,2022_Aug_05_1515,ProdSingRedoBetween,2021.2.3,59.88511639286038,
16,0,16,0,,,,,,,,,,,,,,,,,,,,,,,,,,247.32032310000795,None,finance,68,17,aloud,red,245.31224620000285,None,None,245.31224620000285,None,,,,,,,,,,,,,,,,,,,,,,,,,,,,,,,,,,,Aloud17,001,2022_Aug_05_1515,ProdSingRedoBetween,2021.2.3,59.88511639286038,
17,0,17,0,,,,,,,,,,,,,,,,,,,,,,,,,,249.8394849000033,None,religion,3,18,aloud,yellow,247.82460540000466,None,None,247.82460540000466,None,,,,,,,,,,,,,,,,,,,,,,,,,,,,,,,,,,,Aloud17,001,2022_Aug_05_1515,ProdSingRedoBetween,2021.2.3,59.88511639286038,
18,0,18,0,,,,,,,,,,,,,,,,,,,,,,,,,,252.34203480000724,None,alert,89,19,aloud,red,250.34000630000082,None,None,250.34000630000082,None,,,,,,,,,,,,,,,,,,,,,,,,,,,,,,,,,,,Aloud17,001,2022_Aug_05_1515,ProdSingRedoBetween,2021.2.3,59.88511639286038,
19,0,19,0,,,,,,,,,,,,,,,,,,,,,,,,,,254.8611169000069,None,individual,32,20,aloud,blue,252.84583060001023,None,None,252.84583060001023,None,,,,,,,,,,,,,,,,,,,,,,,,,,,,,,,,,,,Aloud17,001,2022_Aug_05_1515,ProdSingRedoBetween,2021.2.3,59.88511639286038,
20,0,20,0,,,,,,,,,,,,,,,,,,,,,,,,,,257.3634946000093,None,distance,61,21,aloud,red,255.36170180000772,None,None,255.36170180000772,None,,,,,,,,,,,,,,,,,,,,,,,,,,,,,,,,,,,Aloud17,001,2022_Aug_05_1515,ProdSingRedoBetween,2021.2.3,59.88511639286038,
21,0,21,0,,,,,,,,,,,,,,,,,,,,,,,,,,259.86612920000334,None,chief,24,22,aloud,yellow,257.8643359000125,None,None,257.8643359000125,None,,,,,,,,,,,,,,,,,,,,,,,,,,,,,,,,,,,Aloud17,001,2022_Aug_05_1515,ProdSingRedoBetween,2021.2.3,59.88511639286038,
22,0,22,0,,,,,,,,,,,,,,,,,,,,,,,,,,262.38552280000295,None,story,46,23,aloud,blue,260.37456470000325,None,None,260.37456470000325,None,,,,,,,,,,,,,,,,,,,,,,,,,,,,,,,,,,,Aloud17,001,2022_Aug_05_1515,ProdSingRedoBetween,2021.2.3,59.88511639286038,
23,0,23,0,,,,,,,,,,,,,,,,,,,,,,,,,,264.88786770000297,None,principal,55,24,aloud,blue,262.88882680000097,None,None,262.88882680000097,None,,,,,,,,,,,,,,,,,,,,,,,,,,,,,,,,,,,Aloud17,001,2022_Aug_05_1515,ProdSingRedoBetween,2021.2.3,59.88511639286038,
24,0,24,0,,,,,,,,,,,,,,,,,,,,,,,,,,267.39044580000336,None,watch,11,25,aloud,yellow,265.38839630001166,None,None,265.38839630001166,None,,,,,,,,,,,,,,,,,,,,,,,,,,,,,,,,,,,Aloud17,001,2022_Aug_05_1515,ProdSingRedoBetween,2021.2.3,59.88511639286038,
25,0,25,0,,,,,,,,,,,,,,,,,,,,,,,,,,269.89285570000357,None,review,54,26,aloud,blue,267.89327550001326,None,None,267.89327550001326,None,,,,,,,,,,,,,,,,,,,,,,,,,,,,,,,,,,,Aloud17,001,2022_Aug_05_1515,ProdSingRedoBetween,2021.2.3,59.88511639286038,
26,0,26,0,,,,,,,,,,,,,,,,,,,,,,,,,,272.3954248000082,None,harmony,41,27,aloud,blue,270.39549760000955,None,None,270.39549760000955,None,,,,,,,,,,,,,,,,,,,,,,,,,,,,,,,,,,,Aloud17,001,2022_Aug_05_1515,ProdSingRedoBetween,2021.2.3,59.88511639286038,
27,0,27,0,,,,,,,,,,,,,,,,,,,,,,,,,,274.91448310000123,None,defeat,65,28,aloud,red,272.89940500000375,None,None,272.89940500000375,None,,,,,,,,,,,,,,,,,,,,,,,,,,,,,,,,,,,Aloud17,001,2022_Aug_05_1515,ProdSingRedoBetween,2021.2.3,59.88511639286038,
28,0,28,0,,,,,,,,,,,,,,,,,,,,,,,,,,277.4171488000138,None,south,85,29,aloud,red,275.4150770000124,None,None,275.4150770000124,None,,,,,,,,,,,,,,,,,,,,,,,,,,,,,,,,,,,Aloud17,001,2022_Aug_05_1515,ProdSingRedoBetween,2021.2.3,59.88511639286038,
29,0,29,0,,,,,,,,,,,,,,,,,,,,,,,,,,279.9197070000082,None,message,47,30,aloud,blue,277.9176595000026,None,None,277.9176595000026,None,,,,,,,,,,,,,,,,,,,,,,,,,,,,,,,,,,,Aloud17,001,2022_Aug_05_1515,ProdSingRedoBetween,2021.2.3,59.88511639286038,
30,0,30,0,,,,,,,,,,,,,,,,,,,,,,,,,,282.4388786000054,None,pattern,28,31,aloud,yellow,280.4260398000042,None,None,280.4260398000042,None,,,,,,,,,,,,,,,,,,,,,,,,,,,,,,,,,,,Aloud17,001,2022_Aug_05_1515,ProdSingRedoBetween,2021.2.3,59.88511639286038,
31,0,31,0,,,,,,,,,,,,,,,,,,,,,,,,,,284.9580014000094,None,mayor,43,32,aloud,blue,282.9461869000079,None,None,282.9461869000079,None,,,,,,,,,,,,,,,,,,,,,,,,,,,,,,,,,,,Aloud17,001,2022_Aug_05_1515,ProdSingRedoBetween,2021.2.3,59.88511639286038,
32,0,32,0,,,,,,,,,,,,,,,,,,,,,,,,,,287.47690190000867,None,subject,78,33,aloud,red,285.46775040001376,None,None,285.46775040001376,None,,,,,,,,,,,,,,,,,,,,,,,,,,,,,,,,,,,Aloud17,001,2022_Aug_05_1515,ProdSingRedoBetween,2021.2.3,59.88511639286038,
33,0,33,0,,,,,,,,,,,,,,,,,,,,,,,,,,289.97962180001196,None,graduate,9,34,aloud,yellow,287.9775808000122,None,None,287.9775808000122,None,,,,,,,,,,,,,,,,,,,,,,,,,,,,,,,,,,,Aloud17,001,2022_Aug_05_1515,ProdSingRedoBetween,2021.2.3,59.88511639286038,
34,0,34,0,,,,,,,,,,,,,,,,,,,,,,,,,,292.4820398000011,None,reach,22,35,aloud,yellow,290.48222190000524,None,None,290.48222190000524,None,,,,,,,,,,,,,,,,,,,,,,,,,,,,,,,,,,,Aloud17,001,2022_Aug_05_1515,ProdSingRedoBetween,2021.2.3,59.88511639286038,
35,0,35,0,,,,,,,,,,,,,,,,,,,,,,,,,,294.98450390000653,None,ground,81,36,aloud,red,292.9825126000069,None,None,292.9825126000069,None,,,,,,,,,,,,,,,,,,,,,,,,,,,,,,,,,,,Aloud17,001,2022_Aug_05_1515,ProdSingRedoBetween,2021.2.3,59.88511639286038,
36,0,36,0,,,,,,,,,,,,,,,,,,,,,,,,,,297.5038243000017,None,order,1,37,aloud,yellow,295.49130120000336,None,None,295.49130120000336,None,,,,,,,,,,,,,,,,,,,,,,,,,,,,,,,,,,,Aloud17,001,2022_Aug_05_1515,ProdSingRedoBetween,2021.2.3,59.88511639286038,
37,0,37,0,,,,,,,,,,,,,,,,,,,,,,,,,,300.0062786000053,None,trial,33,38,aloud,blue,298.00424880000355,None,None,298.00424880000355,None,,,,,,,,,,,,,,,,,,,,,,,,,,,,,,,,,,,Aloud17,001,2022_Aug_05_1515,ProdSingRedoBetween,2021.2.3,59.88511639286038,
38,0,38,0,,,,,,,,,,,,,,,,,,,,,,,,,,302.52546400000574,None,escape,51,39,aloud,blue,300.51565260000643,None,None,300.51565260000643,None,,,,,,,,,,,,,,,,,,,,,,,,,,,,,,,,,,,Aloud17,001,2022_Aug_05_1515,ProdSingRedoBetween,2021.2.3,59.88511639286038,
39,0,39,0,,,,,,,,,,,,,,,,,,,,,,,,,,305.02783050001017,None,narrow,48,40,aloud,blue,303.02890870001283,None,None,303.02890870001283,None,,,,,,,,,,,,,,,,,,,,,,,,,,,,,,,,,,,Aloud17,001,2022_Aug_05_1515,ProdSingRedoBetween,2021.2.3,59.88511639286038,
40,0,40,0,,,,,,,,,,,,,,,,,,,,,,,,,,307.53023130001384,None,store,34,41,aloud,blue,305.5282385000028,None,None,305.5282385000028,None,,,,,,,,,,,,,,,,,,,,,,,,,,,,,,,,,,,Aloud17,001,2022_Aug_05_1515,ProdSingRedoBetween,2021.2.3,59.88511639286038,
41,0,41,0,,,,,,,,,,,,,,,,,,,,,,,,,,310.03288830000383,None,light,74,42,aloud,red,308.0307424000057,None,None,308.0307424000057,None,,,,,,,,,,,,,,,,,,,,,,,,,,,,,,,,,,,Aloud17,001,2022_Aug_05_1515,ProdSingRedoBetween,2021.2.3,59.88511639286038,
42,0,42,0,,,,,,,,,,,,,,,,,,,,,,,,,,312.55240810000396,None,present,23,43,aloud,yellow,310.5378097000066,None,None,310.5378097000066,None,,,,,,,,,,,,,,,,,,,,,,,,,,,,,,,,,,,Aloud17,001,2022_Aug_05_1515,ProdSingRedoBetween,2021.2.3,59.88511639286038,
43,0,43,0,,,,,,,,,,,,,,,,,,,,,,,,,,315.0547247000068,None,relation,82,44,aloud,red,313.05363770000986,None,None,313.05363770000986,None,,,,,,,,,,,,,,,,,,,,,,,,,,,,,,,,,,,Aloud17,001,2022_Aug_05_1515,ProdSingRedoBetween,2021.2.3,59.88511639286038,
44,0,44,0,,,,,,,,,,,,,,,,,,,,,,,,,,317.5737691000104,None,appeal,19,45,aloud,yellow,315.5618736000033,None,None,315.5618736000033,None,,,,,,,,,,,,,,,,,,,,,,,,,,,,,,,,,,,Aloud17,001,2022_Aug_05_1515,ProdSingRedoBetween,2021.2.3,59.88511639286038,
45,0,45,0,,,,,,,,,,,,,,,,,,,,,,,,,,320.0762815000053,None,interior,87,46,aloud,red,318.074222700001,None,None,318.074222700001,None,,,,,,,,,,,,,,,,,,,,,,,,,,,,,,,,,,,Aloud17,001,2022_Aug_05_1515,ProdSingRedoBetween,2021.2.3,59.88511639286038,
46,0,46,0,,,,,,,,,,,,,,,,,,,,,,,,,,322.5953542000061,None,quantity,64,47,aloud,red,320.58351210001274,None,None,320.58351210001274,None,,,,,,,,,,,,,,,,,,,,,,,,,,,,,,,,,,,Aloud17,001,2022_Aug_05_1515,ProdSingRedoBetween,2021.2.3,59.88511639286038,
47,0,47,0,,,,,,,,,,,,,,,,,,,,,,,,,,325.097863300005,None,platform,25,48,aloud,yellow,323.09593690000474,None,None,323.09593690000474,None,,,,,,,,,,,,,,,,,,,,,,,,,,,,,,,,,,,Aloud17,001,2022_Aug_05_1515,ProdSingRedoBetween,2021.2.3,59.88511639286038,
48,0,48,0,,,,,,,,,,,,,,,,,,,,,,,,,,327.6004723000078,None,native,17,49,aloud,yellow,325.5984502000065,None,None,325.5984502000065,None,,,,,,,,,,,,,,,,,,,,,,,,,,,,,,,,,,,Aloud17,001,2022_Aug_05_1515,ProdSingRedoBetween,2021.2.3,59.88511639286038,
49,0,49,0,,,,,,,,,,,,,,,,,,,,,,,,,,330.1028154000087,None,drama,14,50,aloud,yellow,328.1024907000101,None,None,328.1024907000101,None,,,,,,,,,,,,,,,,,,,,,,,,,,,,,,,,,,,Aloud17,001,2022_Aug_05_1515,ProdSingRedoBetween,2021.2.3,59.88511639286038,
50,0,50,0,,,,,,,,,,,,,,,,,,,,,,,,,,332.60547720000613,None,close,75,51,aloud,red,330.6034323000058,None,None,330.6034323000058,None,,,,,,,,,,,,,,,,,,,,,,,,,,,,,,,,,,,Aloud17,001,2022_Aug_05_1515,ProdSingRedoBetween,2021.2.3,59.88511639286038,
51,0,51,0,,,,,,,,,,,,,,,,,,,,,,,,,,335.107978,None,drove,70,52,aloud,red,333.1078925000038,None,None,333.1078925000038,None,,,,,,,,,,,,,,,,,,,,,,,,,,,,,,,,,,,Aloud17,001,2022_Aug_05_1515,ProdSingRedoBetween,2021.2.3,59.88511639286038,
52,0,52,0,,,,,,,,,,,,,,,,,,,,,,,,,,337.6104616000084,None,nature,31,53,aloud,blue,335.60919390000345,None,None,335.60919390000345,None,,,,,,,,,,,,,,,,,,,,,,,,,,,,,,,,,,,Aloud17,001,2022_Aug_05_1515,ProdSingRedoBetween,2021.2.3,59.88511639286038,
53,0,53,0,,,,,,,,,,,,,,,,,,,,,,,,,,340.12964940001257,None,estate,50,54,aloud,blue,338.1172828000126,None,None,338.1172828000126,None,,,,,,,,,,,,,,,,,,,,,,,,,,,,,,,,,,,Aloud17,001,2022_Aug_05_1515,ProdSingRedoBetween,2021.2.3,59.88511639286038,
54,0,54,0,,,,,,,,,,,,,,,,,,,,,,,,,,342.64883660001215,None,balance,26,55,aloud,yellow,340.6351529000094,None,None,340.6351529000094,None,,,,,,,,,,,,,,,,,,,,,,,,,,,,,,,,,,,Aloud17,001,2022_Aug_05_1515,ProdSingRedoBetween,2021.2.3,59.88511639286038,
55,0,55,0,,,,,,,,,,,,,,,,,,,,,,,,,,345.1513585000066,None,industry,35,56,aloud,blue,343.1504731000023,None,None,343.1504731000023,None,,,,,,,,,,,,,,,,,,,,,,,,,,,,,,,,,,,Aloud17,001,2022_Aug_05_1515,ProdSingRedoBetween,2021.2.3,59.88511639286038,
56,0,56,0,,,,,,,,,,,,,,,,,,,,,,,,,,347.6704893999995,None,capital,21,57,aloud,yellow,345.65646460000426,None,None,345.65646460000426,None,,,,,,,,,,,,,,,,,,,,,,,,,,,,,,,,,,,Aloud17,001,2022_Aug_05_1515,ProdSingRedoBetween,2021.2.3,59.88511639286038,
57,0,57,0,,,,,,,,,,,,,,,,,,,,,,,,,,350.1730043000134,None,collection,72,58,aloud,red,348.17200020000746,None,None,348.17200020000746,None,,,,,,,,,,,,,,,,,,,,,,,,,,,,,,,,,,,Aloud17,001,2022_Aug_05_1515,ProdSingRedoBetween,2021.2.3,59.88511639286038,
58,0,58,0,,,,,,,,,,,,,,,,,,,,,,,,,,352.69222020001325,None,phrase,60,59,aloud,red,350.6795267000125,None,None,350.6795267000125,None,,,,,,,,,,,,,,,,,,,,,,,,,,,,,,,,,,,Aloud17,001,2022_Aug_05_1515,ProdSingRedoBetween,2021.2.3,59.88511639286038,
59,0,59,0,,,,,,,,,,,,,,,,,,,,,,,,,,355.21126610001375,None,smooth,62,60,aloud,red,353.2030483000126,None,None,353.2030483000126,None,,,,,,,,,,,,,,,,,,,,,,,,,,,,,,,,,,,Aloud17,001,2022_Aug_05_1515,ProdSingRedoBetween,2021.2.3,59.88511639286038,
60,0,60,0,,,,,,,,,,,,,,,,,,,,,,,,,,357.73038750000705,None,partner,52,61,aloud,blue,355.71500530000776,None,None,355.71500530000776,None,,,,,,,,,,,,,,,,,,,,,,,,,,,,,,,,,,,Aloud17,001,2022_Aug_05_1515,ProdSingRedoBetween,2021.2.3,59.88511639286038,
61,0,61,0,,,,,,,,,,,,,,,,,,,,,,,,,,360.2331910000066,None,carry,67,62,aloud,red,358.23098800001026,None,None,358.23098800001026,None,,,,,,,,,,,,,,,,,,,,,,,,,,,,,,,,,,,Aloud17,001,2022_Aug_05_1515,ProdSingRedoBetween,2021.2.3,59.88511639286038,
62,0,62,0,,,,,,,,,,,,,,,,,,,,,,,,,,362.73554590001004,None,strain,77,63,aloud,red,360.73363940000127,None,None,360.73363940000127,None,,,,,,,,,,,,,,,,,,,,,,,,,,,,,,,,,,,Aloud17,001,2022_Aug_05_1515,ProdSingRedoBetween,2021.2.3,59.88511639286038,
63,0,63,0,,,,,,,,,,,,,,,,,,,,,,,,,,365.2380256000033,None,general,7,64,aloud,yellow,363.239084300003,None,None,363.239084300003,None,,,,,,,,,,,,,,,,,,,,,,,,,,,,,,,,,,,Aloud17,001,2022_Aug_05_1515,ProdSingRedoBetween,2021.2.3,59.88511639286038,
64,0,64,0,,,,,,,,,,,,,,,,,,,,,,,,,,367.7404673000128,None,session,71,65,aloud,red,365.74080280000635,None,None,365.74080280000635,None,,,,,,,,,,,,,,,,,,,,,,,,,,,,,,,,,,,Aloud17,001,2022_Aug_05_1515,ProdSingRedoBetween,2021.2.3,59.88511639286038,
65,0,65,0,,,,,,,,,,,,,,,,,,,,,,,,,,370.2429204000073,None,finish,79,66,aloud,red,368.243432400006,None,None,368.243432400006,None,,,,,,,,,,,,,,,,,,,,,,,,,,,,,,,,,,,Aloud17,001,2022_Aug_05_1515,ProdSingRedoBetween,2021.2.3,59.88511639286038,
66,0,66,0,,,,,,,,,,,,,,,,,,,,,,,,,,372.7454981000046,None,author,88,67,aloud,red,370.7434918000072,None,None,370.7434918000072,None,,,,,,,,,,,,,,,,,,,,,,,,,,,,,,,,,,,Aloud17,001,2022_Aug_05_1515,ProdSingRedoBetween,2021.2.3,59.88511639286038,
67,0,67,0,,,,,,,,,,,,,,,,,,,,,,,,,,375.24804580000637,None,curve,73,68,aloud,red,373.24897300000885,None,None,373.24897300000885,None,,,,,,,,,,,,,,,,,,,,,,,,,,,,,,,,,,,Aloud17,001,2022_Aug_05_1515,ProdSingRedoBetween,2021.2.3,59.88511639286038,
68,0,68,0,,,,,,,,,,,,,,,,,,,,,,,,,,377.76703010000347,None,safety,4,69,aloud,yellow,375.7530075000104,None,None,375.7530075000104,None,,,,,,,,,,,,,,,,,,,,,,,,,,,,,,,,,,,Aloud17,001,2022_Aug_05_1515,ProdSingRedoBetween,2021.2.3,59.88511639286038,
69,0,69,0,,,,,,,,,,,,,,,,,,,,,,,,,,380.2696605000092,None,reading,57,70,aloud,blue,378.27054340000905,None,None,378.27054340000905,None,,,,,,,,,,,,,,,,,,,,,,,,,,,,,,,,,,,Aloud17,001,2022_Aug_05_1515,ProdSingRedoBetween,2021.2.3,59.88511639286038,
70,0,70,0,,,,,,,,,,,,,,,,,,,,,,,,,,382.7723079999996,None,route,56,71,aloud,blue,380.7718583000096,None,None,380.7718583000096,None,,,,,,,,,,,,,,,,,,,,,,,,,,,,,,,,,,,Aloud17,001,2022_Aug_05_1515,ProdSingRedoBetween,2021.2.3,59.88511639286038,
71,0,71,0,,,,,,,,,,,,,,,,,,,,,,,,,,385.29140670000925,None,heavy,80,72,aloud,red,383.2856664000137,None,None,383.2856664000137,None,,,,,,,,,,,,,,,,,,,,,,,,,,,,,,,,,,,Aloud17,001,2022_Aug_05_1515,ProdSingRedoBetween,2021.2.3,59.88511639286038,
72,0,72,0,,,,,,,,,,,,,,,,,,,,,,,,,,387.7937864000123,None,whole,10,73,aloud,yellow,385.79191820000415,None,None,385.79191820000415,None,,,,,,,,,,,,,,,,,,,,,,,,,,,,,,,,,,,Aloud17,001,2022_Aug_05_1515,ProdSingRedoBetween,2021.2.3,59.88511639286038,
73,0,73,0,,,,,,,,,,,,,,,,,,,,,,,,,,390.2963807000051,None,council,27,74,aloud,yellow,388.29434940000647,None,None,388.29434940000647,None,,,,,,,,,,,,,,,,,,,,,,,,,,,,,,,,,,,Aloud17,001,2022_Aug_05_1515,ProdSingRedoBetween,2021.2.3,59.88511639286038,
74,0,74,0,,,,,,,,,,,,,,,,,,,,,,,,,,392.79897530000017,None,pretty,15,75,aloud,yellow,390.79896500000905,None,None,390.79896500000905,None,,,,,,,,,,,,,,,,,,,,,,,,,,,,,,,,,,,Aloud17,001,2022_Aug_05_1515,ProdSingRedoBetween,2021.2.3,59.88511639286038,
75,0,75,0,,,,,,,,,,,,,,,,,,,,,,,,,,395.30152459999954,None,trail,42,76,aloud,blue,393.2992913000053,None,None,393.2992913000053,None,,,,,,,,,,,,,,,,,,,,,,,,,,,,,,,,,,,Aloud17,001,2022_Aug_05_1515,ProdSingRedoBetween,2021.2.3,59.88511639286038,
76,0,76,0,,,,,,,,,,,,,,,,,,,,,,,,,,397.82058379999944,None,object,59,77,aloud,yellow,395.80516770000395,None,None,395.80516770000395,None,,,,,,,,,,,,,,,,,,,,,,,,,,,,,,,,,,,Aloud17,001,2022_Aug_05_1515,ProdSingRedoBetween,2021.2.3,59.88511639286038,
77,0,77,0,,,,,,,,,,,,,,,,,,,,,,,,,,400.3397272000002,None,burden,2,78,aloud,yellow,398.3246502000111,None,None,398.3246502000111,None,,,,,,,,,,,,,,,,,,,,,,,,,,,,,,,,,,,Aloud17,001,2022_Aug_05_1515,ProdSingRedoBetween,2021.2.3,59.88511639286038,
78,0,78,0,,,,,,,,,,,,,,,,,,,,,,,,,,402.84213630000886,None,machinery,12,79,aloud,yellow,400.84027070000593,None,None,400.84027070000593,None,,,,,,,,,,,,,,,,,,,,,,,,,,,,,,,,,,,Aloud17,001,2022_Aug_05_1515,ProdSingRedoBetween,2021.2.3,59.88511639286038,
79,0,79,0,,,,,,,,,,,,,,,,,,,,,,,,,,405.3613987000135,None,fashion,84,80,aloud,red,403.3481766000041,None,None,403.3481766000041,None,,,,,,,,,,,,,,,,,,,,,,,,,,,,,,,,,,,Aloud17,001,2022_Aug_05_1515,ProdSingRedoBetween,2021.2.3,59.88511639286038,
80,0,80,0,,,,,,,,,,,,,,,,,,,,,,,,,,407.8638681000011,None,bitter,53,81,aloud,blue,405.8618725000124,None,None,405.8618725000124,None,,,,,,,,,,,,,,,,,,,,,,,,,,,,,,,,,,,Aloud17,001,2022_Aug_05_1515,ProdSingRedoBetween,2021.2.3,59.88511639286038,
81,0,81,0,,,,,,,,,,,,,,,,,,,,,,,,,,410.38312000001315,None,bucket,6,82,aloud,yellow,408.3772569000139,None,None,408.3772569000139,None,,,,,,,,,,,,,,,,,,,,,,,,,,,,,,,,,,,Aloud17,001,2022_Aug_05_1515,ProdSingRedoBetween,2021.2.3,59.88511639286038,
82,0,82,0,,,,,,,,,,,,,,,,,,,,,,,,,,412.88566620000347,None,column,36,83,aloud,blue,410.88362400000915,None,None,410.88362400000915,None,,,,,,,,,,,,,,,,,,,,,,,,,,,,,,,,,,,Aloud17,001,2022_Aug_05_1515,ProdSingRedoBetween,2021.2.3,59.88511639286038,
83,0,83,0,,,,,,,,,,,,,,,,,,,,,,,,,,415.3881296000036,None,crowd,83,84,aloud,red,413.38819030000013,None,None,413.38819030000013,None,,,,,,,,,,,,,,,,,,,,,,,,,,,,,,,,,,,Aloud17,001,2022_Aug_05_1515,ProdSingRedoBetween,2021.2.3,59.88511639286038,
84,0,84,0,,,,,,,,,,,,,,,,,,,,,,,,,,417.9072937000019,None,service,45,85,aloud,blue,415.8931906000071,None,None,415.8931906000071,None,,,,,,,,,,,,,,,,,,,,,,,,,,,,,,,,,,,Aloud17,001,2022_Aug_05_1515,ProdSingRedoBetween,2021.2.3,59.88511639286038,
85,0,85,0,,,,,,,,,,,,,,,,,,,,,,,,,,420.40968460000295,None,plane,29,86,aloud,blue,418.4092854000046,None,None,418.4092854000046,None,,,,,,,,,,,,,,,,,,,,,,,,,,,,,,,,,,,Aloud17,001,2022_Aug_05_1515,ProdSingRedoBetween,2021.2.3,59.88511639286038,
86,0,86,0,,,,,,,,,,,,,,,,,,,,,,,,,,422.9123363000108,None,shape,76,87,aloud,red,420.9102072000096,None,None,420.9102072000096,None,,,,,,,,,,,,,,,,,,,,,,,,,,,,,,,,,,,Aloud17,001,2022_Aug_05_1515,ProdSingRedoBetween,2021.2.3,59.88511639286038,
87,0,87,0,,,,,,,,,,,,,,,,,,,,,,,,,,425.43142760000774,None,dozen,49,88,aloud,blue,423.4197625000088,None,None,423.4197625000088,None,,,,,,,,,,,,,,,,,,,,,,,,,,,,,,,,,,,Aloud17,001,2022_Aug_05_1515,ProdSingRedoBetween,2021.2.3,59.88511639286038,
88,0,88,0,,,,,,,,,,,,,,,,,,,,,,,,,,427.93375370001013,None,victory,63,89,aloud,red,425.933499900013,None,None,425.933499900013,None,,,,,,,,,,,,,,,,,,,,,,,,,,,,,,,,,,,Aloud17,001,2022_Aug_05_1515,ProdSingRedoBetween,2021.2.3,59.88511639286038,
89,0,89,0,,,,,,,,,,,,,,,,,,,,,,,,,,430.43636760000663,None,resistance,5,90,aloud,yellow,428.43439720000606,None,None,428.43439720000606,None,,,,,,,,,,,,,,,,,,,,,,,,,,,,,,,,,,,Aloud17,001,2022_Aug_05_1515,ProdSingRedoBetween,2021.2.3,59.88511639286038,
,,,,,,,,,,,,,,,,,,,,,,,,,,,,,,,,,,,,,,,,,430.937116400004,None,k,117.17079319999903,430.937116400004,None,,,,,,,,,,,,,,,,,,,,,,,,,,,,,Aloud17,001,2022_Aug_05_1515,ProdSingRedoBetween,2021.2.3,59.88511639286038,
,,,,0,0,0,0,,,,,,,,,,,,,,,,,,,,,,553.5827150000114,None,,,,,,,,,,,,,,,,,quarter,169,1,aloud,new,null,548.6493096000049,None,548.6493096000049,None,1,2.4424100000032922,548.6493096000049,None,2.4424100000032922,551.1085782000009,None,551.6280867000023,None,551.6280867000023,None,n,1.9279305999953067,551.6280867000023,None,1.9279305999953067,,,Aloud17,001,2022_Aug_05_1515,ProdSingRedoBetween,2021.2.3,59.88511639286038,
,,,,1,0,1,0,,,,,,,,,,,,,,,,,,,,,,559.5819855000009,None,,,,,,,,,,,,,,,,,taste,18,2,aloud,old,yellow,554.0959982000059,None,554.0959982000059,None,5,2.8917647000052966,554.0959982000059,None,2.8917647000052966,557.0163474000001,None,557.5301038000034,None,557.5301038000034,None,f,2.0335794999991776,557.5301038000034,None,2.0335794999991776,,,Aloud17,001,2022_Aug_05_1515,ProdSingRedoBetween,2021.2.3,59.88511639286038,
,,,,2,0,2,0,,,,,,,,,,,,,,,,,,,,,,564.7204223000008,None,,,,,,,,,,,,,,,,,balance,26,3,aloud,old,yellow,560.0910944000061,None,560.0910944000061,None,1,2.7925367999996524,560.0910944000061,None,2.7925367999996524,562.9027141000115,None,563.4025842000119,None,563.4025842000119,None,n,1.2970253999956185,563.4025842000119,None,1.2970253999956185,,,Aloud17,001,2022_Aug_05_1515,ProdSingRedoBetween,2021.2.3,59.88511639286038,
,,,,3,0,3,0,,,,,,,,,,,,,,,,,,,,,,569.0259462000104,None,,,,,,,,,,,,,,,,,youth,102,4,aloud,new,null,565.2290068000002,None,565.2290068000002,None,1,2.1266815999988467,565.2290068000002,None,2.1266815999988467,567.3743163000036,None,567.877704100014,None,567.877704100014,None,n,1.1260662999993656,567.877704100014,None,1.1260662999993656,,,Aloud17,001,2022_Aug_05_1515,ProdSingRedoBetween,2021.2.3,59.88511639286038,
,,,,4,0,4,0,,,,,,,,,,,,,,,,,,,,,,575.0806396000116,None,,,,,,,,,,,,,,,,,beauty,121,5,aloud,new,null,569.5346464000031,None,569.5346464000031,None,1,2.0291302999976324,569.5346464000031,None,2.0291302999976324,571.600605700005,None,572.1162884000078,None,572.1162884000078,None,n,2.9434780000010505,572.1162884000078,None,2.9434780000010505,,,Aloud17,001,2022_Aug_05_1515,ProdSingRedoBetween,2021.2.3,59.88511639286038,
,,,,5,0,5,0,,,,,,,,,,,,,,,,,,,,,,582.7884315000119,None,,,,,,,,,,,,,,,,,platform,25,6,aloud,old,yellow,575.5855348000041,None,575.5855348000041,None,4,4.24212969999644,575.5855348000041,None,4.24212969999644,579.8535235000018,None,580.3528483000118,None,580.3528483000118,None,f,2.418809399998281,580.3528483000118,None,2.418809399998281,,,Aloud17,001,2022_Aug_05_1515,ProdSingRedoBetween,2021.2.3,59.88511639286038,
,,,,6,0,6,0,,,,,,,,,,,,,,,,,,,,,,586.6089907999994,None,,,,,,,,,,,,,,,,,detective,118,7,aloud,new,null,583.2993535999994,None,583.2993535999994,None,1,1.672308699999121,583.2993535999994,None,1.672308699999121,584.9917821000126,None,585.4996757000044,None,585.4996757000044,None,n,1.088071399994078,585.4996757000044,None,1.088071399994078,,,Aloud17,001,2022_Aug_05_1515,ProdSingRedoBetween,2021.2.3,59.88511639286038,
,,,,7,0,7,0,,,,,,,,,,,,,,,,,,,,,,593.8661979000026,None,,,,,,,,,,,,,,,,,territory,161,8,aloud,new,null,587.1098868000117,None,587.1098868000117,None,2,4.709768799992162,587.1098868000117,None,4.709768799992162,591.8489592000114,None,592.353572100008,None,592.353572100008,None,n,1.4820891999988817,592.353572100008,None,1.4820891999988817,,,Aloud17,001,2022_Aug_05_1515,ProdSingRedoBetween,2021.2.3,59.88511639286038,
,,,,8,0,8,0,,,,,,,,,,,,,,,,,,,,,,597.5724710000068,None,,,,,,,,,,,,,,,,,ground,81,9,aloud,old,red,594.3667353000055,None,594.3667353000055,None,1,2.020995800005039,594.3667353000055,None,2.020995800005039,596.422742900002,None,596.935948000013,None,596.935948000013,None,n,0.6120674999983748,596.935948000013,None,0.6120674999983748,,,Aloud17,001,2022_Aug_05_1515,ProdSingRedoBetween,2021.2.3,59.88511639286038,
,,,,9,0,9,0,,,,,,,,,,,,,,,,,,,,,,601.6906398000137,None,,,,,,,,,,,,,,,,,reach,22,10,aloud,old,yellow,598.0870116000006,None,598.0870116000006,None,1,1.8368813999986742,598.0870116000006,None,1.8368813999986742,599.9555301000073,None,600.4591713000118,None,600.4591713000118,None,n,1.2085023999970872,600.4591713000118,None,1.2085023999970872,,,Aloud17,001,2022_Aug_05_1515,ProdSingRedoBetween,2021.2.3,59.88511639286038,
,,,,10,0,10,0,,,,,,,,,,,,,,,,,,,,,,604.9104909000016,None,,,,,,,,,,,,,,,,,pancakes,101,11,aloud,new,null,602.2027107000031,None,602.2027107000031,None,1,1.4970971000002464,602.2027107000031,None,1.4970971000002464,603.7272613000096,None,604.2267766000004,None,604.2267766000004,None,n,0.6649945999961346,604.2267766000004,None,0.6649945999961346,,,Aloud17,001,2022_Aug_05_1515,ProdSingRedoBetween,2021.2.3,59.88511639286038,
,,,,11,0,11,0,,,,,,,,,,,,,,,,,,,,,,608.8810583000013,None,,,,,,,,,,,,,,,,,school,44,12,aloud,old,blue,605.4140705000027,None,605.4140705000027,None,1,2.2855775999923935,605.4140705000027,None,2.2855775999923935,607.7308916000038,None,608.2305196000088,None,608.2305196000088,None,n,0.6291037000046344,608.2305196000088,None,0.6291037000046344,,,Aloud17,001,2022_Aug_05_1515,ProdSingRedoBetween,2021.2.3,59.88511639286038,
,,,,12,0,12,0,,,,,,,,,,,,,,,,,,,,,,615.2040553000115,None,,,,,,,,,,,,,,,,,order,1,13,aloud,old,yellow,609.3917738000018,None,609.3917738000018,None,5,3.0037917000008747,609.3917738000018,None,3.0037917000008747,612.4180812000122,None,612.9187337000039,None,612.9187337000039,None,f,2.2609285000071395,612.9187337000039,None,2.2609285000071395,,,Aloud17,001,2022_Aug_05_1515,ProdSingRedoBetween,2021.2.3,59.88511639286038,
,,,,13,0,13,0,,,,,,,,,,,,,,,,,,,,,,621.4269759000017,None,,,,,,,,,,,,,,,,,session,71,14,aloud,old,red,615.7083028000052,None,615.7083028000052,None,6,3.9753539000084857,615.7083028000052,None,3.9753539000084857,619.7098713000014,None,620.2092153000121,None,620.2092153000121,None,f,1.1864556999935303,620.2092153000121,None,1.1864556999935303,,,Aloud17,001,2022_Aug_05_1515,ProdSingRedoBetween,2021.2.3,59.88511639286038,
,,,,14,0,14,0,,,,,,,,,,,,,,,,,,,,,,628.7674784000119,None,,,,,,,,,,,,,,,,,salary,165,15,aloud,new,null,621.9276689000108,None,621.9276689000108,None,4,4.25988120000693,621.9276689000108,None,4.25988120000693,626.2176955000032,None,626.7323713000078,None,626.7323713000078,None,n,2.007187299997895,626.7323713000078,None,2.007187299997895,,,Aloud17,001,2022_Aug_05_1515,ProdSingRedoBetween,2021.2.3,59.88511639286038,
,,,,15,0,15,0,,,,,,,,,,,,,,,,,,,,,,635.0071479000035,None,,,,,,,,,,,,,,,,,defeat,65,16,aloud,old,red,629.2682152000052,None,629.2682152000052,None,4,3.9753006999962963,629.2682152000052,None,3.9753006999962963,633.2721206000133,None,633.7727431000094,None,633.7727431000094,None,n,1.2068378999974811,633.7727431000094,None,1.2068378999974811,,,Aloud17,001,2022_Aug_05_1515,ProdSingRedoBetween,2021.2.3,59.88511639286038,
,,,,16,0,16,0,,,,,,,,,,,,,,,,,,,,,,643.782495300009,None,,,,,,,,,,,,,,,,,trial,33,17,aloud,old,blue,635.5076668000111,None,635.5076668000111,None,6,2.7678560000058496,635.5076668000111,None,2.7678560000058496,638.2937595000112,None,638.7943623000028,None,638.7943623000028,None,n,4.961188500004937,638.7943623000028,None,4.961188500004937,,,Aloud17,001,2022_Aug_05_1515,ProdSingRedoBetween,2021.2.3,59.88511639286038,
,,,,17,0,17,0,,,,,,,,,,,,,,,,,,,,,,649.4723048000014,None,,,,,,,,,,,,,,,,,native,17,18,aloud,old,yellow,644.283350800004,None,644.283350800004,None,6,2.8161281000066083,644.283350800004,None,2.8161281000066083,647.136717100002,None,647.6365170000063,None,647.6365170000063,None,f,1.807030299998587,647.6365170000063,None,1.807030299998587,,,Aloud17,001,2022_Aug_05_1515,ProdSingRedoBetween,2021.2.3,59.88511639286038,
,,,,18,0,18,0,,,,,,,,,,,,,,,,,,,,,,656.8956682999997,None,,,,,,,,,,,,,,,,,treatment,141,19,aloud,new,null,649.9744360000041,None,649.9744360000041,None,1,5.03708780001034,649.9744360000041,None,5.03708780001034,655.0271262000024,None,655.5277382000058,None,655.5277382000058,None,n,1.3477914999966742,655.5277382000058,None,1.3477914999966742,,,Aloud17,001,2022_Aug_05_1515,ProdSingRedoBetween,2021.2.3,59.88511639286038,
,,,,19,0,19,0,,,,,,,,,,,,,,,,,,,,,,661.1832694000041,None,,,,,,,,,,,,,,,,,carry,67,20,aloud,old,red,657.396445300008,None,657.396445300008,None,1,2.111090600010357,657.396445300008,None,2.111090600010357,659.5318461000134,None,660.0322507000092,None,660.0322507000092,None,n,1.1314085999911185,660.0322507000092,None,1.1314085999911185,,,Aloud17,001,2022_Aug_05_1515,ProdSingRedoBetween,2021.2.3,59.88511639286038,
,,,,20,0,20,0,,,,,,,,,,,,,,,,,,,,,,667.5228986000002,None,,,,,,,,,,,,,,,,,mayor,43,21,aloud,old,blue,661.6842220000108,None,661.6842220000108,None,6,2.1833329999935813,661.6842220000108,None,2.1833329999935813,663.8860204000084,None,664.386679400006,None,664.386679400006,None,f,3.1208184999995865,664.386679400006,None,3.1208184999995865,,,Aloud17,001,2022_Aug_05_1515,ProdSingRedoBetween,2021.2.3,59.88511639286038,
,,,,21,0,21,0,,,,,,,,,,,,,,,,,,,,,,671.9106458000024,None,,,,,,,,,,,,,,,,,weather,58,22,aloud,old,blue,668.0235338000057,None,668.0235338000057,None,1,2.2439975000015693,668.0235338000057,None,2.2439975000015693,670.2923799000127,None,670.8035607000056,None,670.8035607000056,None,n,1.0799690000130795,670.8035607000056,None,1.0799690000130795,,,Aloud17,001,2022_Aug_05_1515,ProdSingRedoBetween,2021.2.3,59.88511639286038,
,,,,22,0,22,0,,,,,,,,,,,,,,,,,,,,,,676.5151700000133,None,,,,,,,,,,,,,,,,,afternoon,98,23,aloud,new,null,672.4139043000032,None,672.4139043000032,None,1,2.661679800003185,672.4139043000032,None,2.661679800003185,675.0972073000012,None,675.6033235000068,None,675.6033235000068,None,n,0.896237499997369,675.6033235000068,None,0.896237499997369,,,Aloud17,001,2022_Aug_05_1515,ProdSingRedoBetween,2021.2.3,59.88511639286038,
,,,,23,0,23,0,,,,,,,,,,,,,,,,,,,,,,680.7361416000058,None,,,,,,,,,,,,,,,,,curve,73,24,aloud,old,red,677.0157984000107,None,677.0157984000107,None,1,1.6759254999924451,677.0157984000107,None,1.6759254999924451,678.7208133000095,None,679.2347563000076,None,679.2347563000076,None,n,1.4728499000048032,679.2347563000076,None,1.4728499000048032,,,Aloud17,001,2022_Aug_05_1515,ProdSingRedoBetween,2021.2.3,59.88511639286038,
,,,,24,0,24,0,,,,,,,,,,,,,,,,,,,,,,692.3027877000131,None,,,,,,,,,,,,,,,,,frank,154,25,aloud,new,null,681.236807600013,None,681.236807600013,None,1,2.2067462999984855,681.236807600013,None,2.2067462999984855,683.4722044000082,None,683.9853634000028,None,683.9853634000028,None,n,8.282079500000691,683.9853634000028,None,8.282079500000691,,,Aloud17,001,2022_Aug_05_1515,ProdSingRedoBetween,2021.2.3,59.88511639286038,
,,,,25,0,25,0,,,,,,,,,,,,,,,,,,,,,,697.8364941000036,None,,,,,,,,,,,,,,,,,generation,156,26,aloud,new,null,692.8149383000127,None,692.8149383000127,None,1,3.7806656999891857,692.8149383000127,None,3.7806656999891857,696.6193570000032,None,697.1191548000061,None,697.1191548000061,None,n,0.6924108999955934,697.1191548000061,None,0.6924108999955934,,,Aloud17,001,2022_Aug_05_1515,ProdSingRedoBetween,2021.2.3,59.88511639286038,
,,,,26,0,26,0,,,,,,,,,,,,,,,,,,,,,,701.2398816000059,None,,,,,,,,,,,,,,,,,mechanical,143,27,aloud,new,null,698.3373241000081,None,698.3373241000081,None,1,1.5942253999965033,698.3373241000081,None,1.5942253999965033,699.9553254000057,None,700.4559382000007,None,700.4559382000007,None,n,0.7636467999982415,700.4559382000007,None,0.7636467999982415,,,Aloud17,001,2022_Aug_05_1515,ProdSingRedoBetween,2021.2.3,59.88511639286038,
,,,,27,0,27,0,,,,,,,,,,,,,,,,,,,,,,707.2625897000107,None,,,,,,,,,,,,,,,,,space,168,28,aloud,new,null,701.7505513000069,None,701.7505513000069,None,1,3.70093469999847,701.7505513000069,None,3.70093469999847,705.4802753000113,None,706.0025088000111,None,706.0025088000111,None,n,1.232963499991456,706.0025088000111,None,1.232963499991456,,,Aloud17,001,2022_Aug_05_1515,ProdSingRedoBetween,2021.2.3,59.88511639286038,
,,,,28,0,28,0,,,,,,,,,,,,,,,,,,,,,,714.9981945000036,None,,,,,,,,,,,,,,,,,industry,35,29,aloud,old,blue,707.7632374000095,None,707.7632374000095,None,6,2.9683542999991914,707.7632374000095,None,2.9683542999991914,710.749544700011,None,711.2501891000138,None,711.2501891000138,None,f,3.7216251000063494,711.2501891000138,None,3.7216251000063494,,,Aloud17,001,2022_Aug_05_1515,ProdSingRedoBetween,2021.2.3,59.88511639286038,
,,,,29,0,29,0,,,,,,,,,,,,,,,,,,,,,,724.0127112000046,None,,,,,,,,,,,,,,,,,guest,119,30,aloud,new,null,715.5054601000011,None,715.5054601000011,None,3,6.513975399997435,715.5054601000011,None,6.513975399997435,722.0443124000012,None,722.5484789000038,None,722.5484789000038,None,n,1.446999699997832,722.5484789000038,None,1.446999699997832,,,Aloud17,001,2022_Aug_05_1515,ProdSingRedoBetween,2021.2.3,59.88511639286038,
,,,,30,0,30,0,,,,,,,,,,,,,,,,,,,,,,729.7183109000034,None,,,,,,,,,,,,,,,,,route,56,31,aloud,old,blue,724.5339576000115,None,724.5339576000115,None,6,2.3017131999949925,724.5339576000115,None,2.3017131999949925,726.8727281000029,None,727.3827648000006,None,727.3827648000006,None,r,2.3168783000000985,727.3827648000006,None,2.3168783000000985,,,Aloud17,001,2022_Aug_05_1515,ProdSingRedoBetween,2021.2.3,59.88511639286038,
,,,,31,0,31,0,,,,,,,,,,,,,,,,,,,,,,737.8263068000088,None,,,,,,,,,,,,,,,,,crime,136,32,aloud,new,null,730.2249084000068,None,730.2249084000068,None,1,5.938514900000882,730.2249084000068,None,5.938514900000882,736.1915417000127,None,736.695235200008,None,736.695235200008,None,n,1.1001751000003424,736.695235200008,None,1.1001751000003424,,,Aloud17,001,2022_Aug_05_1515,ProdSingRedoBetween,2021.2.3,59.88511639286038,
,,,,32,0,32,0,,,,,,,,,,,,,,,,,,,,,,744.0826630000083,None,,,,,,,,,,,,,,,,,patient,109,33,aloud,new,null,738.32719180001,None,738.32719180001,None,6,4.516190399997868,738.32719180001,None,4.516190399997868,742.8710345,None,743.3822633000091,None,743.3822633000091,None,r,0.6852367999963462,743.3822633000091,None,0.6852367999963462,,,Aloud17,001,2022_Aug_05_1515,ProdSingRedoBetween,2021.2.3,59.88511639286038,
,,,,33,0,33,0,,,,,,,,,,,,,,,,,,,,,,754.3094516000128,None,,,,,,,,,,,,,,,,,produce,66,34,aloud,old,red,744.5893635000102,None,744.5893635000102,None,4,8.174057500000345,744.5893635000102,None,8.174057500000345,752.7916799000086,None,753.2937103000004,None,753.2937103000004,None,n,0.9976967999973567,753.2937103000004,None,0.9976967999973567,,,Aloud17,001,2022_Aug_05_1515,ProdSingRedoBetween,2021.2.3,59.88511639286038,
,,,,34,0,34,0,,,,,,,,,,,,,,,,,,,,,,762.1173617000022,None,,,,,,,,,,,,,,,,,bitter,53,35,aloud,old,blue,754.8139937000087,None,754.8139937000087,None,1,4.853402900000219,754.8139937000087,None,4.853402900000219,759.6983362000028,None,760.2016808000044,None,760.2016808000044,None,n,1.8897602999932133,760.2016808000044,None,1.8897602999932133,,,Aloud17,001,2022_Aug_05_1515,ProdSingRedoBetween,2021.2.3,59.88511639286038,
,,,,35,0,35,0,,,,,,,,,,,,,,,,,,,,,,774.5797788000054,None,,,,,,,,,,,,,,,,,subject,78,36,aloud,old,red,762.62360240001,None,762.62360240001,None,2,9.987848000004306,762.62360240001,None,9.987848000004306,772.6290074999997,None,773.1283124000038,None,773.1283124000038,None,n,1.427157400001306,773.1283124000038,None,1.427157400001306,,,Aloud17,001,2022_Aug_05_1515,ProdSingRedoBetween,2021.2.3,59.88511639286038,
,,,,36,0,36,0,,,,,,,,,,,,,,,,,,,,,,779.2178468000056,None,,,,,,,,,,,,,,,,,portion,151,37,aloud,new,null,775.091060900013,None,775.091060900013,None,1,2.8483783999981824,775.091060900013,None,2.8483783999981824,777.9675010000065,None,778.4670280000137,None,778.4670280000137,None,n,0.7284333999996306,778.4670280000137,None,0.7284333999996306,,,Aloud17,001,2022_Aug_05_1515,ProdSingRedoBetween,2021.2.3,59.88511639286038,
,,,,37,0,37,0,,,,,,,,,,,,,,,,,,,,,,782.404348600001,None,,,,,,,,,,,,,,,,,cousin,95,38,aloud,new,null,779.7239421000122,None,779.7239421000122,None,1,1.3115071000065655,779.7239421000122,None,1.3115071000065655,781.0542325000133,None,781.5548238000047,None,781.5548238000047,None,n,0.8246875000040745,781.5548238000047,None,0.8246875000040745,,,Aloud17,001,2022_Aug_05_1515,ProdSingRedoBetween,2021.2.3,59.88511639286038,
,,,,38,0,38,0,,,,,,,,,,,,,,,,,,,,,,795.65076460001,None,,,,,,,,,,,,,,,,,permit,163,39,aloud,new,null,782.9058666000055,None,782.9058666000055,None,1,10.665550299992901,782.9058666000055,None,10.665550299992901,793.5999165000103,None,794.1036017000006,None,794.1036017000006,None,n,1.5319858999864664,794.1036017000006,None,1.5319858999864664,,,Aloud17,001,2022_Aug_05_1515,ProdSingRedoBetween,2021.2.3,59.88511639286038,
,,,,39,0,39,0,,,,,,,,,,,,,,,,,,,,,,800.9728312000079,None,,,,,,,,,,,,,,,,,citizen,39,40,aloud,old,blue,796.1588674000086,None,796.1588674000086,None,6,2.8285343000025023,796.1588674000086,None,2.8285343000025023,799.0042195999995,None,799.5047573000047,None,799.5047573000047,None,f,1.450646900004358,799.5047573000047,None,1.450646900004358,,,Aloud17,001,2022_Aug_05_1515,ProdSingRedoBetween,2021.2.3,59.88511639286038,
,,,,40,0,40,0,,,,,,,,,,,,,,,,,,,,,,809.1976660000073,None,,,,,,,,,,,,,,,,,employment,99,41,aloud,new,null,801.4842993000057,None,801.4842993000057,None,2,6.527197299990803,801.4842993000057,None,6.527197299990803,808.0310914000002,None,808.5304464000073,None,808.5304464000073,None,n,0.6410283000004711,808.5304464000073,None,0.6410283000004711,,,Aloud17,001,2022_Aug_05_1515,ProdSingRedoBetween,2021.2.3,59.88511639286038,
,,,,41,0,41,0,,,,,,,,,,,,,,,,,,,,,,812.6511176000058,None,,,,,,,,,,,,,,,,,spoke,166,42,aloud,new,null,809.7017160000105,None,809.7017160000105,None,1,1.3737901999993483,809.7017160000105,None,1.3737901999993483,811.0995725000103,None,811.609921100011,None,811.609921100011,None,n,1.0256683999905363,811.609921100011,None,1.0256683999905363,,,Aloud17,001,2022_Aug_05_1515,ProdSingRedoBetween,2021.2.3,59.88511639286038,
,,,,42,0,42,0,,,,,,,,,,,,,,,,,,,,,,817.6727668000094,None,,,,,,,,,,,,,,,,,author,88,43,aloud,old,red,813.1663292000012,None,813.1663292000012,None,6,2.2531452999974135,813.1663292000012,None,2.2531452999974135,815.4372905000055,None,815.9402299000067,None,815.9402299000067,None,r,1.7111240999947768,815.9402299000067,None,1.7111240999947768,,,Aloud17,001,2022_Aug_05_1515,ProdSingRedoBetween,2021.2.3,59.88511639286038,
,,,,43,0,43,0,,,,,,,,,,,,,,,,,,,,,,823.7789757999999,None,,,,,,,,,,,,,,,,,drove,70,44,aloud,old,red,818.1733410000015,None,818.1733410000015,None,6,4.070041300001321,818.1733410000015,None,4.070041300001321,822.2636082000099,None,822.7823088000005,None,822.7823088000005,None,r,0.9651834999967832,822.7823088000005,None,0.9651834999967832,,,Aloud17,001,2022_Aug_05_1515,ProdSingRedoBetween,2021.2.3,59.88511639286038,
,,,,44,0,44,0,,,,,,,,,,,,,,,,,,,,,,828.1999516000069,None,,,,,,,,,,,,,,,,,smell,38,45,aloud,old,blue,824.2796220000018,None,824.2796220000018,None,1,2.187798600003589,824.2796220000018,None,2.187798600003589,826.4982313000073,None,827.0050592000043,None,827.0050592000043,None,n,1.1663767999998527,827.0050592000043,None,1.1663767999998527,,,Aloud17,001,2022_Aug_05_1515,ProdSingRedoBetween,2021.2.3,59.88511639286038,
,,,,45,0,45,0,,,,,,,,,,,,,,,,,,,,,,831.9536588000046,None,,,,,,,,,,,,,,,,,drama,14,46,aloud,old,yellow,828.703276900007,None,828.703276900007,None,6,1.9880452999932459,828.703276900007,None,1.9880452999932459,830.7191578000056,None,831.2196237000026,None,831.2196237000026,None,r,0.7038391000096453,831.2196237000026,None,0.7038391000096453,,,Aloud17,001,2022_Aug_05_1515,ProdSingRedoBetween,2021.2.3,59.88511639286038,
,,,,46,0,46,0,,,,,,,,,,,,,,,,,,,,,,840.2452810000104,None,,,,,,,,,,,,,,,,,object,59,47,aloud,old,yellow,832.4544679000101,None,832.4544679000101,None,5,5.349258900008863,832.4544679000101,None,5.349258900008863,837.8347818000038,None,838.3434638000035,None,838.3434638000035,None,n,1.8839442000025883,838.3434638000035,None,1.8839442000025883,,,Aloud17,001,2022_Aug_05_1515,ProdSingRedoBetween,2021.2.3,59.88511639286038,
,,,,47,0,47,0,,,,,,,,,,,,,,,,,,,,,,846.3513815000042,None,,,,,,,,,,,,,,,,,estate,50,48,aloud,old,blue,840.751285300008,None,840.751285300008,None,6,3.548279700000421,840.751285300008,None,3.548279700000421,844.3161339000071,None,844.8168043000042,None,844.8168043000042,None,f,1.506597800005693,844.8168043000042,None,1.506597800005693,,,Aloud17,001,2022_Aug_05_1515,ProdSingRedoBetween,2021.2.3,59.88511639286038,
,,,,48,0,48,0,,,,,,,,,,,,,,,,,,,,,,850.1384827000002,None,,,,,,,,,,,,,,,,,point,130,49,aloud,new,null,846.8576479000039,None,846.8576479000039,None,1,1.9058411000005435,846.8576479000039,None,1.9058411000005435,848.7878891,None,849.2879016000079,None,849.2879016000079,None,n,0.8355155000026571,849.2879016000079,None,0.8355155000026571,,,Aloud17,001,2022_Aug_05_1515,ProdSingRedoBetween,2021.2.3,59.88511639286038,
,,,,49,0,49,0,,,,,,,,,,,,,,,,,,,,,,861.7334734000033,None,,,,,,,,,,,,,,,,,hearing,30,50,aloud,old,blue,850.640470600003,None,850.640470600003,None,2,9.146865700007766,850.640470600003,None,9.146865700007766,859.8155177000008,None,860.3178183000127,None,860.3178183000127,None,n,1.3975899999932153,860.3178183000127,None,1.3975899999932153,,,Aloud17,001,2022_Aug_05_1515,ProdSingRedoBetween,2021.2.3,59.88511639286038,
,,,,50,0,50,0,,,,,,,,,,,,,,,,,,,,,,865.0714563000074,None,,,,,,,,,,,,,,,,,article,69,51,aloud,old,red,862.2426055000105,None,862.2426055000105,None,6,1.6967548999964492,862.2426055000105,None,1.6967548999964492,863.9689560000115,None,864.47362840001,None,864.47362840001,None,f,0.5779039000044577,864.47362840001,None,0.5779039000044577,,,Aloud17,001,2022_Aug_05_1515,ProdSingRedoBetween,2021.2.3,59.88511639286038,
,,,,51,0,51,0,,,,,,,,,,,,,,,,,,,,,,870.7590852000139,None,,,,,,,,,,,,,,,,,waste,94,52,aloud,new,null,865.5775929000083,None,865.5775929000083,None,1,3.5779011999984505,865.5775929000083,None,3.5779011999984505,869.1751919000089,None,869.6799805000046,None,869.6799805000046,None,n,1.0513573000062024,869.6799805000046,None,1.0513573000062024,,,Aloud17,001,2022_Aug_05_1515,ProdSingRedoBetween,2021.2.3,59.88511639286038,
,,,,52,0,52,0,,,,,,,,,,,,,,,,,,,,,,873.9622937000095,None,,,,,,,,,,,,,,,,,household,171,53,aloud,new,null,871.26997020001,None,871.26997020001,None,1,1.5653915000002598,871.26997020001,None,1.5653915000002598,872.8625423000049,None,873.3618699000072,None,873.3618699000072,None,n,0.5855543000070611,873.3618699000072,None,0.5855543000070611,,,Aloud17,001,2022_Aug_05_1515,ProdSingRedoBetween,2021.2.3,59.88511639286038,
,,,,53,0,53,0,,,,,,,,,,,,,,,,,,,,,,877.298910700003,None,,,,,,,,,,,,,,,,,brief,167,54,aloud,new,null,874.4629941000021,None,874.4629941000021,None,1,1.6363249999994878,874.4629941000021,None,1.6363249999994878,876.1148738000047,None,876.6150366000074,None,876.6150366000074,None,n,0.6683277999982238,876.6150366000074,None,0.6683277999982238,,,Aloud17,001,2022_Aug_05_1515,ProdSingRedoBetween,2021.2.3,59.88511639286038,
,,,,54,0,54,0,,,,,,,,,,,,,,,,,,,,,,888.4600605000014,None,,,,,,,,,,,,,,,,,business,164,55,aloud,new,null,877.7994811000099,None,877.7994811000099,None,4,8.987780700001167,877.7994811000099,None,8.987780700001167,886.8091035000107,None,887.3089242000133,None,887.3089242000133,None,n,1.1343727000057697,887.3089242000133,None,1.1343727000057697,,,Aloud17,001,2022_Aug_05_1515,ProdSingRedoBetween,2021.2.3,59.88511639286038,
,,,,55,0,55,0,,,,,,,,,,,,,,,,,,,,,,892.5141139000043,None,,,,,,,,,,,,,,,,,bucket,6,56,aloud,old,yellow,888.9690094000107,None,888.9690094000107,None,1,2.498197100008838,888.9690094000107,None,2.498197100008838,891.4965568000043,None,892.0047237000108,None,892.0047237000108,None,n,0.47858379999524914,892.0047237000108,None,0.47858379999524914,,,Aloud17,001,2022_Aug_05_1515,ProdSingRedoBetween,2021.2.3,59.88511639286038,
,,,,56,0,56,0,,,,,,,,,,,,,,,,,,,,,,897.8861405000061,None,,,,,,,,,,,,,,,,,committee,129,57,aloud,new,null,893.0202382999996,None,893.0202382999996,None,1,3.3270884999947157,893.0202382999996,None,3.3270884999947157,896.3679778000078,None,896.8693880000064,None,896.8693880000064,None,n,0.9898885000002338,896.8693880000064,None,0.9898885000002338,,,Aloud17,001,2022_Aug_05_1515,ProdSingRedoBetween,2021.2.3,59.88511639286038,
,,,,57,0,57,0,,,,,,,,,,,,,,,,,,,,,,903.7420290000009,None,,,,,,,,,,,,,,,,,division,122,58,aloud,new,null,898.3964014000085,None,898.3964014000085,None,1,3.718937800003914,898.3964014000085,None,3.718937800003914,902.1421399000101,None,902.6577928000042,None,902.6577928000042,None,n,1.0574864000082016,902.6577928000042,None,1.0574864000082016,,,Aloud17,001,2022_Aug_05_1515,ProdSingRedoBetween,2021.2.3,59.88511639286038,
,,,,58,0,58,0,,,,,,,,,,,,,,,,,,,,,,906.7117018000135,None,,,,,,,,,,,,,,,,,throw,142,59,aloud,new,null,904.2426516000123,None,904.2426516000123,None,1,1.320751699997345,904.2426516000123,None,1.320751699997345,905.5939232000092,None,906.096601000012,None,906.096601000012,None,n,0.5947302999993553,906.096601000012,None,0.5947302999993553,,,Aloud17,001,2022_Aug_05_1515,ProdSingRedoBetween,2021.2.3,59.88511639286038,
,,,,59,0,59,0,,,,,,,,,,,,,,,,,,,,,,909.8815130000003,None,,,,,,,,,,,,,,,,,threat,97,60,aloud,new,null,907.2122435000056,None,907.2122435000056,None,1,1.6389768999943044,907.2122435000056,None,1.6389768999943044,908.8816666000057,None,909.3810356000031,None,909.3810356000031,None,n,0.4782991999963997,909.3810356000031,None,0.4782991999963997,,,Aloud17,001,2022_Aug_05_1515,ProdSingRedoBetween,2021.2.3,59.88511639286038,
,,,,60,0,60,0,,,,,,,,,,,,,,,,,,,,,,914.3859815000033,None,,,,,,,,,,,,,,,,,growth,179,61,aloud,new,null,910.3971010000096,None,910.3971010000096,None,1,2.910197600009269,910.3971010000096,None,2.910197600009269,913.3357756000041,None,913.8354470000049,None,913.8354470000049,None,n,0.5198184000037145,913.8354470000049,None,0.5198184000037145,,,Aloud17,001,2022_Aug_05_1515,ProdSingRedoBetween,2021.2.3,59.88511639286038,
,,,,61,0,61,0,,,,,,,,,,,,,,,,,,,,,,921.0264682000125,None,,,,,,,,,,,,,,,,,service,45,62,aloud,old,blue,914.8882914999995,None,914.8882914999995,None,5,4.483063899999252,914.8882914999995,None,4.483063899999252,919.3921346999996,None,919.8916425000061,None,919.8916425000061,None,n,1.111561099998653,919.8916425000061,None,1.111561099998653,,,Aloud17,001,2022_Aug_05_1515,ProdSingRedoBetween,2021.2.3,59.88511639286038,
,,,,62,0,62,0,,,,,,,,,,,,,,,,,,,,,,932.0900124000036,None,,,,,,,,,,,,,,,,,individual,32,63,aloud,old,blue,921.5344261999999,None,921.5344261999999,None,6,2.95682749999105,921.5344261999999,None,2.95682749999105,924.5134850000031,None,925.0136670000065,None,925.0136670000065,None,f,7.045577500000945,925.0136670000065,None,7.045577500000945,,,Aloud17,001,2022_Aug_05_1515,ProdSingRedoBetween,2021.2.3,59.88511639286038,
,,,,63,0,63,0,,,,,,,,,,,,,,,,,,,,,,938.3598576000077,None,,,,,,,,,,,,,,,,,reading,57,64,aloud,old,blue,932.6068511000049,None,932.6068511000049,None,5,3.8204383999982383,932.6068511000049,None,3.8204383999982383,936.4580236000038,None,936.9606047000125,None,936.9606047000125,None,f,1.3707074999983888,936.9606047000125,None,1.3707074999983888,,,Aloud17,001,2022_Aug_05_1515,ProdSingRedoBetween,2021.2.3,59.88511639286038,
,,,,64,0,64,0,,,,,,,,,,,,,,,,,,,,,,943.2649175000115,None,,,,,,,,,,,,,,,,,institute,135,65,aloud,new,null,938.8674670000037,None,938.8674670000037,None,1,2.4397167999995872,938.8674670000037,None,2.4397167999995872,941.3354109000065,None,941.8470779000054,None,941.8470779000054,None,n,1.3961245999962557,941.8470779000054,None,1.3961245999962557,,,Aloud17,001,2022_Aug_05_1515,ProdSingRedoBetween,2021.2.3,59.88511639286038,
,,,,65,0,65,0,,,,,,,,,,,,,,,,,,,,,,947.8692430000083,None,,,,,,,,,,,,,,,,,welcome,111,66,aloud,new,null,943.7707907000004,None,943.7707907000004,None,1,2.99237059999723,943.7707907000004,None,2.99237059999723,946.7933794000128,None,947.3021488000086,None,947.3021488000086,None,n,0.5410501000005752,947.3021488000086,None,0.5410501000005752,,,Aloud17,001,2022_Aug_05_1515,ProdSingRedoBetween,2021.2.3,59.88511639286038,
,,,,66,0,66,0,,,,,,,,,,,,,,,,,,,,,,952.5573135000013,None,,,,,,,,,,,,,,,,,primary,100,67,aloud,new,null,948.3754368000082,None,948.3754368000082,None,1,2.091751899992232,948.3754368000082,None,2.091751899992232,950.4897422000067,None,950.9950607000064,None,950.9950607000064,None,n,1.544306099996902,950.9950607000064,None,1.544306099996902,,,Aloud17,001,2022_Aug_05_1515,ProdSingRedoBetween,2021.2.3,59.88511639286038,
,,,,67,0,67,0,,,,,,,,,,,,,,,,,,,,,,959.6311147000088,None,,,,,,,,,,,,,,,,,medicine,170,68,aloud,new,null,953.0657652000082,None,953.0657652000082,None,1,5.305607999995118,953.0657652000082,None,5.305607999995118,958.4009292000119,None,958.9155819000007,None,958.9155819000007,None,n,0.6957337999920128,958.9155819000007,None,0.6957337999920128,,,Aloud17,001,2022_Aug_05_1515,ProdSingRedoBetween,2021.2.3,59.88511639286038,
,,,,68,0,68,0,,,,,,,,,,,,,,,,,,,,,,963.1013262000051,None,,,,,,,,,,,,,,,,,theme,144,69,aloud,new,null,960.1316884000116,None,960.1316884000116,None,1,1.815701600004104,960.1316884000116,None,1.815701600004104,961.9714101999998,None,962.4841753000073,None,962.4841753000073,None,n,0.5990105999953812,962.4841753000073,None,0.5990105999953812,,,Aloud17,001,2022_Aug_05_1515,ProdSingRedoBetween,2021.2.3,59.88511639286038,
,,,,69,0,69,0,,,,,,,,,,,,,,,,,,,,,,976.0808157000138,None,,,,,,,,,,,,,,,,,general,7,70,aloud,old,yellow,963.6018164000125,None,963.6018164000125,None,2,11.1854253999918,963.6018164000125,None,11.1854253999918,974.8138557000057,None,975.3200627000042,None,975.3200627000042,None,n,0.7311909999989439,975.3200627000042,None,0.7311909999989439,,,Aloud17,001,2022_Aug_05_1515,ProdSingRedoBetween,2021.2.3,59.88511639286038,
,,,,70,0,70,0,,,,,,,,,,,,,,,,,,,,,,982.171505300008,None,,,,,,,,,,,,,,,,,escape,51,71,aloud,old,blue,976.5917842000053,None,976.5917842000053,None,4,3.6674181999987923,976.5917842000053,None,3.6674181999987923,980.2870116000122,None,980.8025152000046,None,980.8025152000046,None,f,1.3529484000027878,980.8025152000046,None,1.3529484000027878,,,Aloud17,001,2022_Aug_05_1515,ProdSingRedoBetween,2021.2.3,59.88511639286038,
,,,,71,0,71,0,,,,,,,,,,,,,,,,,,,,,,988.1596553000127,None,,,,,,,,,,,,,,,,,speech,159,72,aloud,new,null,982.6787689000048,None,982.6787689000048,None,4,4.300525300001027,982.6787689000048,None,4.300525300001027,987.0094001000107,None,987.5165369000024,None,987.5165369000024,None,f,0.6147586000006413,987.5165369000024,None,0.6147586000006413,,,Aloud17,001,2022_Aug_05_1515,ProdSingRedoBetween,2021.2.3,59.88511639286038,
,,,,72,0,72,0,,,,,,,,,,,,,,,,,,,,,,995.3701725000137,None,,,,,,,,,,,,,,,,,title,0,73,aloud,old,yellow,988.6615294000076,None,988.6615294000076,None,1,5.5338058000052115,988.6615294000076,None,5.5338058000052115,994.2204553000047,None,994.733009500007,None,994.733009500007,None,n,0.6144413000001805,994.733009500007,None,0.6144413000001805,,,Aloud17,001,2022_Aug_05_1515,ProdSingRedoBetween,2021.2.3,59.88511639286038,
,,,,73,0,73,0,,,,,,,,,,,,,,,,,,,,,,998.9871434000088,None,,,,,,,,,,,,,,,,,review,54,74,aloud,old,blue,995.8903856000106,None,995.8903856000106,None,1,1.712965600003372,995.8903856000106,None,1.712965600003372,997.6291625000013,None,998.137893600011,None,998.137893600011,None,n,0.8333703999960562,998.137893600011,None,0.8333703999960562,,,Aloud17,001,2022_Aug_05_1515,ProdSingRedoBetween,2021.2.3,59.88511639286038,
,,,,74,0,74,0,,,,,,,,,,,,,,,,,,,,,,1004.8262242000055,None,,,,,,,,,,,,,,,,,graduate,9,75,aloud,old,yellow,999.496223500013,None,999.496223500013,None,6,2.827052199994796,999.496223500013,None,2.827052199994796,1002.3405533000041,None,1002.8430183000019,None,1002.8430183000019,None,r,1.9522427999909269,1002.8430183000019,None,1.9522427999909269,,,Aloud17,001,2022_Aug_05_1515,ProdSingRedoBetween,2021.2.3,59.88511639286038,
,,,,75,0,75,0,,,,,,,,,,,,,,,,,,,,,,1008.9302515000018,None,,,,,,,,,,,,,,,,,right,132,76,aloud,new,null,1005.3329488000018,None,1005.3329488000018,None,1,2.310202799999388,1005.3329488000018,None,2.310202799999388,1007.6629040000116,None,1008.1630195000034,None,1008.1630195000034,None,n,0.7364306000090437,1008.1630195000034,None,0.7364306000090437,,,Aloud17,001,2022_Aug_05_1515,ProdSingRedoBetween,2021.2.3,59.88511639286038,
,,,,76,0,76,0,,,,,,,,,,,,,,,,,,,,,,1018.0227842000022,None,,,,,,,,,,,,,,,,,chief,24,77,aloud,old,yellow,1009.4399533000105,None,1009.4399533000105,None,4,7.379443500001798,1009.4399533000105,None,7.379443500001798,1016.8460066000116,None,1017.3560519000021,None,1017.3560519000021,None,f,0.6391030999948271,1017.3560519000021,None,0.6391030999948271,,,Aloud17,001,2022_Aug_05_1515,ProdSingRedoBetween,2021.2.3,59.88511639286038,
,,,,77,0,77,0,,,,,,,,,,,,,,,,,,,,,,1022.9777002000046,None,,,,,,,,,,,,,,,,,present,23,78,aloud,old,yellow,1018.5308472000033,None,1018.5308472000033,None,6,2.7923661999957403,1018.5308472000033,None,2.7923661999957403,1021.3439445000113,None,1021.8480526000058,None,1021.8480526000058,None,f,1.099271899991436,1021.8480526000058,None,1.099271899991436,,,Aloud17,001,2022_Aug_05_1515,ProdSingRedoBetween,2021.2.3,59.88511639286038,
,,,,78,0,78,0,,,,,,,,,,,,,,,,,,,,,,1027.5655582000036,None,,,,,,,,,,,,,,,,,nature,31,79,aloud,old,blue,1023.4860262000002,None,1023.4860262000002,None,1,3.0291036999988137,1023.4860262000002,None,3.0291036999988137,1026.5312020000129,None,1027.0357768000104,None,1027.0357768000104,None,n,0.5114373999967938,1027.0357768000104,None,0.5114373999967938,,,Aloud17,001,2022_Aug_05_1515,ProdSingRedoBetween,2021.2.3,59.88511639286038,
,,,,79,0,79,0,,,,,,,,,,,,,,,,,,,,,,1030.735402700011,None,,,,,,,,,,,,,,,,,smooth,62,80,aloud,old,red,1028.075682900002,None,1028.075682900002,None,1,1.5277415000018664,1028.075682900002,None,1.5277415000018664,1029.6450057000038,None,1030.1516760000086,None,1030.1516760000086,None,n,0.5555396999989171,1030.1516760000086,None,0.5555396999989171,,,Aloud17,001,2022_Aug_05_1515,ProdSingRedoBetween,2021.2.3,59.88511639286038,
,,,,80,0,80,0,,,,,,,,,,,,,,,,,,,,,,1034.8728327000135,None,,,,,,,,,,,,,,,,,debate,105,81,aloud,new,null,1031.242480800007,None,1031.242480800007,None,6,2.4248339000041597,1031.242480800007,None,2.4248339000041597,1033.6978305000084,None,1034.205754300012,None,1034.205754300012,None,f,0.6454586999898311,1034.205754300012,None,0.6454586999898311,,,Aloud17,001,2022_Aug_05_1515,ProdSingRedoBetween,2021.2.3,59.88511639286038,
,,,,81,0,81,0,,,,,,,,,,,,,,,,,,,,,,1040.1281363000016,None,,,,,,,,,,,,,,,,,finish,79,82,aloud,old,red,1035.3815302000003,None,1035.3815302000003,None,1,3.413910899995244,1035.3815302000003,None,3.413910899995244,1038.8355026000063,None,1039.3460525000119,None,1039.3460525000119,None,n,0.7611329999926966,1039.3460525000119,None,0.7611329999926966,,,Aloud17,001,2022_Aug_05_1515,ProdSingRedoBetween,2021.2.3,59.88511639286038,
,,,,82,0,82,0,,,,,,,,,,,,,,,,,,,,,,1045.4834438000107,None,,,,,,,,,,,,,,,,,corner,104,83,aloud,new,null,1040.6373062000057,None,1040.6373062000057,None,1,3.2219665000011446,1040.6373062000057,None,3.2219665000011446,1043.8991736000025,None,1044.400888700009,None,1044.400888700009,None,n,1.0583722000010312,1044.400888700009,None,1.0583722000010312,,,Aloud17,001,2022_Aug_05_1515,ProdSingRedoBetween,2021.2.3,59.88511639286038,
,,,,83,0,83,0,,,,,,,,,,,,,,,,,,,,,,1048.369699700008,None,,,,,,,,,,,,,,,,,beginning,37,84,aloud,old,blue,1046.0002991000074,None,1046.0002991000074,None,1,1.4828816000081133,1046.0002991000074,None,1.4828816000081133,1047.5040399999998,None,1048.0216404000093,None,1048.0216404000093,None,n,0.3255406999960542,1048.0216404000093,None,0.3255406999960542,,,Aloud17,001,2022_Aug_05_1515,ProdSingRedoBetween,2021.2.3,59.88511639286038,
,,,,84,0,84,0,,,,,,,,,,,,,,,,,,,,,,1050.8418897000083,None,,,,,,,,,,,,,,,,,strain,77,85,aloud,old,red,1048.873351000002,None,1048.873351000002,None,1,1.185989999998128,1048.873351000002,None,1.185989999998128,1050.0953919000021,None,1050.610576200008,None,1050.610576200008,None,n,0.2087392999965232,1050.610576200008,None,0.2087392999965232,,,Aloud17,001,2022_Aug_05_1515,ProdSingRedoBetween,2021.2.3,59.88511639286038,
,,,,85,0,85,0,,,,,,,,,,,,,,,,,,,,,,1056.5278004000138,None,,,,,,,,,,,,,,,,,management,146,86,aloud,new,null,1051.3669399000064,None,1051.3669399000064,None,6,3.3723289000045042,1051.3669399000064,None,3.3723289000045042,1054.7619214000006,None,1055.2790724000079,None,1055.2790724000079,None,f,1.2280965999962064,1055.2790724000079,None,1.2280965999962064,,,Aloud17,001,2022_Aug_05_1515,ProdSingRedoBetween,2021.2.3,59.88511639286038,
,,,,86,0,86,0,,,,,,,,,,,,,,,,,,,,,,1060.6319250000088,None,,,,,,,,,,,,,,,,,quantity,64,87,aloud,old,red,1057.037813300005,None,1057.037813300005,None,1,1.9814275999960955,1057.037813300005,None,1.9814275999960955,1059.052962200003,None,1059.5670727000106,None,1059.5670727000106,None,n,1.0361205999943195,1059.5670727000106,None,1.0361205999943195,,,Aloud17,001,2022_Aug_05_1515,ProdSingRedoBetween,2021.2.3,59.88511639286038,
,,,,87,0,87,0,,,,,,,,,,,,,,,,,,,,,,1065.970518800008,None,,,,,,,,,,,,,,,,,south,85,88,aloud,old,red,1061.141874500012,None,1061.141874500012,None,6,2.4373361000034492,1061.141874500012,None,2.4373361000034492,1063.6051557000028,None,1064.1203387000132,None,1064.1203387000132,None,r,1.8268148999923142,1064.1203387000132,None,1.8268148999923142,,,Aloud17,001,2022_Aug_05_1515,ProdSingRedoBetween,2021.2.3,59.88511639286038,
,,,,88,0,88,0,,,,,,,,,,,,,,,,,,,,,,1070.5931015000097,None,,,,,,,,,,,,,,,,,touch,175,89,aloud,new,null,1066.478219800003,None,1066.478219800003,None,1,2.9570765999960713,1066.478219800003,None,2.9570765999960713,1069.4620752000046,None,1069.9747602000134,None,1069.9747602000134,None,n,0.5885627999959979,1069.9747602000134,None,0.5885627999959979,,,Aloud17,001,2022_Aug_05_1515,ProdSingRedoBetween,2021.2.3,59.88511639286038,
,,,,89,0,89,0,,,,,,,,,,,,,,,,,,,,,,1081.219084700002,None,,,,,,,,,,,,,,,,,write,103,90,aloud,new,null,1071.102240600012,None,1071.102240600012,None,3,7.660911800005124,1071.102240600012,None,7.660911800005124,1078.7845640000014,None,1079.2840626000107,None,1079.2840626000107,None,n,1.9110741000040434,1079.2840626000107,None,1.9110741000040434,,,Aloud17,001,2022_Aug_05_1515,ProdSingRedoBetween,2021.2.3,59.88511639286038,
,,,,90,0,90,0,,,,,,,,,,,,,,,,,,,,,,1084.9061428000132,None,,,,,,,,,,,,,,,,,pattern,28,91,aloud,old,yellow,1081.7270174000005,None,1081.7270174000005,None,1,2.0601172000024235,1081.7270174000005,None,2.0601172000024235,1083.8063190000103,None,1084.3111008000124,None,1084.3111008000124,None,n,0.563949400006095,1084.3111008000124,None,0.563949400006095,,,Aloud17,001,2022_Aug_05_1515,ProdSingRedoBetween,2021.2.3,59.88511639286038,
,,,,91,0,91,0,,,,,,,,,,,,,,,,,,,,,,1093.4814352000103,None,,,,,,,,,,,,,,,,,material,150,92,aloud,new,null,1085.4189572000032,None,1085.4189572000032,None,2,6.7361629999941215,1085.4189572000032,None,6.7361629999941215,1092.1808496000012,None,1092.680763700002,None,1092.680763700002,None,n,0.7704169000062393,1092.680763700002,None,0.7704169000062393,,,Aloud17,001,2022_Aug_05_1515,ProdSingRedoBetween,2021.2.3,59.88511639286038,
,,,,92,0,92,0,,,,,,,,,,,,,,,,,,,,,,1097.1682481000025,None,,,,,,,,,,,,,,,,,election,126,93,aloud,new,null,1093.9960186000098,None,1093.9960186000098,None,1,1.7671493000088958,1093.9960186000098,None,1.7671493000088958,1095.783702300003,None,1096.2897961000126,None,1096.2897961000126,None,n,0.8491855000029318,1096.2897961000126,None,0.8491855000029318,,,Aloud17,001,2022_Aug_05_1515,ProdSingRedoBetween,2021.2.3,59.88511639286038,
,,,,93,0,93,0,,,,,,,,,,,,,,,,,,,,,,1100.0211508000066,None,,,,,,,,,,,,,,,,,impact,149,94,aloud,new,null,1097.6701246000011,None,1097.6701246000011,None,1,1.3729345999890938,1097.6701246000011,None,1.3729345999890938,1099.0711721000116,None,1099.5767884000088,None,1099.5767884000088,None,n,0.42641110000840854,1099.5767884000088,None,0.42641110000840854,,,Aloud17,001,2022_Aug_05_1515,ProdSingRedoBetween,2021.2.3,59.88511639286038,
,,,,94,0,94,0,,,,,,,,,,,,,,,,,,,,,,1104.559193100009,None,,,,,,,,,,,,,,,,,heavy,80,95,aloud,old,red,1100.5285756000085,None,1100.5285756000085,None,1,2.41861739999149,1100.5285756000085,None,2.41861739999149,1102.9819480000006,None,1103.4936306000018,None,1103.4936306000018,None,n,1.037440100000822,1103.4936306000018,None,1.037440100000822,,,Aloud17,001,2022_Aug_05_1515,ProdSingRedoBetween,2021.2.3,59.88511639286038,
,,,,95,0,95,0,,,,,,,,,,,,,,,,,,,,,,1116.3707785000006,None,,,,,,,,,,,,,,,,,cover,114,96,aloud,new,null,1105.062616700001,None,1105.062616700001,None,3,7.396484500000952,1105.062616700001,None,7.396484500000952,1112.4848509000003,None,1112.9879022000096,None,1112.9879022000096,None,n,3.3592435000027763,1112.9879022000096,None,3.3592435000027763,,,Aloud17,001,2022_Aug_05_1515,ProdSingRedoBetween,2021.2.3,59.88511639286038,
,,,,96,0,96,0,,,,,,,,,,,,,,,,,,,,,,1119.1403635000024,None,,,,,,,,,,,,,,,,,partner,52,97,aloud,old,blue,1116.8790606000111,None,1116.8790606000111,None,1,1.4680138999974588,1116.8790606000111,None,1.4680138999974588,1118.3740568000067,None,1118.881259700007,None,1118.881259700007,None,n,0.2418755999970017,1118.881259700007,None,0.2418755999970017,,,Aloud17,001,2022_Aug_05_1515,ProdSingRedoBetween,2021.2.3,59.88511639286038,
,,,,97,0,97,0,,,,,,,,,,,,,,,,,,,,,,1122.4116907000134,None,,,,,,,,,,,,,,,,,working,145,98,aloud,new,null,1119.645416600004,None,1119.645416600004,None,1,1.7657046999956947,1119.645416600004,None,1.7657046999956947,1121.4282158999995,None,1121.9524748000113,None,1121.9524748000113,None,n,0.4346800999919651,1121.9524748000113,None,0.4346800999919651,,,Aloud17,001,2022_Aug_05_1515,ProdSingRedoBetween,2021.2.3,59.88511639286038,
,,,,98,0,98,0,,,,,,,,,,,,,,,,,,,,,,1126.4809412000031,None,,,,,,,,,,,,,,,,,entrance,106,99,aloud,new,null,1122.9188616000029,None,1122.9188616000029,None,1,2.060261899998295,1122.9188616000029,None,2.060261899998295,1124.9984650000115,None,1125.5134568000067,None,1125.5134568000067,None,n,0.9456389999977546,1125.5134568000067,None,0.9456389999977546,,,Aloud17,001,2022_Aug_05_1515,ProdSingRedoBetween,2021.2.3,59.88511639286038,
,,,,99,0,99,0,,,,,,,,,,,,,,,,,,,,,,1131.1355657000095,None,,,,,,,,,,,,,,,,,appeal,19,100,aloud,old,yellow,1126.9902549000108,None,1126.9902549000108,None,1,2.9648214999906486,1126.9902549000108,None,2.9648214999906486,1129.9854625000007,None,1130.4914467000053,None,1130.4914467000053,None,n,0.6156847999955062,1130.4914467000053,None,0.6156847999955062,,,Aloud17,001,2022_Aug_05_1515,ProdSingRedoBetween,2021.2.3,59.88511639286038,
,,,,100,0,100,0,,,,,,,,,,,,,,,,,,,,,,1136.125257000007,None,,,,,,,,,,,,,,,,,member,148,101,aloud,new,null,1131.6411461000098,None,1131.6411461000098,None,1,3.0258640000101877,1131.6411461000098,None,3.0258640000101877,1134.6894054000004,None,1135.1898636000114,None,1135.1898636000114,None,n,0.9172548999922583,1135.1898636000114,None,0.9172548999922583,,,Aloud17,001,2022_Aug_05_1515,ProdSingRedoBetween,2021.2.3,59.88511639286038,
,,,,101,0,101,0,,,,,,,,,,,,,,,,,,,,,,1141.0620400000043,None,,,,,,,,,,,,,,,,,stranger,91,102,aloud,new,null,1136.6287715000071,None,1136.6287715000071,None,1,1.8382223000080558,1136.6287715000071,None,1.8382223000080558,1138.4950006,None,1139.0156753000047,None,1139.0156753000047,None,n,2.019336100012879,1139.0156753000047,None,2.019336100012879,,,Aloud17,001,2022_Aug_05_1515,ProdSingRedoBetween,2021.2.3,59.88511639286038,
,,,,102,0,102,0,,,,,,,,,,,,,,,,,,,,,,1145.917142300008,None,,,,,,,,,,,,,,,,,column,36,103,aloud,old,blue,1141.5628186000104,None,1141.5628186000104,None,1,3.43243290000828,1141.5628186000104,None,3.43243290000828,1145.0274949000013,None,1145.5360849000135,None,1145.5360849000135,None,n,0.3630203999928199,1145.5360849000135,None,0.3630203999928199,,,Aloud17,001,2022_Aug_05_1515,ProdSingRedoBetween,2021.2.3,59.88511639286038,
,,,,103,0,103,0,,,,,,,,,,,,,,,,,,,,,,1150.3548796000105,None,,,,,,,,,,,,,,,,,pretty,15,104,aloud,old,yellow,1146.423929200013,None,1146.423929200013,None,6,2.4350795000063954,1146.423929200013,None,2.4350795000063954,1148.8875141000026,None,1149.387275400004,None,1149.387275400004,None,f,0.9516905000054976,1149.387275400004,None,0.9516905000054976,,,Aloud17,001,2022_Aug_05_1515,ProdSingRedoBetween,2021.2.3,59.88511639286038,
,,,,104,0,104,0,,,,,,,,,,,,,,,,,,,,,,1153.3911478000082,None,,,,,,,,,,,,,,,,,passage,20,105,aloud,old,yellow,1150.8737253,None,1150.8737253,None,1,1.5854512000078103,1150.8737253,None,1.5854512000078103,1152.4928623000014,None,1153.0112573000079,None,1153.0112573000079,None,n,0.35189410000748467,1153.0112573000079,None,0.35189410000748467,,,Aloud17,001,2022_Aug_05_1515,ProdSingRedoBetween,2021.2.3,59.88511639286038,
,,,,105,0,105,0,,,,,,,,,,,,,,,,,,,,,,1157.87886360001,None,,,,,,,,,,,,,,,,,congress,115,106,aloud,new,null,1153.8967925000034,None,1153.8967925000034,None,6,2.994318700002623,1153.8967925000034,None,2.994318700002623,1156.9176377000113,None,1157.4286066000059,None,1157.4286066000059,None,f,0.4303682000027038,1157.4286066000059,None,0.4303682000027038,,,Aloud17,001,2022_Aug_05_1515,ProdSingRedoBetween,2021.2.3,59.88511639286038,
,,,,106,0,106,0,,,,,,,,,,,,,,,,,,,,,,1161.055600000007,None,,,,,,,,,,,,,,,,,crowd,83,107,aloud,old,red,1158.3886507999996,None,1158.3886507999996,None,1,1.7265623999992386,1158.3886507999996,None,1.7265623999992386,1160.1404570000013,None,1160.6518294000125,None,1160.6518294000125,None,n,0.37579740000364836,1160.6518294000125,None,0.37579740000364836,,,Aloud17,001,2022_Aug_05_1515,ProdSingRedoBetween,2021.2.3,59.88511639286038,
,,,,107,0,107,0,,,,,,,,,,,,,,,,,,,,,,1163.8515609000024,None,,,,,,,,,,,,,,,,,phrase,60,108,aloud,old,red,1161.574438200012,None,1161.574438200012,None,1,1.3886150999896927,1161.574438200012,None,1.3886150999896927,1162.9853486000065,None,1163.49096000001,None,1163.49096000001,None,n,0.34410480000951793,1163.49096000001,None,0.34410480000951793,,,Aloud17,001,2022_Aug_05_1515,ProdSingRedoBetween,2021.2.3,59.88511639286038,
,,,,108,0,108,0,,,,,,,,,,,,,,,,,,,,,,1168.5231522000104,None,,,,,,,,,,,,,,,,,state,120,109,aloud,new,null,1164.3552747000067,None,1164.3552747000067,None,2,3.1836608000012347,1164.3552747000067,None,3.1836608000012347,1167.5564687000006,None,1168.055928700007,None,1168.055928700007,None,n,0.4509992999956012,1168.055928700007,None,0.4509992999956012,,,Aloud17,001,2022_Aug_05_1515,ProdSingRedoBetween,2021.2.3,59.88511639286038,
,,,,109,0,109,0,,,,,,,,,,,,,,,,,,,,,,1171.6760772000125,None,,,,,,,,,,,,,,,,,captain,173,110,aloud,new,null,1169.033482800005,None,1169.033482800005,None,1,1.3696129000018118,1169.033482800005,None,1.3696129000018118,1170.4296961000073,None,1170.945309600007,None,1170.945309600007,None,n,0.7058007000014186,1170.945309600007,None,0.7058007000014186,,,Aloud17,001,2022_Aug_05_1515,ProdSingRedoBetween,2021.2.3,59.88511639286038,
,,,,110,0,110,0,,,,,,,,,,,,,,,,,,,,,,1174.3318466000055,None,,,,,,,,,,,,,,,,,bicycle,139,111,aloud,new,null,1172.1873128000007,None,1172.1873128000007,None,1,1.1596629999985453,1172.1873128000007,None,1.1596629999985453,1173.3825063000113,None,1173.898790200008,None,1173.898790200008,None,n,0.40838809999695513,1173.898790200008,None,0.40838809999695513,,,Aloud17,001,2022_Aug_05_1515,ProdSingRedoBetween,2021.2.3,59.88511639286038,
,,,,111,0,111,0,,,,,,,,,,,,,,,,,,,,,,1178.533086200012,None,,,,,,,,,,,,,,,,,front,162,112,aloud,new,null,1174.8493087000097,None,1174.8493087000097,None,1,2.6657534999976633,1174.8493087000097,None,2.6657534999976633,1177.5345206000056,None,1178.0493029000063,None,1178.0493029000063,None,n,0.4656371000019135,1178.0493029000063,None,0.4656371000019135,,,Aloud17,001,2022_Aug_05_1515,ProdSingRedoBetween,2021.2.3,59.88511639286038,
,,,,112,0,112,0,,,,,,,,,,,,,,,,,,,,,,1181.719527600013,None,,,,,,,,,,,,,,,,,whole,10,113,aloud,old,yellow,1179.0386153,None,1179.0386153,None,6,1.580361799991806,1179.0386153,None,1.580361799991806,1180.6362993000075,None,1181.1424333000032,None,1181.1424333000032,None,f,0.5486887000006391,1181.1424333000032,None,0.5486887000006391,,,Aloud17,001,2022_Aug_05_1515,ProdSingRedoBetween,2021.2.3,59.88511639286038,
,,,,113,0,113,0,,,,,,,,,,,,,,,,,,,,,,1184.5722875000065,None,,,,,,,,,,,,,,,,,region,157,114,aloud,new,null,1182.2310622000077,None,1182.2310622000077,None,1,1.491977500001667,1182.2310622000077,None,1.491977500001667,1183.7390701000113,None,1184.2422928000015,None,1184.2422928000015,None,n,0.31272180000087246,1184.2422928000015,None,0.31272180000087246,,,Aloud17,001,2022_Aug_05_1515,ProdSingRedoBetween,2021.2.3,59.88511639286038,
,,,,114,0,114,0,,,,,,,,,,,,,,,,,,,,,,1195.900609400007,None,,,,,,,,,,,,,,,,,machinery,12,115,aloud,old,yellow,1185.0832175000105,None,1185.0832175000105,None,5,7.743783100013388,1185.0832175000105,None,7.743783100013388,1192.8486910000065,None,1193.3534445000114,None,1193.3534445000114,None,f,2.5217583999910858,1193.3534445000114,None,2.5217583999910858,,,Aloud17,001,2022_Aug_05_1515,ProdSingRedoBetween,2021.2.3,59.88511639286038,
,,,,115,0,115,0,,,,,,,,,,,,,,,,,,,,,,1199.1544203000085,None,,,,,,,,,,,,,,,,,store,34,116,aloud,old,blue,1196.4037705000082,None,1196.4037705000082,None,1,1.5833425000018906,1196.4037705000082,None,1.5833425000018906,1198.0100649000087,None,1198.5196922000032,None,1198.5196922000032,None,n,0.6034194999956526,1198.5196922000032,None,0.6034194999956526,,,Aloud17,001,2022_Aug_05_1515,ProdSingRedoBetween,2021.2.3,59.88511639286038,
,,,,116,0,116,0,,,,,,,,,,,,,,,,,,,,,,1202.1079794000107,None,,,,,,,,,,,,,,,,,minute,113,117,aloud,new,null,1199.6571559000004,None,1199.6571559000004,None,1,1.3218341000028886,1199.6571559000004,None,1.3218341000028886,1201.0119427000027,None,1201.522735800012,None,1201.522735800012,None,n,0.5603924000024563,1201.522735800012,None,0.5603924000024563,,,Aloud17,001,2022_Aug_05_1515,ProdSingRedoBetween,2021.2.3,59.88511639286038,
,,,,117,0,117,0,,,,,,,,,,,,,,,,,,,,,,1207.1446716000064,None,,,,,,,,,,,,,,,,,opening,147,118,aloud,new,null,1202.6126220000006,None,1202.6126220000006,None,1,3.574293099998613,1202.6126220000006,None,3.574293099998613,1206.2156415000063,None,1206.7277200000099,None,1206.7277200000099,None,n,0.38720979999925476,1206.7277200000099,None,0.38720979999925476,,,Aloud17,001,2022_Aug_05_1515,ProdSingRedoBetween,2021.2.3,59.88511639286038,
,,,,118,0,118,0,,,,,,,,,,,,,,,,,,,,,,1211.465818800003,None,,,,,,,,,,,,,,,,,discussion,131,119,aloud,new,null,1207.646134300012,None,1207.646134300012,None,1,2.4049560999992536,1207.646134300012,None,2.4049560999992536,1210.0932089000125,None,1210.6047330000001,None,1210.6047330000001,None,n,0.8382621000055224,1210.6047330000001,None,0.8382621000055224,,,Aloud17,001,2022_Aug_05_1515,ProdSingRedoBetween,2021.2.3,59.88511639286038,
,,,,119,0,119,0,,,,,,,,,,,,,,,,,,,,,,1222.560168600001,None,,,,,,,,,,,,,,,,,position,108,120,aloud,new,null,1211.970167300009,None,1211.970167300009,None,1,8.721016499999678,1211.970167300009,None,8.721016499999678,1220.7167819000024,None,1221.2275676000136,None,1221.2275676000136,None,n,1.3114486999984365,1221.2275676000136,None,1.3114486999984365,,,Aloud17,001,2022_Aug_05_1515,ProdSingRedoBetween,2021.2.3,59.88511639286038,
,,,,120,0,120,0,,,,,,,,,,,,,,,,,,,,,,1229.5004190000036,None,,,,,,,,,,,,,,,,,close,75,121,aloud,old,red,1223.0685496000078,None,1223.0685496000078,None,6,5.3344200999999885,1223.0685496000078,None,5.3344200999999885,1228.4335317000077,None,1228.939672700013,None,1228.939672700013,None,f,0.5433363000047393,1228.939672700013,None,0.5433363000047393,,,Aloud17,001,2022_Aug_05_1515,ProdSingRedoBetween,2021.2.3,59.88511639286038,
,,,,121,0,121,0,,,,,,,,,,,,,,,,,,,,,,1241.362375800003,None,,,,,,,,,,,,,,,,,history,123,122,aloud,new,null,1230.0047166000004,None,1230.0047166000004,None,2,7.062264599997434,1230.0047166000004,None,7.062264599997434,1237.093425900006,None,1237.6086582999997,None,1237.6086582999997,None,n,3.730336599997827,1237.6086582999997,None,3.730336599997827,,,Aloud17,001,2022_Aug_05_1515,ProdSingRedoBetween,2021.2.3,59.88511639286038,
,,,,122,0,122,0,,,,,,,,,,,,,,,,,,,,,,1245.3830260000104,None,,,,,,,,,,,,,,,,,music,116,123,aloud,new,null,1241.8698693000042,None,1241.8698693000042,None,1,2.4289973999984795,1241.8698693000042,None,2.4289973999984795,1244.3164252999995,None,1244.8198469000054,None,1244.8198469000054,None,n,0.5350957999908132,1244.8198469000054,None,0.5350957999908132,,,Aloud17,001,2022_Aug_05_1515,ProdSingRedoBetween,2021.2.3,59.88511639286038,
,,,,123,0,123,0,,,,,,,,,,,,,,,,,,,,,,1249.954178400003,None,,,,,,,,,,,,,,,,,design,128,124,aloud,new,null,1245.893722400011,None,1245.893722400011,None,1,2.6292009000026155,1245.893722400011,None,2.6292009000026155,1248.5537648000027,None,1249.057693900002,None,1249.057693900002,None,n,0.8811713000031887,1249.057693900002,None,0.8811713000031887,,,Aloud17,001,2022_Aug_05_1515,ProdSingRedoBetween,2021.2.3,59.88511639286038,
,,,,124,0,124,0,,,,,,,,,,,,,,,,,,,,,,1254.458701800002,None,,,,,,,,,,,,,,,,,narrow,48,125,aloud,old,blue,1250.4619474000065,None,1250.4619474000065,None,1,1.59697430000233,1250.4619474000065,None,1.59697430000233,1252.0905845000088,None,1252.5903763000097,None,1252.5903763000097,None,n,1.8526247999980114,1252.5903763000097,None,1.8526247999980114,,,Aloud17,001,2022_Aug_05_1515,ProdSingRedoBetween,2021.2.3,59.88511639286038,
,,,,125,0,125,0,,,,,,,,,,,,,,,,,,,,,,1259.2300837000075,None,,,,,,,,,,,,,,,,,shape,76,126,aloud,old,red,1254.9759317000135,None,1254.9759317000135,None,1,3.1950058999937028,1254.9759317000135,None,3.1950058999937028,1258.2175102000037,None,1258.7298160000064,None,1258.7298160000064,None,n,0.4811696000106167,1258.7298160000064,None,0.4811696000106167,,,Aloud17,001,2022_Aug_05_1515,ProdSingRedoBetween,2021.2.3,59.88511639286038,
,,,,126,0,126,0,,,,,,,,,,,,,,,,,,,,,,1268.3897326000006,None,,,,,,,,,,,,,,,,,guide,155,127,aloud,new,null,1259.736703100003,None,1259.736703100003,None,1,7.20217990000674,1259.736703100003,None,7.20217990000674,1266.9554292000103,None,1267.455092300006,None,1267.455092300006,None,n,0.9157980000018142,1267.455092300006,None,0.9157980000018142,,,Aloud17,001,2022_Aug_05_1515,ProdSingRedoBetween,2021.2.3,59.88511639286038,
,,,,127,0,127,0,,,,,,,,,,,,,,,,,,,,,,1274.9957951000106,None,,,,,,,,,,,,,,,,,dozen,49,128,aloud,old,blue,1268.900758600008,None,1268.900758600008,None,1,5.1662896999914665,1268.900758600008,None,5.1662896999914665,1274.101911500009,None,1274.615602100006,None,1274.615602100006,None,n,0.3632976999942912,1274.615602100006,None,0.3632976999942912,,,Aloud17,001,2022_Aug_05_1515,ProdSingRedoBetween,2021.2.3,59.88511639286038,
,,,,128,0,128,0,,,,,,,,,,,,,,,,,,,,,,1278.5660590000043,None,,,,,,,,,,,,,,,,,staff,117,129,aloud,new,null,1275.5076886000024,None,1275.5076886000024,None,1,1.407236599989119,1275.5076886000024,None,1.407236599989119,1276.9373728000064,None,1277.4483548000135,None,1277.4483548000135,None,n,1.0985321999905864,1277.4483548000135,None,1.0985321999905864,,,Aloud17,001,2022_Aug_05_1515,ProdSingRedoBetween,2021.2.3,59.88511639286038,
,,,,129,0,129,0,,,,,,,,,,,,,,,,,,,,,,1287.7418603000115,None,,,,,,,,,,,,,,,,,distance,61,130,aloud,old,red,1279.0721268000052,None,1279.0721268000052,None,2,6.850972100000945,1279.0721268000052,None,6.850972100000945,1285.9440715000092,None,1286.4619845000125,None,1286.4619845000125,None,n,1.260926200004178,1286.4619845000125,None,1.260926200004178,,,Aloud17,001,2022_Aug_05_1515,ProdSingRedoBetween,2021.2.3,59.88511639286038,
,,,,130,0,130,0,,,,,,,,,,,,,,,,,,,,,,1290.5808355000045,None,,,,,,,,,,,,,,,,,couch,172,131,aloud,new,null,1288.2529593000072,None,1288.2529593000072,None,1,1.5659546999959275,1288.2529593000072,None,1.5659546999959275,1289.8441082000063,None,1290.3475363000034,None,1290.3475363000034,None,n,0.2154593000013847,1290.3475363000034,None,0.2154593000013847,,,Aloud17,001,2022_Aug_05_1515,ProdSingRedoBetween,2021.2.3,59.88511639286038,
,,,,131,0,131,0,,,,,,,,,,,,,,,,,,,,,,1293.4976210000023,None,,,,,,,,,,,,,,,,,period,124,132,aloud,new,null,1291.101238000003,None,1291.101238000003,None,1,1.501651700004004,1291.101238000003,None,1.501651700004004,1292.631125400003,None,1293.136229900003,None,1293.136229900003,None,n,0.3307137999945553,1293.136229900003,None,0.3307137999945553,,,Aloud17,001,2022_Aug_05_1515,ProdSingRedoBetween,2021.2.3,59.88511639286038,
,,,,132,0,132,0,,,,,,,,,,,,,,,,,,,,,,1302.2230240000063,None,,,,,,,,,,,,,,,,,error,86,133,aloud,old,red,1293.9981868000032,None,1293.9981868000032,None,5,6.940669500007061,1293.9981868000032,None,6.940669500007061,1300.9550531000132,None,1301.4580817000096,None,1301.4580817000096,None,f,0.7449630000046454,1301.4580817000096,None,0.7449630000046454,,,Aloud17,001,2022_Aug_05_1515,ProdSingRedoBetween,2021.2.3,59.88511639286038,
,,,,133,0,133,0,,,,,,,,,,,,,,,,,,,,,,1306.4439759000088,None,,,,,,,,,,,,,,,,,resistance,5,134,aloud,old,yellow,1302.7328790000029,None,1302.7328790000029,None,6,2.5659480999893276,1302.7328790000029,None,2.5659480999893276,1305.3269880000007,None,1305.826844700001,None,1305.826844700001,None,f,0.5921185999904992,1305.826844700001,None,0.5921185999904992,,,Aloud17,001,2022_Aug_05_1515,ProdSingRedoBetween,2021.2.3,59.88511639286038,
,,,,134,0,134,0,,,,,,,,,,,,,,,,,,,,,,1309.5969982000097,None,,,,,,,,,,,,,,,,,story,46,135,aloud,old,blue,1306.9539688000077,None,1306.9539688000077,None,1,1.7529111000039848,1306.9539688000077,None,1.7529111000039848,1308.73087330001,None,1309.234245300002,None,1309.234245300002,None,n,0.34463680000044405,1309.234245300002,None,0.34463680000044405,,,Aloud17,001,2022_Aug_05_1515,ProdSingRedoBetween,2021.2.3,59.88511639286038,
,,,,135,0,135,0,,,,,,,,,,,,,,,,,,,,,,1312.4998845000082,None,,,,,,,,,,,,,,,,,background,112,136,aloud,new,null,1310.1021195000067,None,1310.1021195000067,None,1,1.3727693999971962,1310.1021195000067,None,1.3727693999971962,1311.5002177999995,None,1311.9996465000004,None,1311.9996465000004,None,n,0.47526779999316204,1311.9996465000004,None,0.47526779999316204,,,Aloud17,001,2022_Aug_05_1515,ProdSingRedoBetween,2021.2.3,59.88511639286038,
,,,,136,0,136,0,,,,,,,,,,,,,,,,,,,,,,1316.570709800013,None,,,,,,,,,,,,,,,,,principal,55,137,aloud,old,blue,1313.0035568000021,None,1313.0035568000021,None,6,2.071288799998001,1313.0035568000021,None,2.071288799998001,1315.1045585000102,None,1315.625968200009,None,1315.625968200009,None,f,0.9289064000040526,1315.625968200009,None,0.9289064000040526,,,Aloud17,001,2022_Aug_05_1515,ProdSingRedoBetween,2021.2.3,59.88511639286038,
,,,,137,0,137,0,,,,,,,,,,,,,,,,,,,,,,1320.3244107000064,None,,,,,,,,,,,,,,,,,orchestra,8,138,aloud,old,yellow,1317.0851443000138,None,1317.0851443000138,None,6,2.325802899998962,1317.0851443000138,None,2.325802899998962,1319.4410458000057,None,1319.9500416000083,None,1319.9500416000083,None,f,0.3489858999964781,1319.9500416000083,None,0.3489858999964781,,,Aloud17,001,2022_Aug_05_1515,ProdSingRedoBetween,2021.2.3,59.88511639286038,
,,,,138,0,138,0,,,,,,,,,,,,,,,,,,,,,,1330.801512200007,None,,,,,,,,,,,,,,,,,capital,21,139,aloud,old,yellow,1320.828963500011,None,1320.828963500011,None,4,9.053896299999906,1320.828963500011,None,9.053896299999906,1329.901872900009,None,1330.401270500006,None,1330.401270500006,None,f,0.36964149998675566,1330.401270500006,None,0.36964149998675566,,,Aloud17,001,2022_Aug_05_1515,ProdSingRedoBetween,2021.2.3,59.88511639286038,
,,,,139,0,139,0,,,,,,,,,,,,,,,,,,,,,,1336.62386230001,None,,,,,,,,,,,,,,,,,burden,2,140,aloud,old,yellow,1331.3021564000082,None,1331.3021564000082,None,6,3.924603000006755,1331.3021564000082,None,3.924603000006755,1335.261796900013,None,1335.7733613000019,None,1335.7733613000019,None,f,0.8215950000012526,1335.7733613000019,None,0.8215950000012526,,,Aloud17,001,2022_Aug_05_1515,ProdSingRedoBetween,2021.2.3,59.88511639286038,
,,,,140,0,140,0,,,,,,,,,,,,,,,,,,,,,,1339.7938132000127,None,,,,,,,,,,,,,,,,,murder,138,141,aloud,new,null,1337.1474248000013,None,1337.1474248000013,None,1,1.8314123000018299,1337.1474248000013,None,1.8314123000018299,1339.010429700007,None,1339.5133332000114,None,1339.5133332000114,None,n,0.2575478000071598,1339.5133332000114,None,0.2575478000071598,,,Aloud17,001,2022_Aug_05_1515,ProdSingRedoBetween,2021.2.3,59.88511639286038,
,,,,141,0,141,0,,,,,,,,,,,,,,,,,,,,,,1342.965928900012,None,,,,,,,,,,,,,,,,,victory,63,142,aloud,old,red,1340.3017136000126,None,1340.3017136000126,None,1,1.725071000008029,1340.3017136000126,None,1.725071000008029,1342.047002300009,None,1342.5508471000066,None,1342.5508471000066,None,n,0.3962423999910243,1342.5508471000066,None,0.3962423999910243,,,Aloud17,001,2022_Aug_05_1515,ProdSingRedoBetween,2021.2.3,59.88511639286038,
,,,,142,0,142,0,,,,,,,,,,,,,,,,,,,,,,1346.8841742000077,None,,,,,,,,,,,,,,,,,nation,178,143,aloud,new,null,1343.4875634000055,None,1343.4875634000055,None,1,2.475302199993166,1343.4875634000055,None,2.475302199993166,1345.9842613000073,None,1346.4910503000137,None,1346.4910503000137,None,n,0.3757502999942517,1346.4910503000137,None,0.3757502999942517,,,Aloud17,001,2022_Aug_05_1515,ProdSingRedoBetween,2021.2.3,59.88511639286038,
,,,,143,0,143,0,,,,,,,,,,,,,,,,,,,,,,1350.3397622000048,None,,,,,,,,,,,,,,,,,harmony,41,144,aloud,old,blue,1347.3875977999996,None,1347.3875977999996,None,1,1.9835415999987163,1347.3875977999996,None,1.9835415999987163,1349.3918429000041,None,1349.9048907000106,None,1349.9048907000106,None,n,0.40196849999483675,1349.9048907000106,None,0.40196849999483675,,,Aloud17,001,2022_Aug_05_1515,ProdSingRedoBetween,2021.2.3,59.88511639286038,
,,,,144,0,144,0,,,,,,,,,,,,,,,,,,,,,,1353.3073564000078,None,,,,,,,,,,,,,,,,,plane,29,145,aloud,old,blue,1350.8602296000026,None,1350.8602296000026,None,1,1.3746404999983497,1350.8602296000026,None,1.3746404999983497,1352.256222400014,None,1352.7634502,None,1352.7634502,None,n,0.5193892000097549,1352.7634502,None,0.5193892000097549,,,Aloud17,001,2022_Aug_05_1515,ProdSingRedoBetween,2021.2.3,59.88511639286038,
,,,,145,0,145,0,,,,,,,,,,,,,,,,,,,,,,1356.1935139000125,None,,,,,,,,,,,,,,,,,property,110,146,aloud,new,null,1353.8181500000064,None,1353.8181500000064,None,1,1.3606262000103015,1353.8181500000064,None,1.3606262000103015,1355.2099832000094,None,1355.7164625000005,None,1355.7164625000005,None,n,0.4463897999958135,1355.7164625000005,None,0.4463897999958135,,,Aloud17,001,2022_Aug_05_1515,ProdSingRedoBetween,2021.2.3,59.88511639286038,
,,,,146,0,146,0,,,,,,,,,,,,,,,,,,,,,,1362.783446500005,None,,,,,,,,,,,,,,,,,community,93,147,aloud,new,null,1356.7048028999998,None,1356.7048028999998,None,2,4.186026499999571,1356.7048028999998,None,4.186026499999571,1360.9161709000036,None,1361.4252227000106,None,1361.4252227000106,None,n,1.3296408999885898,1361.4252227000106,None,1.3296408999885898,,,Aloud17,001,2022_Aug_05_1515,ProdSingRedoBetween,2021.2.3,59.88511639286038,
,,,,147,0,147,0,,,,,,,,,,,,,,,,,,,,,,1365.3526364999998,None,,,,,,,,,,,,,,,,,bright,176,148,aloud,new,null,1363.2853676000086,None,1363.2853676000086,None,1,1.157490700003109,1363.2853676000086,None,1.157490700003109,1364.4684818000096,None,1364.9733322000102,None,1364.9733322000102,None,n,0.3576264000002993,1364.9733322000102,None,0.3576264000002993,,,Aloud17,001,2022_Aug_05_1515,ProdSingRedoBetween,2021.2.3,59.88511639286038,
,,,,148,0,148,0,,,,,,,,,,,,,,,,,,,,,,1369.6569750000053,None,,,,,,,,,,,,,,,,,fellow,16,149,aloud,old,yellow,1365.8553186000063,None,1365.8553186000063,None,6,2.0514867000019876,1365.8553186000063,None,2.0514867000019876,1367.9421123000066,None,1368.4574494000117,None,1368.4574494000117,None,f,1.177390099997865,1368.4574494000117,None,1.177390099997865,,,Aloud17,001,2022_Aug_05_1515,ProdSingRedoBetween,2021.2.3,59.88511639286038,
,,,,149,0,149,0,,,,,,,,,,,,,,,,,,,,,,1375.4191862000007,None,,,,,,,,,,,,,,,,,silence,133,150,aloud,new,null,1370.1674271000084,None,1370.1674271000084,None,1,4.1393888000020524,1370.1674271000084,None,4.1393888000020524,1374.3295064000122,None,1374.8336243000085,None,1374.8336243000085,None,n,0.5533924999908777,1374.8336243000085,None,0.5533924999908777,,,Aloud17,001,2022_Aug_05_1515,ProdSingRedoBetween,2021.2.3,59.88511639286038,
,,,,150,0,150,0,,,,,,,,,,,,,,,,,,,,,,1378.7493512000074,None,,,,,,,,,,,,,,,,,society,134,151,aloud,new,null,1375.9397534000018,None,1375.9397534000018,None,1,1.81502239999827,1375.9397534000018,None,1.81502239999827,1377.782649300003,None,1378.2864127000066,None,1378.2864127000066,None,n,0.4444919999950798,1378.2864127000066,None,0.4444919999950798,,,Aloud17,001,2022_Aug_05_1515,ProdSingRedoBetween,2021.2.3,59.88511639286038,
,,,,151,0,151,0,,,,,,,,,,,,,,,,,,,,,,1391.8958113000117,None,,,,,,,,,,,,,,,,,vision,158,152,aloud,new,null,1379.2614912000136,None,1379.2614912000136,None,3,10.773266699994565,1379.2614912000136,None,10.773266699994565,1390.0621089000051,None,1390.5612606000068,None,1390.5612606000068,None,f,1.3055712999921525,1390.5612606000068,None,1.3055712999921525,,,Aloud17,001,2022_Aug_05_1515,ProdSingRedoBetween,2021.2.3,59.88511639286038,
,,,,152,0,152,0,,,,,,,,,,,,,,,,,,,,,,1394.3649600000062,None,,,,,,,,,,,,,,,,,trail,42,153,aloud,old,blue,1392.4054068000114,None,1392.4054068000114,None,1,1.1653250000090338,1392.4054068000114,None,1.1653250000090338,1393.5982420000073,None,1394.102295900011,None,1394.102295900011,None,n,0.2365239000064321,1394.102295900011,None,0.2365239000064321,,,Aloud17,001,2022_Aug_05_1515,ProdSingRedoBetween,2021.2.3,59.88511639286038,
,,,,153,0,153,0,,,,,,,,,,,,,,,,,,,,,,1397.421592300001,None,,,,,,,,,,,,,,,,,private,125,154,aloud,new,null,1394.8684905000118,None,1394.8684905000118,None,1,1.5423078000021633,1394.8684905000118,None,1.5423078000021633,1396.4361180000124,None,1396.9509628000087,None,1396.9509628000087,None,n,0.44371909998881165,1396.9509628000087,None,0.44371909998881165,,,Aloud17,001,2022_Aug_05_1515,ProdSingRedoBetween,2021.2.3,59.88511639286038,
,,,,154,0,154,0,,,,,,,,,,,,,,,,,,,,,,1401.0887561000127,None,,,,,,,,,,,,,,,,,religion,3,155,aloud,old,yellow,1397.9352486000134,None,1397.9352486000134,None,1,2.1474639999942156,1397.9352486000134,None,2.1474639999942156,1400.1078309000004,None,1400.62130720001,None,1400.62130720001,None,n,0.4374835000053281,1400.62130720001,None,0.4374835000053281,,,Aloud17,001,2022_Aug_05_1515,ProdSingRedoBetween,2021.2.3,59.88511639286038,
,,,,155,0,155,0,,,,,,,,,,,,,,,,,,,,,,1404.208057300013,None,,,,,,,,,,,,,,,,,agency,137,156,aloud,new,null,1401.5965042000025,None,1401.5965042000025,None,1,1.4463553999958094,1401.5965042000025,None,1.4463553999958094,1403.0831865000073,None,1403.5909780000075,None,1403.5909780000075,None,n,0.5878784000087762,1403.5909780000075,None,0.5878784000087762,,,Aloud17,001,2022_Aug_05_1515,ProdSingRedoBetween,2021.2.3,59.88511639286038,
,,,,156,0,156,0,,,,,,,,,,,,,,,,,,,,,,1408.512413400007,None,,,,,,,,,,,,,,,,,finance,68,157,aloud,old,red,1404.714311600008,None,1404.714311600008,None,6,2.6565613000129815,1404.714311600008,None,2.6565613000129815,1407.4006229000079,None,1407.9172535000107,None,1407.9172535000107,None,f,0.5656054999999469,1407.9172535000107,None,0.5656054999999469,,,Aloud17,001,2022_Aug_05_1515,ProdSingRedoBetween,2021.2.3,59.88511639286038,
,,,,157,0,157,0,,,,,,,,,,,,,,,,,,,,,,1413.9511953000037,None,,,,,,,,,,,,,,,,,message,47,158,aloud,old,blue,1409.0161186000041,None,1409.0161186000041,None,4,4.002663500010385,1409.0161186000041,None,4.002663500010385,1413.034756100009,None,1413.5346015000105,None,1413.5346015000105,None,f,0.3962605000124313,1413.5346015000105,None,0.3962605000124313,,,Aloud17,001,2022_Aug_05_1515,ProdSingRedoBetween,2021.2.3,59.88511639286038,
,,,,158,0,158,0,,,,,,,,,,,,,,,,,,,,,,1416.4870288000093,None,,,,,,,,,,,,,,,,,broad,153,159,aloud,new,null,1414.4545698000002,None,1414.4545698000002,None,1,1.2362286999996286,1414.4545698000002,None,1.2362286999996286,1415.7202035000082,None,1416.2247082000104,None,1416.2247082000104,None,n,0.23409450000326615,1416.2247082000104,None,0.23409450000326615,,,Aloud17,001,2022_Aug_05_1515,ProdSingRedoBetween,2021.2.3,59.88511639286038,
,,,,159,0,159,0,,,,,,,,,,,,,,,,,,,,,,1422.4597053000034,None,,,,,,,,,,,,,,,,,interior,87,160,aloud,old,red,1416.9979990000138,None,1416.9979990000138,None,4,4.348792399992817,1416.9979990000138,None,4.348792399992817,1421.375286200011,None,1421.8758796000038,None,1421.8758796000038,None,f,0.5588924999901792,1421.8758796000038,None,0.5588924999901792,,,Aloud17,001,2022_Aug_05_1515,ProdSingRedoBetween,2021.2.3,59.88511639286038,
,,,,160,0,160,0,,,,,,,,,,,,,,,,,,,,,,1425.6795792000048,None,,,,,,,,,,,,,,,,,fashion,84,161,aloud,old,red,1422.9724934000114,None,1422.9724934000114,None,1,1.8863593999994919,1422.9724934000114,None,1.8863593999994919,1424.8821809000074,None,1425.3960653000104,None,1425.3960653000104,None,n,0.25472859998990316,1425.3960653000104,None,0.25472859998990316,,,Aloud17,001,2022_Aug_05_1515,ProdSingRedoBetween,2021.2.3,59.88511639286038,
,,,,161,0,161,0,,,,,,,,,,,,,,,,,,,,,,1428.2821698000043,None,,,,,,,,,,,,,,,,,people,127,162,aloud,new,null,1426.1878543000057,None,1426.1878543000057,None,1,1.2548244000063278,1426.1878543000057,None,1.2548244000063278,1427.464575200007,None,1427.9654051000107,None,1427.9654051000107,None,n,0.2853820000018459,1427.9654051000107,None,0.2853820000018459,,,Aloud17,001,2022_Aug_05_1515,ProdSingRedoBetween,2021.2.3,59.88511639286038,
,,,,162,0,162,0,,,,,,,,,,,,,,,,,,,,,,1434.104728300008,None,,,,,,,,,,,,,,,,,provision,13,163,aloud,old,yellow,1428.793000500009,None,1428.793000500009,None,1,4.297749000004842,1428.793000500009,None,4.297749000004842,1433.121699100011,None,1433.628279800003,None,1433.628279800003,None,n,0.45449329999974,1433.628279800003,None,0.45449329999974,,,Aloud17,001,2022_Aug_05_1515,ProdSingRedoBetween,2021.2.3,59.88511639286038,
,,,,163,0,163,0,,,,,,,,,,,,,,,,,,,,,,1436.8346437,None,,,,,,,,,,,,,,,,,alert,89,164,aloud,old,red,1434.6138494000043,None,1434.6138494000043,None,1,1.412876900008996,1434.6138494000043,None,1.412876900008996,1436.0565266000049,None,1436.5611386000091,None,1436.5611386000091,None,n,0.23366339999483898,1436.5611386000091,None,0.23366339999483898,,,Aloud17,001,2022_Aug_05_1515,ProdSingRedoBetween,2021.2.3,59.88511639286038,
,,,,164,0,164,0,,,,,,,,,,,,,,,,,,,,,,1439.2109159000101,None,,,,,,,,,,,,,,,,,stand,92,165,aloud,new,null,1437.3449799000082,None,1437.3449799000082,None,1,1.1057771999912802,1437.3449799000082,None,1.1057771999912802,1438.4769174000103,None,1438.9802673000086,None,1438.9802673000086,None,n,0.19871479998982977,1438.9802673000086,None,0.19871479998982977,,,Aloud17,001,2022_Aug_05_1515,ProdSingRedoBetween,2021.2.3,59.88511639286038,
,,,,165,0,165,0,,,,,,,,,,,,,,,,,,,,,,1452.2226975000085,None,,,,,,,,,,,,,,,,,fight,107,166,aloud,new,null,1439.7219812000112,None,1439.7219812000112,None,1,11.304702099994756,1439.7219812000112,None,11.304702099994756,1451.0548364000133,None,1451.5606180000032,None,1451.5606180000032,None,n,0.6421757999924012,1451.5606180000032,None,0.6421757999924012,,,Aloud17,001,2022_Aug_05_1515,ProdSingRedoBetween,2021.2.3,59.88511639286038,
,,,,166,0,166,0,,,,,,,,,,,,,,,,,,,,,,1457.0775170000124,None,,,,,,,,,,,,,,,,,color,152,167,aloud,new,null,1452.7382835000026,None,1452.7382835000026,None,1,3.2645273999951314,1452.7382835000026,None,3.2645273999951314,1456.0274906000122,None,1456.5310626000137,None,1456.5310626000137,None,n,0.5196416999970097,1456.5310626000137,None,0.5196416999970097,,,Aloud17,001,2022_Aug_05_1515,ProdSingRedoBetween,2021.2.3,59.88511639286038,
,,,,167,0,167,0,,,,,,,,,,,,,,,,,,,,,,1460.3641143000132,None,,,,,,,,,,,,,,,,,bureau,160,168,aloud,new,null,1457.5783224000043,None,1457.5783224000043,None,1,1.584347500000149,1457.5783224000043,None,1.584347500000149,1459.180659000005,None,1459.6825056000089,None,1459.6825056000089,None,n,0.6562525999906939,1459.6825056000089,None,0.6562525999906939,,,Aloud17,001,2022_Aug_05_1515,ProdSingRedoBetween,2021.2.3,59.88511639286038,
,,,,168,0,168,0,,,,,,,,,,,,,,,,,,,,,,1466.6871277000027,None,,,,,,,,,,,,,,,,,damage,40,169,aloud,old,blue,1460.871439800001,None,1460.871439800001,None,3,4.691386799997417,1460.871439800001,None,4.691386799997417,1465.5918634000118,None,1466.107588400002,None,1466.107588400002,None,f,0.5591820999979973,1466.107588400002,None,0.5591820999979973,,,Aloud17,001,2022_Aug_05_1515,ProdSingRedoBetween,2021.2.3,59.88511639286038,
,,,,169,0,169,0,,,,,,,,,,,,,,,,,,,,,,1469.8069078000117,None,,,,,,,,,,,,,,,,,relation,82,170,aloud,old,red,1467.189179100009,None,1467.189179100009,None,1,1.82161780000024,1467.189179100009,None,1.82161780000024,1469.0421690000076,None,1469.5644318000122,None,1469.5644318000122,None,n,0.21430180000606924,1469.5644318000122,None,0.21430180000606924,,,Aloud17,001,2022_Aug_05_1515,ProdSingRedoBetween,2021.2.3,59.88511639286038,
,,,,170,0,170,0,,,,,,,,,,,,,,,,,,,,,,1478.2988226000016,None,,,,,,,,,,,,,,,,,court,174,171,aloud,new,null,1470.3161733000015,None,1470.3161733000015,None,1,7.310614999994868,1470.3161733000015,None,7.310614999994868,1477.6482216000004,None,1478.1511648000014,None,1478.1511648000014,None,n,0.12363420000474434,1478.1511648000014,None,0.12363420000474434,,,Aloud17,001,2022_Aug_05_1515,ProdSingRedoBetween,2021.2.3,59.88511639286038,
,,,,171,0,171,0,,,,,,,,,,,,,,,,,,,,,,1492.0791143000097,None,,,,,,,,,,,,,,,,,safety,4,172,aloud,old,yellow,1478.8072055000084,None,1478.8072055000084,None,1,12.115496200000052,1478.8072055000084,None,12.115496200000052,1490.9460146000056,None,1491.4454098000133,None,1491.4454098000133,None,n,0.6133333000034327,1491.4454098000133,None,0.6133333000034327,,,Aloud17,001,2022_Aug_05_1515,ProdSingRedoBetween,2021.2.3,59.88511639286038,
,,,,172,0,172,0,,,,,,,,,,,,,,,,,,,,,,1500.8546145,None,,,,,,,,,,,,,,,,,council,27,173,aloud,old,yellow,1492.586307400008,None,1492.586307400008,None,4,5.496454200008884,1492.586307400008,None,5.496454200008884,1498.1075901000004,None,1498.6191958000127,None,1498.6191958000127,None,f,2.215503700004774,1498.6191958000127,None,2.215503700004774,,,Aloud17,001,2022_Aug_05_1515,ProdSingRedoBetween,2021.2.3,59.88511639286038,
,,,,173,0,173,0,,,,,,,,,,,,,,,,,,,,,,1503.4071104000031,None,,,,,,,,,,,,,,,,,grade,96,174,aloud,new,null,1501.36285830001,None,1501.36285830001,None,1,1.2238117000088096,1501.36285830001,None,1.2238117000088096,1502.6062665000063,None,1503.1109234000032,None,1503.1109234000032,None,n,0.2677724999957718,1503.1109234000032,None,0.2677724999957718,,,Aloud17,001,2022_Aug_05_1515,ProdSingRedoBetween,2021.2.3,59.88511639286038,
,,,,174,0,174,0,,,,,,,,,,,,,,,,,,,,,,1505.7761818,None,,,,,,,,,,,,,,,,,watch,11,175,aloud,old,yellow,1503.9136018999998,None,1503.9136018999998,None,1,1.1050739999918733,1503.9136018999998,None,1.1050739999918733,1505.0433839000034,None,1505.547195600011,None,1505.547195600011,None,n,0.19953410000016447,1505.547195600011,None,0.19953410000016447,,,Aloud17,001,2022_Aug_05_1515,ProdSingRedoBetween,2021.2.3,59.88511639286038,
,,,,175,0,175,0,,,,,,,,,,,,,,,,,,,,,,1509.3631590000005,None,,,,,,,,,,,,,,,,,answer,90,176,aloud,new,null,1506.295125900011,None,1506.295125900011,None,1,2.403621099991142,1506.295125900011,None,2.403621099991142,1508.737614800004,None,1509.248607600006,None,1509.248607600006,None,n,0.0981846999929985,1509.248607600006,None,0.0981846999929985,,,Aloud17,001,2022_Aug_05_1515,ProdSingRedoBetween,2021.2.3,59.88511639286038,
,,,,176,0,176,0,,,,,,,,,,,,,,,,,,,,,,1512.7329902000056,None,,,,,,,,,,,,,,,,,collection,72,177,aloud,old,red,1509.8750654000032,None,1509.8750654000032,None,1,2.111769800001639,1509.8750654000032,None,2.111769800001639,1512.0213723000052,None,1512.5381557000073,None,1512.5381557000073,None,n,0.17654440000478644,1512.5381557000073,None,0.17654440000478644,,,Aloud17,001,2022_Aug_05_1515,ProdSingRedoBetween,2021.2.3,59.88511639286038,
,,,,177,0,177,0,,,,,,,,,,,,,,,,,,,,,,1516.8049953000009,None,,,,,,,,,,,,,,,,,light,74,178,aloud,old,red,1513.2363983000105,None,1513.2363983000105,None,1,2.894352199989953,1513.2363983000105,None,2.894352199989953,1516.1575050000101,None,1516.6704759000131,None,1516.6704759000131,None,n,0.10830199999327306,1516.6704759000131,None,0.10830199999327306,,,Aloud17,001,2022_Aug_05_1515,ProdSingRedoBetween,2021.2.3,59.88511639286038,
