StudyLoop.thisRepN,StudyLoop.thisTrialN,StudyLoop.thisN,StudyLoop.thisIndex,TestLoop.thisRepN,TestLoop.thisTrialN,TestLoop.thisN,TestLoop.thisIndex,textCondition.started,textCondition.stopped,keyCondition.keys,keyCondition.rt,keyCondition.started,keyCondition.stopped,Condition,textWelcome.started,textWelcome.stopped,keyWelcome.keys,keyWelcome.rt,keyWelcome.started,keyWelcome.stopped,textAloud.started,textAloud.stopped,textSilent.started,textSilent.stopped,textSing.started,textSing.stopped,conditional_text.started,conditional_text.stopped,textBlank500.started,textBlank500.stopped,study_word,study_num,study_order,study_type,word_color,textStudy.started,textStudy.stopped,keyStudy.keys,keyStudy.started,keyStudy.stopped,textTestInstructions.started,textTestInstructions.stopped,key_resp_3.keys,key_resp_3.rt,key_resp_3.started,key_resp_3.stopped,test_word,test_num,test_order,test_condition,old_new_test,test_word_original_color,textConf.started,textConf.stopped,textConfScale.started,textConfScale.stopped,keyConf.keys,keyConf.rt,keyConf.started,keyConf.stopped,confidence response time,textTestBlank.started,textTestBlank.stopped,textRKN.started,textRKN.stopped,textRKNScale.started,textRKNScale.stopped,keyRKN.keys,keyRKN.rt,keyRKN.started,keyRKN.stopped,rkn response time,textEnd.started,textEnd.stopped,participant,session,date,expName,psychopyVersion,frameRate,
,,,,,,,,15.047959600007744,None,c,1.2464743999880739,15.047959600007744,None,,,,,,,,,,,,,,,,,,,,,,,,,,,,,,,,,,,,,,,,,,,,,,,,,,,,,,,,,,,,,,Sing18,001,2022_Aug_05_1541,ProdSingRedoBetween,2021.2.3,59.90807704405868,
,,,,,,,,,,,,,,SingTest,16.34083539999847,None,space,269.82527849999315,16.34083539999847,None,,,,,,,,,,,,,,,,,,,,,,,,,,,,,,,,,,,,,,,,,,,,,,,,,,,,,,,Sing18,001,2022_Aug_05_1541,ProdSingRedoBetween,2021.2.3,59.90807704405868,
0,0,0,0,,,,,,,,,,,,,,,,,,16.34083539999847,None,16.34083539999847,None,16.34083539999847,None,16.34083539999847,None,288.70125160001044,None,expansion,21,1,sing,yellow,286.6904031000013,None,None,286.6904031000013,None,,,,,,,,,,,,,,,,,,,,,,,,,,,,,,,,,,,Sing18,001,2022_Aug_05_1541,ProdSingRedoBetween,2021.2.3,59.90807704405868,
1,0,1,0,,,,,,,,,,,,,,,,,,,,,,,,,,291.203766000006,None,route,64,2,sing,red,289.20374170001014,None,None,289.20374170001014,None,,,,,,,,,,,,,,,,,,,,,,,,,,,,,,,,,,,Sing18,001,2022_Aug_05_1541,ProdSingRedoBetween,2021.2.3,59.90807704405868,
2,0,2,0,,,,,,,,,,,,,,,,,,,,,,,,,,293.7228882000054,None,course,88,3,sing,red,291.7099664999987,None,None,291.7099664999987,None,,,,,,,,,,,,,,,,,,,,,,,,,,,,,,,,,,,Sing18,001,2022_Aug_05_1541,ProdSingRedoBetween,2021.2.3,59.90807704405868,
3,0,3,0,,,,,,,,,,,,,,,,,,,,,,,,,,296.2420904000028,None,goose,19,4,sing,yellow,294.22928740001225,None,None,294.22928740001225,None,,,,,,,,,,,,,,,,,,,,,,,,,,,,,,,,,,,Sing18,001,2022_Aug_05_1541,ProdSingRedoBetween,2021.2.3,59.90807704405868,
4,0,4,0,,,,,,,,,,,,,,,,,,,,,,,,,,298.76112800001283,None,science,36,5,sing,blue,296.746570000003,None,None,296.746570000003,None,,,,,,,,,,,,,,,,,,,,,,,,,,,,,,,,,,,Sing18,001,2022_Aug_05_1541,ProdSingRedoBetween,2021.2.3,59.90807704405868,
5,0,5,0,,,,,,,,,,,,,,,,,,,,,,,,,,301.263706800004,None,quantity,29,6,sing,blue,299.26178359999903,None,None,299.26178359999903,None,,,,,,,,,,,,,,,,,,,,,,,,,,,,,,,,,,,Sing18,001,2022_Aug_05_1541,ProdSingRedoBetween,2021.2.3,59.90807704405868,
6,0,6,0,,,,,,,,,,,,,,,,,,,,,,,,,,303.76633280000533,None,sound,52,7,sing,blue,301.76421530000516,None,None,301.76421530000516,None,,,,,,,,,,,,,,,,,,,,,,,,,,,,,,,,,,,Sing18,001,2022_Aug_05_1541,ProdSingRedoBetween,2021.2.3,59.90807704405868,
7,0,7,0,,,,,,,,,,,,,,,,,,,,,,,,,,306.28550270000414,None,medicine,3,8,sing,yellow,304.2716519000096,None,None,304.2716519000096,None,,,,,,,,,,,,,,,,,,,,,,,,,,,,,,,,,,,Sing18,001,2022_Aug_05_1541,ProdSingRedoBetween,2021.2.3,59.90807704405868,
8,0,8,0,,,,,,,,,,,,,,,,,,,,,,,,,,308.7879353000026,None,crowd,42,9,sing,blue,306.7859567000123,None,None,306.7859567000123,None,,,,,,,,,,,,,,,,,,,,,,,,,,,,,,,,,,,Sing18,001,2022_Aug_05_1541,ProdSingRedoBetween,2021.2.3,59.90807704405868,
9,0,9,0,,,,,,,,,,,,,,,,,,,,,,,,,,311.2904079,None,welcome,22,10,sing,yellow,309.2907792000042,None,None,309.2907792000042,None,,,,,,,,,,,,,,,,,,,,,,,,,,,,,,,,,,,Sing18,001,2022_Aug_05_1541,ProdSingRedoBetween,2021.2.3,59.90807704405868,
10,0,10,0,,,,,,,,,,,,,,,,,,,,,,,,,,313.8096557000099,None,foundation,34,11,sing,blue,311.79426819999935,None,None,311.79426819999935,None,,,,,,,,,,,,,,,,,,,,,,,,,,,,,,,,,,,Sing18,001,2022_Aug_05_1541,ProdSingRedoBetween,2021.2.3,59.90807704405868,
11,0,11,0,,,,,,,,,,,,,,,,,,,,,,,,,,316.3119799999986,None,space,54,12,sing,blue,314.31022280000616,None,None,314.31022280000616,None,,,,,,,,,,,,,,,,,,,,,,,,,,,,,,,,,,,Sing18,001,2022_Aug_05_1541,ProdSingRedoBetween,2021.2.3,59.90807704405868,
12,0,12,0,,,,,,,,,,,,,,,,,,,,,,,,,,318.83135170000605,None,history,85,13,sing,red,316.81855560000986,None,None,316.81855560000986,None,,,,,,,,,,,,,,,,,,,,,,,,,,,,,,,,,,,Sing18,001,2022_Aug_05_1541,ProdSingRedoBetween,2021.2.3,59.90807704405868,
13,0,13,0,,,,,,,,,,,,,,,,,,,,,,,,,,321.33378800000355,None,sight,0,14,sing,yellow,319.3346743000002,None,None,319.3346743000002,None,,,,,,,,,,,,,,,,,,,,,,,,,,,,,,,,,,,Sing18,001,2022_Aug_05_1541,ProdSingRedoBetween,2021.2.3,59.90807704405868,
14,0,14,0,,,,,,,,,,,,,,,,,,,,,,,,,,323.85288820001006,None,strain,86,15,sing,red,321.8386758000124,None,None,321.8386758000124,None,,,,,,,,,,,,,,,,,,,,,,,,,,,,,,,,,,,Sing18,001,2022_Aug_05_1541,ProdSingRedoBetween,2021.2.3,59.90807704405868,
15,0,15,0,,,,,,,,,,,,,,,,,,,,,,,,,,326.3554446000053,None,running,20,16,sing,yellow,324.3547787999996,None,None,324.3547787999996,None,,,,,,,,,,,,,,,,,,,,,,,,,,,,,,,,,,,Sing18,001,2022_Aug_05_1541,ProdSingRedoBetween,2021.2.3,59.90807704405868,
16,0,16,0,,,,,,,,,,,,,,,,,,,,,,,,,,328.87462630000664,None,ground,16,17,sing,yellow,326.8594262000115,None,None,326.8594262000115,None,,,,,,,,,,,,,,,,,,,,,,,,,,,,,,,,,,,Sing18,001,2022_Aug_05_1541,ProdSingRedoBetween,2021.2.3,59.90807704405868,
17,0,17,0,,,,,,,,,,,,,,,,,,,,,,,,,,331.3770802000072,None,company,84,18,sing,red,329.3776797000028,None,None,329.3776797000028,None,,,,,,,,,,,,,,,,,,,,,,,,,,,,,,,,,,,Sing18,001,2022_Aug_05_1541,ProdSingRedoBetween,2021.2.3,59.90807704405868,
18,0,18,0,,,,,,,,,,,,,,,,,,,,,,,,,,333.87964820000343,None,still,40,19,sing,blue,331.8776705000055,None,None,331.8776705000055,None,,,,,,,,,,,,,,,,,,,,,,,,,,,,,,,,,,,Sing18,001,2022_Aug_05_1541,ProdSingRedoBetween,2021.2.3,59.90807704405868,
19,0,19,0,,,,,,,,,,,,,,,,,,,,,,,,,,336.3822963999992,None,quick,26,20,sing,yellow,334.3813960000116,None,None,334.3813960000116,None,,,,,,,,,,,,,,,,,,,,,,,,,,,,,,,,,,,Sing18,001,2022_Aug_05_1541,ProdSingRedoBetween,2021.2.3,59.90807704405868,
20,0,20,0,,,,,,,,,,,,,,,,,,,,,,,,,,338.9012683000037,None,broke,1,21,sing,yellow,336.88695830000506,None,None,336.88695830000506,None,,,,,,,,,,,,,,,,,,,,,,,,,,,,,,,,,,,Sing18,001,2022_Aug_05_1541,ProdSingRedoBetween,2021.2.3,59.90807704405868,
21,0,21,0,,,,,,,,,,,,,,,,,,,,,,,,,,341.4205486999999,None,bureau,61,22,sing,red,339.40710950001085,None,None,339.40710950001085,None,,,,,,,,,,,,,,,,,,,,,,,,,,,,,,,,,,,Sing18,001,2022_Aug_05_1541,ProdSingRedoBetween,2021.2.3,59.90807704405868,
22,0,22,0,,,,,,,,,,,,,,,,,,,,,,,,,,343.9231279000087,None,murder,79,23,sing,red,341.92105170000286,None,None,341.92105170000286,None,,,,,,,,,,,,,,,,,,,,,,,,,,,,,,,,,,,Sing18,001,2022_Aug_05_1541,ProdSingRedoBetween,2021.2.3,59.90807704405868,
23,0,23,0,,,,,,,,,,,,,,,,,,,,,,,,,,346.4254695000127,None,health,69,24,sing,red,344.42342440001084,None,None,344.42342440001084,None,,,,,,,,,,,,,,,,,,,,,,,,,,,,,,,,,,,Sing18,001,2022_Aug_05_1541,ProdSingRedoBetween,2021.2.3,59.90807704405868,
24,0,24,0,,,,,,,,,,,,,,,,,,,,,,,,,,348.9279005999997,None,empty,38,25,sing,blue,346.92658780000056,None,None,346.92658780000056,None,,,,,,,,,,,,,,,,,,,,,,,,,,,,,,,,,,,Sing18,001,2022_Aug_05_1541,ProdSingRedoBetween,2021.2.3,59.90807704405868,
25,0,25,0,,,,,,,,,,,,,,,,,,,,,,,,,,351.4303871000011,None,escape,11,26,sing,yellow,349.43059400000493,None,None,349.43059400000493,None,,,,,,,,,,,,,,,,,,,,,,,,,,,,,,,,,,,Sing18,001,2022_Aug_05_1541,ProdSingRedoBetween,2021.2.3,59.90807704405868,
26,0,26,0,,,,,,,,,,,,,,,,,,,,,,,,,,353.9495813000103,None,frank,7,27,sing,yellow,351.9367961000098,None,None,351.9367961000098,None,,,,,,,,,,,,,,,,,,,,,,,,,,,,,,,,,,,Sing18,001,2022_Aug_05_1541,ProdSingRedoBetween,2021.2.3,59.90807704405868,
27,0,27,0,,,,,,,,,,,,,,,,,,,,,,,,,,356.4689776000014,None,display,6,28,sing,yellow,354.4607585000049,None,None,354.4607585000049,None,,,,,,,,,,,,,,,,,,,,,,,,,,,,,,,,,,,Sing18,001,2022_Aug_05_1541,ProdSingRedoBetween,2021.2.3,59.90807704405868,
28,0,28,0,,,,,,,,,,,,,,,,,,,,,,,,,,358.97128930001054,None,close,82,29,sing,red,356.969330500011,None,None,356.969330500011,None,,,,,,,,,,,,,,,,,,,,,,,,,,,,,,,,,,,Sing18,001,2022_Aug_05_1541,ProdSingRedoBetween,2021.2.3,59.90807704405868,
29,0,29,0,,,,,,,,,,,,,,,,,,,,,,,,,,361.4904907000018,None,edition,62,30,sing,red,359.4793255000113,None,None,359.4793255000113,None,,,,,,,,,,,,,,,,,,,,,,,,,,,,,,,,,,,Sing18,001,2022_Aug_05_1541,ProdSingRedoBetween,2021.2.3,59.90807704405868,
30,0,30,0,,,,,,,,,,,,,,,,,,,,,,,,,,363.99285990001226,None,judge,75,31,sing,red,361.9934598000109,None,None,361.9934598000109,None,,,,,,,,,,,,,,,,,,,,,,,,,,,,,,,,,,,Sing18,001,2022_Aug_05_1541,ProdSingRedoBetween,2021.2.3,59.90807704405868,
31,0,31,0,,,,,,,,,,,,,,,,,,,,,,,,,,366.495487600012,None,power,44,32,sing,blue,364.4935317000054,None,None,364.4935317000054,None,,,,,,,,,,,,,,,,,,,,,,,,,,,,,,,,,,,Sing18,001,2022_Aug_05_1541,ProdSingRedoBetween,2021.2.3,59.90807704405868,
32,0,32,0,,,,,,,,,,,,,,,,,,,,,,,,,,368.9982081000053,None,engineer,32,33,sing,blue,366.9988825000037,None,None,366.9988825000037,None,,,,,,,,,,,,,,,,,,,,,,,,,,,,,,,,,,,Sing18,001,2022_Aug_05_1541,ProdSingRedoBetween,2021.2.3,59.90807704405868,
33,0,33,0,,,,,,,,,,,,,,,,,,,,,,,,,,371.5172522000066,None,disease,33,34,sing,blue,369.50646000000415,None,None,369.50646000000415,None,,,,,,,,,,,,,,,,,,,,,,,,,,,,,,,,,,,Sing18,001,2022_Aug_05_1541,ProdSingRedoBetween,2021.2.3,59.90807704405868,
34,0,34,0,,,,,,,,,,,,,,,,,,,,,,,,,,374.01989630000025,None,candidate,12,35,sing,yellow,372.0176169000042,None,None,372.0176169000042,None,,,,,,,,,,,,,,,,,,,,,,,,,,,,,,,,,,,Sing18,001,2022_Aug_05_1541,ProdSingRedoBetween,2021.2.3,59.90807704405868,
35,0,35,0,,,,,,,,,,,,,,,,,,,,,,,,,,376.53869050000503,None,vision,2,36,sing,yellow,374.5281410000025,None,None,374.5281410000025,None,,,,,,,,,,,,,,,,,,,,,,,,,,,,,,,,,,,Sing18,001,2022_Aug_05_1541,ProdSingRedoBetween,2021.2.3,59.90807704405868,
36,0,36,0,,,,,,,,,,,,,,,,,,,,,,,,,,379.041306900006,None,point,60,37,sing,red,377.03940970000986,None,None,377.03940970000986,None,,,,,,,,,,,,,,,,,,,,,,,,,,,,,,,,,,,Sing18,001,2022_Aug_05_1541,ProdSingRedoBetween,2021.2.3,59.90807704405868,
37,0,37,0,,,,,,,,,,,,,,,,,,,,,,,,,,381.5438692000025,None,break,14,38,sing,yellow,379.542798200011,None,None,379.542798200011,None,,,,,,,,,,,,,,,,,,,,,,,,,,,,,,,,,,,Sing18,001,2022_Aug_05_1541,ProdSingRedoBetween,2021.2.3,59.90807704405868,
38,0,38,0,,,,,,,,,,,,,,,,,,,,,,,,,,384.04637450000155,None,instrument,68,39,sing,red,382.04619520000415,None,None,382.04619520000415,None,,,,,,,,,,,,,,,,,,,,,,,,,,,,,,,,,,,Sing18,001,2022_Aug_05_1541,ProdSingRedoBetween,2021.2.3,59.90807704405868,
39,0,39,0,,,,,,,,,,,,,,,,,,,,,,,,,,386.56566730000486,None,clean,46,40,sing,blue,384.5501715999999,None,None,384.5501715999999,None,,,,,,,,,,,,,,,,,,,,,,,,,,,,,,,,,,,Sing18,001,2022_Aug_05_1541,ProdSingRedoBetween,2021.2.3,59.90807704405868,
40,0,40,0,,,,,,,,,,,,,,,,,,,,,,,,,,389.0847899000073,None,republic,63,41,sing,red,387.0769028000068,None,None,387.0769028000068,None,,,,,,,,,,,,,,,,,,,,,,,,,,,,,,,,,,,Sing18,001,2022_Aug_05_1541,ProdSingRedoBetween,2021.2.3,59.90807704405868,
41,0,41,0,,,,,,,,,,,,,,,,,,,,,,,,,,391.58715390000725,None,alert,9,42,sing,yellow,389.5852670000022,None,None,389.5852670000022,None,,,,,,,,,,,,,,,,,,,,,,,,,,,,,,,,,,,Sing18,001,2022_Aug_05_1541,ProdSingRedoBetween,2021.2.3,59.90807704405868,
42,0,42,0,,,,,,,,,,,,,,,,,,,,,,,,,,394.08974530000705,None,childhood,35,43,sing,blue,392.08787550000125,None,None,392.08787550000125,None,,,,,,,,,,,,,,,,,,,,,,,,,,,,,,,,,,,Sing18,001,2022_Aug_05_1541,ProdSingRedoBetween,2021.2.3,59.90807704405868,
43,0,43,0,,,,,,,,,,,,,,,,,,,,,,,,,,396.59235030000855,None,religion,57,44,sing,blue,394.59262730000773,None,None,394.59262730000773,None,,,,,,,,,,,,,,,,,,,,,,,,,,,,,,,,,,,Sing18,001,2022_Aug_05_1541,ProdSingRedoBetween,2021.2.3,59.90807704405868,
44,0,44,0,,,,,,,,,,,,,,,,,,,,,,,,,,399.09472259999893,None,number,89,45,sing,red,397.09415340000123,None,None,397.09415340000123,None,,,,,,,,,,,,,,,,,,,,,,,,,,,,,,,,,,,Sing18,001,2022_Aug_05_1541,ProdSingRedoBetween,2021.2.3,59.90807704405868,
45,0,45,0,,,,,,,,,,,,,,,,,,,,,,,,,,401.59715870000946,None,author,72,46,sing,red,399.597225000005,None,None,399.597225000005,None,,,,,,,,,,,,,,,,,,,,,,,,,,,,,,,,,,,Sing18,001,2022_Aug_05_1541,ProdSingRedoBetween,2021.2.3,59.90807704405868,
46,0,46,0,,,,,,,,,,,,,,,,,,,,,,,,,,404.0997899000067,None,title,70,47,sing,red,402.097680100007,None,None,402.097680100007,None,,,,,,,,,,,,,,,,,,,,,,,,,,,,,,,,,,,Sing18,001,2022_Aug_05_1541,ProdSingRedoBetween,2021.2.3,59.90807704405868,
47,0,47,0,,,,,,,,,,,,,,,,,,,,,,,,,,406.61890600000334,None,design,30,48,sing,blue,404.60389790000045,None,None,404.60389790000045,None,,,,,,,,,,,,,,,,,,,,,,,,,,,,,,,,,,,Sing18,001,2022_Aug_05_1541,ProdSingRedoBetween,2021.2.3,59.90807704405868,
48,0,48,0,,,,,,,,,,,,,,,,,,,,,,,,,,409.13813940000546,None,congress,53,49,sing,blue,407.1229309000046,None,None,407.1229309000046,None,,,,,,,,,,,,,,,,,,,,,,,,,,,,,,,,,,,Sing18,001,2022_Aug_05_1541,ProdSingRedoBetween,2021.2.3,59.90807704405868,
49,0,49,0,,,,,,,,,,,,,,,,,,,,,,,,,,411.6406741000101,None,blind,13,50,sing,yellow,409.6385644000111,None,None,409.6385644000111,None,,,,,,,,,,,,,,,,,,,,,,,,,,,,,,,,,,,Sing18,001,2022_Aug_05_1541,ProdSingRedoBetween,2021.2.3,59.90807704405868,
50,0,50,0,,,,,,,,,,,,,,,,,,,,,,,,,,414.16001810001035,None,subject,56,51,sing,blue,412.1451410000009,None,None,412.1451410000009,None,,,,,,,,,,,,,,,,,,,,,,,,,,,,,,,,,,,Sing18,001,2022_Aug_05_1541,ProdSingRedoBetween,2021.2.3,59.90807704405868,
51,0,51,0,,,,,,,,,,,,,,,,,,,,,,,,,,416.6622650000063,None,staff,83,52,sing,red,414.6603391000099,None,None,414.6603391000099,None,,,,,,,,,,,,,,,,,,,,,,,,,,,,,,,,,,,Sing18,001,2022_Aug_05_1541,ProdSingRedoBetween,2021.2.3,59.90807704405868,
52,0,52,0,,,,,,,,,,,,,,,,,,,,,,,,,,419.1648170000117,None,audience,28,53,sing,yellow,417.1634744000039,None,None,417.1634744000039,None,,,,,,,,,,,,,,,,,,,,,,,,,,,,,,,,,,,Sing18,001,2022_Aug_05_1541,ProdSingRedoBetween,2021.2.3,59.90807704405868,
53,0,53,0,,,,,,,,,,,,,,,,,,,,,,,,,,421.683800800005,None,industry,31,54,sing,blue,419.6693377000047,None,None,419.6693377000047,None,,,,,,,,,,,,,,,,,,,,,,,,,,,,,,,,,,,Sing18,001,2022_Aug_05_1541,ProdSingRedoBetween,2021.2.3,59.90807704405868,
54,0,54,0,,,,,,,,,,,,,,,,,,,,,,,,,,424.1864668000053,None,machinery,47,55,sing,blue,422.1844887000043,None,None,422.1844887000043,None,,,,,,,,,,,,,,,,,,,,,,,,,,,,,,,,,,,Sing18,001,2022_Aug_05_1541,ProdSingRedoBetween,2021.2.3,59.90807704405868,
55,0,55,0,,,,,,,,,,,,,,,,,,,,,,,,,,426.6889382000081,None,husband,27,56,sing,yellow,424.68982510000933,None,None,424.68982510000933,None,,,,,,,,,,,,,,,,,,,,,,,,,,,,,,,,,,,Sing18,001,2022_Aug_05_1541,ProdSingRedoBetween,2021.2.3,59.90807704405868,
56,0,56,0,,,,,,,,,,,,,,,,,,,,,,,,,,429.19146770000225,None,rural,74,57,sing,red,427.189345900013,None,None,427.189345900013,None,,,,,,,,,,,,,,,,,,,,,,,,,,,,,,,,,,,Sing18,001,2022_Aug_05_1541,ProdSingRedoBetween,2021.2.3,59.90807704405868,
57,0,57,0,,,,,,,,,,,,,,,,,,,,,,,,,,431.6939179000037,None,quarter,48,58,sing,blue,429.69173770000634,None,None,429.69173770000634,None,,,,,,,,,,,,,,,,,,,,,,,,,,,,,,,,,,,Sing18,001,2022_Aug_05_1541,ProdSingRedoBetween,2021.2.3,59.90807704405868,
58,0,58,0,,,,,,,,,,,,,,,,,,,,,,,,,,434.2130346000049,None,business,76,59,sing,red,432.20327389999875,None,None,432.20327389999875,None,,,,,,,,,,,,,,,,,,,,,,,,,,,,,,,,,,,Sing18,001,2022_Aug_05_1541,ProdSingRedoBetween,2021.2.3,59.90807704405868,
59,0,59,0,,,,,,,,,,,,,,,,,,,,,,,,,,436.7158320000017,None,personnel,43,60,sing,blue,434.71361200000683,None,None,434.71361200000683,None,,,,,,,,,,,,,,,,,,,,,,,,,,,,,,,,,,,Sing18,001,2022_Aug_05_1541,ProdSingRedoBetween,2021.2.3,59.90807704405868,
60,0,60,0,,,,,,,,,,,,,,,,,,,,,,,,,,439.2181183000066,None,budget,18,61,sing,yellow,437.2178738000075,None,None,437.2178738000075,None,,,,,,,,,,,,,,,,,,,,,,,,,,,,,,,,,,,Sing18,001,2022_Aug_05_1541,ProdSingRedoBetween,2021.2.3,59.90807704405868,
61,0,61,0,,,,,,,,,,,,,,,,,,,,,,,,,,441.72054200001,None,literature,67,62,sing,red,439.72037110000383,None,None,439.72037110000383,None,,,,,,,,,,,,,,,,,,,,,,,,,,,,,,,,,,,Sing18,001,2022_Aug_05_1541,ProdSingRedoBetween,2021.2.3,59.90807704405868,
62,0,62,0,,,,,,,,,,,,,,,,,,,,,,,,,,444.2230122000037,None,broad,39,63,sing,blue,442.22104590000527,None,None,442.22104590000527,None,,,,,,,,,,,,,,,,,,,,,,,,,,,,,,,,,,,Sing18,001,2022_Aug_05_1541,ProdSingRedoBetween,2021.2.3,59.90807704405868,
63,0,63,0,,,,,,,,,,,,,,,,,,,,,,,,,,446.7255436999985,None,leader,37,64,sing,blue,444.72404559999995,None,None,444.72404559999995,None,,,,,,,,,,,,,,,,,,,,,,,,,,,,,,,,,,,Sing18,001,2022_Aug_05_1541,ProdSingRedoBetween,2021.2.3,59.90807704405868,
64,0,64,0,,,,,,,,,,,,,,,,,,,,,,,,,,449.2281842000084,None,comedy,17,65,sing,yellow,447.2280548000126,None,None,447.2280548000126,None,,,,,,,,,,,,,,,,,,,,,,,,,,,,,,,,,,,Sing18,001,2022_Aug_05_1541,ProdSingRedoBetween,2021.2.3,59.90807704405868,
65,0,65,0,,,,,,,,,,,,,,,,,,,,,,,,,,451.7472478999989,None,atmosphere,41,66,sing,blue,449.7325439999986,None,None,449.7325439999986,None,,,,,,,,,,,,,,,,,,,,,,,,,,,,,,,,,,,Sing18,001,2022_Aug_05_1541,ProdSingRedoBetween,2021.2.3,59.90807704405868,
66,0,66,0,,,,,,,,,,,,,,,,,,,,,,,,,,454.2497027000063,None,working,59,67,sing,yellow,452.24795870001253,None,None,452.24795870001253,None,,,,,,,,,,,,,,,,,,,,,,,,,,,,,,,,,,,Sing18,001,2022_Aug_05_1541,ProdSingRedoBetween,2021.2.3,59.90807704405868,
67,0,67,0,,,,,,,,,,,,,,,,,,,,,,,,,,456.76896680000937,None,household,71,68,sing,red,454.76000639999984,None,None,454.76000639999984,None,,,,,,,,,,,,,,,,,,,,,,,,,,,,,,,,,,,Sing18,001,2022_Aug_05_1541,ProdSingRedoBetween,2021.2.3,59.90807704405868,
68,0,68,0,,,,,,,,,,,,,,,,,,,,,,,,,,459.2715173000033,None,benefit,80,69,sing,red,457.27227790000325,None,None,457.27227790000325,None,,,,,,,,,,,,,,,,,,,,,,,,,,,,,,,,,,,Sing18,001,2022_Aug_05_1541,ProdSingRedoBetween,2021.2.3,59.90807704405868,
69,0,69,0,,,,,,,,,,,,,,,,,,,,,,,,,,461.79073880000215,None,nation,5,70,sing,yellow,459.7752727000043,None,None,459.7752727000043,None,,,,,,,,,,,,,,,,,,,,,,,,,,,,,,,,,,,Sing18,001,2022_Aug_05_1541,ProdSingRedoBetween,2021.2.3,59.90807704405868,
70,0,70,0,,,,,,,,,,,,,,,,,,,,,,,,,,464.3098861000035,None,population,65,71,sing,red,462.2957970999996,None,None,462.2957970999996,None,,,,,,,,,,,,,,,,,,,,,,,,,,,,,,,,,,,Sing18,001,2022_Aug_05_1541,ProdSingRedoBetween,2021.2.3,59.90807704405868,
71,0,71,0,,,,,,,,,,,,,,,,,,,,,,,,,,466.82905010000104,None,watch,25,72,sing,yellow,464.8159760999988,None,None,464.8159760999988,None,,,,,,,,,,,,,,,,,,,,,,,,,,,,,,,,,,,Sing18,001,2022_Aug_05_1541,ProdSingRedoBetween,2021.2.3,59.90807704405868,
72,0,72,0,,,,,,,,,,,,,,,,,,,,,,,,,,469.33155020000413,None,turkey,8,73,sing,yellow,467.33222789999854,None,None,467.33222789999854,None,,,,,,,,,,,,,,,,,,,,,,,,,,,,,,,,,,,Sing18,001,2022_Aug_05_1541,ProdSingRedoBetween,2021.2.3,59.90807704405868,
73,0,73,0,,,,,,,,,,,,,,,,,,,,,,,,,,471.85071530001005,None,concern,58,74,sing,blue,469.8408358000015,None,None,469.8408358000015,None,,,,,,,,,,,,,,,,,,,,,,,,,,,,,,,,,,,Sing18,001,2022_Aug_05_1541,ProdSingRedoBetween,2021.2.3,59.90807704405868,
74,0,74,0,,,,,,,,,,,,,,,,,,,,,,,,,,474.3530730000057,None,court,77,75,sing,red,472.3521914000012,None,None,472.3521914000012,None,,,,,,,,,,,,,,,,,,,,,,,,,,,,,,,,,,,Sing18,001,2022_Aug_05_1541,ProdSingRedoBetween,2021.2.3,59.90807704405868,
75,0,75,0,,,,,,,,,,,,,,,,,,,,,,,,,,476.85571860001073,None,shear,55,76,sing,blue,474.85352790000616,None,None,474.85352790000616,None,,,,,,,,,,,,,,,,,,,,,,,,,,,,,,,,,,,Sing18,001,2022_Aug_05_1541,ProdSingRedoBetween,2021.2.3,59.90807704405868,
76,0,76,0,,,,,,,,,,,,,,,,,,,,,,,,,,479.37493740000355,None,native,50,77,sing,blue,477.36052310001105,None,None,477.36052310001105,None,,,,,,,,,,,,,,,,,,,,,,,,,,,,,,,,,,,Sing18,001,2022_Aug_05_1541,ProdSingRedoBetween,2021.2.3,59.90807704405868,
77,0,77,0,,,,,,,,,,,,,,,,,,,,,,,,,,481.8939379000076,None,production,15,78,sing,yellow,479.8829625000071,None,None,479.8829625000071,None,,,,,,,,,,,,,,,,,,,,,,,,,,,,,,,,,,,Sing18,001,2022_Aug_05_1541,ProdSingRedoBetween,2021.2.3,59.90807704405868,
78,0,78,0,,,,,,,,,,,,,,,,,,,,,,,,,,484.39646060000814,None,symbol,45,79,sing,blue,482.39456169999903,None,None,482.39456169999903,None,,,,,,,,,,,,,,,,,,,,,,,,,,,,,,,,,,,Sing18,001,2022_Aug_05_1541,ProdSingRedoBetween,2021.2.3,59.90807704405868,
79,0,79,0,,,,,,,,,,,,,,,,,,,,,,,,,,486.9155880000035,None,charter,87,80,sing,red,484.906498700002,None,None,484.906498700002,None,,,,,,,,,,,,,,,,,,,,,,,,,,,,,,,,,,,Sing18,001,2022_Aug_05_1541,ProdSingRedoBetween,2021.2.3,59.90807704405868,
80,0,80,0,,,,,,,,,,,,,,,,,,,,,,,,,,489.4183236000099,None,committee,73,81,sing,red,487.4179858999996,None,None,487.4179858999996,None,,,,,,,,,,,,,,,,,,,,,,,,,,,,,,,,,,,Sing18,001,2022_Aug_05_1541,ProdSingRedoBetween,2021.2.3,59.90807704405868,
81,0,81,0,,,,,,,,,,,,,,,,,,,,,,,,,,491.9205251000094,None,capital,23,82,sing,yellow,489.92003820001264,None,None,489.92003820001264,None,,,,,,,,,,,,,,,,,,,,,,,,,,,,,,,,,,,Sing18,001,2022_Aug_05_1541,ProdSingRedoBetween,2021.2.3,59.90807704405868,
82,0,82,0,,,,,,,,,,,,,,,,,,,,,,,,,,494.4229810000106,None,music,81,83,sing,red,492.4211023000098,None,None,492.4211023000098,None,,,,,,,,,,,,,,,,,,,,,,,,,,,,,,,,,,,Sing18,001,2022_Aug_05_1541,ProdSingRedoBetween,2021.2.3,59.90807704405868,
83,0,83,0,,,,,,,,,,,,,,,,,,,,,,,,,,496.92558760000975,None,pattern,51,84,sing,blue,494.92359180000494,None,None,494.92359180000494,None,,,,,,,,,,,,,,,,,,,,,,,,,,,,,,,,,,,Sing18,001,2022_Aug_05_1541,ProdSingRedoBetween,2021.2.3,59.90807704405868,
84,0,84,0,,,,,,,,,,,,,,,,,,,,,,,,,,499.42816740000853,None,bitter,4,85,sing,yellow,497.426658100012,None,None,497.426658100012,None,,,,,,,,,,,,,,,,,,,,,,,,,,,,,,,,,,,Sing18,001,2022_Aug_05_1541,ProdSingRedoBetween,2021.2.3,59.90807704405868,
85,0,85,0,,,,,,,,,,,,,,,,,,,,,,,,,,501.9306818000041,None,military,49,86,sing,blue,499.93117120000534,None,None,499.93117120000534,None,,,,,,,,,,,,,,,,,,,,,,,,,,,,,,,,,,,Sing18,001,2022_Aug_05_1541,ProdSingRedoBetween,2021.2.3,59.90807704405868,
86,0,86,0,,,,,,,,,,,,,,,,,,,,,,,,,,504.4331433000043,None,hearing,78,87,sing,red,502.43205200000375,None,None,502.43205200000375,None,,,,,,,,,,,,,,,,,,,,,,,,,,,,,,,,,,,Sing18,001,2022_Aug_05_1541,ProdSingRedoBetween,2021.2.3,59.90807704405868,
87,0,87,0,,,,,,,,,,,,,,,,,,,,,,,,,,506.93617169999925,None,message,66,88,sing,red,504.9335446000041,None,None,504.9335446000041,None,,,,,,,,,,,,,,,,,,,,,,,,,,,,,,,,,,,Sing18,001,2022_Aug_05_1541,ProdSingRedoBetween,2021.2.3,59.90807704405868,
88,0,88,0,,,,,,,,,,,,,,,,,,,,,,,,,,509.43813360000786,None,recall,24,89,sing,yellow,507.43625130000873,None,None,507.43625130000873,None,,,,,,,,,,,,,,,,,,,,,,,,,,,,,,,,,,,Sing18,001,2022_Aug_05_1541,ProdSingRedoBetween,2021.2.3,59.90807704405868,
89,0,89,0,,,,,,,,,,,,,,,,,,,,,,,,,,511.94069370000216,None,people,10,90,sing,yellow,509.93991300000926,None,None,509.93991300000926,None,,,,,,,,,,,,,,,,,,,,,,,,,,,,,,,,,,,Sing18,001,2022_Aug_05_1541,ProdSingRedoBetween,2021.2.3,59.90807704405868,
,,,,,,,,,,,,,,,,,,,,,,,,,,,,,,,,,,,,,,,,,512.4413697999989,None,k,121.22839340000064,512.4413697999989,None,,,,,,,,,,,,,,,,,,,,,,,,,,,,,Sing18,001,2022_Aug_05_1541,ProdSingRedoBetween,2021.2.3,59.90807704405868,
,,,,0,0,0,0,,,,,,,,,,,,,,,,,,,,,,643.6052936000051,None,,,,,,,,,,,,,,,,,month,105,1,sing,new,null,634.2053233000042,None,634.2053233000042,None,2,6.088380699991831,634.2053233000042,None,6.088380699991831,640.320421100012,None,640.839544100003,None,640.839544100003,None,n,2.7421598000073573,640.839544100003,None,2.7421598000073573,,,Sing18,001,2022_Aug_05_1541,ProdSingRedoBetween,2021.2.3,59.90807704405868,
,,,,1,0,1,0,,,,,,,,,,,,,,,,,,,,,,653.3157994000067,None,,,,,,,,,,,,,,,,,general,97,2,sing,new,null,644.121530400007,None,644.121530400007,None,5,5.084322900002007,644.121530400007,None,5.084322900002007,649.2277417000005,None,649.7310412000079,None,649.7310412000079,None,f,3.5547089999890886,649.7310412000079,None,3.5547089999890886,,,Sing18,001,2022_Aug_05_1541,ProdSingRedoBetween,2021.2.3,59.90807704405868,
,,,,2,0,2,0,,,,,,,,,,,,,,,,,,,,,,660.5065995000041,None,,,,,,,,,,,,,,,,,budget,18,3,sing,old,yellow,653.8173049000034,None,653.8173049000034,None,2,4.852367100000265,653.8173049000034,None,4.852367100000265,658.6871355000039,None,659.1887348000018,None,659.1887348000018,None,n,1.2890520999935688,659.1887348000018,None,1.2890520999935688,,,Sing18,001,2022_Aug_05_1541,ProdSingRedoBetween,2021.2.3,59.90807704405868,
,,,,3,0,3,0,,,,,,,,,,,,,,,,,,,,,,666.9787046999991,None,,,,,,,,,,,,,,,,,error,151,4,sing,new,null,661.011531000011,None,661.011531000011,None,3,4.0342590999935055,661.011531000011,None,4.0342590999935055,665.0767522000097,None,665.5800777000113,None,665.5800777000113,None,n,1.377581900000223,665.5800777000113,None,1.377581900000223,,,Sing18,001,2022_Aug_05_1541,ProdSingRedoBetween,2021.2.3,59.90807704405868,
,,,,4,0,4,0,,,,,,,,,,,,,,,,,,,,,,672.1504611000128,None,,,,,,,,,,,,,,,,,colonel,158,5,sing,new,null,667.4888328000088,None,667.4888328000088,None,1,3.340833599999314,667.4888328000088,None,3.340833599999314,670.8491788000101,None,671.3606884000037,None,671.3606884000037,None,n,0.7729521000001114,671.3606884000037,None,0.7729521000001114,,,Sing18,001,2022_Aug_05_1541,ProdSingRedoBetween,2021.2.3,59.90807704405868,
,,,,5,0,5,0,,,,,,,,,,,,,,,,,,,,,,678.192008500002,None,,,,,,,,,,,,,,,,,pattern,51,6,sing,old,blue,672.6602673000016,None,672.6602673000016,None,4,3.065525300000445,672.6602673000016,None,3.065525300000445,675.7600665000064,None,676.273577800006,None,676.273577800006,None,n,1.8921284999960335,676.273577800006,None,1.8921284999960335,,,Sing18,001,2022_Aug_05_1541,ProdSingRedoBetween,2021.2.3,59.90807704405868,
,,,,6,0,6,0,,,,,,,,,,,,,,,,,,,,,,684.0482302000019,None,,,,,,,,,,,,,,,,,republic,63,7,sing,old,red,678.7093156000046,None,678.7093156000046,None,6,3.1203658000013093,678.7093156000046,None,3.1203658000013093,681.8610828000092,None,682.3677415999991,None,682.3677415999991,None,r,1.6618549000122584,682.3677415999991,None,1.6618549000122584,,,Sing18,001,2022_Aug_05_1541,ProdSingRedoBetween,2021.2.3,59.90807704405868,
,,,,7,0,7,0,,,,,,,,,,,,,,,,,,,,,,688.9505988000019,None,,,,,,,,,,,,,,,,,notice,143,8,sing,new,null,684.5630831000017,None,684.5630831000017,None,2,2.506620300002396,684.5630831000017,None,2.506620300002396,687.1058406000084,None,687.6159139000083,None,687.6159139000083,None,n,1.3097316000057617,687.6159139000083,None,1.3097316000057617,,,Sing18,001,2022_Aug_05_1541,ProdSingRedoBetween,2021.2.3,59.90807704405868,
,,,,8,0,8,0,,,,,,,,,,,,,,,,,,,,,,695.2067993000092,None,,,,,,,,,,,,,,,,,court,77,9,sing,old,red,689.4572507000121,None,689.4572507000121,None,5,3.7963726000016322,689.4572507000121,None,3.7963726000016322,693.271472700013,None,693.7722176000098,None,693.7722176000098,None,f,1.4174277999991318,693.7722176000098,None,1.4174277999991318,,,Sing18,001,2022_Aug_05_1541,ProdSingRedoBetween,2021.2.3,59.90807704405868,
,,,,9,0,9,0,,,,,,,,,,,,,,,,,,,,,,699.878071900006,None,,,,,,,,,,,,,,,,,disease,33,10,sing,old,blue,695.708987200007,None,695.708987200007,None,6,2.360664899999392,695.708987200007,None,2.360664899999392,698.0950998000044,None,698.6103698000079,None,698.6103698000079,None,r,1.2512911000085296,698.6103698000079,None,1.2512911000085296,,,Sing18,001,2022_Aug_05_1541,ProdSingRedoBetween,2021.2.3,59.90807704405868,
,,,,10,0,10,0,,,,,,,,,,,,,,,,,,,,,,707.2521361000108,None,,,,,,,,,,,,,,,,,object,117,11,sing,new,null,700.3957765000087,None,700.3957765000087,None,4,4.585899600002449,700.3957765000087,None,4.585899600002449,705.0067341000104,None,705.5185467000119,None,705.5185467000119,None,n,1.7110739999916404,705.5185467000119,None,1.7110739999916404,,,Sing18,001,2022_Aug_05_1541,ProdSingRedoBetween,2021.2.3,59.90807704405868,
,,,,11,0,11,0,,,,,,,,,,,,,,,,,,,,,,714.727461500006,None,,,,,,,,,,,,,,,,,season,145,12,sing,new,null,707.7642354999989,None,707.7642354999989,None,4,4.145377199994982,707.7642354999989,None,4.145377199994982,711.9410185000015,None,712.4461196000047,None,712.4461196000047,None,n,2.255407100004959,712.4461196000047,None,2.255407100004959,,,Sing18,001,2022_Aug_05_1541,ProdSingRedoBetween,2021.2.3,59.90807704405868,
,,,,12,0,12,0,,,,,,,,,,,,,,,,,,,,,,718.3299263000081,None,,,,,,,,,,,,,,,,,length,124,13,sing,new,null,715.2268951000005,None,715.2268951000005,None,1,2.4506303000089247,715.2268951000005,None,2.4506303000089247,717.6959702000022,None,718.2022025000042,None,718.2022025000042,None,n,0.09953300000051968,718.2022025000042,None,0.09953300000051968,,,Sing18,001,2022_Aug_05_1541,ProdSingRedoBetween,2021.2.3,59.90807704405868,
,,,,13,0,13,0,,,,,,,,,,,,,,,,,,,,,,723.2182077000034,None,,,,,,,,,,,,,,,,,voice,120,14,sing,new,null,718.8336426000023,None,718.8336426000023,None,2,3.2039833000017097,718.8336426000023,None,3.2039833000017097,722.0714215000044,None,722.5844223000022,None,722.5844223000022,None,n,0.6052170000039041,722.5844223000022,None,0.6052170000039041,,,Sing18,001,2022_Aug_05_1541,ProdSingRedoBetween,2021.2.3,59.90807704405868,
,,,,14,0,14,0,,,,,,,,,,,,,,,,,,,,,,727.3223762999987,None,,,,,,,,,,,,,,,,,goose,19,15,sing,old,yellow,723.7302748000075,None,723.7302748000075,None,6,2.371326100008446,723.7302748000075,None,2.371326100008446,726.1209591000079,None,726.6257733000093,None,726.6257733000093,None,r,0.6678576999984216,726.6257733000093,None,0.6678576999984216,,,Sing18,001,2022_Aug_05_1541,ProdSingRedoBetween,2021.2.3,59.90807704405868,
,,,,15,0,15,0,,,,,,,,,,,,,,,,,,,,,,734.6963171000098,None,,,,,,,,,,,,,,,,,nature,123,16,sing,new,null,727.8275915000122,None,727.8275915000122,None,1,6.290000799999689,727.8275915000122,None,6.290000799999689,734.1463530000037,None,734.6463976000086,None,734.6463976000086,None,n,0.023178900009952486,734.6463976000086,None,0.023178900009952486,,,Sing18,001,2022_Aug_05_1541,ProdSingRedoBetween,2021.2.3,59.90807704405868,
,,,,16,0,16,0,,,,,,,,,,,,,,,,,,,,,,737.4490222000022,None,,,,,,,,,,,,,,,,,swift,136,17,sing,new,null,735.2057298,None,735.2057298,None,1,1.431911499996204,735.2057298,None,1.431911499996204,736.6694761000108,None,737.1839169000013,None,737.1839169000013,None,n,0.24566000000049826,737.1839169000013,None,0.24566000000049826,,,Sing18,001,2022_Aug_05_1541,ProdSingRedoBetween,2021.2.3,59.90807704405868,
,,,,17,0,17,0,,,,,,,,,,,,,,,,,,,,,,741.3528655000118,None,,,,,,,,,,,,,,,,,candidate,12,18,sing,old,yellow,737.9565899000008,None,737.9565899000008,None,6,1.633039699998335,737.9565899000008,None,1.633039699998335,739.6200059000112,None,740.1351930000092,None,740.1351930000092,None,f,1.1903183999966132,740.1351930000092,None,1.1903183999966132,,,Sing18,001,2022_Aug_05_1541,ProdSingRedoBetween,2021.2.3,59.90807704405868,
,,,,18,0,18,0,,,,,,,,,,,,,,,,,,,,,,744.8061738000106,None,,,,,,,,,,,,,,,,,interview,156,19,sing,new,null,741.865919200005,None,741.865919200005,None,1,2.195612400013488,741.865919200005,None,2.195612400013488,744.0902100000094,None,744.6070215000072,None,744.6070215000072,None,n,0.17449289999785833,744.6070215000072,None,0.17449289999785833,,,Sing18,001,2022_Aug_05_1541,ProdSingRedoBetween,2021.2.3,59.90807704405868,
,,,,19,0,19,0,,,,,,,,,,,,,,,,,,,,,,749.1280399000098,None,,,,,,,,,,,,,,,,,population,65,20,sing,old,red,745.3069155000121,None,745.3069155000121,None,4,2.6108019999956014,745.3069155000121,None,2.6108019999956014,747.9522029000073,None,748.4600214000093,None,748.4600214000093,None,n,0.6495230000000447,748.4600214000093,None,0.6495230000000447,,,Sing18,001,2022_Aug_05_1541,ProdSingRedoBetween,2021.2.3,59.90807704405868,
,,,,20,0,20,0,,,,,,,,,,,,,,,,,,,,,,754.316232000012,None,,,,,,,,,,,,,,,,,track,150,21,sing,new,null,749.6284832000092,None,749.6284832000092,None,1,4.10517450000043,749.6284832000092,None,4.10517450000043,753.7485788000049,None,754.2494003000029,None,754.2494003000029,None,n,0.04431369999656454,754.2494003000029,None,0.04431369999656454,,,Sing18,001,2022_Aug_05_1541,ProdSingRedoBetween,2021.2.3,59.90807704405868,
,,,,21,0,21,0,,,,,,,,,,,,,,,,,,,,,,757.6524495000049,None,,,,,,,,,,,,,,,,,benefit,80,22,sing,old,red,754.8206709000078,None,754.8206709000078,None,4,1.8648948000045493,754.8206709000078,None,1.8648948000045493,756.7028810000047,None,757.2020556000061,None,757.2020556000061,None,n,0.4194609000114724,757.2020556000061,None,0.4194609000114724,,,Sing18,001,2022_Aug_05_1541,ProdSingRedoBetween,2021.2.3,59.90807704405868,
,,,,22,0,22,0,,,,,,,,,,,,,,,,,,,,,,761.7398814000044,None,,,,,,,,,,,,,,,,,pretty,91,23,sing,new,null,758.1609401000023,None,758.1609401000023,None,1,2.916708499993547,758.1609401000023,None,2.916708499993547,761.109363399999,None,761.6231150000094,None,761.6231150000094,None,n,0.08650710000074469,761.6231150000094,None,0.08650710000074469,,,Sing18,001,2022_Aug_05_1541,ProdSingRedoBetween,2021.2.3,59.90807704405868,
,,,,23,0,23,0,,,,,,,,,,,,,,,,,,,,,,766.8282383000042,None,,,,,,,,,,,,,,,,,comfort,177,24,sing,new,null,762.2424600000086,None,762.2424600000086,None,1,3.9710667000035755,762.2424600000086,None,3.9710667000035755,766.2443215000094,None,766.7487824999989,None,766.7487824999989,None,n,0.0567911000107415,766.7487824999989,None,0.0567911000107415,,,Sing18,001,2022_Aug_05_1541,ProdSingRedoBetween,2021.2.3,59.90807704405868,
,,,,24,0,24,0,,,,,,,,,,,,,,,,,,,,,,769.1639638000051,None,,,,,,,,,,,,,,,,,plane,169,25,sing,new,null,767.3418696000008,None,767.3418696000008,None,1,1.2237653999909526,767.3418696000008,None,1.2237653999909526,768.5976636000123,None,769.1011499000015,None,769.1011499000015,None,n,0.032441000003018416,769.1011499000015,None,0.032441000003018416,,,Sing18,001,2022_Aug_05_1541,ProdSingRedoBetween,2021.2.3,59.90807704405868,
,,,,25,0,25,0,,,,,,,,,,,,,,,,,,,,,,772.2002976000076,None,,,,,,,,,,,,,,,,,personnel,43,26,sing,old,blue,769.6645341000112,None,769.6645341000112,None,6,1.8689359999989392,769.6645341000112,None,1.8689359999989392,771.5511270999996,None,772.0506541000068,None,772.0506541000068,None,f,0.12286469999526162,772.0506541000068,None,0.12286469999526162,,,Sing18,001,2022_Aug_05_1541,ProdSingRedoBetween,2021.2.3,59.90807704405868,
,,,,26,0,26,0,,,,,,,,,,,,,,,,,,,,,,776.788240599999,None,,,,,,,,,,,,,,,,,position,94,27,sing,new,null,772.7094982000126,None,772.7094982000126,None,1,3.2480523999984143,772.7094982000126,None,3.2480523999984143,775.9884058000025,None,776.497861900003,None,776.497861900003,None,n,0.2596951000014087,776.497861900003,None,0.2596951000014087,,,Sing18,001,2022_Aug_05_1541,ProdSingRedoBetween,2021.2.3,59.90807704405868,
,,,,27,0,27,0,,,,,,,,,,,,,,,,,,,,,,780.0581183000031,None,,,,,,,,,,,,,,,,,shock,166,28,sing,new,null,777.2948574000038,None,777.2948574000038,None,1,2.070694400012144,777.2948574000038,None,2.070694400012144,779.3924367,None,779.8965766000038,None,779.8965766000038,None,n,0.14099610000266694,779.8965766000038,None,0.14099610000266694,,,Sing18,001,2022_Aug_05_1541,ProdSingRedoBetween,2021.2.3,59.90807704405868,
,,,,28,0,28,0,,,,,,,,,,,,,,,,,,,,,,782.7941582000058,None,,,,,,,,,,,,,,,,,number,89,29,sing,old,red,780.563446900007,None,780.563446900007,None,2,1.5061715000047116,780.563446900007,None,1.5061715000047116,782.1015636000084,None,782.6109042000026,None,782.6109042000026,None,n,0.15472289999888744,782.6109042000026,None,0.15472289999888744,,,Sing18,001,2022_Aug_05_1541,ProdSingRedoBetween,2021.2.3,59.90807704405868,
,,,,29,0,29,0,,,,,,,,,,,,,,,,,,,,,,785.413469600011,None,,,,,,,,,,,,,,,,,story,131,30,sing,new,null,783.3028021000064,None,783.3028021000064,None,1,1.3907749000063632,783.3028021000064,None,1.3907749000063632,784.7208027000015,None,785.2342830000125,None,785.2342830000125,None,n,0.16334899999492336,785.2342830000125,None,0.16334899999492336,,,Sing18,001,2022_Aug_05_1541,ProdSingRedoBetween,2021.2.3,59.90807704405868,
,,,,30,0,30,0,,,,,,,,,,,,,,,,,,,,,,788.1848383000033,None,,,,,,,,,,,,,,,,,primary,164,31,sing,new,null,785.9266309000086,None,785.9266309000086,None,3,1.606851300006383,785.9266309000086,None,1.606851300006383,787.554126300005,None,788.0684709000052,None,788.0684709000052,None,n,0.09722529999271501,788.0684709000052,None,0.09722529999271501,,,Sing18,001,2022_Aug_05_1541,ProdSingRedoBetween,2021.2.3,59.90807704405868,
,,,,31,0,31,0,,,,,,,,,,,,,,,,,,,,,,791.502833400009,None,,,,,,,,,,,,,,,,,institute,110,32,sing,new,null,788.7158478000056,None,788.7158478000056,None,1,2.1616732999973465,788.7158478000056,None,2.1616732999973465,790.9036133000045,None,791.4029627000127,None,791.4029627000127,None,n,0.0825938999914797,791.4029627000127,None,0.0825938999914797,,,Sing18,001,2022_Aug_05_1541,ProdSingRedoBetween,2021.2.3,59.90807704405868,
,,,,32,0,32,0,,,,,,,,,,,,,,,,,,,,,,799.4617995000008,None,,,,,,,,,,,,,,,,,religion,57,33,sing,old,blue,792.0161841000081,None,792.0161841000081,None,4,5.989330199998221,792.0161841000081,None,5.989330199998221,798.0260944000038,None,798.528555500001,None,798.528555500001,None,n,0.9010782999976072,798.528555500001,None,0.9010782999976072,,,Sing18,001,2022_Aug_05_1541,ProdSingRedoBetween,2021.2.3,59.90807704405868,
,,,,33,0,33,0,,,,,,,,,,,,,,,,,,,,,,804.3179112000071,None,,,,,,,,,,,,,,,,,rural,74,34,sing,old,red,799.9655300000013,None,799.9655300000013,None,6,3.6639039000001503,799.9655300000013,None,3.6639039000001503,803.6486440000008,None,804.1511939000047,None,804.1511939000047,None,f,0.13446069999190513,804.1511939000047,None,0.13446069999190513,,,Sing18,001,2022_Aug_05_1541,ProdSingRedoBetween,2021.2.3,59.90807704405868,
,,,,34,0,34,0,,,,,,,,,,,,,,,,,,,,,,808.7033684000053,None,,,,,,,,,,,,,,,,,company,84,35,sing,old,red,804.8329531000054,None,804.8329531000054,None,5,1.6206382000091253,804.8329531000054,None,1.6206382000091253,806.4856051000097,None,806.9851781000034,None,806.9851781000034,None,f,1.692289400001755,806.9851781000034,None,1.692289400001755,,,Sing18,001,2022_Aug_05_1541,ProdSingRedoBetween,2021.2.3,59.90807704405868,
,,,,35,0,35,0,,,,,,,,,,,,,,,,,,,,,,811.7397715000116,None,,,,,,,,,,,,,,,,,division,140,36,sing,new,null,809.2130965000106,None,809.2130965000106,None,3,1.5446872999891639,809.2130965000106,None,1.5446872999891639,810.7961475000047,None,811.3153308000037,None,811.3153308000037,None,n,0.39421309999306686,811.3153308000037,None,0.39421309999306686,,,Sing18,001,2022_Aug_05_1541,ProdSingRedoBetween,2021.2.3,59.90807704405868,
,,,,36,0,36,0,,,,,,,,,,,,,,,,,,,,,,814.6137173000025,None,,,,,,,,,,,,,,,,,blind,13,37,sing,old,yellow,812.2420164000068,None,812.2420164000068,None,6,1.523565099996631,812.2420164000068,None,1.523565099996631,813.8027169000125,None,814.3091195000015,None,814.3091195000015,None,f,0.2802955999941332,814.3091195000015,None,0.2802955999941332,,,Sing18,001,2022_Aug_05_1541,ProdSingRedoBetween,2021.2.3,59.90807704405868,
,,,,37,0,37,0,,,,,,,,,,,,,,,,,,,,,,818.229671100009,None,,,,,,,,,,,,,,,,,medicine,3,38,sing,old,yellow,815.126576900002,None,815.126576900002,None,2,2.3188650000083726,815.126576900002,None,2.3188650000083726,817.4620772000053,None,817.9710403000063,None,817.9710403000063,None,n,0.23447250000026543,817.9710403000063,None,0.23447250000026543,,,Sing18,001,2022_Aug_05_1541,ProdSingRedoBetween,2021.2.3,59.90807704405868,
,,,,38,0,38,0,,,,,,,,,,,,,,,,,,,,,,826.1041502000007,None,,,,,,,,,,,,,,,,,history,85,39,sing,old,red,818.7398907000024,None,818.7398907000024,None,1,6.793596300005447,818.7398907000024,None,6.793596300005447,825.5549847000075,None,826.0544238000002,None,826.0544238000002,None,n,0.031190399997285567,826.0544238000002,None,0.031190399997285567,,,Sing18,001,2022_Aug_05_1541,ProdSingRedoBetween,2021.2.3,59.90807704405868,
,,,,39,0,39,0,,,,,,,,,,,,,,,,,,,,,,828.9775273000123,None,,,,,,,,,,,,,,,,,block,160,40,sing,new,null,826.6141342000046,None,826.6141342000046,None,1,1.7513492000143742,826.6141342000046,None,1.7513492000143742,828.3909949000081,None,828.8960216000123,None,828.8960216000123,None,n,0.061588600001414306,828.8960216000123,None,0.061588600001414306,,,Sing18,001,2022_Aug_05_1541,ProdSingRedoBetween,2021.2.3,59.90807704405868,
,,,,40,0,40,0,,,,,,,,,,,,,,,,,,,,,,834.7960364000028,None,,,,,,,,,,,,,,,,,capital,23,41,sing,old,yellow,829.4967628000013,None,829.4967628000013,None,5,2.8847991000075126,829.4967628000013,None,2.8847991000075126,832.4113799000042,None,832.9165349000104,None,832.9165349000104,None,n,1.8568412000022363,832.9165349000104,None,1.8568412000022363,,,Sing18,001,2022_Aug_05_1541,ProdSingRedoBetween,2021.2.3,59.90807704405868,
,,,,41,0,41,0,,,,,,,,,,,,,,,,,,,,,,838.6499445000081,None,,,,,,,,,,,,,,,,,edition,62,42,sing,old,red,835.296869400001,None,835.296869400001,None,1,2.4687202999921283,835.296869400001,None,2.4687202999921283,837.7882970000064,None,838.2998214000108,None,838.2998214000108,None,n,0.3216889000032097,838.2998214000108,None,0.3216889000032097,,,Sing18,001,2022_Aug_05_1541,ProdSingRedoBetween,2021.2.3,59.90807704405868,
,,,,42,0,42,0,,,,,,,,,,,,,,,,,,,,,,840.8521238000103,None,,,,,,,,,,,,,,,,,clean,46,43,sing,old,blue,839.1611849000037,None,839.1611849000037,None,1,1.1241881000023568,839.1611849000037,None,1.1241881000023568,840.3017203000054,None,840.8023087000038,None,840.8023087000038,None,n,0.03520439998828806,840.8023087000038,None,0.03520439998828806,,,Sing18,001,2022_Aug_05_1541,ProdSingRedoBetween,2021.2.3,59.90807704405868,
,,,,43,0,43,0,,,,,,,,,,,,,,,,,,,,,,843.0543422000046,None,,,,,,,,,,,,,,,,,write,132,44,sing,new,null,841.3558125000127,None,841.3558125000127,None,1,1.1296023999893805,841.3558125000127,None,1.1296023999893805,842.5050570000021,None,843.0091224000062,None,843.0091224000062,None,n,0.02037719999498222,843.0091224000062,None,0.02037719999498222,,,Sing18,001,2022_Aug_05_1541,ProdSingRedoBetween,2021.2.3,59.90807704405868,
,,,,44,0,44,0,,,,,,,,,,,,,,,,,,,,,,846.5411706000014,None,,,,,,,,,,,,,,,,,vision,2,45,sing,old,yellow,843.5623922000086,None,843.5623922000086,None,6,1.5230975000013132,843.5623922000086,None,1.5230975000013132,845.1078726999986,None,845.6110726000043,None,845.6110726000043,None,r,0.9144166000041878,845.6110726000043,None,0.9144166000041878,,,Sing18,001,2022_Aug_05_1541,ProdSingRedoBetween,2021.2.3,59.90807704405868,
,,,,45,0,45,0,,,,,,,,,,,,,,,,,,,,,,849.5943687000108,None,,,,,,,,,,,,,,,,,bicycle,167,46,sing,new,null,847.0564607000124,None,847.0564607000124,None,1,1.8609577000024728,847.0564607000124,None,1.8609577000024728,848.9446815000119,None,849.452449400007,None,849.452449400007,None,n,0.12120710000453983,849.452449400007,None,0.12120710000453983,,,Sing18,001,2022_Aug_05_1541,ProdSingRedoBetween,2021.2.3,59.90807704405868,
,,,,46,0,46,0,,,,,,,,,,,,,,,,,,,,,,853.231274500009,None,,,,,,,,,,,,,,,,,business,76,47,sing,old,red,850.1022434000042,None,850.1022434000042,None,1,2.3752398999931756,850.1022434000042,None,2.3752398999931756,852.4984474000084,None,853.0017403000093,None,853.0017403000093,None,n,0.203753300011158,853.0017403000093,None,0.203753300011158,,,Sing18,001,2022_Aug_05_1541,ProdSingRedoBetween,2021.2.3,59.90807704405868,
,,,,47,0,47,0,,,,,,,,,,,,,,,,,,,,,,855.4524698000023,None,,,,,,,,,,,,,,,,,piece,161,48,sing,new,null,853.7395483,None,853.7395483,None,1,1.1619843000080436,853.7395483,None,1.1619843000080436,854.9163656000019,None,855.4214582999994,None,855.4214582999994,None,n,0.008198800001991913,855.4214582999994,None,0.008198800001991913,,,Sing18,001,2022_Aug_05_1541,ProdSingRedoBetween,2021.2.3,59.90807704405868,
,,,,48,0,48,0,,,,,,,,,,,,,,,,,,,,,,859.0536794000072,None,,,,,,,,,,,,,,,,,executive,147,49,sing,new,null,855.9805357000005,None,855.9805357000005,None,1,1.393048900004942,855.9805357000005,None,1.393048900004942,857.4098406000121,None,857.9262215000053,None,857.9262215000053,None,n,1.1114291999983834,857.9262215000053,None,1.1114291999983834,,,Sing18,001,2022_Aug_05_1541,ProdSingRedoBetween,2021.2.3,59.90807704405868,
,,,,49,0,49,0,,,,,,,,,,,,,,,,,,,,,,862.2581884000101,None,,,,,,,,,,,,,,,,,light,137,50,sing,new,null,859.5612606000068,None,859.5612606000068,None,1,1.1721933999942848,859.5612606000068,None,1.1721933999942848,860.755376400004,None,861.2610671000002,None,861.2610671000002,None,n,0.9764591000130167,861.2610671000002,None,0.9764591000130167,,,Sing18,001,2022_Aug_05_1541,ProdSingRedoBetween,2021.2.3,59.90807704405868,
,,,,50,0,50,0,,,,,,,,,,,,,,,,,,,,,,865.9772482000117,None,,,,,,,,,,,,,,,,,bright,127,51,sing,new,null,862.7618078000087,None,862.7618078000087,None,3,1.363637500006007,862.7618078000087,None,1.363637500006007,864.1428691000037,None,864.6482650000107,None,864.6482650000107,None,n,1.3011294000025373,864.6482650000107,None,1.3011294000025373,,,Sing18,001,2022_Aug_05_1541,ProdSingRedoBetween,2021.2.3,59.90807704405868,
,,,,51,0,51,0,,,,,,,,,,,,,,,,,,,,,,869.7329955000023,None,,,,,,,,,,,,,,,,,committee,73,52,sing,old,red,866.4840550000081,None,866.4840550000081,None,6,1.7614235999935772,866.4840550000081,None,1.7614235999935772,868.2661852000019,None,868.7875420000055,None,868.7875420000055,None,f,0.9139910000085365,868.7875420000055,None,0.9139910000085365,,,Sing18,001,2022_Aug_05_1541,ProdSingRedoBetween,2021.2.3,59.90807704405868,
,,,,52,0,52,0,,,,,,,,,,,,,,,,,,,,,,873.5181384000025,None,,,,,,,,,,,,,,,,,people,10,53,sing,old,yellow,870.2527284000098,None,870.2527284000098,None,2,2.4246894999960205,870.2527284000098,None,2.4246894999960205,872.7074247000128,None,873.2206058000011,None,873.2206058000011,None,n,0.28083830000832677,873.2206058000011,None,0.28083830000832677,,,Sing18,001,2022_Aug_05_1541,ProdSingRedoBetween,2021.2.3,59.90807704405868,
,,,,53,0,53,0,,,,,,,,,,,,,,,,,,,,,,875.953854300009,None,,,,,,,,,,,,,,,,,research,133,54,sing,new,null,874.0293223000044,None,874.0293223000044,None,1,1.2642095999908634,874.0293223000044,None,1.2642095999908634,875.3276862000057,None,875.8395981000067,None,875.8395981000067,None,n,0.09385629999451339,875.8395981000067,None,0.09385629999451339,,,Sing18,001,2022_Aug_05_1541,ProdSingRedoBetween,2021.2.3,59.90807704405868,
,,,,54,0,54,0,,,,,,,,,,,,,,,,,,,,,,881.1924533000129,None,,,,,,,,,,,,,,,,,route,64,55,sing,old,red,876.4720823000098,None,876.4720823000098,None,6,1.7654793999972753,876.4720823000098,None,1.7654793999972753,878.2561508000072,None,878.7567983000044,None,878.7567983000044,None,r,2.416647299993201,878.7567983000044,None,2.416647299993201,,,Sing18,001,2022_Aug_05_1541,ProdSingRedoBetween,2021.2.3,59.90807704405868,
,,,,55,0,55,0,,,,,,,,,,,,,,,,,,,,,,883.5280916000047,None,,,,,,,,,,,,,,,,,fashion,100,56,sing,new,null,881.694636900007,None,881.694636900007,None,1,1.2547779000014998,881.694636900007,None,1.2547779000014998,882.9786666,None,883.4847080000036,None,883.4847080000036,None,n,0.016802300000563264,883.4847080000036,None,0.016802300000563264,,,Sing18,001,2022_Aug_05_1541,ProdSingRedoBetween,2021.2.3,59.90807704405868,
,,,,56,0,56,0,,,,,,,,,,,,,,,,,,,,,,885.6803702000034,None,,,,,,,,,,,,,,,,,surprise,109,57,sing,new,null,884.0367313000024,None,884.0367313000024,None,1,0.9287091000005603,884.0367313000024,None,0.9287091000005603,884.9979756000102,None,885.5045467000018,None,885.5045467000018,None,n,0.15707250000559725,885.5045467000018,None,0.15707250000559725,,,Sing18,001,2022_Aug_05_1541,ProdSingRedoBetween,2021.2.3,59.90807704405868,
,,,,57,0,57,0,,,,,,,,,,,,,,,,,,,,,,889.3338233000104,None,,,,,,,,,,,,,,,,,figure,103,58,sing,new,null,886.1881976000004,None,886.1881976000004,None,2,1.393387400006759,886.1881976000004,None,1.393387400006759,887.6038954000105,None,888.1214808000077,None,888.1214808000077,None,n,1.1959578000096371,888.1214808000077,None,1.1959578000096371,,,Sing18,001,2022_Aug_05_1541,ProdSingRedoBetween,2021.2.3,59.90807704405868,
,,,,58,0,58,0,,,,,,,,,,,,,,,,,,,,,,892.6713181000086,None,,,,,,,,,,,,,,,,,concern,58,59,sing,old,blue,889.8448741000029,None,889.8448741000029,None,1,1.4644209999969462,889.8448741000029,None,1.4644209999969462,891.335874700002,None,891.8431558000011,None,891.8431558000011,None,n,0.80262680001033,891.8431558000011,None,0.80262680001033,,,Sing18,001,2022_Aug_05_1541,ProdSingRedoBetween,2021.2.3,59.90807704405868,
,,,,59,0,59,0,,,,,,,,,,,,,,,,,,,,,,896.2407979999989,None,,,,,,,,,,,,,,,,,produce,93,60,sing,new,null,893.1745710000105,None,893.1745710000105,None,1,1.6467663000075845,893.1745710000105,None,1.6467663000075845,894.8423088999989,None,895.3568385000108,None,895.3568385000108,None,n,0.8646028000075603,895.3568385000108,None,0.8646028000075603,,,Sing18,001,2022_Aug_05_1541,ProdSingRedoBetween,2021.2.3,59.90807704405868,
,,,,60,0,60,0,,,,,,,,,,,,,,,,,,,,,,900.1113478000043,None,,,,,,,,,,,,,,,,,quantity,29,61,sing,old,blue,896.751024600002,None,896.751024600002,None,3,2.1743031999940285,896.751024600002,None,2.1743031999940285,898.9451523000025,None,899.451115600008,None,899.451115600008,None,n,0.6423266000056174,899.451115600008,None,0.6423266000056174,,,Sing18,001,2022_Aug_05_1541,ProdSingRedoBetween,2021.2.3,59.90807704405868,
,,,,61,0,61,0,,,,,,,,,,,,,,,,,,,,,,903.2310120000038,None,,,,,,,,,,,,,,,,,break,14,62,sing,old,yellow,900.6250032000098,None,900.6250032000098,None,1,1.3084150999929989,900.6250032000098,None,1.3084150999929989,901.9640647000051,None,902.4638359000091,None,902.4638359000091,None,n,0.7497364000009838,902.4638359000091,None,0.7497364000009838,,,Sing18,001,2022_Aug_05_1541,ProdSingRedoBetween,2021.2.3,59.90807704405868,
,,,,62,0,62,0,,,,,,,,,,,,,,,,,,,,,,906.7679563999991,None,,,,,,,,,,,,,,,,,welcome,22,63,sing,old,yellow,903.7344808000053,None,903.7344808000053,None,4,2.0629475000023376,903.7344808000053,None,2.0629475000023376,905.8183583000064,None,906.3235466000042,None,906.3235466000042,None,n,0.42600320000201464,906.3235466000042,None,0.42600320000201464,,,Sing18,001,2022_Aug_05_1541,ProdSingRedoBetween,2021.2.3,59.90807704405868,
,,,,63,0,63,0,,,,,,,,,,,,,,,,,,,,,,914.9928228000063,None,,,,,,,,,,,,,,,,,theme,173,64,sing,new,null,907.2712366000051,None,907.2712366000051,None,4,6.846162500005448,907.2712366000051,None,6.846162500005448,914.1429709000076,None,914.6475283000036,None,914.6475283000036,None,n,0.31780849999631755,914.6475283000036,None,0.31780849999631755,,,Sing18,001,2022_Aug_05_1541,ProdSingRedoBetween,2021.2.3,59.90807704405868,
,,,,64,0,64,0,,,,,,,,,,,,,,,,,,,,,,918.1459566000121,None,,,,,,,,,,,,,,,,,congress,53,65,sing,old,blue,915.5051480000111,None,915.5051480000111,None,6,1.6122417000005953,915.5051480000111,None,1.6122417000005953,917.1459070000128,None,917.6520242000115,None,917.6520242000115,None,n,0.46540879999520257,917.6520242000115,None,0.46540879999520257,,,Sing18,001,2022_Aug_05_1541,ProdSingRedoBetween,2021.2.3,59.90807704405868,
,,,,65,0,65,0,,,,,,,,,,,,,,,,,,,,,,923.7350474000123,None,,,,,,,,,,,,,,,,,message,66,66,sing,old,red,918.6496737000125,None,918.6496737000125,None,4,2.2357286000042222,918.6496737000125,None,2.2357286000042222,920.9162978000095,None,921.4210068000102,None,921.4210068000102,None,f,2.2965397000079975,921.4210068000102,None,2.2965397000079975,,,Sing18,001,2022_Aug_05_1541,ProdSingRedoBetween,2021.2.3,59.90807704405868,
,,,,66,0,66,0,,,,,,,,,,,,,,,,,,,,,,928.3250503000017,None,,,,,,,,,,,,,,,,,impact,135,67,sing,new,null,924.2427788000059,None,924.2427788000059,None,1,3.474711100003333,924.2427788000059,None,3.474711100003333,927.7436951000127,None,928.2561874000094,None,928.2561874000094,None,n,0.045327500003622845,928.2561874000094,None,0.045327500003622845,,,Sing18,001,2022_Aug_05_1541,ProdSingRedoBetween,2021.2.3,59.90807704405868,
,,,,67,0,67,0,,,,,,,,,,,,,,,,,,,,,,931.5592882000055,None,,,,,,,,,,,,,,,,,quick,26,68,sing,old,yellow,928.8417083000095,None,928.8417083000095,None,1,1.011724800002412,928.8417083000095,None,1.011724800002412,929.8801501000125,None,930.3916387000063,None,930.3916387000063,None,n,1.1496832999982871,930.3916387000063,None,1.1496832999982871,,,Sing18,001,2022_Aug_05_1541,ProdSingRedoBetween,2021.2.3,59.90807704405868,
,,,,68,0,68,0,,,,,,,,,,,,,,,,,,,,,,938.0992729999998,None,,,,,,,,,,,,,,,,,broad,39,69,sing,old,blue,932.0693214000057,None,932.0693214000057,None,1,1.1121043000021018,932.0693214000057,None,1.1121043000021018,933.2186045999988,None,933.728436800011,None,933.728436800011,None,r,4.34895119999419,933.728436800011,None,4.34895119999419,,,Sing18,001,2022_Aug_05_1541,ProdSingRedoBetween,2021.2.3,59.90807704405868,
,,,,69,0,69,0,,,,,,,,,,,,,,,,,,,,,,942.8592260000005,None,,,,,,,,,,,,,,,,,community,125,70,sing,new,null,938.6111969000049,None,938.6111969000049,None,1,3.6180766000034055,938.6111969000049,None,3.6180766000034055,942.2564602000057,None,942.770543000006,None,942.770543000006,None,n,0.06693439999071416,942.770543000006,None,0.06693439999071416,,,Sing18,001,2022_Aug_05_1541,ProdSingRedoBetween,2021.2.3,59.90807704405868,
,,,,70,0,70,0,,,,,,,,,,,,,,,,,,,,,,947.375172,None,,,,,,,,,,,,,,,,,course,88,71,sing,old,red,943.389357100008,None,943.389357100008,None,4,1.0480099999986123,943.389357100008,None,1.0480099999986123,944.4555686000094,None,944.956242500004,None,944.956242500004,None,f,2.401110899998457,944.956242500004,None,2.401110899998457,,,Sing18,001,2022_Aug_05_1541,ProdSingRedoBetween,2021.2.3,59.90807704405868,
,,,,71,0,71,0,,,,,,,,,,,,,,,,,,,,,,951.412542200007,None,,,,,,,,,,,,,,,,,member,111,72,sing,new,null,947.8816711000109,None,947.8816711000109,None,1,1.9876937999943038,947.8816711000109,None,1.9876937999943038,949.8943200000067,None,950.3989870000078,None,950.3989870000078,None,n,0.9984046000026865,950.3989870000078,None,0.9984046000026865,,,Sing18,001,2022_Aug_05_1541,ProdSingRedoBetween,2021.2.3,59.90807704405868,
,,,,72,0,72,0,,,,,,,,,,,,,,,,,,,,,,954.1485581000015,None,,,,,,,,,,,,,,,,,close,82,73,sing,old,red,951.9223996000073,None,951.9223996000073,None,4,1.5390316999983042,951.9223996000073,None,1.5390316999983042,953.4812388999999,None,953.981827200012,None,953.981827200012,None,n,0.13564340000448283,953.981827200012,None,0.13564340000448283,,,Sing18,001,2022_Aug_05_1541,ProdSingRedoBetween,2021.2.3,59.90807704405868,
,,,,73,0,73,0,,,,,,,,,,,,,,,,,,,,,,956.9847974000004,None,,,,,,,,,,,,,,,,,election,108,74,sing,new,null,954.6695107999985,None,954.6695107999985,None,1,1.2957628000003751,954.6695107999985,None,1.2957628000003751,955.9844079000031,None,956.4896848000062,None,956.4896848000062,None,n,0.46771380001155194,956.4896848000062,None,0.46771380001155194,,,Sing18,001,2022_Aug_05_1541,ProdSingRedoBetween,2021.2.3,59.90807704405868,
,,,,74,0,74,0,,,,,,,,,,,,,,,,,,,,,,959.4205509000021,None,,,,,,,,,,,,,,,,,industry,31,75,sing,old,blue,957.4883371000033,None,957.4883371000033,None,1,1.269070099995588,957.4883371000033,None,1.269070099995588,958.787576200004,None,959.2923339000117,None,959.2923339000117,None,n,0.10501660000591073,959.2923339000117,None,0.10501660000591073,,,Sing18,001,2022_Aug_05_1541,ProdSingRedoBetween,2021.2.3,59.90807704405868,
,,,,75,0,75,0,,,,,,,,,,,,,,,,,,,,,,961.5579365000012,None,,,,,,,,,,,,,,,,,cross,134,76,sing,new,null,959.9299896000011,None,959.9299896000011,None,1,1.0353725000022678,959.9299896000011,None,1.0353725000022678,960.9899679000082,None,961.4945781999995,None,961.4945781999995,None,n,0.03897609999694396,961.4945781999995,None,0.03897609999694396,,,Sing18,001,2022_Aug_05_1541,ProdSingRedoBetween,2021.2.3,59.90807704405868,
,,,,76,0,76,0,,,,,,,,,,,,,,,,,,,,,,964.5590242000035,None,,,,,,,,,,,,,,,,,second,122,77,sing,new,null,962.0817062999995,None,962.0817062999995,None,1,1.219638100010343,962.0817062999995,None,1.219638100010343,963.3257761999994,None,963.8250097000127,None,963.8250097000127,None,n,0.7083439999987604,963.8250097000127,None,0.7083439999987604,,,Sing18,001,2022_Aug_05_1541,ProdSingRedoBetween,2021.2.3,59.90807704405868,
,,,,77,0,77,0,,,,,,,,,,,,,,,,,,,,,,967.4452101000061,None,,,,,,,,,,,,,,,,,review,178,78,sing,new,null,965.0656299000111,None,965.0656299000111,None,3,1.1718142999889096,965.0656299000111,None,1.1718142999889096,966.2659851000062,None,966.781770600006,None,966.781770600006,None,n,0.6395734000107041,966.781770600006,None,0.6395734000107041,,,Sing18,001,2022_Aug_05_1541,ProdSingRedoBetween,2021.2.3,59.90807704405868,
,,,,78,0,78,0,,,,,,,,,,,,,,,,,,,,,,969.8475466000091,None,,,,,,,,,,,,,,,,,column,179,79,sing,new,null,967.9485469000065,None,967.9485469000065,None,1,1.240802899992559,967.9485469000065,None,1.240802899992559,969.2145632000029,None,969.7208959999989,None,969.7208959999989,None,n,0.10054110000783112,969.7208959999989,None,0.10054110000783112,,,Sing18,001,2022_Aug_05_1541,ProdSingRedoBetween,2021.2.3,59.90807704405868,
,,,,79,0,79,0,,,,,,,,,,,,,,,,,,,,,,972.6836260000127,None,,,,,,,,,,,,,,,,,point,60,80,sing,old,red,970.3512162000115,None,970.3512162000115,None,2,1.1901868999993894,970.3512162000115,None,1.1901868999993894,971.5696145000111,None,972.0873130000109,None,972.0873130000109,None,n,0.5740300999896135,972.0873130000109,None,0.5740300999896135,,,Sing18,001,2022_Aug_05_1541,ProdSingRedoBetween,2021.2.3,59.90807704405868,
,,,,80,0,80,0,,,,,,,,,,,,,,,,,,,,,,974.8024640000076,None,,,,,,,,,,,,,,,,,novel,115,81,sing,new,null,973.1873111000023,None,973.1873111000023,None,1,0.9540594999998575,973.1873111000023,None,0.9540594999998575,974.1733645000058,None,974.6898775000009,None,974.6898775000009,None,n,0.0835302000050433,974.6898775000009,None,0.0835302000050433,,,Sing18,001,2022_Aug_05_1541,ProdSingRedoBetween,2021.2.3,59.90807704405868,
,,,,81,0,81,0,,,,,,,,,,,,,,,,,,,,,,976.8568404000107,None,,,,,,,,,,,,,,,,,opening,163,82,sing,new,null,975.3091062000021,None,975.3091062000021,None,1,0.9764130999974441,975.3091062000021,None,0.9764130999974441,976.3111021000077,None,976.8233727000043,None,976.8233727000043,None,n,0.006142500002169982,976.8233727000043,None,0.006142500002169982,,,Sing18,001,2022_Aug_05_1541,ProdSingRedoBetween,2021.2.3,59.90807704405868,
,,,,82,0,82,0,,,,,,,,,,,,,,,,,,,,,,979.9242399000068,None,,,,,,,,,,,,,,,,,audience,28,83,sing,old,yellow,977.3754626000009,None,977.3754626000009,None,1,0.7822798999986844,977.3754626000009,None,0.7822798999986844,978.1918858999998,None,978.7066111000022,None,978.7066111000022,None,n,1.202716200001305,978.7066111000022,None,1.202716200001305,,,Sing18,001,2022_Aug_05_1541,ProdSingRedoBetween,2021.2.3,59.90807704405868,
,,,,83,0,83,0,,,,,,,,,,,,,,,,,,,,,,982.7270865000028,None,,,,,,,,,,,,,,,,,interior,92,84,sing,new,null,980.4343741000048,None,980.4343741000048,None,1,1.1549486000003526,980.4343741000048,None,1.1549486000003526,981.6092639000126,None,982.1135439000063,None,982.1135439000063,None,n,0.5957522000098834,982.1135439000063,None,0.5957522000098834,,,Sing18,001,2022_Aug_05_1541,ProdSingRedoBetween,2021.2.3,59.90807704405868,
,,,,84,0,84,0,,,,,,,,,,,,,,,,,,,,,,985.3964468000049,None,,,,,,,,,,,,,,,,,waste,126,85,sing,new,null,983.2303793000028,None,983.2303793000028,None,1,1.1589626999921165,983.2303793000028,None,1.1589626999921165,984.4133621000074,None,984.9125944000116,None,984.9125944000116,None,n,0.4686346000089543,984.9125944000116,None,0.4686346000089543,,,Sing18,001,2022_Aug_05_1541,ProdSingRedoBetween,2021.2.3,59.90807704405868,
,,,,85,0,85,0,,,,,,,,,,,,,,,,,,,,,,988.3160058000067,None,,,,,,,,,,,,,,,,,hearing,78,86,sing,old,red,985.9043119000125,None,985.9043119000125,None,1,1.5890087000007043,985.9043119000125,None,1.5890087000007043,987.51607160001,None,988.019489000013,None,988.019489000013,None,n,0.27387289999751374,988.019489000013,None,0.27387289999751374,,,Sing18,001,2022_Aug_05_1541,ProdSingRedoBetween,2021.2.3,59.90807704405868,
,,,,86,0,86,0,,,,,,,,,,,,,,,,,,,,,,994.0216813000006,None,,,,,,,,,,,,,,,,,device,90,87,sing,new,null,988.8275685000117,None,988.8275685000117,None,1,3.9457438999961596,988.8275685000117,None,3.9457438999961596,992.8046023000061,None,993.3100328,None,993.3100328,None,n,0.6873316999990493,993.3100328,None,0.6873316999990493,,,Sing18,001,2022_Aug_05_1541,ProdSingRedoBetween,2021.2.3,59.90807704405868,
,,,,87,0,87,0,,,,,,,,,,,,,,,,,,,,,,997.425035600012,None,,,,,,,,,,,,,,,,,foundation,34,88,sing,old,blue,994.5326427000109,None,994.5326427000109,None,2,1.4327714999963064,994.5326427000109,None,1.4327714999963064,995.9912457000028,None,996.4950365000113,None,996.4950365000113,None,n,0.902246900004684,996.4950365000113,None,0.902246900004684,,,Sing18,001,2022_Aug_05_1541,ProdSingRedoBetween,2021.2.3,59.90807704405868,
,,,,88,0,88,0,,,,,,,,,,,,,,,,,,,,,,1001.479099300006,None,,,,,,,,,,,,,,,,,still,40,89,sing,old,blue,997.9364529000013,None,997.9364529000013,None,1,1.6448478000093019,997.9364529000013,None,1.6448478000093019,999.611535700009,None,1000.1112875000108,None,1000.1112875000108,None,n,1.3420310000074096,1000.1112875000108,None,1.3420310000074096,,,Sing18,001,2022_Aug_05_1541,ProdSingRedoBetween,2021.2.3,59.90807704405868,
,,,,89,0,89,0,,,,,,,,,,,,,,,,,,,,,,1004.5166079000046,None,,,,,,,,,,,,,,,,,charter,87,90,sing,old,red,1001.9882424000098,None,1001.9882424000098,None,1,1.505134299994097,1001.9882424000098,None,1.505134299994097,1003.5190590999991,None,1004.0330826999998,None,1004.0330826999998,None,n,0.4524113999941619,1004.0330826999998,None,0.4524113999941619,,,Sing18,001,2022_Aug_05_1541,ProdSingRedoBetween,2021.2.3,59.90807704405868,
,,,,90,0,90,0,,,,,,,,,,,,,,,,,,,,,,1007.7208696000016,None,,,,,,,,,,,,,,,,,service,148,91,sing,new,null,1005.0205641000066,None,1005.0205641000066,None,1,1.672739300003741,1005.0205641000066,None,1.672739300003741,1006.7309619000007,None,1007.2348615000083,None,1007.2348615000083,None,n,0.466397500000312,1007.2348615000083,None,0.466397500000312,,,Sing18,001,2022_Aug_05_1541,ProdSingRedoBetween,2021.2.3,59.90807704405868,
,,,,91,0,91,0,,,,,,,,,,,,,,,,,,,,,,1010.9553597000049,None,,,,,,,,,,,,,,,,,bitter,4,92,sing,old,yellow,1008.2385457000055,None,1008.2385457000055,None,1,1.366735500007053,1008.2385457000055,None,1.366735500007053,1009.6215792000003,None,1010.1227163000003,None,1010.1227163000003,None,n,0.8026224999921396,1010.1227163000003,None,0.8026224999921396,,,Sing18,001,2022_Aug_05_1541,ProdSingRedoBetween,2021.2.3,59.90807704405868,
,,,,92,0,92,0,,,,,,,,,,,,,,,,,,,,,,1013.5744469000056,None,,,,,,,,,,,,,,,,,power,44,93,sing,old,blue,1011.4582096000086,None,1011.4582096000086,None,1,1.2032390999956988,1011.4582096000086,None,1.2032390999956988,1012.6950202000007,None,1013.2077341000113,None,1013.2077341000113,None,n,0.341584599998896,1013.2077341000113,None,0.341584599998896,,,Sing18,001,2022_Aug_05_1541,ProdSingRedoBetween,2021.2.3,59.90807704405868,
,,,,93,0,93,0,,,,,,,,,,,,,,,,,,,,,,1018.0455858000059,None,,,,,,,,,,,,,,,,,birth,95,94,sing,new,null,1014.0782059000048,None,1014.0782059000048,None,3,2.5510852000006707,1014.0782059000048,None,2.5510852000006707,1016.644214800006,None,1017.1474022000039,None,1017.1474022000039,None,f,0.8819827000115765,1017.1474022000039,None,0.8819827000115765,,,Sing18,001,2022_Aug_05_1541,ProdSingRedoBetween,2021.2.3,59.90807704405868,
,,,,94,0,94,0,,,,,,,,,,,,,,,,,,,,,,1021.0653758000117,None,,,,,,,,,,,,,,,,,pancakes,157,95,sing,new,null,1018.5586459000042,None,1018.5586459000042,None,1,1.7186290000099689,1018.5586459000042,None,1.7186290000099689,1020.2994796999992,None,1020.8153032000118,None,1020.8153032000118,None,n,0.22998989999177866,1020.8153032000118,None,0.22998989999177866,,,Sing18,001,2022_Aug_05_1541,ProdSingRedoBetween,2021.2.3,59.90807704405868,
,,,,95,0,95,0,,,,,,,,,,,,,,,,,,,,,,1023.5178109000117,None,,,,,,,,,,,,,,,,,straight,112,96,sing,new,null,1021.5738471000077,None,1021.5738471000077,None,1,1.3593997999996645,1021.5738471000077,None,1.3593997999996645,1022.9518584000034,None,1023.4570404000115,None,1023.4570404000115,None,n,0.036419299998669885,1023.4570404000115,None,0.036419299998669885,,,Sing18,001,2022_Aug_05_1541,ProdSingRedoBetween,2021.2.3,59.90807704405868,
,,,,96,0,96,0,,,,,,,,,,,,,,,,,,,,,,1025.4697804000025,None,,,,,,,,,,,,,,,,,express,130,97,sing,new,null,1024.0213356000022,None,1024.0213356000022,None,1,0.8561838000023272,1024.0213356000022,None,0.8561838000023272,1024.9094938000053,None,1025.4216648000001,None,1025.4216648000001,None,n,0.023646300003747456,1025.4216648000001,None,0.023646300003747456,,,Sing18,001,2022_Aug_05_1541,ProdSingRedoBetween,2021.2.3,59.90807704405868,
,,,,97,0,97,0,,,,,,,,,,,,,,,,,,,,,,1028.4393393000064,None,,,,,,,,,,,,,,,,,production,15,98,sing,old,yellow,1025.9871860999992,None,1025.9871860999992,None,3,1.5860818000073778,1025.9871860999992,None,1.5860818000073778,1027.589717400013,None,1028.0915479000105,None,1028.0915479000105,None,n,0.3217973999999231,1028.0915479000105,None,0.3217973999999231,,,Sing18,001,2022_Aug_05_1541,ProdSingRedoBetween,2021.2.3,59.90807704405868,
,,,,98,0,98,0,,,,,,,,,,,,,,,,,,,,,,1031.7959938999993,None,,,,,,,,,,,,,,,,,match,159,99,sing,new,null,1028.941541799999,None,1028.941541799999,None,1,2.1677291999949375,1028.941541799999,None,2.1677291999949375,1031.1253167000104,None,1031.628302600002,None,1031.628302600002,None,n,0.1451727999956347,1031.628302600002,None,0.1451727999956347,,,Sing18,001,2022_Aug_05_1541,ProdSingRedoBetween,2021.2.3,59.90807704405868,
,,,,99,0,99,0,,,,,,,,,,,,,,,,,,,,,,1035.0138640000077,None,,,,,,,,,,,,,,,,,bureau,61,100,sing,old,red,1032.31694840001,None,1032.31694840001,None,1,1.5363160999986576,1032.31694840001,None,1.5363160999986576,1033.8799174000014,None,1034.3955960000021,None,1034.3955960000021,None,n,0.5937552999967011,1034.3955960000021,None,0.5937552999967011,,,Sing18,001,2022_Aug_05_1541,ProdSingRedoBetween,2021.2.3,59.90807704405868,
,,,,100,0,100,0,,,,,,,,,,,,,,,,,,,,,,1037.2147724000097,None,,,,,,,,,,,,,,,,,skill,114,101,sing,new,null,1035.5190207000123,None,1035.5190207000123,None,1,0.5745614000043133,1035.5190207000123,None,0.5745614000043133,1036.1324334000092,None,1036.6519767999998,None,1036.6519767999998,None,n,0.5372995000070659,1036.6519767999998,None,0.5372995000070659,,,Sing18,001,2022_Aug_05_1541,ProdSingRedoBetween,2021.2.3,59.90807704405868,
,,,,101,0,101,0,,,,,,,,,,,,,,,,,,,,,,1039.2334806,None,,,,,,,,,,,,,,,,,music,81,102,sing,old,red,1037.7257689000107,None,1037.7257689000107,None,1,0.8473861000093166,1037.7257689000107,None,0.8473861000093166,1038.6021160000091,None,1039.1233963999985,None,1039.1233963999985,None,n,0.08183300000382587,1039.1233963999985,None,0.08183300000382587,,,Sing18,001,2022_Aug_05_1541,ProdSingRedoBetween,2021.2.3,59.90807704405868,
,,,,102,0,102,0,,,,,,,,,,,,,,,,,,,,,,1041.7860158000112,None,,,,,,,,,,,,,,,,,empty,38,103,sing,old,blue,1039.7433939000039,None,1039.7433939000039,None,1,0.8378646999917692,1039.7433939000039,None,0.8378646999917692,1040.6027896000014,None,1041.1078339000087,None,1041.1078339000087,None,n,0.6574563000031048,1041.1078339000087,None,0.6574563000031048,,,Sing18,001,2022_Aug_05_1541,ProdSingRedoBetween,2021.2.3,59.90807704405868,
,,,,103,0,103,0,,,,,,,,,,,,,,,,,,,,,,1044.422013400006,None,,,,,,,,,,,,,,,,,equipment,128,104,sing,new,null,1042.2995279000024,None,1042.2995279000024,None,1,1.4257391999999527,1042.2995279000024,None,1.4257391999999527,1043.7547237000108,None,1044.2552781000122,None,1044.2552781000122,None,n,0.14201060000050347,1044.2552781000122,None,0.14201060000050347,,,Sing18,001,2022_Aug_05_1541,ProdSingRedoBetween,2021.2.3,59.90807704405868,
,,,,104,0,104,0,,,,,,,,,,,,,,,,,,,,,,1046.8492718000052,None,,,,,,,,,,,,,,,,,beginning,154,105,sing,new,null,1044.9224057000101,None,1044.9224057000101,None,2,1.3628515000018524,1044.9224057000101,None,1.3628515000018524,1046.3073778000107,None,1046.8141496000026,None,1046.8141496000026,None,n,0.007288600012543611,1046.8141496000026,None,0.007288600012543611,,,Sing18,001,2022_Aug_05_1541,ProdSingRedoBetween,2021.2.3,59.90807704405868,
,,,,105,0,105,0,,,,,,,,,,,,,,,,,,,,,,1048.809689200003,None,,,,,,,,,,,,,,,,,literature,67,106,sing,old,red,1047.3661591000127,None,1047.3661591000127,None,1,0.6873105999984546,1047.3661591000127,None,0.6873105999984546,1048.085194600004,None,1048.592962900002,None,1048.592962900002,None,n,0.18836230000306387,1048.592962900002,None,0.18836230000306387,,,Sing18,001,2022_Aug_05_1541,ProdSingRedoBetween,2021.2.3,59.90807704405868,
,,,,106,0,106,0,,,,,,,,,,,,,,,,,,,,,,1051.3455579000001,None,,,,,,,,,,,,,,,,,country,170,107,sing,new,null,1049.323975300009,None,1049.323975300009,None,1,0.8893744999950286,1049.323975300009,None,0.8893744999950286,1050.2453888000018,None,1050.749244400009,None,1050.749244400009,None,n,0.5759935000096448,1050.749244400009,None,0.5759935000096448,,,Sing18,001,2022_Aug_05_1541,ProdSingRedoBetween,2021.2.3,59.90807704405868,
,,,,107,0,107,0,,,,,,,,,,,,,,,,,,,,,,1054.1816585000051,None,,,,,,,,,,,,,,,,,resistance,174,108,sing,new,null,1051.8563063000038,None,1051.8563063000038,None,1,1.7409818000014639,1051.8563063000038,None,1.7409818000014639,1053.6225498999993,None,1054.1317905000033,None,1054.1317905000033,None,n,0.033597700006794184,1054.1317905000033,None,0.033597700006794184,,,Sing18,001,2022_Aug_05_1541,ProdSingRedoBetween,2021.2.3,59.90807704405868,
,,,,108,0,108,0,,,,,,,,,,,,,,,,,,,,,,1056.7842416000058,None,,,,,,,,,,,,,,,,,sound,52,109,sing,old,blue,1054.685659300012,None,1054.685659300012,None,1,0.8556010000029346,1054.685659300012,None,0.8556010000029346,1055.5684929000126,None,1056.0858953999996,None,1056.0858953999996,None,n,0.6793719999986934,1056.0858953999996,None,0.6793719999986934,,,Sing18,001,2022_Aug_05_1541,ProdSingRedoBetween,2021.2.3,59.90807704405868,
,,,,109,0,109,0,,,,,,,,,,,,,,,,,,,,,,1059.0031772000075,None,,,,,,,,,,,,,,,,,smell,172,110,sing,new,null,1057.2875916000048,None,1057.2875916000048,None,1,0.9337605000037001,1057.2875916000048,None,0.9337605000037001,1058.253264900006,None,1058.7576647000096,None,1058.7576647000096,None,n,0.21572249999735504,1058.7576647000096,None,0.21572249999735504,,,Sing18,001,2022_Aug_05_1541,ProdSingRedoBetween,2021.2.3,59.90807704405868,
,,,,110,0,110,0,,,,,,,,,,,,,,,,,,,,,,1060.9052028000006,None,,,,,,,,,,,,,,,,,revolution,176,111,sing,new,null,1059.5077716000087,None,1059.5077716000087,None,1,0.7776591000001645,1059.5077716000087,None,0.7776591000001645,1060.3100596000004,None,1060.8227721000003,None,1060.8227721000003,None,n,0.06251660000998527,1060.8227721000003,None,0.06251660000998527,,,Sing18,001,2022_Aug_05_1541,ProdSingRedoBetween,2021.2.3,59.90807704405868,
,,,,111,0,111,0,,,,,,,,,,,,,,,,,,,,,,1063.0923343000031,None,,,,,,,,,,,,,,,,,machinery,47,112,sing,old,blue,1061.4148049000069,None,1061.4148049000069,None,1,1.0224438000004739,1061.4148049000069,None,1.0224438000004739,1062.4579847999994,None,1062.957223000005,None,1062.957223000005,None,n,0.10407310001028236,1062.957223000005,None,0.10407310001028236,,,Sing18,001,2022_Aug_05_1541,ProdSingRedoBetween,2021.2.3,59.90807704405868,
,,,,112,0,112,0,,,,,,,,,,,,,,,,,,,,,,1064.9758259000082,None,,,,,,,,,,,,,,,,,display,6,113,sing,old,yellow,1063.6136717000045,None,1063.6136717000045,None,1,0.7675245999998879,1063.6136717000045,None,0.7675245999998879,1064.4095309000113,None,1064.9143635000073,None,1064.9143635000073,None,n,0.042968699999619275,1064.9143635000073,None,0.042968699999619275,,,Sing18,001,2022_Aug_05_1541,ProdSingRedoBetween,2021.2.3,59.90807704405868,
,,,,113,0,113,0,,,,,,,,,,,,,,,,,,,,,,1067.4115451000107,None,,,,,,,,,,,,,,,,,frank,7,114,sing,old,yellow,1065.4829066000093,None,1065.4829066000093,None,1,0.7623564000095939,1065.4829066000093,None,0.7623564000095939,1066.2622035000095,None,1066.7816435999994,None,1066.7816435999994,None,n,0.6076111000002129,1066.7816435999994,None,0.6076111000002129,,,Sing18,001,2022_Aug_05_1541,ProdSingRedoBetween,2021.2.3,59.90807704405868,
,,,,114,0,114,0,,,,,,,,,,,,,,,,,,,,,,1074.8690997000085,None,,,,,,,,,,,,,,,,,military,49,115,sing,old,blue,1067.9215075000102,None,1067.9215075000102,None,6,3.219648899990716,1067.9215075000102,None,3.219648899990716,1071.1690634000115,None,1071.682695800002,None,1071.682695800002,None,r,3.1624730000039563,1071.682695800002,None,3.1624730000039563,,,Sing18,001,2022_Aug_05_1541,ProdSingRedoBetween,2021.2.3,59.90807704405868,
,,,,115,0,115,0,,,,,,,,,,,,,,,,,,,,,,1077.4049411000015,None,,,,,,,,,,,,,,,,,answer,119,116,sing,new,null,1075.3714362000028,None,1075.3714362000028,None,1,1.4497946000046795,1075.3714362000028,None,1.4497946000046795,1076.8376531000104,None,1077.3502614000026,None,1077.3502614000026,None,n,0.03112159999727737,1077.3502614000026,None,0.03112159999727737,,,Sing18,001,2022_Aug_05_1541,ProdSingRedoBetween,2021.2.3,59.90807704405868,
,,,,116,0,116,0,,,,,,,,,,,,,,,,,,,,,,1080.3578032000078,None,,,,,,,,,,,,,,,,,space,54,117,sing,old,blue,1077.909002600005,None,1077.909002600005,None,1,1.3922191000019666,1077.909002600005,None,1.3922191000019666,1079.324777700007,None,1079.8240886999993,None,1079.8240886999993,None,n,0.5092799999983981,1079.8240886999993,None,0.5092799999983981,,,Sing18,001,2022_Aug_05_1541,ProdSingRedoBetween,2021.2.3,59.90807704405868,
,,,,117,0,117,0,,,,,,,,,,,,,,,,,,,,,,1083.697290000011,None,,,,,,,,,,,,,,,,,author,72,118,sing,old,red,1080.863819700011,None,1080.863819700011,None,6,1.4214359000034165,1080.863819700011,None,1.4214359000034165,1082.309830099999,None,1082.8127512000065,None,1082.8127512000065,None,f,0.8645934000087436,1082.8127512000065,None,0.8645934000087436,,,Sing18,001,2022_Aug_05_1541,ProdSingRedoBetween,2021.2.3,59.90807704405868,
,,,,118,0,118,0,,,,,,,,,,,,,,,,,,,,,,1086.8143853000074,None,,,,,,,,,,,,,,,,,engineer,32,119,sing,old,blue,1084.2158850000123,None,1084.2158850000123,None,4,1.9093373999930918,1084.2158850000123,None,1.9093373999930918,1086.147842700011,None,1086.650794400004,None,1086.650794400004,None,r,0.13845830000354908,1086.650794400004,None,0.13845830000354908,,,Sing18,001,2022_Aug_05_1541,ProdSingRedoBetween,2021.2.3,59.90807704405868,
,,,,119,0,119,0,,,,,,,,,,,,,,,,,,,,,,1092.887069000004,None,,,,,,,,,,,,,,,,,poetry,121,120,sing,new,null,1087.3165636000049,None,1087.3165636000049,None,4,4.104644299994106,1087.3165636000049,None,4.104644299994106,1091.453164999999,None,1091.9571302000113,None,1091.9571302000113,None,n,0.9120482000143966,1091.9571302000113,None,0.9120482000143966,,,Sing18,001,2022_Aug_05_1541,ProdSingRedoBetween,2021.2.3,59.90807704405868,
,,,,120,0,120,0,,,,,,,,,,,,,,,,,,,,,,1096.5740317000018,None,,,,,,,,,,,,,,,,,principal,152,121,sing,new,null,1093.3904896000022,None,1093.3904896000022,None,1,1.9587155999906827,1093.3904896000022,None,1.9587155999906827,1095.3740538999991,None,1095.8870953000005,None,1095.8870953000005,None,n,0.6701115999894682,1095.8870953000005,None,0.6701115999894682,,,Sing18,001,2022_Aug_05_1541,ProdSingRedoBetween,2021.2.3,59.90807704405868,
,,,,121,0,121,0,,,,,,,,,,,,,,,,,,,,,,1099.595717300006,None,,,,,,,,,,,,,,,,,volume,146,122,sing,new,null,1097.0828313000093,None,1097.0828313000093,None,2,1.2663542999944184,1097.0828313000093,None,1.2663542999944184,1098.3768406000017,None,1098.881077099999,None,1098.881077099999,None,n,0.6842742000008002,1098.881077099999,None,0.6842742000008002,,,Sing18,001,2022_Aug_05_1541,ProdSingRedoBetween,2021.2.3,59.90807704405868,
,,,,122,0,122,0,,,,,,,,,,,,,,,,,,,,,,1102.3131434000097,None,,,,,,,,,,,,,,,,,trail,101,123,sing,new,null,1100.114287400007,None,1100.114287400007,None,1,1.218930499991984,1100.114287400007,None,1.218930499991984,1101.3621221000067,None,1101.8660854000045,None,1101.8660854000045,None,n,0.4191534999990836,1101.8660854000045,None,0.4191534999990836,,,Sing18,001,2022_Aug_05_1541,ProdSingRedoBetween,2021.2.3,59.90807704405868,
,,,,123,0,123,0,,,,,,,,,,,,,,,,,,,,,,1105.8167156000127,None,,,,,,,,,,,,,,,,,judge,75,124,sing,old,red,1102.8245958000043,None,1102.8245958000043,None,5,2.1885045999952126,1102.8245958000043,None,2.1885045999952126,1105.034459500006,None,1105.5498277000006,None,1105.5498277000006,None,n,0.23931930000253487,1105.5498277000006,None,0.23931930000253487,,,Sing18,001,2022_Aug_05_1541,ProdSingRedoBetween,2021.2.3,59.90807704405868,
,,,,124,0,124,0,,,,,,,,,,,,,,,,,,,,,,1108.8029386999988,None,,,,,,,,,,,,,,,,,scene,99,125,sing,new,null,1106.3255124999996,None,1106.3255124999996,None,1,1.5116751000023214,1106.3255124999996,None,1.5116751000023214,1107.8532478999987,None,1108.3549955000053,None,1108.3549955000053,None,n,0.4261878999968758,1108.3549955000053,None,0.4261878999968758,,,Sing18,001,2022_Aug_05_1541,ProdSingRedoBetween,2021.2.3,59.90807704405868,
,,,,125,0,125,0,,,,,,,,,,,,,,,,,,,,,,1111.2219742000016,None,,,,,,,,,,,,,,,,,agreement,113,126,sing,new,null,1109.309555800006,None,1109.309555800006,None,1,1.2796675999998115,1109.309555800006,None,1.2796675999998115,1110.604746900004,None,1111.1093984000036,None,1111.1093984000036,None,n,0.0878167999908328,1111.1093984000036,None,0.0878167999908328,,,Sing18,001,2022_Aug_05_1541,ProdSingRedoBetween,2021.2.3,59.90807704405868,
,,,,126,0,126,0,,,,,,,,,,,,,,,,,,,,,,1113.4909726000042,None,,,,,,,,,,,,,,,,,testimony,155,127,sing,new,null,1111.7334722000087,None,1111.7334722000087,None,1,1.1437129999976605,1111.7334722000087,None,1.1437129999976605,1112.9079621000128,None,1113.412273400012,None,1113.412273400012,None,n,0.05697029999282677,1113.412273400012,None,0.05697029999282677,,,Sing18,001,2022_Aug_05_1541,ProdSingRedoBetween,2021.2.3,59.90807704405868,
,,,,127,0,127,0,,,,,,,,,,,,,,,,,,,,,,1118.2137169000052,None,,,,,,,,,,,,,,,,,murder,79,128,sing,old,red,1113.9938595999993,None,1113.9938595999993,None,6,1.819409599993378,1113.9938595999993,None,1.819409599993378,1115.8472755000112,None,1116.3606272000034,None,1116.3606272000034,None,r,1.8289629999926547,1116.3606272000034,None,1.8289629999926547,,,Sing18,001,2022_Aug_05_1541,ProdSingRedoBetween,2021.2.3,59.90807704405868,
,,,,128,0,128,0,,,,,,,,,,,,,,,,,,,,,,1121.815915500003,None,,,,,,,,,,,,,,,,,shear,55,129,sing,old,blue,1118.7315216999996,None,1118.7315216999996,None,1,2.233551900004386,1118.7315216999996,None,2.233551900004386,1120.9849888000026,None,1121.500715400005,None,1121.500715400005,None,n,0.2964979999960633,1121.500715400005,None,0.2964979999960633,,,Sing18,001,2022_Aug_05_1541,ProdSingRedoBetween,2021.2.3,59.90807704405868,
,,,,129,0,129,0,,,,,,,,,,,,,,,,,,,,,,1125.6547947000072,None,,,,,,,,,,,,,,,,,staff,83,130,sing,old,red,1122.3261024000094,None,1122.3261024000094,None,1,2.69516350000049,1122.3261024000094,None,2.69516350000049,1125.052563300007,None,1125.5562869999994,None,1125.5562869999994,None,n,0.08104949998960365,1125.5562869999994,None,0.08104949998960365,,,Sing18,001,2022_Aug_05_1541,ProdSingRedoBetween,2021.2.3,59.90807704405868,
,,,,130,0,130,0,,,,,,,,,,,,,,,,,,,,,,1128.4087230000005,None,,,,,,,,,,,,,,,,,youth,102,131,sing,new,null,1126.1850039000128,None,1126.1850039000128,None,1,1.100267799993162,1126.1850039000128,None,1.100267799993162,1127.3134872000082,None,1127.8220457999996,None,1127.8220457999996,None,n,0.5671113999997033,1127.8220457999996,None,0.5671113999997033,,,Sing18,001,2022_Aug_05_1541,ProdSingRedoBetween,2021.2.3,59.90807704405868,
,,,,131,0,131,0,,,,,,,,,,,,,,,,,,,,,,1132.1262362999987,None,,,,,,,,,,,,,,,,,generation,144,132,sing,new,null,1128.9231555000006,None,1128.9231555000006,None,2,2.185912200002349,1128.9231555000006,None,2.185912200002349,1131.1265906000044,None,1131.6424039000121,None,1131.6424039000121,None,n,0.4667174999922281,1131.6424039000121,None,0.4667174999922281,,,Sing18,001,2022_Aug_05_1541,ProdSingRedoBetween,2021.2.3,59.90807704405868,
,,,,132,0,132,0,,,,,,,,,,,,,,,,,,,,,,1135.3126444000081,None,,,,,,,,,,,,,,,,,sight,0,133,sing,old,yellow,1132.6294039000059,None,1132.6294039000059,None,1,1.8076962000050116,1132.6294039000059,None,1.8076962000050116,1134.4634552000061,None,1134.979023100008,None,1134.979023100008,None,n,0.3140849000046728,1134.979023100008,None,0.3140849000046728,,,Sing18,001,2022_Aug_05_1541,ProdSingRedoBetween,2021.2.3,59.90807704405868,
,,,,133,0,133,0,,,,,,,,,,,,,,,,,,,,,,1138.5825686000026,None,,,,,,,,,,,,,,,,,strain,86,134,sing,old,red,1135.8132361000025,None,1135.8132361000025,None,1,1.975878900004318,1135.8132361000025,None,1.975878900004318,1137.8163723000034,None,1138.321509500005,None,1138.321509500005,None,n,0.24362719999044202,1138.321509500005,None,0.24362719999044202,,,Sing18,001,2022_Aug_05_1541,ProdSingRedoBetween,2021.2.3,59.90807704405868,
,,,,134,0,134,0,,,,,,,,,,,,,,,,,,,,,,1141.268716800012,None,,,,,,,,,,,,,,,,,symbol,45,135,sing,old,blue,1139.0911049999995,None,1139.0911049999995,None,1,1.45813499999349,1139.0911049999995,None,1.45813499999349,1140.5701946000045,None,1141.0852637000062,None,1141.0852637000062,None,n,0.1599350000033155,1141.0852637000062,None,0.1599350000033155,,,Sing18,001,2022_Aug_05_1541,ProdSingRedoBetween,2021.2.3,59.90807704405868,
,,,,135,0,135,0,,,,,,,,,,,,,,,,,,,,,,1143.3875049000053,None,,,,,,,,,,,,,,,,,cover,116,136,sing,new,null,1141.7786202999996,None,1141.7786202999996,None,1,0.8584922000009101,1141.7786202999996,None,0.8584922000009101,1142.6548212000052,None,1143.1597684000008,None,1143.1597684000008,None,n,0.19745930000499357,1143.1597684000008,None,0.19745930000499357,,,Sing18,001,2022_Aug_05_1541,ProdSingRedoBetween,2021.2.3,59.90807704405868,
,,,,136,0,136,0,,,,,,,,,,,,,,,,,,,,,,1145.7450857000076,None,,,,,,,,,,,,,,,,,design,30,137,sing,old,blue,1143.9076912000019,None,1143.9076912000019,None,2,1.1053543000016361,1143.9076912000019,None,1.1053543000016361,1145.0403443000105,None,1145.5453989000089,None,1145.5453989000089,None,n,0.1719814999960363,1145.5453989000089,None,0.1719814999960363,,,Sing18,001,2022_Aug_05_1541,ProdSingRedoBetween,2021.2.3,59.90807704405868,
,,,,137,0,137,0,,,,,,,,,,,,,,,,,,,,,,1148.142179900009,None,,,,,,,,,,,,,,,,,gesture,104,138,sing,new,null,1146.263178100009,None,1146.263178100009,None,1,0.9820134000037797,1146.263178100009,None,0.9820134000037797,1147.2777226000035,None,1147.7932636000041,None,1147.7932636000041,None,n,0.33185850000882056,1147.7932636000041,None,0.33185850000882056,,,Sing18,001,2022_Aug_05_1541,ProdSingRedoBetween,2021.2.3,59.90807704405868,
,,,,138,0,138,0,,,,,,,,,,,,,,,,,,,,,,1153.063906100011,None,,,,,,,,,,,,,,,,,health,69,139,sing,old,red,1148.6443674000038,None,1148.6443674000038,None,4,3.6168775999976788,1148.6443674000038,None,3.6168775999976788,1152.2832800000033,None,1152.7999708999996,None,1152.7999708999996,None,n,0.24531740001111757,1152.7999708999996,None,0.24531740001111757,,,Sing18,001,2022_Aug_05_1541,ProdSingRedoBetween,2021.2.3,59.90807704405868,
,,,,139,0,139,0,,,,,,,,,,,,,,,,,,,,,,1157.7183833000017,None,,,,,,,,,,,,,,,,,native,50,140,sing,old,blue,1153.5705600000074,None,1153.5705600000074,None,6,2.2826211000065086,1153.5705600000074,None,2.2826211000065086,1155.8832608000084,None,1156.3882674000051,None,1156.3882674000051,None,r,1.3048655000020517,1156.3882674000051,None,1.3048655000020517,,,Sing18,001,2022_Aug_05_1541,ProdSingRedoBetween,2021.2.3,59.90807704405868,
,,,,140,0,140,0,,,,,,,,,,,,,,,,,,,,,,1160.856746000005,None,,,,,,,,,,,,,,,,,speech,129,141,sing,new,null,1158.2219030999986,None,1158.2219030999986,None,3,1.3672643000027165,1158.2219030999986,None,1.3672643000027165,1159.62118680001,None,1160.124985900009,None,1160.124985900009,None,f,0.7041945999953896,1160.124985900009,None,0.7041945999953896,,,Sing18,001,2022_Aug_05_1541,ProdSingRedoBetween,2021.2.3,59.90807704405868,
,,,,141,0,141,0,,,,,,,,,,,,,,,,,,,,,,1164.1915781999996,None,,,,,,,,,,,,,,,,,quarter,48,142,sing,old,blue,1161.3830901000038,None,1161.3830901000038,None,6,1.526195700003882,1161.3830901000038,None,1.526195700003882,1162.9411132000096,None,1163.4409706000006,None,1163.4409706000006,None,r,0.7241720000019995,1163.4409706000006,None,0.7241720000019995,,,Sing18,001,2022_Aug_05_1541,ProdSingRedoBetween,2021.2.3,59.90807704405868,
,,,,142,0,142,0,,,,,,,,,,,,,,,,,,,,,,1169.7638377000112,None,,,,,,,,,,,,,,,,,subject,56,143,sing,old,blue,1164.7004046000075,None,1164.7004046000075,None,1,3.52894109999761,1164.7004046000075,None,3.52894109999761,1168.2521727999992,None,1168.7664248000074,None,1168.7664248000074,None,n,0.974773499998264,1168.7664248000074,None,0.974773499998264,,,Sing18,001,2022_Aug_05_1541,ProdSingRedoBetween,2021.2.3,59.90807704405868,
,,,,143,0,143,0,,,,,,,,,,,,,,,,,,,,,,1178.1721580000012,None,,,,,,,,,,,,,,,,,title,70,144,sing,old,red,1170.2728905000113,None,1170.2728905000113,None,3,6.1402604000031715,1170.2728905000113,None,6.1402604000031715,1176.439635200004,None,1176.9555117000127,None,1176.9555117000127,None,n,1.2015996999980416,1176.9555117000127,None,1.2015996999980416,,,Sing18,001,2022_Aug_05_1541,ProdSingRedoBetween,2021.2.3,59.90807704405868,
,,,,144,0,144,0,,,,,,,,,,,,,,,,,,,,,,1181.6756829000078,None,,,,,,,,,,,,,,,,,instrument,68,145,sing,old,red,1178.6793775000115,None,1178.6793775000115,None,1,1.7977947999897879,1178.6793775000115,None,1.7977947999897879,1180.5110204000084,None,1181.025203199999,None,1181.025203199999,None,n,0.6199886999966111,1181.025203199999,None,0.6199886999966111,,,Sing18,001,2022_Aug_05_1541,ProdSingRedoBetween,2021.2.3,59.90807704405868,
,,,,145,0,145,0,,,,,,,,,,,,,,,,,,,,,,1184.3282241000124,None,,,,,,,,,,,,,,,,,childhood,35,146,sing,old,blue,1182.1878940000024,None,1182.1878940000024,None,1,1.305223000003025,1182.1878940000024,None,1.305223000003025,1183.5157708000042,None,1184.0308271000104,None,1184.0308271000104,None,n,0.27024149999488145,1184.0308271000104,None,0.27024149999488145,,,Sing18,001,2022_Aug_05_1541,ProdSingRedoBetween,2021.2.3,59.90807704405868,
,,,,146,0,146,0,,,,,,,,,,,,,,,,,,,,,,1187.3645343000098,None,,,,,,,,,,,,,,,,,finance,171,147,sing,new,null,1184.8409611000097,None,1184.8409611000097,None,1,1.6683040000061737,1184.8409611000097,None,1.6683040000061737,1186.544019500012,None,1187.048732700001,None,1187.048732700001,None,n,0.2843892999953823,1187.048732700001,None,0.2843892999953823,,,Sing18,001,2022_Aug_05_1541,ProdSingRedoBetween,2021.2.3,59.90807704405868,
,,,,147,0,147,0,,,,,,,,,,,,,,,,,,,,,,1190.4351643000118,None,,,,,,,,,,,,,,,,,ground,16,148,sing,old,yellow,1187.8738504000066,None,1187.8738504000066,None,1,1.6992352999950526,1187.8738504000066,None,1.6992352999950526,1189.6008055999991,None,1190.1071425000118,None,1190.1071425000118,None,n,0.2980664000060642,1190.1071425000118,None,0.2980664000060642,,,Sing18,001,2022_Aug_05_1541,ProdSingRedoBetween,2021.2.3,59.90807704405868,
,,,,148,0,148,0,,,,,,,,,,,,,,,,,,,,,,1192.8702244000015,None,,,,,,,,,,,,,,,,,alert,9,149,sing,old,yellow,1190.9396238000045,None,1190.9396238000045,None,1,0.9694235000060871,1190.9396238000045,None,0.9694235000060871,1191.935850000009,None,1192.4407892000017,None,1192.4407892000017,None,n,0.4122981999971671,1192.4407892000017,None,0.4122981999971671,,,Sing18,001,2022_Aug_05_1541,ProdSingRedoBetween,2021.2.3,59.90807704405868,
,,,,149,0,149,0,,,,,,,,,,,,,,,,,,,,,,1195.2392714000016,None,,,,,,,,,,,,,,,,,broke,1,150,sing,old,yellow,1193.373732500011,None,1193.373732500011,None,1,1.047361599994474,1193.373732500011,None,1.047361599994474,1194.4395565000013,None,1194.9388866000081,None,1194.9388866000081,None,n,0.28213599999435246,1194.9388866000081,None,0.28213599999435246,,,Sing18,001,2022_Aug_05_1541,ProdSingRedoBetween,2021.2.3,59.90807704405868,
,,,,150,0,150,0,,,,,,,,,,,,,,,,,,,,,,1199.6330849000078,None,,,,,,,,,,,,,,,,,sunset,139,151,sing,new,null,1195.750427100007,None,1195.750427100007,None,4,2.318653300011647,1195.750427100007,None,2.318653300011647,1198.0932303000009,None,1198.5926975000039,None,1198.5926975000039,None,f,1.012410799987265,1198.5926975000039,None,1.012410799987265,,,Sing18,001,2022_Aug_05_1541,ProdSingRedoBetween,2021.2.3,59.90807704405868,
,,,,151,0,151,0,,,,,,,,,,,,,,,,,,,,,,1203.981241100002,None,,,,,,,,,,,,,,,,,comedy,17,152,sing,old,yellow,1200.1494717000023,None,1200.1494717000023,None,1,2.855815100003383,1200.1494717000023,None,2.855815100003383,1203.0362561000074,None,1203.555379100013,None,1203.555379100013,None,n,0.4099285999982385,1203.555379100013,None,0.4099285999982385,,,Sing18,001,2022_Aug_05_1541,ProdSingRedoBetween,2021.2.3,59.90807704405868,
,,,,152,0,152,0,,,,,,,,,,,,,,,,,,,,,,1206.5004528999998,None,,,,,,,,,,,,,,,,,expansion,21,153,sing,old,yellow,1204.490845600012,None,1204.490845600012,None,1,1.090242100006435,1204.490845600012,None,1.090242100006435,1205.6015904000087,None,1206.1209541999997,None,1206.1209541999997,None,n,0.3561055000027409,1206.1209541999997,None,0.3561055000027409,,,Sing18,001,2022_Aug_05_1541,ProdSingRedoBetween,2021.2.3,59.90807704405868,
,,,,153,0,153,0,,,,,,,,,,,,,,,,,,,,,,1209.453408900008,None,,,,,,,,,,,,,,,,,science,36,154,sing,old,blue,1207.0009762000118,None,1207.0009762000118,None,1,1.3881431000045268,1207.0009762000118,None,1.3881431000045268,1208.42002830001,None,1208.9246415000089,None,1208.9246415000089,None,n,0.5126424999907613,1208.9246415000089,None,0.5126424999907613,,,Sing18,001,2022_Aug_05_1541,ProdSingRedoBetween,2021.2.3,59.90807704405868,
,,,,154,0,154,0,,,,,,,,,,,,,,,,,,,,,,1213.140308300004,None,,,,,,,,,,,,,,,,,thing,142,155,sing,new,null,1209.9658679999993,None,1209.9658679999993,None,1,2.3593003999994835,1209.9658679999993,None,2.3593003999994835,1212.3562200000015,None,1212.859657699999,None,1212.859657699999,None,n,0.26545489999989513,1212.859657699999,None,0.26545489999989513,,,Sing18,001,2022_Aug_05_1541,ProdSingRedoBetween,2021.2.3,59.90807704405868,
,,,,155,0,155,0,,,,,,,,,,,,,,,,,,,,,,1215.6596059000003,None,,,,,,,,,,,,,,,,,carry,138,156,sing,new,null,1213.6427757000056,None,1213.6427757000056,None,1,1.1063532999978634,1213.6427757000056,None,1.1063532999978634,1214.7753655999986,None,1215.279687400005,None,1215.279687400005,None,n,0.3573861000040779,1215.279687400005,None,0.3573861000040779,,,Sing18,001,2022_Aug_05_1541,ProdSingRedoBetween,2021.2.3,59.90807704405868,
,,,,156,0,156,0,,,,,,,,,,,,,,,,,,,,,,1218.7791381999996,None,,,,,,,,,,,,,,,,,crowd,42,157,sing,old,blue,1216.1693352000002,None,1216.1693352000002,None,2,1.2837373000074876,1216.1693352000002,None,1.2837373000074876,1217.4792398999998,None,1217.9827083000127,None,1217.9827083000127,None,n,0.7743619999964722,1217.9827083000127,None,0.7743619999964722,,,Sing18,001,2022_Aug_05_1541,ProdSingRedoBetween,2021.2.3,59.90807704405868,
,,,,157,0,157,0,,,,,,,,,,,,,,,,,,,,,,1221.4152877000015,None,,,,,,,,,,,,,,,,,watch,25,158,sing,old,yellow,1219.2857299000025,None,1219.2857299000025,None,2,1.2873443999997107,1219.2857299000025,None,1.2873443999997107,1220.5991688000067,None,1221.105214100011,None,1221.105214100011,None,n,0.283903100003954,1221.105214100011,None,0.283903100003954,,,Sing18,001,2022_Aug_05_1541,ProdSingRedoBetween,2021.2.3,59.90807704405868,
,,,,158,0,158,0,,,,,,,,,,,,,,,,,,,,,,1223.9193912000046,None,,,,,,,,,,,,,,,,,leader,37,159,sing,old,blue,1221.9241599000088,None,1221.9241599000088,None,2,1.0408766000036849,1221.9241599000088,None,1.0408766000036849,1222.997128700008,None,1223.5073304000107,None,1223.5073304000107,None,n,0.38583710000966676,1223.5073304000107,None,0.38583710000966676,,,Sing18,001,2022_Aug_05_1541,ProdSingRedoBetween,2021.2.3,59.90807704405868,
,,,,159,0,159,0,,,,,,,,,,,,,,,,,,,,,,1226.3201149000088,None,,,,,,,,,,,,,,,,,turkey,8,160,sing,old,yellow,1224.426456400004,None,1224.426456400004,None,2,1.0505151999968803,1224.426456400004,None,1.0505151999968803,1225.5091278000036,None,1226.024440699999,None,1226.024440699999,None,n,0.27662219999183435,1226.024440699999,None,0.27662219999183435,,,Sing18,001,2022_Aug_05_1541,ProdSingRedoBetween,2021.2.3,59.90807704405868,
,,,,160,0,160,0,,,,,,,,,,,,,,,,,,,,,,1229.2398116000113,None,,,,,,,,,,,,,,,,,employment,106,161,sing,new,null,1226.8291037000017,None,1226.8291037000017,None,3,1.4642743000003975,1226.8291037000017,None,1.4642743000003975,1228.3412811000017,None,1228.8589475000044,None,1228.8589475000044,None,n,0.362210999999661,1228.8589475000044,None,0.362210999999661,,,Sing18,001,2022_Aug_05_1541,ProdSingRedoBetween,2021.2.3,59.90807704405868,
,,,,161,0,161,0,,,,,,,,,,,,,,,,,,,,,,1235.1456306000036,None,,,,,,,,,,,,,,,,,recall,24,162,sing,old,yellow,1229.7420442000002,None,1229.7420442000002,None,1,4.103037900000345,1229.7420442000002,None,4.103037900000345,1233.8620440000086,None,1234.3617544000008,None,1234.3617544000008,None,n,0.7633464999962598,1234.3617544000008,None,0.7633464999962598,,,Sing18,001,2022_Aug_05_1541,ProdSingRedoBetween,2021.2.3,59.90807704405868,
,,,,162,0,162,0,,,,,,,,,,,,,,,,,,,,,,1237.548053000006,None,,,,,,,,,,,,,,,,,short,141,163,sing,new,null,1235.6540512000065,None,1235.6540512000065,None,1,0.8470874000049662,1235.6540512000065,None,0.8470874000049662,1236.5313274000073,None,1237.031019800008,None,1237.031019800008,None,n,0.4940323000046192,1237.031019800008,None,0.4940323000046192,,,Sing18,001,2022_Aug_05_1541,ProdSingRedoBetween,2021.2.3,59.90807704405868,
,,,,163,0,163,0,,,,,,,,,,,,,,,,,,,,,,1241.2184475000104,None,,,,,,,,,,,,,,,,,nation,5,164,sing,old,yellow,1238.0492070000037,None,1238.0492070000037,None,6,1.68386050000845,1238.0492070000037,None,1.68386050000845,1239.750179300012,None,1240.2559001000045,None,1240.2559001000045,None,r,0.9332265999983065,1240.2559001000045,None,0.9332265999983065,,,Sing18,001,2022_Aug_05_1541,ProdSingRedoBetween,2021.2.3,59.90807704405868,
,,,,164,0,164,0,,,,,,,,,,,,,,,,,,,,,,1246.3734897000104,None,,,,,,,,,,,,,,,,,household,71,165,sing,old,red,1241.7393396000116,None,1241.7393396000116,None,1,3.337586400011787,1241.7393396000116,None,3.337586400011787,1245.1090944000025,None,1245.6284626999986,None,1245.6284626999986,None,n,0.7286765000026207,1245.6284626999986,None,0.7286765000026207,,,Sing18,001,2022_Aug_05_1541,ProdSingRedoBetween,2021.2.3,59.90807704405868,
,,,,165,0,165,0,,,,,,,,,,,,,,,,,,,,,,1248.4589050000068,None,,,,,,,,,,,,,,,,,couch,162,166,sing,new,null,1246.8812131000013,None,1246.8812131000013,None,1,0.6838026000041282,1246.8812131000013,None,0.6838026000041282,1247.5922180000052,None,1248.0933991000056,None,1248.0933991000056,None,n,0.3356031000002986,1248.0933991000056,None,0.3356031000002986,,,Sing18,001,2022_Aug_05_1541,ProdSingRedoBetween,2021.2.3,59.90807704405868,
,,,,166,0,166,0,,,,,,,,,,,,,,,,,,,,,,1251.26165890001,None,,,,,,,,,,,,,,,,,escape,11,167,sing,old,yellow,1248.9698800000042,None,1248.9698800000042,None,2,1.4911928000074113,1248.9698800000042,None,1.4911928000074113,1250.482934300002,None,1250.999513200004,None,1250.999513200004,None,n,0.24551180000707973,1250.999513200004,None,0.24551180000707973,,,Sing18,001,2022_Aug_05_1541,ProdSingRedoBetween,2021.2.3,59.90807704405868,
,,,,167,0,167,0,,,,,,,,,,,,,,,,,,,,,,1254.231365700005,None,,,,,,,,,,,,,,,,,marriage,107,168,sing,new,null,1251.7701964000007,None,1251.7701964000007,None,1,1.5148693999944953,1251.7701964000007,None,1.5148693999944953,1253.3287398000102,None,1253.832349400007,None,1253.832349400007,None,n,0.3806429999967804,1253.832349400007,None,0.3806429999967804,,,Sing18,001,2022_Aug_05_1541,ProdSingRedoBetween,2021.2.3,59.90807704405868,
,,,,168,0,168,0,,,,,,,,,,,,,,,,,,,,,,1256.7172068000073,None,,,,,,,,,,,,,,,,,tragedy,118,169,sing,new,null,1254.7350035000127,None,1254.7350035000127,None,1,0.9260799000039697,1254.7350035000127,None,0.9260799000039697,1255.6827390000108,None,1256.1875542000053,None,1256.1875542000053,None,n,0.5054734000004828,1256.1875542000053,None,0.5054734000004828,,,Sing18,001,2022_Aug_05_1541,ProdSingRedoBetween,2021.2.3,59.90807704405868,
,,,,169,0,169,0,,,,,,,,,,,,,,,,,,,,,,1259.019465800011,None,,,,,,,,,,,,,,,,,atmosphere,41,170,sing,old,blue,1257.2278322000057,None,1257.2278322000057,None,1,0.9531892999948468,1257.2278322000057,None,0.9531892999948468,1258.2034776000073,None,1258.7091381000064,None,1258.7091381000064,None,n,0.2799224000045797,1258.7091381000064,None,0.2799224000045797,,,Sing18,001,2022_Aug_05_1541,ProdSingRedoBetween,2021.2.3,59.90807704405868,
,,,,170,0,170,0,,,,,,,,,,,,,,,,,,,,,,1261.4248555000086,None,,,,,,,,,,,,,,,,,fellow,96,171,sing,new,null,1259.5291328000021,None,1259.5291328000021,None,1,0.9798469000088517,1259.5291328000021,None,0.9798469000088517,1260.5385039000103,None,1261.0382264000073,None,1261.0382264000073,None,n,0.3587591999967117,1261.0382264000073,None,0.3587591999967117,,,Sing18,001,2022_Aug_05_1541,ProdSingRedoBetween,2021.2.3,59.90807704405868,
,,,,171,0,171,0,,,,,,,,,,,,,,,,,,,,,,1264.3144189000013,None,,,,,,,,,,,,,,,,,oxygen,175,172,sing,new,null,1261.9424391000066,None,1261.9424391000066,None,1,1.2785996000020532,1261.9424391000066,None,1.2785996000020532,1263.241559800008,None,1263.740899299999,None,1263.740899299999,None,n,0.5521413999958895,1263.740899299999,None,0.5521413999958895,,,Sing18,001,2022_Aug_05_1541,ProdSingRedoBetween,2021.2.3,59.90807704405868,
,,,,172,0,172,0,,,,,,,,,,,,,,,,,,,,,,1268.6960020000115,None,,,,,,,,,,,,,,,,,exchange,149,173,sing,new,null,1264.8254963000072,None,1264.8254963000072,None,3,1.8275658000056865,1264.8254963000072,None,1.8275658000056865,1266.6804458000115,None,1267.2008570000035,None,1267.2008570000035,None,f,1.4681073000101605,1267.2008570000035,None,1.4681073000101605,,,Sing18,001,2022_Aug_05_1541,ProdSingRedoBetween,2021.2.3,59.90807704405868,
,,,,173,0,173,0,,,,,,,,,,,,,,,,,,,,,,1271.1815941000095,None,,,,,,,,,,,,,,,,,dance,168,174,sing,new,null,1269.208526900009,None,1269.208526900009,None,1,1.2445287000009557,1269.208526900009,None,1.2445287000009557,1270.4837572000106,None,1270.9981965000043,None,1270.9981965000043,None,n,0.16682689999288414,1270.9981965000043,None,0.16682689999288414,,,Sing18,001,2022_Aug_05_1541,ProdSingRedoBetween,2021.2.3,59.90807704405868,
,,,,174,0,174,0,,,,,,,,,,,,,,,,,,,,,,1273.6674331000104,None,,,,,,,,,,,,,,,,,working,59,175,sing,old,yellow,1271.6907625000022,None,1271.6907625000022,None,1,1.2662475000106497,1271.6907625000022,None,1.2662475000106497,1272.9849464,None,1273.5007360000018,None,1273.5007360000018,None,n,0.1363026000035461,1273.5007360000018,None,0.1363026000035461,,,Sing18,001,2022_Aug_05_1541,ProdSingRedoBetween,2021.2.3,59.90807704405868,
,,,,175,0,175,0,,,,,,,,,,,,,,,,,,,,,,1276.6870653000078,None,,,,,,,,,,,,,,,,,trial,98,176,sing,new,null,1274.1800928000011,None,1274.1800928000011,None,1,1.8649253999901703,1274.1800928000011,None,1.8649253999901703,1276.0697786000092,None,1276.5755423000082,None,1276.5755423000082,None,n,0.08554210000147577,1276.5755423000082,None,0.08554210000147577,,,Sing18,001,2022_Aug_05_1541,ProdSingRedoBetween,2021.2.3,59.90807704405868,
,,,,176,0,176,0,,,,,,,,,,,,,,,,,,,,,,1280.3907248000032,None,,,,,,,,,,,,,,,,,entrance,165,177,sing,new,null,1277.194419700012,None,1277.194419700012,None,1,2.402596799991443,1277.194419700012,None,2.402596799991443,1279.6239944000117,None,1280.1259992000123,None,1280.1259992000123,None,n,0.24700999999186024,1280.1259992000123,None,0.24700999999186024,,,Sing18,001,2022_Aug_05_1541,ProdSingRedoBetween,2021.2.3,59.90807704405868,
,,,,177,0,177,0,,,,,,,,,,,,,,,,,,,,,,1285.4792184000107,None,,,,,,,,,,,,,,,,,running,20,178,sing,old,yellow,1280.8941150000028,None,1280.8941150000028,None,1,3.7510236000089208,1280.8941150000028,None,3.7510236000089208,1284.6793477000028,None,1285.1789056999987,None,1285.1789056999987,None,n,0.2820249999931548,1285.1789056999987,None,0.2820249999931548,,,Sing18,001,2022_Aug_05_1541,ProdSingRedoBetween,2021.2.3,59.90807704405868,
