StudyLoop.thisRepN,StudyLoop.thisTrialN,StudyLoop.thisN,StudyLoop.thisIndex,TestLoop.thisRepN,TestLoop.thisTrialN,TestLoop.thisN,TestLoop.thisIndex,textCondition.started,textCondition.stopped,keyCondition.keys,keyCondition.rt,keyCondition.started,keyCondition.stopped,Condition,textWelcome.started,textWelcome.stopped,keyWelcome.keys,keyWelcome.rt,keyWelcome.started,keyWelcome.stopped,textAloud.started,textAloud.stopped,textSilent.started,textSilent.stopped,textSing.started,textSing.stopped,conditional_text.started,conditional_text.stopped,textBlank500.started,textBlank500.stopped,study_word,study_num,study_order,study_type,word_color,textStudy.started,textStudy.stopped,keyStudy.keys,keyStudy.started,keyStudy.stopped,textTestInstructions.started,textTestInstructions.stopped,key_resp_3.keys,key_resp_3.rt,key_resp_3.started,key_resp_3.stopped,test_word,test_num,test_order,test_condition,old_new_test,test_word_original_color,textConf.started,textConf.stopped,textConfScale.started,textConfScale.stopped,keyConf.keys,keyConf.rt,keyConf.started,keyConf.stopped,confidence response time,textTestBlank.started,textTestBlank.stopped,textRKN.started,textRKN.stopped,textRKNScale.started,textRKNScale.stopped,keyRKN.keys,keyRKN.rt,keyRKN.started,keyRKN.stopped,rkn response time,textEnd.started,textEnd.stopped,participant,session,date,expName,psychopyVersion,frameRate,
,,,,,,,,24.514021199996932,None,a,0.6114784999954281,24.514021199996932,None,,,,,,,,,,,,,,,,,,,,,,,,,,,,,,,,,,,,,,,,,,,,,,,,,,,,,,,,,,,,,,Silent19,001,2022_Aug_05_1449,ProdSingRedoBetween,2021.2.3,59.85461314727108,
,,,,,,,,,,,,,,SilentTest,25.1658838000003,None,space,273.6553026000038,25.1658838000003,None,,,,,,,,,,,,,,,,,,,,,,,,,,,,,,,,,,,,,,,,,,,,,,,,,,,,,,,Silent19,001,2022_Aug_05_1449,ProdSingRedoBetween,2021.2.3,59.85461314727108,
0,0,0,0,,,,,,,,,,,,,,,,,,25.1658838000003,None,25.1658838000003,None,25.1658838000003,None,25.1658838000003,None,301.3550041999988,None,novel,46,1,silent,blue,299.3542785999889,None,None,299.3542785999889,None,,,,,,,,,,,,,,,,,,,,,,,,,,,,,,,,,,,Silent19,001,2022_Aug_05_1449,ProdSingRedoBetween,2021.2.3,59.85461314727108,
1,0,1,0,,,,,,,,,,,,,,,,,,,,,,,,,,303.8574102999992,None,shock,17,2,silent,yellow,301.8554180999927,None,None,301.8554180999927,None,,,,,,,,,,,,,,,,,,,,,,,,,,,,,,,,,,,Silent19,001,2022_Aug_05_1449,ProdSingRedoBetween,2021.2.3,59.85461314727108,
2,0,2,0,,,,,,,,,,,,,,,,,,,,,,,,,,306.36004610000236,None,direction,13,3,silent,yellow,304.3580854000029,None,None,304.3580854000029,None,,,,,,,,,,,,,,,,,,,,,,,,,,,,,,,,,,,Silent19,001,2022_Aug_05_1449,ProdSingRedoBetween,2021.2.3,59.85461314727108,
3,0,3,0,,,,,,,,,,,,,,,,,,,,,,,,,,308.86255900000106,None,region,44,4,silent,blue,306.8613400999893,None,None,306.8613400999893,None,,,,,,,,,,,,,,,,,,,,,,,,,,,,,,,,,,,Silent19,001,2022_Aug_05_1449,ProdSingRedoBetween,2021.2.3,59.85461314727108,
4,0,4,0,,,,,,,,,,,,,,,,,,,,,,,,,,311.3650811999978,None,stranger,66,5,silent,red,309.3653725999902,None,None,309.3653725999902,None,,,,,,,,,,,,,,,,,,,,,,,,,,,,,,,,,,,Silent19,001,2022_Aug_05_1449,ProdSingRedoBetween,2021.2.3,59.85461314727108,
5,0,5,0,,,,,,,,,,,,,,,,,,,,,,,,,,313.88411259998975,None,trail,0,6,silent,yellow,311.86873200000264,None,None,311.86873200000264,None,,,,,,,,,,,,,,,,,,,,,,,,,,,,,,,,,,,Silent19,001,2022_Aug_05_1449,ProdSingRedoBetween,2021.2.3,59.85461314727108,
6,0,6,0,,,,,,,,,,,,,,,,,,,,,,,,,,316.4034646999935,None,household,84,7,silent,red,314.39079330000095,None,None,314.39079330000095,None,,,,,,,,,,,,,,,,,,,,,,,,,,,,,,,,,,,Silent19,001,2022_Aug_05_1449,ProdSingRedoBetween,2021.2.3,59.85461314727108,
7,0,7,0,,,,,,,,,,,,,,,,,,,,,,,,,,318.92258309999306,None,detective,55,8,silent,blue,316.90799209999386,None,None,316.90799209999386,None,,,,,,,,,,,,,,,,,,,,,,,,,,,,,,,,,,,Silent19,001,2022_Aug_05_1449,ProdSingRedoBetween,2021.2.3,59.85461314727108,
8,0,8,0,,,,,,,,,,,,,,,,,,,,,,,,,,321.44178189999366,None,committee,52,9,silent,blue,319.43217580000055,None,None,319.43217580000055,None,,,,,,,,,,,,,,,,,,,,,,,,,,,,,,,,,,,Silent19,001,2022_Aug_05_1449,ProdSingRedoBetween,2021.2.3,59.85461314727108,
9,0,9,0,,,,,,,,,,,,,,,,,,,,,,,,,,323.9442837999959,None,smell,86,10,silent,red,321.9421971999982,None,None,321.9421971999982,None,,,,,,,,,,,,,,,,,,,,,,,,,,,,,,,,,,,Silent19,001,2022_Aug_05_1449,ProdSingRedoBetween,2021.2.3,59.85461314727108,
10,0,10,0,,,,,,,,,,,,,,,,,,,,,,,,,,326.44670449999103,None,hearing,20,11,silent,yellow,324.44698019999487,None,None,324.44698019999487,None,,,,,,,,,,,,,,,,,,,,,,,,,,,,,,,,,,,Silent19,001,2022_Aug_05_1449,ProdSingRedoBetween,2021.2.3,59.85461314727108,
11,0,11,0,,,,,,,,,,,,,,,,,,,,,,,,,,328.9490724999923,None,military,89,12,silent,red,326.94714750000276,None,None,326.94714750000276,None,,,,,,,,,,,,,,,,,,,,,,,,,,,,,,,,,,,Silent19,001,2022_Aug_05_1449,ProdSingRedoBetween,2021.2.3,59.85461314727108,
12,0,12,0,,,,,,,,,,,,,,,,,,,,,,,,,,331.4518182999891,None,theme,10,13,silent,yellow,329.44967239999096,None,None,329.44967239999096,None,,,,,,,,,,,,,,,,,,,,,,,,,,,,,,,,,,,Silent19,001,2022_Aug_05_1449,ProdSingRedoBetween,2021.2.3,59.85461314727108,
13,0,13,0,,,,,,,,,,,,,,,,,,,,,,,,,,333.9540934999968,None,fellow,63,14,silent,red,331.952166499992,None,None,331.952166499992,None,,,,,,,,,,,,,,,,,,,,,,,,,,,,,,,,,,,Silent19,001,2022_Aug_05_1449,ProdSingRedoBetween,2021.2.3,59.85461314727108,
14,0,14,0,,,,,,,,,,,,,,,,,,,,,,,,,,336.4567451999901,None,health,60,15,silent,red,334.4547862999898,None,None,334.4547862999898,None,,,,,,,,,,,,,,,,,,,,,,,,,,,,,,,,,,,Silent19,001,2022_Aug_05_1449,ProdSingRedoBetween,2021.2.3,59.85461314727108,
15,0,15,0,,,,,,,,,,,,,,,,,,,,,,,,,,338.959260299991,None,tennis,31,16,silent,blue,336.9573129999917,None,None,336.9573129999917,None,,,,,,,,,,,,,,,,,,,,,,,,,,,,,,,,,,,Silent19,001,2022_Aug_05_1449,ProdSingRedoBetween,2021.2.3,59.85461314727108,
16,0,16,0,,,,,,,,,,,,,,,,,,,,,,,,,,341.4616870999889,None,dream,87,17,silent,red,339.4596670000028,None,None,339.4596670000028,None,,,,,,,,,,,,,,,,,,,,,,,,,,,,,,,,,,,Silent19,001,2022_Aug_05_1449,ProdSingRedoBetween,2021.2.3,59.85461314727108,
17,0,17,0,,,,,,,,,,,,,,,,,,,,,,,,,,343.98094680000213,None,recall,7,18,silent,yellow,341.9667302000016,None,None,341.9667302000016,None,,,,,,,,,,,,,,,,,,,,,,,,,,,,,,,,,,,Silent19,001,2022_Aug_05_1449,ProdSingRedoBetween,2021.2.3,59.85461314727108,
18,0,18,0,,,,,,,,,,,,,,,,,,,,,,,,,,346.50019130000146,None,heavy,35,19,silent,blue,344.4850179999921,None,None,344.4850179999921,None,,,,,,,,,,,,,,,,,,,,,,,,,,,,,,,,,,,Silent19,001,2022_Aug_05_1449,ProdSingRedoBetween,2021.2.3,59.85461314727108,
19,0,19,0,,,,,,,,,,,,,,,,,,,,,,,,,,349.0193924999912,None,citizen,19,20,silent,yellow,347.0177881999989,None,None,347.0177881999989,None,,,,,,,,,,,,,,,,,,,,,,,,,,,,,,,,,,,Silent19,001,2022_Aug_05_1449,ProdSingRedoBetween,2021.2.3,59.85461314727108,
20,0,20,0,,,,,,,,,,,,,,,,,,,,,,,,,,351.5218287000025,None,leader,15,21,silent,yellow,349.51981119999255,None,None,349.51981119999255,None,,,,,,,,,,,,,,,,,,,,,,,,,,,,,,,,,,,Silent19,001,2022_Aug_05_1449,ProdSingRedoBetween,2021.2.3,59.85461314727108,
21,0,21,0,,,,,,,,,,,,,,,,,,,,,,,,,,354.02436369999486,None,mayor,16,22,silent,yellow,352.02230840000266,None,None,352.02230840000266,None,,,,,,,,,,,,,,,,,,,,,,,,,,,,,,,,,,,Silent19,001,2022_Aug_05_1449,ProdSingRedoBetween,2021.2.3,59.85461314727108,
22,0,22,0,,,,,,,,,,,,,,,,,,,,,,,,,,356.5440963000001,None,bitter,39,23,silent,blue,354.53009459999157,None,None,354.53009459999157,None,,,,,,,,,,,,,,,,,,,,,,,,,,,,,,,,,,,Silent19,001,2022_Aug_05_1449,ProdSingRedoBetween,2021.2.3,59.85461314727108,
23,0,23,0,,,,,,,,,,,,,,,,,,,,,,,,,,359.06241249998857,None,dispute,38,24,silent,blue,357.0476195999945,None,None,357.0476195999945,None,,,,,,,,,,,,,,,,,,,,,,,,,,,,,,,,,,,Silent19,001,2022_Aug_05_1449,ProdSingRedoBetween,2021.2.3,59.85461314727108,
24,0,24,0,,,,,,,,,,,,,,,,,,,,,,,,,,361.58195399999386,None,court,4,25,silent,yellow,359.56855689999065,None,None,359.56855689999065,None,,,,,,,,,,,,,,,,,,,,,,,,,,,,,,,,,,,Silent19,001,2022_Aug_05_1449,ProdSingRedoBetween,2021.2.3,59.85461314727108,
25,0,25,0,,,,,,,,,,,,,,,,,,,,,,,,,,364.08438449999085,None,fashion,9,26,silent,yellow,362.08238409999467,None,None,362.08238409999467,None,,,,,,,,,,,,,,,,,,,,,,,,,,,,,,,,,,,Silent19,001,2022_Aug_05_1449,ProdSingRedoBetween,2021.2.3,59.85461314727108,
26,0,26,0,,,,,,,,,,,,,,,,,,,,,,,,,,366.58687709999504,None,shape,69,27,silent,red,364.585439699993,None,None,364.585439699993,None,,,,,,,,,,,,,,,,,,,,,,,,,,,,,,,,,,,Silent19,001,2022_Aug_05_1449,ProdSingRedoBetween,2021.2.3,59.85461314727108,
27,0,27,0,,,,,,,,,,,,,,,,,,,,,,,,,,369.1060965999932,None,center,49,28,silent,blue,367.0912874999922,None,None,367.0912874999922,None,,,,,,,,,,,,,,,,,,,,,,,,,,,,,,,,,,,Silent19,001,2022_Aug_05_1449,ProdSingRedoBetween,2021.2.3,59.85461314727108,
28,0,28,0,,,,,,,,,,,,,,,,,,,,,,,,,,371.6250815999956,None,mankind,68,29,silent,red,369.61066029999347,None,None,369.61066029999347,None,,,,,,,,,,,,,,,,,,,,,,,,,,,,,,,,,,,Silent19,001,2022_Aug_05_1449,ProdSingRedoBetween,2021.2.3,59.85461314727108,
29,0,29,0,,,,,,,,,,,,,,,,,,,,,,,,,,374.1276846999972,None,close,32,30,silent,blue,372.12816409999505,None,None,372.12816409999505,None,,,,,,,,,,,,,,,,,,,,,,,,,,,,,,,,,,,Silent19,001,2022_Aug_05_1449,ProdSingRedoBetween,2021.2.3,59.85461314727108,
30,0,30,0,,,,,,,,,,,,,,,,,,,,,,,,,,376.630222199994,None,foundation,67,31,silent,red,374.6306048999977,None,None,374.6306048999977,None,,,,,,,,,,,,,,,,,,,,,,,,,,,,,,,,,,,Silent19,001,2022_Aug_05_1449,ProdSingRedoBetween,2021.2.3,59.85461314727108,
31,0,31,0,,,,,,,,,,,,,,,,,,,,,,,,,,379.1326713000017,None,concern,23,32,silent,yellow,377.13307939999504,None,None,377.13307939999504,None,,,,,,,,,,,,,,,,,,,,,,,,,,,,,,,,,,,Silent19,001,2022_Aug_05_1449,ProdSingRedoBetween,2021.2.3,59.85461314727108,
32,0,32,0,,,,,,,,,,,,,,,,,,,,,,,,,,381.6354124999925,None,estate,3,33,silent,yellow,379.6331299000012,None,None,379.6331299000012,None,,,,,,,,,,,,,,,,,,,,,,,,,,,,,,,,,,,Silent19,001,2022_Aug_05_1449,ProdSingRedoBetween,2021.2.3,59.85461314727108,
33,0,33,0,,,,,,,,,,,,,,,,,,,,,,,,,,384.1544062999892,None,substance,45,34,silent,blue,382.1393334000022,None,None,382.1393334000022,None,,,,,,,,,,,,,,,,,,,,,,,,,,,,,,,,,,,Silent19,001,2022_Aug_05_1449,ProdSingRedoBetween,2021.2.3,59.85461314727108,
34,0,34,0,,,,,,,,,,,,,,,,,,,,,,,,,,386.6734431999939,None,private,26,35,silent,yellow,384.6602676999901,None,None,384.6602676999901,None,,,,,,,,,,,,,,,,,,,,,,,,,,,,,,,,,,,Silent19,001,2022_Aug_05_1449,ProdSingRedoBetween,2021.2.3,59.85461314727108,
35,0,35,0,,,,,,,,,,,,,,,,,,,,,,,,,,389.1927575000009,None,surprise,1,36,silent,yellow,387.17894659999,None,None,387.17894659999,None,,,,,,,,,,,,,,,,,,,,,,,,,,,,,,,,,,,Silent19,001,2022_Aug_05_1449,ProdSingRedoBetween,2021.2.3,59.85461314727108,
36,0,36,0,,,,,,,,,,,,,,,,,,,,,,,,,,391.694980699991,None,department,37,37,silent,blue,389.69579769999837,None,None,389.69579769999837,None,,,,,,,,,,,,,,,,,,,,,,,,,,,,,,,,,,,Silent19,001,2022_Aug_05_1449,ProdSingRedoBetween,2021.2.3,59.85461314727108,
37,0,37,0,,,,,,,,,,,,,,,,,,,,,,,,,,394.20654349999677,None,individual,14,38,silent,yellow,392.19588269999076,None,None,392.19588269999076,None,,,,,,,,,,,,,,,,,,,,,,,,,,,,,,,,,,,Silent19,001,2022_Aug_05_1449,ProdSingRedoBetween,2021.2.3,59.85461314727108,
38,0,38,0,,,,,,,,,,,,,,,,,,,,,,,,,,396.73366779999924,None,carry,51,39,silent,blue,394.7235268999939,None,None,394.7235268999939,None,,,,,,,,,,,,,,,,,,,,,,,,,,,,,,,,,,,Silent19,001,2022_Aug_05_1449,ProdSingRedoBetween,2021.2.3,59.85461314727108,
39,0,39,0,,,,,,,,,,,,,,,,,,,,,,,,,,399.23647429999255,None,title,64,40,silent,red,397.2340389000019,None,None,397.2340389000019,None,,,,,,,,,,,,,,,,,,,,,,,,,,,,,,,,,,,Silent19,001,2022_Aug_05_1449,ProdSingRedoBetween,2021.2.3,59.85461314727108,
40,0,40,0,,,,,,,,,,,,,,,,,,,,,,,,,,401.75523480000265,None,gesture,50,41,silent,blue,399.7433740999986,None,None,399.7433740999986,None,,,,,,,,,,,,,,,,,,,,,,,,,,,,,,,,,,,Silent19,001,2022_Aug_05_1449,ProdSingRedoBetween,2021.2.3,59.85461314727108,
41,0,41,0,,,,,,,,,,,,,,,,,,,,,,,,,,404.25776359999145,None,education,24,42,silent,yellow,402.2580522999924,None,None,402.2580522999924,None,,,,,,,,,,,,,,,,,,,,,,,,,,,,,,,,,,,Silent19,001,2022_Aug_05_1449,ProdSingRedoBetween,2021.2.3,59.85461314727108,
42,0,42,0,,,,,,,,,,,,,,,,,,,,,,,,,,406.7769052999938,None,search,47,43,silent,blue,404.76593399999547,None,None,404.76593399999547,None,,,,,,,,,,,,,,,,,,,,,,,,,,,,,,,,,,,Silent19,001,2022_Aug_05_1449,ProdSingRedoBetween,2021.2.3,59.85461314727108,
43,0,43,0,,,,,,,,,,,,,,,,,,,,,,,,,,409.2793601000012,None,present,80,44,silent,red,407.28024110000115,None,None,407.28024110000115,None,,,,,,,,,,,,,,,,,,,,,,,,,,,,,,,,,,,Silent19,001,2022_Aug_05_1449,ProdSingRedoBetween,2021.2.3,59.85461314727108,
44,0,44,0,,,,,,,,,,,,,,,,,,,,,,,,,,411.78208160000213,None,quarter,73,45,silent,red,409.7798982999957,None,None,409.7798982999957,None,,,,,,,,,,,,,,,,,,,,,,,,,,,,,,,,,,,Silent19,001,2022_Aug_05_1449,ProdSingRedoBetween,2021.2.3,59.85461314727108,
45,0,45,0,,,,,,,,,,,,,,,,,,,,,,,,,,414.2842873999907,None,watch,78,46,silent,red,412.2843442000012,None,None,412.2843442000012,None,,,,,,,,,,,,,,,,,,,,,,,,,,,,,,,,,,,Silent19,001,2022_Aug_05_1449,ProdSingRedoBetween,2021.2.3,59.85461314727108,
46,0,46,0,,,,,,,,,,,,,,,,,,,,,,,,,,416.7871082999918,None,author,34,47,silent,blue,414.7848764999944,None,None,414.7848764999944,None,,,,,,,,,,,,,,,,,,,,,,,,,,,,,,,,,,,Silent19,001,2022_Aug_05_1449,ProdSingRedoBetween,2021.2.3,59.85461314727108,
47,0,47,0,,,,,,,,,,,,,,,,,,,,,,,,,,419.3059016999905,None,industry,70,48,silent,red,417.2910536999989,None,None,417.2910536999989,None,,,,,,,,,,,,,,,,,,,,,,,,,,,,,,,,,,,Silent19,001,2022_Aug_05_1449,ProdSingRedoBetween,2021.2.3,59.85461314727108,
48,0,48,0,,,,,,,,,,,,,,,,,,,,,,,,,,421.825116299995,None,tragedy,82,49,silent,red,419.8109504000022,None,None,419.8109504000022,None,,,,,,,,,,,,,,,,,,,,,,,,,,,,,,,,,,,Silent19,001,2022_Aug_05_1449,ProdSingRedoBetween,2021.2.3,59.85461314727108,
49,0,49,0,,,,,,,,,,,,,,,,,,,,,,,,,,424.327701000002,None,sweet,75,50,silent,red,422.3258002999937,None,None,422.3258002999937,None,,,,,,,,,,,,,,,,,,,,,,,,,,,,,,,,,,,Silent19,001,2022_Aug_05_1449,ProdSingRedoBetween,2021.2.3,59.85461314727108,
50,0,50,0,,,,,,,,,,,,,,,,,,,,,,,,,,426.83030390000204,None,right,83,51,silent,red,424.82817069999874,None,None,424.82817069999874,None,,,,,,,,,,,,,,,,,,,,,,,,,,,,,,,,,,,Silent19,001,2022_Aug_05_1449,ProdSingRedoBetween,2021.2.3,59.85461314727108,
51,0,51,0,,,,,,,,,,,,,,,,,,,,,,,,,,429.33269719999225,None,motion,59,52,silent,yellow,427.33073180000065,None,None,427.33073180000065,None,,,,,,,,,,,,,,,,,,,,,,,,,,,,,,,,,,,Silent19,001,2022_Aug_05_1449,ProdSingRedoBetween,2021.2.3,59.85461314727108,
52,0,52,0,,,,,,,,,,,,,,,,,,,,,,,,,,431.85186499998963,None,working,27,53,silent,yellow,429.84031069999037,None,None,429.84031069999037,None,,,,,,,,,,,,,,,,,,,,,,,,,,,,,,,,,,,Silent19,001,2022_Aug_05_1449,ProdSingRedoBetween,2021.2.3,59.85461314727108,
53,0,53,0,,,,,,,,,,,,,,,,,,,,,,,,,,434.35447150000255,None,community,56,54,silent,blue,432.35544339999615,None,None,432.35544339999615,None,,,,,,,,,,,,,,,,,,,,,,,,,,,,,,,,,,,Silent19,001,2022_Aug_05_1449,ProdSingRedoBetween,2021.2.3,59.85461314727108,
54,0,54,0,,,,,,,,,,,,,,,,,,,,,,,,,,436.8569339999958,None,junior,6,55,silent,yellow,434.85494419999304,None,None,434.85494419999304,None,,,,,,,,,,,,,,,,,,,,,,,,,,,,,,,,,,,Silent19,001,2022_Aug_05_1449,ProdSingRedoBetween,2021.2.3,59.85461314727108,
55,0,55,0,,,,,,,,,,,,,,,,,,,,,,,,,,439.3594962999923,None,husband,33,56,silent,blue,437.35941629999434,None,None,437.35941629999434,None,,,,,,,,,,,,,,,,,,,,,,,,,,,,,,,,,,,Silent19,001,2022_Aug_05_1449,ProdSingRedoBetween,2021.2.3,59.85461314727108,
56,0,56,0,,,,,,,,,,,,,,,,,,,,,,,,,,441.8786928999907,None,incident,61,57,silent,red,439.8635904999974,None,None,439.8635904999974,None,,,,,,,,,,,,,,,,,,,,,,,,,,,,,,,,,,,Silent19,001,2022_Aug_05_1449,ProdSingRedoBetween,2021.2.3,59.85461314727108,
57,0,57,0,,,,,,,,,,,,,,,,,,,,,,,,,,444.3810433999897,None,appeal,85,58,silent,red,442.379071000003,None,None,442.379071000003,None,,,,,,,,,,,,,,,,,,,,,,,,,,,,,,,,,,,Silent19,001,2022_Aug_05_1449,ProdSingRedoBetween,2021.2.3,59.85461314727108,
58,0,58,0,,,,,,,,,,,,,,,,,,,,,,,,,,446.9003815999895,None,charter,76,59,silent,red,444.8938036999898,None,None,444.8938036999898,None,,,,,,,,,,,,,,,,,,,,,,,,,,,,,,,,,,,Silent19,001,2022_Aug_05_1449,ProdSingRedoBetween,2021.2.3,59.85461314727108,
59,0,59,0,,,,,,,,,,,,,,,,,,,,,,,,,,449.4194190999988,None,express,22,60,silent,yellow,447.4038645999972,None,None,447.4038645999972,None,,,,,,,,,,,,,,,,,,,,,,,,,,,,,,,,,,,Silent19,001,2022_Aug_05_1449,ProdSingRedoBetween,2021.2.3,59.85461314727108,
60,0,60,0,,,,,,,,,,,,,,,,,,,,,,,,,,451.92180529999314,None,opening,2,61,silent,yellow,449.9212564999907,None,None,449.9212564999907,None,,,,,,,,,,,,,,,,,,,,,,,,,,,,,,,,,,,Silent19,001,2022_Aug_05_1449,ProdSingRedoBetween,2021.2.3,59.85461314727108,
61,0,61,0,,,,,,,,,,,,,,,,,,,,,,,,,,454.4244322000013,None,literature,88,62,silent,red,452.42263919999823,None,None,452.42263919999823,None,,,,,,,,,,,,,,,,,,,,,,,,,,,,,,,,,,,Silent19,001,2022_Aug_05_1449,ProdSingRedoBetween,2021.2.3,59.85461314727108,
62,0,62,0,,,,,,,,,,,,,,,,,,,,,,,,,,456.92690039999434,None,level,79,63,silent,red,454.92574959999183,None,None,454.92574959999183,None,,,,,,,,,,,,,,,,,,,,,,,,,,,,,,,,,,,Silent19,001,2022_Aug_05_1449,ProdSingRedoBetween,2021.2.3,59.85461314727108,
63,0,63,0,,,,,,,,,,,,,,,,,,,,,,,,,,459.42949450000015,None,curve,28,64,silent,yellow,457.4272675999964,None,None,457.4272675999964,None,,,,,,,,,,,,,,,,,,,,,,,,,,,,,,,,,,,Silent19,001,2022_Aug_05_1449,ProdSingRedoBetween,2021.2.3,59.85461314727108,
64,0,64,0,,,,,,,,,,,,,,,,,,,,,,,,,,461.9486451999983,None,institute,18,65,silent,yellow,459.9342559999932,None,None,459.9342559999932,None,,,,,,,,,,,,,,,,,,,,,,,,,,,,,,,,,,,Silent19,001,2022_Aug_05_1449,ProdSingRedoBetween,2021.2.3,59.85461314727108,
65,0,65,0,,,,,,,,,,,,,,,,,,,,,,,,,,464.45114869999816,None,goose,12,66,silent,yellow,462.45061220000207,None,None,462.45061220000207,None,,,,,,,,,,,,,,,,,,,,,,,,,,,,,,,,,,,Silent19,001,2022_Aug_05_1449,ProdSingRedoBetween,2021.2.3,59.85461314727108,
66,0,66,0,,,,,,,,,,,,,,,,,,,,,,,,,,466.95369769999525,None,minor,58,67,silent,blue,464.9534480000002,None,None,464.9534480000002,None,,,,,,,,,,,,,,,,,,,,,,,,,,,,,,,,,,,Silent19,001,2022_Aug_05_1449,ProdSingRedoBetween,2021.2.3,59.85461314727108,
67,0,67,0,,,,,,,,,,,,,,,,,,,,,,,,,,469.45633149999776,None,couch,65,68,silent,red,467.45411179999064,None,None,467.45411179999064,None,,,,,,,,,,,,,,,,,,,,,,,,,,,,,,,,,,,Silent19,001,2022_Aug_05_1449,ProdSingRedoBetween,2021.2.3,59.85461314727108,
68,0,68,0,,,,,,,,,,,,,,,,,,,,,,,,,,471.9586542999896,None,narrow,43,69,silent,blue,469.9585806999967,None,None,469.9585806999967,None,,,,,,,,,,,,,,,,,,,,,,,,,,,,,,,,,,,Silent19,001,2022_Aug_05_1449,ProdSingRedoBetween,2021.2.3,59.85461314727108,
69,0,69,0,,,,,,,,,,,,,,,,,,,,,,,,,,474.4612669999915,None,bureau,74,70,silent,red,472.45904309999605,None,None,472.45904309999605,None,,,,,,,,,,,,,,,,,,,,,,,,,,,,,,,,,,,Silent19,001,2022_Aug_05_1449,ProdSingRedoBetween,2021.2.3,59.85461314727108,
70,0,70,0,,,,,,,,,,,,,,,,,,,,,,,,,,476.9802389999968,None,spoke,42,71,silent,blue,474.96975569998904,None,None,474.96975569998904,None,,,,,,,,,,,,,,,,,,,,,,,,,,,,,,,,,,,Silent19,001,2022_Aug_05_1449,ProdSingRedoBetween,2021.2.3,59.85461314727108,
71,0,71,0,,,,,,,,,,,,,,,,,,,,,,,,,,479.4994144999946,None,suspect,57,72,silent,blue,477.4862393999938,None,None,477.4862393999938,None,,,,,,,,,,,,,,,,,,,,,,,,,,,,,,,,,,,Silent19,001,2022_Aug_05_1449,ProdSingRedoBetween,2021.2.3,59.85461314727108,
72,0,72,0,,,,,,,,,,,,,,,,,,,,,,,,,,482.00205489998916,None,course,77,73,silent,red,480.0027873999934,None,None,480.0027873999934,None,,,,,,,,,,,,,,,,,,,,,,,,,,,,,,,,,,,Silent19,001,2022_Aug_05_1449,ProdSingRedoBetween,2021.2.3,59.85461314727108,
73,0,73,0,,,,,,,,,,,,,,,,,,,,,,,,,,484.5045323999948,None,collection,5,74,silent,yellow,482.5026990999904,None,None,482.5026990999904,None,,,,,,,,,,,,,,,,,,,,,,,,,,,,,,,,,,,Silent19,001,2022_Aug_05_1449,ProdSingRedoBetween,2021.2.3,59.85461314727108,
74,0,74,0,,,,,,,,,,,,,,,,,,,,,,,,,,487.0236125999945,None,signal,53,75,silent,blue,485.0086136000027,None,None,485.0086136000027,None,,,,,,,,,,,,,,,,,,,,,,,,,,,,,,,,,,,Silent19,001,2022_Aug_05_1449,ProdSingRedoBetween,2021.2.3,59.85461314727108,
75,0,75,0,,,,,,,,,,,,,,,,,,,,,,,,,,489.5262151999923,None,agreement,48,76,silent,blue,487.5242192000005,None,None,487.5242192000005,None,,,,,,,,,,,,,,,,,,,,,,,,,,,,,,,,,,,Silent19,001,2022_Aug_05_1449,ProdSingRedoBetween,2021.2.3,59.85461314727108,
76,0,76,0,,,,,,,,,,,,,,,,,,,,,,,,,,492.02861069999926,None,match,71,77,silent,red,490.02697449999687,None,None,490.02697449999687,None,,,,,,,,,,,,,,,,,,,,,,,,,,,,,,,,,,,Silent19,001,2022_Aug_05_1449,ProdSingRedoBetween,2021.2.3,59.85461314727108,
77,0,77,0,,,,,,,,,,,,,,,,,,,,,,,,,,494.5311051999888,None,emergency,36,78,silent,blue,492.5292514999892,None,None,492.5292514999892,None,,,,,,,,,,,,,,,,,,,,,,,,,,,,,,,,,,,Silent19,001,2022_Aug_05_1449,ProdSingRedoBetween,2021.2.3,59.85461314727108,
78,0,78,0,,,,,,,,,,,,,,,,,,,,,,,,,,497.03376859999844,None,drink,81,79,silent,red,495.031625299991,None,None,495.031625299991,None,,,,,,,,,,,,,,,,,,,,,,,,,,,,,,,,,,,Silent19,001,2022_Aug_05_1449,ProdSingRedoBetween,2021.2.3,59.85461314727108,
79,0,79,0,,,,,,,,,,,,,,,,,,,,,,,,,,499.5361806000001,None,damage,41,80,silent,blue,497.5345449000015,None,None,497.5345449000015,None,,,,,,,,,,,,,,,,,,,,,,,,,,,,,,,,,,,Silent19,001,2022_Aug_05_1449,ProdSingRedoBetween,2021.2.3,59.85461314727108,
80,0,80,0,,,,,,,,,,,,,,,,,,,,,,,,,,502.05542689999857,None,meeting,21,81,silent,yellow,500.039910099993,None,None,500.039910099993,None,,,,,,,,,,,,,,,,,,,,,,,,,,,,,,,,,,,Silent19,001,2022_Aug_05_1449,ProdSingRedoBetween,2021.2.3,59.85461314727108,
81,0,81,0,,,,,,,,,,,,,,,,,,,,,,,,,,504.5746347999957,None,silence,30,82,silent,blue,502.5594563999912,None,None,502.5594563999912,None,,,,,,,,,,,,,,,,,,,,,,,,,,,,,,,,,,,Silent19,001,2022_Aug_05_1449,ProdSingRedoBetween,2021.2.3,59.85461314727108,
82,0,82,0,,,,,,,,,,,,,,,,,,,,,,,,,,507.0769653000025,None,throw,62,83,silent,red,505.0749109999888,None,None,505.0749109999888,None,,,,,,,,,,,,,,,,,,,,,,,,,,,,,,,,,,,Silent19,001,2022_Aug_05_1449,ProdSingRedoBetween,2021.2.3,59.85461314727108,
83,0,83,0,,,,,,,,,,,,,,,,,,,,,,,,,,509.57942999999796,None,south,11,84,silent,yellow,507.57756599999266,None,None,507.57756599999266,None,,,,,,,,,,,,,,,,,,,,,,,,,,,,,,,,,,,Silent19,001,2022_Aug_05_1449,ProdSingRedoBetween,2021.2.3,59.85461314727108,
84,0,84,0,,,,,,,,,,,,,,,,,,,,,,,,,,512.0818160999916,None,career,72,85,silent,red,510.07990349999454,None,None,510.07990349999454,None,,,,,,,,,,,,,,,,,,,,,,,,,,,,,,,,,,,Silent19,001,2022_Aug_05_1449,ProdSingRedoBetween,2021.2.3,59.85461314727108,
85,0,85,0,,,,,,,,,,,,,,,,,,,,,,,,,,514.5846164999966,None,thick,29,86,silent,blue,512.5824414999952,None,None,512.5824414999952,None,,,,,,,,,,,,,,,,,,,,,,,,,,,,,,,,,,,Silent19,001,2022_Aug_05_1449,ProdSingRedoBetween,2021.2.3,59.85461314727108,
86,0,86,0,,,,,,,,,,,,,,,,,,,,,,,,,,517.1036004999914,None,trend,54,87,silent,blue,515.0881017999927,None,None,515.0881017999927,None,,,,,,,,,,,,,,,,,,,,,,,,,,,,,,,,,,,Silent19,001,2022_Aug_05_1449,ProdSingRedoBetween,2021.2.3,59.85461314727108,
87,0,87,0,,,,,,,,,,,,,,,,,,,,,,,,,,519.6059820999944,None,object,25,88,silent,yellow,517.6040541999973,None,None,517.6040541999973,None,,,,,,,,,,,,,,,,,,,,,,,,,,,,,,,,,,,Silent19,001,2022_Aug_05_1449,ProdSingRedoBetween,2021.2.3,59.85461314727108,
88,0,88,0,,,,,,,,,,,,,,,,,,,,,,,,,,522.1084774999908,None,solution,8,89,silent,yellow,520.106570399992,None,None,520.106570399992,None,,,,,,,,,,,,,,,,,,,,,,,,,,,,,,,,,,,Silent19,001,2022_Aug_05_1449,ProdSingRedoBetween,2021.2.3,59.85461314727108,
89,0,89,0,,,,,,,,,,,,,,,,,,,,,,,,,,524.6111125000025,None,people,40,90,silent,blue,522.6090417999949,None,None,522.6090417999949,None,,,,,,,,,,,,,,,,,,,,,,,,,,,,,,,,,,,Silent19,001,2022_Aug_05_1449,ProdSingRedoBetween,2021.2.3,59.85461314727108,
,,,,,,,,,,,,,,,,,,,,,,,,,,,,,,,,,,,,,,,,,525.111846499989,None,k,101.16514660000394,525.111846499989,None,,,,,,,,,,,,,,,,,,,,,,,,,,,,,Silent19,001,2022_Aug_05_1449,ProdSingRedoBetween,2021.2.3,59.85461314727108,
,,,,0,0,0,0,,,,,,,,,,,,,,,,,,,,,,636.155745600001,None,,,,,,,,,,,,,,,,,collection,5,1,silent,old,yellow,626.797266900001,None,626.797266900001,None,1,5.423527700011618,626.797266900001,None,5.423527700011618,632.255671299994,None,632.7691211999918,None,632.7691211999918,None,f,3.363815999997314,632.7691211999918,None,3.363815999997314,,,Silent19,001,2022_Aug_05_1449,ProdSingRedoBetween,2021.2.3,59.85461314727108,
,,,,1,0,1,0,,,,,,,,,,,,,,,,,,,,,,645.0172844999906,None,,,,,,,,,,,,,,,,,empty,145,2,silent,new,null,636.6669171999965,None,636.6669171999965,None,1,4.617896399999154,636.6669171999965,None,4.617896399999154,641.3126701000001,None,641.8281370999903,None,641.8281370999903,None,f,3.1690189999935683,641.8281370999903,None,3.1690189999935683,,,Silent19,001,2022_Aug_05_1449,ProdSingRedoBetween,2021.2.3,59.85461314727108,
,,,,2,0,2,0,,,,,,,,,,,,,,,,,,,,,,651.256197499999,None,,,,,,,,,,,,,,,,,household,84,3,silent,old,red,645.5398649999988,None,645.5398649999988,None,6,3.297115399996983,645.5398649999988,None,3.297115399996983,648.8576288999902,None,649.3721463999973,None,649.3721463999973,None,r,1.85681709999335,649.3721463999973,None,1.85681709999335,,,Silent19,001,2022_Aug_05_1449,ProdSingRedoBetween,2021.2.3,59.85461314727108,
,,,,3,0,3,0,,,,,,,,,,,,,,,,,,,,,,659.3964103999897,None,,,,,,,,,,,,,,,,,center,49,4,silent,old,blue,651.7752427999949,None,651.7752427999949,None,4,5.109831699999631,651.7752427999949,None,5.109831699999631,656.9166554999974,None,657.4270814999909,None,657.4270814999909,None,f,1.9378956000000471,657.4270814999909,None,1.9378956000000471,,,Silent19,001,2022_Aug_05_1449,ProdSingRedoBetween,2021.2.3,59.85461314727108,
,,,,4,0,4,0,,,,,,,,,,,,,,,,,,,,,,665.8687567000015,None,,,,,,,,,,,,,,,,,right,83,5,silent,old,red,659.8991791000008,None,659.8991791000008,None,6,3.897721899993485,659.8991791000008,None,3.897721899993485,663.8166952000029,None,664.3197387999971,None,664.3197387999971,None,r,1.5252155999914976,664.3197387999971,None,1.5252155999914976,,,Silent19,001,2022_Aug_05_1449,ProdSingRedoBetween,2021.2.3,59.85461314727108,
,,,,5,0,5,0,,,,,,,,,,,,,,,,,,,,,,672.4919636999985,None,,,,,,,,,,,,,,,,,hearing,20,6,silent,old,yellow,666.3719475999969,None,666.3719475999969,None,1,3.169023099995684,666.3719475999969,None,3.169023099995684,669.5602192999941,None,670.0730277999974,None,670.0730277999974,None,f,2.4038876999984495,670.0730277999974,None,2.4038876999984495,,,Silent19,001,2022_Aug_05_1449,ProdSingRedoBetween,2021.2.3,59.85461314727108,
,,,,6,0,6,0,,,,,,,,,,,,,,,,,,,,,,679.0485066999972,None,,,,,,,,,,,,,,,,,income,146,7,silent,new,null,673.0030625999934,None,673.0030625999934,None,5,3.009906899998896,673.0030625999934,None,3.009906899998896,676.0345546000026,None,676.5492922999983,None,676.5492922999983,None,r,2.4795857000135584,676.5492922999983,None,2.4795857000135584,,,Silent19,001,2022_Aug_05_1449,ProdSingRedoBetween,2021.2.3,59.85461314727108,
,,,,7,0,7,0,,,,,,,,,,,,,,,,,,,,,,685.1088608999999,None,,,,,,,,,,,,,,,,,interview,124,8,silent,new,null,679.5574035000027,None,679.5574035000027,None,3,3.7355356000043685,679.5574035000027,None,3.7355356000043685,683.3255672999949,None,683.8418004999985,None,683.8418004999985,None,f,1.2352096000104211,683.8418004999985,None,1.2352096000104211,,,Silent19,001,2022_Aug_05_1449,ProdSingRedoBetween,2021.2.3,59.85461314727108,
,,,,8,0,8,0,,,,,,,,,,,,,,,,,,,,,,691.6116094000026,None,,,,,,,,,,,,,,,,,executive,153,9,silent,new,null,685.6343625000009,None,685.6343625000009,None,1,2.3704953999986174,685.6343625000009,None,2.3704953999986174,688.02417959999,None,688.5248144999932,None,688.5248144999932,None,n,3.0641405999922426,688.5248144999932,None,3.0641405999922426,,,Silent19,001,2022_Aug_05_1449,ProdSingRedoBetween,2021.2.3,59.85461314727108,
,,,,9,0,9,0,,,,,,,,,,,,,,,,,,,,,,696.4992643000005,None,,,,,,,,,,,,,,,,,couch,65,10,silent,old,red,692.1120805999963,None,692.1120805999963,None,6,3.2527765999984695,692.1120805999963,None,3.2527765999984695,695.3945714000001,None,695.89876489999,None,695.89876489999,None,r,0.5781290000013541,695.89876489999,None,0.5781290000013541,,,Silent19,001,2022_Aug_05_1449,ProdSingRedoBetween,2021.2.3,59.85461314727108,
,,,,10,0,10,0,,,,,,,,,,,,,,,,,,,,,,702.822256200001,None,,,,,,,,,,,,,,,,,pattern,132,11,silent,new,null,696.9999051999912,None,696.9999051999912,None,1,2.26095370000985,696.9999051999912,None,2.26095370000985,699.2865907999949,None,699.7915549999889,None,699.7915549999889,None,f,3.0052884000033373,699.7915549999889,None,3.0052884000033373,,,Silent19,001,2022_Aug_05_1449,ProdSingRedoBetween,2021.2.3,59.85461314727108,
,,,,11,0,11,0,,,,,,,,,,,,,,,,,,,,,,707.4769152999943,None,,,,,,,,,,,,,,,,,express,22,12,silent,old,yellow,703.3287906999903,None,703.3287906999903,None,6,2.764014499989571,703.3287906999903,None,2.764014499989571,706.1126207999914,None,706.6288472000015,None,706.6288472000015,None,r,0.8320028999878559,706.6288472000015,None,0.8320028999878559,,,Silent19,001,2022_Aug_05_1449,ProdSingRedoBetween,2021.2.3,59.85461314727108,
,,,,12,0,12,0,,,,,,,,,,,,,,,,,,,,,,713.7998791999999,None,,,,,,,,,,,,,,,,,evidence,173,13,silent,new,null,707.9865634000016,None,707.9865634000016,None,4,2.538277800005744,707.9865634000016,None,2.538277800005744,710.5479251999932,None,711.0536970999965,None,711.0536970999965,None,f,2.719181100008427,711.0536970999965,None,2.719181100008427,,,Silent19,001,2022_Aug_05_1449,ProdSingRedoBetween,2021.2.3,59.85461314727108,
,,,,13,0,13,0,,,,,,,,,,,,,,,,,,,,,,718.0041603999998,None,,,,,,,,,,,,,,,,,employment,163,14,silent,new,null,714.3118117999984,None,714.3118117999984,None,2,2.24508190000779,714.3118117999984,None,2.24508190000779,716.5870240999939,None,717.0984232999908,None,717.0984232999908,None,f,0.8824137999908999,717.0984232999908,None,0.8824137999908999,,,Silent19,001,2022_Aug_05_1449,ProdSingRedoBetween,2021.2.3,59.85461314727108,
,,,,14,0,14,0,,,,,,,,,,,,,,,,,,,,,,726.5475640999939,None,,,,,,,,,,,,,,,,,order,134,15,silent,new,null,718.5047745999909,None,718.5047745999909,None,6,2.9800526999897556,718.5047745999909,None,2.9800526999897556,721.5076147999935,None,722.0083742999996,None,722.0083742999996,None,r,4.516571100000874,722.0083742999996,None,4.516571100000874,,,Silent19,001,2022_Aug_05_1449,ProdSingRedoBetween,2021.2.3,59.85461314727108,
,,,,15,0,15,0,,,,,,,,,,,,,,,,,,,,,,730.4832579999929,None,,,,,,,,,,,,,,,,,fashion,9,16,silent,old,yellow,727.0682803999953,None,727.0682803999953,None,1,1.8326467000006232,727.0682803999953,None,1.8326467000006232,728.9381864999887,None,729.4490385999961,None,729.4490385999961,None,n,1.0117790999938734,729.4490385999961,None,1.0117790999938734,,,Silent19,001,2022_Aug_05_1449,ProdSingRedoBetween,2021.2.3,59.85461314727108,
,,,,16,0,16,0,,,,,,,,,,,,,,,,,,,,,,735.5382547999907,None,,,,,,,,,,,,,,,,,orchestra,133,17,silent,new,null,730.9870108999894,None,730.9870108999894,None,4,3.13791659999697,730.9870108999894,None,3.13791659999697,734.1578721999977,None,734.6708002999949,None,734.6708002999949,None,f,0.8380024999933084,734.6708002999949,None,0.8380024999933084,,,Silent19,001,2022_Aug_05_1449,ProdSingRedoBetween,2021.2.3,59.85461314727108,
,,,,17,0,17,0,,,,,,,,,,,,,,,,,,,,,,739.1752465000027,None,,,,,,,,,,,,,,,,,junior,6,18,silent,old,yellow,736.0465964999894,None,736.0465964999894,None,1,1.542153500005952,736.0465964999894,None,1.542153500005952,737.6081578000012,None,738.1117816999904,None,738.1117816999904,None,f,1.0450574999995297,738.1117816999904,None,1.0450574999995297,,,Silent19,001,2022_Aug_05_1449,ProdSingRedoBetween,2021.2.3,59.85461314727108,
,,,,18,0,18,0,,,,,,,,,,,,,,,,,,,,,,743.8308376999921,None,,,,,,,,,,,,,,,,,drink,81,19,silent,old,red,739.6790138999932,None,739.6790138999932,None,6,2.0217728999996325,739.6790138999932,None,2.0217728999996325,741.7279061000008,None,742.2314726999903,None,742.2314726999903,None,r,1.5814742000075057,742.2314726999903,None,1.5814742000075057,,,Silent19,001,2022_Aug_05_1449,ProdSingRedoBetween,2021.2.3,59.85461314727108,
,,,,19,0,19,0,,,,,,,,,,,,,,,,,,,,,,747.4333809999953,None,,,,,,,,,,,,,,,,,captain,104,20,silent,new,null,744.3451774999994,None,744.3451774999994,None,5,1.8836174000025494,744.3451774999994,None,1.8836174000025494,746.2502722999925,None,746.7553983999969,None,746.7553983999969,None,r,0.6573979999957373,746.7553983999969,None,0.6573979999957373,,,Silent19,001,2022_Aug_05_1449,ProdSingRedoBetween,2021.2.3,59.85461314727108,
,,,,20,0,20,0,,,,,,,,,,,,,,,,,,,,,,751.7734223000007,None,,,,,,,,,,,,,,,,,tennis,31,21,silent,old,blue,747.941439599992,None,747.941439599992,None,4,2.279390100011369,747.941439599992,None,2.279390100011369,750.237652900003,None,750.7396114000003,None,750.7396114000003,None,r,1.0090545999992173,750.7396114000003,None,1.0090545999992173,,,Silent19,001,2022_Aug_05_1449,ProdSingRedoBetween,2021.2.3,59.85461314727108,
,,,,21,0,21,0,,,,,,,,,,,,,,,,,,,,,,756.1987418999925,None,,,,,,,,,,,,,,,,,notice,140,22,silent,new,null,752.2883732999908,None,752.2883732999908,None,2,2.668358900002204,752.2883732999908,None,2.668358900002204,754.9743600999936,None,755.4760761999933,None,755.4760761999933,None,f,0.6968391999980668,755.4760761999933,None,0.6968391999980668,,,Silent19,001,2022_Aug_05_1449,ProdSingRedoBetween,2021.2.3,59.85461314727108,
,,,,22,0,22,0,,,,,,,,,,,,,,,,,,,,,,761.4640934999916,None,,,,,,,,,,,,,,,,,author,34,23,silent,old,blue,756.7161674999952,None,756.7161674999952,None,6,3.160644900010084,756.7161674999952,None,3.160644900010084,759.8959840000025,None,760.3965347999911,None,760.3965347999911,None,r,1.0402335999970092,760.3965347999911,None,1.0402335999970092,,,Silent19,001,2022_Aug_05_1449,ProdSingRedoBetween,2021.2.3,59.85461314727108,
,,,,23,0,23,0,,,,,,,,,,,,,,,,,,,,,,765.1693387999985,None,,,,,,,,,,,,,,,,,review,114,24,silent,new,null,761.9761367000028,None,761.9761367000028,None,4,2.2126556000002893,761.9761367000028,None,2.2126556000002893,764.2181524999905,None,764.7218098000012,None,764.7218098000012,None,r,0.41903229999297764,764.7218098000012,None,0.41903229999297764,,,Silent19,001,2022_Aug_05_1449,ProdSingRedoBetween,2021.2.3,59.85461314727108,
,,,,24,0,24,0,,,,,,,,,,,,,,,,,,,,,,769.0385039999965,None,,,,,,,,,,,,,,,,,minute,93,25,silent,new,null,765.6852031000017,None,765.6852031000017,None,1,1.6235692000045674,765.6852031000017,None,1.6235692000045674,767.3398950999981,None,767.8540815000015,None,767.8540815000015,None,f,1.158705399997416,767.8540815000015,None,1.158705399997416,,,Silent19,001,2022_Aug_05_1449,ProdSingRedoBetween,2021.2.3,59.85461314727108,
,,,,25,0,25,0,,,,,,,,,,,,,,,,,,,,,,772.675296100002,None,,,,,,,,,,,,,,,,,bright,126,26,silent,new,null,769.5475295999931,None,769.5475295999931,None,2,1.6491938999970444,769.5475295999931,None,1.6491938999970444,771.2239675000019,None,771.7246087999956,None,771.7246087999956,None,f,0.9282546999893384,771.7246087999956,None,0.9282546999893384,,,Silent19,001,2022_Aug_05_1449,ProdSingRedoBetween,2021.2.3,59.85461314727108,
,,,,26,0,26,0,,,,,,,,,,,,,,,,,,,,,,777.1630882000027,None,,,,,,,,,,,,,,,,,concern,23,27,silent,old,yellow,773.1840538999968,None,773.1840538999968,None,6,2.1806912000029115,773.1840538999968,None,2.1806912000029115,775.3947400999896,None,775.8978855999885,None,775.8978855999885,None,r,1.2429034000087995,775.8978855999885,None,1.2429034000087995,,,Silent19,001,2022_Aug_05_1449,ProdSingRedoBetween,2021.2.3,59.85461314727108,
,,,,27,0,27,0,,,,,,,,,,,,,,,,,,,,,,781.9512419999955,None,,,,,,,,,,,,,,,,,fellow,63,28,silent,old,red,777.6666976999986,None,777.6666976999986,None,6,2.338157100006356,777.6666976999986,None,2.338157100006356,780.0386627999978,None,780.5500345999899,None,780.5500345999899,None,r,1.3746728999976767,780.5500345999899,None,1.3746728999976767,,,Silent19,001,2022_Aug_05_1449,ProdSingRedoBetween,2021.2.3,59.85461314727108,
,,,,28,0,28,0,,,,,,,,,,,,,,,,,,,,,,784.9875799000001,None,,,,,,,,,,,,,,,,,meeting,21,29,silent,old,yellow,782.4520631999912,None,782.4520631999912,None,5,1.4007161000045016,782.4520631999912,None,1.4007161000045016,783.8697761999938,None,784.3728034999949,None,784.3728034999949,None,f,0.5922523000044748,784.3728034999949,None,0.5922523000044748,,,Silent19,001,2022_Aug_05_1449,ProdSingRedoBetween,2021.2.3,59.85461314727108,
,,,,29,0,29,0,,,,,,,,,,,,,,,,,,,,,,789.6255133999948,None,,,,,,,,,,,,,,,,,comedy,118,30,silent,new,null,785.4971239000006,None,785.4971239000006,None,1,1.771505700002308,785.4971239000006,None,1.771505700002308,787.2919234000001,None,787.8071679999994,None,787.8071679999994,None,f,1.797705599994515,787.8071679999994,None,1.797705599994515,,,Silent19,001,2022_Aug_05_1449,ProdSingRedoBetween,2021.2.3,59.85461314727108,
,,,,30,0,30,0,,,,,,,,,,,,,,,,,,,,,,793.9632486999908,None,,,,,,,,,,,,,,,,,interior,130,31,silent,new,null,790.1324593999889,None,790.1324593999889,None,2,2.1363339999952586,790.1324593999889,None,2.1363339999952586,792.3001037999929,None,792.8145584000013,None,792.8145584000013,None,f,1.1261901999969268,792.8145584000013,None,1.1261901999969268,,,Silent19,001,2022_Aug_05_1449,ProdSingRedoBetween,2021.2.3,59.85461314727108,
,,,,31,0,31,0,,,,,,,,,,,,,,,,,,,,,,797.9337966000021,None,,,,,,,,,,,,,,,,,comfort,100,32,silent,new,null,794.4739862999995,None,794.4739862999995,None,1,1.9228483000042615,794.4739862999995,None,1.9228483000042615,796.4216924999928,None,796.9381221999938,None,796.9381221999938,None,f,0.9706347000028472,796.9381221999938,None,0.9706347000028472,,,Silent19,001,2022_Aug_05_1449,ProdSingRedoBetween,2021.2.3,59.85461314727108,
,,,,32,0,32,0,,,,,,,,,,,,,,,,,,,,,,802.087967799991,None,,,,,,,,,,,,,,,,,shock,17,33,silent,old,yellow,798.4419068999996,None,798.4419068999996,None,6,1.795042800004012,798.4419068999996,None,1.795042800004012,800.2606505000003,None,800.7701517999958,None,800.7701517999958,None,r,1.290535699998145,800.7701517999958,None,1.290535699998145,,,Silent19,001,2022_Aug_05_1449,ProdSingRedoBetween,2021.2.3,59.85461314727108,
,,,,33,0,33,0,,,,,,,,,,,,,,,,,,,,,,806.1921154000011,None,,,,,,,,,,,,,,,,,science,144,34,silent,new,null,802.5974205999955,None,802.5974205999955,None,2,2.1033218999946257,802.5974205999955,None,2.1033218999946257,804.7251685999945,None,805.2296290999948,None,805.2296290999948,None,f,0.9351276000088546,805.2296290999948,None,0.9351276000088546,,,Silent19,001,2022_Aug_05_1449,ProdSingRedoBetween,2021.2.3,59.85461314727108,
,,,,34,0,34,0,,,,,,,,,,,,,,,,,,,,,,811.230453600001,None,,,,,,,,,,,,,,,,,profession,96,35,silent,new,null,806.6943822999892,None,806.6943822999892,None,1,2.1903070000116713,806.6943822999892,None,2.1903070000116713,808.9126084000018,None,809.4202909000014,None,809.4202909000014,None,f,1.792414600000484,809.4202909000014,None,1.792414600000484,,,Silent19,001,2022_Aug_05_1449,ProdSingRedoBetween,2021.2.3,59.85461314727108,
,,,,35,0,35,0,,,,,,,,,,,,,,,,,,,,,,815.2011782999907,None,,,,,,,,,,,,,,,,,production,113,36,silent,new,null,811.7497638999921,None,811.7497638999921,None,5,1.6629643000051146,811.7497638999921,None,1.6629643000051146,813.4338800999976,None,813.9397373999964,None,813.9397373999964,None,f,1.2409938999917358,813.9397373999964,None,1.2409938999917358,,,Silent19,001,2022_Aug_05_1449,ProdSingRedoBetween,2021.2.3,59.85461314727108,
,,,,36,0,36,0,,,,,,,,,,,,,,,,,,,,,,820.539737500003,None,,,,,,,,,,,,,,,,,brilliant,138,37,silent,new,null,815.7076362999942,None,815.7076362999942,None,2,2.3450678999943193,815.7076362999942,None,2.3450678999943193,818.0716457999952,None,818.5736830999958,None,818.5736830999958,None,f,1.943033400006243,818.5736830999958,None,1.943033400006243,,,Silent19,001,2022_Aug_05_1449,ProdSingRedoBetween,2021.2.3,59.85461314727108,
,,,,37,0,37,0,,,,,,,,,,,,,,,,,,,,,,825.4111835999938,None,,,,,,,,,,,,,,,,,individual,14,38,silent,old,yellow,821.0441608999972,None,821.0441608999972,None,2,1.8405686000041896,821.0441608999972,None,1.8405686000041896,822.9245383999951,None,823.4261821999971,None,823.4261821999971,None,f,1.9624414999998407,823.4261821999971,None,1.9624414999998407,,,Silent19,001,2022_Aug_05_1449,ProdSingRedoBetween,2021.2.3,59.85461314727108,
,,,,38,0,38,0,,,,,,,,,,,,,,,,,,,,,,832.2013877999998,None,,,,,,,,,,,,,,,,,death,111,39,silent,new,null,825.919355799997,None,825.919355799997,None,5,3.829515600009472,825.919355799997,None,3.829515600009472,829.7714057999983,None,830.2829903999955,None,830.2829903999955,None,f,1.8897725000133505,830.2829903999955,None,1.8897725000133505,,,Silent19,001,2022_Aug_05_1449,ProdSingRedoBetween,2021.2.3,59.85461314727108,
,,,,39,0,39,0,,,,,,,,,,,,,,,,,,,,,,836.8393548000022,None,,,,,,,,,,,,,,,,,shape,69,40,silent,old,red,832.7123041000013,None,832.7123041000013,None,6,2.412471000003279,832.7123041000013,None,2.412471000003279,835.1595417999924,None,835.6719420000009,None,835.6719420000009,None,r,1.1488868999877013,835.6719420000009,None,1.1488868999877013,,,Silent19,001,2022_Aug_05_1449,ProdSingRedoBetween,2021.2.3,59.85461314727108,
,,,,40,0,40,0,,,,,,,,,,,,,,,,,,,,,,840.0758844999946,None,,,,,,,,,,,,,,,,,court,4,41,silent,old,yellow,837.3505607999978,None,837.3505607999978,None,6,1.7661375000025146,837.3505607999978,None,1.7661375000025146,839.1417775000009,None,839.6462382999889,None,839.6462382999889,None,r,0.39855460000399034,839.6462382999889,None,0.39855460000399034,,,Silent19,001,2022_Aug_05_1449,ProdSingRedoBetween,2021.2.3,59.85461314727108,
,,,,41,0,41,0,,,,,,,,,,,,,,,,,,,,,,843.996427799997,None,,,,,,,,,,,,,,,,,education,24,42,silent,old,yellow,840.5878910999891,None,840.5878910999891,None,4,2.40881160000572,840.5878910999891,None,2.40881160000572,843.0167748999957,None,843.5343297999934,None,843.5343297999934,None,f,0.4464802000002237,843.5343297999934,None,0.4464802000002237,,,Silent19,001,2022_Aug_05_1449,ProdSingRedoBetween,2021.2.3,59.85461314727108,
,,,,42,0,42,0,,,,,,,,,,,,,,,,,,,,,,848.0868041999929,None,,,,,,,,,,,,,,,,,region,44,43,silent,old,blue,844.5003515999997,None,844.5003515999997,None,5,2.000346000000718,844.5003515999997,None,2.000346000000718,846.5167112999916,None,847.0207659000007,None,847.0207659000007,None,f,1.0399695999949472,847.0207659000007,None,1.0399695999949472,,,Silent19,001,2022_Aug_05_1449,ProdSingRedoBetween,2021.2.3,59.85461314727108,
,,,,43,0,43,0,,,,,,,,,,,,,,,,,,,,,,852.7886063999904,None,,,,,,,,,,,,,,,,,contract,150,44,silent,new,null,848.6012975999911,None,848.6012975999911,None,2,2.2515264000103343,848.6012975999911,None,2.2515264000103343,850.8838354999898,None,851.3874425999966,None,851.3874425999966,None,n,1.377252899997984,851.3874425999966,None,1.377252899997984,,,Silent19,001,2022_Aug_05_1449,ProdSingRedoBetween,2021.2.3,59.85461314727108,
,,,,44,0,44,0,,,,,,,,,,,,,,,,,,,,,,858.7780051000009,None,,,,,,,,,,,,,,,,,bureau,74,45,silent,old,red,853.2980361999944,None,853.2980361999944,None,4,2.4426118999981554,853.2980361999944,None,2.4426118999981554,855.759280600003,None,856.2588361999951,None,856.2588361999951,None,n,2.4978700000065146,856.2588361999951,None,2.4978700000065146,,,Silent19,001,2022_Aug_05_1449,ProdSingRedoBetween,2021.2.3,59.85461314727108,
,,,,45,0,45,0,,,,,,,,,,,,,,,,,,,,,,862.9988097000023,None,,,,,,,,,,,,,,,,,throw,62,46,silent,old,red,859.2815513999958,None,859.2815513999958,None,6,1.9872973000019556,859.2815513999958,None,1.9872973000019556,861.3042322999972,None,861.8144414999988,None,861.8144414999988,None,r,1.166158499996527,861.8144414999988,None,1.166158499996527,,,Silent19,001,2022_Aug_05_1449,ProdSingRedoBetween,2021.2.3,59.85461314727108,
,,,,46,0,46,0,,,,,,,,,,,,,,,,,,,,,,866.8025583999988,None,,,,,,,,,,,,,,,,,sight,129,47,silent,new,null,863.5025075000012,None,863.5025075000012,None,4,1.6540862999972887,863.5025075000012,None,1.6540862999972887,865.1842398000008,None,865.6884266999987,None,865.6884266999987,None,f,1.0842099000001326,865.6884266999987,None,1.0842099000001326,,,Silent19,001,2022_Aug_05_1449,ProdSingRedoBetween,2021.2.3,59.85461314727108,
,,,,47,0,47,0,,,,,,,,,,,,,,,,,,,,,,870.6897580999939,None,,,,,,,,,,,,,,,,,title,64,48,silent,old,red,867.3091538000008,None,867.3091538000008,None,5,1.8155991000094218,867.3091538000008,None,1.8155991000094218,869.1615643999976,None,869.6769953999901,None,869.6769953999901,None,r,0.9918971000006422,869.6769953999901,None,0.9918971000006422,,,Silent19,001,2022_Aug_05_1449,ProdSingRedoBetween,2021.2.3,59.85461314727108,
,,,,48,0,48,0,,,,,,,,,,,,,,,,,,,,,,873.6761296999903,None,,,,,,,,,,,,,,,,,series,127,49,silent,new,null,871.2013696999929,None,871.2013696999929,None,6,1.2912541999976384,871.2013696999929,None,1.2912541999976384,872.5115643000026,None,873.0306918999995,None,873.0306918999995,None,r,0.6220356000121683,873.0306918999995,None,0.6220356000121683,,,Silent19,001,2022_Aug_05_1449,ProdSingRedoBetween,2021.2.3,59.85461314727108,
,,,,49,0,49,0,,,,,,,,,,,,,,,,,,,,,,877.0128436999948,None,,,,,,,,,,,,,,,,,search,47,50,silent,old,blue,874.1798661999928,None,874.1798661999928,None,5,1.824800200003665,874.1798661999928,None,1.824800200003665,876.0296977999969,None,876.5357655999978,None,876.5357655999978,None,r,0.45290440000826493,876.5357655999978,None,0.45290440000826493,,,Silent19,001,2022_Aug_05_1449,ProdSingRedoBetween,2021.2.3,59.85461314727108,
,,,,50,0,50,0,,,,,,,,,,,,,,,,,,,,,,880.099109799994,None,,,,,,,,,,,,,,,,,spoke,42,51,silent,old,blue,877.5208895999967,None,877.5208895999967,None,5,1.4597288999939337,877.5208895999967,None,1.4597288999939337,878.9996510999918,None,879.5029213999951,None,879.5029213999951,None,f,0.5738024000020232,879.5029213999951,None,0.5738024000020232,,,Silent19,001,2022_Aug_05_1449,ProdSingRedoBetween,2021.2.3,59.85461314727108,
,,,,51,0,51,0,,,,,,,,,,,,,,,,,,,,,,884.3867816999991,None,,,,,,,,,,,,,,,,,charter,76,52,silent,old,red,880.6060252000025,None,880.6060252000025,None,6,2.6625912000017706,880.6060252000025,None,2.6625912000017706,883.2857460999949,None,883.7884225000016,None,883.7884225000016,None,r,0.5762538999988465,883.7884225000016,None,0.5762538999988465,,,Silent19,001,2022_Aug_05_1449,ProdSingRedoBetween,2021.2.3,59.85461314727108,
,,,,52,0,52,0,,,,,,,,,,,,,,,,,,,,,,889.7601275999914,None,,,,,,,,,,,,,,,,,crisis,125,53,silent,new,null,884.8997131999931,None,884.8997131999931,None,5,3.9689703000040026,884.8997131999931,None,3.9689703000040026,888.892769500002,None,889.4084958000021,None,889.4084958000021,None,r,0.33211580000352114,889.4084958000021,None,0.33211580000352114,,,Silent19,001,2022_Aug_05_1449,ProdSingRedoBetween,2021.2.3,59.85461314727108,
,,,,53,0,53,0,,,,,,,,,,,,,,,,,,,,,,893.5125723999954,None,,,,,,,,,,,,,,,,,plane,139,54,silent,new,null,890.2698054999928,None,890.2698054999928,None,6,2.1748230999946827,890.2698054999928,None,2.1748230999946827,892.4614664999972,None,892.9622450000024,None,892.9622450000024,None,f,0.5223992000101134,892.9622450000024,None,0.5223992000101134,,,Silent19,001,2022_Aug_05_1449,ProdSingRedoBetween,2021.2.3,59.85461314727108,
,,,,54,0,54,0,,,,,,,,,,,,,,,,,,,,,,896.7493315999891,None,,,,,,,,,,,,,,,,,community,56,55,silent,old,blue,894.0236099999893,None,894.0236099999893,None,6,1.6050248999963515,894.0236099999893,None,1.6050248999963515,895.6492183999944,None,896.1527645999886,None,896.1527645999886,None,r,0.57995280000614,896.1527645999886,None,0.57995280000614,,,Silent19,001,2022_Aug_05_1449,ProdSingRedoBetween,2021.2.3,59.85461314727108,
,,,,55,0,55,0,,,,,,,,,,,,,,,,,,,,,,902.9386681999895,None,,,,,,,,,,,,,,,,,color,99,56,silent,new,null,897.2582298999914,None,897.2582298999914,None,1,4.154325199997402,897.2582298999914,None,4.154325199997402,901.4589145999926,None,901.954473699996,None,901.954473699996,None,f,0.9541726000024937,901.954473699996,None,0.9541726000024937,,,Silent19,001,2022_Aug_05_1449,ProdSingRedoBetween,2021.2.3,59.85461314727108,
,,,,56,0,56,0,,,,,,,,,,,,,,,,,,,,,,907.9436939000007,None,,,,,,,,,,,,,,,,,sound,167,57,silent,new,null,903.4470108999958,None,903.4470108999958,None,2,1.853688900009729,903.4470108999958,None,1.853688900009729,905.3297606999986,None,905.8417547999998,None,905.8417547999998,None,f,2.074846499992418,905.8417547999998,None,2.074846499992418,,,Silent19,001,2022_Aug_05_1449,ProdSingRedoBetween,2021.2.3,59.85461314727108,
,,,,57,0,57,0,,,,,,,,,,,,,,,,,,,,,,911.5305128999898,None,,,,,,,,,,,,,,,,,substance,45,58,silent,old,blue,908.4555378999939,None,908.4555378999939,None,5,1.98911880000378,908.4555378999939,None,1.98911880000378,910.467659899994,None,910.9802214999945,None,910.9802214999945,None,f,0.5284816999919713,910.9802214999945,None,0.5284816999919713,,,Silent19,001,2022_Aug_05_1449,ProdSingRedoBetween,2021.2.3,59.85461314727108,
,,,,58,0,58,0,,,,,,,,,,,,,,,,,,,,,,916.8526499,None,,,,,,,,,,,,,,,,,portion,94,59,silent,new,null,912.0359545999963,None,912.0359545999963,None,1,3.7046014000079595,912.0359545999963,None,3.7046014000079595,915.7692556999973,None,916.2738106999896,None,916.2738106999896,None,f,0.5628154000005452,916.2738106999896,None,0.5628154000005452,,,Silent19,001,2022_Aug_05_1449,ProdSingRedoBetween,2021.2.3,59.85461314727108,
,,,,59,0,59,0,,,,,,,,,,,,,,,,,,,,,,920.1765282999986,None,,,,,,,,,,,,,,,,,literature,88,60,silent,old,red,917.3606226999982,None,917.3606226999982,None,2,1.6680106999992859,917.3606226999982,None,1.6680106999992859,919.0557362999971,None,919.5588400999986,None,919.5588400999986,None,f,0.5898874000122305,919.5588400999986,None,0.5898874000122305,,,Silent19,001,2022_Aug_05_1449,ProdSingRedoBetween,2021.2.3,59.85461314727108,
,,,,60,0,60,0,,,,,,,,,,,,,,,,,,,,,,923.6427057999972,None,,,,,,,,,,,,,,,,,trend,54,61,silent,old,blue,920.6945949999936,None,920.6945949999936,None,2,1.8061520000046585,920.6945949999936,None,1.8061520000046585,922.5294958000013,None,923.0446210999944,None,923.0446210999944,None,f,0.5760021000023698,923.0446210999944,None,0.5760021000023698,,,Silent19,001,2022_Aug_05_1449,ProdSingRedoBetween,2021.2.3,59.85461314727108,
,,,,61,0,61,0,,,,,,,,,,,,,,,,,,,,,,927.1961373999948,None,,,,,,,,,,,,,,,,,people,40,62,silent,old,blue,924.150625299997,None,924.150625299997,None,5,2.18199719999393,924.150625299997,None,2.18199719999393,926.3643541999918,None,926.8803519999929,None,926.8803519999929,None,r,0.3002632999996422,926.8803519999929,None,0.3002632999996422,,,Silent19,001,2022_Aug_05_1449,ProdSingRedoBetween,2021.2.3,59.85461314727108,
,,,,62,0,62,0,,,,,,,,,,,,,,,,,,,,,,930.449423500002,None,,,,,,,,,,,,,,,,,appearance,155,63,silent,new,null,927.7055333999888,None,927.7055333999888,None,3,1.7230645999952685,927.7055333999888,None,1.7230645999952685,929.4496657999989,None,929.9548862999945,None,929.9548862999945,None,f,0.46573779999744147,929.9548862999945,None,0.46573779999744147,,,Silent19,001,2022_Aug_05_1449,ProdSingRedoBetween,2021.2.3,59.85461314727108,
,,,,63,0,63,0,,,,,,,,,,,,,,,,,,,,,,936.2385222000012,None,,,,,,,,,,,,,,,,,trail,0,64,silent,old,yellow,930.9576497999951,None,930.9576497999951,None,6,1.3908406999980798,930.9576497999951,None,1.3908406999980798,932.3706842999964,None,932.888355099989,None,932.888355099989,None,r,3.332161400001496,932.888355099989,None,3.332161400001496,,,Silent19,001,2022_Aug_05_1449,ProdSingRedoBetween,2021.2.3,59.85461314727108,
,,,,64,0,64,0,,,,,,,,,,,,,,,,,,,,,,939.5592466999951,None,,,,,,,,,,,,,,,,,solution,8,65,silent,old,yellow,936.7393411999947,None,936.7393411999947,None,6,1.689300899990485,936.7393411999947,None,1.689300899990485,938.4583440999995,None,938.9643166999886,None,938.9643166999886,None,r,0.5683349000028102,938.9643166999886,None,0.5683349000028102,,,Silent19,001,2022_Aug_05_1449,ProdSingRedoBetween,2021.2.3,59.85461314727108,
,,,,65,0,65,0,,,,,,,,,,,,,,,,,,,,,,943.2121522999951,None,,,,,,,,,,,,,,,,,watch,78,66,silent,old,red,940.0605549999891,None,940.0605549999891,None,3,1.4960635000024922,940.0605549999891,None,1.4960635000024922,941.5784330999886,None,942.0814382999961,None,942.0814382999961,None,f,1.115175700004329,942.0814382999961,None,1.115175700004329,,,Silent19,001,2022_Aug_05_1449,ProdSingRedoBetween,2021.2.3,59.85461314727108,
,,,,66,0,66,0,,,,,,,,,,,,,,,,,,,,,,947.9670195999934,None,,,,,,,,,,,,,,,,,clean,148,67,silent,new,null,943.7265087999986,None,943.7265087999986,None,2,1.3980649000004632,943.7265087999986,None,1.3980649000004632,945.1484615999943,None,945.6504387000023,None,945.6504387000023,None,f,2.2981111999979476,945.6504387000023,None,2.2981111999979476,,,Silent19,001,2022_Aug_05_1449,ProdSingRedoBetween,2021.2.3,59.85461314727108,
,,,,67,0,67,0,,,,,,,,,,,,,,,,,,,,,,952.3223316999938,None,,,,,,,,,,,,,,,,,group,162,68,silent,new,null,948.4711564999889,None,948.4711564999889,None,2,1.5333262999920407,948.4711564999889,None,1.5333262999920407,950.0405865999928,None,950.5530052999966,None,950.5530052999966,None,f,1.7475062000012258,950.5530052999966,None,1.7475062000012258,,,Silent19,001,2022_Aug_05_1449,ProdSingRedoBetween,2021.2.3,59.85461314727108,
,,,,68,0,68,0,,,,,,,,,,,,,,,,,,,,,,957.543135999993,None,,,,,,,,,,,,,,,,,industry,70,69,silent,old,red,952.8230820999888,None,952.8230820999888,None,4,2.8135902999929385,952.8230820999888,None,2.8135902999929385,955.6591162999975,None,956.1585311999952,None,956.1585311999952,None,f,1.3581942000018898,956.1585311999952,None,1.3581942000018898,,,Silent19,001,2022_Aug_05_1449,ProdSingRedoBetween,2021.2.3,59.85461314727108,
,,,,69,0,69,0,,,,,,,,,,,,,,,,,,,,,,962.0643682999944,None,,,,,,,,,,,,,,,,,narrow,43,70,silent,old,blue,958.0509886999935,None,958.0509886999935,None,2,2.033730800001649,958.0509886999935,None,2.033730800001649,960.1172440999944,None,960.6296442000021,None,960.6296442000021,None,f,1.4068599000020185,960.6296442000021,None,1.4068599000020185,,,Silent19,001,2022_Aug_05_1449,ProdSingRedoBetween,2021.2.3,59.85461314727108,
,,,,70,0,70,0,,,,,,,,,,,,,,,,,,,,,,965.8757382999902,None,,,,,,,,,,,,,,,,,citizen,19,71,silent,old,yellow,962.5656094000005,None,962.5656094000005,None,6,1.607106700001168,962.5656094000005,None,1.607106700001168,964.2066374999995,None,964.7213821999903,None,964.7213821999903,None,r,1.1154206999926828,964.7213821999903,None,1.1154206999926828,,,Silent19,001,2022_Aug_05_1449,ProdSingRedoBetween,2021.2.3,59.85461314727108,
,,,,71,0,71,0,,,,,,,,,,,,,,,,,,,,,,969.4717139999993,None,,,,,,,,,,,,,,,,,estate,3,72,silent,old,yellow,966.3918664999946,None,966.3918664999946,None,6,1.4926966999919387,966.3918664999946,None,1.4926966999919387,967.9046723999927,None,968.4097144999978,None,968.4097144999978,None,r,1.0428719999908935,968.4097144999978,None,1.0428719999908935,,,Silent19,001,2022_Aug_05_1449,ProdSingRedoBetween,2021.2.3,59.85461314727108,
,,,,72,0,72,0,,,,,,,,,,,,,,,,,,,,,,976.8957720999897,None,,,,,,,,,,,,,,,,,murder,122,73,silent,new,null,969.9794505000027,None,969.9794505000027,None,6,4.7611460000043735,969.9794505000027,None,4.7611460000043735,974.7695879999956,None,975.2807351999945,None,975.2807351999945,None,r,1.5877548999997089,975.2807351999945,None,1.5877548999997089,,,Silent19,001,2022_Aug_05_1449,ProdSingRedoBetween,2021.2.3,59.85461314727108,
,,,,73,0,73,0,,,,,,,,,,,,,,,,,,,,,,980.2331804999994,None,,,,,,,,,,,,,,,,,private,26,74,silent,old,yellow,977.4066899000027,None,977.4066899000027,None,6,1.7659968999942066,977.4066899000027,None,1.7659968999942066,979.2049351999885,None,979.7299130999891,None,979.7299130999891,None,r,0.47470450001128484,979.7299130999891,None,0.47470450001128484,,,Silent19,001,2022_Aug_05_1449,ProdSingRedoBetween,2021.2.3,59.85461314727108,
,,,,74,0,74,0,,,,,,,,,,,,,,,,,,,,,,983.6191441999981,None,,,,,,,,,,,,,,,,,universal,157,75,silent,new,null,980.7396967999957,None,980.7396967999957,None,2,1.8329874000046402,980.7396967999957,None,1.8329874000046402,982.609730199998,None,983.1187954999914,None,983.1187954999914,None,f,0.46980670001357794,983.1187954999914,None,0.46980670001357794,,,Silent19,001,2022_Aug_05_1449,ProdSingRedoBetween,2021.2.3,59.85461314727108,
,,,,75,0,75,0,,,,,,,,,,,,,,,,,,,,,,986.9725073000009,None,,,,,,,,,,,,,,,,,incident,61,76,silent,old,red,984.1268019999989,None,984.1268019999989,None,2,1.6696346999960952,984.1268019999989,None,1.6696346999960952,985.8221845999942,None,986.3274061999982,None,986.3274061999982,None,f,0.6290466000064043,986.3274061999982,None,0.6290466000064043,,,Silent19,001,2022_Aug_05_1449,ProdSingRedoBetween,2021.2.3,59.85461314727108,
,,,,76,0,76,0,,,,,,,,,,,,,,,,,,,,,,991.6271227999969,None,,,,,,,,,,,,,,,,,rural,156,77,silent,new,null,987.4831540000014,None,987.4831540000014,None,4,2.1933820999984164,987.4831540000014,None,2.1933820999984164,989.6943522999936,None,990.209276900001,None,990.209276900001,None,f,1.3952681999944616,990.209276900001,None,1.3952681999944616,,,Silent19,001,2022_Aug_05_1449,ProdSingRedoBetween,2021.2.3,59.85461314727108,
,,,,77,0,77,0,,,,,,,,,,,,,,,,,,,,,,996.0148812999978,None,,,,,,,,,,,,,,,,,harmony,154,78,silent,new,null,992.1286620000028,None,992.1286620000028,None,1,1.6919838000030722,992.1286620000028,None,1.6919838000030722,993.852920099991,None,994.3655591999996,None,994.3655591999996,None,n,1.622992399992654,994.3655591999996,None,1.622992399992654,,,Silent19,001,2022_Aug_05_1449,ProdSingRedoBetween,2021.2.3,59.85461314727108,
,,,,78,0,78,0,,,,,,,,,,,,,,,,,,,,,,999.6018157999933,None,,,,,,,,,,,,,,,,,husband,33,79,silent,old,blue,996.5244549999916,None,996.5244549999916,None,1,1.5762160000012955,996.5244549999916,None,1.5762160000012955,998.1186189,None,998.6240439999965,None,998.6240439999965,None,n,0.9564810000010766,998.6240439999965,None,0.9564810000010766,,,Silent19,001,2022_Aug_05_1449,ProdSingRedoBetween,2021.2.3,59.85461314727108,
,,,,79,0,79,0,,,,,,,,,,,,,,,,,,,,,,1003.9061349999974,None,,,,,,,,,,,,,,,,,mayor,16,80,silent,old,yellow,1000.1129452999885,None,1000.1129452999885,None,6,1.8596476999955485,1000.1129452999885,None,1.8596476999955485,1001.9917056999984,None,1002.5061338999949,None,1002.5061338999949,None,r,1.370392400000128,1002.5061338999949,None,1.370392400000128,,,Silent19,001,2022_Aug_05_1449,ProdSingRedoBetween,2021.2.3,59.85461314727108,
,,,,80,0,80,0,,,,,,,,,,,,,,,,,,,,,,1009.8119172000006,None,,,,,,,,,,,,,,,,,platform,165,81,silent,new,null,1004.4144469000021,None,1004.4144469000021,None,4,3.1340179000108037,1004.4144469000021,None,3.1340179000108037,1007.5774875999923,None,1008.0793772999896,None,1008.0793772999896,None,f,1.709158199999365,1008.0793772999896,None,1.709158199999365,,,Silent19,001,2022_Aug_05_1449,ProdSingRedoBetween,2021.2.3,59.85461314727108,
,,,,81,0,81,0,,,,,,,,,,,,,,,,,,,,,,1013.6157852999895,None,,,,,,,,,,,,,,,,,audience,109,82,silent,new,null,1010.3210227999953,None,1010.3210227999953,None,2,1.7554949000041233,1010.3210227999953,None,1.7554949000041233,1012.0985007999989,None,1012.6021003999922,None,1012.6021003999922,None,f,0.9864725999941584,1012.6021003999922,None,0.9864725999941584,,,Silent19,001,2022_Aug_05_1449,ProdSingRedoBetween,2021.2.3,59.85461314727108,
,,,,82,0,82,0,,,,,,,,,,,,,,,,,,,,,,1016.9370395000005,None,,,,,,,,,,,,,,,,,place,170,83,silent,new,null,1014.1201562999922,None,1014.1201562999922,None,6,1.8762906000047224,1014.1201562999922,None,1.8762906000047224,1016.0196663999959,None,1016.5354145000019,None,1016.5354145000019,None,r,0.38100870000198483,1016.5354145000019,None,0.38100870000198483,,,Silent19,001,2022_Aug_05_1449,ProdSingRedoBetween,2021.2.3,59.85461314727108,
,,,,83,0,83,0,,,,,,,,,,,,,,,,,,,,,,1021.0231766999932,None,,,,,,,,,,,,,,,,,gesture,50,84,silent,old,blue,1017.4404792999994,None,1017.4404792999994,None,1,1.6280148000078043,1017.4404792999994,None,1.6280148000078043,1019.0891781999962,None,1019.5934632999997,None,1019.5934632999997,None,f,1.411193199994159,1019.5934632999997,None,1.411193199994159,,,Silent19,001,2022_Aug_05_1449,ProdSingRedoBetween,2021.2.3,59.85461314727108,
,,,,84,0,84,0,,,,,,,,,,,,,,,,,,,,,,1024.827147899996,None,,,,,,,,,,,,,,,,,goose,12,85,silent,old,yellow,1021.5297061000019,None,1021.5297061000019,None,6,1.7228344000031939,1021.5297061000019,None,1.7228344000031939,1023.2782977999886,None,1023.7944878999988,None,1023.7944878999988,None,f,1.002090899986797,1023.7944878999988,None,1.002090899986797,,,Silent19,001,2022_Aug_05_1449,ProdSingRedoBetween,2021.2.3,59.85461314727108,
,,,,85,0,85,0,,,,,,,,,,,,,,,,,,,,,,1029.5650065999944,None,,,,,,,,,,,,,,,,,oxygen,112,86,silent,new,null,1025.3354594999983,None,1025.3354594999983,None,1,1.685042400000384,1025.3354594999983,None,1.685042400000384,1027.0479946999985,None,1027.5671291999897,None,1027.5671291999897,None,f,1.9733809000026667,1027.5671291999897,None,1.9733809000026667,,,Silent19,001,2022_Aug_05_1449,ProdSingRedoBetween,2021.2.3,59.85461314727108,
,,,,86,0,86,0,,,,,,,,,,,,,,,,,,,,,,1032.5276279999962,None,,,,,,,,,,,,,,,,,public,128,87,silent,new,null,1030.0717549999972,None,1030.0717549999972,None,5,1.4927365000039572,1030.0717549999972,None,1.4927365000039572,1031.5849510999979,None,1032.084377399995,None,1032.084377399995,None,f,0.40824249999423046,1032.084377399995,None,0.40824249999423046,,,Silent19,001,2022_Aug_05_1449,ProdSingRedoBetween,2021.2.3,59.85461314727108,
,,,,87,0,87,0,,,,,,,,,,,,,,,,,,,,,,1036.3885895999992,None,,,,,,,,,,,,,,,,,subject,147,88,silent,new,null,1033.042975999997,None,1033.042975999997,None,4,1.6335943000012776,1033.042975999997,None,1.6335943000012776,1034.7047039999889,None,1035.2104821999965,None,1035.2104821999965,None,f,1.161981500001275,1035.2104821999965,None,1.161981500001275,,,Silent19,001,2022_Aug_05_1449,ProdSingRedoBetween,2021.2.3,59.85461314727108,
,,,,88,0,88,0,,,,,,,,,,,,,,,,,,,,,,1039.7584617999964,None,,,,,,,,,,,,,,,,,emergency,36,89,silent,old,blue,1036.8921253000008,None,1036.8921253000008,None,6,1.4963925999909407,1036.8921253000008,None,1.4963925999909407,1038.4145182999928,None,1038.92501549999,None,1038.92501549999,None,r,0.8155185000068741,1038.92501549999,None,0.8155185000068741,,,Silent19,001,2022_Aug_05_1449,ProdSingRedoBetween,2021.2.3,59.85461314727108,
,,,,89,0,89,0,,,,,,,,,,,,,,,,,,,,,,1044.9470038,None,,,,,,,,,,,,,,,,,youth,142,90,silent,new,null,1040.268530299989,None,1040.268530299989,None,1,1.543961199990008,1040.268530299989,None,1.543961199990008,1041.8272271999886,None,1042.3376546999934,None,1042.3376546999934,None,f,2.5868171000038274,1042.3376546999934,None,2.5868171000038274,,,Silent19,001,2022_Aug_05_1449,ProdSingRedoBetween,2021.2.3,59.85461314727108,
,,,,90,0,90,0,,,,,,,,,,,,,,,,,,,,,,1048.2669869999954,None,,,,,,,,,,,,,,,,,military,89,91,silent,old,red,1045.4569336999994,None,1045.4569336999994,None,6,1.6915193000022555,1045.4569336999994,None,1.6915193000022555,1047.1671720000013,None,1047.6665290999954,None,1047.6665290999954,None,r,0.5700211999937892,1047.6665290999954,None,0.5700211999937892,,,Silent19,001,2022_Aug_05_1449,ProdSingRedoBetween,2021.2.3,59.85461314727108,
,,,,91,0,91,0,,,,,,,,,,,,,,,,,,,,,,1051.219936900001,None,,,,,,,,,,,,,,,,,carry,51,92,silent,old,blue,1048.7710626999906,None,1048.7710626999906,None,2,1.4414085000025807,1048.7710626999906,None,1.4414085000025807,1050.236913899993,None,1050.7390876999998,None,1050.7390876999998,None,f,0.4653917000105139,1050.7390876999998,None,0.4653917000105139,,,Silent19,001,2022_Aug_05_1449,ProdSingRedoBetween,2021.2.3,59.85461314727108,
,,,,92,0,92,0,,,,,,,,,,,,,,,,,,,,,,1056.3250578000006,None,,,,,,,,,,,,,,,,,novel,46,93,silent,old,blue,1051.7211096999963,None,1051.7211096999963,None,6,1.9473637999908533,1051.7211096999963,None,1.9473637999908533,1053.6903962999932,None,1054.2000950999936,None,1054.2000950999936,None,r,2.1085244999994757,1054.2000950999936,None,2.1085244999994757,,,Silent19,001,2022_Aug_05_1449,ProdSingRedoBetween,2021.2.3,59.85461314727108,
,,,,93,0,93,0,,,,,,,,,,,,,,,,,,,,,,1059.1779517999967,None,,,,,,,,,,,,,,,,,union,115,94,silent,new,null,1056.8300242999976,None,1056.8300242999976,None,5,1.4305005000060191,1056.8300242999976,None,1.4305005000060191,1058.283993399993,None,1058.7943894999917,None,1058.7943894999917,None,r,0.35407329999725334,1058.7943894999917,None,0.35407329999725334,,,Silent19,001,2022_Aug_05_1449,ProdSingRedoBetween,2021.2.3,59.85461314727108,
,,,,94,0,94,0,,,,,,,,,,,,,,,,,,,,,,1063.4155406999926,None,,,,,,,,,,,,,,,,,session,136,95,silent,new,null,1059.6903769999917,None,1059.6903769999917,None,2,1.4100814999983413,1059.6903769999917,None,1.4100814999983413,1061.1308717999927,None,1061.6353428000002,None,1061.6353428000002,None,f,1.7530239000043366,1061.6353428000002,None,1.7530239000043366,,,Silent19,001,2022_Aug_05_1449,ProdSingRedoBetween,2021.2.3,59.85461314727108,
,,,,95,0,95,0,,,,,,,,,,,,,,,,,,,,,,1066.7855281999946,None,,,,,,,,,,,,,,,,,colonel,166,96,silent,new,null,1063.9233916999947,None,1063.9233916999947,None,1,1.4090434999961872,1063.9233916999947,None,1.4090434999961872,1065.3507296000025,None,1065.8541524999891,None,1065.8541524999891,None,n,0.9022949000063818,1065.8541524999891,None,0.9022949000063818,,,Silent19,001,2022_Aug_05_1449,ProdSingRedoBetween,2021.2.3,59.85461314727108,
,,,,96,0,96,0,,,,,,,,,,,,,,,,,,,,,,1069.6249714000005,None,,,,,,,,,,,,,,,,,damage,41,97,silent,old,blue,1067.2945154999907,None,1067.2945154999907,None,6,1.3818819999869447,1067.2945154999907,None,1.3818819999869447,1068.7040917999984,None,1069.208615999989,None,1069.208615999989,None,r,0.3880036000045948,1069.208615999989,None,0.3880036000045948,,,Silent19,001,2022_Aug_05_1449,ProdSingRedoBetween,2021.2.3,59.85461314727108,
,,,,97,0,97,0,,,,,,,,,,,,,,,,,,,,,,1072.758104499997,None,,,,,,,,,,,,,,,,,object,25,98,silent,old,yellow,1070.15192009999,None,1070.15192009999,None,3,1.5406311999977333,1070.15192009999,None,1.5406311999977333,1071.7318969999906,None,1072.2463043999887,None,1072.2463043999887,None,f,0.49410700000589713,1072.2463043999887,None,0.49410700000589713,,,Silent19,001,2022_Aug_05_1449,ProdSingRedoBetween,2021.2.3,59.85461314727108,
,,,,98,0,98,0,,,,,,,,,,,,,,,,,,,,,,1075.6776581000013,None,,,,,,,,,,,,,,,,,history,176,99,silent,new,null,1073.268760699997,None,1073.268760699997,None,2,1.2879186000063783,1073.268760699997,None,1.2879186000063783,1074.577940999996,None,1075.0822014000005,None,1075.0822014000005,None,f,0.5702375000109896,1075.0822014000005,None,0.5702375000109896,,,Silent19,001,2022_Aug_05_1449,ProdSingRedoBetween,2021.2.3,59.85461314727108,
,,,,99,0,99,0,,,,,,,,,,,,,,,,,,,,,,1078.482356499997,None,,,,,,,,,,,,,,,,,judge,168,100,silent,new,null,1076.1876809999958,None,1076.1876809999958,None,4,1.3767699000018183,1076.1876809999958,None,1.3767699000018183,1077.5809096000012,None,1078.0856789999962,None,1078.0856789999962,None,f,0.3666743000067072,1078.0856789999962,None,0.3666743000067072,,,Silent19,001,2022_Aug_05_1449,ProdSingRedoBetween,2021.2.3,59.85461314727108,
,,,,100,0,100,0,,,,,,,,,,,,,,,,,,,,,,1081.5001727999916,None,,,,,,,,,,,,,,,,,present,80,101,silent,old,red,1079.0015905999899,None,1079.0015905999899,None,3,1.4588537999952678,1079.0015905999899,None,1.4588537999952678,1080.4842703999893,None,1080.9998605,None,1080.9998605,None,f,0.4846094999957131,1080.9998605,None,0.4846094999957131,,,Silent19,001,2022_Aug_05_1449,ProdSingRedoBetween,2021.2.3,59.85461314727108,
,,,,101,0,101,0,,,,,,,,,,,,,,,,,,,,,,1085.9885930000019,None,,,,,,,,,,,,,,,,,trial,97,102,silent,new,null,1082.0031420000014,None,1082.0031420000014,None,6,1.7774024999962421,1082.0031420000014,None,1.7774024999962421,1083.8084667999938,None,1084.3198481,None,1084.3198481,None,r,1.6446392000070773,1084.3198481,None,1.6446392000070773,,,Silent19,001,2022_Aug_05_1449,ProdSingRedoBetween,2021.2.3,59.85461314727108,
,,,,102,0,102,0,,,,,,,,,,,,,,,,,,,,,,1090.275603999995,None,,,,,,,,,,,,,,,,,minor,58,103,silent,old,blue,1086.4932779999945,None,1086.4932779999945,None,3,2.959176100004697,1086.4932779999945,None,2.959176100004697,1089.4749065999931,None,1089.9792613000027,None,1089.9792613000027,None,r,0.2652514999936102,1089.9792613000027,None,0.2652514999936102,,,Silent19,001,2022_Aug_05_1449,ProdSingRedoBetween,2021.2.3,59.85461314727108,
,,,,103,0,103,0,,,,,,,,,,,,,,,,,,,,,,1093.2451865999901,None,,,,,,,,,,,,,,,,,vision,106,104,silent,new,null,1090.783819999997,None,1090.783819999997,None,6,1.5325389000063296,1090.783819999997,None,1.5325389000063296,1092.3469621999975,None,1092.8628701999987,None,1092.8628701999987,None,r,0.36552300000039395,1092.8628701999987,None,0.36552300000039395,,,Silent19,001,2022_Aug_05_1449,ProdSingRedoBetween,2021.2.3,59.85461314727108,
,,,,104,0,104,0,,,,,,,,,,,,,,,,,,,,,,1096.2482498000027,None,,,,,,,,,,,,,,,,,country,152,105,silent,new,null,1093.7530508999916,None,1093.7530508999916,None,3,1.5313674000062747,1093.7530508999916,None,1.5313674000062747,1095.314861699997,None,1095.8145879999938,None,1095.8145879999938,None,f,0.41388049999659415,1095.8145879999938,None,0.41388049999659415,,,Silent19,001,2022_Aug_05_1449,ProdSingRedoBetween,2021.2.3,59.85461314727108,
,,,,105,0,105,0,,,,,,,,,,,,,,,,,,,,,,1099.3013981999975,None,,,,,,,,,,,,,,,,,graduate,121,106,silent,new,null,1096.7535044999968,None,1096.7535044999968,None,2,1.6829699000081746,1096.7535044999968,None,1.6829699000081746,1098.4670542999957,None,1098.9702876999945,None,1098.9702876999945,None,r,0.3141663999995217,1098.9702876999945,None,0.3141663999995217,,,Silent19,001,2022_Aug_05_1449,ProdSingRedoBetween,2021.2.3,59.85461314727108,
,,,,106,0,106,0,,,,,,,,,,,,,,,,,,,,,,1103.155133799999,None,,,,,,,,,,,,,,,,,report,161,107,silent,new,null,1099.8095341000007,None,1099.8095341000007,None,4,2.554910300008487,1099.8095341000007,None,2.554910300008487,1102.3947638999962,None,1102.907840999993,None,1102.907840999993,None,r,0.21656990000337828,1102.907840999993,None,0.21656990000337828,,,Silent19,001,2022_Aug_05_1449,ProdSingRedoBetween,2021.2.3,59.85461314727108,
,,,,107,0,107,0,,,,,,,,,,,,,,,,,,,,,,1107.6596886999905,None,,,,,,,,,,,,,,,,,silence,30,108,silent,old,blue,1103.663363899992,None,1103.663363899992,None,4,1.6530773999984376,1103.663363899992,None,1.6530773999984376,1105.341889999996,None,1105.8463185,None,1105.8463185,None,r,1.7822098000033293,1105.8463185,None,1.7822098000033293,,,Silent19,001,2022_Aug_05_1449,ProdSingRedoBetween,2021.2.3,59.85461314727108,
,,,,108,0,108,0,,,,,,,,,,,,,,,,,,,,,,1111.3633477999974,None,,,,,,,,,,,,,,,,,atmosphere,108,109,silent,new,null,1108.1703932999953,None,1108.1703932999953,None,4,2.442210699999123,1108.1703932999953,None,2.442210699999123,1110.6362574999948,None,1111.1466387999972,None,1111.1466387999972,None,f,0.1857600000075763,1111.1466387999972,None,0.1857600000075763,,,Silent19,001,2022_Aug_05_1449,ProdSingRedoBetween,2021.2.3,59.85461314727108,
,,,,109,0,109,0,,,,,,,,,,,,,,,,,,,,,,1114.132730799989,None,,,,,,,,,,,,,,,,,track,171,110,silent,new,null,1111.8656451999996,None,1111.8656451999996,None,6,1.5308107000018936,1111.8656451999996,None,1.5308107000018936,1113.4166903000005,None,1113.9160402999987,None,1113.9160402999987,None,r,0.20049010000366252,1113.9160402999987,None,0.20049010000366252,,,Silent19,001,2022_Aug_05_1449,ProdSingRedoBetween,2021.2.3,59.85461314727108,
,,,,110,0,110,0,,,,,,,,,,,,,,,,,,,,,,1117.0368495000002,None,,,,,,,,,,,,,,,,,signal,53,111,silent,old,blue,1114.6386691999942,None,1114.6386691999942,None,3,1.4777212999906624,1114.6386691999942,None,1.4777212999906624,1116.1390900999977,None,1116.6529003999894,None,1116.6529003999894,None,f,0.3676149999955669,1116.6529003999894,None,0.3676149999955669,,,Silent19,001,2022_Aug_05_1449,ProdSingRedoBetween,2021.2.3,59.85461314727108,
,,,,111,0,111,0,,,,,,,,,,,,,,,,,,,,,,1120.0888069999928,None,,,,,,,,,,,,,,,,,space,179,112,silent,new,null,1117.5395259999932,None,1117.5395259999932,None,4,1.704892599998857,1117.5395259999932,None,1.704892599998857,1119.271416299991,None,1119.7736168999982,None,1119.7736168999982,None,r,0.2948456000012811,1119.7736168999982,None,0.2948456000012811,,,Silent19,001,2022_Aug_05_1449,ProdSingRedoBetween,2021.2.3,59.85461314727108,
,,,,112,0,112,0,,,,,,,,,,,,,,,,,,,,,,1123.3627911999938,None,,,,,,,,,,,,,,,,,theme,10,113,silent,old,yellow,1120.5980970999954,None,1120.5980970999954,None,6,1.9582662000029813,1120.5980970999954,None,1.9582662000029813,1122.5745237999945,None,1123.0815719999955,None,1123.0815719999955,None,r,0.25919830000202637,1123.0815719999955,None,0.25919830000202637,,,Silent19,001,2022_Aug_05_1449,ProdSingRedoBetween,2021.2.3,59.85461314727108,
,,,,113,0,113,0,,,,,,,,,,,,,,,,,,,,,,1126.7286004999914,None,,,,,,,,,,,,,,,,,suspect,57,114,silent,old,blue,1123.8778152000014,None,1123.8778152000014,None,6,2.1266262999997707,1123.8778152000014,None,2.1266262999997707,1126.0329848999972,None,1126.5453503999888,None,1126.5453503999888,None,r,0.16308009999920614,1126.5453503999888,None,0.16308009999920614,,,Silent19,001,2022_Aug_05_1449,ProdSingRedoBetween,2021.2.3,59.85461314727108,
,,,,114,0,114,0,,,,,,,,,,,,,,,,,,,,,,1129.9844955000008,None,,,,,,,,,,,,,,,,,heavy,35,115,silent,old,blue,1127.231433699999,None,1127.231433699999,None,3,1.852971600004821,1127.231433699999,None,1.852971600004821,1129.1149232999887,None,1129.6150381999905,None,1129.6150381999905,None,f,0.34164089999103453,1129.6150381999905,None,0.34164089999103453,,,Silent19,001,2022_Aug_05_1449,ProdSingRedoBetween,2021.2.3,59.85461314727108,
,,,,115,0,115,0,,,,,,,,,,,,,,,,,,,,,,1132.8514334999927,None,,,,,,,,,,,,,,,,,medicine,102,116,silent,new,null,1130.5001393999992,None,1130.5001393999992,None,1,1.5842801999970106,1130.5001393999992,None,1.5842801999970106,1132.1016734000004,None,1132.6080253999971,None,1132.6080253999971,None,r,0.22048059999360703,1132.6080253999971,None,0.22048059999360703,,,Silent19,001,2022_Aug_05_1449,ProdSingRedoBetween,2021.2.3,59.85461314727108,
,,,,116,0,116,0,,,,,,,,,,,,,,,,,,,,,,1135.921158799989,None,,,,,,,,,,,,,,,,,drama,90,117,silent,new,null,1133.3637455999997,None,1133.3637455999997,None,2,1.8007388000114588,1133.3637455999997,None,1.8007388000114588,1135.1951973999967,None,1135.704340700002,None,1135.704340700002,None,f,0.18807649999507703,1135.704340700002,None,0.18807649999507703,,,Silent19,001,2022_Aug_05_1449,ProdSingRedoBetween,2021.2.3,59.85461314727108,
,,,,117,0,117,0,,,,,,,,,,,,,,,,,,,,,,1138.9909385999927,None,,,,,,,,,,,,,,,,,smell,86,118,silent,old,red,1136.4331661999895,None,1136.4331661999895,None,1,1.3232378999964567,1136.4331661999895,None,1.3232378999964567,1137.776709400001,None,1138.2904006999888,None,1138.2904006999888,None,f,0.6821058000059566,1138.2904006999888,None,0.6821058000059566,,,Silent19,001,2022_Aug_05_1449,ProdSingRedoBetween,2021.2.3,59.85461314727108,
,,,,118,0,118,0,,,,,,,,,,,,,,,,,,,,,,1143.8122637999913,None,,,,,,,,,,,,,,,,,sweet,75,119,silent,old,red,1139.494452400002,None,1139.494452400002,None,4,2.485833900005673,1139.494452400002,None,2.485833900005673,1142.0104828999902,None,1142.5129024999915,None,1142.5129024999915,None,r,1.2834205999970436,1142.5129024999915,None,1.2834205999970436,,,Silent19,001,2022_Aug_05_1449,ProdSingRedoBetween,2021.2.3,59.85461314727108,
,,,,119,0,119,0,,,,,,,,,,,,,,,,,,,,,,1148.4669903999893,None,,,,,,,,,,,,,,,,,balance,95,120,silent,new,null,1144.3409719999909,None,1144.3409719999909,None,2,3.48741770000197,1144.3409719999909,None,3.48741770000197,1147.8507929999905,None,1148.3527984999964,None,1148.3527984999964,None,f,0.09158500000194181,1148.3527984999964,None,0.09158500000194181,,,Silent19,001,2022_Aug_05_1449,ProdSingRedoBetween,2021.2.3,59.85461314727108,
,,,,120,0,120,0,,,,,,,,,,,,,,,,,,,,,,1153.3886353999987,None,,,,,,,,,,,,,,,,,committee,52,121,silent,old,blue,1148.9762416000012,None,1148.9762416000012,None,6,2.4041861000005156,1148.9762416000012,None,2.4041861000005156,1151.4078271999897,None,1151.920586799999,None,1151.920586799999,None,r,1.4518404999980703,1151.920586799999,None,1.4518404999980703,,,Silent19,001,2022_Aug_05_1449,ProdSingRedoBetween,2021.2.3,59.85461314727108,
,,,,121,0,121,0,,,,,,,,,,,,,,,,,,,,,,1156.3081320999918,None,,,,,,,,,,,,,,,,,waste,160,122,silent,new,null,1153.898896300001,None,1153.898896300001,None,1,1.5934691000002204,1153.898896300001,None,1.5934691000002204,1155.5086123999936,None,1156.011152399995,None,1156.011152399995,None,f,0.2732872999913525,1156.011152399995,None,0.2732872999913525,,,Silent19,001,2022_Aug_05_1449,ProdSingRedoBetween,2021.2.3,59.85461314727108,
,,,,122,0,122,0,,,,,,,,,,,,,,,,,,,,,,1159.8283575999958,None,,,,,,,,,,,,,,,,,close,32,123,silent,old,blue,1156.812666400001,None,1156.812666400001,None,3,2.335699900009786,1156.812666400001,None,2.335699900009786,1159.1776469999895,None,1159.6783185999957,None,1159.6783185999957,None,r,0.1340453000011621,1159.6783185999957,None,0.1340453000011621,,,Silent19,001,2022_Aug_05_1449,ProdSingRedoBetween,2021.2.3,59.85461314727108,
,,,,123,0,123,0,,,,,,,,,,,,,,,,,,,,,,1162.6811004999909,None,,,,,,,,,,,,,,,,,health,60,124,silent,old,red,1160.3315494999988,None,1160.3315494999988,None,2,1.4968616000114707,1160.3315494999988,None,1.4968616000114707,1161.8479916999931,None,1162.3478842999903,None,1162.3478842999903,None,r,0.3125154000008479,1162.3478842999903,None,0.3125154000008479,,,Silent19,001,2022_Aug_05_1449,ProdSingRedoBetween,2021.2.3,59.85461314727108,
,,,,124,0,124,0,,,,,,,,,,,,,,,,,,,,,,1166.3515018999897,None,,,,,,,,,,,,,,,,,stand,105,125,silent,new,null,1163.1898973999923,None,1163.1898973999923,None,1,1.2864592000114499,1163.1898973999923,None,1.2864592000114499,1164.500838299995,None,1165.009069199994,None,1165.009069199994,None,n,1.3152202000055695,1165.009069199994,None,1.3152202000055695,,,Silent19,001,2022_Aug_05_1449,ProdSingRedoBetween,2021.2.3,59.85461314727108,
,,,,125,0,125,0,,,,,,,,,,,,,,,,,,,,,,1171.9740657999937,None,,,,,,,,,,,,,,,,,thick,29,126,silent,old,blue,1166.8640621999948,None,1166.8640621999948,None,3,3.2361958000110462,1166.8640621999948,None,3.2361958000110462,1170.1269936999888,None,1170.6413930999988,None,1170.6413930999988,None,r,1.3068827000097372,1170.6413930999988,None,1.3068827000097372,,,Silent19,001,2022_Aug_05_1449,ProdSingRedoBetween,2021.2.3,59.85461314727108,
,,,,126,0,126,0,,,,,,,,,,,,,,,,,,,,,,1175.3438069999975,None,,,,,,,,,,,,,,,,,match,71,127,silent,old,red,1172.4746106999955,None,1172.4746106999955,None,4,1.5777511000051163,1172.4746106999955,None,1.5777511000051163,1174.0758914999897,None,1174.5769586999959,None,1174.5769586999959,None,f,0.7392977999988943,1174.5769586999959,None,0.7392977999988943,,,Silent19,001,2022_Aug_05_1449,ProdSingRedoBetween,2021.2.3,59.85461314727108,
,,,,127,0,127,0,,,,,,,,,,,,,,,,,,,,,,1178.2134054999915,None,,,,,,,,,,,,,,,,,beginning,119,128,silent,new,null,1175.853093999991,None,1175.853093999991,None,1,1.4073168000031728,1175.853093999991,None,1.4073168000031728,1177.280891699993,None,1177.7993776999938,None,1177.7993776999938,None,r,0.38901840000471566,1177.7993776999938,None,0.38901840000471566,,,Silent19,001,2022_Aug_05_1449,ProdSingRedoBetween,2021.2.3,59.85461314727108,
,,,,128,0,128,0,,,,,,,,,,,,,,,,,,,,,,1181.1996669999935,None,,,,,,,,,,,,,,,,,surprise,1,129,silent,old,yellow,1178.7178216999891,None,1178.7178216999891,None,4,1.7504634999932023,1178.7178216999891,None,1.7504634999932023,1180.500312499993,None,1181.0027139000013,None,1181.0027139000013,None,r,0.17765979999967385,1181.0027139000013,None,0.17765979999967385,,,Silent19,001,2022_Aug_05_1449,ProdSingRedoBetween,2021.2.3,59.85461314727108,
,,,,129,0,129,0,,,,,,,,,,,,,,,,,,,,,,1184.102573199998,None,,,,,,,,,,,,,,,,,crowd,117,130,silent,new,null,1181.7080975999997,None,1181.7080975999997,None,6,1.5282459000009112,1181.7080975999997,None,1.5282459000009112,1183.2554139999993,None,1183.7690699999948,None,1183.7690699999948,None,r,0.315304699994158,1183.7690699999948,None,0.315304699994158,,,Silent19,001,2022_Aug_05_1449,ProdSingRedoBetween,2021.2.3,59.85461314727108,
,,,,130,0,130,0,,,,,,,,,,,,,,,,,,,,,,1187.37248179999,None,,,,,,,,,,,,,,,,,appeal,85,131,silent,old,red,1184.610158999989,None,1184.610158999989,None,6,1.714157599999453,1184.610158999989,None,1.714157599999453,1186.355874899993,None,1186.8628794999968,None,1186.8628794999968,None,r,0.485476199988625,1186.8628794999968,None,0.485476199988625,,,Silent19,001,2022_Aug_05_1449,ProdSingRedoBetween,2021.2.3,59.85461314727108,
,,,,131,0,131,0,,,,,,,,,,,,,,,,,,,,,,1191.86228999999,None,,,,,,,,,,,,,,,,,suggestion,103,132,silent,new,null,1187.8850469999888,None,1187.8850469999888,None,6,3.151268000001437,1187.8850469999888,None,3.151268000001437,1191.06089909999,None,1191.566372699992,None,1191.566372699992,None,r,0.27802719999453984,1191.566372699992,None,0.27802719999453984,,,Silent19,001,2022_Aug_05_1449,ProdSingRedoBetween,2021.2.3,59.85461314727108,
,,,,132,0,132,0,,,,,,,,,,,,,,,,,,,,,,1202.270998299995,None,,,,,,,,,,,,,,,,,government,178,133,silent,new,null,1192.3777602999908,None,1192.3777602999908,None,6,9.162654600004316,1192.3777602999908,None,9.162654600004316,1201.5766853999958,None,1202.0874303000019,None,1202.0874303000019,None,r,0.15681270000641234,1202.0874303000019,None,0.15681270000641234,,,Silent19,001,2022_Aug_05_1449,ProdSingRedoBetween,2021.2.3,59.85461314727108,
,,,,133,0,133,0,,,,,,,,,,,,,,,,,,,,,,1205.2402819999988,None,,,,,,,,,,,,,,,,,course,77,134,silent,old,red,1202.7796583000018,None,1202.7796583000018,None,6,1.6247296999936225,1202.7796583000018,None,1.6247296999936225,1204.423983899993,None,1204.9290137999924,None,1204.9290137999924,None,r,0.29130880000593606,1204.9290137999924,None,0.29130880000593606,,,Silent19,001,2022_Aug_05_1449,ProdSingRedoBetween,2021.2.3,59.85461314727108,
,,,,134,0,134,0,,,,,,,,,,,,,,,,,,,,,,1211.1461440999992,None,,,,,,,,,,,,,,,,,childhood,172,135,silent,new,null,1205.7470555999898,None,1205.7470555999898,None,6,4.785293699998874,1205.7470555999898,None,4.785293699998874,1210.563095599995,None,1211.0630413999897,None,1211.0630413999897,None,r,0.05315130000235513,1211.0630413999897,None,0.05315130000235513,,,Silent19,001,2022_Aug_05_1449,ProdSingRedoBetween,2021.2.3,59.85461314727108,
,,,,135,0,135,0,,,,,,,,,,,,,,,,,,,,,,1214.1158455999976,None,,,,,,,,,,,,,,,,,mankind,68,136,silent,old,red,1211.6468430999957,None,1211.6468430999957,None,3,1.7894873999903211,1211.6468430999957,None,1.7894873999903211,1213.4660887999926,None,1213.9692268999934,None,1213.9692268999934,None,f,0.13109809999878053,1213.9692268999934,None,0.13109809999878053,,,Silent19,001,2022_Aug_05_1449,ProdSingRedoBetween,2021.2.3,59.85461314727108,
,,,,136,0,136,0,,,,,,,,,,,,,,,,,,,,,,1217.2022621999931,None,,,,,,,,,,,,,,,,,broad,116,137,silent,new,null,1214.6192576999892,None,1214.6192576999892,None,2,1.8171732999908272,1214.6192576999892,None,1.8171732999908272,1216.4602561999927,None,1216.9724320999958,None,1216.9724320999958,None,f,0.19995150000613648,1216.9724320999958,None,0.19995150000613648,,,Silent19,001,2022_Aug_05_1449,ProdSingRedoBetween,2021.2.3,59.85461314727108,
,,,,137,0,137,0,,,,,,,,,,,,,,,,,,,,,,1219.821528200002,None,,,,,,,,,,,,,,,,,bicycle,151,138,silent,new,null,1217.7059424999898,None,1217.7059424999898,None,1,1.3624554999987595,1217.7059424999898,None,1.3624554999987595,1219.0954908999993,None,1219.6079243999993,None,1219.6079243999993,None,f,0.18852999999944586,1219.6079243999993,None,0.18852999999944586,,,Silent19,001,2022_Aug_05_1449,ProdSingRedoBetween,2021.2.3,59.85461314727108,
,,,,138,0,138,0,,,,,,,,,,,,,,,,,,,,,,1222.4742676999886,None,,,,,,,,,,,,,,,,,relation,175,139,silent,new,null,1220.3293971999956,None,1220.3293971999956,None,1,1.4909067999979015,1220.3293971999956,None,1.4909067999979015,1221.840206599998,None,1222.3409054999938,None,1222.3409054999938,None,f,0.10340390000783373,1222.3409054999938,None,0.10340390000783373,,,Silent19,001,2022_Aug_05_1449,ProdSingRedoBetween,2021.2.3,59.85461314727108,
,,,,139,0,139,0,,,,,,,,,,,,,,,,,,,,,,1227.0844667999918,None,,,,,,,,,,,,,,,,,leader,15,140,silent,old,yellow,1222.977910200003,None,1222.977910200003,None,4,3.554318999988027,1222.977910200003,None,3.554318999988027,1226.5625529999961,None,1227.0665857999993,None,1227.0665857999993,None,f,0.001841500008595176,1227.0665857999993,None,0.001841500008595176,,,Silent19,001,2022_Aug_05_1449,ProdSingRedoBetween,2021.2.3,59.85461314727108,
,,,,140,0,140,0,,,,,,,,,,,,,,,,,,,,,,1230.4989146000007,None,,,,,,,,,,,,,,,,,speech,91,141,silent,new,null,1227.6066043000028,None,1227.6066043000028,None,4,1.8936781999946106,1227.6066043000028,None,1.8936781999946106,1229.535892400003,None,1230.051216199994,None,1230.051216199994,None,f,0.41711719999148045,1230.051216199994,None,0.41711719999148045,,,Silent19,001,2022_Aug_05_1449,ProdSingRedoBetween,2021.2.3,59.85461314727108,
,,,,141,0,141,0,,,,,,,,,,,,,,,,,,,,,,1234.8865973999928,None,,,,,,,,,,,,,,,,,department,37,142,silent,old,blue,1231.0023064999987,None,1231.0023064999987,None,3,2.745983000000706,1231.0023064999987,None,2.745983000000706,1233.7701152999944,None,1234.2743475999887,None,1234.2743475999887,None,f,0.5938466000079643,1234.2743475999887,None,0.5938466000079643,,,Silent19,001,2022_Aug_05_1449,ProdSingRedoBetween,2021.2.3,59.85461314727108,
,,,,142,0,142,0,,,,,,,,,,,,,,,,,,,,,,1238.7737960999948,None,,,,,,,,,,,,,,,,,population,120,143,silent,new,null,1235.3948269999964,None,1235.3948269999964,None,1,1.8735034999990603,1235.3948269999964,None,1.8735034999990603,1237.2901347000006,None,1237.7947707999992,None,1237.7947707999992,None,n,0.9614823000010801,1237.7947707999992,None,0.9614823000010801,,,Silent19,001,2022_Aug_05_1449,ProdSingRedoBetween,2021.2.3,59.85461314727108,
,,,,143,0,143,0,,,,,,,,,,,,,,,,,,,,,,1242.1771743999998,None,,,,,,,,,,,,,,,,,curve,28,144,silent,old,yellow,1239.2770480999898,None,1239.2770480999898,None,1,2.1992145999975037,1239.2770480999898,None,2.1992145999975037,1241.4945433999965,None,1241.993819299998,None,1241.993819299998,None,n,0.16251030001149047,1241.993819299998,None,0.16251030001149047,,,Silent19,001,2022_Aug_05_1449,ProdSingRedoBetween,2021.2.3,59.85461314727108,
,,,,144,0,144,0,,,,,,,,,,,,,,,,,,,,,,1246.2987513999979,None,,,,,,,,,,,,,,,,,working,27,145,silent,old,yellow,1242.6866512999986,None,1242.6866512999986,None,3,2.061655099998461,1242.6866512999986,None,2.061655099998461,1244.7631278999906,None,1245.2695991999935,None,1245.2695991999935,None,f,0.9987353000033181,1245.2695991999935,None,0.9987353000033181,,,Silent19,001,2022_Aug_05_1449,ProdSingRedoBetween,2021.2.3,59.85461314727108,
,,,,145,0,145,0,,,,,,,,,,,,,,,,,,,,,,1249.7013480999885,None,,,,,,,,,,,,,,,,,period,135,146,silent,new,null,1246.8032386999985,None,1246.8032386999985,None,2,2.225255900004413,1246.8032386999985,None,2.225255900004413,1249.050846500002,None,1249.5512959999905,None,1249.5512959999905,None,f,0.1249342999944929,1249.5512959999905,None,0.1249342999944929,,,Silent19,001,2022_Aug_05_1449,ProdSingRedoBetween,2021.2.3,59.85461314727108,
,,,,146,0,146,0,,,,,,,,,,,,,,,,,,,,,,1253.2715748999908,None,,,,,,,,,,,,,,,,,career,72,147,silent,old,red,1250.2044358999992,None,1250.2044358999992,None,6,1.4077864999999292,1250.2044358999992,None,1.4077864999999292,1251.6375695999886,None,1252.1424404999998,None,1252.1424404999998,None,r,1.1098580999969272,1252.1424404999998,None,1.1098580999969272,,,Silent19,001,2022_Aug_05_1449,ProdSingRedoBetween,2021.2.3,59.85461314727108,
,,,,147,0,147,0,,,,,,,,,,,,,,,,,,,,,,1256.491419699989,None,,,,,,,,,,,,,,,,,partner,123,148,silent,new,null,1253.7821627999947,None,1253.7821627999947,None,4,2.0140153000102146,1253.7821627999947,None,2.0140153000102146,1255.8258706999914,None,1256.3414577999938,None,1256.3414577999938,None,r,0.11878840001008939,1256.3414577999938,None,0.11878840001008939,,,Silent19,001,2022_Aug_05_1449,ProdSingRedoBetween,2021.2.3,59.85461314727108,
,,,,148,0,148,0,,,,,,,,,,,,,,,,,,,,,,1259.711431299991,None,,,,,,,,,,,,,,,,,recall,7,149,silent,old,yellow,1256.9980561999982,None,1256.9980561999982,None,1,1.7422869999863906,1256.9980561999982,None,1.7422869999863906,1258.7637756999902,None,1259.2803278999927,None,1259.2803278999927,None,n,0.4038568999967538,1259.2803278999927,None,0.4038568999967538,,,Silent19,001,2022_Aug_05_1449,ProdSingRedoBetween,2021.2.3,59.85461314727108,
,,,,149,0,149,0,,,,,,,,,,,,,,,,,,,,,,1262.230642399998,None,,,,,,,,,,,,,,,,,split,137,150,silent,new,null,1260.2245638000022,None,1260.2245638000022,None,1,1.219912699991255,1260.2245638000022,None,1.219912699991255,1261.4711102,None,1261.9803422999976,None,1261.9803422999976,None,n,0.23180199999478646,1261.9803422999976,None,0.23180199999478646,,,Silent19,001,2022_Aug_05_1449,ProdSingRedoBetween,2021.2.3,59.85461314727108,
,,,,150,0,150,0,,,,,,,,,,,,,,,,,,,,,,1265.1501909999934,None,,,,,,,,,,,,,,,,,direction,13,151,silent,old,yellow,1262.7369929999986,None,1262.7369929999986,None,4,1.691245699999854,1262.7369929999986,None,1.691245699999854,1264.4494390999898,None,1264.955866599994,None,1264.955866599994,None,f,0.16843820000940468,1264.955866599994,None,0.16843820000940468,,,Silent19,001,2022_Aug_05_1449,ProdSingRedoBetween,2021.2.3,59.85461314727108,
,,,,151,0,151,0,,,,,,,,,,,,,,,,,,,,,,1270.0894648999965,None,,,,,,,,,,,,,,,,,level,79,152,silent,old,red,1265.6654668999981,None,1265.6654668999981,None,1,1.8108142999990378,1265.6654668999981,None,1.8108142999990378,1267.5094084000011,None,1268.0230059000023,None,1268.0230059000023,None,f,2.037398200001917,1268.0230059000023,None,2.037398200001917,,,Silent19,001,2022_Aug_05_1449,ProdSingRedoBetween,2021.2.3,59.85461314727108,
,,,,152,0,152,0,,,,,,,,,,,,,,,,,,,,,,1272.6243824999983,None,,,,,,,,,,,,,,,,,institute,18,153,silent,old,yellow,1270.5964202999894,None,1270.5964202999894,None,2,1.31174170000304,1270.5964202999894,None,1.31174170000304,1271.9316152999963,None,1272.4407341999904,None,1272.4407341999904,None,f,0.15550350000557955,1272.4407341999904,None,0.15550350000557955,,,Silent19,001,2022_Aug_05_1449,ProdSingRedoBetween,2021.2.3,59.85461314727108,
,,,,153,0,153,0,,,,,,,,,,,,,,,,,,,,,,1276.695000199994,None,,,,,,,,,,,,,,,,,error,141,154,silent,new,null,1273.124837700001,None,1273.124837700001,None,5,2.895404499999131,1273.124837700001,None,2.895404499999131,1276.0451736999967,None,1276.5504999999976,None,1276.5504999999976,None,f,0.12590100000670645,1276.5504999999976,None,0.12590100000670645,,,Silent19,001,2022_Aug_05_1449,ProdSingRedoBetween,2021.2.3,59.85461314727108,
,,,,154,0,154,0,,,,,,,,,,,,,,,,,,,,,,1280.01488409999,None,,,,,,,,,,,,,,,,,skill,101,155,silent,new,null,1277.1972397999925,None,1277.1972397999925,None,6,1.7030924999999115,1277.1972397999925,None,1.7030924999999115,1278.9379816,None,1279.452925199992,None,1279.452925199992,None,f,0.5434171999950195,1279.452925199992,None,0.5434171999950195,,,Silent19,001,2022_Aug_05_1449,ProdSingRedoBetween,2021.2.3,59.85461314727108,
,,,,155,0,155,0,,,,,,,,,,,,,,,,,,,,,,1284.8029815999907,None,,,,,,,,,,,,,,,,,entrance,177,156,silent,new,null,1280.527297099994,None,1280.527297099994,None,6,3.3009597000054782,1280.527297099994,None,3.3009597000054782,1283.8520738999941,None,1284.3567576999922,None,1284.3567576999922,None,r,0.4234542999911355,1284.3567576999922,None,0.4234542999911355,,,Silent19,001,2022_Aug_05_1449,ProdSingRedoBetween,2021.2.3,59.85461314727108,
,,,,156,0,156,0,,,,,,,,,,,,,,,,,,,,,,1287.956296999997,None,,,,,,,,,,,,,,,,,phrase,92,157,silent,new,null,1285.3127125000028,None,1285.3127125000028,None,5,1.7636282999883406,1285.3127125000028,None,1.7636282999883406,1287.1061955999903,None,1287.6105921999988,None,1287.6105921999988,None,r,0.3216462999989744,1287.6105921999988,None,0.3216462999989744,,,Silent19,001,2022_Aug_05_1449,ProdSingRedoBetween,2021.2.3,59.85461314727108,
,,,,157,0,157,0,,,,,,,,,,,,,,,,,,,,,,1291.0264615999913,None,,,,,,,,,,,,,,,,,foundation,67,158,silent,old,red,1288.46828619999,None,1288.46828619999,None,3,1.5680788999889046,1288.46828619999,None,1.5680788999889046,1290.0643117,None,1290.5787490999937,None,1290.5787490999937,None,f,0.41757370000414085,1290.5787490999937,None,0.41757370000414085,,,Silent19,001,2022_Aug_05_1449,ProdSingRedoBetween,2021.2.3,59.85461314727108,
,,,,158,0,158,0,,,,,,,,,,,,,,,,,,,,,,1295.3134993999993,None,,,,,,,,,,,,,,,,,under,107,159,silent,new,null,1291.5354387999978,None,1291.5354387999978,None,5,3.1008462000027066,1291.5354387999978,None,3.1008462000027066,1294.6680933999887,None,1295.1803873999888,None,1295.1803873999888,None,r,0.10388080000120681,1295.1803873999888,None,0.10388080000120681,,,Silent19,001,2022_Aug_05_1449,ProdSingRedoBetween,2021.2.3,59.85461314727108,
,,,,159,0,159,0,,,,,,,,,,,,,,,,,,,,,,1298.283114299993,None,,,,,,,,,,,,,,,,,reading,131,160,silent,new,null,1295.8241217999894,None,1295.8241217999894,None,5,1.8200826999964193,1295.8241217999894,None,1.8200826999964193,1297.6669413999916,None,1298.1688302999974,None,1298.1688302999974,None,r,0.09143509999557864,1298.1688302999974,None,0.09143509999557864,,,Silent19,001,2022_Aug_05_1449,ProdSingRedoBetween,2021.2.3,59.85461314727108,
,,,,160,0,160,0,,,,,,,,,,,,,,,,,,,,,,1301.3195102000027,None,,,,,,,,,,,,,,,,,stranger,66,161,silent,old,red,1298.7913187999948,None,1298.7913187999948,None,6,1.5888334000046598,1298.7913187999948,None,1.5888334000046598,1300.4036632999923,None,1300.9192648000026,None,1300.9192648000026,None,r,0.3809464000078151,1300.9192648000026,None,0.3809464000078151,,,Silent19,001,2022_Aug_05_1449,ProdSingRedoBetween,2021.2.3,59.85461314727108,
,,,,161,0,161,0,,,,,,,,,,,,,,,,,,,,,,1306.4080848000012,None,,,,,,,,,,,,,,,,,dispute,38,162,silent,old,blue,1301.8263694999914,None,1301.8263694999914,None,2,3.8021386999898823,1301.8263694999914,None,3.8021386999898823,1305.6781484999956,None,1306.1913149999891,None,1306.1913149999891,None,f,0.19692059999215417,1306.1913149999891,None,0.19692059999215417,,,Silent19,001,2022_Aug_05_1449,ProdSingRedoBetween,2021.2.3,59.85461314727108,
,,,,162,0,162,0,,,,,,,,,,,,,,,,,,,,,,1309.2951759999996,None,,,,,,,,,,,,,,,,,quantity,143,163,silent,new,null,1306.91961669999,None,1306.91961669999,None,1,1.708655499998713,1306.91961669999,None,1.708655499998713,1308.6535170999996,None,1309.163276899999,None,1309.163276899999,None,f,0.1050142999883974,1309.163276899999,None,0.1050142999883974,,,Silent19,001,2022_Aug_05_1449,ProdSingRedoBetween,2021.2.3,59.85461314727108,
,,,,163,0,163,0,,,,,,,,,,,,,,,,,,,,,,1313.0158591999934,None,,,,,,,,,,,,,,,,,detective,55,164,silent,old,blue,1309.7992406999983,None,1309.7992406999983,None,6,2.4450745999929495,1309.7992406999983,None,2.4450745999929495,1312.267275899998,None,1312.7893758999999,None,1312.7893758999999,None,r,0.206833899996127,1312.7893758999999,None,0.206833899996127,,,Silent19,001,2022_Aug_05_1449,ProdSingRedoBetween,2021.2.3,59.85461314727108,
,,,,164,0,164,0,,,,,,,,,,,,,,,,,,,,,,1315.8507242999913,None,,,,,,,,,,,,,,,,,shear,149,165,silent,new,null,1313.5198965000018,None,1313.5198965000018,None,4,1.5162825000006706,1313.5198965000018,None,1.5162825000006706,1315.0676131999935,None,1315.5707325999974,None,1315.5707325999974,None,f,0.25743559999682475,1315.5707325999974,None,0.25743559999682475,,,Silent19,001,2022_Aug_05_1449,ProdSingRedoBetween,2021.2.3,59.85461314727108,
,,,,165,0,165,0,,,,,,,,,,,,,,,,,,,,,,1318.3865735,None,,,,,,,,,,,,,,,,,member,159,166,silent,new,null,1316.358095699994,None,1316.358095699994,None,4,1.3021139000047697,1316.358095699994,None,1.3021139000047697,1317.685836299992,None,1318.1864789999963,None,1318.1864789999963,None,f,0.1697530000092229,1318.1864789999963,None,0.1697530000092229,,,Silent19,001,2022_Aug_05_1449,ProdSingRedoBetween,2021.2.3,59.85461314727108,
,,,,166,0,166,0,,,,,,,,,,,,,,,,,,,,,,1321.1894026999944,None,,,,,,,,,,,,,,,,,resistance,164,167,silent,new,null,1318.8899693999992,None,1318.8899693999992,None,5,1.4102420000126585,1318.8899693999992,None,1.4102420000126585,1320.323050299994,None,1320.8224355999992,None,1320.8224355999992,None,f,0.3497464999963995,1320.8224355999992,None,0.3497464999963995,,,Silent19,001,2022_Aug_05_1449,ProdSingRedoBetween,2021.2.3,59.85461314727108,
,,,,167,0,167,0,,,,,,,,,,,,,,,,,,,,,,1325.0265636999975,None,,,,,,,,,,,,,,,,,motion,59,168,silent,old,yellow,1321.705403400003,None,1321.705403400003,None,5,2.6587987000093563,1321.705403400003,None,2.6587987000093563,1324.3932541999966,None,1324.8973449999903,None,1324.8973449999903,None,f,0.09887590000289492,1324.8973449999903,None,0.09887590000289492,,,Silent19,001,2022_Aug_05_1449,ProdSingRedoBetween,2021.2.3,59.85461314727108,
,,,,168,0,168,0,,,,,,,,,,,,,,,,,,,,,,1328.0797406999918,None,,,,,,,,,,,,,,,,,research,169,169,silent,new,null,1325.534295599995,None,1325.534295599995,None,6,1.9259794000099646,1325.534295599995,None,1.9259794000099646,1327.480177999998,None,1327.987042199995,None,1327.987042199995,None,f,0.0732414000085555,1327.987042199995,None,0.0732414000085555,,,Silent19,001,2022_Aug_05_1449,ProdSingRedoBetween,2021.2.3,59.85461314727108,
,,,,169,0,169,0,,,,,,,,,,,,,,,,,,,,,,1331.8500594999932,None,,,,,,,,,,,,,,,,,escape,110,170,silent,new,null,1328.5879818999965,None,1328.5879818999965,None,6,2.3123436000023503,1328.5879818999965,None,2.3123436000023503,1330.9259142999945,None,1331.4346697,None,1331.4346697,None,r,0.3935356000001775,1331.4346697,None,0.3935356000001775,,,Silent19,001,2022_Aug_05_1449,ProdSingRedoBetween,2021.2.3,59.85461314727108,
,,,,170,0,170,0,,,,,,,,,,,,,,,,,,,,,,1335.9706578999903,None,,,,,,,,,,,,,,,,,drove,98,171,silent,new,null,1332.361335099995,None,1332.361335099995,None,3,2.2108666999993147,1332.361335099995,None,2.2108666999993147,1334.6073139999935,None,1335.1201713999908,None,1335.1201713999908,None,f,0.8199277000094298,1335.1201713999908,None,0.8199277000094298,,,Silent19,001,2022_Aug_05_1449,ProdSingRedoBetween,2021.2.3,59.85461314727108,
,,,,171,0,171,0,,,,,,,,,,,,,,,,,,,,,,1338.589936199991,None,,,,,,,,,,,,,,,,,tragedy,82,172,silent,old,red,1336.4714532999933,None,1336.4714532999933,None,6,1.4686767999955919,1336.4714532999933,None,1.4686767999955919,1337.9578037000028,None,1338.4733565999923,None,1338.4733565999923,None,r,0.09079200000269338,1338.4733565999923,None,0.09079200000269338,,,Silent19,001,2022_Aug_05_1449,ProdSingRedoBetween,2021.2.3,59.85461314727108,
,,,,172,0,172,0,,,,,,,,,,,,,,,,,,,,,,1342.4939547999966,None,,,,,,,,,,,,,,,,,division,158,173,silent,new,null,1339.0922444000025,None,1339.0922444000025,None,6,2.3838756999903126,1339.0922444000025,None,2.3838756999903126,1341.4947336999903,None,1342.0134199000022,None,1342.0134199000022,None,r,0.46281189999717753,1342.0134199000022,None,0.46281189999717753,,,Silent19,001,2022_Aug_05_1449,ProdSingRedoBetween,2021.2.3,59.85461314727108,
,,,,173,0,173,0,,,,,,,,,,,,,,,,,,,,,,1345.9807946999936,None,,,,,,,,,,,,,,,,,quarter,73,174,silent,old,red,1343.003204099994,None,1343.003204099994,None,2,2.1929437999933725,1343.003204099994,None,2.1929437999933725,1345.2146540999966,None,1345.7218578999891,None,1345.7218578999891,None,f,0.24225520000618417,1345.7218578999891,None,0.24225520000618417,,,Silent19,001,2022_Aug_05_1449,ProdSingRedoBetween,2021.2.3,59.85461314727108,
,,,,174,0,174,0,,,,,,,,,,,,,,,,,,,,,,1349.5014330999984,None,,,,,,,,,,,,,,,,,agreement,48,175,silent,old,blue,1346.491069900003,None,1346.491069900003,None,4,2.401103099997272,1346.491069900003,None,2.401103099997272,1348.9182080000028,None,1349.4201367999922,None,1349.4201367999922,None,r,0.06401639999239706,1349.4201367999922,None,0.06401639999239706,,,Silent19,001,2022_Aug_05_1449,ProdSingRedoBetween,2021.2.3,59.85461314727108,
,,,,175,0,175,0,,,,,,,,,,,,,,,,,,,,,,1353.0725715000008,None,,,,,,,,,,,,,,,,,opening,2,176,silent,old,yellow,1350.0059517999907,None,1350.0059517999907,None,4,2.2301317999954335,1350.0059517999907,None,2.2301317999954335,1352.2559058999905,None,1352.771072299991,None,1352.771072299991,None,f,0.2814053000038257,1352.771072299991,None,0.2814053000038257,,,Silent19,001,2022_Aug_05_1449,ProdSingRedoBetween,2021.2.3,59.85461314727108,
