StudyLoop.thisRepN,StudyLoop.thisTrialN,StudyLoop.thisN,StudyLoop.thisIndex,TestLoop.thisRepN,TestLoop.thisTrialN,TestLoop.thisN,TestLoop.thisIndex,textCondition.started,textCondition.stopped,keyCondition.keys,keyCondition.rt,keyCondition.started,keyCondition.stopped,Condition,textWelcome.started,textWelcome.stopped,keyWelcome.keys,keyWelcome.rt,keyWelcome.started,keyWelcome.stopped,textAloud.started,textAloud.stopped,textSilent.started,textSilent.stopped,textSing.started,textSing.stopped,conditional_text.started,conditional_text.stopped,textBlank500.started,textBlank500.stopped,study_word,study_num,study_order,study_type,word_color,textStudy.started,textStudy.stopped,keyStudy.keys,keyStudy.started,keyStudy.stopped,textTestInstructions.started,textTestInstructions.stopped,key_resp_3.keys,key_resp_3.rt,key_resp_3.started,key_resp_3.stopped,test_word,test_num,test_order,test_condition,old_new_test,test_word_original_color,textConf.started,textConf.stopped,textConfScale.started,textConfScale.stopped,keyConf.keys,keyConf.rt,keyConf.started,keyConf.stopped,confidence response time,textTestBlank.started,textTestBlank.stopped,textRKN.started,textRKN.stopped,textRKNScale.started,textRKNScale.stopped,keyRKN.keys,keyRKN.rt,keyRKN.started,keyRKN.stopped,rkn response time,textEnd.started,textEnd.stopped,participant,session,date,expName,psychopyVersion,frameRate,
,,,,,,,,14.844212199997855,None,b,2.241316299987375,14.844212199997855,None,,,,,,,,,,,,,,,,,,,,,,,,,,,,,,,,,,,,,,,,,,,,,,,,,,,,,,,,,,,,,,20Aloud,001,2022_Aug_05_1605,ProdSingRedoBetween,2021.2.3,59.93924558034797,
,,,,,,,,,,,,,,AloudTest,17.136719800007995,None,space,41.50050370000827,17.136719800007995,None,,,,,,,,,,,,,,,,,,,,,,,,,,,,,,,,,,,,,,,,,,,,,,,,,,,,,,,20Aloud,001,2022_Aug_05_1605,ProdSingRedoBetween,2021.2.3,59.93924558034797,
0,0,0,0,,,,,,,,,,,,,,,,,,17.136719800007995,None,17.136719800007995,None,17.136719800007995,None,17.136719800007995,None,61.15474820000236,None,stranger,63,1,aloud,red,59.15261059999466,None,None,59.15261059999466,None,,,,,,,,,,,,,,,,,,,,,,,,,,,,,,,,,,,20Aloud,001,2022_Aug_05_1605,ProdSingRedoBetween,2021.2.3,59.93924558034797,
1,0,1,0,,,,,,,,,,,,,,,,,,,,,,,,,,63.65729190000275,None,shock,84,2,aloud,red,61.65728240000317,None,None,61.65728240000317,None,,,,,,,,,,,,,,,,,,,,,,,,,,,,,,,,,,,20Aloud,001,2022_Aug_05_1605,ProdSingRedoBetween,2021.2.3,59.93924558034797,
2,0,2,0,,,,,,,,,,,,,,,,,,,,,,,,,,66.17631660000188,None,discovery,66,3,aloud,red,64.16242259999854,None,None,64.16242259999854,None,,,,,,,,,,,,,,,,,,,,,,,,,,,,,,,,,,,20Aloud,001,2022_Aug_05_1605,ProdSingRedoBetween,2021.2.3,59.93924558034797,
3,0,3,0,,,,,,,,,,,,,,,,,,,,,,,,,,68.69560490000003,None,force,28,4,aloud,yellow,66.68100250000134,None,None,66.68100250000134,None,,,,,,,,,,,,,,,,,,,,,,,,,,,,,,,,,,,20Aloud,001,2022_Aug_05_1605,ProdSingRedoBetween,2021.2.3,59.93924558034797,
4,0,4,0,,,,,,,,,,,,,,,,,,,,,,,,,,71.214650599999,None,frank,10,5,aloud,yellow,69.203488500003,None,None,69.203488500003,None,,,,,,,,,,,,,,,,,,,,,,,,,,,,,,,,,,,20Aloud,001,2022_Aug_05_1605,ProdSingRedoBetween,2021.2.3,59.93924558034797,
5,0,5,0,,,,,,,,,,,,,,,,,,,,,,,,,,73.73378809999849,None,straight,58,6,aloud,blue,71.72148079999897,None,None,71.72148079999897,None,,,,,,,,,,,,,,,,,,,,,,,,,,,,,,,,,,,20Aloud,001,2022_Aug_05_1605,ProdSingRedoBetween,2021.2.3,59.93924558034797,
6,0,6,0,,,,,,,,,,,,,,,,,,,,,,,,,,76.23647340000025,None,beauty,52,7,aloud,blue,74.23439260000305,None,None,74.23439260000305,None,,,,,,,,,,,,,,,,,,,,,,,,,,,,,,,,,,,20Aloud,001,2022_Aug_05_1605,ProdSingRedoBetween,2021.2.3,59.93924558034797,
7,0,7,0,,,,,,,,,,,,,,,,,,,,,,,,,,78.75562949999585,None,crisis,1,8,aloud,yellow,76.74093780000112,None,None,76.74093780000112,None,,,,,,,,,,,,,,,,,,,,,,,,,,,,,,,,,,,20Aloud,001,2022_Aug_05_1605,ProdSingRedoBetween,2021.2.3,59.93924558034797,
8,0,8,0,,,,,,,,,,,,,,,,,,,,,,,,,,81.25803510000696,None,history,14,9,aloud,yellow,79.25606640000478,None,None,79.25606640000478,None,,,,,,,,,,,,,,,,,,,,,,,,,,,,,,,,,,,20Aloud,001,2022_Aug_05_1605,ProdSingRedoBetween,2021.2.3,59.93924558034797,
9,0,9,0,,,,,,,,,,,,,,,,,,,,,,,,,,83.76063829999475,None,notice,25,10,aloud,yellow,81.75850559999526,None,None,81.75850559999526,None,,,,,,,,,,,,,,,,,,,,,,,,,,,,,,,,,,,20Aloud,001,2022_Aug_05_1605,ProdSingRedoBetween,2021.2.3,59.93924558034797,
10,0,10,0,,,,,,,,,,,,,,,,,,,,,,,,,,86.26306720000866,None,opening,62,11,aloud,red,84.26109569999971,None,None,84.26109569999971,None,,,,,,,,,,,,,,,,,,,,,,,,,,,,,,,,,,,20Aloud,001,2022_Aug_05_1605,ProdSingRedoBetween,2021.2.3,59.93924558034797,
11,0,11,0,,,,,,,,,,,,,,,,,,,,,,,,,,88.78226380000706,None,foundation,72,12,aloud,red,86.76970319999964,None,None,86.76970319999964,None,,,,,,,,,,,,,,,,,,,,,,,,,,,,,,,,,,,20Aloud,001,2022_Aug_05_1605,ProdSingRedoBetween,2021.2.3,59.93924558034797,
12,0,12,0,,,,,,,,,,,,,,,,,,,,,,,,,,91.2848268999951,None,silence,64,13,aloud,red,89.28558169999451,None,None,89.28558169999451,None,,,,,,,,,,,,,,,,,,,,,,,,,,,,,,,,,,,20Aloud,001,2022_Aug_05_1605,ProdSingRedoBetween,2021.2.3,59.93924558034797,
13,0,13,0,,,,,,,,,,,,,,,,,,,,,,,,,,93.80399110000872,None,shear,54,14,aloud,blue,91.78937399999995,None,None,91.78937399999995,None,,,,,,,,,,,,,,,,,,,,,,,,,,,,,,,,,,,20Aloud,001,2022_Aug_05_1605,ProdSingRedoBetween,2021.2.3,59.93924558034797,
14,0,14,0,,,,,,,,,,,,,,,,,,,,,,,,,,96.30650180000521,None,rapid,74,15,aloud,red,94.30579549999675,None,None,94.30579549999675,None,,,,,,,,,,,,,,,,,,,,,,,,,,,,,,,,,,,20Aloud,001,2022_Aug_05_1605,ProdSingRedoBetween,2021.2.3,59.93924558034797,
15,0,15,0,,,,,,,,,,,,,,,,,,,,,,,,,,98.82555039999716,None,finish,44,16,aloud,blue,96.81128829999943,None,None,96.81128829999943,None,,,,,,,,,,,,,,,,,,,,,,,,,,,,,,,,,,,20Aloud,001,2022_Aug_05_1605,ProdSingRedoBetween,2021.2.3,59.93924558034797,
16,0,16,0,,,,,,,,,,,,,,,,,,,,,,,,,,101.32805340000778,None,stand,60,17,aloud,red,99.32755790000374,None,None,99.32755790000374,None,,,,,,,,,,,,,,,,,,,,,,,,,,,,,,,,,,,20Aloud,001,2022_Aug_05_1605,ProdSingRedoBetween,2021.2.3,59.93924558034797,
17,0,17,0,,,,,,,,,,,,,,,,,,,,,,,,,,103.84726589999627,None,impact,45,18,aloud,blue,101.83421689999523,None,None,101.83421689999523,None,,,,,,,,,,,,,,,,,,,,,,,,,,,,,,,,,,,20Aloud,001,2022_Aug_05_1605,ProdSingRedoBetween,2021.2.3,59.93924558034797,
18,0,18,0,,,,,,,,,,,,,,,,,,,,,,,,,,106.34981490000791,None,store,6,19,aloud,yellow,104.34779650000564,None,None,104.34779650000564,None,,,,,,,,,,,,,,,,,,,,,,,,,,,,,,,,,,,20Aloud,001,2022_Aug_05_1605,ProdSingRedoBetween,2021.2.3,59.93924558034797,
19,0,19,0,,,,,,,,,,,,,,,,,,,,,,,,,,108.85225520000677,None,build,18,20,aloud,yellow,106.85077720000118,None,None,106.85077720000118,None,,,,,,,,,,,,,,,,,,,,,,,,,,,,,,,,,,,20Aloud,001,2022_Aug_05_1605,ProdSingRedoBetween,2021.2.3,59.93924558034797,
20,0,20,0,,,,,,,,,,,,,,,,,,,,,,,,,,111.35585110000102,None,committee,76,21,aloud,red,109.35438970000541,None,None,109.35438970000541,None,,,,,,,,,,,,,,,,,,,,,,,,,,,,,,,,,,,20Aloud,001,2022_Aug_05_1605,ProdSingRedoBetween,2021.2.3,59.93924558034797,
21,0,21,0,,,,,,,,,,,,,,,,,,,,,,,,,,113.87386760000663,None,swift,50,22,aloud,blue,111.86528110000654,None,None,111.86528110000654,None,,,,,,,,,,,,,,,,,,,,,,,,,,,,,,,,,,,20Aloud,001,2022_Aug_05_1605,ProdSingRedoBetween,2021.2.3,59.93924558034797,
22,0,22,0,,,,,,,,,,,,,,,,,,,,,,,,,,116.39319869999599,None,balance,87,23,aloud,red,114.37788680000813,None,None,114.37788680000813,None,,,,,,,,,,,,,,,,,,,,,,,,,,,,,,,,,,,20Aloud,001,2022_Aug_05_1605,ProdSingRedoBetween,2021.2.3,59.93924558034797,
23,0,23,0,,,,,,,,,,,,,,,,,,,,,,,,,,118.89566730000661,None,dozen,39,24,aloud,blue,116.89364170000772,None,None,116.89364170000772,None,,,,,,,,,,,,,,,,,,,,,,,,,,,,,,,,,,,20Aloud,001,2022_Aug_05_1605,ProdSingRedoBetween,2021.2.3,59.93924558034797,
24,0,24,0,,,,,,,,,,,,,,,,,,,,,,,,,,121.39811900000495,None,sunset,83,25,aloud,red,119.39893730000767,None,None,119.39893730000767,None,,,,,,,,,,,,,,,,,,,,,,,,,,,,,,,,,,,20Aloud,001,2022_Aug_05_1605,ProdSingRedoBetween,2021.2.3,59.93924558034797,
25,0,25,0,,,,,,,,,,,,,,,,,,,,,,,,,,123.9006165000028,None,quantity,57,26,aloud,blue,121.89861800000654,None,None,121.89861800000654,None,,,,,,,,,,,,,,,,,,,,,,,,,,,,,,,,,,,20Aloud,001,2022_Aug_05_1605,ProdSingRedoBetween,2021.2.3,59.93924558034797,
26,0,26,0,,,,,,,,,,,,,,,,,,,,,,,,,,126.41976440000872,None,blind,67,27,aloud,red,124.40539369999897,None,None,124.40539369999897,None,,,,,,,,,,,,,,,,,,,,,,,,,,,,,,,,,,,20Aloud,001,2022_Aug_05_1605,ProdSingRedoBetween,2021.2.3,59.93924558034797,
27,0,27,0,,,,,,,,,,,,,,,,,,,,,,,,,,128.92234879999887,None,commercial,30,28,aloud,blue,126.9226834000001,None,None,126.9226834000001,None,,,,,,,,,,,,,,,,,,,,,,,,,,,,,,,,,,,20Aloud,001,2022_Aug_05_1605,ProdSingRedoBetween,2021.2.3,59.93924558034797,
28,0,28,0,,,,,,,,,,,,,,,,,,,,,,,,,,131.44151069999498,None,division,81,29,aloud,red,129.42669190000743,None,None,129.42669190000743,None,,,,,,,,,,,,,,,,,,,,,,,,,,,,,,,,,,,20Aloud,001,2022_Aug_05_1605,ProdSingRedoBetween,2021.2.3,59.93924558034797,
29,0,29,0,,,,,,,,,,,,,,,,,,,,,,,,,,133.960568399998,None,skill,32,30,aloud,blue,131.95318280000356,None,None,131.95318280000356,None,,,,,,,,,,,,,,,,,,,,,,,,,,,,,,,,,,,20Aloud,001,2022_Aug_05_1605,ProdSingRedoBetween,2021.2.3,59.93924558034797,
30,0,30,0,,,,,,,,,,,,,,,,,,,,,,,,,,136.4799037000048,None,household,26,31,aloud,yellow,134.46575840000878,None,None,134.46575840000878,None,,,,,,,,,,,,,,,,,,,,,,,,,,,,,,,,,,,20Aloud,001,2022_Aug_05_1605,ProdSingRedoBetween,2021.2.3,59.93924558034797,
31,0,31,0,,,,,,,,,,,,,,,,,,,,,,,,,,138.98232130000542,None,gesture,51,32,aloud,blue,136.98038979999546,None,None,136.98038979999546,None,,,,,,,,,,,,,,,,,,,,,,,,,,,,,,,,,,,20Aloud,001,2022_Aug_05_1605,ProdSingRedoBetween,2021.2.3,59.93924558034797,
32,0,32,0,,,,,,,,,,,,,,,,,,,,,,,,,,141.48488839999482,None,individual,77,33,aloud,red,139.48447640000086,None,None,139.48447640000086,None,,,,,,,,,,,,,,,,,,,,,,,,,,,,,,,,,,,20Aloud,001,2022_Aug_05_1605,ProdSingRedoBetween,2021.2.3,59.93924558034797,
33,0,33,0,,,,,,,,,,,,,,,,,,,,,,,,,,144.00423089999822,None,novel,75,34,aloud,red,141.9958794999984,None,None,141.9958794999984,None,,,,,,,,,,,,,,,,,,,,,,,,,,,,,,,,,,,20Aloud,001,2022_Aug_05_1605,ProdSingRedoBetween,2021.2.3,59.93924558034797,
34,0,34,0,,,,,,,,,,,,,,,,,,,,,,,,,,146.50675860000774,None,motion,56,35,aloud,blue,144.5045223000052,None,None,144.5045223000052,None,,,,,,,,,,,,,,,,,,,,,,,,,,,,,,,,,,,20Aloud,001,2022_Aug_05_1605,ProdSingRedoBetween,2021.2.3,59.93924558034797,
35,0,35,0,,,,,,,,,,,,,,,,,,,,,,,,,,149.02577629999723,None,exchange,7,36,aloud,yellow,147.01038960000733,None,None,147.01038960000733,None,,,,,,,,,,,,,,,,,,,,,,,,,,,,,,,,,,,20Aloud,001,2022_Aug_05_1605,ProdSingRedoBetween,2021.2.3,59.93924558034797,
36,0,36,0,,,,,,,,,,,,,,,,,,,,,,,,,,151.52825840000878,None,pretty,71,37,aloud,red,149.52896239999973,None,None,149.52896239999973,None,,,,,,,,,,,,,,,,,,,,,,,,,,,,,,,,,,,20Aloud,001,2022_Aug_05_1605,ProdSingRedoBetween,2021.2.3,59.93924558034797,
37,0,37,0,,,,,,,,,,,,,,,,,,,,,,,,,,154.0306397999957,None,music,19,38,aloud,yellow,152.02868060000765,None,None,152.02868060000765,None,,,,,,,,,,,,,,,,,,,,,,,,,,,,,,,,,,,20Aloud,001,2022_Aug_05_1605,ProdSingRedoBetween,2021.2.3,59.93924558034797,
38,0,38,0,,,,,,,,,,,,,,,,,,,,,,,,,,156.54994779999834,None,center,69,39,aloud,red,154.537169800009,None,None,154.537169800009,None,,,,,,,,,,,,,,,,,,,,,,,,,,,,,,,,,,,20Aloud,001,2022_Aug_05_1605,ProdSingRedoBetween,2021.2.3,59.93924558034797,
39,0,39,0,,,,,,,,,,,,,,,,,,,,,,,,,,159.06912190000003,None,cover,3,40,aloud,yellow,157.05451450000692,None,None,157.05451450000692,None,,,,,,,,,,,,,,,,,,,,,,,,,,,,,,,,,,,20Aloud,001,2022_Aug_05_1605,ProdSingRedoBetween,2021.2.3,59.93924558034797,
40,0,40,0,,,,,,,,,,,,,,,,,,,,,,,,,,161.58821549999993,None,detective,34,41,aloud,blue,159.57324199999857,None,None,159.57324199999857,None,,,,,,,,,,,,,,,,,,,,,,,,,,,,,,,,,,,20Aloud,001,2022_Aug_05_1605,ProdSingRedoBetween,2021.2.3,59.93924558034797,
41,0,41,0,,,,,,,,,,,,,,,,,,,,,,,,,,164.09072619999642,None,industry,48,42,aloud,blue,162.08879920000618,None,None,162.08879920000618,None,,,,,,,,,,,,,,,,,,,,,,,,,,,,,,,,,,,20Aloud,001,2022_Aug_05_1605,ProdSingRedoBetween,2021.2.3,59.93924558034797,
42,0,42,0,,,,,,,,,,,,,,,,,,,,,,,,,,166.59330930000579,None,religion,49,43,aloud,blue,164.5911238999979,None,None,164.5911238999979,None,,,,,,,,,,,,,,,,,,,,,,,,,,,,,,,,,,,20Aloud,001,2022_Aug_05_1605,ProdSingRedoBetween,2021.2.3,59.93924558034797,
43,0,43,0,,,,,,,,,,,,,,,,,,,,,,,,,,169.09570849999727,None,service,12,44,aloud,yellow,167.0949341999949,None,None,167.0949341999949,None,,,,,,,,,,,,,,,,,,,,,,,,,,,,,,,,,,,20Aloud,001,2022_Aug_05_1605,ProdSingRedoBetween,2021.2.3,59.93924558034797,
44,0,44,0,,,,,,,,,,,,,,,,,,,,,,,,,,171.59839009999996,None,power,8,45,aloud,yellow,169.59697120000783,None,None,169.59697120000783,None,,,,,,,,,,,,,,,,,,,,,,,,,,,,,,,,,,,20Aloud,001,2022_Aug_05_1605,ProdSingRedoBetween,2021.2.3,59.93924558034797,
45,0,45,0,,,,,,,,,,,,,,,,,,,,,,,,,,174.11744489999546,None,plane,68,46,aloud,red,172.10183500000858,None,None,172.10183500000858,None,,,,,,,,,,,,,,,,,,,,,,,,,,,,,,,,,,,20Aloud,001,2022_Aug_05_1605,ProdSingRedoBetween,2021.2.3,59.93924558034797,
46,0,46,0,,,,,,,,,,,,,,,,,,,,,,,,,,176.62009500000568,None,spoke,0,47,aloud,yellow,174.61786490000668,None,None,174.61786490000668,None,,,,,,,,,,,,,,,,,,,,,,,,,,,,,,,,,,,20Aloud,001,2022_Aug_05_1605,ProdSingRedoBetween,2021.2.3,59.93924558034797,
47,0,47,0,,,,,,,,,,,,,,,,,,,,,,,,,,179.13912609999534,None,short,5,48,aloud,yellow,177.12423319999652,None,None,177.12423319999652,None,,,,,,,,,,,,,,,,,,,,,,,,,,,,,,,,,,,20Aloud,001,2022_Aug_05_1605,ProdSingRedoBetween,2021.2.3,59.93924558034797,
48,0,48,0,,,,,,,,,,,,,,,,,,,,,,,,,,181.65823070000624,None,subject,55,49,aloud,blue,179.64636650000466,None,None,179.64636650000466,None,,,,,,,,,,,,,,,,,,,,,,,,,,,,,,,,,,,20Aloud,001,2022_Aug_05_1605,ProdSingRedoBetween,2021.2.3,59.93924558034797,
49,0,49,0,,,,,,,,,,,,,,,,,,,,,,,,,,184.17732070000784,None,taste,23,50,aloud,yellow,182.16209090000484,None,None,182.16209090000484,None,,,,,,,,,,,,,,,,,,,,,,,,,,,,,,,,,,,20Aloud,001,2022_Aug_05_1605,ProdSingRedoBetween,2021.2.3,59.93924558034797,
50,0,50,0,,,,,,,,,,,,,,,,,,,,,,,,,,186.6797998999973,None,tennis,17,51,aloud,yellow,184.67796109999472,None,None,184.67796109999472,None,,,,,,,,,,,,,,,,,,,,,,,,,,,,,,,,,,,20Aloud,001,2022_Aug_05_1605,ProdSingRedoBetween,2021.2.3,59.93924558034797,
51,0,51,0,,,,,,,,,,,,,,,,,,,,,,,,,,189.18265940000128,None,damage,36,52,aloud,blue,187.18047570000635,None,None,187.18047570000635,None,,,,,,,,,,,,,,,,,,,,,,,,,,,,,,,,,,,20Aloud,001,2022_Aug_05_1605,ProdSingRedoBetween,2021.2.3,59.93924558034797,
52,0,52,0,,,,,,,,,,,,,,,,,,,,,,,,,,191.7015698000032,None,volume,35,53,aloud,blue,189.6862553999963,None,None,189.6862553999963,None,,,,,,,,,,,,,,,,,,,,,,,,,,,,,,,,,,,20Aloud,001,2022_Aug_05_1605,ProdSingRedoBetween,2021.2.3,59.93924558034797,
53,0,53,0,,,,,,,,,,,,,,,,,,,,,,,,,,194.20418329999666,None,running,53,54,aloud,blue,192.2035584999976,None,None,192.2035584999976,None,,,,,,,,,,,,,,,,,,,,,,,,,,,,,,,,,,,20Aloud,001,2022_Aug_05_1605,ProdSingRedoBetween,2021.2.3,59.93924558034797,
54,0,54,0,,,,,,,,,,,,,,,,,,,,,,,,,,196.70659329999762,None,vision,47,55,aloud,blue,194.7054516000062,None,None,194.7054516000062,None,,,,,,,,,,,,,,,,,,,,,,,,,,,,,,,,,,,20Aloud,001,2022_Aug_05_1605,ProdSingRedoBetween,2021.2.3,59.93924558034797,
55,0,55,0,,,,,,,,,,,,,,,,,,,,,,,,,,199.22578330000397,None,sleep,21,56,aloud,yellow,197.21609050000552,None,None,197.21609050000552,None,,,,,,,,,,,,,,,,,,,,,,,,,,,,,,,,,,,20Aloud,001,2022_Aug_05_1605,ProdSingRedoBetween,2021.2.3,59.93924558034797,
56,0,56,0,,,,,,,,,,,,,,,,,,,,,,,,,,201.72826010000426,None,object,38,57,aloud,blue,199.7268333999964,None,None,199.7268333999964,None,,,,,,,,,,,,,,,,,,,,,,,,,,,,,,,,,,,20Aloud,001,2022_Aug_05_1605,ProdSingRedoBetween,2021.2.3,59.93924558034797,
57,0,57,0,,,,,,,,,,,,,,,,,,,,,,,,,,204.23080580000533,None,harmony,41,58,aloud,blue,202.2288019999978,None,None,202.2288019999978,None,,,,,,,,,,,,,,,,,,,,,,,,,,,,,,,,,,,20Aloud,001,2022_Aug_05_1605,ProdSingRedoBetween,2021.2.3,59.93924558034797,
58,0,58,0,,,,,,,,,,,,,,,,,,,,,,,,,,206.73338620000868,None,right,20,59,aloud,yellow,204.73406570000225,None,None,204.73406570000225,None,,,,,,,,,,,,,,,,,,,,,,,,,,,,,,,,,,,20Aloud,001,2022_Aug_05_1605,ProdSingRedoBetween,2021.2.3,59.93924558034797,
59,0,59,0,,,,,,,,,,,,,,,,,,,,,,,,,,209.23579380000592,None,quarter,86,60,aloud,red,207.23532680000062,None,None,207.23532680000062,None,,,,,,,,,,,,,,,,,,,,,,,,,,,,,,,,,,,20Aloud,001,2022_Aug_05_1605,ProdSingRedoBetween,2021.2.3,59.93924558034797,
60,0,60,0,,,,,,,,,,,,,,,,,,,,,,,,,,211.7383525000041,None,piece,73,61,aloud,red,209.73647849999543,None,None,209.73647849999543,None,,,,,,,,,,,,,,,,,,,,,,,,,,,,,,,,,,,20Aloud,001,2022_Aug_05_1605,ProdSingRedoBetween,2021.2.3,59.93924558034797,
61,0,61,0,,,,,,,,,,,,,,,,,,,,,,,,,,214.2574964999949,None,smell,46,62,aloud,blue,212.24479850000353,None,None,212.24479850000353,None,,,,,,,,,,,,,,,,,,,,,,,,,,,,,,,,,,,20Aloud,001,2022_Aug_05_1605,ProdSingRedoBetween,2021.2.3,59.93924558034797,
62,0,62,0,,,,,,,,,,,,,,,,,,,,,,,,,,216.75994770000398,None,native,13,63,aloud,yellow,214.7580258000089,None,None,214.7580258000089,None,,,,,,,,,,,,,,,,,,,,,,,,,,,,,,,,,,,20Aloud,001,2022_Aug_05_1605,ProdSingRedoBetween,2021.2.3,59.93924558034797,
63,0,63,0,,,,,,,,,,,,,,,,,,,,,,,,,,219.2792655999947,None,scene,15,64,aloud,yellow,217.2713292999979,None,None,217.2713292999979,None,,,,,,,,,,,,,,,,,,,,,,,,,,,,,,,,,,,20Aloud,001,2022_Aug_05_1605,ProdSingRedoBetween,2021.2.3,59.93924558034797,
64,0,64,0,,,,,,,,,,,,,,,,,,,,,,,,,,221.7817042999959,None,murder,78,65,aloud,red,219.78089900000487,None,None,219.78089900000487,None,,,,,,,,,,,,,,,,,,,,,,,,,,,,,,,,,,,20Aloud,001,2022_Aug_05_1605,ProdSingRedoBetween,2021.2.3,59.93924558034797,
65,0,65,0,,,,,,,,,,,,,,,,,,,,,,,,,,224.30088029999752,None,husband,40,66,aloud,blue,222.28706469999452,None,None,222.28706469999452,None,,,,,,,,,,,,,,,,,,,,,,,,,,,,,,,,,,,20Aloud,001,2022_Aug_05_1605,ProdSingRedoBetween,2021.2.3,59.93924558034797,
66,0,66,0,,,,,,,,,,,,,,,,,,,,,,,,,,226.81998460000614,None,heavy,85,67,aloud,red,224.8064091999986,None,None,224.8064091999986,None,,,,,,,,,,,,,,,,,,,,,,,,,,,,,,,,,,,20Aloud,001,2022_Aug_05_1605,ProdSingRedoBetween,2021.2.3,59.93924558034797,
67,0,67,0,,,,,,,,,,,,,,,,,,,,,,,,,,229.32256240000424,None,treatment,11,68,aloud,yellow,227.32051540000248,None,None,227.32051540000248,None,,,,,,,,,,,,,,,,,,,,,,,,,,,,,,,,,,,20Aloud,001,2022_Aug_05_1605,ProdSingRedoBetween,2021.2.3,59.93924558034797,
68,0,68,0,,,,,,,,,,,,,,,,,,,,,,,,,,231.82503079999879,None,health,22,69,aloud,yellow,229.8259614999988,None,None,229.8259614999988,None,,,,,,,,,,,,,,,,,,,,,,,,,,,,,,,,,,,20Aloud,001,2022_Aug_05_1605,ProdSingRedoBetween,2021.2.3,59.93924558034797,
69,0,69,0,,,,,,,,,,,,,,,,,,,,,,,,,,234.32752180000534,None,whole,65,70,aloud,red,232.32831820000138,None,None,232.32831820000138,None,,,,,,,,,,,,,,,,,,,,,,,,,,,,,,,,,,,20Aloud,001,2022_Aug_05_1605,ProdSingRedoBetween,2021.2.3,59.93924558034797,
70,0,70,0,,,,,,,,,,,,,,,,,,,,,,,,,,236.8467476000078,None,attack,33,71,aloud,blue,234.83209510000597,None,None,234.83209510000597,None,,,,,,,,,,,,,,,,,,,,,,,,,,,,,,,,,,,20Aloud,001,2022_Aug_05_1605,ProdSingRedoBetween,2021.2.3,59.93924558034797,
71,0,71,0,,,,,,,,,,,,,,,,,,,,,,,,,,239.3658310000028,None,minor,59,72,aloud,yellow,237.35689920000732,None,None,237.35689920000732,None,,,,,,,,,,,,,,,,,,,,,,,,,,,,,,,,,,,20Aloud,001,2022_Aug_05_1605,ProdSingRedoBetween,2021.2.3,59.93924558034797,
72,0,72,0,,,,,,,,,,,,,,,,,,,,,,,,,,241.86831980000716,None,community,43,73,aloud,blue,239.8663630999945,None,None,239.8663630999945,None,,,,,,,,,,,,,,,,,,,,,,,,,,,,,,,,,,,20Aloud,001,2022_Aug_05_1605,ProdSingRedoBetween,2021.2.3,59.93924558034797,
73,0,73,0,,,,,,,,,,,,,,,,,,,,,,,,,,244.3875463000004,None,error,29,74,aloud,blue,242.37375830000383,None,None,242.37375830000383,None,,,,,,,,,,,,,,,,,,,,,,,,,,,,,,,,,,,20Aloud,001,2022_Aug_05_1605,ProdSingRedoBetween,2021.2.3,59.93924558034797,
74,0,74,0,,,,,,,,,,,,,,,,,,,,,,,,,,246.88994550000643,None,strength,79,75,aloud,red,244.8880277999997,None,None,244.8880277999997,None,,,,,,,,,,,,,,,,,,,,,,,,,,,,,,,,,,,20Aloud,001,2022_Aug_05_1605,ProdSingRedoBetween,2021.2.3,59.93924558034797,
75,0,75,0,,,,,,,,,,,,,,,,,,,,,,,,,,249.3925326000026,None,recall,89,76,aloud,red,247.3904571000021,None,None,247.3904571000021,None,,,,,,,,,,,,,,,,,,,,,,,,,,,,,,,,,,,20Aloud,001,2022_Aug_05_1605,ProdSingRedoBetween,2021.2.3,59.93924558034797,
76,0,76,0,,,,,,,,,,,,,,,,,,,,,,,,,,251.8949808000034,None,touch,4,77,aloud,yellow,249.89297319999605,None,None,249.89297319999605,None,,,,,,,,,,,,,,,,,,,,,,,,,,,,,,,,,,,20Aloud,001,2022_Aug_05_1605,ProdSingRedoBetween,2021.2.3,59.93924558034797,
77,0,77,0,,,,,,,,,,,,,,,,,,,,,,,,,,254.3976166000066,None,symbol,61,78,aloud,red,252.39545559999533,None,None,252.39545559999533,None,,,,,,,,,,,,,,,,,,,,,,,,,,,,,,,,,,,20Aloud,001,2022_Aug_05_1605,ProdSingRedoBetween,2021.2.3,59.93924558034797,
78,0,78,0,,,,,,,,,,,,,,,,,,,,,,,,,,256.91673090000404,None,bitter,2,79,aloud,yellow,254.90217820000544,None,None,254.90217820000544,None,,,,,,,,,,,,,,,,,,,,,,,,,,,,,,,,,,,20Aloud,001,2022_Aug_05_1605,ProdSingRedoBetween,2021.2.3,59.93924558034797,
79,0,79,0,,,,,,,,,,,,,,,,,,,,,,,,,,259.4193149000057,None,finance,80,80,aloud,red,257.42003550000663,None,None,257.42003550000663,None,,,,,,,,,,,,,,,,,,,,,,,,,,,,,,,,,,,20Aloud,001,2022_Aug_05_1605,ProdSingRedoBetween,2021.2.3,59.93924558034797,
80,0,80,0,,,,,,,,,,,,,,,,,,,,,,,,,,261.9384238000057,None,contract,37,81,aloud,blue,259.9238178999949,None,None,259.9238178999949,None,,,,,,,,,,,,,,,,,,,,,,,,,,,,,,,,,,,20Aloud,001,2022_Aug_05_1605,ProdSingRedoBetween,2021.2.3,59.93924558034797,
81,0,81,0,,,,,,,,,,,,,,,,,,,,,,,,,,264.44083059999684,None,bright,27,82,aloud,yellow,262.43886300000304,None,None,262.43886300000304,None,,,,,,,,,,,,,,,,,,,,,,,,,,,,,,,,,,,20Aloud,001,2022_Aug_05_1605,ProdSingRedoBetween,2021.2.3,59.93924558034797,
82,0,82,0,,,,,,,,,,,,,,,,,,,,,,,,,,266.9433258000063,None,comfort,31,83,aloud,blue,264.94133250000596,None,None,264.94133250000596,None,,,,,,,,,,,,,,,,,,,,,,,,,,,,,,,,,,,20Aloud,001,2022_Aug_05_1605,ProdSingRedoBetween,2021.2.3,59.93924558034797,
83,0,83,0,,,,,,,,,,,,,,,,,,,,,,,,,,269.4459598999965,None,series,24,84,aloud,yellow,267.44452170000295,None,None,267.44452170000295,None,,,,,,,,,,,,,,,,,,,,,,,,,,,,,,,,,,,20Aloud,001,2022_Aug_05_1605,ProdSingRedoBetween,2021.2.3,59.93924558034797,
84,0,84,0,,,,,,,,,,,,,,,,,,,,,,,,,,271.96502590000455,None,author,42,85,aloud,blue,269.95054540000274,None,None,269.95054540000274,None,,,,,,,,,,,,,,,,,,,,,,,,,,,,,,,,,,,20Aloud,001,2022_Aug_05_1605,ProdSingRedoBetween,2021.2.3,59.93924558034797,
85,0,85,0,,,,,,,,,,,,,,,,,,,,,,,,,,274.4677595999965,None,article,16,86,aloud,yellow,272.4655933000031,None,None,272.4655933000031,None,,,,,,,,,,,,,,,,,,,,,,,,,,,,,,,,,,,20Aloud,001,2022_Aug_05_1605,ProdSingRedoBetween,2021.2.3,59.93924558034797,
86,0,86,0,,,,,,,,,,,,,,,,,,,,,,,,,,276.9869042000064,None,device,88,87,aloud,red,274.9711631999962,None,None,274.9711631999962,None,,,,,,,,,,,,,,,,,,,,,,,,,,,,,,,,,,,20Aloud,001,2022_Aug_05_1605,ProdSingRedoBetween,2021.2.3,59.93924558034797,
87,0,87,0,,,,,,,,,,,,,,,,,,,,,,,,,,279.4893116000021,None,column,82,88,aloud,red,277.48920999999973,None,None,277.48920999999973,None,,,,,,,,,,,,,,,,,,,,,,,,,,,,,,,,,,,20Aloud,001,2022_Aug_05_1605,ProdSingRedoBetween,2021.2.3,59.93924558034797,
88,0,88,0,,,,,,,,,,,,,,,,,,,,,,,,,,281.99180960000376,None,leader,9,89,aloud,yellow,279.9926961000019,None,None,279.9926961000019,None,,,,,,,,,,,,,,,,,,,,,,,,,,,,,,,,,,,20Aloud,001,2022_Aug_05_1605,ProdSingRedoBetween,2021.2.3,59.93924558034797,
89,0,89,0,,,,,,,,,,,,,,,,,,,,,,,,,,284.5108712000074,None,split,70,90,aloud,red,282.4965489000024,None,None,282.4965489000024,None,,,,,,,,,,,,,,,,,,,,,,,,,,,,,,,,,,,20Aloud,001,2022_Aug_05_1605,ProdSingRedoBetween,2021.2.3,59.93924558034797,
,,,,,,,,,,,,,,,,,,,,,,,,,,,,,,,,,,,,,,,,,285.0116277000052,None,k,119.7773118000041,285.0116277000052,None,,,,,,,,,,,,,,,,,,,,,,,,,,,,,20Aloud,001,2022_Aug_05_1605,ProdSingRedoBetween,2021.2.3,59.93924558034797,
,,,,0,0,0,0,,,,,,,,,,,,,,,,,,,,,,425.95199060000596,None,,,,,,,,,,,,,,,,,edition,150,1,aloud,new,null,405.31963080000423,None,405.31963080000423,None,4,16.613289000000805,405.31963080000423,None,16.613289000000805,421.94896740000695,None,422.45316459999594,None,422.45316459999594,None,f,3.479762799994205,422.45316459999594,None,3.479762799994205,,,20Aloud,001,2022_Aug_05_1605,ProdSingRedoBetween,2021.2.3,59.93924558034797,
,,,,1,0,1,0,,,,,,,,,,,,,,,,,,,,,,432.79370680000284,None,,,,,,,,,,,,,,,,,spoke,0,2,aloud,old,yellow,426.46686800000316,None,426.46686800000316,None,1,3.7380068999918876,426.46686800000316,None,3.7380068999918876,430.22451870000805,None,430.740237799997,None,430.740237799997,None,n,2.0327982000017073,430.740237799997,None,2.0327982000017073,,,20Aloud,001,2022_Aug_05_1605,ProdSingRedoBetween,2021.2.3,59.93924558034797,
,,,,2,0,2,0,,,,,,,,,,,,,,,,,,,,,,440.3676412000059,None,,,,,,,,,,,,,,,,,skill,32,3,aloud,old,blue,433.2985388000088,None,433.2985388000088,None,6,3.178361300000688,433.2985388000088,None,3.178361300000688,436.49713509999856,None,437.0011999999988,None,437.0011999999988,None,f,3.347814200009452,437.0011999999988,None,3.347814200009452,,,20Aloud,001,2022_Aug_05_1605,ProdSingRedoBetween,2021.2.3,59.93924558034797,
,,,,3,0,3,0,,,,,,,,,,,,,,,,,,,,,,446.8061591000005,None,,,,,,,,,,,,,,,,,build,18,4,aloud,old,yellow,440.87278449999576,None,440.87278449999576,None,6,3.6361371999955736,440.87278449999576,None,3.6361371999955736,444.5373197000008,None,445.03788299999724,None,445.03788299999724,None,f,1.7509766000002855,445.03788299999724,None,1.7509766000002855,,,20Aloud,001,2022_Aug_05_1605,ProdSingRedoBetween,2021.2.3,59.93924558034797,
,,,,4,0,4,0,,,,,,,,,,,,,,,,,,,,,,453.31269940000493,None,,,,,,,,,,,,,,,,,opening,62,5,aloud,old,red,447.31189070000255,None,447.31189070000255,None,3,3.83700920001138,447.31189070000255,None,3.83700920001138,451.1772382000054,None,451.680663799998,None,451.680663799998,None,f,1.6122529999993276,451.680663799998,None,1.6122529999993276,,,20Aloud,001,2022_Aug_05_1605,ProdSingRedoBetween,2021.2.3,59.93924558034797,
,,,,5,0,5,0,,,,,,,,,,,,,,,,,,,,,,460.8048859999981,None,,,,,,,,,,,,,,,,,council,134,6,aloud,new,null,453.8191164000018,None,453.8191164000018,None,2,4.561763199992129,453.8191164000018,None,4.561763199992129,458.4019794000051,None,458.9052468000009,None,458.9052468000009,None,f,1.8757281999860425,458.9052468000009,None,1.8757281999860425,,,20Aloud,001,2022_Aug_05_1605,ProdSingRedoBetween,2021.2.3,59.93924558034797,
,,,,6,0,6,0,,,,,,,,,,,,,,,,,,,,,,466.9095381000079,None,,,,,,,,,,,,,,,,,safety,102,7,aloud,new,null,461.3073318999959,None,461.3073318999959,None,1,2.857702599998447,461.3073318999959,None,2.857702599998447,464.2032455000008,None,464.7108750000043,None,464.7108750000043,None,n,2.174002700005076,464.7108750000043,None,2.174002700005076,,,20Aloud,001,2022_Aug_05_1605,ProdSingRedoBetween,2021.2.3,59.93924558034797,
,,,,7,0,7,0,,,,,,,,,,,,,,,,,,,,,,471.84780709999905,None,,,,,,,,,,,,,,,,,emergency,167,8,aloud,new,null,467.420875900003,None,467.420875900003,None,1,1.960013899995829,467.420875900003,None,1.960013899995829,469.4200423000002,None,469.92980110000644,None,469.92980110000644,None,n,1.890976700000465,469.92980110000644,None,1.890976700000465,,,20Aloud,001,2022_Aug_05_1605,ProdSingRedoBetween,2021.2.3,59.93924558034797,
,,,,8,0,8,0,,,,,,,,,,,,,,,,,,,,,,476.3689788000047,None,,,,,,,,,,,,,,,,,substance,175,9,aloud,new,null,472.36122920000344,None,472.36122920000344,None,1,2.211615400010487,472.36122920000344,None,2.211615400010487,474.60480489999463,None,475.1270197999984,None,475.1270197999984,None,n,1.2138185000076191,475.1270197999984,None,1.2138185000076191,,,20Aloud,001,2022_Aug_05_1605,ProdSingRedoBetween,2021.2.3,59.93924558034797,
,,,,9,0,9,0,,,,,,,,,,,,,,,,,,,,,,484.1768041000032,None,,,,,,,,,,,,,,,,,business,108,10,aloud,new,null,476.87831110000843,None,476.87831110000843,None,1,5.910543699996197,476.87831110000843,None,5.910543699996197,482.81082400000014,None,483.32683990000805,None,483.32683990000805,None,n,0.8300433999975212,483.32683990000805,None,0.8300433999975212,,,20Aloud,001,2022_Aug_05_1605,ProdSingRedoBetween,2021.2.3,59.93924558034797,
,,,,10,0,10,0,,,,,,,,,,,,,,,,,,,,,,490.6833356999996,None,,,,,,,,,,,,,,,,,series,24,11,aloud,old,yellow,484.6841662000079,None,484.6841662000079,None,6,3.168613200003165,484.6841662000079,None,3.168613200003165,487.886195900006,None,488.3995239000069,None,488.3995239000069,None,f,2.253345500008436,488.3995239000069,None,2.253345500008436,,,20Aloud,001,2022_Aug_05_1605,ProdSingRedoBetween,2021.2.3,59.93924558034797,
,,,,11,0,11,0,,,,,,,,,,,,,,,,,,,,,,495.6585630000045,None,,,,,,,,,,,,,,,,,answer,179,12,aloud,new,null,491.1929541999998,None,491.1929541999998,None,4,2.6678915999946184,491.1929541999998,None,2.6678915999946184,493.8877139999968,None,494.39222280000104,None,494.39222280000104,None,f,1.244533799996134,494.39222280000104,None,1.244533799996134,,,20Aloud,001,2022_Aug_05_1605,ProdSingRedoBetween,2021.2.3,59.93924558034797,
,,,,12,0,12,0,,,,,,,,,,,,,,,,,,,,,,502.1946900000039,None,,,,,,,,,,,,,,,,,detective,34,13,aloud,old,blue,496.1845796999987,None,496.1845796999987,None,6,2.868277500005206,496.1845796999987,None,2.868277500005206,499.0762989000068,None,499.5829960999981,None,499.5829960999981,None,f,2.5818669000000227,499.5829960999981,None,2.5818669000000227,,,20Aloud,001,2022_Aug_05_1605,ProdSingRedoBetween,2021.2.3,59.93924558034797,
,,,,13,0,13,0,,,,,,,,,,,,,,,,,,,,,,506.19875260000117,None,,,,,,,,,,,,,,,,,medicine,157,14,aloud,new,null,502.70456569999806,None,502.70456569999806,None,1,1.6363355000066804,502.70456569999806,None,1.6363355000066804,504.3700656000001,None,504.88214719999814,None,504.88214719999814,None,n,1.2906876000051852,504.88214719999814,None,1.2906876000051852,,,20Aloud,001,2022_Aug_05_1605,ProdSingRedoBetween,2021.2.3,59.93924558034797,
,,,,14,0,14,0,,,,,,,,,,,,,,,,,,,,,,511.72093579999637,None,,,,,,,,,,,,,,,,,strength,79,15,aloud,old,red,506.7068900000013,None,506.7068900000013,None,6,2.4738551000045845,506.7068900000013,None,2.4738551000045845,509.206566000008,None,509.7233527000062,None,509.7233527000062,None,f,1.969486699992558,509.7233527000062,None,1.969486699992558,,,20Aloud,001,2022_Aug_05_1605,ProdSingRedoBetween,2021.2.3,59.93924558034797,
,,,,15,0,15,0,,,,,,,,,,,,,,,,,,,,,,516.0252284000017,None,,,,,,,,,,,,,,,,,light,139,16,aloud,new,null,512.2306837000069,None,512.2306837000069,None,1,1.8142380000062985,512.2306837000069,None,1.8142380000062985,514.076761400007,None,514.5907054999989,None,514.5907054999989,None,n,1.4061638999992283,514.5907054999989,None,1.4061638999992283,,,20Aloud,001,2022_Aug_05_1605,ProdSingRedoBetween,2021.2.3,59.93924558034797,
,,,,16,0,16,0,,,,,,,,,,,,,,,,,,,,,,522.0146699000034,None,,,,,,,,,,,,,,,,,suggestion,137,17,aloud,new,null,516.5376649999962,None,516.5376649999962,None,4,2.9311032999976305,516.5376649999962,None,2.9311032999976305,519.4965762000065,None,520.0016453999997,None,520.0016453999997,None,f,1.995143600011943,520.0016453999997,None,1.995143600011943,,,20Aloud,001,2022_Aug_05_1605,ProdSingRedoBetween,2021.2.3,59.93924558034797,
,,,,17,0,17,0,,,,,,,,,,,,,,,,,,,,,,527.2030269999959,None,,,,,,,,,,,,,,,,,period,107,18,aloud,new,null,522.5213139999978,None,522.5213139999978,None,1,2.9956071999913547,522.5213139999978,None,2.9956071999913547,525.5381621999986,None,526.0558066999947,None,526.0558066999947,None,n,1.1169832999876235,526.0558066999947,None,1.1169832999876235,,,20Aloud,001,2022_Aug_05_1605,ProdSingRedoBetween,2021.2.3,59.93924558034797,
,,,,18,0,18,0,,,,,,,,,,,,,,,,,,,,,,534.3935490000003,None,,,,,,,,,,,,,,,,,session,174,19,aloud,new,null,527.7074872999947,None,527.7074872999947,None,3,4.377323699998669,527.7074872999947,None,4.377323699998669,532.1091483000055,None,532.6144210000057,None,532.6144210000057,None,f,1.758336099999724,532.6144210000057,None,1.758336099999724,,,20Aloud,001,2022_Aug_05_1605,ProdSingRedoBetween,2021.2.3,59.93924558034797,
,,,,19,0,19,0,,,,,,,,,,,,,,,,,,,,,,541.717553399998,None,,,,,,,,,,,,,,,,,motion,56,20,aloud,old,blue,534.9001387000026,None,534.9001387000026,None,1,4.128716699997312,534.9001387000026,None,4.128716699997312,539.0483441999968,None,539.5512697000086,None,539.5512697000086,None,n,2.141515099996468,539.5512697000086,None,2.141515099996468,,,20Aloud,001,2022_Aug_05_1605,ProdSingRedoBetween,2021.2.3,59.93924558034797,
,,,,20,0,20,0,,,,,,,,,,,,,,,,,,,,,,548.2240406000055,None,,,,,,,,,,,,,,,,,straight,58,21,aloud,old,blue,542.2285822999984,None,542.2285822999984,None,5,2.7364688999950886,542.2285822999984,None,2.7364688999950886,544.9947919999977,None,545.5060952000058,None,545.5060952000058,None,f,2.698705600007088,545.5060952000058,None,2.698705600007088,,,20Aloud,001,2022_Aug_05_1605,ProdSingRedoBetween,2021.2.3,59.93924558034797,
,,,,21,0,21,0,,,,,,,,,,,,,,,,,,,,,,553.8463637999957,None,,,,,,,,,,,,,,,,,poetry,94,22,aloud,new,null,548.7351371999976,None,548.7351371999976,None,5,3.2057301000022562,548.7351371999976,None,3.2057301000022562,551.9610871000041,None,552.4643555000075,None,552.4643555000075,None,f,1.3564290000067558,552.4643555000075,None,1.3564290000067558,,,20Aloud,001,2022_Aug_05_1605,ProdSingRedoBetween,2021.2.3,59.93924558034797,
,,,,22,0,22,0,,,,,,,,,,,,,,,,,,,,,,558.9013190999976,None,,,,,,,,,,,,,,,,,industry,48,23,aloud,old,blue,554.3538054999954,None,554.3538054999954,None,6,2.026922699995339,554.3538054999954,None,2.026922699995339,556.4001067000063,None,556.903633000009,None,556.903633000009,None,f,1.9811353999975836,556.903633000009,None,1.9811353999975836,,,20Aloud,001,2022_Aug_05_1605,ProdSingRedoBetween,2021.2.3,59.93924558034797,
,,,,23,0,23,0,,,,,,,,,,,,,,,,,,,,,,563.7407053000061,None,,,,,,,,,,,,,,,,,attack,33,24,aloud,old,blue,559.4121524000075,None,559.4121524000075,None,1,2.0645559999975376,559.4121524000075,None,2.0645559999975376,561.5050257999974,None,562.0066777000029,None,562.0066777000029,None,n,1.7101723999949172,562.0066777000029,None,1.7101723999949172,,,20Aloud,001,2022_Aug_05_1605,ProdSingRedoBetween,2021.2.3,59.93924558034797,
,,,,24,0,24,0,,,,,,,,,,,,,,,,,,,,,,568.927986900002,None,,,,,,,,,,,,,,,,,symbol,61,25,aloud,old,red,564.2436498000025,None,564.2436498000025,None,1,2.5052021999872522,564.2436498000025,None,2.5052021999872522,566.7812317000062,None,567.3007930000022,None,567.3007930000022,None,n,1.6078853999933926,567.3007930000022,None,1.6078853999933926,,,20Aloud,001,2022_Aug_05_1605,ProdSingRedoBetween,2021.2.3,59.93924558034797,
,,,,25,0,25,0,,,,,,,,,,,,,,,,,,,,,,573.8829707999976,None,,,,,,,,,,,,,,,,,fellow,103,26,aloud,new,null,569.4332766000007,None,569.4332766000007,None,1,2.5074830000085058,569.4332766000007,None,2.5074830000085058,571.9651305000007,None,572.4649142999988,None,572.4649142999988,None,n,1.387730400005239,572.4649142999988,None,1.387730400005239,,,20Aloud,001,2022_Aug_05_1605,ProdSingRedoBetween,2021.2.3,59.93924558034797,
,,,,26,0,26,0,,,,,,,,,,,,,,,,,,,,,,579.039820200007,None,,,,,,,,,,,,,,,,,point,105,27,aloud,new,null,574.3939503000001,None,574.3939503000001,None,1,2.85086350000347,574.3939503000001,None,2.85086350000347,577.2745059000008,None,577.7920846000052,None,577.7920846000052,None,n,1.2287554000067757,577.7920846000052,None,1.2287554000067757,,,20Aloud,001,2022_Aug_05_1605,ProdSingRedoBetween,2021.2.3,59.93924558034797,
,,,,27,0,27,0,,,,,,,,,,,,,,,,,,,,,,582.826275200001,None,,,,,,,,,,,,,,,,,cousin,97,28,aloud,new,null,579.5596517999948,None,579.5596517999948,None,1,2.197108799999114,579.5596517999948,None,2.197108799999114,581.7747267000086,None,582.2815273000015,None,582.2815273000015,None,n,0.5152980999991996,582.2815273000015,None,0.5152980999991996,,,20Aloud,001,2022_Aug_05_1605,ProdSingRedoBetween,2021.2.3,59.93924558034797,
,,,,28,0,28,0,,,,,,,,,,,,,,,,,,,,,,587.3964278000058,None,,,,,,,,,,,,,,,,,blind,67,29,aloud,old,red,583.3285137000057,None,583.3285137000057,None,6,2.244342100006179,583.3285137000057,None,2.244342100006179,585.6017017999984,None,586.112540400005,None,586.112540400005,None,f,1.260212799999863,586.112540400005,None,1.260212799999863,,,20Aloud,001,2022_Aug_05_1605,ProdSingRedoBetween,2021.2.3,59.93924558034797,
,,,,29,0,29,0,,,,,,,,,,,,,,,,,,,,,,592.2354215000087,None,,,,,,,,,,,,,,,,,dozen,39,30,aloud,old,blue,587.9030925999978,None,587.9030925999978,None,6,2.0298080000065966,587.9030925999978,None,2.0298080000065966,589.9534038999991,None,590.466479900002,None,590.466479900002,None,f,1.7383783999976004,590.466479900002,None,1.7383783999976004,,,20Aloud,001,2022_Aug_05_1605,ProdSingRedoBetween,2021.2.3,59.93924558034797,
,,,,30,0,30,0,,,,,,,,,,,,,,,,,,,,,,596.0384454000014,None,,,,,,,,,,,,,,,,,partner,101,31,aloud,new,null,592.7421050999983,None,592.7421050999983,None,6,2.030810399999609,592.7421050999983,None,2.030810399999609,594.8061171000008,None,595.326052400007,None,595.326052400007,None,f,0.6866972999996506,595.326052400007,None,0.6866972999996506,,,20Aloud,001,2022_Aug_05_1605,ProdSingRedoBetween,2021.2.3,59.93924558034797,
,,,,31,0,31,0,,,,,,,,,,,,,,,,,,,,,,602.2613416999957,None,,,,,,,,,,,,,,,,,balance,87,32,aloud,old,red,596.5466083000065,None,596.5466083000065,None,3,2.8821221999969566,596.5466083000065,None,2.8821221999969566,599.4585401000077,None,599.9615652000066,None,599.9615652000066,None,f,2.2751655999891227,599.9615652000066,None,2.2751655999891227,,,20Aloud,001,2022_Aug_05_1605,ProdSingRedoBetween,2021.2.3,59.93924558034797,
,,,,32,0,32,0,,,,,,,,,,,,,,,,,,,,,,606.5655310000002,None,,,,,,,,,,,,,,,,,force,28,33,aloud,old,yellow,602.7718353999953,None,602.7718353999953,None,5,1.8809252999926684,602.7718353999953,None,1.8809252999926684,604.6837728999963,None,605.1977558000071,None,605.1977558000071,None,f,1.3509488999989117,605.1977558000071,None,1.3509488999989117,,,20Aloud,001,2022_Aug_05_1605,ProdSingRedoBetween,2021.2.3,59.93924558034797,
,,,,33,0,33,0,,,,,,,,,,,,,,,,,,,,,,613.6227766999946,None,,,,,,,,,,,,,,,,,dream,122,34,aloud,new,null,607.0719192999968,None,607.0719192999968,None,2,2.372805699997116,607.0719192999968,None,2.372805699997116,609.468564499999,None,609.9746416999988,None,609.9746416999988,None,n,3.622146599998814,609.9746416999988,None,3.622146599998814,,,20Aloud,001,2022_Aug_05_1605,ProdSingRedoBetween,2021.2.3,59.93924558034797,
,,,,34,0,34,0,,,,,,,,,,,,,,,,,,,,,,618.8363578999997,None,,,,,,,,,,,,,,,,,surprise,106,35,aloud,new,null,614.1359628000064,None,614.1359628000064,None,5,2.204640700001619,614.1359628000064,None,2.204640700001619,616.3600779999979,None,616.8674127999984,None,616.8674127999984,None,f,1.9377461999974912,616.8674127999984,None,1.9377461999974912,,,20Aloud,001,2022_Aug_05_1605,ProdSingRedoBetween,2021.2.3,59.93924558034797,
,,,,35,0,35,0,,,,,,,,,,,,,,,,,,,,,,623.1988715000043,None,,,,,,,,,,,,,,,,,display,146,36,aloud,new,null,619.346638899995,None,619.346638899995,None,1,2.026087899997947,619.346638899995,None,2.026087899997947,621.4055165000027,None,621.9168249000068,None,621.9168249000068,None,n,1.2639285000041127,621.9168249000068,None,1.2639285000041127,,,20Aloud,001,2022_Aug_05_1605,ProdSingRedoBetween,2021.2.3,59.93924558034797,
,,,,36,0,36,0,,,,,,,,,,,,,,,,,,,,,,628.2537532999995,None,,,,,,,,,,,,,,,,,harmony,41,37,aloud,old,blue,623.7085306000081,None,623.7085306000081,None,6,2.048129599992535,623.7085306000081,None,2.048129599992535,625.7858204000077,None,626.2970843000076,None,626.2970843000076,None,f,1.9316846000001533,626.2970843000076,None,1.9316846000001533,,,20Aloud,001,2022_Aug_05_1605,ProdSingRedoBetween,2021.2.3,59.93924558034797,
,,,,37,0,37,0,,,,,,,,,,,,,,,,,,,,,,633.2421858000016,None,,,,,,,,,,,,,,,,,appeal,154,38,aloud,new,null,628.7547984999983,None,628.7547984999983,None,2,2.7059439000004204,628.7547984999983,None,2.7059439000004204,631.4912193000055,None,631.9955024000083,None,631.9955024000083,None,n,1.2172236000042176,631.9955024000083,None,1.2172236000042176,,,20Aloud,001,2022_Aug_05_1605,ProdSingRedoBetween,2021.2.3,59.93924558034797,
,,,,38,0,38,0,,,,,,,,,,,,,,,,,,,,,,638.8644685000036,None,,,,,,,,,,,,,,,,,employment,158,39,aloud,new,null,633.7533850000036,None,633.7533850000036,None,5,2.7072492000006605,633.7533850000036,None,2.7072492000006605,636.4872384000046,None,636.9959844999976,None,636.9959844999976,None,f,1.840640499998699,636.9959844999976,None,1.840640499998699,,,20Aloud,001,2022_Aug_05_1605,ProdSingRedoBetween,2021.2.3,59.93924558034797,
,,,,39,0,39,0,,,,,,,,,,,,,,,,,,,,,,647.2728659999993,None,,,,,,,,,,,,,,,,,message,104,40,aloud,new,null,639.3757711000071,None,639.3757711000071,None,5,5.061001100009889,639.3757711000071,None,5.061001100009889,644.4537176000013,None,644.959279200004,None,644.959279200004,None,f,2.2854461999959312,644.959279200004,None,2.2854461999959312,,,20Aloud,001,2022_Aug_05_1605,ProdSingRedoBetween,2021.2.3,59.93924558034797,
,,,,40,0,40,0,,,,,,,,,,,,,,,,,,,,,,652.6949446000071,None,,,,,,,,,,,,,,,,,stand,60,41,aloud,old,red,647.7815090000076,None,647.7815090000076,None,1,2.4872291999927256,647.7815090000076,None,2.4872291999927256,650.296165599997,None,650.8120482999948,None,650.8120482999948,None,f,1.8566066000057617,650.8120482999948,None,1.8566066000057617,,,20Aloud,001,2022_Aug_05_1605,ProdSingRedoBetween,2021.2.3,59.93924558034797,
,,,,41,0,41,0,,,,,,,,,,,,,,,,,,,,,,657.9001480000006,None,,,,,,,,,,,,,,,,,individual,77,42,aloud,old,red,653.2122087000025,None,653.2122087000025,None,6,2.3125851999939186,653.2122087000025,None,2.3125851999939186,655.5478595000022,None,656.0605076000065,None,656.0605076000065,None,f,1.8241590000106953,656.0605076000065,None,1.8241590000106953,,,20Aloud,001,2022_Aug_05_1605,ProdSingRedoBetween,2021.2.3,59.93924558034797,
,,,,42,0,42,0,,,,,,,,,,,,,,,,,,,,,,662.5381885999959,None,,,,,,,,,,,,,,,,,discovery,66,43,aloud,old,red,658.4036911000003,None,658.4036911000003,None,6,1.864943199994741,658.4036911000003,None,1.864943199994741,660.2882520999992,None,660.806519699996,None,660.806519699996,None,f,1.7101372000033734,660.806519699996,None,1.7101372000033734,,,20Aloud,001,2022_Aug_05_1605,ProdSingRedoBetween,2021.2.3,59.93924558034797,
,,,,43,0,43,0,,,,,,,,,,,,,,,,,,,,,,665.8747594000015,None,,,,,,,,,,,,,,,,,native,13,44,aloud,old,yellow,663.0464301000029,None,663.0464301000029,None,6,1.6782506000017747,663.0464301000029,None,1.6782506000017747,664.741511500004,None,665.2436671000032,None,665.2436671000032,None,f,0.6010559999995166,665.2436671000032,None,0.6010559999995166,,,20Aloud,001,2022_Aug_05_1605,ProdSingRedoBetween,2021.2.3,59.93924558034797,
,,,,44,0,44,0,,,,,,,,,,,,,,,,,,,,,,669.2615266000066,None,,,,,,,,,,,,,,,,,husband,40,45,aloud,old,blue,666.3885300999973,None,666.3885300999973,None,6,1.6961176999902818,666.3885300999973,None,1.6961176999902818,668.1105963000009,None,668.6172918000084,None,668.6172918000084,None,f,0.6193876000033924,668.6172918000084,None,0.6193876000033924,,,20Aloud,001,2022_Aug_05_1605,ProdSingRedoBetween,2021.2.3,59.93924558034797,
,,,,45,0,45,0,,,,,,,,,,,,,,,,,,,,,,675.3676647999964,None,,,,,,,,,,,,,,,,,accident,116,46,aloud,new,null,669.7690785000013,None,669.7690785000013,None,4,2.035578800001531,669.7690785000013,None,2.035578800001531,671.8315879000002,None,672.3313511000015,None,672.3313511000015,None,r,3.0092476999998325,672.3313511000015,None,3.0092476999998325,,,20Aloud,001,2022_Aug_05_1605,ProdSingRedoBetween,2021.2.3,59.93924558034797,
,,,,46,0,46,0,,,,,,,,,,,,,,,,,,,,,,686.0783178999991,None,,,,,,,,,,,,,,,,,store,6,47,aloud,old,yellow,675.874132500001,None,675.874132500001,None,4,7.066608499997528,675.874132500001,None,7.066608499997528,682.958632000009,None,683.4638455999957,None,683.4638455999957,None,f,2.5890007999987574,683.4638455999957,None,2.5890007999987574,,,20Aloud,001,2022_Aug_05_1605,ProdSingRedoBetween,2021.2.3,59.93924558034797,
,,,,47,0,47,0,,,,,,,,,,,,,,,,,,,,,,691.1845070999989,None,,,,,,,,,,,,,,,,,rapid,74,48,aloud,old,red,686.582130499999,None,686.582130499999,None,5,2.5184769999905257,686.582130499999,None,2.5184769999905257,689.1312908999971,None,689.6356527000025,None,689.6356527000025,None,f,1.5291685999982292,689.6356527000025,None,1.5291685999982292,,,20Aloud,001,2022_Aug_05_1605,ProdSingRedoBetween,2021.2.3,59.93924558034797,
,,,,48,0,48,0,,,,,,,,,,,,,,,,,,,,,,696.1382709000027,None,,,,,,,,,,,,,,,,,character,155,49,aloud,new,null,691.6889728999959,None,691.6889728999959,None,5,2.4038283999980194,691.6889728999959,None,2.4038283999980194,694.1302069000085,None,694.6382240999956,None,694.6382240999956,None,f,1.478392700009863,694.6382240999956,None,1.478392700009863,,,20Aloud,001,2022_Aug_05_1605,ProdSingRedoBetween,2021.2.3,59.93924558034797,
,,,,49,0,49,0,,,,,,,,,,,,,,,,,,,,,,701.4768952000013,None,,,,,,,,,,,,,,,,,working,96,50,aloud,new,null,696.6507778999949,None,696.6507778999949,None,2,1.7617605999985244,696.6507778999949,None,1.7617605999985244,698.4404477000062,None,698.9414257000026,None,698.9414257000026,None,n,2.519261599998572,698.9414257000026,None,2.519261599998572,,,20Aloud,001,2022_Aug_05_1605,ProdSingRedoBetween,2021.2.3,59.93924558034797,
,,,,50,0,50,0,,,,,,,,,,,,,,,,,,,,,,706.6821964999981,None,,,,,,,,,,,,,,,,,division,81,51,aloud,old,red,701.9788384999993,None,701.9788384999993,None,5,2.681784799991874,701.9788384999993,None,2.681784799991874,704.681817500008,None,705.2032373999973,None,705.2032373999973,None,f,1.4574315000063507,705.2032373999973,None,1.4574315000063507,,,20Aloud,001,2022_Aug_05_1605,ProdSingRedoBetween,2021.2.3,59.93924558034797,
,,,,51,0,51,0,,,,,,,,,,,,,,,,,,,,,,712.0207783000078,None,,,,,,,,,,,,,,,,,object,38,52,aloud,old,blue,707.188524600002,None,707.188524600002,None,4,2.5442267000034917,707.188524600002,None,2.5442267000034917,709.7615536999947,None,710.2693093999987,None,710.2693093999987,None,f,1.7273202999931527,710.2693093999987,None,1.7273202999931527,,,20Aloud,001,2022_Aug_05_1605,ProdSingRedoBetween,2021.2.3,59.93924558034797,
,,,,52,0,52,0,,,,,,,,,,,,,,,,,,,,,,716.8589309999952,None,,,,,,,,,,,,,,,,,month,162,53,aloud,new,null,712.5229146000056,None,712.5229146000056,None,2,1.8737385999993421,712.5229146000056,None,1.8737385999993421,714.4262206999992,None,714.9419137000077,None,714.9419137000077,None,n,1.8946814000082668,714.9419137000077,None,1.8946814000082668,,,20Aloud,001,2022_Aug_05_1605,ProdSingRedoBetween,2021.2.3,59.93924558034797,
,,,,53,0,53,0,,,,,,,,,,,,,,,,,,,,,,721.9973962000076,None,,,,,,,,,,,,,,,,,exchange,7,54,aloud,old,yellow,717.3695456999994,None,717.3695456999994,None,1,2.8270425999944564,717.3695456999994,None,2.8270425999944564,720.2135288999998,None,720.7179464000073,None,720.7179464000073,None,n,1.2626568999985466,720.7179464000073,None,1.2626568999985466,,,20Aloud,001,2022_Aug_05_1605,ProdSingRedoBetween,2021.2.3,59.93924558034797,
,,,,54,0,54,0,,,,,,,,,,,,,,,,,,,,,,727.5697377000033,None,,,,,,,,,,,,,,,,,heavy,85,55,aloud,old,red,722.5074587999989,None,722.5074587999989,None,5,2.6731367000029422,722.5074587999989,None,2.6731367000029422,725.2019444000034,None,725.7014349999954,None,725.7014349999954,None,f,1.8471726999996463,725.7014349999954,None,1.8471726999996463,,,20Aloud,001,2022_Aug_05_1605,ProdSingRedoBetween,2021.2.3,59.93924558034797,
,,,,55,0,55,0,,,,,,,,,,,,,,,,,,,,,,732.7915514000051,None,,,,,,,,,,,,,,,,,committee,76,56,aloud,old,red,728.0793781999964,None,728.0793781999964,None,6,2.3651797999918927,728.0793781999964,None,2.3651797999918927,730.473213300007,None,730.973195700004,None,730.973195700004,None,f,1.791444300004514,730.973195700004,None,1.791444300004514,,,20Aloud,001,2022_Aug_05_1605,ProdSingRedoBetween,2021.2.3,59.93924558034797,
,,,,56,0,56,0,,,,,,,,,,,,,,,,,,,,,,738.7809151999973,None,,,,,,,,,,,,,,,,,theme,143,57,aloud,new,null,733.3039351000043,None,733.3039351000043,None,4,2.7326561999943806,733.3039351000043,None,2.7326561999943806,736.0615027000022,None,736.5621978999989,None,736.5621978999989,None,f,2.1944005000113975,736.5621978999989,None,2.1944005000113975,,,20Aloud,001,2022_Aug_05_1605,ProdSingRedoBetween,2021.2.3,59.93924558034797,
,,,,57,0,57,0,,,,,,,,,,,,,,,,,,,,,,743.469002400001,None,,,,,,,,,,,,,,,,,column,82,58,aloud,old,red,739.2884472000005,None,739.2884472000005,None,6,1.9081240999948932,739.2884472000005,None,1.9081240999948932,741.2176102999947,None,741.7212749000028,None,741.7212749000028,None,f,1.7313613000005716,741.7212749000028,None,1.7313613000005716,,,20Aloud,001,2022_Aug_05_1605,ProdSingRedoBetween,2021.2.3,59.93924558034797,
,,,,58,0,58,0,,,,,,,,,,,,,,,,,,,,,,748.7241427999979,None,,,,,,,,,,,,,,,,,debate,113,59,aloud,new,null,743.9759611000045,None,743.9759611000045,None,2,2.60463780000282,743.9759611000045,None,2.60463780000282,746.605333200001,None,747.1059913000063,None,747.1059913000063,None,n,1.6025019000080647,747.1059913000063,None,1.6025019000080647,,,20Aloud,001,2022_Aug_05_1605,ProdSingRedoBetween,2021.2.3,59.93924558034797,
,,,,59,0,59,0,,,,,,,,,,,,,,,,,,,,,,754.046067000003,None,,,,,,,,,,,,,,,,,account,128,60,aloud,new,null,749.2310643999954,None,749.2310643999954,None,6,2.693507200005115,749.2310643999954,None,2.693507200005115,751.9449480000039,None,752.4447407999978,None,752.4447407999978,None,f,1.5838155999954324,752.4447407999978,None,1.5838155999954324,,,20Aloud,001,2022_Aug_05_1605,ProdSingRedoBetween,2021.2.3,59.93924558034797,
,,,,60,0,60,0,,,,,,,,,,,,,,,,,,,,,,759.4682182999968,None,,,,,,,,,,,,,,,,,benefit,159,61,aloud,new,null,754.5532779000059,None,754.5532779000059,None,1,2.771388699999079,754.5532779000059,None,2.771388699999079,757.3494769999961,None,757.8541272000002,None,757.8541272000002,None,n,1.5983086000051117,757.8541272000002,None,1.5983086000051117,,,20Aloud,001,2022_Aug_05_1605,ProdSingRedoBetween,2021.2.3,59.93924558034797,
,,,,61,0,61,0,,,,,,,,,,,,,,,,,,,,,,763.9225972999993,None,,,,,,,,,,,,,,,,,error,29,62,aloud,old,blue,759.9703833999956,None,759.9703833999956,None,6,1.826547099990421,759.9703833999956,None,1.826547099990421,761.8261655999959,None,762.3377821000031,None,762.3377821000031,None,f,1.5547810999996727,762.3377821000031,None,1.5547810999996727,,,20Aloud,001,2022_Aug_05_1605,ProdSingRedoBetween,2021.2.3,59.93924558034797,
,,,,62,0,62,0,,,,,,,,,,,,,,,,,,,,,,767.8765410000051,None,,,,,,,,,,,,,,,,,subject,55,63,aloud,old,blue,764.4232340000017,None,764.4232340000017,None,6,1.6213374999933876,764.4232340000017,None,1.6213374999933876,766.0861291000037,None,766.5920452999999,None,766.5920452999999,None,f,1.2605564999976195,766.5920452999999,None,1.2605564999976195,,,20Aloud,001,2022_Aug_05_1605,ProdSingRedoBetween,2021.2.3,59.93924558034797,
,,,,63,0,63,0,,,,,,,,,,,,,,,,,,,,,,772.4978742999956,None,,,,,,,,,,,,,,,,,defeat,178,64,aloud,new,null,768.3852568000002,None,768.3852568000002,None,1,1.8672635999973863,768.3852568000002,None,1.8672635999973863,770.2825010000088,None,770.7975295000069,None,770.7975295000069,None,n,1.671015300002182,770.7975295000069,None,1.671015300002182,,,20Aloud,001,2022_Aug_05_1605,ProdSingRedoBetween,2021.2.3,59.93924558034797,
,,,,64,0,64,0,,,,,,,,,,,,,,,,,,,,,,776.6019151000073,None,,,,,,,,,,,,,,,,,taste,23,65,aloud,old,yellow,773.0079542000021,None,773.0079542000021,None,6,1.684670599992387,773.0079542000021,None,1.684670599992387,774.7217593999958,None,775.2390845000045,None,775.2390845000045,None,f,1.3334607000142569,775.2390845000045,None,1.3334607000142569,,,20Aloud,001,2022_Aug_05_1605,ProdSingRedoBetween,2021.2.3,59.93924558034797,
,,,,65,0,65,0,,,,,,,,,,,,,,,,,,,,,,783.8766730000061,None,,,,,,,,,,,,,,,,,escape,148,66,aloud,new,null,777.1113306000043,None,777.1113306000043,None,1,3.6052156000077957,777.1113306000043,None,3.6052156000077957,780.7407357000047,None,781.2461671000056,None,781.2461671000056,None,n,2.5984740999992937,781.2461671000056,None,2.5984740999992937,,,20Aloud,001,2022_Aug_05_1605,ProdSingRedoBetween,2021.2.3,59.93924558034797,
,,,,66,0,66,0,,,,,,,,,,,,,,,,,,,,,,788.7807422000042,None,,,,,,,,,,,,,,,,,comfort,31,67,aloud,old,blue,784.3807196999987,None,784.3807196999987,None,6,1.6637784999911673,784.3807196999987,None,1.6637784999911673,786.0626330000086,None,786.5636221000022,None,786.5636221000022,None,f,2.19290359999286,786.5636221000022,None,2.19290359999286,,,20Aloud,001,2022_Aug_05_1605,ProdSingRedoBetween,2021.2.3,59.93924558034797,
,,,,67,0,67,0,,,,,,,,,,,,,,,,,,,,,,793.4187529000046,None,,,,,,,,,,,,,,,,,service,12,68,aloud,old,yellow,789.2906632999948,None,789.2906632999948,None,4,2.0178822000016226,789.2906632999948,None,2.0178822000016226,791.3365428999969,None,791.8542817999987,None,791.8542817999987,None,f,1.542243799995049,791.8542817999987,None,1.542243799995049,,,20Aloud,001,2022_Aug_05_1605,ProdSingRedoBetween,2021.2.3,59.93924558034797,
,,,,68,0,68,0,,,,,,,,,,,,,,,,,,,,,,798.9409334000084,None,,,,,,,,,,,,,,,,,whole,65,69,aloud,old,red,793.9282387999992,None,793.9282387999992,None,2,2.844152000005124,793.9282387999992,None,2.844152000005124,796.7900539999973,None,797.2940211999958,None,797.2940211999958,None,n,1.6225433000072371,797.2940211999958,None,1.6225433000072371,,,20Aloud,001,2022_Aug_05_1605,ProdSingRedoBetween,2021.2.3,59.93924558034797,
,,,,69,0,69,0,,,,,,,,,,,,,,,,,,,,,,803.3452879999968,None,,,,,,,,,,,,,,,,,scene,15,70,aloud,old,yellow,799.4453590000048,None,799.4453590000048,None,6,1.8950767000060296,799.4453590000048,None,1.8950767000060296,801.3603947999945,None,801.8637101000058,None,801.8637101000058,None,f,1.4608110999979544,801.8637101000058,None,1.4608110999979544,,,20Aloud,001,2022_Aug_05_1605,ProdSingRedoBetween,2021.2.3,59.93924558034797,
,,,,70,0,70,0,,,,,,,,,,,,,,,,,,,,,,809.8518244000006,None,,,,,,,,,,,,,,,,,generation,126,71,aloud,new,null,803.8587614999997,None,803.8587614999997,None,5,3.833730900005321,803.8587614999997,None,3.833730900005321,807.7174082999991,None,808.231738100003,None,808.231738100003,None,f,1.5969370000093477,808.231738100003,None,1.5969370000093477,,,20Aloud,001,2022_Aug_05_1605,ProdSingRedoBetween,2021.2.3,59.93924558034797,
,,,,71,0,71,0,,,,,,,,,,,,,,,,,,,,,,814.2729590999952,None,,,,,,,,,,,,,,,,,impact,45,72,aloud,old,blue,810.3611226000066,None,810.3611226000066,None,6,1.6593601999920793,810.3611226000066,None,1.6593601999920793,812.0408122000081,None,812.5586981000088,None,812.5586981000088,None,f,1.685785300011048,812.5586981000088,None,1.685785300011048,,,20Aloud,001,2022_Aug_05_1605,ProdSingRedoBetween,2021.2.3,59.93924558034797,
,,,,72,0,72,0,,,,,,,,,,,,,,,,,,,,,,818.0766577000031,None,,,,,,,,,,,,,,,,,phrase,136,73,aloud,new,null,814.785704000009,None,814.785704000009,None,5,1.8350421999930404,814.785704000009,None,1.8350421999930404,816.6469289000088,None,817.159246700001,None,817.159246700001,None,f,0.9012173999944935,817.159246700001,None,0.9012173999944935,,,20Aloud,001,2022_Aug_05_1605,ProdSingRedoBetween,2021.2.3,59.93924558034797,
,,,,73,0,73,0,,,,,,,,,,,,,,,,,,,,,,822.3309243999975,None,,,,,,,,,,,,,,,,,device,88,74,aloud,old,red,818.5872947000025,None,818.5872947000025,None,6,2.0091557999985525,818.5872947000025,None,2.0091557999985525,820.6137540000054,None,821.1193191000057,None,821.1193191000057,None,f,1.1892011000018101,821.1193191000057,None,1.1892011000018101,,,20Aloud,001,2022_Aug_05_1605,ProdSingRedoBetween,2021.2.3,59.93924558034797,
,,,,74,0,74,0,,,,,,,,,,,,,,,,,,,,,,826.8853842999961,None,,,,,,,,,,,,,,,,,department,123,75,aloud,new,null,822.8391951999947,None,822.8391951999947,None,3,2.149407599994447,822.8391951999947,None,2.149407599994447,825.0223032000067,None,825.5374299999967,None,825.5374299999967,None,f,1.3229528999945614,825.5374299999967,None,1.3229528999945614,,,20Aloud,001,2022_Aug_05_1605,ProdSingRedoBetween,2021.2.3,59.93924558034797,
,,,,75,0,75,0,,,,,,,,,,,,,,,,,,,,,,832.2574986999971,None,,,,,,,,,,,,,,,,,running,53,76,aloud,old,blue,827.3861101000075,None,827.3861101000075,None,5,3.154347300005611,827.3861101000075,None,3.154347300005611,830.5570515,None,831.0600466000033,None,831.0600466000033,None,f,1.1764518999989377,831.0600466000033,None,1.1764518999989377,,,20Aloud,001,2022_Aug_05_1605,ProdSingRedoBetween,2021.2.3,59.93924558034797,
,,,,76,0,76,0,,,,,,,,,,,,,,,,,,,,,,836.0291351000051,None,,,,,,,,,,,,,,,,,candidate,112,77,aloud,new,null,832.7636346000072,None,832.7636346000072,None,1,1.6888837000005879,832.7636346000072,None,1.6888837000005879,834.4774490999989,None,834.9797417000082,None,834.9797417000082,None,n,1.032786899988423,834.9797417000082,None,1.032786899988423,,,20Aloud,001,2022_Aug_05_1605,ProdSingRedoBetween,2021.2.3,59.93924558034797,
,,,,77,0,77,0,,,,,,,,,,,,,,,,,,,,,,840.1152722999977,None,,,,,,,,,,,,,,,,,minor,59,78,aloud,old,yellow,836.5361645999947,None,836.5361645999947,None,6,1.9641712000011466,836.5361645999947,None,1.9641712000011466,838.5304154000041,None,839.0313546999969,None,839.0313546999969,None,f,1.0530970000108937,839.0313546999969,None,1.0530970000108937,,,20Aloud,001,2022_Aug_05_1605,ProdSingRedoBetween,2021.2.3,59.93924558034797,
,,,,78,0,78,0,,,,,,,,,,,,,,,,,,,,,,844.6031187000044,None,,,,,,,,,,,,,,,,,second,130,79,aloud,new,null,840.6305160000047,None,840.6305160000047,None,2,2.1819509000051767,840.6305160000047,None,2.1819509000051767,842.8359334999986,None,843.3393657999986,None,843.3393657999986,None,n,1.23309789999621,843.3393657999986,None,1.23309789999621,,,20Aloud,001,2022_Aug_05_1605,ProdSingRedoBetween,2021.2.3,59.93924558034797,
,,,,79,0,79,0,,,,,,,,,,,,,,,,,,,,,,848.3744791000063,None,,,,,,,,,,,,,,,,,history,14,80,aloud,old,yellow,845.1067239999975,None,845.1067239999975,None,5,1.545748899996397,845.1067239999975,None,1.545748899996397,846.6730475000077,None,847.172466700009,None,847.172466700009,None,f,1.1763405000092462,847.172466700009,None,1.1763405000092462,,,20Aloud,001,2022_Aug_05_1605,ProdSingRedoBetween,2021.2.3,59.93924558034797,
,,,,80,0,80,0,,,,,,,,,,,,,,,,,,,,,,853.011490600009,None,,,,,,,,,,,,,,,,,death,100,81,aloud,new,null,848.8772101000068,None,848.8772101000068,None,5,2.503262199999881,848.8772101000068,None,2.503262199999881,851.4105982000037,None,851.9130210000003,None,851.9130210000003,None,f,1.0674801999994088,851.9130210000003,None,1.0674801999994088,,,20Aloud,001,2022_Aug_05_1605,ProdSingRedoBetween,2021.2.3,59.93924558034797,
,,,,81,0,81,0,,,,,,,,,,,,,,,,,,,,,,857.4825895999966,None,,,,,,,,,,,,,,,,,guide,98,82,aloud,new,null,853.5182022000081,None,853.5182022000081,None,6,2.2622457000106806,853.5182022000081,None,2.2622457000106806,855.7976062000089,None,856.3035234999988,None,856.3035234999988,None,f,1.1489296999934595,856.3035234999988,None,1.1489296999934595,,,20Aloud,001,2022_Aug_05_1605,ProdSingRedoBetween,2021.2.3,59.93924558034797,
,,,,82,0,82,0,,,,,,,,,,,,,,,,,,,,,,862.3875993999973,None,,,,,,,,,,,,,,,,,drink,153,83,aloud,new,null,857.9920512999961,None,857.9920512999961,None,2,2.5644442000048002,857.9920512999961,None,2.5644442000048002,860.5865720000002,None,861.0863537999976,None,861.0863537999976,None,n,1.2781365000118967,861.0863537999976,None,1.2781365000118967,,,20Aloud,001,2022_Aug_05_1605,ProdSingRedoBetween,2021.2.3,59.93924558034797,
,,,,83,0,83,0,,,,,,,,,,,,,,,,,,,,,,868.3266569999978,None,,,,,,,,,,,,,,,,,relation,133,84,aloud,new,null,862.8943795999949,None,862.8943795999949,None,3,3.5901793999946676,862.8943795999949,None,3.5901793999946676,866.514966200004,None,867.0276178000058,None,867.0276178000058,None,f,1.280793599988101,867.0276178000058,None,1.280793599988101,,,20Aloud,001,2022_Aug_05_1605,ProdSingRedoBetween,2021.2.3,59.93924558034797,
,,,,84,0,84,0,,,,,,,,,,,,,,,,,,,,,,872.0815191000002,None,,,,,,,,,,,,,,,,,tennis,17,85,aloud,old,yellow,868.8274227000074,None,868.8274227000074,None,6,1.5050004000077024,868.8274227000074,None,1.5050004000077024,870.3621552999975,None,870.8678698000003,None,870.8678698000003,None,f,1.1847067000053357,870.8678698000003,None,1.1847067000053357,,,20Aloud,001,2022_Aug_05_1605,ProdSingRedoBetween,2021.2.3,59.93924558034797,
,,,,85,0,85,0,,,,,,,,,,,,,,,,,,,,,,877.8196209000016,None,,,,,,,,,,,,,,,,,afternoon,118,86,aloud,new,null,872.5856560999964,None,872.5856560999964,None,1,3.4188261999952374,872.5856560999964,None,3.4188261999952374,876.034702200006,None,876.5374860000011,None,876.5374860000011,None,n,1.2669578999921214,876.5374860000011,None,1.2669578999921214,,,20Aloud,001,2022_Aug_05_1605,ProdSingRedoBetween,2021.2.3,59.93924558034797,
,,,,86,0,86,0,,,,,,,,,,,,,,,,,,,,,,882.8912985000061,None,,,,,,,,,,,,,,,,,bitter,2,87,aloud,old,yellow,878.3322933000018,None,878.3322933000018,None,1,1.9041525999928126,878.3322933000018,None,1.9041525999928126,880.2553833999991,None,880.7572516000073,None,880.7572516000073,None,n,2.119082299992442,880.7572516000073,None,2.119082299992442,,,20Aloud,001,2022_Aug_05_1605,ProdSingRedoBetween,2021.2.3,59.93924558034797,
,,,,87,0,87,0,,,,,,,,,,,,,,,,,,,,,,887.5126656000066,None,,,,,,,,,,,,,,,,,pretty,71,88,aloud,old,red,883.4080539999995,None,883.4080539999995,None,6,1.5243985999986762,883.4080539999995,None,1.5243985999986762,884.9639198000077,None,885.4829698999965,None,885.4829698999965,None,f,2.0094564000028186,885.4829698999965,None,2.0094564000028186,,,20Aloud,001,2022_Aug_05_1605,ProdSingRedoBetween,2021.2.3,59.93924558034797,
,,,,88,0,88,0,,,,,,,,,,,,,,,,,,,,,,892.3031450999988,None,,,,,,,,,,,,,,,,,trail,160,89,aloud,new,null,888.020841000005,None,888.020841000005,None,2,2.3916696999949636,888.020841000005,None,2.3916696999949636,890.4371934000083,None,890.9494927000051,None,890.9494927000051,None,n,1.3348642000055406,890.9494927000051,None,1.3348642000055406,,,20Aloud,001,2022_Aug_05_1605,ProdSingRedoBetween,2021.2.3,59.93924558034797,
,,,,89,0,89,0,,,,,,,,,,,,,,,,,,,,,,899.1241534000001,None,,,,,,,,,,,,,,,,,citizen,141,90,aloud,new,null,892.8232017999981,None,892.8232017999981,None,6,3.701382899991586,892.8232017999981,None,3.701382899991586,896.5593527000019,None,897.0722782000084,None,897.0722782000084,None,f,2.0282517000014195,897.0722782000084,None,2.0282517000014195,,,20Aloud,001,2022_Aug_05_1605,ProdSingRedoBetween,2021.2.3,59.93924558034797,
,,,,90,0,90,0,,,,,,,,,,,,,,,,,,,,,,904.1322166000027,None,,,,,,,,,,,,,,,,,figure,147,91,aloud,new,null,899.6325471000018,None,899.6325471000018,None,4,2.8119567000103416,899.6325471000018,None,2.8119567000103416,902.4620536000002,None,902.963124700007,None,902.963124700007,None,f,1.1375028000038583,902.963124700007,None,1.1375028000038583,,,20Aloud,001,2022_Aug_05_1605,ProdSingRedoBetween,2021.2.3,59.93924558034797,
,,,,91,0,91,0,,,,,,,,,,,,,,,,,,,,,,908.2333067,None,,,,,,,,,,,,,,,,,author,42,92,aloud,old,blue,904.6542905999959,None,904.6542905999959,None,6,1.5741148000088288,904.6542905999959,None,1.5741148000088288,906.2480090000026,None,906.749064100004,None,906.749064100004,None,f,1.4554014000023017,906.749064100004,None,1.4554014000023017,,,20Aloud,001,2022_Aug_05_1605,ProdSingRedoBetween,2021.2.3,59.93924558034797,
,,,,92,0,92,0,,,,,,,,,,,,,,,,,,,,,,913.9722635000071,None,,,,,,,,,,,,,,,,,material,163,93,aloud,new,null,908.7442486000073,None,908.7442486000073,None,4,2.420252199997776,908.7442486000073,None,2.420252199997776,911.1943054000003,None,911.7047276999947,None,911.7047276999947,None,f,2.2516097000043374,911.7047276999947,None,2.2516097000043374,,,20Aloud,001,2022_Aug_05_1605,ProdSingRedoBetween,2021.2.3,59.93924558034797,
,,,,93,0,93,0,,,,,,,,,,,,,,,,,,,,,,920.1955697999947,None,,,,,,,,,,,,,,,,,swift,50,94,aloud,old,blue,914.4807169999985,None,914.4807169999985,None,2,3.2276530000090133,914.4807169999985,None,3.2276530000090133,917.7273597000021,None,918.2327011000016,None,918.2327011000016,None,n,1.9397729999909643,918.2327011000016,None,1.9397729999909643,,,20Aloud,001,2022_Aug_05_1605,ProdSingRedoBetween,2021.2.3,59.93924558034797,
,,,,94,0,94,0,,,,,,,,,,,,,,,,,,,,,,924.8667840999988,None,,,,,,,,,,,,,,,,,prime,142,95,aloud,new,null,920.6990974000073,None,920.6990974000073,None,1,1.7053676000068663,920.6990974000073,None,1.7053676000068663,922.4319108000054,None,922.9378404000017,None,922.9378404000017,None,n,1.906594000000041,922.9378404000017,None,1.906594000000041,,,20Aloud,001,2022_Aug_05_1605,ProdSingRedoBetween,2021.2.3,59.93924558034797,
,,,,95,0,95,0,,,,,,,,,,,,,,,,,,,,,,928.6869638000062,None,,,,,,,,,,,,,,,,,shape,145,96,aloud,new,null,925.3677296999958,None,925.3677296999958,None,1,1.8286559999978635,925.3677296999958,None,1.8286559999978635,927.2202063000004,None,927.7285136999999,None,927.7285136999999,None,n,0.9317633999889949,927.7285136999999,None,0.9317633999889949,,,20Aloud,001,2022_Aug_05_1605,ProdSingRedoBetween,2021.2.3,59.93924558034797,
,,,,96,0,96,0,,,,,,,,,,,,,,,,,,,,,,933.2916432000056,None,,,,,,,,,,,,,,,,,sleep,21,97,aloud,old,yellow,929.1934465999948,None,929.1934465999948,None,3,2.0269344999978784,929.1934465999948,None,2.0269344999978784,931.2409186000004,None,931.7449164999998,None,931.7449164999998,None,f,1.515480000001844,931.7449164999998,None,1.515480000001844,,,20Aloud,001,2022_Aug_05_1605,ProdSingRedoBetween,2021.2.3,59.93924558034797,
,,,,97,0,97,0,,,,,,,,,,,,,,,,,,,,,,938.0129710000037,None,,,,,,,,,,,,,,,,,republic,172,98,aloud,new,null,933.8025270000071,None,933.8025270000071,None,4,2.4657960000040475,933.8025270000071,None,2.4657960000040475,936.2959425000008,None,936.7992525000009,None,936.7992525000009,None,f,1.18916339999123,936.7992525000009,None,1.18916339999123,,,20Aloud,001,2022_Aug_05_1605,ProdSingRedoBetween,2021.2.3,59.93924558034797,
,,,,98,0,98,0,,,,,,,,,,,,,,,,,,,,,,941.8836760999984,None,,,,,,,,,,,,,,,,,cover,3,99,aloud,old,yellow,938.5203558000067,None,938.5203558000067,None,5,1.444173600000795,938.5203558000067,None,1.444173600000795,939.9893920000031,None,940.5025834999979,None,940.5025834999979,None,f,1.349952199991094,940.5025834999979,None,1.349952199991094,,,20Aloud,001,2022_Aug_05_1605,ProdSingRedoBetween,2021.2.3,59.93924558034797,
,,,,99,0,99,0,,,,,,,,,,,,,,,,,,,,,,945.7378329000057,None,,,,,,,,,,,,,,,,,bright,27,100,aloud,old,yellow,942.3905293999997,None,942.3905293999997,None,6,1.5100021999969613,942.3905293999997,None,1.5100021999969613,943.9221796000056,None,944.4362992999959,None,944.4362992999959,None,f,1.271974200004479,944.4362992999959,None,1.271974200004479,,,20Aloud,001,2022_Aug_05_1605,ProdSingRedoBetween,2021.2.3,59.93924558034797,
,,,,100,0,100,0,,,,,,,,,,,,,,,,,,,,,,951.0928131999972,None,,,,,,,,,,,,,,,,,music,19,101,aloud,old,yellow,946.2495005999954,None,946.2495005999954,None,3,2.9228999000042677,946.2495005999954,None,2.9228999000042677,949.1920761000074,None,949.6976683999965,None,949.6976683999965,None,f,1.3787139000050956,949.6976683999965,None,1.3787139000050956,,,20Aloud,001,2022_Aug_05_1605,ProdSingRedoBetween,2021.2.3,59.93924558034797,
,,,,101,0,101,0,,,,,,,,,,,,,,,,,,,,,,955.6473374000052,None,,,,,,,,,,,,,,,,,passage,110,102,aloud,new,null,951.5965041000018,None,951.5965041000018,None,1,1.93592190000345,951.5965041000018,None,1.93592190000345,953.5661220000038,None,954.079253200005,None,954.079253200005,None,n,1.5490528000082122,954.079253200005,None,1.5490528000082122,,,20Aloud,001,2022_Aug_05_1605,ProdSingRedoBetween,2021.2.3,59.93924558034797,
,,,,102,0,102,0,,,,,,,,,,,,,,,,,,,,,,959.7680650999973,None,,,,,,,,,,,,,,,,,review,173,103,aloud,new,null,956.1500437000068,None,956.1500437000068,None,5,1.5342320000054315,956.1500437000068,None,1.5342320000054315,957.719586399995,None,958.2348448999983,None,958.2348448999983,None,f,1.5135054999991553,958.2348448999983,None,1.5135054999991553,,,20Aloud,001,2022_Aug_05_1605,ProdSingRedoBetween,2021.2.3,59.93924558034797,
,,,,103,0,103,0,,,,,,,,,,,,,,,,,,,,,,964.0390160999959,None,,,,,,,,,,,,,,,,,order,124,104,aloud,new,null,960.2757444000017,None,960.2757444000017,None,6,1.8725297000055434,960.2757444000017,None,1.8725297000055434,962.1706503000023,None,962.6713277999952,None,962.6713277999952,None,f,1.3409738999907859,962.6713277999952,None,1.3409738999907859,,,20Aloud,001,2022_Aug_05_1605,ProdSingRedoBetween,2021.2.3,59.93924558034797,
,,,,104,0,104,0,,,,,,,,,,,,,,,,,,,,,,967.9442851000058,None,,,,,,,,,,,,,,,,,murder,78,105,aloud,old,red,964.5461527000007,None,964.5461527000007,None,6,1.8821714000077918,964.5461527000007,None,1.8821714000077918,966.4580644000089,None,966.9642707000021,None,966.9642707000021,None,f,0.9602761999994982,966.9642707000021,None,0.9602761999994982,,,20Aloud,001,2022_Aug_05_1605,ProdSingRedoBetween,2021.2.3,59.93924558034797,
,,,,105,0,105,0,,,,,,,,,,,,,,,,,,,,,,971.9135179000004,None,,,,,,,,,,,,,,,,,stranger,63,106,aloud,old,red,968.452790299998,None,968.452790299998,None,4,1.5116536000132328,968.452790299998,None,1.5116536000132328,970.0017134000082,None,970.5123481000046,None,970.5123481000046,None,f,1.3718820999929449,970.5123481000046,None,1.3718820999929449,,,20Aloud,001,2022_Aug_05_1605,ProdSingRedoBetween,2021.2.3,59.93924558034797,
,,,,106,0,106,0,,,,,,,,,,,,,,,,,,,,,,975.9008155000047,None,,,,,,,,,,,,,,,,,split,70,107,aloud,old,red,972.4199283000053,None,972.4199283000053,None,6,1.3444242999976268,972.4199283000053,None,1.3444242999976268,973.7869121999975,None,974.3015323,None,974.3015323,None,f,1.5748051999980817,974.3015323,None,1.5748051999980817,,,20Aloud,001,2022_Aug_05_1605,ProdSingRedoBetween,2021.2.3,59.93924558034797,
,,,,107,0,107,0,,,,,,,,,,,,,,,,,,,,,,980.0060629000072,None,,,,,,,,,,,,,,,,,trash,125,108,aloud,new,null,976.4081728000019,None,976.4081728000019,None,1,1.5402178000076674,976.4081728000019,None,1.5402178000076674,977.9746460000024,None,978.4895021999982,None,978.4895021999982,None,n,1.4988988999975845,978.4895021999982,None,1.4988988999975845,,,20Aloud,001,2022_Aug_05_1605,ProdSingRedoBetween,2021.2.3,59.93924558034797,
,,,,108,0,108,0,,,,,,,,,,,,,,,,,,,,,,985.8440206000087,None,,,,,,,,,,,,,,,,,frank,10,109,aloud,old,yellow,980.5127480999945,None,980.5127480999945,None,6,1.4915828999946825,980.5127480999945,None,1.4915828999946825,982.0259708000085,None,982.5452195999969,None,982.5452195999969,None,f,3.2830964000022504,982.5452195999969,None,3.2830964000022504,,,20Aloud,001,2022_Aug_05_1605,ProdSingRedoBetween,2021.2.3,59.93924558034797,
,,,,109,0,109,0,,,,,,,,,,,,,,,,,,,,,,991.1327473999991,None,,,,,,,,,,,,,,,,,match,168,110,aloud,new,null,986.3526482000016,None,986.3526482000016,None,3,2.1476037000102224,986.3526482000016,None,2.1476037000102224,988.5300552999979,None,989.0308233999967,None,989.0308233999967,None,f,2.0774893000052543,989.0308233999967,None,2.0774893000052543,,,20Aloud,001,2022_Aug_05_1605,ProdSingRedoBetween,2021.2.3,59.93924558034797,
,,,,110,0,110,0,,,,,,,,,,,,,,,,,,,,,,994.7531258999952,None,,,,,,,,,,,,,,,,,article,16,111,aloud,old,yellow,991.6441616999946,None,991.6441616999946,None,6,1.3201141000026837,991.6441616999946,None,1.3201141000026837,992.9846666999947,None,993.4885119999963,None,993.4885119999963,None,f,1.24386260000756,993.4885119999963,None,1.24386260000756,,,20Aloud,001,2022_Aug_05_1605,ProdSingRedoBetween,2021.2.3,59.93924558034797,
,,,,111,0,111,0,,,,,,,,,,,,,,,,,,,,,,1000.1417452000023,None,,,,,,,,,,,,,,,,,route,93,112,aloud,new,null,995.261278799997,None,995.261278799997,None,4,3.1750287000031676,995.261278799997,None,3.1750287000031676,998.456669200008,None,998.9605626999983,None,998.9605626999983,None,f,1.1557487000100082,998.9605626999983,None,1.1557487000100082,,,20Aloud,001,2022_Aug_05_1605,ProdSingRedoBetween,2021.2.3,59.93924558034797,
,,,,112,0,112,0,,,,,,,,,,,,,,,,,,,,,,1004.0622041000024,None,,,,,,,,,,,,,,,,,career,90,113,aloud,new,null,1000.6494130000065,None,1000.6494130000065,None,1,1.4427912999963155,1000.6494130000065,None,1.4427912999963155,1002.1124780999962,None,1002.6313897000073,None,1002.6313897000073,None,n,1.41287509999529,1002.6313897000073,None,1.41287509999529,,,20Aloud,001,2022_Aug_05_1605,ProdSingRedoBetween,2021.2.3,59.93924558034797,
,,,,113,0,113,0,,,,,,,,,,,,,,,,,,,,,,1009.2340995999984,None,,,,,,,,,,,,,,,,,sunset,83,114,aloud,old,red,1004.5660893000022,None,1004.5660893000022,None,6,1.5502092999959132,1004.5660893000022,None,1.5502092999959132,1006.1323798000085,None,1006.6375048000045,None,1006.6375048000045,None,f,2.5667044000001624,1006.6375048000045,None,2.5667044000001624,,,20Aloud,001,2022_Aug_05_1605,ProdSingRedoBetween,2021.2.3,59.93924558034797,
,,,,114,0,114,0,,,,,,,,,,,,,,,,,,,,,,1012.737660800005,None,,,,,,,,,,,,,,,,,plane,68,115,aloud,old,red,1009.7371606000088,None,1009.7371606000088,None,6,1.5474156999989646,1009.7371606000088,None,1.5474156999989646,1011.3103265999962,None,1011.8226953999983,None,1011.8226953999983,None,f,0.8855807999934768,1011.8226953999983,None,0.8855807999934768,,,20Aloud,001,2022_Aug_05_1605,ProdSingRedoBetween,2021.2.3,59.93924558034797,
,,,,115,0,115,0,,,,,,,,,,,,,,,,,,,,,,1017.1421693000011,None,,,,,,,,,,,,,,,,,travel,92,116,aloud,new,null,1013.2484757000057,None,1013.2484757000057,None,4,2.18780319999496,1013.2484757000057,None,2.18780319999496,1015.4581425000069,None,1015.9575687000033,None,1015.9575687000033,None,f,1.1668385999946622,1015.9575687000033,None,1.1668385999946622,,,20Aloud,001,2022_Aug_05_1605,ProdSingRedoBetween,2021.2.3,59.93924558034797,
,,,,116,0,116,0,,,,,,,,,,,,,,,,,,,,,,1022.3474812000059,None,,,,,,,,,,,,,,,,,contract,37,117,aloud,old,blue,1017.6482790000009,None,1017.6482790000009,None,6,3.4199298999883467,1017.6482790000009,None,3.4199298999883467,1021.0958071000059,None,1021.5964377000055,None,1021.5964377000055,None,f,0.719787299996824,1021.5964377000055,None,0.719787299996824,,,20Aloud,001,2022_Aug_05_1605,ProdSingRedoBetween,2021.2.3,59.93924558034797,
,,,,117,0,117,0,,,,,,,,,,,,,,,,,,,,,,1027.9694897000008,None,,,,,,,,,,,,,,,,,health,22,118,aloud,old,yellow,1022.8520221000072,None,1022.8520221000072,None,6,3.5201993999944534,1022.8520221000072,None,3.5201993999944534,1026.4012499999953,None,1026.9019202000054,None,1026.9019202000054,None,f,1.046353599987924,1026.9019202000054,None,1.046353599987924,,,20Aloud,001,2022_Aug_05_1605,ProdSingRedoBetween,2021.2.3,59.93924558034797,
,,,,118,0,118,0,,,,,,,,,,,,,,,,,,,,,,1031.339524199997,None,,,,,,,,,,,,,,,,,government,99,119,aloud,new,null,1028.4788289999997,None,1028.4788289999997,None,6,1.4374474999931408,1028.4788289999997,None,1.4374474999931408,1029.9398010000004,None,1030.4596481000044,None,1030.4596481000044,None,f,0.8646061000035843,1030.4596481000044,None,0.8646061000035843,,,20Aloud,001,2022_Aug_05_1605,ProdSingRedoBetween,2021.2.3,59.93924558034797,
,,,,119,0,119,0,,,,,,,,,,,,,,,,,,,,,,1034.560952300002,None,,,,,,,,,,,,,,,,,treatment,11,120,aloud,old,yellow,1031.8413019,None,1031.8413019,None,6,1.1710540000058245,1031.8413019,None,1.1710540000058245,1033.0454160000081,None,1033.5585952999973,None,1033.5585952999973,None,f,0.982037699999637,1033.5585952999973,None,0.982037699999637,,,20Aloud,001,2022_Aug_05_1605,ProdSingRedoBetween,2021.2.3,59.93924558034797,
,,,,120,0,120,0,,,,,,,,,,,,,,,,,,,,,,1038.1128448999953,None,,,,,,,,,,,,,,,,,angle,109,121,aloud,new,null,1035.0796280000068,None,1035.0796280000068,None,1,1.4366653000033693,1035.0796280000068,None,1.4366653000033693,1036.5446609000064,None,1037.0566150999948,None,1037.0566150999948,None,n,1.0355401999986498,1037.0566150999948,None,1.0355401999986498,,,20Aloud,001,2022_Aug_05_1605,ProdSingRedoBetween,2021.2.3,59.93924558034797,
,,,,121,0,121,0,,,,,,,,,,,,,,,,,,,,,,1045.4213563000085,None,,,,,,,,,,,,,,,,,primary,165,122,aloud,new,null,1038.6238439000008,None,1038.6238439000008,None,2,4.932443500001682,1038.6238439000008,None,4.932443500001682,1043.5859291000088,None,1044.0889446000074,None,1044.0889446000074,None,n,1.307393499999307,1044.0889446000074,None,1.307393499999307,,,20Aloud,001,2022_Aug_05_1605,ProdSingRedoBetween,2021.2.3,59.93924558034797,
,,,,122,0,122,0,,,,,,,,,,,,,,,,,,,,,,1049.9079485999973,None,,,,,,,,,,,,,,,,,quick,169,123,aloud,new,null,1045.9240261999948,None,1045.9240261999948,None,1,1.832161600003019,1045.9240261999948,None,1.832161600003019,1047.773808900005,None,1048.2733109999972,None,1048.2733109999972,None,n,1.618886800002656,1048.2733109999972,None,1.618886800002656,,,20Aloud,001,2022_Aug_05_1605,ProdSingRedoBetween,2021.2.3,59.93924558034797,
,,,,123,0,123,0,,,,,,,,,,,,,,,,,,,,,,1053.2947115999996,None,,,,,,,,,,,,,,,,,volume,35,124,aloud,old,blue,1050.417742599995,None,1050.417742599995,None,6,1.2824049999908311,1050.417742599995,None,1.2824049999908311,1051.7277751000074,None,1052.239029000004,None,1052.239029000004,None,f,1.0372591000050306,1052.239029000004,None,1.0372591000050306,,,20Aloud,001,2022_Aug_05_1605,ProdSingRedoBetween,2021.2.3,59.93924558034797,
,,,,124,0,124,0,,,,,,,,,,,,,,,,,,,,,,1056.3978871,None,,,,,,,,,,,,,,,,,orchestra,111,125,aloud,new,null,1053.8039703999966,None,1053.8039703999966,None,1,1.5522902999946382,1053.8039703999966,None,1.5522902999946382,1055.3818267000024,None,1055.901744600007,None,1055.901744600007,None,n,0.4784841999935452,1055.901744600007,None,0.4784841999935452,,,20Aloud,001,2022_Aug_05_1605,ProdSingRedoBetween,2021.2.3,59.93924558034797,
,,,,125,0,125,0,,,,,,,,,,,,,,,,,,,,,,1061.5869525000016,None,,,,,,,,,,,,,,,,,people,176,126,aloud,new,null,1056.901142600007,None,1056.901142600007,None,3,2.591193000000203,1056.901142600007,None,2.591193000000203,1059.5233717000083,None,1060.0391421999957,None,1060.0391421999957,None,n,1.5171605000068666,1060.0391421999957,None,1.5171605000068666,,,20Aloud,001,2022_Aug_05_1605,ProdSingRedoBetween,2021.2.3,59.93924558034797,
,,,,126,0,126,0,,,,,,,,,,,,,,,,,,,,,,1066.441818899999,None,,,,,,,,,,,,,,,,,voice,117,127,aloud,new,null,1062.0901209000003,None,1062.0901209000003,None,2,2.490197499995702,1062.0901209000003,None,2.490197499995702,1064.6114552000072,None,1065.1233261000016,None,1065.1233261000016,None,n,1.2969287999876542,1065.1233261000016,None,1.2969287999876542,,,20Aloud,001,2022_Aug_05_1605,ProdSingRedoBetween,2021.2.3,59.93924558034797,
,,,,127,0,127,0,,,,,,,,,,,,,,,,,,,,,,1069.7277587999997,None,,,,,,,,,,,,,,,,,shock,84,128,aloud,old,red,1066.9521515000088,None,1066.9521515000088,None,1,1.4520653000072343,1066.9521515000088,None,1.4520653000072343,1068.4281258999981,None,1068.9311455999996,None,1068.9311455999996,None,n,0.7690262999967672,1068.9311455999996,None,0.7690262999967672,,,20Aloud,001,2022_Aug_05_1605,ProdSingRedoBetween,2021.2.3,59.93924558034797,
,,,,128,0,128,0,,,,,,,,,,,,,,,,,,,,,,1073.114764500002,None,,,,,,,,,,,,,,,,,patient,135,129,aloud,new,null,1070.2360050999996,None,1070.2360050999996,None,1,1.5522221999999601,1070.2360050999996,None,1.5522221999999601,1071.814419900009,None,1072.3226664999966,None,1072.3226664999966,None,n,0.7614485999947647,1072.3226664999966,None,0.7614485999947647,,,20Aloud,001,2022_Aug_05_1605,ProdSingRedoBetween,2021.2.3,59.93924558034797,
,,,,129,0,129,0,,,,,,,,,,,,,,,,,,,,,,1076.8015842000023,None,,,,,,,,,,,,,,,,,foundation,72,130,aloud,old,red,1073.624872100001,None,1073.624872100001,None,5,1.611402199996519,1073.624872100001,None,1.611402199996519,1075.2676377000025,None,1075.7722805000085,None,1075.7722805000085,None,f,1.007929300001706,1075.7722805000085,None,1.007929300001706,,,20Aloud,001,2022_Aug_05_1605,ProdSingRedoBetween,2021.2.3,59.93924558034797,
,,,,130,0,130,0,,,,,,,,,,,,,,,,,,,,,,1080.638719900002,None,,,,,,,,,,,,,,,,,region,161,131,aloud,new,null,1077.3101381000015,None,1077.3101381000015,None,6,1.6621258999948623,1077.3101381000015,None,1.6621258999948623,1078.9891822000063,None,1079.505663799995,None,1079.505663799995,None,f,1.1067188000015449,1079.505663799995,None,1.1067188000015449,,,20Aloud,001,2022_Aug_05_1605,ProdSingRedoBetween,2021.2.3,59.93924558034797,
,,,,131,0,131,0,,,,,,,,,,,,,,,,,,,,,,1084.409253100006,None,,,,,,,,,,,,,,,,,little,129,132,aloud,new,null,1081.1478913000028,None,1081.1478913000028,None,2,1.760502599994652,1081.1478913000028,None,1.760502599994652,1082.931154100006,None,1083.4416730999947,None,1083.4416730999947,None,n,0.9384568000095896,1083.4416730999947,None,0.9384568000095896,,,20Aloud,001,2022_Aug_05_1605,ProdSingRedoBetween,2021.2.3,59.93924558034797,
,,,,132,0,132,0,,,,,,,,,,,,,,,,,,,,,,1088.179600500007,None,,,,,,,,,,,,,,,,,shear,54,133,aloud,old,blue,1084.9147516000085,None,1084.9147516000085,None,1,1.5133614999940619,1084.9147516000085,None,1.5133614999940619,1086.4445466000034,None,1086.9450937000074,None,1086.9450937000074,None,n,1.2031686999980593,1086.9450937000074,None,1.2031686999980593,,,20Aloud,001,2022_Aug_05_1605,ProdSingRedoBetween,2021.2.3,59.93924558034797,
,,,,133,0,133,0,,,,,,,,,,,,,,,,,,,,,,1091.4161410000088,None,,,,,,,,,,,,,,,,,household,26,134,aloud,old,yellow,1088.6907052000024,None,1088.6907052000024,None,6,1.2896169000014197,1088.6907052000024,None,1.2896169000014197,1090.0027254000015,None,1090.5207297000015,None,1090.5207297000015,None,f,0.866594899998745,1090.5207297000015,None,0.866594899998745,,,20Aloud,001,2022_Aug_05_1605,ProdSingRedoBetween,2021.2.3,59.93924558034797,
,,,,134,0,134,0,,,,,,,,,,,,,,,,,,,,,,1095.2865764000016,None,,,,,,,,,,,,,,,,,notice,25,135,aloud,old,yellow,1091.9205308999954,None,1091.9205308999954,None,4,1.611729500000365,1091.9205308999954,None,1.611729500000365,1093.5515340999991,None,1094.055889299998,None,1094.055889299998,None,f,1.212369300003047,1094.055889299998,None,1.212369300003047,,,20Aloud,001,2022_Aug_05_1605,ProdSingRedoBetween,2021.2.3,59.93924558034797,
,,,,135,0,135,0,,,,,,,,,,,,,,,,,,,,,,1100.0914937000052,None,,,,,,,,,,,,,,,,,course,140,136,aloud,new,null,1095.7904531999957,None,1095.7904531999957,None,3,2.5497896000015317,1095.7904531999957,None,2.5497896000015317,1098.3577040999953,None,1098.8569922000024,None,1098.8569922000024,None,f,1.20334360000561,1098.8569922000024,None,1.20334360000561,,,20Aloud,001,2022_Aug_05_1605,ProdSingRedoBetween,2021.2.3,59.93924558034797,
,,,,136,0,136,0,,,,,,,,,,,,,,,,,,,,,,1103.9453628000047,None,,,,,,,,,,,,,,,,,fight,171,137,aloud,new,null,1100.6010591999948,None,1100.6010591999948,None,1,1.8591619999933755,1100.6010591999948,None,1.8591619999933755,1102.4784654999967,None,1102.9824188000057,None,1102.9824188000057,None,n,0.9417786999983946,1102.9824188000057,None,0.9417786999983946,,,20Aloud,001,2022_Aug_05_1605,ProdSingRedoBetween,2021.2.3,59.93924558034797,
,,,,137,0,137,0,,,,,,,,,,,,,,,,,,,,,,1107.8325722000009,None,,,,,,,,,,,,,,,,,recall,89,138,aloud,old,red,1104.451824200005,None,1104.451824200005,None,1,2.0645920999959344,1104.451824200005,None,2.0645920999959344,1106.5444539000018,None,1107.0486161000008,None,1107.0486161000008,None,n,0.7556031999993138,1107.0486161000008,None,0.7556031999993138,,,20Aloud,001,2022_Aug_05_1605,ProdSingRedoBetween,2021.2.3,59.93924558034797,
,,,,138,0,138,0,,,,,,,,,,,,,,,,,,,,,,1112.5705617000058,None,,,,,,,,,,,,,,,,,drove,166,139,aloud,new,null,1108.338190399998,None,1108.338190399998,None,2,2.7139830000087386,1108.338190399998,None,2.7139830000087386,1111.0702205999987,None,1111.569827600004,None,1111.569827600004,None,n,0.9783560999931069,1111.569827600004,None,0.9783560999931069,,,20Aloud,001,2022_Aug_05_1605,ProdSingRedoBetween,2021.2.3,59.93924558034797,
,,,,139,0,139,0,,,,,,,,,,,,,,,,,,,,,,1115.9260535000067,None,,,,,,,,,,,,,,,,,vision,47,140,aloud,old,blue,1113.0797648000007,None,1113.0797648000007,None,4,1.2283559999923455,1113.0797648000007,None,1.2283559999923455,1114.3401545000088,None,1114.843895099999,None,1114.843895099999,None,f,1.0642936999938684,1114.843895099999,None,1.0642936999938684,,,20Aloud,001,2022_Aug_05_1605,ProdSingRedoBetween,2021.2.3,59.93924558034797,
,,,,140,0,140,0,,,,,,,,,,,,,,,,,,,,,,1119.744761199996,None,,,,,,,,,,,,,,,,,equipment,151,141,aloud,new,null,1116.4532652000053,None,1116.4532652000053,None,6,1.6708503999980167,1116.4532652000053,None,1.6708503999980167,1118.144499300004,None,1118.660781700004,None,1118.660781700004,None,f,1.0634339999960503,1118.660781700004,None,1.0634339999960503,,,20Aloud,001,2022_Aug_05_1605,ProdSingRedoBetween,2021.2.3,59.93924558034797,
,,,,141,0,141,0,,,,,,,,,,,,,,,,,,,,,,1123.347953000004,None,,,,,,,,,,,,,,,,,finish,44,142,aloud,old,blue,1120.2479197000066,None,1120.2479197000066,None,6,1.396360899991123,1120.2479197000066,None,1.396360899991123,1121.664140000008,None,1122.163613800003,None,1122.163613800003,None,f,1.1685094000131357,1122.163613800003,None,1.1685094000131357,,,20Aloud,001,2022_Aug_05_1605,ProdSingRedoBetween,2021.2.3,59.93924558034797,
,,,,142,0,142,0,,,,,,,,,,,,,,,,,,,,,,1126.8013404999947,None,,,,,,,,,,,,,,,,,power,8,143,aloud,old,yellow,1123.8504702000064,None,1123.8504702000064,None,6,1.36974100000225,1123.8504702000064,None,1.36974100000225,1125.250885500005,None,1125.752225300006,None,1125.752225300006,None,f,1.028004299994791,1125.752225300006,None,1.028004299994791,,,20Aloud,001,2022_Aug_05_1605,ProdSingRedoBetween,2021.2.3,59.93924558034797,
,,,,143,0,143,0,,,,,,,,,,,,,,,,,,,,,,1130.4717669999955,None,,,,,,,,,,,,,,,,,crisis,1,144,aloud,old,yellow,1127.3045431000064,None,1127.3045431000064,None,6,1.2276719999936176,1127.3045431000064,None,1.2276719999936176,1128.5569893000065,None,1129.0730332999956,None,1129.0730332999956,None,f,1.3791828999965219,1129.0730332999956,None,1.3791828999965219,,,20Aloud,001,2022_Aug_05_1605,ProdSingRedoBetween,2021.2.3,59.93924558034797,
,,,,144,0,144,0,,,,,,,,,,,,,,,,,,,,,,1135.6769605000009,None,,,,,,,,,,,,,,,,,birth,152,145,aloud,new,null,1130.9841493999993,None,1130.9841493999993,None,1,2.419883499998832,1130.9841493999993,None,2.419883499998832,1133.429269900007,None,1133.9449694000068,None,1133.9449694000068,None,n,1.7151517999882344,1133.9449694000068,None,1.7151517999882344,,,20Aloud,001,2022_Aug_05_1605,ProdSingRedoBetween,2021.2.3,59.93924558034797,
,,,,145,0,145,0,,,,,,,,,,,,,,,,,,,,,,1140.3995352000056,None,,,,,,,,,,,,,,,,,leader,9,146,aloud,old,yellow,1136.1852133000066,None,1136.1852133000066,None,6,1.6349779999873135,1136.1852133000066,None,1.6349779999873135,1137.8474346000003,None,1138.3630546000059,None,1138.3630546000059,None,f,2.009123299998464,1138.3630546000059,None,2.009123299998464,,,20Aloud,001,2022_Aug_05_1605,ProdSingRedoBetween,2021.2.3,59.93924558034797,
,,,,146,0,146,0,,,,,,,,,,,,,,,,,,,,,,1145.5034028000082,None,,,,,,,,,,,,,,,,,group,144,147,aloud,new,null,1140.9101117999962,None,1140.9101117999962,None,5,3.1501533000118798,1140.9101117999962,None,3.1501533000118798,1144.0925698000065,None,1144.6063686999987,None,1144.6063686999987,None,f,0.8697236000007251,1144.6063686999987,None,0.8697236000007251,,,20Aloud,001,2022_Aug_05_1605,ProdSingRedoBetween,2021.2.3,59.93924558034797,
,,,,147,0,147,0,,,,,,,,,,,,,,,,,,,,,,1149.4805849999975,None,,,,,,,,,,,,,,,,,general,156,148,aloud,new,null,1146.0120200999954,None,1146.0120200999954,None,1,1.7280165999982273,1146.0120200999954,None,1.7280165999982273,1147.7597460999968,None,1148.272853100003,None,1148.272853100003,None,n,1.1793730000063078,1148.272853100003,None,1.1793730000063078,,,20Aloud,001,2022_Aug_05_1605,ProdSingRedoBetween,2021.2.3,59.93924558034797,
,,,,148,0,148,0,,,,,,,,,,,,,,,,,,,,,,1153.4959548000043,None,,,,,,,,,,,,,,,,,interview,95,149,aloud,new,null,1149.9913565000024,None,1149.9913565000024,None,1,1.9487803000083659,1149.9913565000024,None,1.9487803000083659,1151.9621775999985,None,1152.4780664999998,None,1152.4780664999998,None,n,0.9982484999927692,1152.4780664999998,None,0.9982484999927692,,,20Aloud,001,2022_Aug_05_1605,ProdSingRedoBetween,2021.2.3,59.93924558034797,
,,,,149,0,149,0,,,,,,,,,,,,,,,,,,,,,,1156.9647438999964,None,,,,,,,,,,,,,,,,,beauty,52,150,aloud,old,blue,1153.9953085000016,None,1153.9953085000016,None,4,1.4567835000052582,1153.9953085000016,None,1.4567835000052582,1155.4808411999984,None,1155.9806553999952,None,1155.9806553999952,None,f,0.9595296000043163,1155.9806553999952,None,0.9595296000043163,,,20Aloud,001,2022_Aug_05_1605,ProdSingRedoBetween,2021.2.3,59.93924558034797,
,,,,150,0,150,0,,,,,,,,,,,,,,,,,,,,,,1160.4183925999969,None,,,,,,,,,,,,,,,,,personnel,127,151,aloud,new,null,1157.4812248999951,None,1157.4812248999951,None,1,1.2989023999980418,1157.4812248999951,None,1.2989023999980418,1158.801276099999,None,1159.3052756999969,None,1159.3052756999969,None,n,1.0828621000109706,1159.3052756999969,None,1.0828621000109706,,,20Aloud,001,2022_Aug_05_1605,ProdSingRedoBetween,2021.2.3,59.93924558034797,
,,,,151,0,151,0,,,,,,,,,,,,,,,,,,,,,,1164.0218871999969,None,,,,,,,,,,,,,,,,,smell,46,152,aloud,old,blue,1160.9228833000088,None,1160.9228833000088,None,3,1.8972408999979962,1160.9228833000088,None,1.8972408999979962,1162.8384541999985,None,1163.340378199995,None,1163.340378199995,None,f,0.6637270000064746,1163.340378199995,None,0.6637270000064746,,,20Aloud,001,2022_Aug_05_1605,ProdSingRedoBetween,2021.2.3,59.93924558034797,
,,,,152,0,152,0,,,,,,,,,,,,,,,,,,,,,,1167.5921131000068,None,,,,,,,,,,,,,,,,,novel,75,153,aloud,old,red,1164.5333818000072,None,1164.5333818000072,None,5,1.3747338999964995,1164.5333818000072,None,1.3747338999964995,1165.930218399997,None,1166.4446632000036,None,1166.4446632000036,None,f,1.1194567999918945,1166.4446632000036,None,1.1194567999918945,,,20Aloud,001,2022_Aug_05_1605,ProdSingRedoBetween,2021.2.3,59.93924558034797,
,,,,153,0,153,0,,,,,,,,,,,,,,,,,,,,,,1171.112250200007,None,,,,,,,,,,,,,,,,,silence,64,154,aloud,old,red,1168.1003240999999,None,1168.1003240999999,None,6,1.6397957000008319,1168.1003240999999,None,1.6397957000008319,1169.7621859000064,None,1170.2659540000022,None,1170.2659540000022,None,f,0.826208400001633,1170.2659540000022,None,0.826208400001633,,,20Aloud,001,2022_Aug_05_1605,ProdSingRedoBetween,2021.2.3,59.93924558034797,
,,,,154,0,154,0,,,,,,,,,,,,,,,,,,,,,,1175.499981400004,None,,,,,,,,,,,,,,,,,still,138,155,aloud,new,null,1171.6159859000036,None,1171.6159859000036,None,2,2.1401796999998624,1171.6159859000036,None,2.1401796999998624,1173.7828098000027,None,1174.2889819999982,None,1174.2889819999982,None,n,1.1872026000055484,1174.2889819999982,None,1.1872026000055484,,,20Aloud,001,2022_Aug_05_1605,ProdSingRedoBetween,2021.2.3,59.93924558034797,
,,,,155,0,155,0,,,,,,,,,,,,,,,,,,,,,,1179.5874229000037,None,,,,,,,,,,,,,,,,,commercial,30,156,aloud,old,blue,1176.0034145999962,None,1176.0034145999962,None,6,2.016720300001907,1176.0034145999962,None,2.016720300001907,1178.036961100006,None,1178.5364270999999,None,1178.5364270999999,None,f,1.0197340000013355,1178.5364270999999,None,1.0197340000013355,,,20Aloud,001,2022_Aug_05_1605,ProdSingRedoBetween,2021.2.3,59.93924558034797,
,,,,156,0,156,0,,,,,,,,,,,,,,,,,,,,,,1183.4579546000023,None,,,,,,,,,,,,,,,,,short,5,157,aloud,old,yellow,1180.0972356999991,None,1180.0972356999991,None,2,1.8108890000003157,1180.0972356999991,None,1.8108890000003157,1181.9243241000077,None,1182.4315654999955,None,1182.4315654999955,None,n,1.0045602999889525,1182.4315654999955,None,1.0045602999889525,,,20Aloud,001,2022_Aug_05_1605,ProdSingRedoBetween,2021.2.3,59.93924558034797,
,,,,157,0,157,0,,,,,,,,,,,,,,,,,,,,,,1188.162653499996,None,,,,,,,,,,,,,,,,,degree,120,158,aloud,new,null,1183.9597154000076,None,1183.9597154000076,None,3,2.3403365000121994,1183.9597154000076,None,2.3403365000121994,1186.3275316000072,None,1186.8285984999966,None,1186.8285984999966,None,f,1.3115218000020832,1186.8285984999966,None,1.3115218000020832,,,20Aloud,001,2022_Aug_05_1605,ProdSingRedoBetween,2021.2.3,59.93924558034797,
,,,,158,0,158,0,,,,,,,,,,,,,,,,,,,,,,1193.835004499997,None,,,,,,,,,,,,,,,,,finance,80,159,aloud,old,red,1188.6732617000089,None,1188.6732617000089,None,5,3.5068245000002207,1188.6732617000089,None,3.5068245000002207,1192.2012314000021,None,1192.7038759999996,None,1192.7038759999996,None,f,1.1002175000030547,1192.7038759999996,None,1.1002175000030547,,,20Aloud,001,2022_Aug_05_1605,ProdSingRedoBetween,2021.2.3,59.93924558034797,
,,,,159,0,159,0,,,,,,,,,,,,,,,,,,,,,,1197.8405041000078,None,,,,,,,,,,,,,,,,,society,115,160,aloud,new,null,1194.3435118000052,None,1194.3435118000052,None,6,1.796682600004715,1194.3435118000052,None,1.796682600004715,1196.1776393000036,None,1196.6914685999946,None,1196.6914685999946,None,f,1.128883199999109,1196.6914685999946,None,1.128883199999109,,,20Aloud,001,2022_Aug_05_1605,ProdSingRedoBetween,2021.2.3,59.93924558034797,
,,,,160,0,160,0,,,,,,,,,,,,,,,,,,,,,,1201.4092068000027,None,,,,,,,,,,,,,,,,,right,20,161,aloud,old,yellow,1198.356121799996,None,1198.356121799996,None,6,1.567965300011565,1198.356121799996,None,1.567965300011565,1199.942012200001,None,1200.4445841999986,None,1200.4445841999986,None,f,0.9435778999904869,1200.4445841999986,None,0.9435778999904869,,,20Aloud,001,2022_Aug_05_1605,ProdSingRedoBetween,2021.2.3,59.93924558034797,
,,,,161,0,161,0,,,,,,,,,,,,,,,,,,,,,,1204.3955701999948,None,,,,,,,,,,,,,,,,,dance,132,162,aloud,new,null,1201.9243346000003,None,1201.9243346000003,None,1,1.2958112000051187,1201.9243346000003,None,1.2958112000051187,1203.2514682000037,None,1203.7617410999956,None,1203.7617410999956,None,n,0.602427700010594,1203.7617410999956,None,0.602427700010594,,,20Aloud,001,2022_Aug_05_1605,ProdSingRedoBetween,2021.2.3,59.93924558034797,
,,,,162,0,162,0,,,,,,,,,,,,,,,,,,,,,,1208.2994125999976,None,,,,,,,,,,,,,,,,,close,121,163,aloud,new,null,1204.8992117000016,None,1204.8992117000016,None,3,1.448949099998572,1204.8992117000016,None,1.448949099998572,1206.3772945999954,None,1206.881563300005,None,1206.881563300005,None,f,1.3944232999929227,1206.881563300005,None,1.3944232999929227,,,20Aloud,001,2022_Aug_05_1605,ProdSingRedoBetween,2021.2.3,59.93924558034797,
,,,,163,0,163,0,,,,,,,,,,,,,,,,,,,,,,1213.7214558999985,None,,,,,,,,,,,,,,,,,quantity,57,164,aloud,old,blue,1208.8046822000033,None,1208.8046822000033,None,6,3.1672732000006363,1208.8046822000033,None,3.1672732000006363,1212.0119733000029,None,1212.5222397000034,None,1212.5222397000034,None,f,1.1698920000053477,1212.5222397000034,None,1.1698920000053477,,,20Aloud,001,2022_Aug_05_1605,ProdSingRedoBetween,2021.2.3,59.93924558034797,
,,,,164,0,164,0,,,,,,,,,,,,,,,,,,,,,,1216.9914615000016,None,,,,,,,,,,,,,,,,,piece,73,165,aloud,old,red,1214.222081,None,1214.222081,None,6,1.230006300000241,1214.222081,None,1.230006300000241,1215.4753679999994,None,1215.9906373999984,None,1215.9906373999984,None,f,0.9733785999997053,1215.9906373999984,None,0.9733785999997053,,,20Aloud,001,2022_Aug_05_1605,ProdSingRedoBetween,2021.2.3,59.93924558034797,
,,,,165,0,165,0,,,,,,,,,,,,,,,,,,,,,,1220.0953616000043,None,,,,,,,,,,,,,,,,,religion,49,166,aloud,old,blue,1217.4983143999998,None,1217.4983143999998,None,6,1.1456206000002567,1217.4983143999998,None,1.1456206000002567,1218.6692746000044,None,1219.1771384000021,None,1219.1771384000021,None,f,0.8910227000014856,1219.1771384000021,None,0.8910227000014856,,,20Aloud,001,2022_Aug_05_1605,ProdSingRedoBetween,2021.2.3,59.93924558034797,
,,,,166,0,166,0,,,,,,,,,,,,,,,,,,,,,,1222.697862800007,None,,,,,,,,,,,,,,,,,bucket,149,167,aloud,new,null,1220.5995487000037,None,1220.5995487000037,None,1,1.2606719000032172,1220.5995487000037,None,1.2606719000032172,1221.8908674999984,None,1222.4029854999972,None,1222.4029854999972,None,n,0.26522049999039154,1222.4029854999972,None,0.26522049999039154,,,20Aloud,001,2022_Aug_05_1605,ProdSingRedoBetween,2021.2.3,59.93924558034797,
,,,,167,0,167,0,,,,,,,,,,,,,,,,,,,,,,1225.7668059999996,None,,,,,,,,,,,,,,,,,expansion,131,168,aloud,new,null,1223.2018577999988,None,1223.2018577999988,None,1,1.5222011000005296,1223.2018577999988,None,1.5222011000005296,1224.750692200003,None,1225.2535616999958,None,1225.2535616999958,None,n,0.4946571999898879,1225.2535616999958,None,0.4946571999898879,,,20Aloud,001,2022_Aug_05_1605,ProdSingRedoBetween,2021.2.3,59.93924558034797,
,,,,168,0,168,0,,,,,,,,,,,,,,,,,,,,,,1228.2047766000032,None,,,,,,,,,,,,,,,,,quarter,86,169,aloud,old,red,1226.2754496999987,None,1226.2754496999987,None,6,1.3046141999948304,1226.2754496999987,None,1.3046141999948304,1227.6033189000009,None,1228.1033908999962,None,1228.1033908999962,None,f,0.07684580000932328,1228.1033908999962,None,0.07684580000932328,,,20Aloud,001,2022_Aug_05_1605,ProdSingRedoBetween,2021.2.3,59.93924558034797,
,,,,169,0,169,0,,,,,,,,,,,,,,,,,,,,,,1231.3407200000074,None,,,,,,,,,,,,,,,,,damage,36,170,aloud,old,blue,1228.7201039000065,None,1228.7201039000065,None,6,1.5479534000041895,1228.7201039000065,None,1.5479534000041895,1230.2889738000085,None,1230.7938617000036,None,1230.7938617000036,None,f,0.5302760000049602,1230.7938617000036,None,0.5302760000049602,,,20Aloud,001,2022_Aug_05_1605,ProdSingRedoBetween,2021.2.3,59.93924558034797,
,,,,170,0,170,0,,,,,,,,,,,,,,,,,,,,,,1234.2419558999973,None,,,,,,,,,,,,,,,,,count,170,171,aloud,new,null,1231.8607342000032,None,1231.8607342000032,None,5,1.7194374999962747,1231.8607342000032,None,1.7194374999962747,1233.6136054999952,None,1234.1286490000057,None,1234.1286490000057,None,f,0.09146910000708885,1234.1286490000057,None,0.09146910000708885,,,20Aloud,001,2022_Aug_05_1605,ProdSingRedoBetween,2021.2.3,59.93924558034797,
,,,,171,0,171,0,,,,,,,,,,,,,,,,,,,,,,1236.7611078000045,None,,,,,,,,,,,,,,,,,property,114,172,aloud,new,null,1234.745552399996,None,1234.745552399996,None,5,1.3386579000070924,1234.745552399996,None,1.3386579000070924,1236.111766800008,None,1236.6162258999975,None,1236.6162258999975,None,f,0.1158480000012787,1236.6162258999975,None,0.1158480000012787,,,20Aloud,001,2022_Aug_05_1605,ProdSingRedoBetween,2021.2.3,59.93924558034797,
,,,,172,0,172,0,,,,,,,,,,,,,,,,,,,,,,1240.4314945000078,None,,,,,,,,,,,,,,,,,education,91,173,aloud,new,null,1237.2687957000016,None,1237.2687957000016,None,1,2.3832454000075813,1237.2687957000016,None,2.3832454000075813,1239.6832264999975,None,1240.1980621999974,None,1240.1980621999974,None,n,0.20600359998934437,1240.1980621999974,None,0.20600359998934437,,,20Aloud,001,2022_Aug_05_1605,ProdSingRedoBetween,2021.2.3,59.93924558034797,
,,,,173,0,173,0,,,,,,,,,,,,,,,,,,,,,,1243.5024358000082,None,,,,,,,,,,,,,,,,,public,164,174,aloud,new,null,1240.9508170000045,None,1240.9508170000045,None,1,1.6692318999994313,1240.9508170000045,None,1.6692318999994313,1242.6546901999973,None,1243.1756505999947,None,1243.1756505999947,None,n,0.3084435999917332,1243.1756505999947,None,0.3084435999917332,,,20Aloud,001,2022_Aug_05_1605,ProdSingRedoBetween,2021.2.3,59.93924558034797,
,,,,174,0,174,0,,,,,,,,,,,,,,,,,,,,,,1247.5552496000018,None,,,,,,,,,,,,,,,,,gesture,51,175,aloud,old,blue,1244.0104354000068,None,1244.0104354000068,None,3,2.4417183000041405,1244.0104354000068,None,2.4417183000041405,1246.4716944999964,None,1246.9740291000053,None,1246.9740291000053,None,f,0.5501578999974299,1246.9740291000053,None,0.5501578999974299,,,20Aloud,001,2022_Aug_05_1605,ProdSingRedoBetween,2021.2.3,59.93924558034797,
,,,,175,0,175,0,,,,,,,,,,,,,,,,,,,,,,1251.1433991000085,None,,,,,,,,,,,,,,,,,touch,4,176,aloud,old,yellow,1248.0631121000042,None,1248.0631121000042,None,4,2.309046099995612,1248.0631121000042,None,2.309046099995612,1250.3961068000062,None,1250.908792999995,None,1250.908792999995,None,f,0.20730680000269786,1250.908792999995,None,0.20730680000269786,,,20Aloud,001,2022_Aug_05_1605,ProdSingRedoBetween,2021.2.3,59.93924558034797,
,,,,176,0,176,0,,,,,,,,,,,,,,,,,,,,,,1253.7614573000028,None,,,,,,,,,,,,,,,,,center,69,177,aloud,old,red,1251.6533826999948,None,1251.6533826999948,None,5,1.5026894000038737,1251.6533826999948,None,1.5026894000038737,1253.1776113000087,None,1253.6804552999965,None,1253.6804552999965,None,f,0.05961639998713508,1253.6804552999965,None,0.05961639998713508,,,20Aloud,001,2022_Aug_05_1605,ProdSingRedoBetween,2021.2.3,59.93924558034797,
,,,,177,0,177,0,,,,,,,,,,,,,,,,,,,,,,1257.098137199995,None,,,,,,,,,,,,,,,,,community,43,178,aloud,old,blue,1254.2687404000026,None,1254.2687404000026,None,5,1.4553049999958603,1254.2687404000026,None,1.4553049999958603,1255.7481614999997,None,1256.2536776000052,None,1256.2536776000052,None,f,0.8223749999888241,1256.2536776000052,None,0.8223749999888241,,,20Aloud,001,2022_Aug_05_1605,ProdSingRedoBetween,2021.2.3,59.93924558034797,
