StudyLoop.thisRepN,StudyLoop.thisTrialN,StudyLoop.thisN,StudyLoop.thisIndex,TestLoop.thisRepN,TestLoop.thisTrialN,TestLoop.thisN,TestLoop.thisIndex,textCondition.started,textCondition.stopped,keyCondition.keys,keyCondition.rt,keyCondition.started,keyCondition.stopped,Condition,textWelcome.started,textWelcome.stopped,keyWelcome.keys,keyWelcome.rt,keyWelcome.started,keyWelcome.stopped,textAloud.started,textAloud.stopped,textSilent.started,textSilent.stopped,textSing.started,textSing.stopped,conditional_text.started,conditional_text.stopped,textBlank500.started,textBlank500.stopped,study_word,study_num,study_order,study_type,word_color,textStudy.started,textStudy.stopped,keyStudy.keys,keyStudy.started,keyStudy.stopped,textTestInstructions.started,textTestInstructions.stopped,key_resp_3.keys,key_resp_3.rt,key_resp_3.started,key_resp_3.stopped,test_word,test_num,test_order,test_condition,old_new_test,test_word_original_color,textConf.started,textConf.stopped,textConfScale.started,textConfScale.stopped,keyConf.keys,keyConf.rt,keyConf.started,keyConf.stopped,confidence response time,textTestBlank.started,textTestBlank.stopped,textRKN.started,textRKN.stopped,textRKNScale.started,textRKNScale.stopped,keyRKN.keys,keyRKN.rt,keyRKN.started,keyRKN.stopped,rkn response time,textEnd.started,textEnd.stopped,participant,session,date,expName,psychopyVersion,frameRate
,,,,,,,,65.8353285,None,a,96.9069571,65.8353285,None,,,,,,,,,,,,,,,,,,,,,,,,,,,,,,,,,,,,,,,,,,,,,,,,,,,,,,,,,,,,,,August8Silent2,22,2022_Aug_08_1513,ProdSingRedoBetween,2021.2.3,59.90064878
,,,,,,,,,,,,,,SilentTest,162.7837608,None,space,10.7341344,162.7837608,None,,,,,,,,,,,,,,,,,,,,,,,,,,,,,,,,,,,,,,,,,,,,,,,,,,,,,,,August8Silent2,22,2022_Aug_08_1513,ProdSingRedoBetween,2021.2.3,59.90064878
0,0,0,0,,,,,,,,,,,,,,,,,,162.7837608,None,162.7837608,None,162.7837608,None,162.7837608,None,176.0556066,None,medicine,23,1,silent,yellow,174.0418225,None,None,174.0418225,None,,,,,,,,,,,,,,,,,,,,,,,,,,,,,,,,,,,August8Silent2,22,2022_Aug_08_1513,ProdSingRedoBetween,2021.2.3,59.90064878
1,0,1,0,,,,,,,,,,,,,,,,,,,,,,,,,,178.5579736,None,angle,4,2,silent,yellow,176.5584095,None,None,176.5584095,None,,,,,,,,,,,,,,,,,,,,,,,,,,,,,,,,,,,August8Silent2,22,2022_Aug_08_1513,ProdSingRedoBetween,2021.2.3,59.90064878
2,0,2,0,,,,,,,,,,,,,,,,,,,,,,,,,,181.0604839,None,story,24,3,silent,yellow,179.0585476,None,None,179.0585476,None,,,,,,,,,,,,,,,,,,,,,,,,,,,,,,,,,,,August8Silent2,22,2022_Aug_08_1513,ProdSingRedoBetween,2021.2.3,59.90064878
3,0,3,0,,,,,,,,,,,,,,,,,,,,,,,,,,183.5646498,None,concern,28,4,silent,yellow,181.5609957,None,None,181.5609957,None,,,,,,,,,,,,,,,,,,,,,,,,,,,,,,,,,,,August8Silent2,22,2022_Aug_08_1513,ProdSingRedoBetween,2021.2.3,59.90064878
4,0,4,0,,,,,,,,,,,,,,,,,,,,,,,,,,186.0822283,None,account,32,5,silent,blue,184.080333,None,None,184.080333,None,,,,,,,,,,,,,,,,,,,,,,,,,,,,,,,,,,,August8Silent2,22,2022_Aug_08_1513,ProdSingRedoBetween,2021.2.3,59.90064878
5,0,5,0,,,,,,,,,,,,,,,,,,,,,,,,,,188.6010005,None,emergency,35,6,silent,blue,186.5957195,None,None,186.5957195,None,,,,,,,,,,,,,,,,,,,,,,,,,,,,,,,,,,,August8Silent2,22,2022_Aug_08_1513,ProdSingRedoBetween,2021.2.3,59.90064878
6,0,6,0,,,,,,,,,,,,,,,,,,,,,,,,,,191.1039742,None,fellow,20,7,silent,yellow,189.1021068,None,None,189.1021068,None,,,,,,,,,,,,,,,,,,,,,,,,,,,,,,,,,,,August8Silent2,22,2022_Aug_08_1513,ProdSingRedoBetween,2021.2.3,59.90064878
7,0,7,0,,,,,,,,,,,,,,,,,,,,,,,,,,193.6230569,None,interview,68,8,silent,red,191.6076662,None,None,191.6076662,None,,,,,,,,,,,,,,,,,,,,,,,,,,,,,,,,,,,August8Silent2,22,2022_Aug_08_1513,ProdSingRedoBetween,2021.2.3,59.90064878
8,0,8,0,,,,,,,,,,,,,,,,,,,,,,,,,,196.1422762,None,oxygen,12,9,silent,yellow,194.128194,None,None,194.128194,None,,,,,,,,,,,,,,,,,,,,,,,,,,,,,,,,,,,August8Silent2,22,2022_Aug_08_1513,ProdSingRedoBetween,2021.2.3,59.90064878
9,0,9,0,,,,,,,,,,,,,,,,,,,,,,,,,,198.6447194,None,author,21,10,silent,yellow,196.6427308,None,None,196.6427308,None,,,,,,,,,,,,,,,,,,,,,,,,,,,,,,,,,,,August8Silent2,22,2022_Aug_08_1513,ProdSingRedoBetween,2021.2.3,59.90064878
10,0,10,0,,,,,,,,,,,,,,,,,,,,,,,,,,201.1473513,None,ground,19,11,silent,yellow,199.1465873,None,None,199.1465873,None,,,,,,,,,,,,,,,,,,,,,,,,,,,,,,,,,,,August8Silent2,22,2022_Aug_08_1513,ProdSingRedoBetween,2021.2.3,59.90064878
11,0,11,0,,,,,,,,,,,,,,,,,,,,,,,,,,203.6497801,None,scene,75,12,silent,red,201.6504574,None,None,201.6504574,None,,,,,,,,,,,,,,,,,,,,,,,,,,,,,,,,,,,August8Silent2,22,2022_Aug_08_1513,ProdSingRedoBetween,2021.2.3,59.90064878
12,0,12,0,,,,,,,,,,,,,,,,,,,,,,,,,,206.1521525,None,graduate,16,13,silent,yellow,204.1511305,None,None,204.1511305,None,,,,,,,,,,,,,,,,,,,,,,,,,,,,,,,,,,,August8Silent2,22,2022_Aug_08_1513,ProdSingRedoBetween,2021.2.3,59.90064878
13,0,13,0,,,,,,,,,,,,,,,,,,,,,,,,,,208.671421,None,salary,52,14,silent,blue,206.6581053,None,None,206.6581053,None,,,,,,,,,,,,,,,,,,,,,,,,,,,,,,,,,,,August8Silent2,22,2022_Aug_08_1513,ProdSingRedoBetween,2021.2.3,59.90064878
14,0,14,0,,,,,,,,,,,,,,,,,,,,,,,,,,211.1739379,None,colonel,25,15,silent,yellow,209.1717648,None,None,209.1717648,None,,,,,,,,,,,,,,,,,,,,,,,,,,,,,,,,,,,August8Silent2,22,2022_Aug_08_1513,ProdSingRedoBetween,2021.2.3,59.90064878
15,0,15,0,,,,,,,,,,,,,,,,,,,,,,,,,,213.6765483,None,period,31,16,silent,blue,211.6749263,None,None,211.6749263,None,,,,,,,,,,,,,,,,,,,,,,,,,,,,,,,,,,,August8Silent2,22,2022_Aug_08_1513,ProdSingRedoBetween,2021.2.3,59.90064878
16,0,16,0,,,,,,,,,,,,,,,,,,,,,,,,,,216.195441,None,sunset,47,17,silent,blue,214.1805414,None,None,214.1805414,None,,,,,,,,,,,,,,,,,,,,,,,,,,,,,,,,,,,August8Silent2,22,2022_Aug_08_1513,ProdSingRedoBetween,2021.2.3,59.90064878
17,0,17,0,,,,,,,,,,,,,,,,,,,,,,,,,,218.6980219,None,straight,0,18,silent,yellow,216.6961519,None,None,216.6961519,None,,,,,,,,,,,,,,,,,,,,,,,,,,,,,,,,,,,August8Silent2,22,2022_Aug_08_1513,ProdSingRedoBetween,2021.2.3,59.90064878
18,0,18,0,,,,,,,,,,,,,,,,,,,,,,,,,,221.2005579,None,figure,83,19,silent,red,219.1986107,None,None,219.1986107,None,,,,,,,,,,,,,,,,,,,,,,,,,,,,,,,,,,,August8Silent2,22,2022_Aug_08_1513,ProdSingRedoBetween,2021.2.3,59.90064878
19,0,19,0,,,,,,,,,,,,,,,,,,,,,,,,,,223.7030923,None,production,53,20,silent,blue,221.7011777,None,None,221.7011777,None,,,,,,,,,,,,,,,,,,,,,,,,,,,,,,,,,,,August8Silent2,22,2022_Aug_08_1513,ProdSingRedoBetween,2021.2.3,59.90064878
20,0,20,0,,,,,,,,,,,,,,,,,,,,,,,,,,226.2056864,None,suspect,87,21,silent,red,224.2036282,None,None,224.2036282,None,,,,,,,,,,,,,,,,,,,,,,,,,,,,,,,,,,,August8Silent2,22,2022_Aug_08_1513,ProdSingRedoBetween,2021.2.3,59.90064878
21,0,21,0,,,,,,,,,,,,,,,,,,,,,,,,,,228.7081698,None,threat,33,22,silent,blue,226.7080073,None,None,226.7080073,None,,,,,,,,,,,,,,,,,,,,,,,,,,,,,,,,,,,August8Silent2,22,2022_Aug_08_1513,ProdSingRedoBetween,2021.2.3,59.90064878
22,0,22,0,,,,,,,,,,,,,,,,,,,,,,,,,,231.2106699,None,month,46,23,silent,blue,229.2116159,None,None,229.2116159,None,,,,,,,,,,,,,,,,,,,,,,,,,,,,,,,,,,,August8Silent2,22,2022_Aug_08_1513,ProdSingRedoBetween,2021.2.3,59.90064878
23,0,23,0,,,,,,,,,,,,,,,,,,,,,,,,,,233.7129712,None,error,54,24,silent,blue,231.7110626,None,None,231.7110626,None,,,,,,,,,,,,,,,,,,,,,,,,,,,,,,,,,,,August8Silent2,22,2022_Aug_08_1513,ProdSingRedoBetween,2021.2.3,59.90064878
24,0,24,0,,,,,,,,,,,,,,,,,,,,,,,,,,236.2156487,None,little,3,25,silent,yellow,234.2146523,None,None,234.2146523,None,,,,,,,,,,,,,,,,,,,,,,,,,,,,,,,,,,,August8Silent2,22,2022_Aug_08_1513,ProdSingRedoBetween,2021.2.3,59.90064878
25,0,25,0,,,,,,,,,,,,,,,,,,,,,,,,,,238.718164,None,company,58,26,silent,blue,236.7178943,None,None,236.7178943,None,,,,,,,,,,,,,,,,,,,,,,,,,,,,,,,,,,,August8Silent2,22,2022_Aug_08_1513,ProdSingRedoBetween,2021.2.3,59.90064878
26,0,26,0,,,,,,,,,,,,,,,,,,,,,,,,,,241.2207106,None,phrase,73,27,silent,red,239.220634,None,None,239.220634,None,,,,,,,,,,,,,,,,,,,,,,,,,,,,,,,,,,,August8Silent2,22,2022_Aug_08_1513,ProdSingRedoBetween,2021.2.3,59.90064878
27,0,27,0,,,,,,,,,,,,,,,,,,,,,,,,,,243.7231374,None,shear,39,28,silent,blue,241.7212183,None,None,241.7212183,None,,,,,,,,,,,,,,,,,,,,,,,,,,,,,,,,,,,August8Silent2,22,2022_Aug_08_1513,ProdSingRedoBetween,2021.2.3,59.90064878
28,0,28,0,,,,,,,,,,,,,,,,,,,,,,,,,,246.2257333,None,sight,37,29,silent,blue,244.2236603,None,None,244.2236603,None,,,,,,,,,,,,,,,,,,,,,,,,,,,,,,,,,,,August8Silent2,22,2022_Aug_08_1513,ProdSingRedoBetween,2021.2.3,59.90064878
29,0,29,0,,,,,,,,,,,,,,,,,,,,,,,,,,248.7278948,None,member,62,30,silent,red,246.7282421,None,None,246.7282421,None,,,,,,,,,,,,,,,,,,,,,,,,,,,,,,,,,,,August8Silent2,22,2022_Aug_08_1513,ProdSingRedoBetween,2021.2.3,59.90064878
30,0,30,0,,,,,,,,,,,,,,,,,,,,,,,,,,251.2307162,None,minute,50,31,silent,blue,249.2285946,None,None,249.2285946,None,,,,,,,,,,,,,,,,,,,,,,,,,,,,,,,,,,,August8Silent2,22,2022_Aug_08_1513,ProdSingRedoBetween,2021.2.3,59.90064878
31,0,31,0,,,,,,,,,,,,,,,,,,,,,,,,,,253.7332607,None,public,7,32,silent,yellow,251.7339593,None,None,251.7339593,None,,,,,,,,,,,,,,,,,,,,,,,,,,,,,,,,,,,August8Silent2,22,2022_Aug_08_1513,ProdSingRedoBetween,2021.2.3,59.90064878
32,0,32,0,,,,,,,,,,,,,,,,,,,,,,,,,,256.2356829,None,general,80,33,silent,red,254.2355289,None,None,254.2355289,None,,,,,,,,,,,,,,,,,,,,,,,,,,,,,,,,,,,August8Silent2,22,2022_Aug_08_1513,ProdSingRedoBetween,2021.2.3,59.90064878
33,0,33,0,,,,,,,,,,,,,,,,,,,,,,,,,,258.7382124,None,treatment,71,34,silent,red,256.7377041,None,None,256.7377041,None,,,,,,,,,,,,,,,,,,,,,,,,,,,,,,,,,,,August8Silent2,22,2022_Aug_08_1513,ProdSingRedoBetween,2021.2.3,59.90064878
34,0,34,0,,,,,,,,,,,,,,,,,,,,,,,,,,261.2407242,None,drama,72,35,silent,red,259.2391111,None,None,259.2391111,None,,,,,,,,,,,,,,,,,,,,,,,,,,,,,,,,,,,August8Silent2,22,2022_Aug_08_1513,ProdSingRedoBetween,2021.2.3,59.90064878
35,0,35,0,,,,,,,,,,,,,,,,,,,,,,,,,,263.759844,None,instrument,67,36,silent,red,261.7442967,None,None,261.7442967,None,,,,,,,,,,,,,,,,,,,,,,,,,,,,,,,,,,,August8Silent2,22,2022_Aug_08_1513,ProdSingRedoBetween,2021.2.3,59.90064878
36,0,36,0,,,,,,,,,,,,,,,,,,,,,,,,,,266.2625104,None,rural,43,37,silent,blue,264.2606538,None,None,264.2606538,None,,,,,,,,,,,,,,,,,,,,,,,,,,,,,,,,,,,August8Silent2,22,2022_Aug_08_1513,ProdSingRedoBetween,2021.2.3,59.90064878
37,0,37,0,,,,,,,,,,,,,,,,,,,,,,,,,,268.7815671,None,turkey,59,38,silent,yellow,266.7751221,None,None,266.7751221,None,,,,,,,,,,,,,,,,,,,,,,,,,,,,,,,,,,,August8Silent2,22,2022_Aug_08_1513,ProdSingRedoBetween,2021.2.3,59.90064878
38,0,38,0,,,,,,,,,,,,,,,,,,,,,,,,,,271.3008206,None,business,41,39,silent,blue,269.2935823,None,None,269.2935823,None,,,,,,,,,,,,,,,,,,,,,,,,,,,,,,,,,,,August8Silent2,22,2022_Aug_08_1513,ProdSingRedoBetween,2021.2.3,59.90064878
39,0,39,0,,,,,,,,,,,,,,,,,,,,,,,,,,273.8034,None,crisis,66,40,silent,red,271.8040175,None,None,271.8040175,None,,,,,,,,,,,,,,,,,,,,,,,,,,,,,,,,,,,August8Silent2,22,2022_Aug_08_1513,ProdSingRedoBetween,2021.2.3,59.90064878
40,0,40,0,,,,,,,,,,,,,,,,,,,,,,,,,,276.3225499,None,front,36,41,silent,blue,274.309555,None,None,274.309555,None,,,,,,,,,,,,,,,,,,,,,,,,,,,,,,,,,,,August8Silent2,22,2022_Aug_08_1513,ProdSingRedoBetween,2021.2.3,59.90064878
41,0,41,0,,,,,,,,,,,,,,,,,,,,,,,,,,278.8251339,None,congress,49,42,silent,blue,276.8249499,None,None,276.8249499,None,,,,,,,,,,,,,,,,,,,,,,,,,,,,,,,,,,,August8Silent2,22,2022_Aug_08_1513,ProdSingRedoBetween,2021.2.3,59.90064878
42,0,42,0,,,,,,,,,,,,,,,,,,,,,,,,,,281.3442569,None,estate,55,43,silent,blue,279.3300448,None,None,279.3300448,None,,,,,,,,,,,,,,,,,,,,,,,,,,,,,,,,,,,August8Silent2,22,2022_Aug_08_1513,ProdSingRedoBetween,2021.2.3,59.90064878
43,0,43,0,,,,,,,,,,,,,,,,,,,,,,,,,,283.8466134,None,trial,65,44,silent,red,281.8460815,None,None,281.8460815,None,,,,,,,,,,,,,,,,,,,,,,,,,,,,,,,,,,,August8Silent2,22,2022_Aug_08_1513,ProdSingRedoBetween,2021.2.3,59.90064878
44,0,44,0,,,,,,,,,,,,,,,,,,,,,,,,,,286.3491468,None,interior,17,45,silent,yellow,284.3470203,None,None,284.3470203,None,,,,,,,,,,,,,,,,,,,,,,,,,,,,,,,,,,,August8Silent2,22,2022_Aug_08_1513,ProdSingRedoBetween,2021.2.3,59.90064878
45,0,45,0,,,,,,,,,,,,,,,,,,,,,,,,,,288.851684,None,symbol,38,46,silent,blue,286.8496717,None,None,286.8496717,None,,,,,,,,,,,,,,,,,,,,,,,,,,,,,,,,,,,August8Silent2,22,2022_Aug_08_1513,ProdSingRedoBetween,2021.2.3,59.90064878
46,0,46,0,,,,,,,,,,,,,,,,,,,,,,,,,,291.3541827,None,plane,10,47,silent,yellow,289.3519819,None,None,289.3519819,None,,,,,,,,,,,,,,,,,,,,,,,,,,,,,,,,,,,August8Silent2,22,2022_Aug_08_1513,ProdSingRedoBetween,2021.2.3,59.90064878
47,0,47,0,,,,,,,,,,,,,,,,,,,,,,,,,,293.8566255,None,question,60,48,silent,red,291.8570069,None,None,291.8570069,None,,,,,,,,,,,,,,,,,,,,,,,,,,,,,,,,,,,August8Silent2,22,2022_Aug_08_1513,ProdSingRedoBetween,2021.2.3,59.90064878
48,0,48,0,,,,,,,,,,,,,,,,,,,,,,,,,,296.3591547,None,patient,57,49,silent,blue,294.3572518,None,None,294.3572518,None,,,,,,,,,,,,,,,,,,,,,,,,,,,,,,,,,,,August8Silent2,22,2022_Aug_08_1513,ProdSingRedoBetween,2021.2.3,59.90064878
49,0,49,0,,,,,,,,,,,,,,,,,,,,,,,,,,298.8616438,None,degree,11,50,silent,yellow,296.8598536,None,None,296.8598536,None,,,,,,,,,,,,,,,,,,,,,,,,,,,,,,,,,,,August8Silent2,22,2022_Aug_08_1513,ProdSingRedoBetween,2021.2.3,59.90064878
50,0,50,0,,,,,,,,,,,,,,,,,,,,,,,,,,301.3808898,None,owner,81,51,silent,red,299.3683835,None,None,299.3683835,None,,,,,,,,,,,,,,,,,,,,,,,,,,,,,,,,,,,August8Silent2,22,2022_Aug_08_1513,ProdSingRedoBetween,2021.2.3,59.90064878
51,0,51,0,,,,,,,,,,,,,,,,,,,,,,,,,,303.883309,None,beginning,78,52,silent,red,301.8813523,None,None,301.8813523,None,,,,,,,,,,,,,,,,,,,,,,,,,,,,,,,,,,,August8Silent2,22,2022_Aug_08_1513,ProdSingRedoBetween,2021.2.3,59.90064878
52,0,52,0,,,,,,,,,,,,,,,,,,,,,,,,,,306.3858558,None,quick,22,53,silent,yellow,304.384032,None,None,304.384032,None,,,,,,,,,,,,,,,,,,,,,,,,,,,,,,,,,,,August8Silent2,22,2022_Aug_08_1513,ProdSingRedoBetween,2021.2.3,59.90064878
53,0,53,0,,,,,,,,,,,,,,,,,,,,,,,,,,308.8883694,None,quarter,30,54,silent,blue,306.8861416,None,None,306.8861416,None,,,,,,,,,,,,,,,,,,,,,,,,,,,,,,,,,,,August8Silent2,22,2022_Aug_08_1513,ProdSingRedoBetween,2021.2.3,59.90064878
54,0,54,0,,,,,,,,,,,,,,,,,,,,,,,,,,311.4075719,None,problem,86,55,silent,red,309.3991375,None,None,309.3991375,None,,,,,,,,,,,,,,,,,,,,,,,,,,,,,,,,,,,August8Silent2,22,2022_Aug_08_1513,ProdSingRedoBetween,2021.2.3,59.90064878
55,0,55,0,,,,,,,,,,,,,,,,,,,,,,,,,,313.9266745,None,clear,64,56,silent,red,311.912693,None,None,311.912693,None,,,,,,,,,,,,,,,,,,,,,,,,,,,,,,,,,,,August8Silent2,22,2022_Aug_08_1513,ProdSingRedoBetween,2021.2.3,59.90064878
56,0,56,0,,,,,,,,,,,,,,,,,,,,,,,,,,316.4292542,None,private,1,57,silent,yellow,314.4270406,None,None,314.4270406,None,,,,,,,,,,,,,,,,,,,,,,,,,,,,,,,,,,,August8Silent2,22,2022_Aug_08_1513,ProdSingRedoBetween,2021.2.3,59.90064878
57,0,57,0,,,,,,,,,,,,,,,,,,,,,,,,,,318.9482086,None,report,82,58,silent,red,316.9336242,None,None,316.9336242,None,,,,,,,,,,,,,,,,,,,,,,,,,,,,,,,,,,,August8Silent2,22,2022_Aug_08_1513,ProdSingRedoBetween,2021.2.3,59.90064878
58,0,58,0,,,,,,,,,,,,,,,,,,,,,,,,,,321.4508747,None,profession,45,59,silent,blue,319.4511993,None,None,319.4511993,None,,,,,,,,,,,,,,,,,,,,,,,,,,,,,,,,,,,August8Silent2,22,2022_Aug_08_1513,ProdSingRedoBetween,2021.2.3,59.90064878
59,0,59,0,,,,,,,,,,,,,,,,,,,,,,,,,,323.970178,None,native,61,60,silent,red,321.9685337,None,None,321.9685337,None,,,,,,,,,,,,,,,,,,,,,,,,,,,,,,,,,,,August8Silent2,22,2022_Aug_08_1513,ProdSingRedoBetween,2021.2.3,59.90064878
60,0,60,0,,,,,,,,,,,,,,,,,,,,,,,,,,326.4726276,None,breath,6,61,silent,yellow,324.4706877,None,None,324.4706877,None,,,,,,,,,,,,,,,,,,,,,,,,,,,,,,,,,,,August8Silent2,22,2022_Aug_08_1513,ProdSingRedoBetween,2021.2.3,59.90064878
61,0,61,0,,,,,,,,,,,,,,,,,,,,,,,,,,328.9917571,None,service,84,62,silent,red,326.9804592,None,None,326.9804592,None,,,,,,,,,,,,,,,,,,,,,,,,,,,,,,,,,,,August8Silent2,22,2022_Aug_08_1513,ProdSingRedoBetween,2021.2.3,59.90064878
62,0,62,0,,,,,,,,,,,,,,,,,,,,,,,,,,331.4943968,None,waste,13,63,silent,yellow,329.4923572,None,None,329.4923572,None,,,,,,,,,,,,,,,,,,,,,,,,,,,,,,,,,,,August8Silent2,22,2022_Aug_08_1513,ProdSingRedoBetween,2021.2.3,59.90064878
63,0,63,0,,,,,,,,,,,,,,,,,,,,,,,,,,333.9968839,None,court,42,64,silent,blue,331.9969465,None,None,331.9969465,None,,,,,,,,,,,,,,,,,,,,,,,,,,,,,,,,,,,August8Silent2,22,2022_Aug_08_1513,ProdSingRedoBetween,2021.2.3,59.90064878
64,0,64,0,,,,,,,,,,,,,,,,,,,,,,,,,,336.4990818,None,position,69,65,silent,red,334.4972333,None,None,334.4972333,None,,,,,,,,,,,,,,,,,,,,,,,,,,,,,,,,,,,August8Silent2,22,2022_Aug_08_1513,ProdSingRedoBetween,2021.2.3,59.90064878
65,0,65,0,,,,,,,,,,,,,,,,,,,,,,,,,,339.0016117,None,direction,14,66,silent,yellow,337.001675,None,None,337.001675,None,,,,,,,,,,,,,,,,,,,,,,,,,,,,,,,,,,,August8Silent2,22,2022_Aug_08_1513,ProdSingRedoBetween,2021.2.3,59.90064878
66,0,66,0,,,,,,,,,,,,,,,,,,,,,,,,,,341.5210258,None,cover,76,67,silent,red,339.5104376,None,None,339.5104376,None,,,,,,,,,,,,,,,,,,,,,,,,,,,,,,,,,,,August8Silent2,22,2022_Aug_08_1513,ProdSingRedoBetween,2021.2.3,59.90064878
67,0,67,0,,,,,,,,,,,,,,,,,,,,,,,,,,344.0234707,None,subject,26,68,silent,yellow,342.0227382,None,None,342.0227382,None,,,,,,,,,,,,,,,,,,,,,,,,,,,,,,,,,,,August8Silent2,22,2022_Aug_08_1513,ProdSingRedoBetween,2021.2.3,59.90064878
68,0,68,0,,,,,,,,,,,,,,,,,,,,,,,,,,346.525941,None,poetry,8,69,silent,yellow,344.5245821,None,None,344.5245821,None,,,,,,,,,,,,,,,,,,,,,,,,,,,,,,,,,,,August8Silent2,22,2022_Aug_08_1513,ProdSingRedoBetween,2021.2.3,59.90064878
69,0,69,0,,,,,,,,,,,,,,,,,,,,,,,,,,349.0282468,None,color,18,70,silent,yellow,347.0265199,None,None,347.0265199,None,,,,,,,,,,,,,,,,,,,,,,,,,,,,,,,,,,,August8Silent2,22,2022_Aug_08_1513,ProdSingRedoBetween,2021.2.3,59.90064878
70,0,70,0,,,,,,,,,,,,,,,,,,,,,,,,,,351.5307196,None,notice,70,71,silent,red,349.5289639,None,None,349.5289639,None,,,,,,,,,,,,,,,,,,,,,,,,,,,,,,,,,,,August8Silent2,22,2022_Aug_08_1513,ProdSingRedoBetween,2021.2.3,59.90064878
71,0,71,0,,,,,,,,,,,,,,,,,,,,,,,,,,354.0503756,None,skill,34,72,silent,blue,352.0399509,None,None,352.0399509,None,,,,,,,,,,,,,,,,,,,,,,,,,,,,,,,,,,,August8Silent2,22,2022_Aug_08_1513,ProdSingRedoBetween,2021.2.3,59.90064878
72,0,72,0,,,,,,,,,,,,,,,,,,,,,,,,,,356.5527374,None,thing,48,73,silent,blue,354.5507398,None,None,354.5507398,None,,,,,,,,,,,,,,,,,,,,,,,,,,,,,,,,,,,August8Silent2,22,2022_Aug_08_1513,ProdSingRedoBetween,2021.2.3,59.90064878
73,0,73,0,,,,,,,,,,,,,,,,,,,,,,,,,,359.0549283,None,contract,74,74,silent,red,357.0561425,None,None,357.0561425,None,,,,,,,,,,,,,,,,,,,,,,,,,,,,,,,,,,,August8Silent2,22,2022_Aug_08_1513,ProdSingRedoBetween,2021.2.3,59.90064878
74,0,74,0,,,,,,,,,,,,,,,,,,,,,,,,,,361.5577513,None,series,51,75,silent,blue,359.5565091,None,None,359.5565091,None,,,,,,,,,,,,,,,,,,,,,,,,,,,,,,,,,,,August8Silent2,22,2022_Aug_08_1513,ProdSingRedoBetween,2021.2.3,59.90064878
75,0,75,0,,,,,,,,,,,,,,,,,,,,,,,,,,364.0768408,None,judge,9,76,silent,yellow,362.0620284,None,None,362.0620284,None,,,,,,,,,,,,,,,,,,,,,,,,,,,,,,,,,,,August8Silent2,22,2022_Aug_08_1513,ProdSingRedoBetween,2021.2.3,59.90064878
76,0,76,0,,,,,,,,,,,,,,,,,,,,,,,,,,366.595895,None,display,44,77,silent,blue,364.5869499,None,None,364.5869499,None,,,,,,,,,,,,,,,,,,,,,,,,,,,,,,,,,,,August8Silent2,22,2022_Aug_08_1513,ProdSingRedoBetween,2021.2.3,59.90064878
77,0,77,0,,,,,,,,,,,,,,,,,,,,,,,,,,369.098451,None,message,2,78,silent,yellow,367.0979698,None,None,367.0979698,None,,,,,,,,,,,,,,,,,,,,,,,,,,,,,,,,,,,August8Silent2,22,2022_Aug_08_1513,ProdSingRedoBetween,2021.2.3,59.90064878
78,0,78,0,,,,,,,,,,,,,,,,,,,,,,,,,,371.6177003,None,voice,5,79,silent,yellow,369.6041097,None,None,369.6041097,None,,,,,,,,,,,,,,,,,,,,,,,,,,,,,,,,,,,August8Silent2,22,2022_Aug_08_1513,ProdSingRedoBetween,2021.2.3,59.90064878
79,0,79,0,,,,,,,,,,,,,,,,,,,,,,,,,,374.1203567,None,region,15,80,silent,yellow,372.1191021,None,None,372.1191021,None,,,,,,,,,,,,,,,,,,,,,,,,,,,,,,,,,,,August8Silent2,22,2022_Aug_08_1513,ProdSingRedoBetween,2021.2.3,59.90064878
80,0,80,0,,,,,,,,,,,,,,,,,,,,,,,,,,376.6227311,None,theme,85,81,silent,red,374.6227747,None,None,374.6227747,None,,,,,,,,,,,,,,,,,,,,,,,,,,,,,,,,,,,August8Silent2,22,2022_Aug_08_1513,ProdSingRedoBetween,2021.2.3,59.90064878
81,0,81,0,,,,,,,,,,,,,,,,,,,,,,,,,,379.1253527,None,gesture,79,82,silent,red,377.1250425,None,None,377.1250425,None,,,,,,,,,,,,,,,,,,,,,,,,,,,,,,,,,,,August8Silent2,22,2022_Aug_08_1513,ProdSingRedoBetween,2021.2.3,59.90064878
82,0,82,0,,,,,,,,,,,,,,,,,,,,,,,,,,381.6444159,None,taste,27,83,silent,yellow,379.6297254,None,None,379.6297254,None,,,,,,,,,,,,,,,,,,,,,,,,,,,,,,,,,,,August8Silent2,22,2022_Aug_08_1513,ProdSingRedoBetween,2021.2.3,59.90064878
83,0,83,0,,,,,,,,,,,,,,,,,,,,,,,,,,384.1471456,None,science,29,84,silent,blue,382.1449701,None,None,382.1449701,None,,,,,,,,,,,,,,,,,,,,,,,,,,,,,,,,,,,August8Silent2,22,2022_Aug_08_1513,ProdSingRedoBetween,2021.2.3,59.90064878
84,0,84,0,,,,,,,,,,,,,,,,,,,,,,,,,,386.6492347,None,reach,63,85,silent,red,384.6474984,None,None,384.6474984,None,,,,,,,,,,,,,,,,,,,,,,,,,,,,,,,,,,,August8Silent2,22,2022_Aug_08_1513,ProdSingRedoBetween,2021.2.3,59.90064878
85,0,85,0,,,,,,,,,,,,,,,,,,,,,,,,,,389.1519915,None,close,40,86,silent,blue,387.1520205,None,None,387.1520205,None,,,,,,,,,,,,,,,,,,,,,,,,,,,,,,,,,,,August8Silent2,22,2022_Aug_08_1513,ProdSingRedoBetween,2021.2.3,59.90064878
86,0,86,0,,,,,,,,,,,,,,,,,,,,,,,,,,391.6544491,None,column,77,87,silent,red,389.6525724,None,None,389.6525724,None,,,,,,,,,,,,,,,,,,,,,,,,,,,,,,,,,,,August8Silent2,22,2022_Aug_08_1513,ProdSingRedoBetween,2021.2.3,59.90064878
87,0,87,0,,,,,,,,,,,,,,,,,,,,,,,,,,394.1570221,None,bucket,56,88,silent,blue,392.1578116,None,None,392.1578116,None,,,,,,,,,,,,,,,,,,,,,,,,,,,,,,,,,,,August8Silent2,22,2022_Aug_08_1513,ProdSingRedoBetween,2021.2.3,59.90064878
88,0,88,0,,,,,,,,,,,,,,,,,,,,,,,,,,396.676176,None,institute,89,89,silent,red,394.661951,None,None,394.661951,None,,,,,,,,,,,,,,,,,,,,,,,,,,,,,,,,,,,August8Silent2,22,2022_Aug_08_1513,ProdSingRedoBetween,2021.2.3,59.90064878
89,0,89,0,,,,,,,,,,,,,,,,,,,,,,,,,,399.1786345,None,device,88,90,silent,red,397.1766095,None,None,397.1766095,None,,,,,,,,,,,,,,,,,,,,,,,,,,,,,,,,,,,August8Silent2,22,2022_Aug_08_1513,ProdSingRedoBetween,2021.2.3,59.90064878
,,,,,,,,,,,,,,,,,,,,,,,,,,,,,,,,,,,,,,,,,399.6794878,None,k,73.1189301,399.6794878,None,,,,,,,,,,,,,,,,,,,,,,,,,,,,,August8Silent2,22,2022_Aug_08_1513,ProdSingRedoBetween,2021.2.3,59.90064878
,,,,0,0,0,0,,,,,,,,,,,,,,,,,,,,,,493.0903259,None,,,,,,,,,,,,,,,,,trail,136,1,silent,new,null,473.3319785,None,473.3319785,None,5,15.1862771,473.3319785,None,15.1862771,488.5383042,None,489.0520279,None,489.0520279,None,f,4.010371,489.0520279,None,4.010371,,,August8Silent2,22,2022_Aug_08_1513,ProdSingRedoBetween,2021.2.3,59.90064878
,,,,1,0,1,0,,,,,,,,,,,,,,,,,,,,,,499.1453682,None,,,,,,,,,,,,,,,,,plane,10,2,silent,old,yellow,493.5927152,None,493.5927152,None,1,3.3736953,493.5927152,None,3.3736953,496.9986128,None,497.5103983,None,497.5103983,None,n,1.6079389,497.5103983,None,1.6079389,,,August8Silent2,22,2022_Aug_08_1513,ProdSingRedoBetween,2021.2.3,59.90064878
,,,,2,0,2,0,,,,,,,,,,,,,,,,,,,,,,506.7027308,None,,,,,,,,,,,,,,,,,bucket,56,3,silent,old,blue,499.6531699,None,499.6531699,None,1,3.0332654,499.6531699,None,3.0332654,502.7163834,None,503.2161797,None,503.2161797,None,n,3.4701933,503.2161797,None,3.4701933,,,August8Silent2,22,2022_Aug_08_1513,ProdSingRedoBetween,2021.2.3,59.90064878
,,,,3,0,3,0,,,,,,,,,,,,,,,,,,,,,,514.2771071,None,,,,,,,,,,,,,,,,,sight,37,4,silent,old,blue,507.2152129,None,507.2152129,None,5,3.5831665,507.2152129,None,3.5831665,510.8265833,None,511.3440814,None,511.3440814,None,f,2.9103301,511.3440814,None,2.9103301,,,August8Silent2,22,2022_Aug_08_1513,ProdSingRedoBetween,2021.2.3,59.90064878
,,,,4,0,4,0,,,,,,,,,,,,,,,,,,,,,,520.6501915,None,,,,,,,,,,,,,,,,,route,166,5,silent,new,null,514.7800785,None,514.7800785,None,5,3.178463,514.7800785,None,3.178463,517.9899584,None,518.4980079,None,518.4980079,None,n,2.1323432,518.4980079,None,2.1323432,,,August8Silent2,22,2022_Aug_08_1513,ProdSingRedoBetween,2021.2.3,59.90064878
,,,,5,0,5,0,,,,,,,,,,,,,,,,,,,,,,529.5757566,None,,,,,,,,,,,,,,,,,country,93,6,silent,new,null,521.1591986,None,521.1591986,None,1,1.767178,521.1591986,None,1.767178,522.9536839,None,523.4562322,None,523.4562322,None,r,6.0941893,523.4562322,None,6.0941893,,,August8Silent2,22,2022_Aug_08_1513,ProdSingRedoBetween,2021.2.3,59.90064878
,,,,6,0,6,0,,,,,,,,,,,,,,,,,,,,,,536.1489316,None,,,,,,,,,,,,,,,,,region,15,7,silent,old,yellow,530.0846708,None,530.0846708,None,6,3.5138128,530.0846708,None,3.5138128,533.637049,None,534.1470516,None,534.1470516,None,r,1.9793738,534.1470516,None,1.9793738,,,August8Silent2,22,2022_Aug_08_1513,ProdSingRedoBetween,2021.2.3,59.90064878
,,,,7,0,7,0,,,,,,,,,,,,,,,,,,,,,,540.271586,None,,,,,,,,,,,,,,,,,surface,179,8,silent,new,null,536.6569747,None,536.6569747,None,6,2.5574794,536.6569747,None,2.5574794,539.2399016,None,539.7526919,None,539.7526919,None,r,0.5017763,539.7526919,None,0.5017763,,,August8Silent2,22,2022_Aug_08_1513,ProdSingRedoBetween,2021.2.3,59.90064878
,,,,8,0,8,0,,,,,,,,,,,,,,,,,,,,,,544.0903361,None,,,,,,,,,,,,,,,,,right,152,9,silent,new,null,540.7966089,None,540.7966089,None,1,1.3537429,540.7966089,None,1.3537429,542.1714393,None,542.680295,None,542.680295,None,n,1.3820516,542.680295,None,1.3820516,,,August8Silent2,22,2022_Aug_08_1513,ProdSingRedoBetween,2021.2.3,59.90064878
,,,,9,0,9,0,,,,,,,,,,,,,,,,,,,,,,547.6604728,None,,,,,,,,,,,,,,,,,fellow,20,10,silent,old,yellow,544.6077759,None,544.6077759,None,5,2.0707882,544.6077759,None,2.0707882,546.7105034,None,547.2138214,None,547.2138214,None,f,0.4246734,547.2138214,None,0.4246734,,,August8Silent2,22,2022_Aug_08_1513,ProdSingRedoBetween,2021.2.3,59.90064878
,,,,10,0,10,0,,,,,,,,,,,,,,,,,,,,,,552.5653701,None,,,,,,,,,,,,,,,,,crisis,66,11,silent,old,red,548.1651432,None,548.1651432,None,5,2.0892993,548.1651432,None,2.0892993,550.2810277,None,550.7804543,None,550.7804543,None,f,1.75401,550.7804543,None,1.75401,,,August8Silent2,22,2022_Aug_08_1513,ProdSingRedoBetween,2021.2.3,59.90064878
,,,,11,0,11,0,,,,,,,,,,,,,,,,,,,,,,558.6546176,None,,,,,,,,,,,,,,,,,debate,142,12,silent,new,null,553.0690686,None,553.0690686,None,1,2.889384,553.0690686,None,2.889384,555.9895549,None,556.5055221,None,556.5055221,None,n,2.1329605,556.5055221,None,2.1329605,,,August8Silent2,22,2022_Aug_08_1513,ProdSingRedoBetween,2021.2.3,59.90064878
,,,,12,0,12,0,,,,,,,,,,,,,,,,,,,,,,564.0101645,None,,,,,,,,,,,,,,,,,skill,34,13,silent,old,blue,559.1661724,None,559.1661724,None,6,2.4242303,559.1661724,None,2.4242303,561.6099023,None,562.1250713,None,562.1250713,None,n,1.8654567,562.1250713,None,1.8654567,,,August8Silent2,22,2022_Aug_08_1513,ProdSingRedoBetween,2021.2.3,59.90064878
,,,,13,0,13,0,,,,,,,,,,,,,,,,,,,,,,576.2583518,None,,,,,,,,,,,,,,,,,equipment,161,14,silent,new,null,564.5150089,None,564.5150089,None,5,7.9236421,564.5150089,None,7.9236421,572.4728954,None,572.9904978,None,572.9904978,None,n,3.2399489,572.9904978,None,3.2399489,,,August8Silent2,22,2022_Aug_08_1513,ProdSingRedoBetween,2021.2.3,59.90064878
,,,,14,0,14,0,,,,,,,,,,,,,,,,,,,,,,585.581677,None,,,,,,,,,,,,,,,,,problem,86,15,silent,old,red,576.7751284,None,576.7751284,None,2,3.5112614,576.7751284,None,3.5112614,580.3310694,None,580.8520629,None,580.8520629,None,n,4.7144096,580.8520629,None,4.7144096,,,August8Silent2,22,2022_Aug_08_1513,ProdSingRedoBetween,2021.2.3,59.90064878
,,,,15,0,15,0,,,,,,,,,,,,,,,,,,,,,,596.0421262,None,,,,,,,,,,,,,,,,,guest,105,16,silent,new,null,586.0912997,None,586.0912997,None,1,7.8032004,586.0912997,None,7.8032004,593.9261539,None,594.4406893,None,594.4406893,None,n,1.5738238,594.4406893,None,1.5738238,,,August8Silent2,22,2022_Aug_08_1513,ProdSingRedoBetween,2021.2.3,59.90064878
,,,,16,0,16,0,,,,,,,,,,,,,,,,,,,,,,601.8477845,None,,,,,,,,,,,,,,,,,engineer,160,17,silent,new,null,596.545389,None,596.545389,None,6,2.4851866,596.545389,None,2.4851866,599.0673168,None,599.5790782,None,599.5790782,None,f,2.2434527,599.5790782,None,2.2434527,,,August8Silent2,22,2022_Aug_08_1513,ProdSingRedoBetween,2021.2.3,59.90064878
,,,,17,0,17,0,,,,,,,,,,,,,,,,,,,,,,606.1856424,None,,,,,,,,,,,,,,,,,general,80,18,silent,old,red,602.3509206,None,602.3509206,None,4,1.6235842,602.3509206,None,1.6235842,604.0001444,None,604.5058257,None,604.5058257,None,f,1.6606874,604.5058257,None,1.6606874,,,August8Silent2,22,2022_Aug_08_1513,ProdSingRedoBetween,2021.2.3,59.90064878
,,,,18,0,18,0,,,,,,,,,,,,,,,,,,,,,,612.4919844,None,,,,,,,,,,,,,,,,,judge,9,19,silent,old,yellow,606.6860405,None,606.6860405,None,1,4.0244653,606.6860405,None,4.0244653,610.7413479,None,611.2420734,None,611.2420734,None,f,1.2204362,611.2420734,None,1.2204362,,,August8Silent2,22,2022_Aug_08_1513,ProdSingRedoBetween,2021.2.3,59.90064878
,,,,19,0,19,0,,,,,,,,,,,,,,,,,,,,,,617.550064,None,,,,,,,,,,,,,,,,,grade,150,20,silent,new,null,612.9995804,None,612.9995804,None,1,3.4229629,612.9995804,None,3.4229629,616.4486019,None,616.9665383,None,616.9665383,None,f,0.5600576,616.9665383,None,0.5600576,,,August8Silent2,22,2022_Aug_08_1513,ProdSingRedoBetween,2021.2.3,59.90064878
,,,,20,0,20,0,,,,,,,,,,,,,,,,,,,,,,621.7345875,None,,,,,,,,,,,,,,,,,religion,173,21,silent,new,null,618.0738176,None,618.0738176,None,1,2.316734,618.0738176,None,2.316734,620.4206751,None,620.9339705,None,620.9339705,None,n,0.7847045,620.9339705,None,0.7847045,,,August8Silent2,22,2022_Aug_08_1513,ProdSingRedoBetween,2021.2.3,59.90064878
,,,,21,0,21,0,,,,,,,,,,,,,,,,,,,,,,625.7719545,None,,,,,,,,,,,,,,,,,treatment,71,22,silent,old,red,622.2391818,None,622.2391818,None,6,1.5193401,622.2391818,None,1.5193401,623.7890174,None,624.3040379,None,624.3040379,None,f,1.4464943,624.3040379,None,1.4464943,,,August8Silent2,22,2022_Aug_08_1513,ProdSingRedoBetween,2021.2.3,59.90064878
,,,,22,0,22,0,,,,,,,,,,,,,,,,,,,,,,633.0292694,None,,,,,,,,,,,,,,,,,period,31,23,silent,old,blue,626.2755469,None,626.2755469,None,5,3.8589942,626.2755469,None,3.8589942,630.1609215,None,630.6662642,None,630.6662642,None,f,2.3322696,630.6662642,None,2.3322696,,,August8Silent2,22,2022_Aug_08_1513,ProdSingRedoBetween,2021.2.3,59.90064878
,,,,23,0,23,0,,,,,,,,,,,,,,,,,,,,,,638.8355323,None,,,,,,,,,,,,,,,,,symbol,38,24,silent,old,blue,633.5391646,None,633.5391646,None,6,3.05938,633.5391646,None,3.05938,636.6162799,None,637.1169371,None,637.1169371,None,n,1.6976468,637.1169371,None,1.6976468,,,August8Silent2,22,2022_Aug_08_1513,ProdSingRedoBetween,2021.2.3,59.90064878
,,,,24,0,24,0,,,,,,,,,,,,,,,,,,,,,,644.056928,None,,,,,,,,,,,,,,,,,agency,149,25,silent,new,null,639.3410264,None,639.3410264,None,6,1.8815355,639.3410264,None,1.8815355,641.2402385,None,641.7596699,None,641.7596699,None,r,2.270914,641.7596699,None,2.270914,,,August8Silent2,22,2022_Aug_08_1513,ProdSingRedoBetween,2021.2.3,59.90064878
,,,,25,0,25,0,,,,,,,,,,,,,,,,,,,,,,647.131248,None,,,,,,,,,,,,,,,,,error,54,26,silent,old,blue,644.5589734,None,644.5589734,None,1,1.4234883,644.5589734,None,1.4234883,646.0085932,None,646.5123541,None,646.5123541,None,n,0.5902172,646.5123541,None,0.5902172,,,August8Silent2,22,2022_Aug_08_1513,ProdSingRedoBetween,2021.2.3,59.90064878
,,,,26,0,26,0,,,,,,,,,,,,,,,,,,,,,,650.079608,None,,,,,,,,,,,,,,,,,atmosphere,91,27,silent,new,null,647.6514407,None,647.6514407,None,1,1.5711344,647.6514407,None,1.5711344,649.2469297,None,649.7530199,None,649.7530199,None,n,0.3095577,649.7530199,None,0.3095577,,,August8Silent2,22,2022_Aug_08_1513,ProdSingRedoBetween,2021.2.3,59.90064878
,,,,27,0,27,0,,,,,,,,,,,,,,,,,,,,,,653.6500569,None,,,,,,,,,,,,,,,,,emergency,35,28,silent,old,blue,650.5829438,None,650.5829438,None,5,1.8876833,650.5829438,None,1.8876833,652.5041619,None,653.0182195,None,653.0182195,None,f,0.6043138,653.0182195,None,0.6043138,,,August8Silent2,22,2022_Aug_08_1513,ProdSingRedoBetween,2021.2.3,59.90064878
,,,,28,0,28,0,,,,,,,,,,,,,,,,,,,,,,657.0031842,None,,,,,,,,,,,,,,,,,council,128,29,silent,new,null,654.1595974,None,654.1595974,None,6,1.5988698,654.1595974,None,1.5988698,655.7864199,None,656.2902811,None,656.2902811,None,r,0.6843654,656.2902811,None,0.6843654,,,August8Silent2,22,2022_Aug_08_1513,ProdSingRedoBetween,2021.2.3,59.90064878
,,,,29,0,29,0,,,,,,,,,,,,,,,,,,,,,,659.8560272,None,,,,,,,,,,,,,,,,,science,29,30,silent,old,blue,657.507005,None,657.507005,None,1,1.5876497,657.507005,None,1.5876497,659.1302459,None,659.6461181,None,659.6461181,None,n,0.1844389,659.6461181,None,0.1844389,,,August8Silent2,22,2022_Aug_08_1513,ProdSingRedoBetween,2021.2.3,59.90064878
,,,,30,0,30,0,,,,,,,,,,,,,,,,,,,,,,666.6294296,None,,,,,,,,,,,,,,,,,quarter,30,31,silent,old,blue,660.3595169,None,660.3595169,None,1,3.9270609,660.3595169,None,3.9270609,664.313702,None,664.8351914,None,664.8351914,None,n,1.7793788,664.8351914,None,1.7793788,,,August8Silent2,22,2022_Aug_08_1513,ProdSingRedoBetween,2021.2.3,59.90064878
,,,,31,0,31,0,,,,,,,,,,,,,,,,,,,,,,670.2828154,None,,,,,,,,,,,,,,,,,phrase,73,32,silent,old,red,667.133077,None,667.133077,None,5,1.7534356,667.133077,None,1.7534356,668.9193351,None,669.4401594,None,669.4401594,None,f,0.8143516,669.4401594,None,0.8143516,,,August8Silent2,22,2022_Aug_08_1513,ProdSingRedoBetween,2021.2.3,59.90064878
,,,,32,0,32,0,,,,,,,,,,,,,,,,,,,,,,675.1044993,None,,,,,,,,,,,,,,,,,smooth,114,33,silent,new,null,670.7874495,None,670.7874495,None,1,2.3791337,670.7874495,None,2.3791337,673.1881306,None,673.7034281,None,673.7034281,None,n,1.3831227,673.7034281,None,1.3831227,,,August8Silent2,22,2022_Aug_08_1513,ProdSingRedoBetween,2021.2.3,59.90064878
,,,,33,0,33,0,,,,,,,,,,,,,,,,,,,,,,682.0782053,None,,,,,,,,,,,,,,,,,straight,0,34,silent,old,yellow,675.6116863,None,675.6116863,None,6,1.7308575,675.6116863,None,1.7308575,677.3734053,None,677.881502,None,677.881502,None,f,4.1810893,677.881502,None,4.1810893,,,August8Silent2,22,2022_Aug_08_1513,ProdSingRedoBetween,2021.2.3,59.90064878
,,,,34,0,34,0,,,,,,,,,,,,,,,,,,,,,,689.2521522,None,,,,,,,,,,,,,,,,,passage,100,35,silent,new,null,682.5788434,None,682.5788434,None,2,4.7077683,682.5788434,None,4.7077683,687.3178216,None,687.8176013,None,687.8176013,None,f,1.405001,687.8176013,None,1.405001,,,August8Silent2,22,2022_Aug_08_1513,ProdSingRedoBetween,2021.2.3,59.90064878
,,,,35,0,35,0,,,,,,,,,,,,,,,,,,,,,,692.6055175,None,,,,,,,,,,,,,,,,,provision,116,36,silent,new,null,689.7628346,None,689.7628346,None,6,2.2598379,689.7628346,None,2.2598379,692.0501235,None,692.558107,None,692.558107,None,f,0.0165374,692.558107,None,0.0165374,,,August8Silent2,22,2022_Aug_08_1513,ProdSingRedoBetween,2021.2.3,59.90064878
,,,,36,0,36,0,,,,,,,,,,,,,,,,,,,,,,695.4249158,None,,,,,,,,,,,,,,,,,profession,45,37,silent,old,blue,693.1172873,None,693.1172873,None,6,1.6333286,693.1172873,None,1.6333286,694.7756183,None,695.2816182,None,695.2816182,None,f,0.1169837,695.2816182,None,0.1169837,,,August8Silent2,22,2022_Aug_08_1513,ProdSingRedoBetween,2021.2.3,59.90064878
,,,,37,0,37,0,,,,,,,,,,,,,,,,,,,,,,699.0618573,None,,,,,,,,,,,,,,,,,quantity,153,38,silent,new,null,695.9381154,None,695.9381154,None,6,2.1245219,695.9381154,None,2.1245219,698.0820401,None,698.594737,None,698.594737,None,r,0.4438713,698.594737,None,0.4438713,,,August8Silent2,22,2022_Aug_08_1513,ProdSingRedoBetween,2021.2.3,59.90064878
,,,,38,0,38,0,,,,,,,,,,,,,,,,,,,,,,701.6651966,None,,,,,,,,,,,,,,,,,birth,111,39,silent,new,null,699.5674158,None,699.5674158,None,1,1.5111187,699.5674158,None,1.5111187,701.0981765,None,701.6066403,None,701.6066403,None,n,0.0319549,701.6066403,None,0.0319549,,,August8Silent2,22,2022_Aug_08_1513,ProdSingRedoBetween,2021.2.3,59.90064878
,,,,39,0,39,0,,,,,,,,,,,,,,,,,,,,,,704.9845951,None,,,,,,,,,,,,,,,,,colonel,25,40,silent,old,yellow,702.1746129,None,702.1746129,None,6,2.1520054,702.1746129,None,2.1520054,704.3522764,None,704.8675579,None,704.8675579,None,r,0.0990604,704.8675579,None,0.0990604,,,August8Silent2,22,2022_Aug_08_1513,ProdSingRedoBetween,2021.2.3,59.90064878
,,,,40,0,40,0,,,,,,,,,,,,,,,,,,,,,,707.2247591,None,,,,,,,,,,,,,,,,,month,46,41,silent,old,blue,705.4911475,None,705.4911475,None,1,1.1475204,705.4911475,None,1.1475204,706.6729144,None,707.1868304,None,707.1868304,None,n,0.0118693,707.1868304,None,0.0118693,,,August8Silent2,22,2022_Aug_08_1513,ProdSingRedoBetween,2021.2.3,59.90064878
,,,,41,0,41,0,,,,,,,,,,,,,,,,,,,,,,711.4591309,None,,,,,,,,,,,,,,,,,tennis,176,42,silent,new,null,707.7428584,None,707.7428584,None,2,1.231848,707.7428584,None,1.231848,709.0109063,None,709.5261212,None,709.5261212,None,n,1.9125539,709.5261212,None,1.9125539,,,August8Silent2,22,2022_Aug_08_1513,ProdSingRedoBetween,2021.2.3,59.90064878
,,,,42,0,42,0,,,,,,,,,,,,,,,,,,,,,,715.2300511,None,,,,,,,,,,,,,,,,,expansion,155,43,silent,new,null,711.9595211,None,711.9595211,None,6,2.6551193,711.9595211,None,2.6551193,714.646043,None,715.1615461,None,715.1615461,None,r,0.0451452,715.1615461,None,0.0451452,,,August8Silent2,22,2022_Aug_08_1513,ProdSingRedoBetween,2021.2.3,59.90064878
,,,,43,0,43,0,,,,,,,,,,,,,,,,,,,,,,719.2678491,None,,,,,,,,,,,,,,,,,owner,81,44,silent,old,red,715.747564,None,715.747564,None,6,1.5391336,715.747564,None,1.5391336,717.3203343,None,717.8361636,None,717.8361636,None,r,1.4106069,717.8361636,None,1.4106069,,,August8Silent2,22,2022_Aug_08_1513,ProdSingRedoBetween,2021.2.3,59.90064878
,,,,44,0,44,0,,,,,,,,,,,,,,,,,,,,,,721.5726578,None,,,,,,,,,,,,,,,,,scene,75,45,silent,old,red,719.7890776,None,719.7890776,None,1,1.1456453,719.7890776,None,1.1456453,720.9568089,None,721.4716554,None,721.4716554,None,n,0.0711659,721.4716554,None,0.0711659,,,August8Silent2,22,2022_Aug_08_1513,ProdSingRedoBetween,2021.2.3,59.90064878
,,,,45,0,45,0,,,,,,,,,,,,,,,,,,,,,,725.8720957,None,,,,,,,,,,,,,,,,,store,178,46,silent,new,null,722.0861209,None,722.0861209,None,5,3.0565374,722.0861209,None,3.0565374,725.1723303,None,725.6763326,None,725.6763326,None,f,0.1782923,725.6763326,None,0.1782923,,,August8Silent2,22,2022_Aug_08_1513,ProdSingRedoBetween,2021.2.3,59.90064878
,,,,46,0,46,0,,,,,,,,,,,,,,,,,,,,,,732.8123997,None,,,,,,,,,,,,,,,,,device,88,47,silent,old,red,726.3814398,None,726.3814398,None,6,5.1692014,726.3814398,None,5.1692014,731.5804278,None,732.0950253,None,732.0950253,None,n,0.6876791,732.0950253,None,0.6876791,,,August8Silent2,22,2022_Aug_08_1513,ProdSingRedoBetween,2021.2.3,59.90064878
,,,,47,0,47,0,,,,,,,,,,,,,,,,,,,,,,737.7336473,None,,,,,,,,,,,,,,,,,surprise,97,48,silent,new,null,733.3208744,None,733.3208744,None,6,2.4137921,733.3208744,None,2.4137921,735.7689049,None,736.2826661,None,736.2826661,None,n,1.4279567,736.2826661,None,1.4279567,,,August8Silent2,22,2022_Aug_08_1513,ProdSingRedoBetween,2021.2.3,59.90064878
,,,,48,0,48,0,,,,,,,,,,,,,,,,,,,,,,743.9901582,None,,,,,,,,,,,,,,,,,position,69,49,silent,old,red,738.2389671,None,738.2389671,None,5,4.7277286,738.2389671,None,4.7277286,742.993464,None,743.5093074,None,743.5093074,None,f,0.4573748,743.5093074,None,0.4573748,,,August8Silent2,22,2022_Aug_08_1513,ProdSingRedoBetween,2021.2.3,59.90064878
,,,,49,0,49,0,,,,,,,,,,,,,,,,,,,,,,749.1621741,None,,,,,,,,,,,,,,,,,drove,157,50,silent,new,null,744.5014996,None,744.5014996,None,6,2.9611912,744.5014996,None,2.9611912,747.4970264,None,748.0109972,None,748.0109972,None,n,1.1317382,748.0109972,None,1.1317382,,,August8Silent2,22,2022_Aug_08_1513,ProdSingRedoBetween,2021.2.3,59.90064878
,,,,50,0,50,0,,,,,,,,,,,,,,,,,,,,,,751.9981821,None,,,,,,,,,,,,,,,,,report,82,51,silent,old,red,749.677812,None,749.677812,None,1,1.1448602,749.677812,None,1.1448602,750.8475374,None,751.3516664,None,751.3516664,None,f,0.6309954,751.3516664,None,0.6309954,,,August8Silent2,22,2022_Aug_08_1513,ProdSingRedoBetween,2021.2.3,59.90064878
,,,,51,0,51,0,,,,,,,,,,,,,,,,,,,,,,755.2847765,None,,,,,,,,,,,,,,,,,account,32,52,silent,old,blue,752.5048219,None,752.5048219,None,1,2.054012,752.5048219,None,2.054012,754.5972079,None,755.1013954,None,755.1013954,None,n,0.16138,755.1013954,None,0.16138,,,August8Silent2,22,2022_Aug_08_1513,ProdSingRedoBetween,2021.2.3,59.90064878
,,,,52,0,52,0,,,,,,,,,,,,,,,,,,,,,,759.6055893,None,,,,,,,,,,,,,,,,,message,2,53,silent,old,yellow,755.7884052,None,755.7884052,None,5,3.0261958,755.7884052,None,3.0261958,758.8441773,None,759.3554343,None,759.3554343,None,f,0.2193306,759.3554343,None,0.2193306,,,August8Silent2,22,2022_Aug_08_1513,ProdSingRedoBetween,2021.2.3,59.90064878
,,,,53,0,53,0,,,,,,,,,,,,,,,,,,,,,,762.6431265,None,,,,,,,,,,,,,,,,,thick,156,54,silent,new,null,760.1088035,None,760.1088035,None,1,1.9058119,760.1088035,None,1.9058119,762.0414348,None,762.5422079,None,762.5422079,None,n,0.080539,762.5422079,None,0.080539,,,August8Silent2,22,2022_Aug_08_1513,ProdSingRedoBetween,2021.2.3,59.90064878
,,,,54,0,54,0,,,,,,,,,,,,,,,,,,,,,,766.8961179,None,,,,,,,,,,,,,,,,,fashion,130,55,silent,new,null,763.1454559,None,763.1454559,None,1,1.117421,763.1454559,None,1.117421,764.2981362,None,764.8136743,None,764.8136743,None,n,2.0570191,764.8136743,None,2.0570191,,,August8Silent2,22,2022_Aug_08_1513,ProdSingRedoBetween,2021.2.3,59.90064878
,,,,55,0,55,0,,,,,,,,,,,,,,,,,,,,,,773.8701055,None,,,,,,,,,,,,,,,,,cousin,139,56,silent,new,null,767.4024437,None,767.4024437,None,5,5.8523503,767.4024437,None,5.8523503,773.2757388,None,773.7868373,None,773.7868373,None,f,0.0598891,773.7868373,None,0.0598891,,,August8Silent2,22,2022_Aug_08_1513,ProdSingRedoBetween,2021.2.3,59.90064878
,,,,56,0,56,0,,,,,,,,,,,,,,,,,,,,,,777.9573834,None,,,,,,,,,,,,,,,,,style,112,57,silent,new,null,774.3808897,None,774.3808897,None,1,2.9618669,774.3808897,None,2.9618669,777.3779778,None,777.8992424,None,777.8992424,None,n,0.027385,777.8992424,None,0.027385,,,August8Silent2,22,2022_Aug_08_1513,ProdSingRedoBetween,2021.2.3,59.90064878
,,,,57,0,57,0,,,,,,,,,,,,,,,,,,,,,,781.0127507,None,,,,,,,,,,,,,,,,,raise,138,58,silent,new,null,778.4599583,None,778.4599583,None,5,1.6267418,778.4599583,None,1.6267418,780.1108964,None,780.6148771,None,780.6148771,None,f,0.3679422,780.6148771,None,0.3679422,,,August8Silent2,22,2022_Aug_08_1513,ProdSingRedoBetween,2021.2.3,59.90064878
,,,,58,0,58,0,,,,,,,,,,,,,,,,,,,,,,784.1303293,None,,,,,,,,,,,,,,,,,contract,74,59,silent,old,red,781.5335718,None,781.5335718,None,6,1.5051347,781.5335718,None,1.5051347,783.0635897,None,783.5690484,None,783.5690484,None,r,0.5417148,783.5690484,None,0.5417148,,,August8Silent2,22,2022_Aug_08_1513,ProdSingRedoBetween,2021.2.3,59.90064878
,,,,59,0,59,0,,,,,,,,,,,,,,,,,,,,,,789.8193805,None,,,,,,,,,,,,,,,,,smell,145,60,silent,new,null,784.6411077,None,784.6411077,None,1,4.5816245,784.6411077,None,4.5816245,789.2521679,None,789.7527371,None,789.7527371,None,f,0.0380593,789.7527371,None,0.0380593,,,August8Silent2,22,2022_Aug_08_1513,ProdSingRedoBetween,2021.2.3,59.90064878
,,,,60,0,60,0,,,,,,,,,,,,,,,,,,,,,,792.5566777,None,,,,,,,,,,,,,,,,,sunset,47,61,silent,old,blue,790.3293561,None,790.3293561,None,1,1.58134,790.3293561,None,1.58134,791.9391202,None,792.4501919,None,792.4501919,None,n,0.0846282,792.4501919,None,0.0846282,,,August8Silent2,22,2022_Aug_08_1513,ProdSingRedoBetween,2021.2.3,59.90064878
,,,,61,0,61,0,,,,,,,,,,,,,,,,,,,,,,804.8343736,None,,,,,,,,,,,,,,,,,court,42,62,silent,old,blue,793.0705009,None,793.0705009,None,6,8.4722403,793.0705009,None,8.4722403,801.5682716,None,802.0817519,None,802.0817519,None,r,2.7330074,802.0817519,None,2.7330074,,,August8Silent2,22,2022_Aug_08_1513,ProdSingRedoBetween,2021.2.3,59.90064878
,,,,62,0,62,0,,,,,,,,,,,,,,,,,,,,,,810.8570536,None,,,,,,,,,,,,,,,,,alert,127,63,silent,new,null,805.3428959,None,805.3428959,None,6,2.8719259,805.3428959,None,2.8719259,808.2474938,None,808.7550867,None,808.7550867,None,f,2.0756301,808.7550867,None,2.0756301,,,August8Silent2,22,2022_Aug_08_1513,ProdSingRedoBetween,2021.2.3,59.90064878
,,,,63,0,63,0,,,,,,,,,,,,,,,,,,,,,,813.3262402,None,,,,,,,,,,,,,,,,,afternoon,92,64,silent,new,null,811.3730793,None,811.3730793,None,1,1.3056798,811.3730793,None,1.3056798,812.7099012,None,813.2150833,None,813.2150833,None,n,0.0955699,813.2150833,None,0.0955699,,,August8Silent2,22,2022_Aug_08_1513,ProdSingRedoBetween,2021.2.3,59.90064878
,,,,64,0,64,0,,,,,,,,,,,,,,,,,,,,,,816.0120127,None,,,,,,,,,,,,,,,,,election,126,65,silent,new,null,813.8374174,None,813.8374174,None,6,1.3452089,813.8374174,None,1.3452089,815.2116481,None,815.7167919,None,815.7167919,None,r,0.2739635,815.7167919,None,0.2739635,,,August8Silent2,22,2022_Aug_08_1513,ProdSingRedoBetween,2021.2.3,59.90064878
,,,,65,0,65,0,,,,,,,,,,,,,,,,,,,,,,821.9012809,None,,,,,,,,,,,,,,,,,company,58,66,silent,old,blue,816.5192947,None,816.5192947,None,6,3.0794199,816.5192947,None,3.0794199,819.6170807,None,820.1192226,None,820.1192226,None,n,1.7515566,820.1192226,None,1.7515566,,,August8Silent2,22,2022_Aug_08_1513,ProdSingRedoBetween,2021.2.3,59.90064878
,,,,66,0,66,0,,,,,,,,,,,,,,,,,,,,,,824.7710057,None,,,,,,,,,,,,,,,,,gesture,79,67,silent,old,red,822.415737,None,822.415737,None,1,1.4152632,822.415737,None,1.4152632,823.8564091,None,824.3754058,None,824.3754058,None,n,0.3673381,824.3754058,None,0.3673381,,,August8Silent2,22,2022_Aug_08_1513,ProdSingRedoBetween,2021.2.3,59.90064878
,,,,67,0,67,0,,,,,,,,,,,,,,,,,,,,,,827.6405435,None,,,,,,,,,,,,,,,,,evidence,95,68,silent,new,null,825.2720258,None,825.2720258,None,6,1.7747392,825.2720258,None,1.7747392,827.0759025,None,827.5906805,None,827.5906805,None,r,0.0320375,827.5906805,None,0.0320375,,,August8Silent2,22,2022_Aug_08_1513,ProdSingRedoBetween,2021.2.3,59.90064878
,,,,68,0,68,0,,,,,,,,,,,,,,,,,,,,,,829.9780399,None,,,,,,,,,,,,,,,,,thing,48,69,silent,old,blue,828.155944,None,828.155944,None,1,1.0587992,828.155944,None,1.0587992,829.2439662,None,829.7595155,None,829.7595155,None,n,0.1912227,829.7595155,None,0.1912227,,,August8Silent2,22,2022_Aug_08_1513,ProdSingRedoBetween,2021.2.3,59.90064878
,,,,69,0,69,0,,,,,,,,,,,,,,,,,,,,,,833.3129055,None,,,,,,,,,,,,,,,,,murder,137,70,silent,new,null,830.4996653,None,830.4996653,None,1,1.9074502,830.4996653,None,1.9074502,832.4398577,None,832.9458246,None,832.9458246,None,n,0.3489464,832.9458246,None,0.3489464,,,August8Silent2,22,2022_Aug_08_1513,ProdSingRedoBetween,2021.2.3,59.90064878
,,,,70,0,70,0,,,,,,,,,,,,,,,,,,,,,,836.2489679,None,,,,,,,,,,,,,,,,,stand,159,71,silent,new,null,833.8289824,None,833.8289824,None,5,1.5618414,833.8289824,None,1.5618414,835.4185405,None,835.9323155,None,835.9323155,None,f,0.298508,835.9323155,None,0.298508,,,August8Silent2,22,2022_Aug_08_1513,ProdSingRedoBetween,2021.2.3,59.90064878
,,,,71,0,71,0,,,,,,,,,,,,,,,,,,,,,,839.1019213,None,,,,,,,,,,,,,,,,,congress,49,72,silent,old,blue,836.7615873,None,836.7615873,None,6,1.453215,836.7615873,None,1.453215,838.2417191,None,838.754104,None,838.754104,None,r,0.3327848,838.754104,None,0.3327848,,,August8Silent2,22,2022_Aug_08_1513,ProdSingRedoBetween,2021.2.3,59.90064878
,,,,72,0,72,0,,,,,,,,,,,,,,,,,,,,,,842.9889666,None,,,,,,,,,,,,,,,,,piece,164,73,silent,new,null,839.6143322,None,839.6143322,None,1,2.584547,839.6143322,None,2.584547,842.2301343,None,842.7390612,None,842.7390612,None,n,0.2197986,842.7390612,None,0.2197986,,,August8Silent2,22,2022_Aug_08_1513,ProdSingRedoBetween,2021.2.3,59.90064878
,,,,73,0,73,0,,,,,,,,,,,,,,,,,,,,,,845.6084379,None,,,,,,,,,,,,,,,,,clear,64,74,silent,old,red,843.4914975,None,843.4914975,None,1,1.2993012,843.4914975,None,1.2993012,844.8137274,None,845.3250689,None,845.3250689,None,n,0.2657335,845.3250689,None,0.2657335,,,August8Silent2,22,2022_Aug_08_1513,ProdSingRedoBetween,2021.2.3,59.90064878
,,,,74,0,74,0,,,,,,,,,,,,,,,,,,,,,,849.2120743,None,,,,,,,,,,,,,,,,,enemy,119,75,silent,new,null,846.1164722,None,846.1164722,None,1,1.4023967,846.1164722,None,1.4023967,847.553376,None,848.0703181,None,848.0703181,None,n,1.1205514,848.0703181,None,1.1205514,,,August8Silent2,22,2022_Aug_08_1513,ProdSingRedoBetween,2021.2.3,59.90064878
,,,,75,0,75,0,,,,,,,,,,,,,,,,,,,,,,852.0483427,None,,,,,,,,,,,,,,,,,growth,106,76,silent,new,null,849.7180954,None,849.7180954,None,5,1.6087045,849.7180954,None,1.6087045,851.3503297,None,851.867557,None,851.867557,None,f,0.1632323,851.867557,None,0.1632323,,,August8Silent2,22,2022_Aug_08_1513,ProdSingRedoBetween,2021.2.3,59.90064878
,,,,76,0,76,0,,,,,,,,,,,,,,,,,,,,,,855.3401802,None,,,,,,,,,,,,,,,,,subject,26,77,silent,old,yellow,852.5524097,None,852.5524097,None,6,1.7823831,852.5524097,None,1.7823831,854.3580936,None,854.869798,None,854.869798,None,r,0.4490864,854.869798,None,0.4490864,,,August8Silent2,22,2022_Aug_08_1513,ProdSingRedoBetween,2021.2.3,59.90064878
,,,,77,0,77,0,,,,,,,,,,,,,,,,,,,,,,857.7540199,None,,,,,,,,,,,,,,,,,short,165,78,silent,new,null,855.8595944,None,855.8595944,None,1,1.163236,855.8595944,None,1.163236,857.0531384,None,857.5542115,None,857.5542115,None,n,0.172553,857.5542115,None,0.172553,,,August8Silent2,22,2022_Aug_08_1513,ProdSingRedoBetween,2021.2.3,59.90064878
,,,,78,0,78,0,,,,,,,,,,,,,,,,,,,,,,860.9905339,None,,,,,,,,,,,,,,,,,interior,17,79,silent,old,yellow,858.2649728,None,858.2649728,None,6,1.605954,858.2649728,None,1.605954,859.8940179,None,860.4114111,None,860.4114111,None,r,0.5634847,860.4114111,None,0.5634847,,,August8Silent2,22,2022_Aug_08_1513,ProdSingRedoBetween,2021.2.3,59.90064878
,,,,79,0,79,0,,,,,,,,,,,,,,,,,,,,,,865.2624486,None,,,,,,,,,,,,,,,,,beginning,78,80,silent,old,red,861.4942031,None,861.4942031,None,1,2.6485536,861.4942031,None,2.6485536,864.1606487,None,864.6624528,None,864.6624528,None,f,0.5764683,864.6624528,None,0.5764683,,,August8Silent2,22,2022_Aug_08_1513,ProdSingRedoBetween,2021.2.3,59.90064878
,,,,80,0,80,0,,,,,,,,,,,,,,,,,,,,,,867.6138248,None,,,,,,,,,,,,,,,,,quick,22,81,silent,old,yellow,865.7730612,None,865.7730612,None,1,1.1296702,865.7730612,None,1.1296702,866.9362352,None,867.4513929,None,867.4513929,None,n,0.1474589,867.4513929,None,0.1474589,,,August8Silent2,22,2022_Aug_08_1513,ProdSingRedoBetween,2021.2.3,59.90064878
,,,,81,0,81,0,,,,,,,,,,,,,,,,,,,,,,870.0515923,None,,,,,,,,,,,,,,,,,curve,177,82,silent,new,null,868.1159111,None,868.1159111,None,1,1.2349217,868.1159111,None,1.2349217,869.3669111,None,869.8917306,None,869.8917306,None,n,0.1391933,869.8917306,None,0.1391933,,,August8Silent2,22,2022_Aug_08_1513,ProdSingRedoBetween,2021.2.3,59.90064878
,,,,82,0,82,0,,,,,,,,,,,,,,,,,,,,,,872.5017786,None,,,,,,,,,,,,,,,,,theme,85,83,silent,old,red,870.5794827,None,870.5794827,None,1,1.0593901,870.5794827,None,1.0593901,871.6685068,None,872.1725308,None,872.1725308,None,n,0.3143758,872.1725308,None,0.3143758,,,August8Silent2,22,2022_Aug_08_1513,ProdSingRedoBetween,2021.2.3,59.90064878
,,,,83,0,83,0,,,,,,,,,,,,,,,,,,,,,,876.0236599,None,,,,,,,,,,,,,,,,,division,110,84,silent,new,null,873.0115304,None,873.0115304,None,6,1.3713526,873.0115304,None,1.3713526,874.4118571,None,874.9212594,None,874.9212594,None,f,1.069636,874.9212594,None,1.069636,,,August8Silent2,22,2022_Aug_08_1513,ProdSingRedoBetween,2021.2.3,59.90064878
,,,,84,0,84,0,,,,,,,,,,,,,,,,,,,,,,879.7089563,None,,,,,,,,,,,,,,,,,sound,131,85,silent,new,null,876.5256375,None,876.5256375,None,2,1.1933975,876.5256375,None,1.1933975,877.7458082,None,878.2579201,None,878.2579201,None,n,1.4289395,878.2579201,None,1.4289395,,,August8Silent2,22,2022_Aug_08_1513,ProdSingRedoBetween,2021.2.3,59.90064878
,,,,85,0,85,0,,,,,,,,,,,,,,,,,,,,,,883.0293228,None,,,,,,,,,,,,,,,,,series,51,86,silent,old,blue,880.2213675,None,880.2213675,None,5,1.7934761,880.2213675,None,1.7934761,882.0468342,None,882.5657406,None,882.5657406,None,f,0.433175,882.5657406,None,0.433175,,,August8Silent2,22,2022_Aug_08_1513,ProdSingRedoBetween,2021.2.3,59.90064878
,,,,86,0,86,0,,,,,,,,,,,,,,,,,,,,,,889.4359127,None,,,,,,,,,,,,,,,,,community,169,87,silent,new,null,883.5385952,None,883.5385952,None,5,1.7162053,883.5385952,None,1.7162053,885.2832737,None,885.8026323,None,885.8026323,None,f,3.6042199,885.8026323,None,3.6042199,,,August8Silent2,22,2022_Aug_08_1513,ProdSingRedoBetween,2021.2.3,59.90064878
,,,,87,0,87,0,,,,,,,,,,,,,,,,,,,,,,892.3219798,None,,,,,,,,,,,,,,,,,break,141,88,silent,new,null,889.9442039,None,889.9442039,None,1,1.6307467,889.9442039,None,1.6307467,891.6114737,None,892.1218145,None,892.1218145,None,n,0.1730669,892.1218145,None,0.1730669,,,August8Silent2,22,2022_Aug_08_1513,ProdSingRedoBetween,2021.2.3,59.90064878
,,,,88,0,88,0,,,,,,,,,,,,,,,,,,,,,,896.5928048,None,,,,,,,,,,,,,,,,,people,107,89,silent,new,null,892.8255708,None,892.8255708,None,5,2.8294324,892.8255708,None,2.8294324,895.6761753,None,896.1759071,None,896.1759071,None,f,0.3909649,896.1759071,None,0.3909649,,,August8Silent2,22,2022_Aug_08_1513,ProdSingRedoBetween,2021.2.3,59.90064878
,,,,89,0,89,0,,,,,,,,,,,,,,,,,,,,,,899.9127906,None,,,,,,,,,,,,,,,,,youth,103,90,silent,new,null,897.0963717,None,897.0963717,None,5,1.6304566,897.0963717,None,1.6304566,898.7450542,None,899.2512893,None,899.2512893,None,r,0.6355495,899.2512893,None,0.6355495,,,August8Silent2,22,2022_Aug_08_1513,ProdSingRedoBetween,2021.2.3,59.90064878
,,,,90,0,90,0,,,,,,,,,,,,,,,,,,,,,,903.4663895,None,,,,,,,,,,,,,,,,,front,36,91,silent,old,blue,900.4174068,None,900.4174068,None,1,2.2054195,900.4174068,None,2.2054195,902.6501881,None,903.1495007,None,903.1495007,None,n,0.2893788,903.1495007,None,0.2893788,,,August8Silent2,22,2022_Aug_08_1513,ProdSingRedoBetween,2021.2.3,59.90064878
,,,,91,0,91,0,,,,,,,,,,,,,,,,,,,,,,906.1857449,None,,,,,,,,,,,,,,,,,shear,39,92,silent,old,blue,903.9772246,None,903.9772246,None,1,1.3896178,903.9772246,None,1.3896178,905.3872032,None,905.9070273,None,905.9070273,None,n,0.2598777,905.9070273,None,0.2598777,,,August8Silent2,22,2022_Aug_08_1513,ProdSingRedoBetween,2021.2.3,59.90064878
,,,,92,0,92,0,,,,,,,,,,,,,,,,,,,,,,910.2898519,None,,,,,,,,,,,,,,,,,object,143,93,silent,new,null,906.7017808,None,906.7017808,None,1,2.9850991,906.7017808,None,2.9850991,909.7071845,None,910.2108451,None,910.2108451,None,n,0.0519926,910.2108451,None,0.0519926,,,August8Silent2,22,2022_Aug_08_1513,ProdSingRedoBetween,2021.2.3,59.90064878
,,,,93,0,93,0,,,,,,,,,,,,,,,,,,,,,,913.24286,None,,,,,,,,,,,,,,,,,research,132,94,silent,new,null,910.8055403,None,910.8055403,None,5,1.5213109,910.8055403,None,1.5213109,912.3431756,None,912.8440073,None,912.8440073,None,f,0.3708362,912.8440073,None,0.3708362,,,August8Silent2,22,2022_Aug_08_1513,ProdSingRedoBetween,2021.2.3,59.90064878
,,,,94,0,94,0,,,,,,,,,,,,,,,,,,,,,,915.3782149,None,,,,,,,,,,,,,,,,,close,40,95,silent,old,blue,913.7434443,None,913.7434443,None,1,0.9675523,913.7434443,None,0.9675523,914.728641,None,915.2295903,None,915.2295903,None,n,0.1212597,915.2295903,None,0.1212597,,,August8Silent2,22,2022_Aug_08_1513,ProdSingRedoBetween,2021.2.3,59.90064878
,,,,95,0,95,0,,,,,,,,,,,,,,,,,,,,,,918.1977346,None,,,,,,,,,,,,,,,,,property,158,96,silent,new,null,915.8878746,None,915.8878746,None,6,1.5830259,915.8878746,None,1.5830259,917.5012077,None,918.0174957,None,918.0174957,None,r,0.1494442,918.0174957,None,0.1494442,,,August8Silent2,22,2022_Aug_08_1513,ProdSingRedoBetween,2021.2.3,59.90064878
,,,,96,0,96,0,,,,,,,,,,,,,,,,,,,,,,921.251224,None,,,,,,,,,,,,,,,,,production,53,97,silent,old,blue,918.705606,None,918.705606,None,6,1.7572856,918.705606,None,1.7572856,920.4854235,None,921.000769,None,921.000769,None,f,0.2301426,921.000769,None,0.2301426,,,August8Silent2,22,2022_Aug_08_1513,ProdSingRedoBetween,2021.2.3,59.90064878
,,,,97,0,97,0,,,,,,,,,,,,,,,,,,,,,,925.1213343,None,,,,,,,,,,,,,,,,,column,77,98,silent,old,red,921.7570571,None,921.7570571,None,5,2.4500347,921.7570571,None,2.4500347,924.2510019,None,924.7560614,None,924.7560614,None,f,0.346786,924.7560614,None,0.346786,,,August8Silent2,22,2022_Aug_08_1513,ProdSingRedoBetween,2021.2.3,59.90064878
,,,,98,0,98,0,,,,,,,,,,,,,,,,,,,,,,929.2421476,None,,,,,,,,,,,,,,,,,threat,33,99,silent,old,blue,925.6360827,None,925.6360827,None,1,0.9548286,925.6360827,None,0.9548286,926.6103824,None,927.1239492,None,927.1239492,None,n,2.098859,927.1239492,None,2.098859,,,August8Silent2,22,2022_Aug_08_1513,ProdSingRedoBetween,2021.2.3,59.90064878
,,,,99,0,99,0,,,,,,,,,,,,,,,,,,,,,,931.9318528,None,,,,,,,,,,,,,,,,,minute,50,100,silent,old,blue,929.7477246,None,929.7477246,None,1,1.4591568,929.7477246,None,1.4591568,931.244213,None,931.7468362,None,931.7468362,None,n,0.1641408,931.7468362,None,0.1641408,,,August8Silent2,22,2022_Aug_08_1513,ProdSingRedoBetween,2021.2.3,59.90064878
,,,,100,0,100,0,,,,,,,,,,,,,,,,,,,,,,933.9468488,None,,,,,,,,,,,,,,,,,turkey,59,101,silent,old,yellow,932.4555774,None,932.4555774,None,1,0.8632783,932.4555774,None,0.8632783,933.3467095,None,933.8491427,None,933.8491427,None,n,0.0697162,933.8491427,None,0.0697162,,,August8Silent2,22,2022_Aug_08_1513,ProdSingRedoBetween,2021.2.3,59.90064878
,,,,101,0,101,0,,,,,,,,,,,,,,,,,,,,,,937.6505997,None,,,,,,,,,,,,,,,,,taste,27,102,silent,old,yellow,934.4555937,None,934.4555937,None,5,1.8953282,934.4555937,None,1.8953282,936.3657032,None,936.8722506,None,936.8722506,None,f,0.7586522,936.8722506,None,0.7586522,,,August8Silent2,22,2022_Aug_08_1513,ProdSingRedoBetween,2021.2.3,59.90064878
,,,,102,0,102,0,,,,,,,,,,,,,,,,,,,,,,940.5200963,None,,,,,,,,,,,,,,,,,payment,174,103,silent,new,null,938.1661832,None,938.1661832,None,6,1.5847787,938.1661832,None,1.5847787,939.7706693,None,940.2767978,None,940.2767978,None,r,0.2261627,940.2767978,None,0.2261627,,,August8Silent2,22,2022_Aug_08_1513,ProdSingRedoBetween,2021.2.3,59.90064878
,,,,103,0,103,0,,,,,,,,,,,,,,,,,,,,,,942.8390228,None,,,,,,,,,,,,,,,,,poetry,8,104,silent,old,yellow,941.0265225,None,941.0265225,None,1,0.9564037,941.0265225,None,0.9564037,942.0061607,None,942.5095912,None,942.5095912,None,n,0.3053222,942.5095912,None,0.3053222,,,August8Silent2,22,2022_Aug_08_1513,ProdSingRedoBetween,2021.2.3,59.90064878
,,,,104,0,104,0,,,,,,,,,,,,,,,,,,,,,,945.6619559,None,,,,,,,,,,,,,,,,,candidate,99,105,silent,new,null,943.3414701,None,943.3414701,None,6,1.6654696,943.3414701,None,1.6654696,945.0296072,None,945.5445755,None,945.5445755,None,r,0.0862248,945.5445755,None,0.0862248,,,August8Silent2,22,2022_Aug_08_1513,ProdSingRedoBetween,2021.2.3,59.90064878
,,,,105,0,105,0,,,,,,,,,,,,,,,,,,,,,,950.1962469,None,,,,,,,,,,,,,,,,,split,115,106,silent,new,null,946.1832532,None,946.1832532,None,1,1.0556848,946.1832532,None,1.0556848,947.2612656,None,947.7608416,None,947.7608416,None,n,2.4141288,947.7608416,None,2.4141288,,,August8Silent2,22,2022_Aug_08_1513,ProdSingRedoBetween,2021.2.3,59.90064878
,,,,106,0,106,0,,,,,,,,,,,,,,,,,,,,,,953.3829949,None,,,,,,,,,,,,,,,,,conference,151,107,silent,new,null,950.7043426,None,950.7043426,None,5,1.630584,950.7043426,None,1.630584,952.3663726,None,952.8720428,None,952.8720428,None,f,0.4869984,952.8720428,None,0.4869984,,,August8Silent2,22,2022_Aug_08_1513,ProdSingRedoBetween,2021.2.3,59.90064878
,,,,107,0,107,0,,,,,,,,,,,,,,,,,,,,,,956.185552,None,,,,,,,,,,,,,,,,,oxygen,12,108,silent,old,yellow,953.8923754,None,953.8923754,None,1,0.9785812,953.8923754,None,0.9785812,954.9010441,None,955.4058294,None,955.4058294,None,n,0.7531164,955.4058294,None,0.7531164,,,August8Silent2,22,2022_Aug_08_1513,ProdSingRedoBetween,2021.2.3,59.90064878
,,,,108,0,108,0,,,,,,,,,,,,,,,,,,,,,,958.8090387,None,,,,,,,,,,,,,,,,,century,148,109,silent,new,null,956.693402,None,956.693402,None,5,1.3054481,956.693402,None,1.3054481,958.0230241,None,958.5409946,None,958.5409946,None,f,0.2421336,958.5409946,None,0.2421336,,,August8Silent2,22,2022_Aug_08_1513,ProdSingRedoBetween,2021.2.3,59.90064878
,,,,109,0,109,0,,,,,,,,,,,,,,,,,,,,,,960.8806832,None,,,,,,,,,,,,,,,,,swift,167,110,silent,new,null,959.3303234,None,959.3303234,None,1,0.9886365,959.3303234,None,0.9886365,960.345085,None,960.8600086,None,960.8600086,None,n,0.0030488,960.8600086,None,0.0030488,,,August8Silent2,22,2022_Aug_08_1513,ProdSingRedoBetween,2021.2.3,59.90064878
,,,,110,0,110,0,,,,,,,,,,,,,,,,,,,,,,965.8451711,None,,,,,,,,,,,,,,,,,union,123,111,silent,new,null,961.3950538,None,961.3950538,None,1,0.7399476,961.3950538,None,0.7399476,962.1652024,None,962.6757741,None,962.6757741,None,f,3.1391727,962.6757741,None,3.1391727,,,August8Silent2,22,2022_Aug_08_1513,ProdSingRedoBetween,2021.2.3,59.90064878
,,,,111,0,111,0,,,,,,,,,,,,,,,,,,,,,,969.6992551,None,,,,,,,,,,,,,,,,,clean,104,112,silent,new,null,966.3504693,None,966.3504693,None,1,1.1044853,966.3504693,None,1.1044853,967.4807208,None,967.9855649,None,967.9855649,None,n,1.6934846,967.9855649,None,1.6934846,,,August8Silent2,22,2022_Aug_08_1513,ProdSingRedoBetween,2021.2.3,59.90064878
,,,,112,0,112,0,,,,,,,,,,,,,,,,,,,,,,972.5051088,None,,,,,,,,,,,,,,,,,article,171,113,silent,new,null,970.2120694,None,970.2120694,None,5,1.7069634,970.2120694,None,1.7069634,971.9392434,None,972.454362,None,972.454362,None,f,0.0248494,972.454362,None,0.0248494,,,August8Silent2,22,2022_Aug_08_1513,ProdSingRedoBetween,2021.2.3,59.90064878
,,,,113,0,113,0,,,,,,,,,,,,,,,,,,,,,,977.607087,None,,,,,,,,,,,,,,,,,south,113,114,silent,new,null,973.0225694,None,973.0225694,None,6,2.9764037,973.0225694,None,2.9764037,976.0242842,None,976.5396258,None,976.5396258,None,r,1.0433796,976.5396258,None,1.0433796,,,August8Silent2,22,2022_Aug_08_1513,ProdSingRedoBetween,2021.2.3,59.90064878
,,,,114,0,114,0,,,,,,,,,,,,,,,,,,,,,,981.0937717,None,,,,,,,,,,,,,,,,,member,62,115,silent,old,red,978.1145884,None,978.1145884,None,6,1.8203898,978.1145884,None,1.8203898,979.9604813,None,980.4645968,None,980.4645968,None,r,0.6144028,980.4645968,None,0.6144028,,,August8Silent2,22,2022_Aug_08_1513,ProdSingRedoBetween,2021.2.3,59.90064878
,,,,115,0,115,0,,,,,,,,,,,,,,,,,,,,,,984.3139745,None,,,,,,,,,,,,,,,,,death,109,116,silent,new,null,981.6103153,None,981.6103153,None,2,1.0528262,981.6103153,None,1.0528262,982.6812841,None,983.2010527,None,983.2010527,None,n,1.0859393,983.2010527,None,1.0859393,,,August8Silent2,22,2022_Aug_08_1513,ProdSingRedoBetween,2021.2.3,59.90064878
,,,,116,0,116,0,,,,,,,,,,,,,,,,,,,,,,987.4523519,None,,,,,,,,,,,,,,,,,republic,133,117,silent,new,null,984.8217984,None,984.8217984,None,6,1.5931841,984.8217984,None,1.5931841,986.4413984,None,986.9540314,None,986.9540314,None,r,0.4690395,986.9540314,None,0.4690395,,,August8Silent2,22,2022_Aug_08_1513,ProdSingRedoBetween,2021.2.3,59.90064878
,,,,117,0,117,0,,,,,,,,,,,,,,,,,,,,,,989.5381436,None,,,,,,,,,,,,,,,,,produce,134,118,silent,new,null,987.972119,None,987.972119,None,1,0.9548308,987.972119,None,0.9548308,988.9531131,None,989.4538362,None,989.4538362,None,n,0.0652282,989.4538362,None,0.0652282,,,August8Silent2,22,2022_Aug_08_1513,ProdSingRedoBetween,2021.2.3,59.90064878
,,,,118,0,118,0,,,,,,,,,,,,,,,,,,,,,,991.9548741,None,,,,,,,,,,,,,,,,,waste,13,119,silent,old,yellow,990.0581923,None,990.0581923,None,1,0.7328028,990.0581923,None,0.7328028,990.8214091,None,991.3346118,None,991.3346118,None,n,0.5923205,991.3346118,None,0.5923205,,,August8Silent2,22,2022_Aug_08_1513,ProdSingRedoBetween,2021.2.3,59.90064878
,,,,119,0,119,0,,,,,,,,,,,,,,,,,,,,,,996.4927916,None,,,,,,,,,,,,,,,,,collection,140,120,silent,new,null,992.4554931,None,992.4554931,None,5,3.3996948,992.4554931,None,3.3996948,995.8782014,None,996.3957656,None,996.3957656,None,f,0.0671864,996.3957656,None,0.0671864,,,August8Silent2,22,2022_Aug_08_1513,ProdSingRedoBetween,2021.2.3,59.90064878
,,,,120,0,120,0,,,,,,,,,,,,,,,,,,,,,,999.4123089,None,,,,,,,,,,,,,,,,,command,162,121,silent,new,null,997.0023225,None,997.0023225,None,1,1.2606355,997.0023225,None,1.2606355,998.2973974,None,998.8118545,None,998.8118545,None,n,0.5711533,998.8118545,None,0.5711533,,,August8Silent2,22,2022_Aug_08_1513,ProdSingRedoBetween,2021.2.3,59.90064878
,,,,121,0,121,0,,,,,,,,,,,,,,,,,,,,,,1001.630972,None,,,,,,,,,,,,,,,,,cover,76,122,silent,old,red,999.922638,None,999.922638,None,1,1.1002907,999.922638,None,1.1002907,1001.053192,None,1001.567829,None,1001.567829,None,n,0.0473078,1001.567829,None,0.0473078,,,August8Silent2,22,2022_Aug_08_1513,ProdSingRedoBetween,2021.2.3,59.90064878
,,,,122,0,122,0,,,,,,,,,,,,,,,,,,,,,,1004.621522,None,,,,,,,,,,,,,,,,,dispute,90,123,silent,new,null,1002.143877,None,1002.143877,None,5,1.7431467,1002.143877,None,1.7431467,1003.923244,None,1004.441987,None,1004.441987,None,f,0.1571225,1004.441987,None,0.1571225,,,August8Silent2,22,2022_Aug_08_1513,ProdSingRedoBetween,2021.2.3,59.90064878
,,,,123,0,123,0,,,,,,,,,,,,,,,,,,,,,,1007.770669,None,,,,,,,,,,,,,,,,,ground,19,124,silent,old,yellow,1005.138098,None,1005.138098,None,1,0.9248059,1005.138098,None,0.9248059,1006.086642,None,1006.589184,None,1006.589184,None,n,1.1537715,1006.589184,None,1.1537715,,,August8Silent2,22,2022_Aug_08_1513,ProdSingRedoBetween,2021.2.3,59.90064878
,,,,124,0,124,0,,,,,,,,,,,,,,,,,,,,,,1009.658631,None,,,,,,,,,,,,,,,,,angle,4,125,silent,old,yellow,1008.27905,None,1008.27905,None,1,0.7999738,1008.27905,None,0.7999738,1009.111285,None,1009.62262,None,1009.62262,None,n,0.0164793,1009.62262,None,0.0164793,,,August8Silent2,22,2022_Aug_08_1513,ProdSingRedoBetween,2021.2.3,59.90064878
,,,,125,0,125,0,,,,,,,,,,,,,,,,,,,,,,1012.45874,None,,,,,,,,,,,,,,,,,service,84,126,silent,old,red,1010.181326,None,1010.181326,None,5,1.2096385,1010.181326,None,1.2096385,1011.40902,None,1011.908995,None,1011.908995,None,f,0.521951,1011.908995,None,0.521951,,,August8Silent2,22,2022_Aug_08_1513,ProdSingRedoBetween,2021.2.3,59.90064878
,,,,126,0,126,0,,,,,,,,,,,,,,,,,,,,,,1015.595197,None,,,,,,,,,,,,,,,,,review,118,127,silent,new,null,1012.962529,None,1012.962529,None,1,0.7245327,1012.962529,None,0.7245327,1013.715343,None,1014.227316,None,1014.227316,None,n,1.3397681,1014.227316,None,1.3397681,,,August8Silent2,22,2022_Aug_08_1513,ProdSingRedoBetween,2021.2.3,59.90064878
,,,,127,0,127,0,,,,,,,,,,,,,,,,,,,,,,1018.097637,None,,,,,,,,,,,,,,,,,interview,68,128,silent,old,red,1016.113187,None,1016.113187,None,5,1.405841,1016.113187,None,1.405841,1017.550084,None,1018.06662,None,1018.06662,None,f,0.0125073,1018.06662,None,0.0125073,,,August8Silent2,22,2022_Aug_08_1513,ProdSingRedoBetween,2021.2.3,59.90064878
,,,,128,0,128,0,,,,,,,,,,,,,,,,,,,,,,1023.287873,None,,,,,,,,,,,,,,,,,color,18,129,silent,old,yellow,1018.599665,None,1018.599665,None,5,4.1033146,1018.599665,None,4.1033146,1022.719914,None,1023.229576,None,1023.229576,None,f,0.0257202,1023.229576,None,0.0257202,,,August8Silent2,22,2022_Aug_08_1513,ProdSingRedoBetween,2021.2.3,59.90064878
,,,,129,0,129,0,,,,,,,,,,,,,,,,,,,,,,1026.9733,None,,,,,,,,,,,,,,,,,notice,70,130,silent,old,red,1023.805402,None,1023.805402,None,5,2.3856354,1023.805402,None,2.3856354,1026.206812,None,1026.7081,None,1026.7081,None,r,0.2429186,1026.7081,None,0.2429186,,,August8Silent2,22,2022_Aug_08_1513,ProdSingRedoBetween,2021.2.3,59.90064878
,,,,130,0,130,0,,,,,,,,,,,,,,,,,,,,,,1030.361778,None,,,,,,,,,,,,,,,,,drama,72,131,silent,old,red,1027.47815,None,1027.47815,None,1,1.8168859,1027.47815,None,1.8168859,1029.325682,None,1029.827183,None,1029.827183,None,n,0.5158405,1029.827183,None,0.5158405,,,August8Silent2,22,2022_Aug_08_1513,ProdSingRedoBetween,2021.2.3,59.90064878
,,,,131,0,131,0,,,,,,,,,,,,,,,,,,,,,,1033.146023,None,,,,,,,,,,,,,,,,,track,122,132,silent,new,null,1030.882736,None,1030.882736,None,1,1.4444123,1030.882736,None,1.4444123,1032.345747,None,1032.85461,None,1032.85461,None,n,0.2726071,1032.85461,None,0.2726071,,,August8Silent2,22,2022_Aug_08_1513,ProdSingRedoBetween,2021.2.3,59.90064878
,,,,132,0,132,0,,,,,,,,,,,,,,,,,,,,,,1035.565185,None,,,,,,,,,,,,,,,,,staff,172,133,silent,new,null,1033.655954,None,1033.655954,None,5,1.3430855,1033.655954,None,1.3430855,1035.015868,None,1035.519294,None,1035.519294,None,f,0.0237509,1035.519294,None,0.0237509,,,August8Silent2,22,2022_Aug_08_1513,ProdSingRedoBetween,2021.2.3,59.90064878
,,,,133,0,133,0,,,,,,,,,,,,,,,,,,,,,,1038.67161,None,,,,,,,,,,,,,,,,,patient,57,134,silent,old,blue,1036.078806,None,1036.078806,None,6,1.2722276,1036.078806,None,1.2722276,1037.36984,None,1037.890496,None,1037.890496,None,f,0.7486227,1037.890496,None,0.7486227,,,August8Silent2,22,2022_Aug_08_1513,ProdSingRedoBetween,2021.2.3,59.90064878
,,,,134,0,134,0,,,,,,,,,,,,,,,,,,,,,,1042.67226,None,,,,,,,,,,,,,,,,,medicine,23,135,silent,old,yellow,1039.187184,None,1039.187184,None,6,2.0038485,1039.187184,None,2.0038485,1041.222342,None,1041.724918,None,1041.724918,None,f,0.9300617,1041.724918,None,0.9300617,,,August8Silent2,22,2022_Aug_08_1513,ProdSingRedoBetween,2021.2.3,59.90064878
,,,,135,0,135,0,,,,,,,,,,,,,,,,,,,,,,1044.991187,None,,,,,,,,,,,,,,,,,bicycle,117,136,silent,new,null,1043.180545,None,1043.180545,None,1,1.0664509,1043.180545,None,1.0664509,1044.274694,None,1044.778564,None,1044.778564,None,n,0.1884768,1044.778564,None,0.1884768,,,August8Silent2,22,2022_Aug_08_1513,ProdSingRedoBetween,2021.2.3,59.90064878
,,,,136,0,136,0,,,,,,,,,,,,,,,,,,,,,,1047.944234,None,,,,,,,,,,,,,,,,,testimony,98,137,silent,new,null,1045.499291,None,1045.499291,None,1,1.0517698,1045.499291,None,1.0517698,1046.577454,None,1047.084891,None,1047.084891,None,n,0.8421284,1047.084891,None,0.8421284,,,August8Silent2,22,2022_Aug_08_1513,ProdSingRedoBetween,2021.2.3,59.90064878
,,,,137,0,137,0,,,,,,,,,,,,,,,,,,,,,,1051.364337,None,,,,,,,,,,,,,,,,,salary,52,138,silent,old,blue,1048.457451,None,1048.457451,None,5,1.8216064,1048.457451,None,1.8216064,1050.296374,None,1050.80104,None,1050.80104,None,f,0.5340534,1050.80104,None,0.5340534,,,August8Silent2,22,2022_Aug_08_1513,ProdSingRedoBetween,2021.2.3,59.90064878
,,,,138,0,138,0,,,,,,,,,,,,,,,,,,,,,,1054.500793,None,,,,,,,,,,,,,,,,,question,60,139,silent,old,red,1051.867454,None,1051.867454,None,1,1.2836004,1051.867454,None,1.2836004,1053.170596,None,1053.689529,None,1053.689529,None,n,0.7816147,1053.689529,None,0.7816147,,,August8Silent2,22,2022_Aug_08_1513,ProdSingRedoBetween,2021.2.3,59.90064878
,,,,139,0,139,0,,,,,,,,,,,,,,,,,,,,,,1058.590786,None,,,,,,,,,,,,,,,,,trial,65,140,silent,old,red,1055.008339,None,1055.008339,None,5,2.9427181,1055.008339,None,2.9427181,1057.970857,None,1058.471383,None,1058.471383,None,f,0.0956093,1058.471383,None,0.0956093,,,August8Silent2,22,2022_Aug_08_1513,ProdSingRedoBetween,2021.2.3,59.90064878
,,,,140,0,140,0,,,,,,,,,,,,,,,,,,,,,,1061.110502,None,,,,,,,,,,,,,,,,,opening,125,141,silent,new,null,1059.107777,None,1059.107777,None,1,1.0752896,1059.107777,None,1.0752896,1060.207778,None,1060.706981,None,1060.706981,None,n,0.3803033,1060.706981,None,0.3803033,,,August8Silent2,22,2022_Aug_08_1513,ProdSingRedoBetween,2021.2.3,59.90064878
,,,,141,0,141,0,,,,,,,,,,,,,,,,,,,,,,1068.815102,None,,,,,,,,,,,,,,,,,suspect,87,142,silent,old,red,1061.634341,None,1061.634341,None,6,6.5407427,1061.634341,None,6.5407427,1068.198826,None,1068.701867,None,1068.701867,None,f,0.0892529,1068.701867,None,0.0892529,,,August8Silent2,22,2022_Aug_08_1513,ProdSingRedoBetween,2021.2.3,59.90064878
,,,,142,0,142,0,,,,,,,,,,,,,,,,,,,,,,1072.001379,None,,,,,,,,,,,,,,,,,dance,168,143,silent,new,null,1069.327167,None,1069.327167,None,1,1.0878073,1069.327167,None,1.0878073,1070.433361,None,1070.940881,None,1070.940881,None,n,1.034238,1070.940881,None,1.034238,,,August8Silent2,22,2022_Aug_08_1513,ProdSingRedoBetween,2021.2.3,59.90064878
,,,,143,0,143,0,,,,,,,,,,,,,,,,,,,,,,1074.98771,None,,,,,,,,,,,,,,,,,voice,5,144,silent,old,yellow,1072.510799,None,1072.510799,None,1,1.856301,1072.510799,None,1.856301,1074.388587,None,1074.892462,None,1074.892462,None,n,0.0746652,1074.892462,None,0.0746652,,,August8Silent2,22,2022_Aug_08_1513,ProdSingRedoBetween,2021.2.3,59.90064878
,,,,144,0,144,0,,,,,,,,,,,,,,,,,,,,,,1078.941895,None,,,,,,,,,,,,,,,,,course,96,145,silent,new,null,1075.497804,None,1075.497804,None,5,2.0855406,1075.497804,None,2.0855406,1077.612666,None,1078.124275,None,1078.124275,None,f,0.7868045,1078.124275,None,0.7868045,,,August8Silent2,22,2022_Aug_08_1513,ProdSingRedoBetween,2021.2.3,59.90064878
,,,,145,0,145,0,,,,,,,,,,,,,,,,,,,,,,1081.244228,None,,,,,,,,,,,,,,,,,breath,6,146,silent,old,yellow,1079.454588,None,1079.454588,None,1,1.1605026,1079.454588,None,1.1605026,1080.643601,None,1081.14668,None,1081.14668,None,n,0.0764276,1081.14668,None,0.0764276,,,August8Silent2,22,2022_Aug_08_1513,ProdSingRedoBetween,2021.2.3,59.90064878
,,,,146,0,146,0,,,,,,,,,,,,,,,,,,,,,,1086.299254,None,,,,,,,,,,,,,,,,,concern,28,147,silent,old,yellow,1081.752175,None,1081.752175,None,1,3.7188903,1081.752175,None,3.7188903,1085.50064,None,1086.01585,None,1086.01585,None,n,0.2553302,1086.01585,None,0.2553302,,,August8Silent2,22,2022_Aug_08_1513,ProdSingRedoBetween,2021.2.3,59.90064878
,,,,147,0,147,0,,,,,,,,,,,,,,,,,,,,,,1090.386671,None,,,,,,,,,,,,,,,,,graduate,16,148,silent,old,yellow,1086.799875,None,1086.799875,None,1,1.7271189,1086.799875,None,1.7271189,1088.556371,None,1089.068925,None,1089.068925,None,n,1.2981927,1089.068925,None,1.2981927,,,August8Silent2,22,2022_Aug_08_1513,ProdSingRedoBetween,2021.2.3,59.90064878
,,,,148,0,148,0,,,,,,,,,,,,,,,,,,,,,,1093.706546,None,,,,,,,,,,,,,,,,,author,21,149,silent,old,yellow,1090.895279,None,1090.895279,None,5,1.695969,1090.895279,None,1.695969,1092.623784,None,1093.125574,None,1093.125574,None,f,0.5535681,1093.125574,None,0.5535681,,,August8Silent2,22,2022_Aug_08_1513,ProdSingRedoBetween,2021.2.3,59.90064878
,,,,149,0,149,0,,,,,,,,,,,,,,,,,,,,,,1096.058976,None,,,,,,,,,,,,,,,,,silence,146,150,silent,new,null,1094.209875,None,1094.209875,None,1,1.205278,1094.209875,None,1.205278,1095.446026,None,1095.958978,None,1095.958978,None,n,0.0721029,1095.958978,None,0.0721029,,,August8Silent2,22,2022_Aug_08_1513,ProdSingRedoBetween,2021.2.3,59.90064878
,,,,150,0,150,0,,,,,,,,,,,,,,,,,,,,,,1099.433495,None,,,,,,,,,,,,,,,,,title,170,151,silent,new,null,1096.561692,None,1096.561692,None,5,1.7254271,1096.561692,None,1.7254271,1098.313189,None,1098.829656,None,1098.829656,None,n,0.5775592,1098.829656,None,0.5775592,,,August8Silent2,22,2022_Aug_08_1513,ProdSingRedoBetween,2021.2.3,59.90064878
,,,,151,0,151,0,,,,,,,,,,,,,,,,,,,,,,1104.100344,None,,,,,,,,,,,,,,,,,business,41,152,silent,old,blue,1099.961102,None,1099.961102,None,5,2.9580954,1099.961102,None,2.9580954,1102.955924,None,1103.470253,None,1103.470253,None,f,0.6088667,1103.470253,None,0.6088667,,,August8Silent2,22,2022_Aug_08_1513,ProdSingRedoBetween,2021.2.3,59.90064878
,,,,152,0,152,0,,,,,,,,,,,,,,,,,,,,,,1106.185887,None,,,,,,,,,,,,,,,,,story,24,153,silent,old,yellow,1104.610043,None,1104.610043,None,1,1.0050818,1104.610043,None,1.0050818,1105.636552,None,1106.13998,None,1106.13998,None,n,0.0271244,1106.13998,None,0.0271244,,,August8Silent2,22,2022_Aug_08_1513,ProdSingRedoBetween,2021.2.3,59.90064878
,,,,153,0,153,0,,,,,,,,,,,,,,,,,,,,,,1108.938493,None,,,,,,,,,,,,,,,,,display,44,154,silent,old,blue,1106.700558,None,1106.700558,None,1,0.9545435,1106.700558,None,0.9545435,1107.67177,None,1108.175264,None,1108.175264,None,n,0.7358174,1108.175264,None,0.7358174,,,August8Silent2,22,2022_Aug_08_1513,ProdSingRedoBetween,2021.2.3,59.90064878
,,,,154,0,154,0,,,,,,,,,,,,,,,,,,,,,,1111.476018,None,,,,,,,,,,,,,,,,,private,1,155,silent,old,yellow,1109.445382,None,1109.445382,None,1,1.3057299,1109.445382,None,1.3057299,1110.776534,None,1111.297061,None,1111.297061,None,f,0.1500781,1111.297061,None,0.1500781,,,August8Silent2,22,2022_Aug_08_1513,ProdSingRedoBetween,2021.2.3,59.90064878
,,,,155,0,155,0,,,,,,,,,,,,,,,,,,,,,,1116.146945,None,,,,,,,,,,,,,,,,,degree,11,156,silent,old,yellow,1111.992175,None,1111.992175,None,1,1.1110146,1111.992175,None,1.1110146,1113.131498,None,1113.643358,None,1113.643358,None,f,2.4758693,1113.643358,None,2.4758693,,,August8Silent2,22,2022_Aug_08_1513,ProdSingRedoBetween,2021.2.3,59.90064878
,,,,156,0,156,0,,,,,,,,,,,,,,,,,,,,,,1120.14964,None,,,,,,,,,,,,,,,,,junior,108,157,silent,new,null,1116.651939,None,1116.651939,None,1,2.8352193,1116.651939,None,2.8352193,1119.516764,None,1120.016388,None,1120.016388,None,n,0.1026848,1120.016388,None,0.1026848,,,August8Silent2,22,2022_Aug_08_1513,ProdSingRedoBetween,2021.2.3,59.90064878
,,,,157,0,157,0,,,,,,,,,,,,,,,,,,,,,,1123.776044,None,,,,,,,,,,,,,,,,,institute,89,158,silent,old,red,1120.652844,None,1120.652844,None,5,1.3383237,1120.652844,None,1.3383237,1122.019192,None,1122.518653,None,1122.518653,None,f,1.2244224,1122.518653,None,1.2244224,,,August8Silent2,22,2022_Aug_08_1513,ProdSingRedoBetween,2021.2.3,59.90064878
,,,,158,0,158,0,,,,,,,,,,,,,,,,,,,,,,1126.373323,None,,,,,,,,,,,,,,,,,center,120,159,silent,new,null,1124.293886,None,1124.293886,None,1,1.0653509,1124.293886,None,1.0653509,1125.39665,None,1125.909111,None,1125.909111,None,n,0.4339823,1125.909111,None,0.4339823,,,August8Silent2,22,2022_Aug_08_1513,ProdSingRedoBetween,2021.2.3,59.90064878
,,,,159,0,159,0,,,,,,,,,,,,,,,,,,,,,,1128.659226,None,,,,,,,,,,,,,,,,,figure,83,160,silent,old,red,1126.875924,None,1126.875924,None,1,1.1952271,1126.875924,None,1.1952271,1128.09228,None,1128.591443,None,1128.591443,None,n,0.0476108,1128.591443,None,0.0476108,,,August8Silent2,22,2022_Aug_08_1513,ProdSingRedoBetween,2021.2.3,59.90064878
,,,,160,0,160,0,,,,,,,,,,,,,,,,,,,,,,1130.827103,None,,,,,,,,,,,,,,,,,welcome,94,161,silent,new,null,1129.167733,None,1129.167733,None,1,0.9114626,1129.167733,None,0.9114626,1130.115108,None,1130.629811,None,1130.629811,None,n,0.1774392,1130.629811,None,0.1774392,,,August8Silent2,22,2022_Aug_08_1513,ProdSingRedoBetween,2021.2.3,59.90064878
,,,,161,0,161,0,,,,,,,,,,,,,,,,,,,,,,1133.563245,None,,,,,,,,,,,,,,,,,estate,55,162,silent,old,blue,1131.335762,None,1131.335762,None,6,1.487321,1131.335762,None,1.487321,1132.847287,None,1133.351186,None,1133.351186,None,r,0.1839549,1133.351186,None,0.1839549,,,August8Silent2,22,2022_Aug_08_1513,ProdSingRedoBetween,2021.2.3,59.90064878
,,,,162,0,162,0,,,,,,,,,,,,,,,,,,,,,,1136.43264,None,,,,,,,,,,,,,,,,,direction,14,163,silent,old,yellow,1134.070503,None,1134.070503,None,1,1.6328139,1134.070503,None,1.6328139,1135.739451,None,1136.25067,None,1136.25067,None,n,0.1565024,1136.25067,None,0.1565024,,,August8Silent2,22,2022_Aug_08_1513,ProdSingRedoBetween,2021.2.3,59.90064878
,,,,163,0,163,0,,,,,,,,,,,,,,,,,,,,,,1139.435765,None,,,,,,,,,,,,,,,,,accident,144,164,silent,new,null,1136.946775,None,1136.946775,None,1,1.3403832,1136.946775,None,1.3403832,1138.320827,None,1138.842509,None,1138.842509,None,n,0.572652,1138.842509,None,0.572652,,,August8Silent2,22,2022_Aug_08_1513,ProdSingRedoBetween,2021.2.3,59.90064878
,,,,164,0,164,0,,,,,,,,,,,,,,,,,,,,,,1141.904613,None,,,,,,,,,,,,,,,,,little,3,165,silent,old,yellow,1139.940588,None,1139.940588,None,1,1.0987644,1139.940588,None,1.0987644,1141.080139,None,1141.589232,None,1141.589232,None,n,0.2978819,1141.589232,None,0.2978819,,,August8Silent2,22,2022_Aug_08_1513,ProdSingRedoBetween,2021.2.3,59.90064878
,,,,165,0,165,0,,,,,,,,,,,,,,,,,,,,,,1145.291561,None,,,,,,,,,,,,,,,,,pancakes,163,166,silent,new,null,1142.41437,None,1142.41437,None,1,1.5688079,1142.41437,None,1.5688079,1144.010059,None,1144.530315,None,1144.530315,None,n,0.7409505,1144.530315,None,0.7409505,,,August8Silent2,22,2022_Aug_08_1513,ProdSingRedoBetween,2021.2.3,59.90064878
,,,,166,0,166,0,,,,,,,,,,,,,,,,,,,,,,1149.295577,None,,,,,,,,,,,,,,,,,addition,175,167,silent,new,null,1145.799661,None,1145.799661,None,1,2.8794139,1145.799661,None,2.8794139,1148.699078,None,1149.212164,None,1149.212164,None,n,0.0592273,1149.212164,None,0.0592273,,,August8Silent2,22,2022_Aug_08_1513,ProdSingRedoBetween,2021.2.3,59.90064878
,,,,167,0,167,0,,,,,,,,,,,,,,,,,,,,,,1152.365342,None,,,,,,,,,,,,,,,,,worker,154,168,silent,new,null,1149.812692,None,1149.812692,None,6,1.8504607,1149.812692,None,1.8504607,1151.688961,None,1152.198463,None,1152.198463,None,f,0.1448038,1152.198463,None,0.1448038,,,August8Silent2,22,2022_Aug_08_1513,ProdSingRedoBetween,2021.2.3,59.90064878
,,,,168,0,168,0,,,,,,,,,,,,,,,,,,,,,,1155.651921,None,,,,,,,,,,,,,,,,,instrument,67,169,silent,old,red,1152.872013,None,1152.872013,None,1,1.6951147,1152.872013,None,1.6951147,1154.585645,None,1155.089261,None,1155.089261,None,n,0.5339213,1155.089261,None,0.5339213,,,August8Silent2,22,2022_Aug_08_1513,ProdSingRedoBetween,2021.2.3,59.90064878
,,,,169,0,169,0,,,,,,,,,,,,,,,,,,,,,,1158.607888,None,,,,,,,,,,,,,,,,,public,7,170,silent,old,yellow,1156.154186,None,1156.154186,None,6,1.6850074,1156.154186,None,1.6850074,1157.856238,None,1158.374799,None,1158.374799,None,r,0.2084661,1158.374799,None,0.2084661,,,August8Silent2,22,2022_Aug_08_1513,ProdSingRedoBetween,2021.2.3,59.90064878
,,,,170,0,170,0,,,,,,,,,,,,,,,,,,,,,,1161.174122,None,,,,,,,,,,,,,,,,,mechanical,121,171,silent,new,null,1159.124222,None,1159.124222,None,1,1.1229112,1159.124222,None,1.1229112,1160.275167,None,1160.793461,None,1160.793461,None,n,0.3578225,1160.793461,None,0.3578225,,,August8Silent2,22,2022_Aug_08_1513,ProdSingRedoBetween,2021.2.3,59.90064878
,,,,171,0,171,0,,,,,,,,,,,,,,,,,,,,,,1163.826768,None,,,,,,,,,,,,,,,,,disease,129,172,silent,new,null,1161.67597,None,1161.67597,None,1,0.9231644,1161.67597,None,0.9231644,1162.629002,None,1163.142884,None,1163.142884,None,n,0.6562755,1163.142884,None,0.6562755,,,August8Silent2,22,2022_Aug_08_1513,ProdSingRedoBetween,2021.2.3,59.90064878
,,,,172,0,172,0,,,,,,,,,,,,,,,,,,,,,,1168.115363,None,,,,,,,,,,,,,,,,,recall,135,173,silent,new,null,1164.33462,None,1164.33462,None,1,3.1127468,1164.33462,None,3.1127468,1167.469319,None,1167.981081,None,1167.981081,None,n,0.106196,1167.981081,None,0.106196,,,August8Silent2,22,2022_Aug_08_1513,ProdSingRedoBetween,2021.2.3,59.90064878
,,,,173,0,173,0,,,,,,,,,,,,,,,,,,,,,,1171.150763,None,,,,,,,,,,,,,,,,,captain,102,174,silent,new,null,1168.623081,None,1168.623081,None,1,1.5681049,1168.623081,None,1.5681049,1170.217745,None,1170.72357,None,1170.72357,None,n,0.4037216,1170.72357,None,0.4037216,,,August8Silent2,22,2022_Aug_08_1513,ProdSingRedoBetween,2021.2.3,59.90064878
,,,,174,0,174,0,,,,,,,,,,,,,,,,,,,,,,1174.156066,None,,,,,,,,,,,,,,,,,marriage,147,175,silent,new,null,1171.658323,None,1171.658323,None,1,1.8528869,1171.658323,None,1.8528869,1173.536765,None,1174.03777,None,1174.03777,None,n,0.0974981,1174.03777,None,0.0974981,,,August8Silent2,22,2022_Aug_08_1513,ProdSingRedoBetween,2021.2.3,59.90064878
,,,,175,0,175,0,,,,,,,,,,,,,,,,,,,,,,1177.974329,None,,,,,,,,,,,,,,,,,discovery,101,176,silent,new,null,1174.677403,None,1174.677403,None,6,1.3937568,1174.677403,None,1.3937568,1176.090714,None,1176.609376,None,1176.609376,None,r,1.3498541,1176.609376,None,1.3498541,,,August8Silent2,22,2022_Aug_08_1513,ProdSingRedoBetween,2021.2.3,59.90064878
,,,,176,0,176,0,,,,,,,,,,,,,,,,,,,,,,1180.793798,None,,,,,,,,,,,,,,,,,safety,124,177,silent,new,null,1178.478082,None,1178.478082,None,5,1.3771443,1178.478082,None,1.3771443,1179.879284,None,1180.393509,None,1180.393509,None,f,0.3817001,1180.393509,None,0.3817001,,,August8Silent2,22,2022_Aug_08_1513,ProdSingRedoBetween,2021.2.3,59.90064878
,,,,177,0,177,0,,,,,,,,,,,,,,,,,,,,,,1183.379664,None,,,,,,,,,,,,,,,,,reach,63,178,silent,old,red,1181.296932,None,1181.296932,None,1,1.0383285,1181.296932,None,1.0383285,1182.365062,None,1182.87928,None,1182.87928,None,n,0.4800349,1182.87928,None,0.4800349,,,August8Silent2,22,2022_Aug_08_1513,ProdSingRedoBetween,2021.2.3,59.90064878
,,,,178,0,178,0,,,,,,,,,,,,,,,,,,,,,,1185.682009,None,,,,,,,,,,,,,,,,,rural,43,179,silent,old,blue,1183.89136,None,1183.89136,None,1,1.1397969,1183.89136,None,1.1397969,1185.050252,None,1185.565395,None,1185.565395,None,n,0.0898909,1185.565395,None,0.0898909,,,August8Silent2,22,2022_Aug_08_1513,ProdSingRedoBetween,2021.2.3,59.90064878
,,,,179,0,179,0,,,,,,,,,,,,,,,,,,,,,,1190.186435,None,,,,,,,,,,,,,,,,,native,61,180,silent,old,red,1186.182386,None,1186.182386,None,1,1.1608124,1186.182386,None,1.1608124,1187.367668,None,1187.87076,None,1187.87076,None,f,2.2884193,1187.87076,None,2.2884193,,,August8Silent2,22,2022_Aug_08_1513,ProdSingRedoBetween,2021.2.3,59.90064878
,,,,,,,,,,,,,,,,,,,,,,,,,,,,,,,,,,,,,,,,,,,,,,,,,,,,,,,,,,,,,,,,,,,,,,,,,1190.687603,None,,,,,,
