StudyLoop.thisRepN,StudyLoop.thisTrialN,StudyLoop.thisN,StudyLoop.thisIndex,TestLoop.thisRepN,TestLoop.thisTrialN,TestLoop.thisN,TestLoop.thisIndex,textCondition.started,textCondition.stopped,keyCondition.keys,keyCondition.rt,keyCondition.started,keyCondition.stopped,Condition,textWelcome.started,textWelcome.stopped,keyWelcome.keys,keyWelcome.rt,keyWelcome.started,keyWelcome.stopped,textAloud.started,textAloud.stopped,textSilent.started,textSilent.stopped,textSing.started,textSing.stopped,conditional_text.started,conditional_text.stopped,textBlank500.started,textBlank500.stopped,study_word,study_num,study_order,study_type,word_color,textStudy.started,textStudy.stopped,keyStudy.keys,keyStudy.started,keyStudy.stopped,textTestInstructions.started,textTestInstructions.stopped,key_resp_3.keys,key_resp_3.rt,key_resp_3.started,key_resp_3.stopped,test_word,test_num,test_order,test_condition,old_new_test,test_word_original_color,textConf.started,textConf.stopped,textConfScale.started,textConfScale.stopped,keyConf.keys,keyConf.rt,keyConf.started,keyConf.stopped,confidence response time,textTestBlank.started,textTestBlank.stopped,textRKN.started,textRKN.stopped,textRKNScale.started,textRKNScale.stopped,keyRKN.keys,keyRKN.rt,keyRKN.started,keyRKN.stopped,rkn response time,textEnd.started,textEnd.stopped,participant,session,date,expName,psychopyVersion,frameRate
,,,,,,,,53.8884687,None,b,296.3515313,53.8884687,None,,,,,,,,,,,,,,,,,,,,,,,,,,,,,,,,,,,,,,,,,,,,,,,,,,,,,,,,,,,,,,August8Aloud2,23,2022_Aug_08_1534,ProdSingRedoBetween,2021.2.3,60.06547136
,,,,,,,,,,,,,,AloudTest,350.2879467,None,space,11.047813,350.2879467,None,,,,,,,,,,,,,,,,,,,,,,,,,,,,,,,,,,,,,,,,,,,,,,,,,,,,,,,August8Aloud2,23,2022_Aug_08_1534,ProdSingRedoBetween,2021.2.3,60.06547136
0,0,0,0,,,,,,,,,,,,,,,,,,350.2879467,None,350.2879467,None,350.2879467,None,350.2879467,None,363.8757287,None,state,68,1,aloud,red,361.8605285,None,None,361.8605285,None,,,,,,,,,,,,,,,,,,,,,,,,,,,,,,,,,,,August8Aloud2,23,2022_Aug_08_1534,ProdSingRedoBetween,2021.2.3,60.06547136
1,0,1,0,,,,,,,,,,,,,,,,,,,,,,,,,,366.3782311,None,treatment,6,2,aloud,yellow,364.3759911,None,None,364.3759911,None,,,,,,,,,,,,,,,,,,,,,,,,,,,,,,,,,,,August8Aloud2,23,2022_Aug_08_1534,ProdSingRedoBetween,2021.2.3,60.06547136
2,0,2,0,,,,,,,,,,,,,,,,,,,,,,,,,,368.8807247,None,order,24,3,aloud,yellow,366.8790307,None,None,366.8790307,None,,,,,,,,,,,,,,,,,,,,,,,,,,,,,,,,,,,August8Aloud2,23,2022_Aug_08_1534,ProdSingRedoBetween,2021.2.3,60.06547136
3,0,3,0,,,,,,,,,,,,,,,,,,,,,,,,,,371.3999727,None,grade,82,4,aloud,red,369.389796,None,None,369.389796,None,,,,,,,,,,,,,,,,,,,,,,,,,,,,,,,,,,,August8Aloud2,23,2022_Aug_08_1534,ProdSingRedoBetween,2021.2.3,60.06547136
4,0,4,0,,,,,,,,,,,,,,,,,,,,,,,,,,373.9025159,None,empty,14,5,aloud,yellow,371.900458,None,None,371.900458,None,,,,,,,,,,,,,,,,,,,,,,,,,,,,,,,,,,,August8Aloud2,23,2022_Aug_08_1534,ProdSingRedoBetween,2021.2.3,60.06547136
5,0,5,0,,,,,,,,,,,,,,,,,,,,,,,,,,376.4047566,None,store,3,6,aloud,yellow,374.4059796,None,None,374.4059796,None,,,,,,,,,,,,,,,,,,,,,,,,,,,,,,,,,,,August8Aloud2,23,2022_Aug_08_1534,ProdSingRedoBetween,2021.2.3,60.06547136
6,0,6,0,,,,,,,,,,,,,,,,,,,,,,,,,,378.9240091,None,commercial,37,7,aloud,blue,376.9093011,None,None,376.9093011,None,,,,,,,,,,,,,,,,,,,,,,,,,,,,,,,,,,,August8Aloud2,23,2022_Aug_08_1534,ProdSingRedoBetween,2021.2.3,60.06547136
7,0,7,0,,,,,,,,,,,,,,,,,,,,,,,,,,381.4432903,None,fashion,44,8,aloud,blue,379.428091,None,None,379.428091,None,,,,,,,,,,,,,,,,,,,,,,,,,,,,,,,,,,,August8Aloud2,23,2022_Aug_08_1534,ProdSingRedoBetween,2021.2.3,60.06547136
8,0,8,0,,,,,,,,,,,,,,,,,,,,,,,,,,383.9623257,None,health,22,9,aloud,yellow,381.9485371,None,None,381.9485371,None,,,,,,,,,,,,,,,,,,,,,,,,,,,,,,,,,,,August8Aloud2,23,2022_Aug_08_1534,ProdSingRedoBetween,2021.2.3,60.06547136
9,0,9,0,,,,,,,,,,,,,,,,,,,,,,,,,,386.4650053,None,smooth,1,10,aloud,yellow,384.4650473,None,None,384.4650473,None,,,,,,,,,,,,,,,,,,,,,,,,,,,,,,,,,,,August8Aloud2,23,2022_Aug_08_1534,ProdSingRedoBetween,2021.2.3,60.06547136
10,0,10,0,,,,,,,,,,,,,,,,,,,,,,,,,,388.9676123,None,design,42,11,aloud,blue,386.9672705,None,None,386.9672705,None,,,,,,,,,,,,,,,,,,,,,,,,,,,,,,,,,,,August8Aloud2,23,2022_Aug_08_1534,ProdSingRedoBetween,2021.2.3,60.06547136
11,0,11,0,,,,,,,,,,,,,,,,,,,,,,,,,,391.4867393,None,crime,12,12,aloud,yellow,389.4714233,None,None,389.4714233,None,,,,,,,,,,,,,,,,,,,,,,,,,,,,,,,,,,,August8Aloud2,23,2022_Aug_08_1534,ProdSingRedoBetween,2021.2.3,60.06547136
12,0,12,0,,,,,,,,,,,,,,,,,,,,,,,,,,393.98934,None,rural,2,13,aloud,yellow,391.9870063,None,None,391.9870063,None,,,,,,,,,,,,,,,,,,,,,,,,,,,,,,,,,,,August8Aloud2,23,2022_Aug_08_1534,ProdSingRedoBetween,2021.2.3,60.06547136
13,0,13,0,,,,,,,,,,,,,,,,,,,,,,,,,,396.5083576,None,working,4,14,aloud,yellow,394.4993822,None,None,394.4993822,None,,,,,,,,,,,,,,,,,,,,,,,,,,,,,,,,,,,August8Aloud2,23,2022_Aug_08_1534,ProdSingRedoBetween,2021.2.3,60.06547136
14,0,14,0,,,,,,,,,,,,,,,,,,,,,,,,,,399.010976,None,music,85,15,aloud,red,397.0100781,None,None,397.0100781,None,,,,,,,,,,,,,,,,,,,,,,,,,,,,,,,,,,,August8Aloud2,23,2022_Aug_08_1534,ProdSingRedoBetween,2021.2.3,60.06547136
15,0,15,0,,,,,,,,,,,,,,,,,,,,,,,,,,401.5300071,None,character,77,16,aloud,red,399.5153415,None,None,399.5153415,None,,,,,,,,,,,,,,,,,,,,,,,,,,,,,,,,,,,August8Aloud2,23,2022_Aug_08_1534,ProdSingRedoBetween,2021.2.3,60.06547136
16,0,16,0,,,,,,,,,,,,,,,,,,,,,,,,,,404.0326974,None,produce,89,17,aloud,red,402.0307059,None,None,402.0307059,None,,,,,,,,,,,,,,,,,,,,,,,,,,,,,,,,,,,August8Aloud2,23,2022_Aug_08_1534,ProdSingRedoBetween,2021.2.3,60.06547136
17,0,17,0,,,,,,,,,,,,,,,,,,,,,,,,,,406.5518379,None,bureau,10,18,aloud,yellow,404.5365733,None,None,404.5365733,None,,,,,,,,,,,,,,,,,,,,,,,,,,,,,,,,,,,August8Aloud2,23,2022_Aug_08_1534,ProdSingRedoBetween,2021.2.3,60.06547136
18,0,18,0,,,,,,,,,,,,,,,,,,,,,,,,,,409.0710321,None,gesture,32,19,aloud,blue,407.0588758,None,None,407.0588758,None,,,,,,,,,,,,,,,,,,,,,,,,,,,,,,,,,,,August8Aloud2,23,2022_Aug_08_1534,ProdSingRedoBetween,2021.2.3,60.06547136
19,0,19,0,,,,,,,,,,,,,,,,,,,,,,,,,,411.573487,None,personnel,5,20,aloud,yellow,409.5726013,None,None,409.5726013,None,,,,,,,,,,,,,,,,,,,,,,,,,,,,,,,,,,,August8Aloud2,23,2022_Aug_08_1534,ProdSingRedoBetween,2021.2.3,60.06547136
20,0,20,0,,,,,,,,,,,,,,,,,,,,,,,,,,414.075658,None,budget,70,21,aloud,red,412.0737382,None,None,412.0737382,None,,,,,,,,,,,,,,,,,,,,,,,,,,,,,,,,,,,August8Aloud2,23,2022_Aug_08_1534,ProdSingRedoBetween,2021.2.3,60.06547136
21,0,21,0,,,,,,,,,,,,,,,,,,,,,,,,,,416.5784752,None,balance,30,22,aloud,blue,414.5773199,None,None,414.5773199,None,,,,,,,,,,,,,,,,,,,,,,,,,,,,,,,,,,,August8Aloud2,23,2022_Aug_08_1534,ProdSingRedoBetween,2021.2.3,60.06547136
22,0,22,0,,,,,,,,,,,,,,,,,,,,,,,,,,419.0809611,None,tough,48,23,aloud,blue,417.0796017,None,None,417.0796017,None,,,,,,,,,,,,,,,,,,,,,,,,,,,,,,,,,,,August8Aloud2,23,2022_Aug_08_1534,ProdSingRedoBetween,2021.2.3,60.06547136
23,0,23,0,,,,,,,,,,,,,,,,,,,,,,,,,,421.6001599,None,employment,52,24,aloud,blue,419.5855279,None,None,419.5855279,None,,,,,,,,,,,,,,,,,,,,,,,,,,,,,,,,,,,August8Aloud2,23,2022_Aug_08_1534,ProdSingRedoBetween,2021.2.3,60.06547136
24,0,24,0,,,,,,,,,,,,,,,,,,,,,,,,,,424.1190942,None,write,50,25,aloud,blue,422.1046491,None,None,422.1046491,None,,,,,,,,,,,,,,,,,,,,,,,,,,,,,,,,,,,August8Aloud2,23,2022_Aug_08_1534,ProdSingRedoBetween,2021.2.3,60.06547136
25,0,25,0,,,,,,,,,,,,,,,,,,,,,,,,,,426.6218734,None,trial,64,26,aloud,red,424.6198411,None,None,424.6198411,None,,,,,,,,,,,,,,,,,,,,,,,,,,,,,,,,,,,August8Aloud2,23,2022_Aug_08_1534,ProdSingRedoBetween,2021.2.3,60.06547136
26,0,26,0,,,,,,,,,,,,,,,,,,,,,,,,,,429.1243174,None,council,87,27,aloud,red,427.1223193,None,None,427.1223193,None,,,,,,,,,,,,,,,,,,,,,,,,,,,,,,,,,,,August8Aloud2,23,2022_Aug_08_1534,ProdSingRedoBetween,2021.2.3,60.06547136
27,0,27,0,,,,,,,,,,,,,,,,,,,,,,,,,,431.6435259,None,public,47,28,aloud,blue,429.6298675,None,None,429.6298675,None,,,,,,,,,,,,,,,,,,,,,,,,,,,,,,,,,,,August8Aloud2,23,2022_Aug_08_1534,ProdSingRedoBetween,2021.2.3,60.06547136
28,0,28,0,,,,,,,,,,,,,,,,,,,,,,,,,,434.1460543,None,shear,16,29,aloud,yellow,432.1458382,None,None,432.1458382,None,,,,,,,,,,,,,,,,,,,,,,,,,,,,,,,,,,,August8Aloud2,23,2022_Aug_08_1534,ProdSingRedoBetween,2021.2.3,60.06547136
29,0,29,0,,,,,,,,,,,,,,,,,,,,,,,,,,436.6652285,None,foundation,38,30,aloud,blue,434.6507777,None,None,434.6507777,None,,,,,,,,,,,,,,,,,,,,,,,,,,,,,,,,,,,August8Aloud2,23,2022_Aug_08_1534,ProdSingRedoBetween,2021.2.3,60.06547136
30,0,30,0,,,,,,,,,,,,,,,,,,,,,,,,,,439.1677749,None,burden,33,31,aloud,blue,437.1657166,None,None,437.1657166,None,,,,,,,,,,,,,,,,,,,,,,,,,,,,,,,,,,,August8Aloud2,23,2022_Aug_08_1534,ProdSingRedoBetween,2021.2.3,60.06547136
31,0,31,0,,,,,,,,,,,,,,,,,,,,,,,,,,441.6700036,None,school,27,32,aloud,yellow,439.6683272,None,None,439.6683272,None,,,,,,,,,,,,,,,,,,,,,,,,,,,,,,,,,,,August8Aloud2,23,2022_Aug_08_1534,ProdSingRedoBetween,2021.2.3,60.06547136
32,0,32,0,,,,,,,,,,,,,,,,,,,,,,,,,,444.1723858,None,harmony,71,33,aloud,red,442.1707832,None,None,442.1707832,None,,,,,,,,,,,,,,,,,,,,,,,,,,,,,,,,,,,August8Aloud2,23,2022_Aug_08_1534,ProdSingRedoBetween,2021.2.3,60.06547136
33,0,33,0,,,,,,,,,,,,,,,,,,,,,,,,,,446.6918934,None,rough,53,34,aloud,blue,444.6765163,None,None,444.6765163,None,,,,,,,,,,,,,,,,,,,,,,,,,,,,,,,,,,,August8Aloud2,23,2022_Aug_08_1534,ProdSingRedoBetween,2021.2.3,60.06547136
34,0,34,0,,,,,,,,,,,,,,,,,,,,,,,,,,449.2111059,None,addition,15,35,aloud,yellow,447.200711,None,None,447.200711,None,,,,,,,,,,,,,,,,,,,,,,,,,,,,,,,,,,,August8Aloud2,23,2022_Aug_08_1534,ProdSingRedoBetween,2021.2.3,60.06547136
35,0,35,0,,,,,,,,,,,,,,,,,,,,,,,,,,451.7135819,None,still,61,36,aloud,red,449.7122644,None,None,449.7122644,None,,,,,,,,,,,,,,,,,,,,,,,,,,,,,,,,,,,August8Aloud2,23,2022_Aug_08_1534,ProdSingRedoBetween,2021.2.3,60.06547136
36,0,36,0,,,,,,,,,,,,,,,,,,,,,,,,,,454.2160086,None,property,55,37,aloud,blue,452.2138491,None,None,452.2138491,None,,,,,,,,,,,,,,,,,,,,,,,,,,,,,,,,,,,August8Aloud2,23,2022_Aug_08_1534,ProdSingRedoBetween,2021.2.3,60.06547136
37,0,37,0,,,,,,,,,,,,,,,,,,,,,,,,,,456.7186644,None,court,20,38,aloud,yellow,454.7174043,None,None,454.7174043,None,,,,,,,,,,,,,,,,,,,,,,,,,,,,,,,,,,,August8Aloud2,23,2022_Aug_08_1534,ProdSingRedoBetween,2021.2.3,60.06547136
38,0,38,0,,,,,,,,,,,,,,,,,,,,,,,,,,459.2211357,None,finance,81,39,aloud,red,457.2189706,None,None,457.2189706,None,,,,,,,,,,,,,,,,,,,,,,,,,,,,,,,,,,,August8Aloud2,23,2022_Aug_08_1534,ProdSingRedoBetween,2021.2.3,60.06547136
39,0,39,0,,,,,,,,,,,,,,,,,,,,,,,,,,461.7235883,None,committee,17,40,aloud,yellow,459.7230703,None,None,459.7230703,None,,,,,,,,,,,,,,,,,,,,,,,,,,,,,,,,,,,August8Aloud2,23,2022_Aug_08_1534,ProdSingRedoBetween,2021.2.3,60.06547136
40,0,40,0,,,,,,,,,,,,,,,,,,,,,,,,,,464.2262984,None,number,25,41,aloud,yellow,462.2241178,None,None,462.2241178,None,,,,,,,,,,,,,,,,,,,,,,,,,,,,,,,,,,,August8Aloud2,23,2022_Aug_08_1534,ProdSingRedoBetween,2021.2.3,60.06547136
41,0,41,0,,,,,,,,,,,,,,,,,,,,,,,,,,466.7286754,None,theme,11,42,aloud,yellow,464.7273593,None,None,464.7273593,None,,,,,,,,,,,,,,,,,,,,,,,,,,,,,,,,,,,August8Aloud2,23,2022_Aug_08_1534,ProdSingRedoBetween,2021.2.3,60.06547136
42,0,42,0,,,,,,,,,,,,,,,,,,,,,,,,,,469.2478197,None,youth,84,43,aloud,red,467.2329808,None,None,467.2329808,None,,,,,,,,,,,,,,,,,,,,,,,,,,,,,,,,,,,August8Aloud2,23,2022_Aug_08_1534,ProdSingRedoBetween,2021.2.3,60.06547136
43,0,43,0,,,,,,,,,,,,,,,,,,,,,,,,,,471.7670112,None,evidence,13,44,aloud,yellow,469.7527465,None,None,469.7527465,None,,,,,,,,,,,,,,,,,,,,,,,,,,,,,,,,,,,August8Aloud2,23,2022_Aug_08_1534,ProdSingRedoBetween,2021.2.3,60.06547136
44,0,44,0,,,,,,,,,,,,,,,,,,,,,,,,,,474.2861838,None,department,65,45,aloud,red,472.2711057,None,None,472.2711057,None,,,,,,,,,,,,,,,,,,,,,,,,,,,,,,,,,,,August8Aloud2,23,2022_Aug_08_1534,ProdSingRedoBetween,2021.2.3,60.06547136
45,0,45,0,,,,,,,,,,,,,,,,,,,,,,,,,,476.7886429,None,author,69,46,aloud,red,474.7877363,None,None,474.7877363,None,,,,,,,,,,,,,,,,,,,,,,,,,,,,,,,,,,,August8Aloud2,23,2022_Aug_08_1534,ProdSingRedoBetween,2021.2.3,60.06547136
46,0,46,0,,,,,,,,,,,,,,,,,,,,,,,,,,479.2912455,None,waste,36,47,aloud,blue,477.2918291,None,None,477.2918291,None,,,,,,,,,,,,,,,,,,,,,,,,,,,,,,,,,,,August8Aloud2,23,2022_Aug_08_1534,ProdSingRedoBetween,2021.2.3,60.06547136
47,0,47,0,,,,,,,,,,,,,,,,,,,,,,,,,,481.7936001,None,individual,73,48,aloud,red,479.794148,None,None,479.794148,None,,,,,,,,,,,,,,,,,,,,,,,,,,,,,,,,,,,August8Aloud2,23,2022_Aug_08_1534,ProdSingRedoBetween,2021.2.3,60.06547136
48,0,48,0,,,,,,,,,,,,,,,,,,,,,,,,,,484.2961177,None,skill,76,49,aloud,red,482.2942036,None,None,482.2942036,None,,,,,,,,,,,,,,,,,,,,,,,,,,,,,,,,,,,August8Aloud2,23,2022_Aug_08_1534,ProdSingRedoBetween,2021.2.3,60.06547136
49,0,49,0,,,,,,,,,,,,,,,,,,,,,,,,,,486.798692,None,growth,60,50,aloud,red,484.7966973,None,None,484.7966973,None,,,,,,,,,,,,,,,,,,,,,,,,,,,,,,,,,,,August8Aloud2,23,2022_Aug_08_1534,ProdSingRedoBetween,2021.2.3,60.06547136
50,0,50,0,,,,,,,,,,,,,,,,,,,,,,,,,,489.3010166,None,household,46,51,aloud,blue,487.2993667,None,None,487.2993667,None,,,,,,,,,,,,,,,,,,,,,,,,,,,,,,,,,,,August8Aloud2,23,2022_Aug_08_1534,ProdSingRedoBetween,2021.2.3,60.06547136
51,0,51,0,,,,,,,,,,,,,,,,,,,,,,,,,,491.8037107,None,dream,59,52,aloud,yellow,489.8036867,None,None,489.8036867,None,,,,,,,,,,,,,,,,,,,,,,,,,,,,,,,,,,,August8Aloud2,23,2022_Aug_08_1534,ProdSingRedoBetween,2021.2.3,60.06547136
52,0,52,0,,,,,,,,,,,,,,,,,,,,,,,,,,494.3062914,None,running,74,53,aloud,red,492.3042823,None,None,492.3042823,None,,,,,,,,,,,,,,,,,,,,,,,,,,,,,,,,,,,August8Aloud2,23,2022_Aug_08_1534,ProdSingRedoBetween,2021.2.3,60.06547136
53,0,53,0,,,,,,,,,,,,,,,,,,,,,,,,,,496.8256108,None,colonel,26,54,aloud,yellow,494.8109817,None,None,494.8109817,None,,,,,,,,,,,,,,,,,,,,,,,,,,,,,,,,,,,August8Aloud2,23,2022_Aug_08_1534,ProdSingRedoBetween,2021.2.3,60.06547136
54,0,54,0,,,,,,,,,,,,,,,,,,,,,,,,,,499.3278669,None,solution,0,55,aloud,yellow,497.3274235,None,None,497.3274235,None,,,,,,,,,,,,,,,,,,,,,,,,,,,,,,,,,,,August8Aloud2,23,2022_Aug_08_1534,ProdSingRedoBetween,2021.2.3,60.06547136
55,0,55,0,,,,,,,,,,,,,,,,,,,,,,,,,,501.846856,None,short,80,56,aloud,red,499.8362253,None,None,499.8362253,None,,,,,,,,,,,,,,,,,,,,,,,,,,,,,,,,,,,August8Aloud2,23,2022_Aug_08_1534,ProdSingRedoBetween,2021.2.3,60.06547136
56,0,56,0,,,,,,,,,,,,,,,,,,,,,,,,,,504.3495301,None,block,83,57,aloud,red,502.347648,None,None,502.347648,None,,,,,,,,,,,,,,,,,,,,,,,,,,,,,,,,,,,August8Aloud2,23,2022_Aug_08_1534,ProdSingRedoBetween,2021.2.3,60.06547136
57,0,57,0,,,,,,,,,,,,,,,,,,,,,,,,,,506.8688613,None,bicycle,75,58,aloud,red,504.8538494,None,None,504.8538494,None,,,,,,,,,,,,,,,,,,,,,,,,,,,,,,,,,,,August8Aloud2,23,2022_Aug_08_1534,ProdSingRedoBetween,2021.2.3,60.06547136
58,0,58,0,,,,,,,,,,,,,,,,,,,,,,,,,,509.3879494,None,sleep,8,59,aloud,yellow,507.3808929,None,None,507.3808929,None,,,,,,,,,,,,,,,,,,,,,,,,,,,,,,,,,,,August8Aloud2,23,2022_Aug_08_1534,ProdSingRedoBetween,2021.2.3,60.06547136
59,0,59,0,,,,,,,,,,,,,,,,,,,,,,,,,,511.8905618,None,center,58,60,aloud,blue,509.8885305,None,None,509.8885305,None,,,,,,,,,,,,,,,,,,,,,,,,,,,,,,,,,,,August8Aloud2,23,2022_Aug_08_1534,ProdSingRedoBetween,2021.2.3,60.06547136
60,0,60,0,,,,,,,,,,,,,,,,,,,,,,,,,,514.4095946,None,height,66,61,aloud,red,512.3943749,None,None,512.3943749,None,,,,,,,,,,,,,,,,,,,,,,,,,,,,,,,,,,,August8Aloud2,23,2022_Aug_08_1534,ProdSingRedoBetween,2021.2.3,60.06547136
61,0,61,0,,,,,,,,,,,,,,,,,,,,,,,,,,516.9121294,None,division,56,62,aloud,blue,514.910152,None,None,514.910152,None,,,,,,,,,,,,,,,,,,,,,,,,,,,,,,,,,,,August8Aloud2,23,2022_Aug_08_1534,ProdSingRedoBetween,2021.2.3,60.06547136
62,0,62,0,,,,,,,,,,,,,,,,,,,,,,,,,,519.4147505,None,engineer,72,63,aloud,red,517.4126672,None,None,517.4126672,None,,,,,,,,,,,,,,,,,,,,,,,,,,,,,,,,,,,August8Aloud2,23,2022_Aug_08_1534,ProdSingRedoBetween,2021.2.3,60.06547136
63,0,63,0,,,,,,,,,,,,,,,,,,,,,,,,,,521.9338424,None,murder,18,64,aloud,yellow,519.9181434,None,None,519.9181434,None,,,,,,,,,,,,,,,,,,,,,,,,,,,,,,,,,,,August8Aloud2,23,2022_Aug_08_1534,ProdSingRedoBetween,2021.2.3,60.06547136
64,0,64,0,,,,,,,,,,,,,,,,,,,,,,,,,,524.4363341,None,second,31,65,aloud,blue,522.4340379,None,None,522.4340379,None,,,,,,,,,,,,,,,,,,,,,,,,,,,,,,,,,,,August8Aloud2,23,2022_Aug_08_1534,ProdSingRedoBetween,2021.2.3,60.06547136
65,0,65,0,,,,,,,,,,,,,,,,,,,,,,,,,,526.9388119,None,business,43,66,aloud,blue,524.9370874,None,None,524.9370874,None,,,,,,,,,,,,,,,,,,,,,,,,,,,,,,,,,,,August8Aloud2,23,2022_Aug_08_1534,ProdSingRedoBetween,2021.2.3,60.06547136
66,0,66,0,,,,,,,,,,,,,,,,,,,,,,,,,,529.4415293,None,course,54,67,aloud,blue,527.4400342,None,None,527.4400342,None,,,,,,,,,,,,,,,,,,,,,,,,,,,,,,,,,,,August8Aloud2,23,2022_Aug_08_1534,ProdSingRedoBetween,2021.2.3,60.06547136
67,0,67,0,,,,,,,,,,,,,,,,,,,,,,,,,,531.943812,None,guide,49,68,aloud,blue,529.943856,None,None,529.943856,None,,,,,,,,,,,,,,,,,,,,,,,,,,,,,,,,,,,August8Aloud2,23,2022_Aug_08_1534,ProdSingRedoBetween,2021.2.3,60.06547136
68,0,68,0,,,,,,,,,,,,,,,,,,,,,,,,,,534.4462877,None,ground,28,69,aloud,yellow,532.4443683,None,None,532.4443683,None,,,,,,,,,,,,,,,,,,,,,,,,,,,,,,,,,,,August8Aloud2,23,2022_Aug_08_1534,ProdSingRedoBetween,2021.2.3,60.06547136
69,0,69,0,,,,,,,,,,,,,,,,,,,,,,,,,,536.9655984,None,crowd,39,70,aloud,blue,534.9516279,None,None,534.9516279,None,,,,,,,,,,,,,,,,,,,,,,,,,,,,,,,,,,,August8Aloud2,23,2022_Aug_08_1534,ProdSingRedoBetween,2021.2.3,60.06547136
70,0,70,0,,,,,,,,,,,,,,,,,,,,,,,,,,539.4681154,None,sound,41,71,aloud,blue,537.4684247,None,None,537.4684247,None,,,,,,,,,,,,,,,,,,,,,,,,,,,,,,,,,,,August8Aloud2,23,2022_Aug_08_1534,ProdSingRedoBetween,2021.2.3,60.06547136
71,0,71,0,,,,,,,,,,,,,,,,,,,,,,,,,,541.9871839,None,escape,7,72,aloud,yellow,539.9729485,None,None,539.9729485,None,,,,,,,,,,,,,,,,,,,,,,,,,,,,,,,,,,,August8Aloud2,23,2022_Aug_08_1534,ProdSingRedoBetween,2021.2.3,60.06547136
72,0,72,0,,,,,,,,,,,,,,,,,,,,,,,,,,544.4898561,None,notice,35,73,aloud,blue,542.4878213,None,None,542.4878213,None,,,,,,,,,,,,,,,,,,,,,,,,,,,,,,,,,,,August8Aloud2,23,2022_Aug_08_1534,ProdSingRedoBetween,2021.2.3,60.06547136
73,0,73,0,,,,,,,,,,,,,,,,,,,,,,,,,,546.9923105,None,career,51,74,aloud,blue,544.9929984,None,None,544.9929984,None,,,,,,,,,,,,,,,,,,,,,,,,,,,,,,,,,,,August8Aloud2,23,2022_Aug_08_1534,ProdSingRedoBetween,2021.2.3,60.06547136
74,0,74,0,,,,,,,,,,,,,,,,,,,,,,,,,,549.4947877,None,dispute,86,75,aloud,red,547.4950285,None,None,547.4950285,None,,,,,,,,,,,,,,,,,,,,,,,,,,,,,,,,,,,August8Aloud2,23,2022_Aug_08_1534,ProdSingRedoBetween,2021.2.3,60.06547136
75,0,75,0,,,,,,,,,,,,,,,,,,,,,,,,,,551.9972363,None,conference,78,76,aloud,red,549.9968557,None,None,549.9968557,None,,,,,,,,,,,,,,,,,,,,,,,,,,,,,,,,,,,August8Aloud2,23,2022_Aug_08_1534,ProdSingRedoBetween,2021.2.3,60.06547136
76,0,76,0,,,,,,,,,,,,,,,,,,,,,,,,,,554.4996878,None,background,23,77,aloud,yellow,552.4994188,None,None,552.4994188,None,,,,,,,,,,,,,,,,,,,,,,,,,,,,,,,,,,,August8Aloud2,23,2022_Aug_08_1534,ProdSingRedoBetween,2021.2.3,60.06547136
77,0,77,0,,,,,,,,,,,,,,,,,,,,,,,,,,557.0021722,None,science,62,78,aloud,red,555.0002121,None,None,555.0002121,None,,,,,,,,,,,,,,,,,,,,,,,,,,,,,,,,,,,August8Aloud2,23,2022_Aug_08_1534,ProdSingRedoBetween,2021.2.3,60.06547136
78,0,78,0,,,,,,,,,,,,,,,,,,,,,,,,,,559.5048547,None,recall,21,79,aloud,yellow,557.5027725,None,None,557.5027725,None,,,,,,,,,,,,,,,,,,,,,,,,,,,,,,,,,,,August8Aloud2,23,2022_Aug_08_1534,ProdSingRedoBetween,2021.2.3,60.06547136
79,0,79,0,,,,,,,,,,,,,,,,,,,,,,,,,,562.007394,None,whole,57,80,aloud,blue,560.0067119,None,None,560.0067119,None,,,,,,,,,,,,,,,,,,,,,,,,,,,,,,,,,,,August8Aloud2,23,2022_Aug_08_1534,ProdSingRedoBetween,2021.2.3,60.06547136
80,0,80,0,,,,,,,,,,,,,,,,,,,,,,,,,,564.509754,None,account,34,81,aloud,blue,562.5078351,None,None,562.5078351,None,,,,,,,,,,,,,,,,,,,,,,,,,,,,,,,,,,,August8Aloud2,23,2022_Aug_08_1534,ProdSingRedoBetween,2021.2.3,60.06547136
81,0,81,0,,,,,,,,,,,,,,,,,,,,,,,,,,567.0289042,None,equipment,88,82,aloud,red,565.0208546,None,None,565.0208546,None,,,,,,,,,,,,,,,,,,,,,,,,,,,,,,,,,,,August8Aloud2,23,2022_Aug_08_1534,ProdSingRedoBetween,2021.2.3,60.06547136
82,0,82,0,,,,,,,,,,,,,,,,,,,,,,,,,,569.548108,None,express,9,83,aloud,yellow,567.5338469,None,None,567.5338469,None,,,,,,,,,,,,,,,,,,,,,,,,,,,,,,,,,,,August8Aloud2,23,2022_Aug_08_1534,ProdSingRedoBetween,2021.2.3,60.06547136
83,0,83,0,,,,,,,,,,,,,,,,,,,,,,,,,,572.0673524,None,platform,29,84,aloud,blue,570.0518435,None,None,570.0518435,None,,,,,,,,,,,,,,,,,,,,,,,,,,,,,,,,,,,August8Aloud2,23,2022_Aug_08_1534,ProdSingRedoBetween,2021.2.3,60.06547136
84,0,84,0,,,,,,,,,,,,,,,,,,,,,,,,,,574.5694852,None,count,19,85,aloud,yellow,572.5678723,None,None,572.5678723,None,,,,,,,,,,,,,,,,,,,,,,,,,,,,,,,,,,,August8Aloud2,23,2022_Aug_08_1534,ProdSingRedoBetween,2021.2.3,60.06547136
85,0,85,0,,,,,,,,,,,,,,,,,,,,,,,,,,577.0889984,None,institute,45,86,aloud,blue,575.0889362,None,None,575.0889362,None,,,,,,,,,,,,,,,,,,,,,,,,,,,,,,,,,,,August8Aloud2,23,2022_Aug_08_1534,ProdSingRedoBetween,2021.2.3,60.06547136
86,0,86,0,,,,,,,,,,,,,,,,,,,,,,,,,,579.5914177,None,message,67,87,aloud,red,577.5896381,None,None,577.5896381,None,,,,,,,,,,,,,,,,,,,,,,,,,,,,,,,,,,,August8Aloud2,23,2022_Aug_08_1534,ProdSingRedoBetween,2021.2.3,60.06547136
87,0,87,0,,,,,,,,,,,,,,,,,,,,,,,,,,582.1105339,None,nature,63,88,aloud,red,580.095389,None,None,580.095389,None,,,,,,,,,,,,,,,,,,,,,,,,,,,,,,,,,,,August8Aloud2,23,2022_Aug_08_1534,ProdSingRedoBetween,2021.2.3,60.06547136
88,0,88,0,,,,,,,,,,,,,,,,,,,,,,,,,,584.6299429,None,payment,40,89,aloud,blue,582.6181452,None,None,582.6181452,None,,,,,,,,,,,,,,,,,,,,,,,,,,,,,,,,,,,August8Aloud2,23,2022_Aug_08_1534,ProdSingRedoBetween,2021.2.3,60.06547136
89,0,89,0,,,,,,,,,,,,,,,,,,,,,,,,,,587.149029,None,member,79,90,aloud,red,585.1370763,None,None,585.1370763,None,,,,,,,,,,,,,,,,,,,,,,,,,,,,,,,,,,,August8Aloud2,23,2022_Aug_08_1534,ProdSingRedoBetween,2021.2.3,60.06547136
,,,,,,,,,,,,,,,,,,,,,,,,,,,,,,,,,,,,,,,,,587.6500189,None,k,120.6541638,587.6500189,None,,,,,,,,,,,,,,,,,,,,,,,,,,,,,August8Aloud2,23,2022_Aug_08_1534,ProdSingRedoBetween,2021.2.3,60.06547136
,,,,0,0,0,0,,,,,,,,,,,,,,,,,,,,,,724.1694805,None,,,,,,,,,,,,,,,,,empty,14,1,aloud,old,yellow,708.8207198,None,708.8207198,None,6,13.0675038,708.8207198,None,13.0675038,721.9215423,None,722.4345163,None,722.4345163,None,r,1.7176534,722.4345163,None,1.7176534,,,August8Aloud2,23,2022_Aug_08_1534,ProdSingRedoBetween,2021.2.3,60.06547136
,,,,1,0,1,0,,,,,,,,,,,,,,,,,,,,,,732.778036,None,,,,,,,,,,,,,,,,,fashion,44,2,aloud,old,blue,724.6787041,None,724.6787041,None,3,6.2814203,724.6787041,None,6.2814203,730.9772949,None,731.4774346,None,731.4774346,None,f,1.2749518,731.4774346,None,1.2749518,,,August8Aloud2,23,2022_Aug_08_1534,ProdSingRedoBetween,2021.2.3,60.06547136
,,,,2,0,2,0,,,,,,,,,,,,,,,,,,,,,,737.3181628,None,,,,,,,,,,,,,,,,,gesture,32,3,aloud,old,blue,733.2814833,None,733.2814833,None,6,2.4308107,733.2814833,None,2.4308107,735.7352137,None,736.2489595,None,736.2489595,None,r,1.0471195,736.2489595,None,1.0471195,,,August8Aloud2,23,2022_Aug_08_1534,ProdSingRedoBetween,2021.2.3,60.06547136
,,,,3,0,3,0,,,,,,,,,,,,,,,,,,,,,,745.1737693,None,,,,,,,,,,,,,,,,,marriage,153,4,aloud,new,null,737.8442151,None,737.8442151,None,2,4.2438317,737.8442151,None,4.2438317,742.1051254,None,742.6074613,None,742.6074613,None,f,2.5447446,742.6074613,None,2.5447446,,,August8Aloud2,23,2022_Aug_08_1534,ProdSingRedoBetween,2021.2.3,60.06547136
,,,,4,0,4,0,,,,,,,,,,,,,,,,,,,,,,749.1276931,None,,,,,,,,,,,,,,,,,agency,149,5,aloud,new,null,745.6835925,None,745.6835925,None,1,2.172537,745.6835925,None,2.172537,747.8767621,None,748.3787808,None,748.3787808,None,n,0.7334613,748.3787808,None,0.7334613,,,August8Aloud2,23,2022_Aug_08_1534,ProdSingRedoBetween,2021.2.3,60.06547136
,,,,5,0,5,0,,,,,,,,,,,,,,,,,,,,,,752.7896373,None,,,,,,,,,,,,,,,,,shock,119,6,aloud,new,null,749.6315705,None,749.6315705,None,1,2.3207769,749.6315705,None,2.3207769,751.9911625,None,752.4979071,None,752.4979071,None,n,0.262337,752.4979071,None,0.262337,,,August8Aloud2,23,2022_Aug_08_1534,ProdSingRedoBetween,2021.2.3,60.06547136
,,,,6,0,6,0,,,,,,,,,,,,,,,,,,,,,,756.2348942,None,,,,,,,,,,,,,,,,,growth,60,7,aloud,old,red,753.2995252,None,753.2995252,None,6,2.2126863,753.2995252,None,2.2126863,755.5370309,None,756.0513228,None,756.0513228,None,r,0.1648118,756.0513228,None,0.1648118,,,August8Aloud2,23,2022_Aug_08_1534,ProdSingRedoBetween,2021.2.3,60.06547136
,,,,7,0,7,0,,,,,,,,,,,,,,,,,,,,,,761.2397681,None,,,,,,,,,,,,,,,,,blind,117,8,aloud,new,null,756.7441316,None,756.7441316,None,1,2.7040648,756.7441316,None,2.7040648,759.4812282,None,759.9884391,None,759.9884391,None,n,1.2277838,759.9884391,None,1.2277838,,,August8Aloud2,23,2022_Aug_08_1534,ProdSingRedoBetween,2021.2.3,60.06547136
,,,,8,0,8,0,,,,,,,,,,,,,,,,,,,,,,766.4450468,None,,,,,,,,,,,,,,,,,notice,35,9,aloud,old,blue,761.7442902,None,761.7442902,None,6,1.4878467,761.7442902,None,1.4878467,763.2594157,None,763.761455,None,763.761455,None,r,2.6627692,763.761455,None,2.6627692,,,August8Aloud2,23,2022_Aug_08_1534,ProdSingRedoBetween,2021.2.3,60.06547136
,,,,9,0,9,0,,,,,,,,,,,,,,,,,,,,,,771.4501857,None,,,,,,,,,,,,,,,,,harmony,71,10,aloud,old,red,766.9531647,None,766.9531647,None,1,3.3510353,766.9531647,None,3.3510353,770.3322632,None,770.832864,None,770.832864,None,n,0.5993443,770.832864,None,0.5993443,,,August8Aloud2,23,2022_Aug_08_1534,ProdSingRedoBetween,2021.2.3,60.06547136
,,,,10,0,10,0,,,,,,,,,,,,,,,,,,,,,,778.0566308,None,,,,,,,,,,,,,,,,,surprise,169,11,aloud,new,null,771.9516623,None,771.9516623,None,3,4.624621,771.9516623,None,4.624621,776.6061452,None,777.1113406,None,777.1113406,None,f,0.9288045,777.1113406,None,0.9288045,,,August8Aloud2,23,2022_Aug_08_1534,ProdSingRedoBetween,2021.2.3,60.06547136
,,,,11,0,11,0,,,,,,,,,,,,,,,,,,,,,,782.3943481,None,,,,,,,,,,,,,,,,,finish,109,12,aloud,new,null,778.5697584,None,778.5697584,None,1,2.8544708,778.5697584,None,2.8544708,781.4443817,None,781.9574196,None,781.9574196,None,n,0.4108102,781.9574196,None,0.4108102,,,August8Aloud2,23,2022_Aug_08_1534,ProdSingRedoBetween,2021.2.3,60.06547136
,,,,12,0,12,0,,,,,,,,,,,,,,,,,,,,,,787.0823838,None,,,,,,,,,,,,,,,,,youth,84,13,aloud,old,red,782.9040093,None,782.9040093,None,6,1.9442554,782.9040093,None,1.9442554,784.8671716,None,785.3883639,None,785.3883639,None,r,1.6758128,785.3883639,None,1.6758128,,,August8Aloud2,23,2022_Aug_08_1534,ProdSingRedoBetween,2021.2.3,60.06547136
,,,,13,0,13,0,,,,,,,,,,,,,,,,,,,,,,791.9227297,None,,,,,,,,,,,,,,,,,junior,137,14,aloud,new,null,787.5882495,None,787.5882495,None,1,3.2440036,787.5882495,None,3.2440036,790.8538335,None,791.3534307,None,791.3534307,None,n,0.5511573,791.3534307,None,0.5511573,,,August8Aloud2,23,2022_Aug_08_1534,ProdSingRedoBetween,2021.2.3,60.06547136
,,,,14,0,14,0,,,,,,,,,,,,,,,,,,,,,,795.173777,None,,,,,,,,,,,,,,,,,science,62,15,aloud,old,red,792.4512468,None,792.4512468,None,6,1.5731027,792.4512468,None,1.5731027,794.0455633,None,794.5580205,None,794.5580205,None,r,0.5863212,794.5580205,None,0.5863212,,,August8Aloud2,23,2022_Aug_08_1534,ProdSingRedoBetween,2021.2.3,60.06547136
,,,,15,0,15,0,,,,,,,,,,,,,,,,,,,,,,798.3603052,None,,,,,,,,,,,,,,,,,music,85,16,aloud,old,red,795.6843558,None,795.6843558,None,3,1.7798698,795.6843558,None,1.7798698,797.4936223,None,797.998609,None,797.998609,None,f,0.3376797,797.998609,None,0.3376797,,,August8Aloud2,23,2022_Aug_08_1534,ProdSingRedoBetween,2021.2.3,60.06547136
,,,,16,0,16,0,,,,,,,,,,,,,,,,,,,,,,801.4145495,None,,,,,,,,,,,,,,,,,build,107,17,aloud,new,null,798.8688856,None,798.8688856,None,6,1.6914171,798.8688856,None,1.6914171,800.5791412,None,801.0825764,None,801.0825764,None,r,0.3097451,801.0825764,None,0.3097451,,,August8Aloud2,23,2022_Aug_08_1534,ProdSingRedoBetween,2021.2.3,60.06547136
,,,,17,0,17,0,,,,,,,,,,,,,,,,,,,,,,805.383752,None,,,,,,,,,,,,,,,,,alert,113,18,aloud,new,null,801.915574,None,801.915574,None,3,2.5566335,801.915574,None,2.5566335,804.4998696,None,805.0023477,None,805.0023477,None,f,0.357985,805.0023477,None,0.357985,,,August8Aloud2,23,2022_Aug_08_1534,ProdSingRedoBetween,2021.2.3,60.06547136
,,,,18,0,18,0,,,,,,,,,,,,,,,,,,,,,,808.553614,None,,,,,,,,,,,,,,,,,piece,176,19,aloud,new,null,805.902425,None,805.902425,None,1,1.6498474,805.902425,None,1.6498474,807.5707835,None,808.075123,None,808.075123,None,n,0.4612023,808.075123,None,0.4612023,,,August8Aloud2,23,2022_Aug_08_1534,ProdSingRedoBetween,2021.2.3,60.06547136
,,,,19,0,19,0,,,,,,,,,,,,,,,,,,,,,,812.1574458,None,,,,,,,,,,,,,,,,,count,19,20,aloud,old,yellow,809.0570005,None,809.0570005,None,6,2.1912602,809.0570005,None,2.1912602,811.2729577,None,811.7743354,None,811.7743354,None,r,0.3538895,811.7743354,None,0.3538895,,,August8Aloud2,23,2022_Aug_08_1534,ProdSingRedoBetween,2021.2.3,60.06547136
,,,,20,0,20,0,,,,,,,,,,,,,,,,,,,,,,815.5271546,None,,,,,,,,,,,,,,,,,edition,139,21,aloud,new,null,812.66338,None,812.66338,None,1,1.8408271,812.66338,None,1.8408271,814.5268055,None,815.0270334,None,815.0270334,None,n,0.4691203,815.0270334,None,0.4691203,,,August8Aloud2,23,2022_Aug_08_1534,ProdSingRedoBetween,2021.2.3,60.06547136
,,,,21,0,21,0,,,,,,,,,,,,,,,,,,,,,,820.3656256,None,,,,,,,,,,,,,,,,,guide,49,22,aloud,old,blue,816.0355968,None,816.0355968,None,3,3.3409883,816.0355968,None,3.3409883,819.4100524,None,819.9153756,None,819.9153756,None,f,0.4209199,819.9153756,None,0.4209199,,,August8Aloud2,23,2022_Aug_08_1534,ProdSingRedoBetween,2021.2.3,60.06547136
,,,,22,0,22,0,,,,,,,,,,,,,,,,,,,,,,824.0359263,None,,,,,,,,,,,,,,,,,private,143,23,aloud,new,null,820.8791079,None,820.8791079,None,1,2.2332555,820.8791079,None,2.2332555,823.1424456,None,823.6570458,None,823.6570458,None,n,0.3592496,823.6570458,None,0.3592496,,,August8Aloud2,23,2022_Aug_08_1534,ProdSingRedoBetween,2021.2.3,60.06547136
,,,,23,0,23,0,,,,,,,,,,,,,,,,,,,,,,829.2244923,None,,,,,,,,,,,,,,,,,session,147,24,aloud,new,null,824.5472379,None,824.5472379,None,1,3.3010525,824.5472379,None,3.3010525,827.8744215,None,828.3792484,None,828.3792484,None,n,0.8291593,828.3792484,None,0.8291593,,,August8Aloud2,23,2022_Aug_08_1534,ProdSingRedoBetween,2021.2.3,60.06547136
,,,,24,0,24,0,,,,,,,,,,,,,,,,,,,,,,833.7119779,None,,,,,,,,,,,,,,,,,degree,166,25,aloud,new,null,829.7326656,None,829.7326656,None,3,3.211593,829.7326656,None,3.211593,832.961695,None,833.4725704,None,833.4725704,None,f,0.2235863,833.4725704,None,0.2235863,,,August8Aloud2,23,2022_Aug_08_1534,ProdSingRedoBetween,2021.2.3,60.06547136
,,,,25,0,25,0,,,,,,,,,,,,,,,,,,,,,,837.6543729,None,,,,,,,,,,,,,,,,,trash,93,26,aloud,new,null,834.2151396,None,834.2151396,None,1,2.5851944,834.2151396,None,2.5851944,836.8159821,None,837.3203359,None,837.3203359,None,n,0.304134,837.3203359,None,0.304134,,,August8Aloud2,23,2022_Aug_08_1534,ProdSingRedoBetween,2021.2.3,60.06547136
,,,,26,0,26,0,,,,,,,,,,,,,,,,,,,,,,840.3688719,None,,,,,,,,,,,,,,,,,institute,45,27,aloud,old,blue,838.1730086,None,838.1730086,None,6,1.4672862,838.1730086,None,1.4672862,839.6690689,None,840.168676,None,840.168676,None,r,0.1837969,840.168676,None,0.1837969,,,August8Aloud2,23,2022_Aug_08_1534,ProdSingRedoBetween,2021.2.3,60.06547136
,,,,27,0,27,0,,,,,,,,,,,,,,,,,,,,,,843.2716817,None,,,,,,,,,,,,,,,,,sleep,8,28,aloud,old,yellow,840.884059,None,840.884059,None,6,1.532428,840.884059,None,1.532428,842.4437342,None,842.9548345,None,842.9548345,None,r,0.3016038,842.9548345,None,0.3016038,,,August8Aloud2,23,2022_Aug_08_1534,ProdSingRedoBetween,2021.2.3,60.06547136
,,,,28,0,28,0,,,,,,,,,,,,,,,,,,,,,,846.0615148,None,,,,,,,,,,,,,,,,,council,87,29,aloud,old,red,843.7750423,None,843.7750423,None,6,1.3295873,843.7750423,None,1.3295873,845.1285335,None,845.6427241,None,845.6427241,None,r,0.3978452,845.6427241,None,0.3978452,,,August8Aloud2,23,2022_Aug_08_1534,ProdSingRedoBetween,2021.2.3,60.06547136
,,,,29,0,29,0,,,,,,,,,,,,,,,,,,,,,,849.4468748,None,,,,,,,,,,,,,,,,,industry,178,30,aloud,new,null,846.5869731,None,846.5869731,None,1,1.9092958,846.5869731,None,1.9092958,848.5284433,None,849.0347532,None,849.0347532,None,n,0.3898464,849.0347532,None,0.3898464,,,August8Aloud2,23,2022_Aug_08_1534,ProdSingRedoBetween,2021.2.3,60.06547136
,,,,30,0,30,0,,,,,,,,,,,,,,,,,,,,,,852.7843614,None,,,,,,,,,,,,,,,,,majority,100,31,aloud,new,null,849.9654859,None,849.9654859,None,1,1.8028642,849.9654859,None,1.8028642,851.798277,None,852.3101339,None,852.3101339,None,n,0.4502539,852.3101339,None,0.4502539,,,August8Aloud2,23,2022_Aug_08_1534,ProdSingRedoBetween,2021.2.3,60.06547136
,,,,31,0,31,0,,,,,,,,,,,,,,,,,,,,,,856.8187834,None,,,,,,,,,,,,,,,,,quantity,127,32,aloud,new,null,853.3011508,None,853.3011508,None,3,2.867243,853.3011508,None,2.867243,856.1847332,None,856.6854802,None,856.6854802,None,f,0.1069574,856.6854802,None,0.1069574,,,August8Aloud2,23,2022_Aug_08_1534,ProdSingRedoBetween,2021.2.3,60.06547136
,,,,32,0,32,0,,,,,,,,,,,,,,,,,,,,,,860.8060618,None,,,,,,,,,,,,,,,,,sound,41,33,aloud,old,blue,857.3276877,None,857.3276877,None,3,2.5448964,857.3276877,None,2.5448964,859.8985875,None,860.4057977,None,860.4057977,None,f,0.3786819,860.4057977,None,0.3786819,,,August8Aloud2,23,2022_Aug_08_1534,ProdSingRedoBetween,2021.2.3,60.06547136
,,,,33,0,33,0,,,,,,,,,,,,,,,,,,,,,,864.9770935,None,,,,,,,,,,,,,,,,,character,77,34,aloud,old,red,861.3127107,None,861.3127107,None,3,2.8875748,861.3127107,None,2.8875748,864.2260495,None,864.7291979,None,864.7291979,None,f,0.2233065,864.7291979,None,0.2233065,,,August8Aloud2,23,2022_Aug_08_1534,ProdSingRedoBetween,2021.2.3,60.06547136
,,,,34,0,34,0,,,,,,,,,,,,,,,,,,,,,,867.7630509,None,,,,,,,,,,,,,,,,,business,43,35,aloud,old,blue,865.4840316,None,865.4840316,None,6,1.6843517,865.4840316,None,1.6843517,867.1990483,None,867.7131228,None,867.7131228,None,r,0.0312396,867.7131228,None,0.0312396,,,August8Aloud2,23,2022_Aug_08_1534,ProdSingRedoBetween,2021.2.3,60.06547136
,,,,35,0,35,0,,,,,,,,,,,,,,,,,,,,,,870.5004422,None,,,,,,,,,,,,,,,,,personnel,5,36,aloud,old,yellow,868.2664005,None,868.2664005,None,6,1.2699779,868.2664005,None,1.2699779,869.5655873,None,870.0704151,None,870.0704151,None,r,0.4101004,870.0704151,None,0.4101004,,,August8Aloud2,23,2022_Aug_08_1534,ProdSingRedoBetween,2021.2.3,60.06547136
,,,,36,0,36,0,,,,,,,,,,,,,,,,,,,,,,874.3529454,None,,,,,,,,,,,,,,,,,phrase,128,37,aloud,new,null,871.0075169,None,871.0075169,None,3,2.5209285,871.0075169,None,2.5209285,873.5574507,None,874.0727245,None,874.0727245,None,f,0.2556411,874.0727245,None,0.2556411,,,August8Aloud2,23,2022_Aug_08_1534,ProdSingRedoBetween,2021.2.3,60.06547136
,,,,37,0,37,0,,,,,,,,,,,,,,,,,,,,,,879.5267285,None,,,,,,,,,,,,,,,,,carry,158,38,aloud,new,null,874.8579633,None,874.8579633,None,3,3.8544065,874.8579633,None,3.8544065,878.7421606,None,879.2413243,None,879.2413243,None,f,0.2632967,879.2413243,None,0.2632967,,,August8Aloud2,23,2022_Aug_08_1534,ProdSingRedoBetween,2021.2.3,60.06547136
,,,,38,0,38,0,,,,,,,,,,,,,,,,,,,,,,888.1167471,None,,,,,,,,,,,,,,,,,congress,114,39,aloud,new,null,880.0578804,None,880.0578804,None,1,7.2545168,880.0578804,None,7.2545168,887.3388361,None,887.85431,None,887.85431,None,n,0.2420587,887.85431,None,0.2420587,,,August8Aloud2,23,2022_Aug_08_1534,ProdSingRedoBetween,2021.2.3,60.06547136
,,,,39,0,39,0,,,,,,,,,,,,,,,,,,,,,,891.5032831,None,,,,,,,,,,,,,,,,,debate,125,40,aloud,new,null,888.6171845,None,888.6171845,None,1,1.9032099,888.6171845,None,1.9032099,890.542908,None,891.0548504,None,891.0548504,None,n,0.4176689,891.0548504,None,0.4176689,,,August8Aloud2,23,2022_Aug_08_1534,ProdSingRedoBetween,2021.2.3,60.06547136
,,,,40,0,40,0,,,,,,,,,,,,,,,,,,,,,,895.1738544,None,,,,,,,,,,,,,,,,,tough,48,41,aloud,old,blue,892.0098458,None,892.0098458,None,6,2.3107556,892.0098458,None,2.3107556,894.3397257,None,894.8441869,None,894.8441869,None,r,0.30017,894.8441869,None,0.30017,,,August8Aloud2,23,2022_Aug_08_1534,ProdSingRedoBetween,2021.2.3,60.06547136
,,,,41,0,41,0,,,,,,,,,,,,,,,,,,,,,,901.7301394,None,,,,,,,,,,,,,,,,,nature,63,42,aloud,old,red,895.6902028,None,895.6902028,None,6,5.1741644,895.6902028,None,5.1741644,900.8792837,None,901.3800207,None,901.3800207,None,r,0.3242927,901.3800207,None,0.3242927,,,August8Aloud2,23,2022_Aug_08_1534,ProdSingRedoBetween,2021.2.3,60.06547136
,,,,42,0,42,0,,,,,,,,,,,,,,,,,,,,,,904.9834772,None,,,,,,,,,,,,,,,,,education,115,43,aloud,new,null,902.2496789,None,902.2496789,None,6,1.7827804,902.2496789,None,1.7827804,904.0495856,None,904.5500402,None,904.5500402,None,r,0.4103272,904.5500402,None,0.4103272,,,August8Aloud2,23,2022_Aug_08_1534,ProdSingRedoBetween,2021.2.3,60.06547136
,,,,43,0,43,0,,,,,,,,,,,,,,,,,,,,,,909.8218457,None,,,,,,,,,,,,,,,,,number,25,44,aloud,old,yellow,905.484016,None,905.484016,None,1,3.2683789,905.484016,None,3.2683789,908.770642,None,909.2801374,None,909.2801374,None,n,0.5122375,909.2801374,None,0.5122375,,,August8Aloud2,23,2022_Aug_08_1534,ProdSingRedoBetween,2021.2.3,60.06547136
,,,,44,0,44,0,,,,,,,,,,,,,,,,,,,,,,912.9249379,None,,,,,,,,,,,,,,,,,individual,73,45,aloud,old,red,910.323063,None,910.323063,None,6,1.5971847,910.323063,None,1.5971847,911.9402596,None,912.4411287,None,912.4411287,None,r,0.4632339,912.4411287,None,0.4632339,,,August8Aloud2,23,2022_Aug_08_1534,ProdSingRedoBetween,2021.2.3,60.06547136
,,,,45,0,45,0,,,,,,,,,,,,,,,,,,,,,,916.9118799,None,,,,,,,,,,,,,,,,,husband,144,46,aloud,new,null,913.4254198,None,913.4254198,None,1,2.5268889,913.4254198,None,2.5268889,915.9778631,None,916.4783661,None,916.4783661,None,n,0.4179907,916.4783661,None,0.4179907,,,August8Aloud2,23,2022_Aug_08_1534,ProdSingRedoBetween,2021.2.3,60.06547136
,,,,46,0,46,0,,,,,,,,,,,,,,,,,,,,,,920.9330943,None,,,,,,,,,,,,,,,,,running,74,47,aloud,old,red,917.4127363,None,917.4127363,None,1,2.5718439,917.4127363,None,2.5718439,920.015719,None,920.5158652,None,920.5158652,None,n,0.3965292,920.5158652,None,0.3965292,,,August8Aloud2,23,2022_Aug_08_1534,ProdSingRedoBetween,2021.2.3,60.06547136
,,,,47,0,47,0,,,,,,,,,,,,,,,,,,,,,,925.2871107,None,,,,,,,,,,,,,,,,,height,66,48,aloud,old,red,921.4334056,None,921.4334056,None,1,2.8229371,921.4334056,None,2.8229371,924.2861515,None,924.7866547,None,924.7866547,None,n,0.4777346,924.7866547,None,0.4777346,,,August8Aloud2,23,2022_Aug_08_1534,ProdSingRedoBetween,2021.2.3,60.06547136
,,,,48,0,48,0,,,,,,,,,,,,,,,,,,,,,,932.9616674,None,,,,,,,,,,,,,,,,,nation,157,49,aloud,new,null,925.7877727,None,925.7877727,None,6,5.6446352,925.7877727,None,5.6446352,931.4612143,None,931.9607705,None,931.9607705,None,f,0.9836676,931.9607705,None,0.9836676,,,August8Aloud2,23,2022_Aug_08_1534,ProdSingRedoBetween,2021.2.3,60.06547136
,,,,49,0,49,0,,,,,,,,,,,,,,,,,,,,,,936.3648139,None,,,,,,,,,,,,,,,,,provision,124,50,aloud,new,null,933.4674802,None,933.4674802,None,1,1.9808437,933.4674802,None,1.9808437,935.465023,None,935.9675092,None,935.9675092,None,n,0.3688294,935.9675092,None,0.3688294,,,August8Aloud2,23,2022_Aug_08_1534,ProdSingRedoBetween,2021.2.3,60.06547136
,,,,50,0,50,0,,,,,,,,,,,,,,,,,,,,,,943.2386608,None,,,,,,,,,,,,,,,,,trail,90,51,aloud,new,null,936.8653076,None,936.8653076,None,3,4.2630376,936.8653076,None,4.2630376,941.1532898,None,941.6536558,None,941.6536558,None,f,1.5627153,941.6536558,None,1.5627153,,,August8Aloud2,23,2022_Aug_08_1534,ProdSingRedoBetween,2021.2.3,60.06547136
,,,,51,0,51,0,,,,,,,,,,,,,,,,,,,,,,946.2247959,None,,,,,,,,,,,,,,,,,quarter,177,52,aloud,new,null,943.768731,None,943.768731,None,1,1.4315964,943.768731,None,1.4315964,945.2246073,None,945.7245865,None,945.7245865,None,n,0.4838277,945.7245865,None,0.4838277,,,August8Aloud2,23,2022_Aug_08_1534,ProdSingRedoBetween,2021.2.3,60.06547136
,,,,52,0,52,0,,,,,,,,,,,,,,,,,,,,,,949.4115279,None,,,,,,,,,,,,,,,,,research,116,53,aloud,new,null,946.7253398,None,946.7253398,None,6,1.8270626,946.7253398,None,1.8270626,948.5770975,None,949.0778227,None,949.0778227,None,r,0.3146908,949.0778227,None,0.3146908,,,August8Aloud2,23,2022_Aug_08_1534,ProdSingRedoBetween,2021.2.3,60.06547136
,,,,53,0,53,0,,,,,,,,,,,,,,,,,,,,,,953.7019887,None,,,,,,,,,,,,,,,,,dispute,86,54,aloud,old,red,949.9117517,None,949.9117517,None,1,2.9526319,949.9117517,None,2.9526319,952.8812223,None,953.3841868,None,953.3841868,None,n,0.2881788,953.3841868,None,0.2881788,,,August8Aloud2,23,2022_Aug_08_1534,ProdSingRedoBetween,2021.2.3,60.06547136
,,,,54,0,54,0,,,,,,,,,,,,,,,,,,,,,,961.6406377,None,,,,,,,,,,,,,,,,,budget,70,55,aloud,old,red,954.2162788,None,954.2162788,None,6,6.4881486,954.2162788,None,6.4881486,960.7273009,None,961.2399422,None,961.2399422,None,r,0.3844851,961.2399422,None,0.3844851,,,August8Aloud2,23,2022_Aug_08_1534,ProdSingRedoBetween,2021.2.3,60.06547136
,,,,55,0,55,0,,,,,,,,,,,,,,,,,,,,,,965.8611682,None,,,,,,,,,,,,,,,,,state,68,56,aloud,old,red,962.1406048,None,962.1406048,None,2,1.795796,962.1406048,None,1.795796,963.9591855,None,964.4599122,None,964.4599122,None,f,1.380532,964.4599122,None,1.380532,,,August8Aloud2,23,2022_Aug_08_1534,ProdSingRedoBetween,2021.2.3,60.06547136
,,,,56,0,56,0,,,,,,,,,,,,,,,,,,,,,,969.4981314,None,,,,,,,,,,,,,,,,,mankind,175,57,aloud,new,null,966.372405,None,966.372405,None,1,1.8759159,966.372405,None,1.8759159,968.2689675,None,968.7833463,None,968.7833463,None,n,0.697121,968.7833463,None,0.697121,,,August8Aloud2,23,2022_Aug_08_1534,ProdSingRedoBetween,2021.2.3,60.06547136
,,,,57,0,57,0,,,,,,,,,,,,,,,,,,,,,,972.9847739,None,,,,,,,,,,,,,,,,,bicycle,75,58,aloud,old,red,970.010926,None,970.010926,None,6,2.053551,970.010926,None,2.053551,972.085378,None,972.5904422,None,972.5904422,None,r,0.378063,972.5904422,None,0.378063,,,August8Aloud2,23,2022_Aug_08_1534,ProdSingRedoBetween,2021.2.3,60.06547136
,,,,58,0,58,0,,,,,,,,,,,,,,,,,,,,,,976.872166,None,,,,,,,,,,,,,,,,,safety,156,59,aloud,new,null,973.5029487,None,973.5029487,None,3,2.6095297,973.5029487,None,2.6095297,976.1440048,None,976.6554435,None,976.6554435,None,f,0.1930569,976.6554435,None,0.1930569,,,August8Aloud2,23,2022_Aug_08_1534,ProdSingRedoBetween,2021.2.3,60.06547136
,,,,59,0,59,0,,,,,,,,,,,,,,,,,,,,,,979.4752772,None,,,,,,,,,,,,,,,,,bureau,10,60,aloud,old,yellow,977.3757306,None,977.3757306,None,6,1.3368813,977.3757306,None,1.3368813,978.746107,None,979.2641822,None,979.2641822,None,r,0.1922817,979.2641822,None,0.1922817,,,August8Aloud2,23,2022_Aug_08_1534,ProdSingRedoBetween,2021.2.3,60.06547136
,,,,60,0,60,0,,,,,,,,,,,,,,,,,,,,,,983.5320913,None,,,,,,,,,,,,,,,,,government,133,61,aloud,new,null,979.9936247,None,979.9936247,None,4,2.782868,979.9936247,None,2.782868,982.7975878,None,983.317071,None,983.317071,None,f,0.1953393,983.317071,None,0.1953393,,,August8Aloud2,23,2022_Aug_08_1534,ProdSingRedoBetween,2021.2.3,60.06547136
,,,,61,0,61,0,,,,,,,,,,,,,,,,,,,,,,986.4982603,None,,,,,,,,,,,,,,,,,report,92,62,aloud,new,null,984.0485909,None,984.0485909,None,6,1.5119426,984.0485909,None,1.5119426,985.5819525,None,986.0816003,None,986.0816003,None,r,0.3988824,986.0816003,None,0.3988824,,,August8Aloud2,23,2022_Aug_08_1534,ProdSingRedoBetween,2021.2.3,60.06547136
,,,,62,0,62,0,,,,,,,,,,,,,,,,,,,,,,992.3873233,None,,,,,,,,,,,,,,,,,write,50,63,aloud,old,blue,987.002012,None,987.002012,None,6,4.3586948,987.002012,None,4.3586948,991.3874865,None,991.8883935,None,991.8883935,None,r,0.4720768,991.8883935,None,0.4720768,,,August8Aloud2,23,2022_Aug_08_1534,ProdSingRedoBetween,2021.2.3,60.06547136
,,,,63,0,63,0,,,,,,,,,,,,,,,,,,,,,,997.0586432,None,,,,,,,,,,,,,,,,,plane,162,64,aloud,new,null,992.8884251,None,992.8884251,None,2,2.7601391,992.8884251,None,2.7601391,995.6793997,None,996.1914099,None,996.1914099,None,n,0.8411422,996.1914099,None,0.8411422,,,August8Aloud2,23,2022_Aug_08_1534,ProdSingRedoBetween,2021.2.3,60.06547136
,,,,64,0,64,0,,,,,,,,,,,,,,,,,,,,,,1001.213088,None,,,,,,,,,,,,,,,,,resistance,152,65,aloud,new,null,997.5710535,None,997.5710535,None,1,2.6695583,997.5710535,None,2.6695583,1000.272052,None,1000.782758,None,1000.782758,None,n,0.4097659,1000.782758,None,0.4097659,,,August8Aloud2,23,2022_Aug_08_1534,ProdSingRedoBetween,2021.2.3,60.06547136
,,,,65,0,65,0,,,,,,,,,,,,,,,,,,,,,,1007.58626,None,,,,,,,,,,,,,,,,,short,80,66,aloud,old,red,1001.724899,None,1001.724899,None,1,4.6755904,1001.724899,None,4.6755904,1006.418848,None,1006.918918,None,1006.918918,None,f,0.6495661,1006.918918,None,0.6495661,,,August8Aloud2,23,2022_Aug_08_1534,ProdSingRedoBetween,2021.2.3,60.06547136
,,,,66,0,66,0,,,,,,,,,,,,,,,,,,,,,,1011.139571,None,,,,,,,,,,,,,,,,,still,61,67,aloud,old,red,1008.090771,None,1008.090771,None,1,2.2057749,1008.090771,None,2.2057749,1010.322234,None,1010.822944,None,1010.822944,None,f,0.2896282,1010.822944,None,0.2896282,,,August8Aloud2,23,2022_Aug_08_1534,ProdSingRedoBetween,2021.2.3,60.06547136
,,,,67,0,67,0,,,,,,,,,,,,,,,,,,,,,,1014.209337,None,,,,,,,,,,,,,,,,,level,95,68,aloud,new,null,1011.642731,None,1011.642731,None,6,1.7739055,1011.642731,None,1.7739055,1013.446117,None,1013.959198,None,1013.959198,None,r,0.2252747,1013.959198,None,0.2252747,,,August8Aloud2,23,2022_Aug_08_1534,ProdSingRedoBetween,2021.2.3,60.06547136
,,,,68,0,68,0,,,,,,,,,,,,,,,,,,,,,,1018.180135,None,,,,,,,,,,,,,,,,,principal,118,69,aloud,new,null,1014.719024,None,1014.719024,None,6,2.7134763,1014.719024,None,2.7134763,1017.463458,None,1017.967338,None,1017.967338,None,r,0.1932558,1017.967338,None,0.1932558,,,August8Aloud2,23,2022_Aug_08_1534,ProdSingRedoBetween,2021.2.3,60.06547136
,,,,69,0,69,0,,,,,,,,,,,,,,,,,,,,,,1021.466588,None,,,,,,,,,,,,,,,,,portion,154,70,aloud,new,null,1018.693808,None,1018.693808,None,1,1.9148236,1018.693808,None,1.9148236,1020.642099,None,1021.150375,None,1021.150375,None,n,0.2982179,1021.150375,None,0.2982179,,,August8Aloud2,23,2022_Aug_08_1534,ProdSingRedoBetween,2021.2.3,60.06547136
,,,,70,0,70,0,,,,,,,,,,,,,,,,,,,,,,1024.089154,None,,,,,,,,,,,,,,,,,design,42,71,aloud,old,blue,1021.967361,None,1021.967361,None,6,1.425141,1021.967361,None,1.425141,1023.418399,None,1023.926336,None,1023.926336,None,r,0.1303344,1023.926336,None,0.1303344,,,August8Aloud2,23,2022_Aug_08_1534,ProdSingRedoBetween,2021.2.3,60.06547136
,,,,71,0,71,0,,,,,,,,,,,,,,,,,,,,,,1027.455721,None,,,,,,,,,,,,,,,,,taste,165,72,aloud,new,null,1024.612366,None,1024.612366,None,1,1.940225,1024.612366,None,1.940225,1026.57979,None,1027.088982,None,1027.088982,None,n,0.3515297,1027.088982,None,0.3515297,,,August8Aloud2,23,2022_Aug_08_1534,ProdSingRedoBetween,2021.2.3,60.06547136
,,,,72,0,72,0,,,,,,,,,,,,,,,,,,,,,,1030.358973,None,,,,,,,,,,,,,,,,,emergency,136,73,aloud,new,null,1027.964268,None,1027.964268,None,1,1.5882862,1027.964268,None,1.5882862,1029.575802,None,1030.085928,None,1030.085928,None,n,0.2426324,1030.085928,None,0.2426324,,,August8Aloud2,23,2022_Aug_08_1534,ProdSingRedoBetween,2021.2.3,60.06547136
,,,,73,0,73,0,,,,,,,,,,,,,,,,,,,,,,1034.846859,None,,,,,,,,,,,,,,,,,object,159,74,aloud,new,null,1030.862491,None,1030.862491,None,1,3.0742125,1030.862491,None,3.0742125,1033.96572,None,1034.479931,None,1034.479931,None,n,0.3446914,1034.479931,None,0.3446914,,,August8Aloud2,23,2022_Aug_08_1534,ProdSingRedoBetween,2021.2.3,60.06547136
,,,,74,0,74,0,,,,,,,,,,,,,,,,,,,,,,1043.924248,None,,,,,,,,,,,,,,,,,public,47,75,aloud,old,blue,1035.350423,None,1035.350423,None,6,7.8821236,1035.350423,None,7.8821236,1043.261943,None,1043.772455,None,1043.772455,None,f,0.1321415,1043.772455,None,0.1321415,,,August8Aloud2,23,2022_Aug_08_1534,ProdSingRedoBetween,2021.2.3,60.06547136
,,,,75,0,75,0,,,,,,,,,,,,,,,,,,,,,,1046.59195,None,,,,,,,,,,,,,,,,,order,24,76,aloud,old,yellow,1044.439512,None,1044.439512,None,6,1.4412143,1044.439512,None,1.4412143,1045.914226,None,1046.431255,None,1046.431255,None,r,0.1293572,1046.431255,None,0.1293572,,,August8Aloud2,23,2022_Aug_08_1534,ProdSingRedoBetween,2021.2.3,60.06547136
,,,,76,0,76,0,,,,,,,,,,,,,,,,,,,,,,1049.361595,None,,,,,,,,,,,,,,,,,committee,17,77,aloud,old,yellow,1047.102002,None,1047.102002,None,6,1.2185945,1047.102002,None,1.2185945,1048.346649,None,1048.860975,None,1048.860975,None,r,0.4835516,1048.860975,None,0.4835516,,,August8Aloud2,23,2022_Aug_08_1534,ProdSingRedoBetween,2021.2.3,60.06547136
,,,,77,0,77,0,,,,,,,,,,,,,,,,,,,,,,1051.915163,None,,,,,,,,,,,,,,,,,rural,2,78,aloud,old,yellow,1049.866381,None,1049.866381,None,6,1.0781544,1049.866381,None,1.0781544,1050.96384,None,1051.464676,None,1051.464676,None,r,0.423941,1051.464676,None,0.423941,,,August8Aloud2,23,2022_Aug_08_1534,ProdSingRedoBetween,2021.2.3,60.06547136
,,,,78,0,78,0,,,,,,,,,,,,,,,,,,,,,,1055.333893,None,,,,,,,,,,,,,,,,,measure,94,79,aloud,new,null,1052.418309,None,1052.418309,None,2,1.862435,1052.418309,None,1.862435,1054.308617,None,1054.817405,None,1054.817405,None,n,0.495212,1054.817405,None,0.495212,,,August8Aloud2,23,2022_Aug_08_1534,ProdSingRedoBetween,2021.2.3,60.06547136
,,,,79,0,79,0,,,,,,,,,,,,,,,,,,,,,,1059.821771,None,,,,,,,,,,,,,,,,,welcome,173,80,aloud,new,null,1055.846071,None,1055.846071,None,2,2.6984074,1055.846071,None,2.6984074,1058.570625,None,1059.072776,None,1059.072776,None,f,0.7198551,1059.072776,None,0.7198551,,,August8Aloud2,23,2022_Aug_08_1534,ProdSingRedoBetween,2021.2.3,60.06547136
,,,,80,0,80,0,,,,,,,,,,,,,,,,,,,,,,1064.194148,None,,,,,,,,,,,,,,,,,equipment,88,81,aloud,old,red,1060.331804,None,1060.331804,None,5,3.1087797,1060.331804,None,3.1087797,1063.46611,None,1063.990612,None,1063.990612,None,f,0.1780147,1063.990612,None,0.1780147,,,August8Aloud2,23,2022_Aug_08_1534,ProdSingRedoBetween,2021.2.3,60.06547136
,,,,81,0,81,0,,,,,,,,,,,,,,,,,,,,,,1068.371278,None,,,,,,,,,,,,,,,,,military,172,82,aloud,new,null,1064.705401,None,1064.705401,None,4,2.9271241,1064.705401,None,2.9271241,1067.670415,None,1068.180305,None,1068.180305,None,f,0.1562071,1068.180305,None,0.1562071,,,August8Aloud2,23,2022_Aug_08_1534,ProdSingRedoBetween,2021.2.3,60.06547136
,,,,82,0,82,0,,,,,,,,,,,,,,,,,,,,,,1071.533601,None,,,,,,,,,,,,,,,,,evidence,13,83,aloud,old,yellow,1068.90255,None,1068.90255,None,4,1.7780104,1068.90255,None,1.7780104,1070.699773,None,1071.20012,None,1071.20012,None,f,0.3043882,1071.20012,None,0.3043882,,,August8Aloud2,23,2022_Aug_08_1534,ProdSingRedoBetween,2021.2.3,60.06547136
,,,,83,0,83,0,,,,,,,,,,,,,,,,,,,,,,1073.919231,None,,,,,,,,,,,,,,,,,conference,78,84,aloud,old,red,1072.047743,None,1072.047743,None,6,1.200958,1072.047743,None,1.200958,1073.270661,None,1073.785666,None,1073.785666,None,r,0.1028495,1073.785666,None,0.1028495,,,August8Aloud2,23,2022_Aug_08_1534,ProdSingRedoBetween,2021.2.3,60.06547136
,,,,84,0,84,0,,,,,,,,,,,,,,,,,,,,,,1078.807489,None,,,,,,,,,,,,,,,,,heavy,142,85,aloud,new,null,1074.420769,None,1074.420769,None,3,3.027883,1074.420769,None,3.027883,1077.480114,None,1077.990078,None,1077.990078,None,f,0.7945422,1077.990078,None,0.7945422,,,August8Aloud2,23,2022_Aug_08_1534,ProdSingRedoBetween,2021.2.3,60.06547136
,,,,85,0,85,0,,,,,,,,,,,,,,,,,,,,,,1081.910515,None,,,,,,,,,,,,,,,,,search,91,86,aloud,new,null,1079.317193,None,1079.317193,None,3,1.8354126,1079.317193,None,1.8354126,1081.177769,None,1081.684503,None,1081.684503,None,n,0.2040789,1081.684503,None,0.2040789,,,August8Aloud2,23,2022_Aug_08_1534,ProdSingRedoBetween,2021.2.3,60.06547136
,,,,86,0,86,0,,,,,,,,,,,,,,,,,,,,,,1084.699658,None,,,,,,,,,,,,,,,,,afternoon,105,87,aloud,new,null,1082.423211,None,1082.423211,None,2,1.4574023,1082.423211,None,1.4574023,1083.89732,None,1084.402936,None,1084.402936,None,n,0.2776814,1084.402936,None,0.2776814,,,August8Aloud2,23,2022_Aug_08_1534,ProdSingRedoBetween,2021.2.3,60.06547136
,,,,87,0,87,0,,,,,,,,,,,,,,,,,,,,,,1089.868585,None,,,,,,,,,,,,,,,,,addition,15,88,aloud,old,yellow,1085.218709,None,1085.218709,None,6,3.3739173,1085.218709,None,3.3739173,1088.618186,None,1089.118217,None,1089.118217,None,r,0.7223882,1089.118217,None,0.7223882,,,August8Aloud2,23,2022_Aug_08_1534,ProdSingRedoBetween,2021.2.3,60.06547136
,,,,88,0,88,0,,,,,,,,,,,,,,,,,,,,,,1092.671361,None,,,,,,,,,,,,,,,,,close,148,89,aloud,new,null,1090.378331,None,1090.378331,None,2,1.598257,1090.378331,None,1.598257,1092.006686,None,1092.523706,None,1092.523706,None,n,0.116999,1092.523706,None,0.116999,,,August8Aloud2,23,2022_Aug_08_1534,ProdSingRedoBetween,2021.2.3,60.06547136
,,,,89,0,89,0,,,,,,,,,,,,,,,,,,,,,,1095.841145,None,,,,,,,,,,,,,,,,,balance,30,90,aloud,old,blue,1093.184182,None,1093.184182,None,2,1.9125382,1093.184182,None,1.9125382,1095.130255,None,1095.641085,None,1095.641085,None,n,0.1756118,1095.641085,None,0.1756118,,,August8Aloud2,23,2022_Aug_08_1534,ProdSingRedoBetween,2021.2.3,60.06547136
,,,,90,0,90,0,,,,,,,,,,,,,,,,,,,,,,1098.477168,None,,,,,,,,,,,,,,,,,produce,89,91,aloud,old,red,1096.35116,None,1096.35116,None,6,1.5374684,1096.35116,None,1.5374684,1097.912804,None,1098.433081,None,1098.433081,None,r,0.0156857,1098.433081,None,0.0156857,,,August8Aloud2,23,2022_Aug_08_1534,ProdSingRedoBetween,2021.2.3,60.06547136
,,,,91,0,91,0,,,,,,,,,,,,,,,,,,,,,,1101.446566,None,,,,,,,,,,,,,,,,,rough,53,92,aloud,old,blue,1098.985529,None,1098.985529,None,1,1.7350802,1098.985529,None,1.7350802,1100.749584,None,1101.263413,None,1101.263413,None,n,0.1612803,1101.263413,None,0.1612803,,,August8Aloud2,23,2022_Aug_08_1534,ProdSingRedoBetween,2021.2.3,60.06547136
,,,,92,0,92,0,,,,,,,,,,,,,,,,,,,,,,1104.38293,None,,,,,,,,,,,,,,,,,grade,82,93,aloud,old,red,1101.955062,None,1101.955062,None,1,1.5255433,1101.955062,None,1.5255433,1103.504756,None,1104.016255,None,1104.016255,None,n,0.3444905,1104.016255,None,0.3444905,,,August8Aloud2,23,2022_Aug_08_1534,ProdSingRedoBetween,2021.2.3,60.06547136
,,,,93,0,93,0,,,,,,,,,,,,,,,,,,,,,,1107.705994,None,,,,,,,,,,,,,,,,,general,161,94,aloud,new,null,1104.889182,None,1104.889182,None,1,1.9514824,1104.889182,None,1.9514824,1106.871239,None,1107.387362,None,1107.387362,None,n,0.2934527,1107.387362,None,0.2934527,,,August8Aloud2,23,2022_Aug_08_1534,ProdSingRedoBetween,2021.2.3,60.06547136
,,,,94,0,94,0,,,,,,,,,,,,,,,,,,,,,,1111.440103,None,,,,,,,,,,,,,,,,,course,54,95,aloud,old,blue,1108.220831,None,1108.220831,None,6,2.0998082,1108.220831,None,2.0998082,1110.340173,None,1110.839519,None,1110.839519,None,f,0.5851396,1110.839519,None,0.5851396,,,August8Aloud2,23,2022_Aug_08_1534,ProdSingRedoBetween,2021.2.3,60.06547136
,,,,95,0,95,0,,,,,,,,,,,,,,,,,,,,,,1116.295589,None,,,,,,,,,,,,,,,,,background,23,96,aloud,old,yellow,1111.953003,None,1111.953003,None,2,2.3676544,1111.953003,None,2.3676544,1114.344259,None,1114.849124,None,1114.849124,None,f,1.415549,1114.849124,None,1.415549,,,August8Aloud2,23,2022_Aug_08_1534,ProdSingRedoBetween,2021.2.3,60.06547136
,,,,96,0,96,0,,,,,,,,,,,,,,,,,,,,,,1121.78377,None,,,,,,,,,,,,,,,,,treatment,6,97,aloud,old,yellow,1116.795332,None,1116.795332,None,4,4.3493393,1116.795332,None,4.3493393,1121.167457,None,1121.672087,None,1121.672087,None,f,0.088565,1121.672087,None,0.088565,,,August8Aloud2,23,2022_Aug_08_1534,ProdSingRedoBetween,2021.2.3,60.06547136
,,,,97,0,97,0,,,,,,,,,,,,,,,,,,,,,,1125.337364,None,,,,,,,,,,,,,,,,,stand,123,98,aloud,new,null,1122.285188,None,1122.285188,None,3,2.3155079,1122.285188,None,2.3155079,1124.623643,None,1125.137332,None,1125.137332,None,f,0.1753455,1125.137332,None,0.1753455,,,August8Aloud2,23,2022_Aug_08_1534,ProdSingRedoBetween,2021.2.3,60.06547136
,,,,98,0,98,0,,,,,,,,,,,,,,,,,,,,,,1128.690505,None,,,,,,,,,,,,,,,,,split,101,99,aloud,new,null,1125.848226,None,1125.848226,None,1,2.1764566,1125.848226,None,2.1764566,1128.045601,None,1128.557298,None,1128.557298,None,n,0.1152966,1128.557298,None,0.1152966,,,August8Aloud2,23,2022_Aug_08_1534,ProdSingRedoBetween,2021.2.3,60.06547136
,,,,99,0,99,0,,,,,,,,,,,,,,,,,,,,,,1131.730483,None,,,,,,,,,,,,,,,,,couch,135,100,aloud,new,null,1129.199446,None,1129.199446,None,1,1.7212712,1129.199446,None,1.7212712,1130.947487,None,1131.462799,None,1131.462799,None,n,0.2341183,1131.462799,None,0.2341183,,,August8Aloud2,23,2022_Aug_08_1534,ProdSingRedoBetween,2021.2.3,60.06547136
,,,,100,0,100,0,,,,,,,,,,,,,,,,,,,,,,1136.431821,None,,,,,,,,,,,,,,,,,substance,110,101,aloud,new,null,1132.2477,None,1132.2477,None,1,3.2329364,1132.2477,None,3.2329364,1135.4987,None,1136.00149,None,1136.00149,None,n,0.3992552,1136.00149,None,0.3992552,,,August8Aloud2,23,2022_Aug_08_1534,ProdSingRedoBetween,2021.2.3,60.06547136
,,,,101,0,101,0,,,,,,,,,,,,,,,,,,,,,,1139.30134,None,,,,,,,,,,,,,,,,,reading,151,102,aloud,new,null,1136.939544,None,1136.939544,None,1,1.3331086,1136.939544,None,1.3331086,1138.300906,None,1138.80482,None,1138.80482,None,n,0.4758862,1138.80482,None,0.4758862,,,August8Aloud2,23,2022_Aug_08_1534,ProdSingRedoBetween,2021.2.3,60.06547136
,,,,102,0,102,0,,,,,,,,,,,,,,,,,,,,,,1145.156984,None,,,,,,,,,,,,,,,,,platform,29,103,aloud,old,blue,1139.811272,None,1139.811272,None,4,2.9814225,1139.811272,None,2.9814225,1142.822836,None,1143.324957,None,1143.324957,None,f,1.8117829,1143.324957,None,1.8117829,,,August8Aloud2,23,2022_Aug_08_1534,ProdSingRedoBetween,2021.2.3,60.06547136
,,,,103,0,103,0,,,,,,,,,,,,,,,,,,,,,,1151.413347,None,,,,,,,,,,,,,,,,,figure,126,104,aloud,new,null,1145.667167,None,1145.667167,None,2,4.8935661,1145.667167,None,4.8935661,1150.587895,None,1151.096597,None,1151.096597,None,f,0.2961763,1151.096597,None,0.2961763,,,August8Aloud2,23,2022_Aug_08_1534,ProdSingRedoBetween,2021.2.3,60.06547136
,,,,104,0,104,0,,,,,,,,,,,,,,,,,,,,,,1158.004,None,,,,,,,,,,,,,,,,,working,4,105,aloud,old,yellow,1151.924926,None,1151.924926,None,2,5.2357937,1151.924926,None,5.2357937,1157.193258,None,1157.703194,None,1157.703194,None,f,0.2735902,1157.703194,None,0.2735902,,,August8Aloud2,23,2022_Aug_08_1534,ProdSingRedoBetween,2021.2.3,60.06547136
,,,,105,0,105,0,,,,,,,,,,,,,,,,,,,,,,1161.423395,None,,,,,,,,,,,,,,,,,crime,12,106,aloud,old,yellow,1158.507106,None,1158.507106,None,6,1.3975979,1158.507106,None,1.3975979,1159.921985,None,1160.428286,None,1160.428286,None,r,0.9724595,1160.428286,None,0.9724595,,,August8Aloud2,23,2022_Aug_08_1534,ProdSingRedoBetween,2021.2.3,60.06547136
,,,,106,0,106,0,,,,,,,,,,,,,,,,,,,,,,1166.395071,None,,,,,,,,,,,,,,,,,listen,131,107,aloud,new,null,1161.940632,None,1161.940632,None,3,2.8040805,1161.940632,None,2.8040805,1164.761494,None,1165.267164,None,1165.267164,None,n,1.1095202,1165.267164,None,1.1095202,,,August8Aloud2,23,2022_Aug_08_1534,ProdSingRedoBetween,2021.2.3,60.06547136
,,,,107,0,107,0,,,,,,,,,,,,,,,,,,,,,,1170.600332,None,,,,,,,,,,,,,,,,,motion,170,108,aloud,new,null,1166.896909,None,1166.896909,None,2,2.9678224,1166.896909,None,2.9678224,1169.881878,None,1170.384123,None,1170.384123,None,n,0.1847014,1170.384123,None,0.1847014,,,August8Aloud2,23,2022_Aug_08_1534,ProdSingRedoBetween,2021.2.3,60.06547136
,,,,108,0,108,0,,,,,,,,,,,,,,,,,,,,,,1173.352077,None,,,,,,,,,,,,,,,,,frank,146,109,aloud,new,null,1171.103277,None,1171.103277,None,1,1.4653633,1171.103277,None,1.4653633,1172.586138,None,1173.092521,None,1173.092521,None,n,0.2362527,1173.092521,None,0.2362527,,,August8Aloud2,23,2022_Aug_08_1534,ProdSingRedoBetween,2021.2.3,60.06547136
,,,,109,0,109,0,,,,,,,,,,,,,,,,,,,,,,1176.571985,None,,,,,,,,,,,,,,,,,period,111,110,aloud,new,null,1173.85881,None,1173.85881,None,1,1.941929,1173.85881,None,1.941929,1175.82284,None,1176.341527,None,1176.341527,None,n,0.2032501,1176.341527,None,0.2032501,,,August8Aloud2,23,2022_Aug_08_1534,ProdSingRedoBetween,2021.2.3,60.06547136
,,,,110,0,110,0,,,,,,,,,,,,,,,,,,,,,,1179.074396,None,,,,,,,,,,,,,,,,,skill,76,111,aloud,old,red,1177.072307,None,1177.072307,None,6,1.1685423,1177.072307,None,1.1685423,1178.262688,None,1178.774012,None,1178.774012,None,r,0.2747535,1178.774012,None,0.2747535,,,August8Aloud2,23,2022_Aug_08_1534,ProdSingRedoBetween,2021.2.3,60.06547136
,,,,111,0,111,0,,,,,,,,,,,,,,,,,,,,,,1182.027183,None,,,,,,,,,,,,,,,,,quick,132,112,aloud,new,null,1179.577403,None,1179.577403,None,1,1.6713922,1179.577403,None,1.6713922,1181.285426,None,1181.798626,None,1181.798626,None,n,0.2021238,1181.798626,None,0.2021238,,,August8Aloud2,23,2022_Aug_08_1534,ProdSingRedoBetween,2021.2.3,60.06547136
,,,,112,0,112,0,,,,,,,,,,,,,,,,,,,,,,1184.633663,None,,,,,,,,,,,,,,,,,threat,120,113,aloud,new,null,1182.531068,None,1182.531068,None,1,1.3416333,1182.531068,None,1.3416333,1183.900455,None,1184.413076,None,1184.413076,None,n,0.1958904,1184.413076,None,0.1958904,,,August8Aloud2,23,2022_Aug_08_1534,ProdSingRedoBetween,2021.2.3,60.06547136
,,,,113,0,113,0,,,,,,,,,,,,,,,,,,,,,,1187.84986,None,,,,,,,,,,,,,,,,,problem,163,114,aloud,new,null,1185.16001,None,1185.16001,None,1,1.9527327,1185.16001,None,1.9527327,1187.134045,None,1187.638497,None,1187.638497,None,n,0.1942399,1187.638497,None,0.1942399,,,August8Aloud2,23,2022_Aug_08_1534,ProdSingRedoBetween,2021.2.3,60.06547136
,,,,114,0,114,0,,,,,,,,,,,,,,,,,,,,,,1190.402409,None,,,,,,,,,,,,,,,,,smooth,1,115,aloud,old,yellow,1188.367629,None,1188.367629,None,1,1.3051254,1188.367629,None,1.3051254,1189.704383,None,1190.219141,None,1190.219141,None,n,0.1656784,1190.219141,None,0.1656784,,,August8Aloud2,23,2022_Aug_08_1534,ProdSingRedoBetween,2021.2.3,60.06547136
,,,,115,0,115,0,,,,,,,,,,,,,,,,,,,,,,1193.18959,None,,,,,,,,,,,,,,,,,charter,112,116,aloud,new,null,1190.91271,None,1190.91271,None,1,1.3760508,1190.91271,None,1.3760508,1192.305257,None,1192.812767,None,1192.812767,None,n,0.3479682,1192.812767,None,0.3479682,,,August8Aloud2,23,2022_Aug_08_1534,ProdSingRedoBetween,2021.2.3,60.06547136
,,,,116,0,116,0,,,,,,,,,,,,,,,,,,,,,,1197.459584,None,,,,,,,,,,,,,,,,,message,67,117,aloud,old,red,1193.689967,None,1193.689967,None,6,1.8787818,1193.689967,None,1.8787818,1195.592705,None,1196.116041,None,1196.116041,None,r,1.3246933,1196.116041,None,1.3246933,,,August8Aloud2,23,2022_Aug_08_1534,ProdSingRedoBetween,2021.2.3,60.06547136
,,,,117,0,117,0,,,,,,,,,,,,,,,,,,,,,,1200.229786,None,,,,,,,,,,,,,,,,,concern,164,118,aloud,new,null,1197.978395,None,1197.978395,None,1,1.4382754,1197.978395,None,1.4382754,1199.445956,None,1199.945937,None,1199.945937,None,n,0.2627889,1199.945937,None,0.2627889,,,August8Aloud2,23,2022_Aug_08_1534,ProdSingRedoBetween,2021.2.3,60.06547136
,,,,118,0,118,0,,,,,,,,,,,,,,,,,,,,,,1203.89929,None,,,,,,,,,,,,,,,,,command,155,119,aloud,new,null,1200.729506,None,1200.729506,None,1,2.1512803,1200.729506,None,2.1512803,1202.899243,None,1203.398823,None,1203.398823,None,n,0.4739269,1203.398823,None,0.4739269,,,August8Aloud2,23,2022_Aug_08_1534,ProdSingRedoBetween,2021.2.3,60.06547136
,,,,119,0,119,0,,,,,,,,,,,,,,,,,,,,,,1206.485159,None,,,,,,,,,,,,,,,,,burden,33,120,aloud,old,blue,1204.407482,None,1204.407482,None,6,1.4573102,1204.407482,None,1.4573102,1205.891689,None,1206.401985,None,1206.401985,None,r,0.062938,1206.401985,None,0.062938,,,August8Aloud2,23,2022_Aug_08_1534,ProdSingRedoBetween,2021.2.3,60.06547136
,,,,120,0,120,0,,,,,,,,,,,,,,,,,,,,,,1209.189298,None,,,,,,,,,,,,,,,,,dream,59,121,aloud,old,yellow,1207.000389,None,1207.000389,None,1,1.4164085,1207.000389,None,1.4164085,1208.439303,None,1208.954534,None,1208.954534,None,n,0.2062529,1208.954534,None,0.2062529,,,August8Aloud2,23,2022_Aug_08_1534,ProdSingRedoBetween,2021.2.3,60.06547136
,,,,121,0,121,0,,,,,,,,,,,,,,,,,,,,,,1212.47446,None,,,,,,,,,,,,,,,,,payment,40,122,aloud,old,blue,1209.695623,None,1209.695623,None,1,1.841338,1209.695623,None,1.841338,1211.562705,None,1212.074244,None,1212.074244,None,n,0.3825896,1212.074244,None,0.3825896,,,August8Aloud2,23,2022_Aug_08_1534,ProdSingRedoBetween,2021.2.3,60.06547136
,,,,122,0,122,0,,,,,,,,,,,,,,,,,,,,,,1215.807174,None,,,,,,,,,,,,,,,,,school,27,123,aloud,old,yellow,1212.988401,None,1212.988401,None,6,2.2443644,1212.988401,None,2.2443644,1215.266418,None,1215.782436,None,1215.782436,None,f,0.0026622,1215.782436,None,0.0026622,,,August8Aloud2,23,2022_Aug_08_1534,ProdSingRedoBetween,2021.2.3,60.06547136
,,,,123,0,123,0,,,,,,,,,,,,,,,,,,,,,,1218.79912,None,,,,,,,,,,,,,,,,,fellow,150,124,aloud,new,null,1216.320791,None,1216.320791,None,1,1.6000037,1216.320791,None,1.6000037,1217.952338,None,1218.469212,None,1218.469212,None,n,0.3076621,1218.469212,None,0.3076621,,,August8Aloud2,23,2022_Aug_08_1534,ProdSingRedoBetween,2021.2.3,60.06547136
,,,,124,0,124,0,,,,,,,,,,,,,,,,,,,,,,1221.35003,None,,,,,,,,,,,,,,,,,foundation,38,125,aloud,old,blue,1219.319945,None,1219.319945,None,6,1.4252567,1219.319945,None,1.4252567,1220.788026,None,1221.299952,None,1221.299952,None,r,0.0289254,1221.299952,None,0.0289254,,,August8Aloud2,23,2022_Aug_08_1534,ProdSingRedoBetween,2021.2.3,60.06547136
,,,,125,0,125,0,,,,,,,,,,,,,,,,,,,,,,1225.520869,None,,,,,,,,,,,,,,,,,center,58,126,aloud,old,blue,1221.852257,None,1221.852257,None,3,2.9485511,1221.852257,None,2.9485511,1224.819992,None,1225.322831,None,1225.322831,None,f,0.173953,1225.322831,None,0.173953,,,August8Aloud2,23,2022_Aug_08_1534,ProdSingRedoBetween,2021.2.3,60.06547136
,,,,126,0,126,0,,,,,,,,,,,,,,,,,,,,,,1228.507258,None,,,,,,,,,,,,,,,,,management,108,127,aloud,new,null,1226.029916,None,1226.029916,None,6,1.7469176,1226.029916,None,1.7469176,1227.806544,None,1228.307284,None,1228.307284,None,f,0.1814893,1228.307284,None,0.1814893,,,August8Aloud2,23,2022_Aug_08_1534,ProdSingRedoBetween,2021.2.3,60.06547136
,,,,127,0,127,0,,,,,,,,,,,,,,,,,,,,,,1234.663366,None,,,,,,,,,,,,,,,,,expansion,122,128,aloud,new,null,1229.010528,None,1229.010528,None,3,5.0062981,1229.010528,None,5.0062981,1234.046915,None,1234.550801,None,1234.550801,None,f,0.0900457,1234.550801,None,0.0900457,,,August8Aloud2,23,2022_Aug_08_1534,ProdSingRedoBetween,2021.2.3,60.06547136
,,,,128,0,128,0,,,,,,,,,,,,,,,,,,,,,,1237.689452,None,,,,,,,,,,,,,,,,,whole,57,129,aloud,old,blue,1235.171552,None,1235.171552,None,3,1.869227,1235.171552,None,1.869227,1237.070117,None,1237.583105,None,1237.583105,None,f,0.0818855,1237.583105,None,0.0818855,,,August8Aloud2,23,2022_Aug_08_1534,ProdSingRedoBetween,2021.2.3,60.06547136
,,,,129,0,129,0,,,,,,,,,,,,,,,,,,,,,,1240.957131,None,,,,,,,,,,,,,,,,,turkey,179,130,aloud,new,null,1238.207995,None,1238.207995,None,1,1.4009593,1238.207995,None,1.4009593,1239.642297,None,1240.157904,None,1240.157904,None,n,0.7791564,1240.157904,None,0.7791564,,,August8Aloud2,23,2022_Aug_08_1534,ProdSingRedoBetween,2021.2.3,60.06547136
,,,,130,0,130,0,,,,,,,,,,,,,,,,,,,,,,1245.274023,None,,,,,,,,,,,,,,,,,career,51,131,aloud,old,blue,1241.47512,None,1241.47512,None,6,2.2056963,1241.47512,None,2.2056963,1243.711039,None,1244.225075,None,1244.225075,None,r,1.0317419,1244.225075,None,1.0317419,,,August8Aloud2,23,2022_Aug_08_1534,ProdSingRedoBetween,2021.2.3,60.06547136
,,,,131,0,131,0,,,,,,,,,,,,,,,,,,,,,,1248.643835,None,,,,,,,,,,,,,,,,,touch,160,132,aloud,new,null,1245.782636,None,1245.782636,None,3,2.2502316,1245.782636,None,2.2502316,1248.065604,None,1248.580156,None,1248.580156,None,f,0.0450451,1248.580156,None,0.0450451,,,August8Aloud2,23,2022_Aug_08_1534,ProdSingRedoBetween,2021.2.3,60.06547136
,,,,132,0,132,0,,,,,,,,,,,,,,,,,,,,,,1251.963875,None,,,,,,,,,,,,,,,,,escape,7,133,aloud,old,yellow,1249.149337,None,1249.149337,None,1,1.4675127,1249.149337,None,1.4675127,1250.647119,None,1251.152,None,1251.152,None,n,0.7928567,1251.152,None,0.7928567,,,August8Aloud2,23,2022_Aug_08_1534,ProdSingRedoBetween,2021.2.3,60.06547136
,,,,133,0,133,0,,,,,,,,,,,,,,,,,,,,,,1254.583122,None,,,,,,,,,,,,,,,,,stranger,98,134,aloud,new,null,1252.488395,None,1252.488395,None,1,1.2883226,1252.488395,None,1.2883226,1253.805532,None,1254.31627,None,1254.31627,None,n,0.2446473,1254.31627,None,0.2446473,,,August8Aloud2,23,2022_Aug_08_1534,ProdSingRedoBetween,2021.2.3,60.06547136
,,,,134,0,134,0,,,,,,,,,,,,,,,,,,,,,,1258.875248,None,,,,,,,,,,,,,,,,,murder,18,135,aloud,old,yellow,1255.09156,None,1255.09156,None,6,1.9331972,1255.09156,None,1.9331972,1257.054862,None,1257.572964,None,1257.572964,None,r,1.2682001,1257.572964,None,1.2682001,,,August8Aloud2,23,2022_Aug_08_1534,ProdSingRedoBetween,2021.2.3,60.06547136
,,,,135,0,135,0,,,,,,,,,,,,,,,,,,,,,,1261.890674,None,,,,,,,,,,,,,,,,,dozen,97,136,aloud,new,null,1259.400844,None,1259.400844,None,1,1.6639203,1259.400844,None,1.6639203,1261.090131,None,1261.59037,None,1261.59037,None,n,0.2743928,1261.59037,None,0.2743928,,,August8Aloud2,23,2022_Aug_08_1534,ProdSingRedoBetween,2021.2.3,60.06547136
,,,,136,0,136,0,,,,,,,,,,,,,,,,,,,,,,1264.509931,None,,,,,,,,,,,,,,,,,election,140,137,aloud,new,null,1262.391253,None,1262.391253,None,1,1.3616125,1262.391253,None,1.3616125,1263.778508,None,1264.293452,None,1264.293452,None,n,0.1953811,1264.293452,None,0.1953811,,,August8Aloud2,23,2022_Aug_08_1534,ProdSingRedoBetween,2021.2.3,60.06547136
,,,,137,0,137,0,,,,,,,,,,,,,,,,,,,,,,1267.648816,None,,,,,,,,,,,,,,,,,express,9,138,aloud,old,yellow,1265.018848,None,1265.018848,None,1,1.4460812,1265.018848,None,1.4460812,1266.502174,None,1267.012477,None,1267.012477,None,n,0.6123113,1267.012477,None,0.6123113,,,August8Aloud2,23,2022_Aug_08_1534,ProdSingRedoBetween,2021.2.3,60.06547136
,,,,138,0,138,0,,,,,,,,,,,,,,,,,,,,,,1270.432256,None,,,,,,,,,,,,,,,,,attack,121,139,aloud,new,null,1268.172681,None,1268.172681,None,1,1.4921446,1268.172681,None,1.4921446,1269.682777,None,1270.184888,None,1270.184888,None,n,0.2160418,1270.184888,None,0.2160418,,,August8Aloud2,23,2022_Aug_08_1534,ProdSingRedoBetween,2021.2.3,60.06547136
,,,,139,0,139,0,,,,,,,,,,,,,,,,,,,,,,1273.122281,None,,,,,,,,,,,,,,,,,death,99,140,aloud,new,null,1270.94438,None,1270.94438,None,1,1.384466,1270.94438,None,1.384466,1272.352036,None,1272.851737,None,1272.851737,None,n,0.2370719,1272.851737,None,0.2370719,,,August8Aloud2,23,2022_Aug_08_1534,ProdSingRedoBetween,2021.2.3,60.06547136
,,,,140,0,140,0,,,,,,,,,,,,,,,,,,,,,,1275.687763,None,,,,,,,,,,,,,,,,,route,130,141,aloud,new,null,1273.642442,None,1273.642442,None,1,1.4064147,1273.642442,None,1.4064147,1275.071426,None,1275.572971,None,1275.572971,None,n,0.0838119,1275.572971,None,0.0838119,,,August8Aloud2,23,2022_Aug_08_1534,ProdSingRedoBetween,2021.2.3,60.06547136
,,,,141,0,141,0,,,,,,,,,,,,,,,,,,,,,,1279.04575,None,,,,,,,,,,,,,,,,,drink,102,142,aloud,new,null,1276.19664,None,1276.19664,None,1,1.9722891,1276.19664,None,1.9722891,1278.195353,None,1278.709005,None,1278.709005,None,n,0.3159105,1278.709005,None,0.3159105,,,August8Aloud2,23,2022_Aug_08_1534,ProdSingRedoBetween,2021.2.3,60.06547136
,,,,142,0,142,0,,,,,,,,,,,,,,,,,,,,,,1282.295176,None,,,,,,,,,,,,,,,,,engineer,72,143,aloud,old,red,1279.559159,None,1279.559159,None,1,1.9938364,1279.559159,None,1.9938364,1281.583666,None,1282.099884,None,1282.099884,None,n,0.1650497,1282.099884,None,0.1650497,,,August8Aloud2,23,2022_Aug_08_1534,ProdSingRedoBetween,2021.2.3,60.06547136
,,,,143,0,143,0,,,,,,,,,,,,,,,,,,,,,,1286.234587,None,,,,,,,,,,,,,,,,,shear,16,144,aloud,old,yellow,1282.799487,None,1282.799487,None,6,1.8014574,1282.799487,None,1.8014574,1284.630952,None,1285.137423,None,1285.137423,None,r,1.0714999,1285.137423,None,1.0714999,,,August8Aloud2,23,2022_Aug_08_1534,ProdSingRedoBetween,2021.2.3,60.06547136
,,,,144,0,144,0,,,,,,,,,,,,,,,,,,,,,,1289.801683,None,,,,,,,,,,,,,,,,,country,145,145,aloud,new,null,1286.750622,None,1286.750622,None,6,1.6583017,1286.750622,None,1.6583017,1288.438281,None,1288.9544,None,1288.9544,None,r,0.8304625,1288.9544,None,0.8304625,,,August8Aloud2,23,2022_Aug_08_1534,ProdSingRedoBetween,2021.2.3,60.06547136
,,,,145,0,145,0,,,,,,,,,,,,,,,,,,,,,,1293.021616,None,,,,,,,,,,,,,,,,,detective,138,146,aloud,new,null,1290.316207,None,1290.316207,None,1,2.0847118,1290.316207,None,2.0847118,1292.424506,None,1292.941786,None,1292.941786,None,n,0.0591933,1292.941786,None,0.0591933,,,August8Aloud2,23,2022_Aug_08_1534,ProdSingRedoBetween,2021.2.3,60.06547136
,,,,146,0,146,0,,,,,,,,,,,,,,,,,,,,,,1296.224936,None,,,,,,,,,,,,,,,,,strength,168,147,aloud,new,null,1293.528071,None,1293.528071,None,6,1.5287893,1293.528071,None,1.5287893,1295.081727,None,1295.592163,None,1295.592163,None,r,0.6166668,1295.592163,None,0.6166668,,,August8Aloud2,23,2022_Aug_08_1534,ProdSingRedoBetween,2021.2.3,60.06547136
,,,,147,0,147,0,,,,,,,,,,,,,,,,,,,,,,1300.145593,None,,,,,,,,,,,,,,,,,volume,103,148,aloud,new,null,1296.727184,None,1296.727184,None,3,2.7457111,1296.727184,None,2.7457111,1299.497692,None,1300.012225,None,1300.012225,None,f,0.1166204,1300.012225,None,0.1166204,,,August8Aloud2,23,2022_Aug_08_1534,ProdSingRedoBetween,2021.2.3,60.06547136
,,,,148,0,148,0,,,,,,,,,,,,,,,,,,,,,,1303.56558,None,,,,,,,,,,,,,,,,,trial,64,149,aloud,old,red,1300.652252,None,1300.652252,None,6,1.9006215,1300.652252,None,1.9006215,1302.581906,None,1303.087439,None,1303.087439,None,r,0.4493363,1303.087439,None,0.4493363,,,August8Aloud2,23,2022_Aug_08_1534,ProdSingRedoBetween,2021.2.3,60.06547136
,,,,149,0,149,0,,,,,,,,,,,,,,,,,,,,,,1306.919002,None,,,,,,,,,,,,,,,,,mechanical,104,150,aloud,new,null,1304.075803,None,1304.075803,None,3,2.1890781,1304.075803,None,2.1890781,1306.28595,None,1306.787239,None,1306.787239,None,f,0.1017138,1306.787239,None,0.1017138,,,August8Aloud2,23,2022_Aug_08_1534,ProdSingRedoBetween,2021.2.3,60.06547136
,,,,150,0,150,0,,,,,,,,,,,,,,,,,,,,,,1310.005427,None,,,,,,,,,,,,,,,,,author,69,151,aloud,old,red,1307.420964,None,1307.420964,None,1,1.5959437,1307.420964,None,1.5959437,1309.039538,None,1309.554872,None,1309.554872,None,n,0.4220521,1309.554872,None,0.4220521,,,August8Aloud2,23,2022_Aug_08_1534,ProdSingRedoBetween,2021.2.3,60.06547136
,,,,151,0,151,0,,,,,,,,,,,,,,,,,,,,,,1312.808045,None,,,,,,,,,,,,,,,,,match,134,152,aloud,new,null,1310.512013,None,1310.512013,None,1,1.3290689,1310.512013,None,1.3290689,1311.859058,None,1312.374572,None,1312.374572,None,n,0.4102933,1312.374572,None,0.4102933,,,August8Aloud2,23,2022_Aug_08_1534,ProdSingRedoBetween,2021.2.3,60.06547136
,,,,152,0,152,0,,,,,,,,,,,,,,,,,,,,,,1315.594327,None,,,,,,,,,,,,,,,,,second,31,153,aloud,old,blue,1313.320014,None,1313.320014,None,1,1.336992,1313.320014,None,1.336992,1314.677958,None,1315.181294,None,1315.181294,None,n,0.3876262,1315.181294,None,0.3876262,,,August8Aloud2,23,2022_Aug_08_1534,ProdSingRedoBetween,2021.2.3,60.06547136
,,,,153,0,153,0,,,,,,,,,,,,,,,,,,,,,,1318.263607,None,,,,,,,,,,,,,,,,,finance,81,154,aloud,old,red,1316.112327,None,1316.112327,None,6,1.2806748,1316.112327,None,1.2806748,1317.418727,None,1317.933148,None,1317.933148,None,r,0.3157501,1317.933148,None,0.3157501,,,August8Aloud2,23,2022_Aug_08_1534,ProdSingRedoBetween,2021.2.3,60.06547136
,,,,154,0,154,0,,,,,,,,,,,,,,,,,,,,,,1323.321272,None,,,,,,,,,,,,,,,,,ground,28,155,aloud,old,yellow,1318.764256,None,1318.764256,None,1,3.7805919,1318.764256,None,3.7805919,1322.568145,None,1323.069241,None,1323.069241,None,n,0.219756,1323.069241,None,0.219756,,,August8Aloud2,23,2022_Aug_08_1534,ProdSingRedoBetween,2021.2.3,60.06547136
,,,,155,0,155,0,,,,,,,,,,,,,,,,,,,,,,1326.121536,None,,,,,,,,,,,,,,,,,health,22,156,aloud,old,yellow,1323.839082,None,1323.839082,None,1,1.609847,1323.839082,None,1.609847,1325.471517,None,1325.974791,None,1325.974791,None,n,0.1300814,1325.974791,None,0.1300814,,,August8Aloud2,23,2022_Aug_08_1534,ProdSingRedoBetween,2021.2.3,60.06547136
,,,,156,0,156,0,,,,,,,,,,,,,,,,,,,,,,1328.846099,None,,,,,,,,,,,,,,,,,cover,106,157,aloud,new,null,1326.633948,None,1326.633948,None,1,1.302844,1326.633948,None,1.302844,1327.962956,None,1328.473738,None,1328.473738,None,n,0.3511403,1328.473738,None,0.3511403,,,August8Aloud2,23,2022_Aug_08_1534,ProdSingRedoBetween,2021.2.3,60.06547136
,,,,157,0,157,0,,,,,,,,,,,,,,,,,,,,,,1332.311026,None,,,,,,,,,,,,,,,,,recall,21,158,aloud,old,yellow,1329.360766,None,1329.360766,None,3,2.2002254,1329.360766,None,2.2002254,1331.577895,None,1332.077574,None,1332.077574,None,f,0.2114629,1332.077574,None,0.2114629,,,August8Aloud2,23,2022_Aug_08_1534,ProdSingRedoBetween,2021.2.3,60.06547136
,,,,158,0,158,0,,,,,,,,,,,,,,,,,,,,,,1335.933925,None,,,,,,,,,,,,,,,,,block,83,159,aloud,old,red,1332.820562,None,1332.820562,None,3,2.3162864,1332.820562,None,2.3162864,1335.164808,None,1335.668569,None,1335.668569,None,f,0.2363452,1335.668569,None,0.2363452,,,August8Aloud2,23,2022_Aug_08_1534,ProdSingRedoBetween,2021.2.3,60.06547136
,,,,159,0,159,0,,,,,,,,,,,,,,,,,,,,,,1339.604711,None,,,,,,,,,,,,,,,,,property,55,160,aloud,old,blue,1336.453347,None,1336.453347,None,3,2.2596024,1336.453347,None,2.2596024,1338.736246,None,1339.251488,None,1339.251488,None,f,0.3334133,1339.251488,None,0.3334133,,,August8Aloud2,23,2022_Aug_08_1534,ProdSingRedoBetween,2021.2.3,60.06547136
,,,,160,0,160,0,,,,,,,,,,,,,,,,,,,,,,1343.422718,None,,,,,,,,,,,,,,,,,review,96,161,aloud,new,null,1340.127897,None,1340.127897,None,6,2.4891276,1340.127897,None,2.4891276,1342.648739,None,1343.161787,None,1343.161787,None,f,0.2391391,1343.161787,None,0.2391391,,,August8Aloud2,23,2022_Aug_08_1534,ProdSingRedoBetween,2021.2.3,60.06547136
,,,,161,0,161,0,,,,,,,,,,,,,,,,,,,,,,1350.163771,None,,,,,,,,,,,,,,,,,member,79,162,aloud,old,red,1343.924405,None,1343.924405,None,3,5.5005395,1343.924405,None,5.5005395,1349.447323,None,1349.962227,None,1349.962227,None,f,0.1748584,1349.962227,None,0.1748584,,,August8Aloud2,23,2022_Aug_08_1534,ProdSingRedoBetween,2021.2.3,60.06547136
,,,,162,0,162,0,,,,,,,,,,,,,,,,,,,,,,1352.983468,None,,,,,,,,,,,,,,,,,employment,52,163,aloud,old,blue,1350.674409,None,1350.674409,None,6,1.5267392,1350.674409,None,1.5267392,1352.237724,None,1352.753005,None,1352.753005,None,r,0.208198,1352.753005,None,0.208198,,,August8Aloud2,23,2022_Aug_08_1534,ProdSingRedoBetween,2021.2.3,60.06547136
,,,,163,0,163,0,,,,,,,,,,,,,,,,,,,,,,1355.383914,None,,,,,,,,,,,,,,,,,commercial,37,164,aloud,old,blue,1353.503552,None,1353.503552,None,6,1.1533321,1353.503552,None,1.1533321,1354.68399,None,1355.184147,None,1355.184147,None,r,0.1848544,1355.184147,None,0.1848544,,,August8Aloud2,23,2022_Aug_08_1534,ProdSingRedoBetween,2021.2.3,60.06547136
,,,,164,0,164,0,,,,,,,,,,,,,,,,,,,,,,1357.786226,None,,,,,,,,,,,,,,,,,crowd,39,165,aloud,old,blue,1355.887257,None,1355.887257,None,1,1.2417358,1355.887257,None,1.2417358,1357.159304,None,1357.669803,None,1357.669803,None,n,0.0910557,1357.669803,None,0.0910557,,,August8Aloud2,23,2022_Aug_08_1534,ProdSingRedoBetween,2021.2.3,60.06547136
,,,,165,0,165,0,,,,,,,,,,,,,,,,,,,,,,1360.277672,None,,,,,,,,,,,,,,,,,waste,36,166,aloud,old,blue,1358.296941,None,1358.296941,None,1,1.1600941,1358.296941,None,1.1600941,1359.489354,None,1359.996534,None,1359.996534,None,n,0.2526951,1359.996534,None,0.2526951,,,August8Aloud2,23,2022_Aug_08_1534,ProdSingRedoBetween,2021.2.3,60.06547136
,,,,166,0,166,0,,,,,,,,,,,,,,,,,,,,,,1362.724779,None,,,,,,,,,,,,,,,,,front,174,167,aloud,new,null,1360.790966,None,1360.790966,None,1,1.1941246,1360.790966,None,1.1941246,1362.017112,None,1362.525349,None,1362.525349,None,n,0.1716489,1362.525349,None,0.1716489,,,August8Aloud2,23,2022_Aug_08_1534,ProdSingRedoBetween,2021.2.3,60.06547136
,,,,167,0,167,0,,,,,,,,,,,,,,,,,,,,,,1365.61538,None,,,,,,,,,,,,,,,,,account,34,168,aloud,old,blue,1363.240692,None,1363.240692,None,1,1.632237,1363.240692,None,1.632237,1364.89543,None,1365.413209,None,1365.413209,None,n,0.1797949,1365.413209,None,0.1797949,,,August8Aloud2,23,2022_Aug_08_1534,ProdSingRedoBetween,2021.2.3,60.06547136
,,,,168,0,168,0,,,,,,,,,,,,,,,,,,,,,,1368.38048,None,,,,,,,,,,,,,,,,,pancakes,129,169,aloud,new,null,1366.13198,None,1366.13198,None,1,1.4688793,1366.13198,None,1.4688793,1367.629638,None,1368.137854,None,1368.137854,None,n,0.2150443,1368.137854,None,0.2150443,,,August8Aloud2,23,2022_Aug_08_1534,ProdSingRedoBetween,2021.2.3,60.06547136
,,,,169,0,169,0,,,,,,,,,,,,,,,,,,,,,,1371.386342,None,,,,,,,,,,,,,,,,,sweet,141,170,aloud,new,null,1368.898828,None,1368.898828,None,1,1.7820313,1368.898828,None,1.7820313,1370.700491,None,1371.204815,None,1371.204815,None,n,0.1562098,1371.204815,None,0.1562098,,,August8Aloud2,23,2022_Aug_08_1534,ProdSingRedoBetween,2021.2.3,60.06547136
,,,,170,0,170,0,,,,,,,,,,,,,,,,,,,,,,1373.769242,None,,,,,,,,,,,,,,,,,production,171,171,aloud,new,null,1371.902484,None,1371.902484,None,6,1.2905344,1371.902484,None,1.2905344,1373.226408,None,1373.735695,None,1373.735695,None,r,0.0171807,1373.735695,None,0.0171807,,,August8Aloud2,23,2022_Aug_08_1534,ProdSingRedoBetween,2021.2.3,60.06547136
,,,,171,0,171,0,,,,,,,,,,,,,,,,,,,,,,1376.607126,None,,,,,,,,,,,,,,,,,department,65,172,aloud,old,red,1374.272384,None,1374.272384,None,3,1.6085956,1374.272384,None,1.6085956,1375.912042,None,1376.422041,None,1376.422041,None,f,0.162998,1376.422041,None,0.162998,,,August8Aloud2,23,2022_Aug_08_1534,ProdSingRedoBetween,2021.2.3,60.06547136
,,,,172,0,172,0,,,,,,,,,,,,,,,,,,,,,,1379.391605,None,,,,,,,,,,,,,,,,,theme,11,173,aloud,old,yellow,1377.131827,None,1377.131827,None,1,1.1252337,1377.131827,None,1.1252337,1378.278682,None,1378.791493,None,1378.791493,None,n,0.5774492,1378.791493,None,0.5774492,,,August8Aloud2,23,2022_Aug_08_1534,ProdSingRedoBetween,2021.2.3,60.06547136
,,,,173,0,173,0,,,,,,,,,,,,,,,,,,,,,,1383.378584,None,,,,,,,,,,,,,,,,,division,56,174,aloud,old,blue,1379.900642,None,1379.900642,None,3,2.5243449,1379.900642,None,2.5243449,1382.44741,None,1382.970686,None,1382.970686,None,f,0.390284,1382.970686,None,0.390284,,,August8Aloud2,23,2022_Aug_08_1534,ProdSingRedoBetween,2021.2.3,60.06547136
,,,,174,0,174,0,,,,,,,,,,,,,,,,,,,,,,1388.33606,None,,,,,,,,,,,,,,,,,impact,167,175,aloud,new,null,1383.892202,None,1383.892202,None,4,3.7646937,1383.892202,None,3.7646937,1387.68605,None,1388.200463,None,1388.200463,None,f,0.1046202,1388.200463,None,0.1046202,,,August8Aloud2,23,2022_Aug_08_1534,ProdSingRedoBetween,2021.2.3,60.06547136
,,,,175,0,175,0,,,,,,,,,,,,,,,,,,,,,,1394.090813,None,,,,,,,,,,,,,,,,,solution,0,176,aloud,old,yellow,1388.867236,None,1388.867236,None,2,3.5976733,1388.867236,None,3.5976733,1392.488314,None,1392.988613,None,1392.988613,None,f,1.084366,1392.988613,None,1.084366,,,August8Aloud2,23,2022_Aug_08_1534,ProdSingRedoBetween,2021.2.3,60.06547136
,,,,176,0,176,0,,,,,,,,,,,,,,,,,,,,,,1398.52732,None,,,,,,,,,,,,,,,,,colonel,26,177,aloud,old,yellow,1394.590163,None,1394.590163,None,6,2.3788613,1394.590163,None,2.3788613,1396.994753,None,1397.514322,None,1397.514322,None,r,0.9907076,1397.514322,None,0.9907076,,,August8Aloud2,23,2022_Aug_08_1534,ProdSingRedoBetween,2021.2.3,60.06547136
,,,,177,0,177,0,,,,,,,,,,,,,,,,,,,,,,1401.782005,None,,,,,,,,,,,,,,,,,store,3,178,aloud,old,yellow,1399.038083,None,1399.038083,None,3,1.5389514,1399.038083,None,1.5389514,1400.601723,None,1401.113357,None,1401.113357,None,f,0.639632,1401.113357,None,0.639632,,,August8Aloud2,23,2022_Aug_08_1534,ProdSingRedoBetween,2021.2.3,60.06547136
,,,,178,0,178,0,,,,,,,,,,,,,,,,,,,,,,1404.802207,None,,,,,,,,,,,,,,,,,court,20,179,aloud,old,yellow,1402.285989,None,1402.285989,None,2,1.9069813,1402.285989,None,1.9069813,1404.216401,None,1404.725534,None,1404.725534,None,n,0.0594827,1404.725534,None,0.0594827,,,August8Aloud2,23,2022_Aug_08_1534,ProdSingRedoBetween,2021.2.3,60.06547136
,,,,179,0,179,0,,,,,,,,,,,,,,,,,,,,,,1407.420243,None,,,,,,,,,,,,,,,,,household,46,180,aloud,old,blue,1405.331788,None,1405.331788,None,6,1.3492841,1405.331788,None,1.3492841,1406.708689,None,1407.229094,None,1407.229094,None,r,0.1639164,1407.229094,None,0.1639164,,,August8Aloud2,23,2022_Aug_08_1534,ProdSingRedoBetween,2021.2.3,60.06547136
,,,,,,,,,,,,,,,,,,,,,,,,,,,,,,,,,,,,,,,,,,,,,,,,,,,,,,,,,,,,,,,,,,,,,,,,,1407.92042,None,,,,,,
