StudyLoop.thisRepN,StudyLoop.thisTrialN,StudyLoop.thisN,StudyLoop.thisIndex,TestLoop.thisRepN,TestLoop.thisTrialN,TestLoop.thisN,TestLoop.thisIndex,textCondition.started,textCondition.stopped,keyCondition.keys,keyCondition.rt,keyCondition.started,keyCondition.stopped,Condition,textWelcome.started,textWelcome.stopped,keyWelcome.keys,keyWelcome.rt,keyWelcome.started,keyWelcome.stopped,textAloud.started,textAloud.stopped,textSilent.started,textSilent.stopped,textSing.started,textSing.stopped,conditional_text.started,conditional_text.stopped,textBlank500.started,textBlank500.stopped,study_word,study_num,study_order,study_type,word_color,textStudy.started,textStudy.stopped,keyStudy.keys,keyStudy.started,keyStudy.stopped,textTestInstructions.started,textTestInstructions.stopped,key_resp_3.keys,key_resp_3.rt,key_resp_3.started,key_resp_3.stopped,test_word,test_num,test_order,test_condition,old_new_test,test_word_original_color,textConf.started,textConf.stopped,textConfScale.started,textConfScale.stopped,keyConf.keys,keyConf.rt,keyConf.started,keyConf.stopped,confidence response time,textTestBlank.started,textTestBlank.stopped,textRKN.started,textRKN.stopped,textRKNScale.started,textRKNScale.stopped,keyRKN.keys,keyRKN.rt,keyRKN.started,keyRKN.stopped,rkn response time,textEnd.started,textEnd.stopped,participant,session,date,expName,psychopyVersion,frameRate
,,,,,,,,54.7714887,None,c,2272.364074,54.7714887,None,,,,,,,,,,,,,,,,,,,,,,,,,,,,,,,,,,,,,,,,,,,,,,,,,,,,,,,,,,,,,,August10Sing1,24,2022_Aug_10_1337,ProdSingRedoBetween,2021.2.3,59.92322636
,,,,,,,,,,,,,,SingTest,2327.188303,None,space,32.0511183,2327.188303,None,,,,,,,,,,,,,,,,,,,,,,,,,,,,,,,,,,,,,,,,,,,,,,,,,,,,,,,August10Sing1,24,2022_Aug_10_1337,ProdSingRedoBetween,2021.2.3,59.92322636
0,0,0,0,,,,,,,,,,,,,,,,,,2327.188303,None,2327.188303,None,2327.188303,None,2327.188303,None,2361.7884,None,territory,11,1,sing,yellow,2359.774333,None,None,2359.774333,None,,,,,,,,,,,,,,,,,,,,,,,,,,,,,,,,,,,August10Sing1,24,2022_Aug_10_1337,ProdSingRedoBetween,2021.2.3,59.92322636
1,0,1,0,,,,,,,,,,,,,,,,,,,,,,,,,,2364.307764,None,shear,67,2,sing,red,2362.293977,None,None,2362.293977,None,,,,,,,,,,,,,,,,,,,,,,,,,,,,,,,,,,,August10Sing1,24,2022_Aug_10_1337,ProdSingRedoBetween,2021.2.3,59.92322636
2,0,2,0,,,,,,,,,,,,,,,,,,,,,,,,,,2366.826868,None,subject,64,3,sing,red,2364.818673,None,None,2364.818673,None,,,,,,,,,,,,,,,,,,,,,,,,,,,,,,,,,,,August10Sing1,24,2022_Aug_10_1337,ProdSingRedoBetween,2021.2.3,59.92322636
3,0,3,0,,,,,,,,,,,,,,,,,,,,,,,,,,2369.329271,None,business,27,4,sing,yellow,2367.327368,None,None,2367.327368,None,,,,,,,,,,,,,,,,,,,,,,,,,,,,,,,,,,,August10Sing1,24,2022_Aug_10_1337,ProdSingRedoBetween,2021.2.3,59.92322636
4,0,4,0,,,,,,,,,,,,,,,,,,,,,,,,,,2371.831805,None,society,42,5,sing,blue,2369.829804,None,None,2369.829804,None,,,,,,,,,,,,,,,,,,,,,,,,,,,,,,,,,,,August10Sing1,24,2022_Aug_10_1337,ProdSingRedoBetween,2021.2.3,59.92322636
5,0,5,0,,,,,,,,,,,,,,,,,,,,,,,,,,2374.350802,None,owner,23,6,sing,yellow,2372.340376,None,None,2372.340376,None,,,,,,,,,,,,,,,,,,,,,,,,,,,,,,,,,,,August10Sing1,24,2022_Aug_10_1337,ProdSingRedoBetween,2021.2.3,59.92322636
6,0,6,0,,,,,,,,,,,,,,,,,,,,,,,,,,2376.853291,None,threat,12,7,sing,yellow,2374.85155,None,None,2374.85155,None,,,,,,,,,,,,,,,,,,,,,,,,,,,,,,,,,,,August10Sing1,24,2022_Aug_10_1337,ProdSingRedoBetween,2021.2.3,59.92322636
7,0,7,0,,,,,,,,,,,,,,,,,,,,,,,,,,2379.372886,None,quarter,37,8,sing,blue,2377.371581,None,None,2377.371581,None,,,,,,,,,,,,,,,,,,,,,,,,,,,,,,,,,,,August10Sing1,24,2022_Aug_10_1337,ProdSingRedoBetween,2021.2.3,59.92322636
8,0,8,0,,,,,,,,,,,,,,,,,,,,,,,,,,2381.875347,None,religion,60,9,sing,red,2379.874551,None,None,2379.874551,None,,,,,,,,,,,,,,,,,,,,,,,,,,,,,,,,,,,August10Sing1,24,2022_Aug_10_1337,ProdSingRedoBetween,2021.2.3,59.92322636
9,0,9,0,,,,,,,,,,,,,,,,,,,,,,,,,,2384.377737,None,addition,24,10,sing,yellow,2382.37801,None,None,2382.37801,None,,,,,,,,,,,,,,,,,,,,,,,,,,,,,,,,,,,August10Sing1,24,2022_Aug_10_1337,ProdSingRedoBetween,2021.2.3,59.92322636
10,0,10,0,,,,,,,,,,,,,,,,,,,,,,,,,,2386.896919,None,guard,16,11,sing,yellow,2384.886398,None,None,2384.886398,None,,,,,,,,,,,,,,,,,,,,,,,,,,,,,,,,,,,August10Sing1,24,2022_Aug_10_1337,ProdSingRedoBetween,2021.2.3,59.92322636
11,0,11,0,,,,,,,,,,,,,,,,,,,,,,,,,,2389.399269,None,swift,5,12,sing,yellow,2387.39751,None,None,2387.39751,None,,,,,,,,,,,,,,,,,,,,,,,,,,,,,,,,,,,August10Sing1,24,2022_Aug_10_1337,ProdSingRedoBetween,2021.2.3,59.92322636
12,0,12,0,,,,,,,,,,,,,,,,,,,,,,,,,,2391.902085,None,course,46,13,sing,blue,2389.901433,None,None,2389.901433,None,,,,,,,,,,,,,,,,,,,,,,,,,,,,,,,,,,,August10Sing1,24,2022_Aug_10_1337,ProdSingRedoBetween,2021.2.3,59.92322636
13,0,13,0,,,,,,,,,,,,,,,,,,,,,,,,,,2394.421198,None,agency,28,14,sing,yellow,2392.408477,None,None,2392.408477,None,,,,,,,,,,,,,,,,,,,,,,,,,,,,,,,,,,,August10Sing1,24,2022_Aug_10_1337,ProdSingRedoBetween,2021.2.3,59.92322636
14,0,14,0,,,,,,,,,,,,,,,,,,,,,,,,,,2396.940425,None,shape,52,15,sing,blue,2394.925376,None,None,2394.925376,None,,,,,,,,,,,,,,,,,,,,,,,,,,,,,,,,,,,August10Sing1,24,2022_Aug_10_1337,ProdSingRedoBetween,2021.2.3,59.92322636
15,0,15,0,,,,,,,,,,,,,,,,,,,,,,,,,,2399.442823,None,machinery,68,16,sing,red,2397.442132,None,None,2397.442132,None,,,,,,,,,,,,,,,,,,,,,,,,,,,,,,,,,,,August10Sing1,24,2022_Aug_10_1337,ProdSingRedoBetween,2021.2.3,59.92322636
16,0,16,0,,,,,,,,,,,,,,,,,,,,,,,,,,2401.961986,None,guide,78,17,sing,red,2399.951022,None,None,2399.951022,None,,,,,,,,,,,,,,,,,,,,,,,,,,,,,,,,,,,August10Sing1,24,2022_Aug_10_1337,ProdSingRedoBetween,2021.2.3,59.92322636
17,0,17,0,,,,,,,,,,,,,,,,,,,,,,,,,,2404.481097,None,place,38,18,sing,blue,2402.471589,None,None,2402.471589,None,,,,,,,,,,,,,,,,,,,,,,,,,,,,,,,,,,,August10Sing1,24,2022_Aug_10_1337,ProdSingRedoBetween,2021.2.3,59.92322636
18,0,18,0,,,,,,,,,,,,,,,,,,,,,,,,,,2406.983765,None,revolution,81,19,sing,red,2404.981663,None,None,2404.981663,None,,,,,,,,,,,,,,,,,,,,,,,,,,,,,,,,,,,August10Sing1,24,2022_Aug_10_1337,ProdSingRedoBetween,2021.2.3,59.92322636
19,0,19,0,,,,,,,,,,,,,,,,,,,,,,,,,,2409.502856,None,profession,33,20,sing,blue,2407.491062,None,None,2407.491062,None,,,,,,,,,,,,,,,,,,,,,,,,,,,,,,,,,,,August10Sing1,24,2022_Aug_10_1337,ProdSingRedoBetween,2021.2.3,59.92322636
20,0,20,0,,,,,,,,,,,,,,,,,,,,,,,,,,2412.005455,None,agreement,18,21,sing,yellow,2410.005661,None,None,2410.005661,None,,,,,,,,,,,,,,,,,,,,,,,,,,,,,,,,,,,August10Sing1,24,2022_Aug_10_1337,ProdSingRedoBetween,2021.2.3,59.92322636
21,0,21,0,,,,,,,,,,,,,,,,,,,,,,,,,,2414.524481,None,close,2,22,sing,yellow,2412.512463,None,None,2412.512463,None,,,,,,,,,,,,,,,,,,,,,,,,,,,,,,,,,,,August10Sing1,24,2022_Aug_10_1337,ProdSingRedoBetween,2021.2.3,59.92322636
22,0,22,0,,,,,,,,,,,,,,,,,,,,,,,,,,2417.02686,None,private,70,23,sing,red,2415.025034,None,None,2415.025034,None,,,,,,,,,,,,,,,,,,,,,,,,,,,,,,,,,,,August10Sing1,24,2022_Aug_10_1337,ProdSingRedoBetween,2021.2.3,59.92322636
23,0,23,0,,,,,,,,,,,,,,,,,,,,,,,,,,2419.546382,None,break,44,24,sing,blue,2417.532912,None,None,2417.532912,None,,,,,,,,,,,,,,,,,,,,,,,,,,,,,,,,,,,August10Sing1,24,2022_Aug_10_1337,ProdSingRedoBetween,2021.2.3,59.92322636
24,0,24,0,,,,,,,,,,,,,,,,,,,,,,,,,,2422.065436,None,crime,34,25,sing,blue,2420.051811,None,None,2420.051811,None,,,,,,,,,,,,,,,,,,,,,,,,,,,,,,,,,,,August10Sing1,24,2022_Aug_10_1337,ProdSingRedoBetween,2021.2.3,59.92322636
25,0,25,0,,,,,,,,,,,,,,,,,,,,,,,,,,2424.568014,None,drama,85,26,sing,red,2422.565964,None,None,2422.565964,None,,,,,,,,,,,,,,,,,,,,,,,,,,,,,,,,,,,August10Sing1,24,2022_Aug_10_1337,ProdSingRedoBetween,2021.2.3,59.92322636
26,0,26,0,,,,,,,,,,,,,,,,,,,,,,,,,,2427.070416,None,education,79,27,sing,red,2425.069567,None,None,2425.069567,None,,,,,,,,,,,,,,,,,,,,,,,,,,,,,,,,,,,August10Sing1,24,2022_Aug_10_1337,ProdSingRedoBetween,2021.2.3,59.92322636
27,0,27,0,,,,,,,,,,,,,,,,,,,,,,,,,,2429.572972,None,trash,84,28,sing,red,2427.570983,None,None,2427.570983,None,,,,,,,,,,,,,,,,,,,,,,,,,,,,,,,,,,,August10Sing1,24,2022_Aug_10_1337,ProdSingRedoBetween,2021.2.3,59.92322636
28,0,28,0,,,,,,,,,,,,,,,,,,,,,,,,,,2432.075513,None,region,80,29,sing,red,2430.073452,None,None,2430.073452,None,,,,,,,,,,,,,,,,,,,,,,,,,,,,,,,,,,,August10Sing1,24,2022_Aug_10_1337,ProdSingRedoBetween,2021.2.3,59.92322636
29,0,29,0,,,,,,,,,,,,,,,,,,,,,,,,,,2434.578082,None,month,35,30,sing,blue,2432.575925,None,None,2432.575925,None,,,,,,,,,,,,,,,,,,,,,,,,,,,,,,,,,,,August10Sing1,24,2022_Aug_10_1337,ProdSingRedoBetween,2021.2.3,59.92322636
30,0,30,0,,,,,,,,,,,,,,,,,,,,,,,,,,2437.096886,None,debate,0,31,sing,yellow,2435.082545,None,None,2435.082545,None,,,,,,,,,,,,,,,,,,,,,,,,,,,,,,,,,,,August10Sing1,24,2022_Aug_10_1337,ProdSingRedoBetween,2021.2.3,59.92322636
31,0,31,0,,,,,,,,,,,,,,,,,,,,,,,,,,2439.599539,None,trend,72,32,sing,red,2437.597633,None,None,2437.597633,None,,,,,,,,,,,,,,,,,,,,,,,,,,,,,,,,,,,August10Sing1,24,2022_Aug_10_1337,ProdSingRedoBetween,2021.2.3,59.92322636
32,0,32,0,,,,,,,,,,,,,,,,,,,,,,,,,,2442.102266,None,reading,8,33,sing,yellow,2440.100203,None,None,2440.100203,None,,,,,,,,,,,,,,,,,,,,,,,,,,,,,,,,,,,August10Sing1,24,2022_Aug_10_1337,ProdSingRedoBetween,2021.2.3,59.92322636
33,0,33,0,,,,,,,,,,,,,,,,,,,,,,,,,,2444.6047,None,stranger,63,34,sing,red,2442.60259,None,None,2442.60259,None,,,,,,,,,,,,,,,,,,,,,,,,,,,,,,,,,,,August10Sing1,24,2022_Aug_10_1337,ProdSingRedoBetween,2021.2.3,59.92322636
34,0,34,0,,,,,,,,,,,,,,,,,,,,,,,,,,2447.106951,None,sleep,54,35,sing,blue,2445.107621,None,None,2445.107621,None,,,,,,,,,,,,,,,,,,,,,,,,,,,,,,,,,,,August10Sing1,24,2022_Aug_10_1337,ProdSingRedoBetween,2021.2.3,59.92322636
35,0,35,0,,,,,,,,,,,,,,,,,,,,,,,,,,2449.609743,None,relation,53,36,sing,blue,2447.607682,None,None,2447.607682,None,,,,,,,,,,,,,,,,,,,,,,,,,,,,,,,,,,,August10Sing1,24,2022_Aug_10_1337,ProdSingRedoBetween,2021.2.3,59.92322636
36,0,36,0,,,,,,,,,,,,,,,,,,,,,,,,,,2452.111954,None,literature,25,37,sing,yellow,2450.112302,None,None,2450.112302,None,,,,,,,,,,,,,,,,,,,,,,,,,,,,,,,,,,,August10Sing1,24,2022_Aug_10_1337,ProdSingRedoBetween,2021.2.3,59.92322636
37,0,37,0,,,,,,,,,,,,,,,,,,,,,,,,,,2454.614668,None,minute,88,38,sing,red,2452.612625,None,None,2452.612625,None,,,,,,,,,,,,,,,,,,,,,,,,,,,,,,,,,,,August10Sing1,24,2022_Aug_10_1337,ProdSingRedoBetween,2021.2.3,59.92322636
38,0,38,0,,,,,,,,,,,,,,,,,,,,,,,,,,2457.117261,None,count,87,39,sing,red,2455.115151,None,None,2455.115151,None,,,,,,,,,,,,,,,,,,,,,,,,,,,,,,,,,,,August10Sing1,24,2022_Aug_10_1337,ProdSingRedoBetween,2021.2.3,59.92322636
39,0,39,0,,,,,,,,,,,,,,,,,,,,,,,,,,2459.636379,None,appearance,47,40,sing,blue,2457.62551,None,None,2457.62551,None,,,,,,,,,,,,,,,,,,,,,,,,,,,,,,,,,,,August10Sing1,24,2022_Aug_10_1337,ProdSingRedoBetween,2021.2.3,59.92322636
40,0,40,0,,,,,,,,,,,,,,,,,,,,,,,,,,2462.155485,None,council,31,41,sing,blue,2460.142744,None,None,2460.142744,None,,,,,,,,,,,,,,,,,,,,,,,,,,,,,,,,,,,August10Sing1,24,2022_Aug_10_1337,ProdSingRedoBetween,2021.2.3,59.92322636
41,0,41,0,,,,,,,,,,,,,,,,,,,,,,,,,,2464.658133,None,meeting,40,42,sing,blue,2462.656058,None,None,2462.656058,None,,,,,,,,,,,,,,,,,,,,,,,,,,,,,,,,,,,August10Sing1,24,2022_Aug_10_1337,ProdSingRedoBetween,2021.2.3,59.92322636
42,0,42,0,,,,,,,,,,,,,,,,,,,,,,,,,,2467.160545,None,testimony,58,43,sing,blue,2465.158525,None,None,2465.158525,None,,,,,,,,,,,,,,,,,,,,,,,,,,,,,,,,,,,August10Sing1,24,2022_Aug_10_1337,ProdSingRedoBetween,2021.2.3,59.92322636
43,0,43,0,,,,,,,,,,,,,,,,,,,,,,,,,,2469.662994,None,under,62,44,sing,red,2467.661965,None,None,2467.661965,None,,,,,,,,,,,,,,,,,,,,,,,,,,,,,,,,,,,August10Sing1,24,2022_Aug_10_1337,ProdSingRedoBetween,2021.2.3,59.92322636
44,0,44,0,,,,,,,,,,,,,,,,,,,,,,,,,,2472.165605,None,hearing,71,45,sing,red,2470.163591,None,None,2470.163591,None,,,,,,,,,,,,,,,,,,,,,,,,,,,,,,,,,,,August10Sing1,24,2022_Aug_10_1337,ProdSingRedoBetween,2021.2.3,59.92322636
45,0,45,0,,,,,,,,,,,,,,,,,,,,,,,,,,2474.668092,None,smell,17,46,sing,yellow,2472.666018,None,None,2472.666018,None,,,,,,,,,,,,,,,,,,,,,,,,,,,,,,,,,,,August10Sing1,24,2022_Aug_10_1337,ProdSingRedoBetween,2021.2.3,59.92322636
46,0,46,0,,,,,,,,,,,,,,,,,,,,,,,,,,2477.170662,None,short,3,47,sing,yellow,2475.170701,None,None,2475.170701,None,,,,,,,,,,,,,,,,,,,,,,,,,,,,,,,,,,,August10Sing1,24,2022_Aug_10_1337,ProdSingRedoBetween,2021.2.3,59.92322636
47,0,47,0,,,,,,,,,,,,,,,,,,,,,,,,,,2479.673224,None,device,82,48,sing,red,2477.671538,None,None,2477.671538,None,,,,,,,,,,,,,,,,,,,,,,,,,,,,,,,,,,,August10Sing1,24,2022_Aug_10_1337,ProdSingRedoBetween,2021.2.3,59.92322636
48,0,48,0,,,,,,,,,,,,,,,,,,,,,,,,,,2482.175636,None,author,50,49,sing,blue,2480.173585,None,None,2480.173585,None,,,,,,,,,,,,,,,,,,,,,,,,,,,,,,,,,,,August10Sing1,24,2022_Aug_10_1337,ProdSingRedoBetween,2021.2.3,59.92322636
49,0,49,0,,,,,,,,,,,,,,,,,,,,,,,,,,2484.678081,None,scene,55,50,sing,blue,2482.677176,None,None,2482.677176,None,,,,,,,,,,,,,,,,,,,,,,,,,,,,,,,,,,,August10Sing1,24,2022_Aug_10_1337,ProdSingRedoBetween,2021.2.3,59.92322636
50,0,50,0,,,,,,,,,,,,,,,,,,,,,,,,,,2487.18066,None,stand,61,51,sing,red,2485.180878,None,None,2485.180878,None,,,,,,,,,,,,,,,,,,,,,,,,,,,,,,,,,,,August10Sing1,24,2022_Aug_10_1337,ProdSingRedoBetween,2021.2.3,59.92322636
51,0,51,0,,,,,,,,,,,,,,,,,,,,,,,,,,2489.683137,None,audience,30,52,sing,blue,2487.681053,None,None,2487.681053,None,,,,,,,,,,,,,,,,,,,,,,,,,,,,,,,,,,,August10Sing1,24,2022_Aug_10_1337,ProdSingRedoBetween,2021.2.3,59.92322636
52,0,52,0,,,,,,,,,,,,,,,,,,,,,,,,,,2492.202259,None,theme,39,53,sing,blue,2490.193429,None,None,2490.193429,None,,,,,,,,,,,,,,,,,,,,,,,,,,,,,,,,,,,August10Sing1,24,2022_Aug_10_1337,ProdSingRedoBetween,2021.2.3,59.92322636
53,0,53,0,,,,,,,,,,,,,,,,,,,,,,,,,,2494.70486,None,candidate,26,54,sing,yellow,2492.702773,None,None,2492.702773,None,,,,,,,,,,,,,,,,,,,,,,,,,,,,,,,,,,,August10Sing1,24,2022_Aug_10_1337,ProdSingRedoBetween,2021.2.3,59.92322636
54,0,54,0,,,,,,,,,,,,,,,,,,,,,,,,,,2497.20732,None,answer,69,55,sing,red,2495.207294,None,None,2495.207294,None,,,,,,,,,,,,,,,,,,,,,,,,,,,,,,,,,,,August10Sing1,24,2022_Aug_10_1337,ProdSingRedoBetween,2021.2.3,59.92322636
55,0,55,0,,,,,,,,,,,,,,,,,,,,,,,,,,2499.726515,None,plane,73,56,sing,red,2497.71343,None,None,2497.71343,None,,,,,,,,,,,,,,,,,,,,,,,,,,,,,,,,,,,August10Sing1,24,2022_Aug_10_1337,ProdSingRedoBetween,2021.2.3,59.92322636
56,0,56,0,,,,,,,,,,,,,,,,,,,,,,,,,,2502.228744,None,sound,59,57,sing,yellow,2500.227904,None,None,2500.227904,None,,,,,,,,,,,,,,,,,,,,,,,,,,,,,,,,,,,August10Sing1,24,2022_Aug_10_1337,ProdSingRedoBetween,2021.2.3,59.92322636
57,0,57,0,,,,,,,,,,,,,,,,,,,,,,,,,,2504.731308,None,cross,75,58,sing,red,2502.729434,None,None,2502.729434,None,,,,,,,,,,,,,,,,,,,,,,,,,,,,,,,,,,,August10Sing1,24,2022_Aug_10_1337,ProdSingRedoBetween,2021.2.3,59.92322636
58,0,58,0,,,,,,,,,,,,,,,,,,,,,,,,,,2507.2341,None,production,14,59,sing,yellow,2505.231945,None,None,2505.231945,None,,,,,,,,,,,,,,,,,,,,,,,,,,,,,,,,,,,August10Sing1,24,2022_Aug_10_1337,ProdSingRedoBetween,2021.2.3,59.92322636
59,0,59,0,,,,,,,,,,,,,,,,,,,,,,,,,,2509.753226,None,interview,9,60,sing,yellow,2507.741265,None,None,2507.741265,None,,,,,,,,,,,,,,,,,,,,,,,,,,,,,,,,,,,August10Sing1,24,2022_Aug_10_1337,ProdSingRedoBetween,2021.2.3,59.92322636
60,0,60,0,,,,,,,,,,,,,,,,,,,,,,,,,,2512.272408,None,blind,65,61,sing,red,2510.257182,None,None,2510.257182,None,,,,,,,,,,,,,,,,,,,,,,,,,,,,,,,,,,,August10Sing1,24,2022_Aug_10_1337,ProdSingRedoBetween,2021.2.3,59.92322636
61,0,61,0,,,,,,,,,,,,,,,,,,,,,,,,,,2514.774933,None,signal,51,62,sing,blue,2512.775633,None,None,2512.775633,None,,,,,,,,,,,,,,,,,,,,,,,,,,,,,,,,,,,August10Sing1,24,2022_Aug_10_1337,ProdSingRedoBetween,2021.2.3,59.92322636
62,0,62,0,,,,,,,,,,,,,,,,,,,,,,,,,,2517.29389,None,mankind,57,63,sing,blue,2515.281123,None,None,2515.281123,None,,,,,,,,,,,,,,,,,,,,,,,,,,,,,,,,,,,August10Sing1,24,2022_Aug_10_1337,ProdSingRedoBetween,2021.2.3,59.92322636
63,0,63,0,,,,,,,,,,,,,,,,,,,,,,,,,,2519.813248,None,measure,86,64,sing,red,2517.798249,None,None,2517.798249,None,,,,,,,,,,,,,,,,,,,,,,,,,,,,,,,,,,,August10Sing1,24,2022_Aug_10_1337,ProdSingRedoBetween,2021.2.3,59.92322636
64,0,64,0,,,,,,,,,,,,,,,,,,,,,,,,,,2522.332408,None,incident,83,65,sing,red,2520.317256,None,None,2520.317256,None,,,,,,,,,,,,,,,,,,,,,,,,,,,,,,,,,,,August10Sing1,24,2022_Aug_10_1337,ProdSingRedoBetween,2021.2.3,59.92322636
65,0,65,0,,,,,,,,,,,,,,,,,,,,,,,,,,2524.834849,None,message,66,66,sing,red,2522.835681,None,None,2522.835681,None,,,,,,,,,,,,,,,,,,,,,,,,,,,,,,,,,,,August10Sing1,24,2022_Aug_10_1337,ProdSingRedoBetween,2021.2.3,59.92322636
66,0,66,0,,,,,,,,,,,,,,,,,,,,,,,,,,2527.348211,None,contract,1,67,sing,yellow,2525.335358,None,None,2525.335358,None,,,,,,,,,,,,,,,,,,,,,,,,,,,,,,,,,,,August10Sing1,24,2022_Aug_10_1337,ProdSingRedoBetween,2021.2.3,59.92322636
67,0,67,0,,,,,,,,,,,,,,,,,,,,,,,,,,2529.856522,None,account,41,68,sing,blue,2527.855816,None,None,2527.855816,None,,,,,,,,,,,,,,,,,,,,,,,,,,,,,,,,,,,August10Sing1,24,2022_Aug_10_1337,ProdSingRedoBetween,2021.2.3,59.92322636
68,0,68,0,,,,,,,,,,,,,,,,,,,,,,,,,,2532.37572,None,space,48,69,sing,blue,2530.363421,None,None,2530.363421,None,,,,,,,,,,,,,,,,,,,,,,,,,,,,,,,,,,,August10Sing1,24,2022_Aug_10_1337,ProdSingRedoBetween,2021.2.3,59.92322636
69,0,69,0,,,,,,,,,,,,,,,,,,,,,,,,,,2534.878266,None,growth,13,70,sing,yellow,2532.87628,None,None,2532.87628,None,,,,,,,,,,,,,,,,,,,,,,,,,,,,,,,,,,,August10Sing1,24,2022_Aug_10_1337,ProdSingRedoBetween,2021.2.3,59.92322636
70,0,70,0,,,,,,,,,,,,,,,,,,,,,,,,,,2537.380788,None,income,49,71,sing,blue,2535.379382,None,None,2535.379382,None,,,,,,,,,,,,,,,,,,,,,,,,,,,,,,,,,,,August10Sing1,24,2022_Aug_10_1337,ProdSingRedoBetween,2021.2.3,59.92322636
71,0,71,0,,,,,,,,,,,,,,,,,,,,,,,,,,2539.899927,None,patient,21,72,sing,yellow,2537.890867,None,None,2537.890867,None,,,,,,,,,,,,,,,,,,,,,,,,,,,,,,,,,,,August10Sing1,24,2022_Aug_10_1337,ProdSingRedoBetween,2021.2.3,59.92322636
72,0,72,0,,,,,,,,,,,,,,,,,,,,,,,,,,2542.402533,None,write,32,73,sing,blue,2540.400316,None,None,2540.400316,None,,,,,,,,,,,,,,,,,,,,,,,,,,,,,,,,,,,August10Sing1,24,2022_Aug_10_1337,ProdSingRedoBetween,2021.2.3,59.92322636
73,0,73,0,,,,,,,,,,,,,,,,,,,,,,,,,,2544.904939,None,weight,89,74,sing,red,2542.905585,None,None,2542.905585,None,,,,,,,,,,,,,,,,,,,,,,,,,,,,,,,,,,,August10Sing1,24,2022_Aug_10_1337,ProdSingRedoBetween,2021.2.3,59.92322636
74,0,74,0,,,,,,,,,,,,,,,,,,,,,,,,,,2547.424017,None,executive,56,75,sing,blue,2545.420739,None,None,2545.420739,None,,,,,,,,,,,,,,,,,,,,,,,,,,,,,,,,,,,August10Sing1,24,2022_Aug_10_1337,ProdSingRedoBetween,2021.2.3,59.92322636
75,0,75,0,,,,,,,,,,,,,,,,,,,,,,,,,,2549.926516,None,childhood,45,76,sing,blue,2547.924676,None,None,2547.924676,None,,,,,,,,,,,,,,,,,,,,,,,,,,,,,,,,,,,August10Sing1,24,2022_Aug_10_1337,ProdSingRedoBetween,2021.2.3,59.92322636
76,0,76,0,,,,,,,,,,,,,,,,,,,,,,,,,,2552.429175,None,surprise,6,77,sing,yellow,2550.430292,None,None,2550.430292,None,,,,,,,,,,,,,,,,,,,,,,,,,,,,,,,,,,,August10Sing1,24,2022_Aug_10_1337,ProdSingRedoBetween,2021.2.3,59.92322636
77,0,77,0,,,,,,,,,,,,,,,,,,,,,,,,,,2554.948488,None,quantity,15,78,sing,yellow,2552.933132,None,None,2552.933132,None,,,,,,,,,,,,,,,,,,,,,,,,,,,,,,,,,,,August10Sing1,24,2022_Aug_10_1337,ProdSingRedoBetween,2021.2.3,59.92322636
78,0,78,0,,,,,,,,,,,,,,,,,,,,,,,,,,2557.450799,None,generation,4,79,sing,yellow,2555.449909,None,None,2555.449909,None,,,,,,,,,,,,,,,,,,,,,,,,,,,,,,,,,,,August10Sing1,24,2022_Aug_10_1337,ProdSingRedoBetween,2021.2.3,59.92322636
79,0,79,0,,,,,,,,,,,,,,,,,,,,,,,,,,2559.953347,None,dispute,19,80,sing,yellow,2557.952211,None,None,2557.952211,None,,,,,,,,,,,,,,,,,,,,,,,,,,,,,,,,,,,August10Sing1,24,2022_Aug_10_1337,ProdSingRedoBetween,2021.2.3,59.92322636
80,0,80,0,,,,,,,,,,,,,,,,,,,,,,,,,,2562.455974,None,graduate,22,81,sing,yellow,2560.454506,None,None,2560.454506,None,,,,,,,,,,,,,,,,,,,,,,,,,,,,,,,,,,,August10Sing1,24,2022_Aug_10_1337,ProdSingRedoBetween,2021.2.3,59.92322636
81,0,81,0,,,,,,,,,,,,,,,,,,,,,,,,,,2564.975071,None,trial,76,82,sing,red,2562.959805,None,None,2562.959805,None,,,,,,,,,,,,,,,,,,,,,,,,,,,,,,,,,,,August10Sing1,24,2022_Aug_10_1337,ProdSingRedoBetween,2021.2.3,59.92322636
82,0,82,0,,,,,,,,,,,,,,,,,,,,,,,,,,2567.477442,None,exchange,20,83,sing,yellow,2565.475384,None,None,2565.475384,None,,,,,,,,,,,,,,,,,,,,,,,,,,,,,,,,,,,August10Sing1,24,2022_Aug_10_1337,ProdSingRedoBetween,2021.2.3,59.92322636
83,0,83,0,,,,,,,,,,,,,,,,,,,,,,,,,,2569.979795,None,master,10,84,sing,yellow,2567.977804,None,None,2567.977804,None,,,,,,,,,,,,,,,,,,,,,,,,,,,,,,,,,,,August10Sing1,24,2022_Aug_10_1337,ProdSingRedoBetween,2021.2.3,59.92322636
84,0,84,0,,,,,,,,,,,,,,,,,,,,,,,,,,2572.482496,None,heavy,7,85,sing,yellow,2570.480341,None,None,2570.480341,None,,,,,,,,,,,,,,,,,,,,,,,,,,,,,,,,,,,August10Sing1,24,2022_Aug_10_1337,ProdSingRedoBetween,2021.2.3,59.92322636
85,0,85,0,,,,,,,,,,,,,,,,,,,,,,,,,,2574.985118,None,universal,77,86,sing,red,2572.983691,None,None,2572.983691,None,,,,,,,,,,,,,,,,,,,,,,,,,,,,,,,,,,,August10Sing1,24,2022_Aug_10_1337,ProdSingRedoBetween,2021.2.3,59.92322636
86,0,86,0,,,,,,,,,,,,,,,,,,,,,,,,,,2577.504041,None,straight,29,87,sing,blue,2575.495202,None,None,2575.495202,None,,,,,,,,,,,,,,,,,,,,,,,,,,,,,,,,,,,August10Sing1,24,2022_Aug_10_1337,ProdSingRedoBetween,2021.2.3,59.92322636
87,0,87,0,,,,,,,,,,,,,,,,,,,,,,,,,,2580.02345,None,power,36,88,sing,blue,2578.016926,None,None,2578.016926,None,,,,,,,,,,,,,,,,,,,,,,,,,,,,,,,,,,,August10Sing1,24,2022_Aug_10_1337,ProdSingRedoBetween,2021.2.3,59.92322636
88,0,88,0,,,,,,,,,,,,,,,,,,,,,,,,,,2582.542636,None,burden,43,89,sing,blue,2580.527373,None,None,2580.527373,None,,,,,,,,,,,,,,,,,,,,,,,,,,,,,,,,,,,August10Sing1,24,2022_Aug_10_1337,ProdSingRedoBetween,2021.2.3,59.92322636
89,0,89,0,,,,,,,,,,,,,,,,,,,,,,,,,,2585.045251,None,budget,74,90,sing,red,2583.045313,None,None,2583.045313,None,,,,,,,,,,,,,,,,,,,,,,,,,,,,,,,,,,,August10Sing1,24,2022_Aug_10_1337,ProdSingRedoBetween,2021.2.3,59.92322636
,,,,,,,,,,,,,,,,,,,,,,,,,,,,,,,,,,,,,,,,,2585.545697,None,k,65.3101113,2585.545697,None,,,,,,,,,,,,,,,,,,,,,,,,,,,,,August10Sing1,24,2022_Aug_10_1337,ProdSingRedoBetween,2021.2.3,59.92322636
,,,,0,0,0,0,,,,,,,,,,,,,,,,,,,,,,2690.116872,None,,,,,,,,,,,,,,,,,minute,88,1,sing,old,red,2651.384577,None,2651.384577,None,6,29.0233131,2651.384577,None,29.0233131,2680.430446,None,2680.941146,None,2680.941146,None,r,9.1546928,2680.941146,None,9.1546928,,,August10Sing1,24,2022_Aug_10_1337,ProdSingRedoBetween,2021.2.3,59.92322636
,,,,1,0,1,0,,,,,,,,,,,,,,,,,,,,,,2695.611218,None,,,,,,,,,,,,,,,,,revolution,81,2,sing,old,red,2690.634994,None,2690.634994,None,6,3.1648455,2690.634994,None,3.1648455,2693.822593,None,2694.338255,None,2694.338255,None,r,1.2456986,2694.338255,None,1.2456986,,,August10Sing1,24,2022_Aug_10_1337,ProdSingRedoBetween,2021.2.3,59.92322636
,,,,2,0,2,0,,,,,,,,,,,,,,,,,,,,,,2703.446824,None,,,,,,,,,,,,,,,,,scene,55,3,sing,old,blue,2696.122981,None,2696.122981,None,4,5.4129248,2696.122981,None,5.4129248,2701.567786,None,2702.079032,None,2702.079032,None,f,1.3370531,2702.079032,None,1.3370531,,,August10Sing1,24,2022_Aug_10_1337,ProdSingRedoBetween,2021.2.3,59.92322636
,,,,3,0,3,0,,,,,,,,,,,,,,,,,,,,,,2710.653998,None,,,,,,,,,,,,,,,,,question,132,4,sing,new,null,2703.962123,None,2703.962123,None,1,4.2297871,2703.962123,None,4.2297871,2708.21961,None,2708.724164,None,2708.724164,None,n,1.8997191,2708.724164,None,1.8997191,,,August10Sing1,24,2022_Aug_10_1337,ProdSingRedoBetween,2021.2.3,59.92322636
,,,,4,0,4,0,,,,,,,,,,,,,,,,,,,,,,2718.678755,None,,,,,,,,,,,,,,,,,growth,13,5,sing,old,yellow,2711.165848,None,2711.165848,None,4,4.5139539,2711.165848,None,4.5139539,2715.71181,None,2716.226481,None,2716.226481,None,f,2.4213624,2716.226481,None,2.4213624,,,August10Sing1,24,2022_Aug_10_1337,ProdSingRedoBetween,2021.2.3,59.92322636
,,,,5,0,5,0,,,,,,,,,,,,,,,,,,,,,,2725.488188,None,,,,,,,,,,,,,,,,,business,27,6,sing,old,yellow,2719.182162,None,2719.182162,None,6,3.1779915,2719.182162,None,3.1779915,2722.383593,None,2722.883024,None,2722.883024,None,r,2.572891,2722.883024,None,2.572891,,,August10Sing1,24,2022_Aug_10_1337,ProdSingRedoBetween,2021.2.3,59.92322636
,,,,6,0,6,0,,,,,,,,,,,,,,,,,,,,,,2730.690775,None,,,,,,,,,,,,,,,,,vision,115,7,sing,new,null,2726.007198,None,2726.007198,None,1,2.2886402,2726.007198,None,2.2886402,2728.326924,None,2728.844633,None,2728.844633,None,n,1.8272636,2728.844633,None,1.8272636,,,August10Sing1,24,2022_Aug_10_1337,ProdSingRedoBetween,2021.2.3,59.92322636
,,,,7,0,7,0,,,,,,,,,,,,,,,,,,,,,,2735.579018,None,,,,,,,,,,,,,,,,,edition,175,8,sing,new,null,2731.197323,None,2731.197323,None,1,2.2585762,2731.197323,None,2.2585762,2733.478558,None,2733.99521,None,2733.99521,None,n,1.5647085,2733.99521,None,1.5647085,,,August10Sing1,24,2022_Aug_10_1337,ProdSingRedoBetween,2021.2.3,59.92322636
,,,,8,0,8,0,,,,,,,,,,,,,,,,,,,,,,2741.501713,None,,,,,,,,,,,,,,,,,position,107,9,sing,new,null,2736.090243,None,2736.090243,None,1,2.8936636,2736.090243,None,2.8936636,2739.000122,None,2739.499674,None,2739.499674,None,n,1.9721281,2739.499674,None,1.9721281,,,August10Sing1,24,2022_Aug_10_1337,ProdSingRedoBetween,2021.2.3,59.92322636
,,,,9,0,9,0,,,,,,,,,,,,,,,,,,,,,,2745.343665,None,,,,,,,,,,,,,,,,,short,3,10,sing,old,yellow,2742.0035,None,2742.0035,None,1,2.1884783,2742.0035,None,2.1884783,2744.221712,None,2744.726843,None,2744.726843,None,n,0.5770518,2744.726843,None,0.5770518,,,August10Sing1,24,2022_Aug_10_1337,ProdSingRedoBetween,2021.2.3,59.92322636
,,,,10,0,10,0,,,,,,,,,,,,,,,,,,,,,,2749.993656,None,,,,,,,,,,,,,,,,,suspect,99,11,sing,new,null,2745.856689,None,2745.856689,None,1,1.5514759,2745.856689,None,1.5514759,2747.425343,None,2747.934878,None,2747.934878,None,n,2.041034,2747.934878,None,2.041034,,,August10Sing1,24,2022_Aug_10_1337,ProdSingRedoBetween,2021.2.3,59.92322636
,,,,11,0,11,0,,,,,,,,,,,,,,,,,,,,,,2757.484398,None,,,,,,,,,,,,,,,,,produce,159,12,sing,new,null,2750.499953,None,2750.499953,None,1,4.123948,2750.499953,None,4.123948,2754.650741,None,2755.168114,None,2755.168114,None,n,2.2876874,2755.168114,None,2.2876874,,,August10Sing1,24,2022_Aug_10_1337,ProdSingRedoBetween,2021.2.3,59.92322636
,,,,12,0,12,0,,,,,,,,,,,,,,,,,,,,,,2764.841519,None,,,,,,,,,,,,,,,,,region,80,13,sing,old,red,2757.984679,None,2757.984679,None,6,4.1591233,2757.984679,None,4.1591233,2762.172054,None,2762.67268,None,2762.67268,None,r,2.1511956,2762.67268,None,2.1511956,,,August10Sing1,24,2022_Aug_10_1337,ProdSingRedoBetween,2021.2.3,59.92322636
,,,,13,0,13,0,,,,,,,,,,,,,,,,,,,,,,2769.163393,None,,,,,,,,,,,,,,,,,course,46,14,sing,old,blue,2765.342076,None,2765.342076,None,6,2.5297702,2765.342076,None,2.5297702,2767.894529,None,2768.395125,None,2768.395125,None,r,0.7407049,2768.395125,None,0.7407049,,,August10Sing1,24,2022_Aug_10_1337,ProdSingRedoBetween,2021.2.3,59.92322636
,,,,14,0,14,0,,,,,,,,,,,,,,,,,,,,,,2772.565744,None,,,,,,,,,,,,,,,,,harmony,140,15,sing,new,null,2769.663122,None,2769.663122,None,1,1.7047297,2769.663122,None,1.7047297,2771.398076,None,2771.898633,None,2771.898633,None,n,0.6372235,2771.898633,None,0.6372235,,,August10Sing1,24,2022_Aug_10_1337,ProdSingRedoBetween,2021.2.3,59.92322636
,,,,15,0,15,0,,,,,,,,,,,,,,,,,,,,,,2776.004598,None,,,,,,,,,,,,,,,,,division,157,16,sing,new,null,2773.066524,None,2773.066524,None,1,1.9893192,2773.066524,None,1.9893192,2775.085798,None,2775.586191,None,2775.586191,None,n,0.3976686,2775.586191,None,0.3976686,,,August10Sing1,24,2022_Aug_10_1337,ProdSingRedoBetween,2021.2.3,59.92322636
,,,,16,0,16,0,,,,,,,,,,,,,,,,,,,,,,2783.376751,None,,,,,,,,,,,,,,,,,general,136,17,sing,new,null,2776.520054,None,2776.520054,None,4,5.0318612,2776.520054,None,5.0318612,2781.575946,None,2782.079962,None,2782.079962,None,f,1.2719744,2782.079962,None,1.2719744,,,August10Sing1,24,2022_Aug_10_1337,ProdSingRedoBetween,2021.2.3,59.92322636
,,,,17,0,17,0,,,,,,,,,,,,,,,,,,,,,,2789.449358,None,,,,,,,,,,,,,,,,,commercial,111,18,sing,new,null,2783.877832,None,2783.877832,None,4,4.0982766,2783.877832,None,4.0982766,2787.99802,None,2788.501236,None,2788.501236,None,f,0.9307423,2788.501236,None,0.9307423,,,August10Sing1,24,2022_Aug_10_1337,ProdSingRedoBetween,2021.2.3,59.92322636
,,,,18,0,18,0,,,,,,,,,,,,,,,,,,,,,,2792.602801,None,,,,,,,,,,,,,,,,,dance,109,19,sing,new,null,2789.960169,None,2789.960169,None,1,1.5197766,2789.960169,None,1.5197766,2791.502438,None,2792.002102,None,2792.002102,None,n,0.5740528,2792.002102,None,0.5740528,,,August10Sing1,24,2022_Aug_10_1337,ProdSingRedoBetween,2021.2.3,59.92322636
,,,,19,0,19,0,,,,,,,,,,,,,,,,,,,,,,2795.488934,None,,,,,,,,,,,,,,,,,pancakes,95,20,sing,new,null,2793.103855,None,2793.103855,None,1,1.096027,2793.103855,None,1.096027,2794.223331,None,2794.738293,None,2794.738293,None,n,0.7258673,2794.738293,None,0.7258673,,,August10Sing1,24,2022_Aug_10_1337,ProdSingRedoBetween,2021.2.3,59.92322636
,,,,20,0,20,0,,,,,,,,,,,,,,,,,,,,,,2799.609699,None,,,,,,,,,,,,,,,,,couch,116,21,sing,new,null,2795.989546,None,2795.989546,None,1,2.4824227,2795.989546,None,2.4824227,2798.492821,None,2798.996953,None,2798.996953,None,n,0.5949636,2798.996953,None,0.5949636,,,August10Sing1,24,2022_Aug_10_1337,ProdSingRedoBetween,2021.2.3,59.92322636
,,,,21,0,21,0,,,,,,,,,,,,,,,,,,,,,,2802.395731,None,,,,,,,,,,,,,,,,,sleep,54,22,sing,old,blue,2800.110235,None,2800.110235,None,1,1.073649,2800.110235,None,1.073649,2801.211345,None,2801.711855,None,2801.711855,None,n,0.6560547,2801.711855,None,0.6560547,,,August10Sing1,24,2022_Aug_10_1337,ProdSingRedoBetween,2021.2.3,59.92322636
,,,,22,0,22,0,,,,,,,,,,,,,,,,,,,,,,2806.566647,None,,,,,,,,,,,,,,,,,sound,59,23,sing,old,yellow,2802.903486,None,2802.903486,None,4,2.6163758,2802.903486,None,2.6163758,2805.554107,None,2806.066365,None,2806.066365,None,f,0.477618,2806.066365,None,0.477618,,,August10Sing1,24,2022_Aug_10_1337,ProdSingRedoBetween,2021.2.3,59.92322636
,,,,23,0,23,0,,,,,,,,,,,,,,,,,,,,,,2810.036812,None,,,,,,,,,,,,,,,,,weight,89,24,sing,old,red,2807.088395,None,2807.088395,None,1,1.4395549,2807.088395,None,1.4395549,2808.553755,None,2809.074122,None,2809.074122,None,n,0.9337917,2809.074122,None,0.9337917,,,August10Sing1,24,2022_Aug_10_1337,ProdSingRedoBetween,2021.2.3,59.92322636
,,,,24,0,24,0,,,,,,,,,,,,,,,,,,,,,,2812.857835,None,,,,,,,,,,,,,,,,,account,41,25,sing,old,blue,2810.544954,None,2810.544954,None,1,1.3430437,2810.544954,None,1.3430437,2811.906081,None,2812.408875,None,2812.408875,None,n,0.4231156,2812.408875,None,0.4231156,,,August10Sing1,24,2022_Aug_10_1337,ProdSingRedoBetween,2021.2.3,59.92322636
,,,,25,0,25,0,,,,,,,,,,,,,,,,,,,,,,2815.992665,None,,,,,,,,,,,,,,,,,contract,1,26,sing,old,yellow,2813.373607,None,2813.373607,None,1,1.5943852,2813.373607,None,1.5943852,2814.991629,None,2815.492374,None,2815.492374,None,n,0.4756535,2815.492374,None,0.4756535,,,August10Sing1,24,2022_Aug_10_1337,ProdSingRedoBetween,2021.2.3,59.92322636
,,,,26,0,26,0,,,,,,,,,,,,,,,,,,,,,,2818.978853,None,,,,,,,,,,,,,,,,,object,166,27,sing,new,null,2816.496958,None,2816.496958,None,1,1.3429587,2816.496958,None,1.3429587,2817.863593,None,2818.378609,None,2818.378609,None,n,0.5733076,2818.378609,None,0.5733076,,,August10Sing1,24,2022_Aug_10_1337,ProdSingRedoBetween,2021.2.3,59.92322636
,,,,27,0,27,0,,,,,,,,,,,,,,,,,,,,,,2821.96537,None,,,,,,,,,,,,,,,,,income,49,28,sing,old,blue,2819.487596,None,2819.487596,None,1,1.4883808,2819.487596,None,1.4883808,2820.997691,None,2821.498424,None,2821.498424,None,n,0.4376123,2821.498424,None,0.4376123,,,August10Sing1,24,2022_Aug_10_1337,ProdSingRedoBetween,2021.2.3,59.92322636
,,,,28,0,28,0,,,,,,,,,,,,,,,,,,,,,,2826.962906,None,,,,,,,,,,,,,,,,,straight,29,29,sing,old,blue,2822.466021,None,2822.466021,None,4,3.0859291,2822.466021,None,3.0859291,2825.57559,None,2826.089918,None,2826.089918,None,f,0.838107,2826.089918,None,0.838107,,,August10Sing1,24,2022_Aug_10_1337,ProdSingRedoBetween,2021.2.3,59.92322636
,,,,29,0,29,0,,,,,,,,,,,,,,,,,,,,,,2830.50726,None,,,,,,,,,,,,,,,,,junior,162,30,sing,new,null,2827.477931,None,2827.477931,None,1,1.594071,2827.477931,None,1.594071,2829.090282,None,2829.593896,None,2829.593896,None,n,0.8940977,2829.593896,None,0.8940977,,,August10Sing1,24,2022_Aug_10_1337,ProdSingRedoBetween,2021.2.3,59.92322636
,,,,30,0,30,0,,,,,,,,,,,,,,,,,,,,,,2834.461161,None,,,,,,,,,,,,,,,,,addition,24,31,sing,old,yellow,2831.020823,None,2831.020823,None,6,2.1153586,2831.020823,None,2.1153586,2833.165634,None,2833.677246,None,2833.677246,None,r,0.754838,2833.677246,None,0.754838,,,August10Sing1,24,2022_Aug_10_1337,ProdSingRedoBetween,2021.2.3,59.92322636
,,,,31,0,31,0,,,,,,,,,,,,,,,,,,,,,,2839.00613,None,,,,,,,,,,,,,,,,,literature,25,32,sing,old,yellow,2834.965713,None,2834.965713,None,6,2.3382523,2834.965713,None,2.3382523,2837.331376,None,2837.83404,None,2837.83404,None,r,1.14224,2837.83404,None,1.14224,,,August10Sing1,24,2022_Aug_10_1337,ProdSingRedoBetween,2021.2.3,59.92322636
,,,,32,0,32,0,,,,,,,,,,,,,,,,,,,,,,2843.787124,None,,,,,,,,,,,,,,,,,surprise,6,33,sing,old,yellow,2839.51711,None,2839.51711,None,6,3.1789114,2839.51711,None,3.1789114,2842.720639,None,2843.220142,None,2843.220142,None,r,0.5478927,2843.220142,None,0.5478927,,,August10Sing1,24,2022_Aug_10_1337,ProdSingRedoBetween,2021.2.3,59.92322636
,,,,33,0,33,0,,,,,,,,,,,,,,,,,,,,,,2849.17592,None,,,,,,,,,,,,,,,,,second,93,34,sing,new,null,2844.294111,None,2844.294111,None,3,2.9219352,2844.294111,None,2.9219352,2847.241869,None,2847.741239,None,2847.741239,None,f,1.4188598,2847.741239,None,1.4188598,,,August10Sing1,24,2022_Aug_10_1337,ProdSingRedoBetween,2021.2.3,59.92322636
,,,,34,0,34,0,,,,,,,,,,,,,,,,,,,,,,2852.829358,None,,,,,,,,,,,,,,,,,device,82,35,sing,old,red,2849.680432,None,2849.680432,None,1,1.5276506,2849.680432,None,1.5276506,2851.233802,None,2851.757389,None,2851.757389,None,n,1.050531,2851.757389,None,1.050531,,,August10Sing1,24,2022_Aug_10_1337,ProdSingRedoBetween,2021.2.3,59.92322636
,,,,35,0,35,0,,,,,,,,,,,,,,,,,,,,,,2856.76668,None,,,,,,,,,,,,,,,,,quarter,37,36,sing,old,blue,2853.331464,None,2853.331464,None,6,1.924562,2853.331464,None,1.924562,2855.282163,None,2855.782441,None,2855.782441,None,r,0.9615649,2855.782441,None,0.9615649,,,August10Sing1,24,2022_Aug_10_1337,ProdSingRedoBetween,2021.2.3,59.92322636
,,,,36,0,36,0,,,,,,,,,,,,,,,,,,,,,,2861.020943,None,,,,,,,,,,,,,,,,,brief,121,37,sing,new,null,2857.267282,None,2857.267282,None,1,2.2527128,2857.267282,None,2.2527128,2859.536179,None,2860.036815,None,2860.036815,None,n,0.963113,2860.036815,None,0.963113,,,August10Sing1,24,2022_Aug_10_1337,ProdSingRedoBetween,2021.2.3,59.92322636
,,,,37,0,37,0,,,,,,,,,,,,,,,,,,,,,,2863.690372,None,,,,,,,,,,,,,,,,,close,2,38,sing,old,yellow,2861.521635,None,2861.521635,None,1,1.022256,2861.521635,None,1.022256,2862.572489,None,2863.073558,None,2863.073558,None,n,0.598375,2863.073558,None,0.598375,,,August10Sing1,24,2022_Aug_10_1337,ProdSingRedoBetween,2021.2.3,59.92322636
,,,,38,0,38,0,,,,,,,,,,,,,,,,,,,,,,2867.160575,None,,,,,,,,,,,,,,,,,plane,73,39,sing,old,red,2864.190835,None,2864.190835,None,1,1.8411341,2864.190835,None,1.8411341,2866.065431,None,2866.576606,None,2866.576606,None,n,0.5674999,2866.576606,None,0.5674999,,,August10Sing1,24,2022_Aug_10_1337,ProdSingRedoBetween,2021.2.3,59.92322636
,,,,39,0,39,0,,,,,,,,,,,,,,,,,,,,,,2870.180077,None,,,,,,,,,,,,,,,,,cross,75,40,sing,old,red,2867.661229,None,2867.661229,None,1,1.3787403,2867.661229,None,1.3787403,2869.062425,None,2869.564369,None,2869.564369,None,n,0.5875622,2869.564369,None,0.5875622,,,August10Sing1,24,2022_Aug_10_1337,ProdSingRedoBetween,2021.2.3,59.92322636
,,,,40,0,40,0,,,,,,,,,,,,,,,,,,,,,,2873.783674,None,,,,,,,,,,,,,,,,,emergency,179,41,sing,new,null,2870.680677,None,2870.680677,None,6,1.5434508,2870.680677,None,1.5434508,2872.252198,None,2872.766201,None,2872.766201,None,r,0.9937331,2872.766201,None,0.9937331,,,August10Sing1,24,2022_Aug_10_1337,ProdSingRedoBetween,2021.2.3,59.92322636
,,,,41,0,41,0,,,,,,,,,,,,,,,,,,,,,,2876.620195,None,,,,,,,,,,,,,,,,,month,35,42,sing,old,blue,2874.284405,None,2874.284405,None,1,1.2516232,2874.284405,None,1.2516232,2875.555633,None,2876.069581,None,2876.069581,None,n,0.5303728,2876.069581,None,0.5303728,,,August10Sing1,24,2022_Aug_10_1337,ProdSingRedoBetween,2021.2.3,59.92322636
,,,,42,0,42,0,,,,,,,,,,,,,,,,,,,,,,2879.339325,None,,,,,,,,,,,,,,,,,beauty,96,43,sing,new,null,2877.120614,None,2877.120614,None,1,1.1993891,2877.120614,None,1.1993891,2878.340659,None,2878.85561,None,2878.85561,None,n,0.4643889,2878.85561,None,0.4643889,,,August10Sing1,24,2022_Aug_10_1337,ProdSingRedoBetween,2021.2.3,59.92322636
,,,,43,0,43,0,,,,,,,,,,,,,,,,,,,,,,2885.078315,None,,,,,,,,,,,,,,,,,career,171,44,sing,new,null,2879.840005,None,2879.840005,None,2,3.3360489,2879.840005,None,3.3360489,2883.195064,None,2883.710451,None,2883.710451,None,n,1.3375285,2883.710451,None,1.3375285,,,August10Sing1,24,2022_Aug_10_1337,ProdSingRedoBetween,2021.2.3,59.92322636
,,,,44,0,44,0,,,,,,,,,,,,,,,,,,,,,,2890.30275,None,,,,,,,,,,,,,,,,,engineer,174,45,sing,new,null,2885.57908,None,2885.57908,None,5,2.7888935,2885.57908,None,2.7888935,2888.39837,None,2888.900218,None,2888.900218,None,f,1.3797968,2888.900218,None,1.3797968,,,August10Sing1,24,2022_Aug_10_1337,ProdSingRedoBetween,2021.2.3,59.92322636
,,,,45,0,45,0,,,,,,,,,,,,,,,,,,,,,,2897.490948,None,,,,,,,,,,,,,,,,,stand,61,46,sing,old,red,2890.817505,None,2890.817505,None,4,4.6944849,2890.817505,None,4.6944849,2895.54022,None,2896.039534,None,2896.039534,None,f,1.4325316,2896.039534,None,1.4325316,,,August10Sing1,24,2022_Aug_10_1337,ProdSingRedoBetween,2021.2.3,59.92322636
,,,,46,0,46,0,,,,,,,,,,,,,,,,,,,,,,2902.662877,None,,,,,,,,,,,,,,,,,stranger,63,47,sing,old,red,2897.991536,None,2897.991536,None,4,3.2485561,2897.991536,None,3.2485561,2901.262568,None,2901.761939,None,2901.761939,None,f,0.8861399,2901.761939,None,0.8861399,,,August10Sing1,24,2022_Aug_10_1337,ProdSingRedoBetween,2021.2.3,59.92322636
,,,,47,0,47,0,,,,,,,,,,,,,,,,,,,,,,2905.448915,None,,,,,,,,,,,,,,,,,south,131,48,sing,new,null,2903.165176,None,2903.165176,None,1,1.3388573,2903.165176,None,1.3388573,2904.534043,None,2905.048736,None,2905.048736,None,n,0.3753683,2905.048736,None,0.3753683,,,August10Sing1,24,2022_Aug_10_1337,ProdSingRedoBetween,2021.2.3,59.92322636
,,,,48,0,48,0,,,,,,,,,,,,,,,,,,,,,,2911.955429,None,,,,,,,,,,,,,,,,,exchange,20,49,sing,old,yellow,2905.952227,None,2905.952227,None,1,3.7917789,2905.952227,None,3.7917789,2909.775843,None,2910.287242,None,2910.287242,None,n,1.6407794,2910.287242,None,1.6407794,,,August10Sing1,24,2022_Aug_10_1337,ProdSingRedoBetween,2021.2.3,59.92322636
,,,,49,0,49,0,,,,,,,,,,,,,,,,,,,,,,2914.674695,None,,,,,,,,,,,,,,,,,trail,126,50,sing,new,null,2912.457063,None,2912.457063,None,1,0.9749375,2912.457063,None,0.9749375,2913.456935,None,2913.964011,None,2913.964011,None,n,0.6921598,2913.964011,None,0.6921598,,,August10Sing1,24,2022_Aug_10_1337,ProdSingRedoBetween,2021.2.3,59.92322636
,,,,50,0,50,0,,,,,,,,,,,,,,,,,,,,,,2917.661178,None,,,,,,,,,,,,,,,,,sight,129,51,sing,new,null,2915.183499,None,2915.183499,None,1,1.5526289,2915.183499,None,1.5526289,2916.761324,None,2917.267222,None,2917.267222,None,n,0.3729268,2917.267222,None,0.3729268,,,August10Sing1,24,2022_Aug_10_1337,ProdSingRedoBetween,2021.2.3,59.92322636
,,,,51,0,51,0,,,,,,,,,,,,,,,,,,,,,,2922.652327,None,,,,,,,,,,,,,,,,,signal,51,52,sing,old,blue,2918.166814,None,2918.166814,None,4,3.0895102,2918.166814,None,3.0895102,2921.302019,None,2921.816547,None,2921.816547,None,f,0.8074469,2921.816547,None,0.8074469,,,August10Sing1,24,2022_Aug_10_1337,ProdSingRedoBetween,2021.2.3,59.92322636
,,,,52,0,52,0,,,,,,,,,,,,,,,,,,,,,,2928.38843,None,,,,,,,,,,,,,,,,,threat,12,53,sing,old,yellow,2923.181196,None,2923.181196,None,1,3.4510333,2923.181196,None,3.4510333,2926.653557,None,2927.154082,None,2927.154082,None,n,1.2140851,2927.154082,None,1.2140851,,,August10Sing1,24,2022_Aug_10_1337,ProdSingRedoBetween,2021.2.3,59.92322636
,,,,53,0,53,0,,,,,,,,,,,,,,,,,,,,,,2931.608367,None,,,,,,,,,,,,,,,,,committee,102,54,sing,new,null,2928.889196,None,2928.889196,None,1,1.6709083,2928.889196,None,1.6709083,2930.590581,None,2931.096044,None,2931.096044,None,n,0.4880961,2931.096044,None,0.4880961,,,August10Sing1,24,2022_Aug_10_1337,ProdSingRedoBetween,2021.2.3,59.92322636
,,,,54,0,54,0,,,,,,,,,,,,,,,,,,,,,,2936.162958,None,,,,,,,,,,,,,,,,,drama,85,55,sing,old,red,2932.110284,None,2932.110284,None,6,2.9698922,2932.110284,None,2.9698922,2935.098375,None,2935.612433,None,2935.612433,None,r,0.5236615,2935.612433,None,0.5236615,,,August10Sing1,24,2022_Aug_10_1337,ProdSingRedoBetween,2021.2.3,59.92322636
,,,,55,0,55,0,,,,,,,,,,,,,,,,,,,,,,2940.359133,None,,,,,,,,,,,,,,,,,guard,16,56,sing,old,yellow,2936.668898,None,2936.668898,None,5,2.131238,2936.668898,None,2.131238,2938.816351,None,2939.316247,None,2939.316247,None,f,1.0042106,2939.316247,None,1.0042106,,,August10Sing1,24,2022_Aug_10_1337,ProdSingRedoBetween,2021.2.3,59.92322636
,,,,56,0,56,0,,,,,,,,,,,,,,,,,,,,,,2944.137521,None,,,,,,,,,,,,,,,,,under,62,57,sing,old,red,2940.869201,None,2940.869201,None,1,2.0031924,2940.869201,None,2.0031924,2942.908632,None,2943.420227,None,2943.420227,None,n,0.691964,2943.420227,None,0.691964,,,August10Sing1,24,2022_Aug_10_1337,ProdSingRedoBetween,2021.2.3,59.92322636
,,,,57,0,57,0,,,,,,,,,,,,,,,,,,,,,,2946.890323,None,,,,,,,,,,,,,,,,,opening,125,58,sing,new,null,2944.653099,None,2944.653099,None,1,1.0349899,2944.653099,None,1.0349899,2945.707213,None,2946.223183,None,2946.223183,None,n,0.6410155,2946.223183,None,0.6410155,,,August10Sing1,24,2022_Aug_10_1337,ProdSingRedoBetween,2021.2.3,59.92322636
,,,,58,0,58,0,,,,,,,,,,,,,,,,,,,,,,2950.527325,None,,,,,,,,,,,,,,,,,smell,17,59,sing,old,yellow,2947.391031,None,2947.391031,None,1,1.3291291,2947.391031,None,1.3291291,2948.742875,None,2949.244231,None,2949.244231,None,n,1.2679695,2949.244231,None,1.2679695,,,August10Sing1,24,2022_Aug_10_1337,ProdSingRedoBetween,2021.2.3,59.92322636
,,,,59,0,59,0,,,,,,,,,,,,,,,,,,,,,,2953.146474,None,,,,,,,,,,,,,,,,,hearing,71,60,sing,old,red,2951.032602,None,2951.032602,None,1,0.9754622,2951.032602,None,0.9754622,2952.032493,None,2952.5491,None,2952.5491,None,n,0.5709778,2952.5491,None,0.5709778,,,August10Sing1,24,2022_Aug_10_1337,ProdSingRedoBetween,2021.2.3,59.92322636
,,,,60,0,60,0,,,,,,,,,,,,,,,,,,,,,,2956.983571,None,,,,,,,,,,,,,,,,,meeting,40,61,sing,old,blue,2953.650481,None,2953.650481,None,3,2.0055556,2953.650481,None,2.0055556,2955.690705,None,2956.199604,None,2956.199604,None,f,0.7684559,2956.199604,None,0.7684559,,,August10Sing1,24,2022_Aug_10_1337,ProdSingRedoBetween,2021.2.3,59.92322636
,,,,61,0,61,0,,,,,,,,,,,,,,,,,,,,,,2960.821074,None,,,,,,,,,,,,,,,,,count,87,62,sing,old,red,2957.484401,None,2957.484401,None,1,2.2916995,2957.484401,None,2.2916995,2959.804677,None,2960.304004,None,2960.304004,None,n,0.4880628,2960.304004,None,0.4880628,,,August10Sing1,24,2022_Aug_10_1337,ProdSingRedoBetween,2021.2.3,59.92322636
,,,,62,0,62,0,,,,,,,,,,,,,,,,,,,,,,2964.157646,None,,,,,,,,,,,,,,,,,majority,97,63,sing,new,null,2961.331538,None,2961.331538,None,1,1.6046159,2961.331538,None,1.6046159,2962.956542,None,2963.456975,None,2963.456975,None,n,0.6792779,2963.456975,None,0.6792779,,,August10Sing1,24,2022_Aug_10_1337,ProdSingRedoBetween,2021.2.3,59.92322636
,,,,63,0,63,0,,,,,,,,,,,,,,,,,,,,,,2966.610001,None,,,,,,,,,,,,,,,,,school,91,64,sing,new,null,2964.660863,None,2964.660863,None,1,1.0833162,2964.660863,None,1.0833162,2965.760352,None,2966.265692,None,2966.265692,None,n,0.3264332,2966.265692,None,0.3264332,,,August10Sing1,24,2022_Aug_10_1337,ProdSingRedoBetween,2021.2.3,59.92322636
,,,,64,0,64,0,,,,,,,,,,,,,,,,,,,,,,2969.079194,None,,,,,,,,,,,,,,,,,cousin,133,65,sing,new,null,2967.114452,None,2967.114452,None,1,1.0297491,2967.114452,None,1.0297491,2968.16283,None,2968.669409,None,2968.669409,None,n,0.3787011,2968.669409,None,0.3787011,,,August10Sing1,24,2022_Aug_10_1337,ProdSingRedoBetween,2021.2.3,59.92322636
,,,,65,0,65,0,,,,,,,,,,,,,,,,,,,,,,2971.831894,None,,,,,,,,,,,,,,,,,fellow,146,66,sing,new,null,2969.58762,None,2969.58762,None,1,1.1725394,2969.58762,None,1.1725394,2970.782025,None,2971.286607,None,2971.286607,None,n,0.5296141,2971.286607,None,0.5296141,,,August10Sing1,24,2022_Aug_10_1337,ProdSingRedoBetween,2021.2.3,59.92322636
,,,,66,0,66,0,,,,,,,,,,,,,,,,,,,,,,2975.40212,None,,,,,,,,,,,,,,,,,distance,110,67,sing,new,null,2972.335589,None,2972.335589,None,1,1.3925963,2972.335589,None,1.3925963,2973.75641,None,2974.272592,None,2974.272592,None,n,1.1115884,2974.272592,None,1.1115884,,,August10Sing1,24,2022_Aug_10_1337,ProdSingRedoBetween,2021.2.3,59.92322636
,,,,67,0,67,0,,,,,,,,,,,,,,,,,,,,,,2977.754531,None,,,,,,,,,,,,,,,,,patient,21,68,sing,old,yellow,2975.90698,None,2975.90698,None,1,1.0613881,2975.90698,None,1.0613881,2976.999886,None,2977.504529,None,2977.504529,None,n,0.2237218,2977.504529,None,0.2237218,,,August10Sing1,24,2022_Aug_10_1337,ProdSingRedoBetween,2021.2.3,59.92322636
,,,,68,0,68,0,,,,,,,,,,,,,,,,,,,,,,2980.423902,None,,,,,,,,,,,,,,,,,heavy,7,69,sing,old,yellow,2978.259546,None,2978.259546,None,1,1.1726783,2978.259546,None,1.1726783,2979.460198,None,2979.975273,None,2979.975273,None,n,0.4329717,2979.975273,None,0.4329717,,,August10Sing1,24,2022_Aug_10_1337,ProdSingRedoBetween,2021.2.3,59.92322636
,,,,69,0,69,0,,,,,,,,,,,,,,,,,,,,,,2983.109861,None,,,,,,,,,,,,,,,,,volume,141,70,sing,new,null,2980.936251,None,2980.936251,None,1,0.8319881,2980.936251,None,0.8319881,2981.797997,None,2982.309335,None,2982.309335,None,n,0.7708693,2982.309335,None,0.7708693,,,August10Sing1,24,2022_Aug_10_1337,ProdSingRedoBetween,2021.2.3,59.92322636
,,,,70,0,70,0,,,,,,,,,,,,,,,,,,,,,,2986.162851,None,,,,,,,,,,,,,,,,,display,123,71,sing,new,null,2983.613406,None,2983.613406,None,1,1.6107829,2983.613406,None,1.6107829,2985.248329,None,2985.762771,None,2985.762771,None,n,0.3733582,2985.762771,None,0.3733582,,,August10Sing1,24,2022_Aug_10_1337,ProdSingRedoBetween,2021.2.3,59.92322636
,,,,71,0,71,0,,,,,,,,,,,,,,,,,,,,,,2988.832318,None,,,,,,,,,,,,,,,,,shape,52,72,sing,old,blue,2986.671325,None,2986.671325,None,1,1.2487982,2986.671325,None,1.2487982,2987.949627,None,2988.45552,None,2988.45552,None,n,0.3605878,2988.45552,None,0.3605878,,,August10Sing1,24,2022_Aug_10_1337,ProdSingRedoBetween,2021.2.3,59.92322636
,,,,72,0,72,0,,,,,,,,,,,,,,,,,,,,,,2991.668439,None,,,,,,,,,,,,,,,,,dispute,19,73,sing,old,yellow,2989.341474,None,2989.341474,None,1,1.3948744,2989.341474,None,1.3948744,2990.770952,None,2991.284921,None,2991.284921,None,n,0.3633366,2991.284921,None,0.3633366,,,August10Sing1,24,2022_Aug_10_1337,ProdSingRedoBetween,2021.2.3,59.92322636
,,,,73,0,73,0,,,,,,,,,,,,,,,,,,,,,,2998.541947,None,,,,,,,,,,,,,,,,,write,32,74,sing,old,blue,2992.181816,None,2992.181816,None,6,4.8263919,2992.181816,None,4.8263919,2997.024981,None,2997.524508,None,2997.524508,None,r,0.987725,2997.524508,None,0.987725,,,August10Sing1,24,2022_Aug_10_1337,ProdSingRedoBetween,2021.2.3,59.92322636
,,,,74,0,74,0,,,,,,,,,,,,,,,,,,,,,,3001.945363,None,,,,,,,,,,,,,,,,,passage,152,75,sing,new,null,2999.054075,None,2999.054075,None,1,1.7541312,2999.054075,None,1.7541312,3000.828952,None,3001.328834,None,3001.328834,None,n,0.5913796,3001.328834,None,0.5913796,,,August10Sing1,24,2022_Aug_10_1337,ProdSingRedoBetween,2021.2.3,59.92322636
,,,,75,0,75,0,,,,,,,,,,,,,,,,,,,,,,3005.582334,None,,,,,,,,,,,,,,,,,place,38,76,sing,old,blue,3002.452252,None,3002.452252,None,1,2.2678783,3002.452252,None,2.2678783,3004.748194,None,3005.258378,None,3005.258378,None,n,0.301878,3005.258378,None,0.301878,,,August10Sing1,24,2022_Aug_10_1337,ProdSingRedoBetween,2021.2.3,59.92322636
,,,,76,0,76,0,,,,,,,,,,,,,,,,,,,,,,3007.71777,None,,,,,,,,,,,,,,,,,force,117,77,sing,new,null,3006.088645,None,3006.088645,None,1,0.7435628,3006.088645,None,0.7435628,3006.853962,None,3007.36768,None,3007.36768,None,n,0.3285715,3007.36768,None,0.3285715,,,August10Sing1,24,2022_Aug_10_1337,ProdSingRedoBetween,2021.2.3,59.92322636
,,,,77,0,77,0,,,,,,,,,,,,,,,,,,,,,,3011.354761,None,,,,,,,,,,,,,,,,,religion,60,78,sing,old,red,3008.228425,None,3008.228425,None,6,1.4757966,3008.228425,None,1.4757966,3009.7225,None,3010.238424,None,3010.238424,None,r,1.0898201,3010.238424,None,1.0898201,,,August10Sing1,24,2022_Aug_10_1337,ProdSingRedoBetween,2021.2.3,59.92322636
,,,,78,0,78,0,,,,,,,,,,,,,,,,,,,,,,3014.292717,None,,,,,,,,,,,,,,,,,surface,119,79,sing,new,null,3011.869049,None,3011.869049,None,1,1.4031561,3011.869049,None,1.4031561,3013.293556,None,3013.807433,None,3013.807433,None,n,0.4649119,3013.807433,None,0.4649119,,,August10Sing1,24,2022_Aug_10_1337,ProdSingRedoBetween,2021.2.3,59.92322636
,,,,79,0,79,0,,,,,,,,,,,,,,,,,,,,,,3016.993739,None,,,,,,,,,,,,,,,,,subject,64,80,sing,old,red,3014.808417,None,3014.808417,None,1,1.2397578,3014.808417,None,1.2397578,3016.079311,None,3016.597048,None,3016.597048,None,n,0.371179,3016.597048,None,0.371179,,,August10Sing1,24,2022_Aug_10_1337,ProdSingRedoBetween,2021.2.3,59.92322636
,,,,80,0,80,0,,,,,,,,,,,,,,,,,,,,,,3021.598287,None,,,,,,,,,,,,,,,,,society,42,81,sing,old,blue,3017.498031,None,3017.498031,None,3,2.8782156,3017.498031,None,2.8782156,3020.399002,None,3020.914447,None,3020.914447,None,f,0.6537297,3020.914447,None,0.6537297,,,August10Sing1,24,2022_Aug_10_1337,ProdSingRedoBetween,2021.2.3,59.92322636
,,,,81,0,81,0,,,,,,,,,,,,,,,,,,,,,,3024.354797,None,,,,,,,,,,,,,,,,,material,169,82,sing,new,null,3022.114669,None,3022.114669,None,1,1.3258033,3022.114669,None,1.3258033,3023.471971,None,3023.988568,None,3023.988568,None,n,0.3317479,3023.988568,None,0.3317479,,,August10Sing1,24,2022_Aug_10_1337,ProdSingRedoBetween,2021.2.3,59.92322636
,,,,82,0,82,0,,,,,,,,,,,,,,,,,,,,,,3026.85361,None,,,,,,,,,,,,,,,,,swift,5,83,sing,old,yellow,3024.875233,None,3024.875233,None,1,1.1169499,3024.875233,None,1.1169499,3026.021638,None,3026.547194,None,3026.547194,None,n,0.2850491,3026.547194,None,0.2850491,,,August10Sing1,24,2022_Aug_10_1337,ProdSingRedoBetween,2021.2.3,59.92322636
,,,,83,0,83,0,,,,,,,,,,,,,,,,,,,,,,3029.210077,None,,,,,,,,,,,,,,,,,election,120,84,sing,new,null,3027.365119,None,3027.365119,None,1,0.9471176,3027.365119,None,0.9471176,3028.341377,None,3028.858216,None,3028.858216,None,n,0.3263865,3028.858216,None,0.3263865,,,August10Sing1,24,2022_Aug_10_1337,ProdSingRedoBetween,2021.2.3,59.92322636
,,,,84,0,84,0,,,,,,,,,,,,,,,,,,,,,,3034.494657,None,,,,,,,,,,,,,,,,,education,79,85,sing,old,red,3029.729897,None,3029.729897,None,6,3.1024541,3029.729897,None,3.1024541,3032.870309,None,3033.381917,None,3033.381917,None,r,1.0823822,3033.381917,None,1.0823822,,,August10Sing1,24,2022_Aug_10_1337,ProdSingRedoBetween,2021.2.3,59.92322636
,,,,85,0,85,0,,,,,,,,,,,,,,,,,,,,,,3038.082639,None,,,,,,,,,,,,,,,,,trend,72,86,sing,old,red,3034.996977,None,3034.996977,None,1,2.2194103,3034.996977,None,2.2194103,3037.253681,None,3037.764835,None,3037.764835,None,n,0.2914122,3037.764835,None,0.2914122,,,August10Sing1,24,2022_Aug_10_1337,ProdSingRedoBetween,2021.2.3,59.92322636
,,,,86,0,86,0,,,,,,,,,,,,,,,,,,,,,,3042.218996,None,,,,,,,,,,,,,,,,,equipment,172,87,sing,new,null,3038.586077,None,3038.586077,None,1,2.1581938,3038.586077,None,2.1581938,3040.770796,None,3041.294909,None,3041.294909,None,n,0.9054626,3041.294909,None,0.9054626,,,August10Sing1,24,2022_Aug_10_1337,ProdSingRedoBetween,2021.2.3,59.92322636
,,,,87,0,87,0,,,,,,,,,,,,,,,,,,,,,,3045.088565,None,,,,,,,,,,,,,,,,,recall,92,88,sing,new,null,3042.723689,None,3042.723689,None,1,1.5326024,3042.723689,None,1.5326024,3044.28772,None,3044.790796,None,3044.790796,None,n,0.2734919,3044.790796,None,0.2734919,,,August10Sing1,24,2022_Aug_10_1337,ProdSingRedoBetween,2021.2.3,59.92322636
,,,,88,0,88,0,,,,,,,,,,,,,,,,,,,,,,3047.242742,None,,,,,,,,,,,,,,,,,color,103,89,sing,new,null,3045.589084,None,3045.589084,None,1,0.8271908,3045.589084,None,0.8271908,3046.440838,None,3046.944964,None,3046.944964,None,n,0.2794611,3046.944964,None,0.2794611,,,August10Sing1,24,2022_Aug_10_1337,ProdSingRedoBetween,2021.2.3,59.92322636
,,,,89,0,89,0,,,,,,,,,,,,,,,,,,,,,,3050.927593,None,,,,,,,,,,,,,,,,,burden,43,90,sing,old,blue,3047.763593,None,3047.763593,None,1,0.7647779,3047.763593,None,0.7647779,3048.567358,None,3049.075911,None,3049.075911,None,n,1.836381,3049.075911,None,1.836381,,,August10Sing1,24,2022_Aug_10_1337,ProdSingRedoBetween,2021.2.3,59.92322636
,,,,90,0,90,0,,,,,,,,,,,,,,,,,,,,,,3054.097544,None,,,,,,,,,,,,,,,,,council,31,91,sing,old,blue,3051.430602,None,3051.430602,None,1,1.5696824,3051.430602,None,1.5696824,3053.029801,None,3053.53563,None,3053.53563,None,n,0.5366394,3053.53563,None,0.5366394,,,August10Sing1,24,2022_Aug_10_1337,ProdSingRedoBetween,2021.2.3,59.92322636
,,,,91,0,91,0,,,,,,,,,,,,,,,,,,,,,,3057.317433,None,,,,,,,,,,,,,,,,,space,48,92,sing,old,blue,3054.602943,None,3054.602943,None,1,1.8372336,3054.602943,None,1.8372336,3056.468756,None,3056.986564,None,3056.986564,None,n,0.3098122,3056.986564,None,0.3098122,,,August10Sing1,24,2022_Aug_10_1337,ProdSingRedoBetween,2021.2.3,59.92322636
,,,,92,0,92,0,,,,,,,,,,,,,,,,,,,,,,3060.487289,None,,,,,,,,,,,,,,,,,reading,8,93,sing,old,yellow,3057.824455,None,3057.824455,None,1,0.8958138,3057.824455,None,0.8958138,3058.736374,None,3059.240542,None,3059.240542,None,n,1.2157679,3059.240542,None,1.2157679,,,August10Sing1,24,2022_Aug_10_1337,ProdSingRedoBetween,2021.2.3,59.92322636
,,,,93,0,93,0,,,,,,,,,,,,,,,,,,,,,,3062.64397,None,,,,,,,,,,,,,,,,,master,10,94,sing,old,yellow,3060.995069,None,3060.995069,None,1,0.7012973,3060.995069,None,0.7012973,3061.728509,None,3062.244993,None,3062.244993,None,n,0.3633749,3062.244993,None,0.3633749,,,August10Sing1,24,2022_Aug_10_1337,ProdSingRedoBetween,2021.2.3,59.92322636
,,,,94,0,94,0,,,,,,,,,,,,,,,,,,,,,,3068.328413,None,,,,,,,,,,,,,,,,,discussion,153,95,sing,new,null,3063.157426,None,3063.157426,None,3,3.8108666,3063.157426,None,3.8108666,3066.994913,None,3067.500455,None,3067.500455,None,f,0.8118976,3067.500455,None,0.8118976,,,August10Sing1,24,2022_Aug_10_1337,ProdSingRedoBetween,2021.2.3,59.92322636
,,,,95,0,95,0,,,,,,,,,,,,,,,,,,,,,,3072.499289,None,,,,,,,,,,,,,,,,,primary,150,96,sing,new,null,3068.841103,None,3068.841103,None,1,1.271157,3068.841103,None,1.271157,3070.135368,None,3070.647504,None,3070.647504,None,n,1.8327003,3070.647504,None,1.8327003,,,August10Sing1,24,2022_Aug_10_1337,ProdSingRedoBetween,2021.2.3,59.92322636
,,,,96,0,96,0,,,,,,,,,,,,,,,,,,,,,,3076.988547,None,,,,,,,,,,,,,,,,,quantity,15,97,sing,old,yellow,3073.000211,None,3073.000211,None,6,2.6560318,3073.000211,None,2.6560318,3075.690896,None,3076.203225,None,3076.203225,None,r,0.7652392,3076.203225,None,0.7652392,,,August10Sing1,24,2022_Aug_10_1337,ProdSingRedoBetween,2021.2.3,59.92322636
,,,,97,0,97,0,,,,,,,,,,,,,,,,,,,,,,3081.041248,None,,,,,,,,,,,,,,,,,production,14,98,sing,old,yellow,3077.492625,None,3077.492625,None,1,2.6599274,3077.492625,None,2.6599274,3080.182356,None,3080.69238,None,3080.69238,None,n,0.3239379,3080.69238,None,0.3239379,,,August10Sing1,24,2022_Aug_10_1337,ProdSingRedoBetween,2021.2.3,59.92322636
,,,,98,0,98,0,,,,,,,,,,,,,,,,,,,,,,3083.515679,None,,,,,,,,,,,,,,,,,season,105,99,sing,new,null,3081.548513,None,3081.548513,None,1,1.0837172,3081.548513,None,1.0837172,3082.664442,None,3083.176611,None,3083.176611,None,n,0.3037171,3083.176611,None,0.3037171,,,August10Sing1,24,2022_Aug_10_1337,ProdSingRedoBetween,2021.2.3,59.92322636
,,,,99,0,99,0,,,,,,,,,,,,,,,,,,,,,,3086.22975,None,,,,,,,,,,,,,,,,,property,164,100,sing,new,null,3084.028755,None,3084.028755,None,1,1.3555025,3084.028755,None,1.3555025,3085.420943,None,3085.947375,None,3085.947375,None,n,0.2609832,3085.947375,None,0.2609832,,,August10Sing1,24,2022_Aug_10_1337,ProdSingRedoBetween,2021.2.3,59.92322636
,,,,100,0,100,0,,,,,,,,,,,,,,,,,,,,,,3088.999118,None,,,,,,,,,,,,,,,,,problem,170,101,sing,new,null,3086.737777,None,3086.737777,None,1,1.4065385,3086.737777,None,1.4065385,3088.166168,None,3088.671113,None,3088.671113,None,n,0.3132231,3088.671113,None,0.3132231,,,August10Sing1,24,2022_Aug_10_1337,ProdSingRedoBetween,2021.2.3,59.92322636
,,,,101,0,101,0,,,,,,,,,,,,,,,,,,,,,,3091.568291,None,,,,,,,,,,,,,,,,,bitter,104,102,sing,new,null,3089.513193,None,3089.513193,None,1,1.2311801,3089.513193,None,1.2311801,3090.770889,None,3091.285002,None,3091.285002,None,n,0.2673099,3091.285002,None,0.2673099,,,August10Sing1,24,2022_Aug_10_1337,ProdSingRedoBetween,2021.2.3,59.92322636
,,,,102,0,102,0,,,,,,,,,,,,,,,,,,,,,,3093.803888,None,,,,,,,,,,,,,,,,,broad,122,103,sing,new,null,3092.076291,None,3092.076291,None,1,0.9321903,3092.076291,None,0.9321903,3093.043176,None,3093.556824,None,3093.556824,None,n,0.2194419,3093.556824,None,0.2194419,,,August10Sing1,24,2022_Aug_10_1337,ProdSingRedoBetween,2021.2.3,59.92322636
,,,,103,0,103,0,,,,,,,,,,,,,,,,,,,,,,3096.673555,None,,,,,,,,,,,,,,,,,budget,74,104,sing,old,red,3094.313924,None,3094.313924,None,1,1.5425007,3094.313924,None,1.5425007,3095.874416,None,3096.378916,None,3096.378916,None,n,0.2693963,3096.378916,None,0.2693963,,,August10Sing1,24,2022_Aug_10_1337,ProdSingRedoBetween,2021.2.3,59.92322636
,,,,104,0,104,0,,,,,,,,,,,,,,,,,,,,,,3101.061926,None,,,,,,,,,,,,,,,,,mankind,57,105,sing,old,blue,3097.181878,None,3097.181878,None,1,1.818477,3097.181878,None,1.818477,3099.032523,None,3099.543146,None,3099.543146,None,n,1.4892477,3099.543146,None,1.4892477,,,August10Sing1,24,2022_Aug_10_1337,ProdSingRedoBetween,2021.2.3,59.92322636
,,,,105,0,105,0,,,,,,,,,,,,,,,,,,,,,,3103.697103,None,,,,,,,,,,,,,,,,,speech,98,106,sing,new,null,3101.573534,None,3101.573534,None,1,1.2908194,3101.573534,None,1.2908194,3102.881826,None,3103.39703,None,3103.39703,None,n,0.2832823,3103.39703,None,0.2832823,,,August10Sing1,24,2022_Aug_10_1337,ProdSingRedoBetween,2021.2.3,59.92322636
,,,,106,0,106,0,,,,,,,,,,,,,,,,,,,,,,3106.200611,None,,,,,,,,,,,,,,,,,message,66,107,sing,old,red,3104.214485,None,3104.214485,None,1,1.0259089,3104.214485,None,1.0259089,3105.269516,None,3105.782553,None,3105.782553,None,n,0.3857354,3105.782553,None,0.3857354,,,August10Sing1,24,2022_Aug_10_1337,ProdSingRedoBetween,2021.2.3,59.92322636
,,,,107,0,107,0,,,,,,,,,,,,,,,,,,,,,,3111.606551,None,,,,,,,,,,,,,,,,,childhood,45,108,sing,old,blue,3106.704887,None,3106.704887,None,1,4.0715359,3106.704887,None,4.0715359,3110.812603,None,3111.321694,None,3111.321694,None,n,0.2627341,3111.321694,None,0.2627341,,,August10Sing1,24,2022_Aug_10_1337,ProdSingRedoBetween,2021.2.3,59.92322636
,,,,108,0,108,0,,,,,,,,,,,,,,,,,,,,,,3113.908288,None,,,,,,,,,,,,,,,,,danger,167,109,sing,new,null,3112.109925,None,3112.109925,None,1,0.9384759,3112.109925,None,0.9384759,3113.081398,None,3113.592427,None,3113.592427,None,n,0.2960001,3113.592427,None,0.2960001,,,August10Sing1,24,2022_Aug_10_1337,ProdSingRedoBetween,2021.2.3,59.92322636
,,,,109,0,109,0,,,,,,,,,,,,,,,,,,,,,,3116.176327,None,,,,,,,,,,,,,,,,,blind,65,110,sing,old,red,3114.4191,None,3114.4191,None,1,0.8932339,3114.4191,None,0.8932339,3115.342237,None,3115.844009,None,3115.844009,None,n,0.3083702,3115.844009,None,0.3083702,,,August10Sing1,24,2022_Aug_10_1337,ProdSingRedoBetween,2021.2.3,59.92322636
,,,,110,0,110,0,,,,,,,,,,,,,,,,,,,,,,3121.366835,None,,,,,,,,,,,,,,,,,trash,84,111,sing,old,red,3116.678566,None,3116.678566,None,1,3.2497144,3116.678566,None,3.2497144,3119.948001,None,3120.454486,None,3120.454486,None,n,0.8899188,3120.454486,None,0.8899188,,,August10Sing1,24,2022_Aug_10_1337,ProdSingRedoBetween,2021.2.3,59.92322636
,,,,111,0,111,0,,,,,,,,,,,,,,,,,,,,,,3123.783936,None,,,,,,,,,,,,,,,,,member,143,112,sing,new,null,3121.892201,None,3121.892201,None,1,0.9961645,3121.892201,None,0.9961645,3122.916555,None,3123.419674,None,3123.419674,None,n,0.3487603,3123.419674,None,0.3487603,,,August10Sing1,24,2022_Aug_10_1337,ProdSingRedoBetween,2021.2.3,59.92322636
,,,,112,0,112,0,,,,,,,,,,,,,,,,,,,,,,3126.253042,None,,,,,,,,,,,,,,,,,private,70,113,sing,old,red,3124.296416,None,3124.296416,None,1,1.0798558,3124.296416,None,1.0798558,3125.405471,None,3125.919328,None,3125.919328,None,n,0.3050575,3125.919328,None,0.3050575,,,August10Sing1,24,2022_Aug_10_1337,ProdSingRedoBetween,2021.2.3,59.92322636
,,,,113,0,113,0,,,,,,,,,,,,,,,,,,,,,,3130.106941,None,,,,,,,,,,,,,,,,,crowd,168,114,sing,new,null,3126.756961,None,3126.756961,None,1,2.4914195,3126.756961,None,2.4914195,3129.275697,None,3129.792882,None,3129.792882,None,n,0.2954566,3129.792882,None,0.2954566,,,August10Sing1,24,2022_Aug_10_1337,ProdSingRedoBetween,2021.2.3,59.92322636
,,,,114,0,114,0,,,,,,,,,,,,,,,,,,,,,,3133.643804,None,,,,,,,,,,,,,,,,,waste,145,115,sing,new,null,3130.614917,None,3130.614917,None,1,2.337503,3130.614917,None,2.337503,3132.980167,None,3133.498026,None,3133.498026,None,n,0.1183994,3133.498026,None,0.1183994,,,August10Sing1,24,2022_Aug_10_1337,ProdSingRedoBetween,2021.2.3,59.92322636
,,,,115,0,115,0,,,,,,,,,,,,,,,,,,,,,,3137.480918,None,,,,,,,,,,,,,,,,,substance,127,116,sing,new,null,3134.150317,None,3134.150317,None,1,1.9540106,3134.150317,None,1.9540106,3136.13407,None,3136.649151,None,3136.649151,None,n,0.8152345,3136.649151,None,0.8152345,,,August10Sing1,24,2022_Aug_10_1337,ProdSingRedoBetween,2021.2.3,59.92322636
,,,,116,0,116,0,,,,,,,,,,,,,,,,,,,,,,3143.838755,None,,,,,,,,,,,,,,,,,debate,0,117,sing,old,yellow,3137.987555,None,3137.987555,None,6,4.3008095,3137.987555,None,4.3008095,3142.320556,None,3142.819634,None,3142.819634,None,r,0.9968304,3142.819634,None,0.9968304,,,August10Sing1,24,2022_Aug_10_1337,ProdSingRedoBetween,2021.2.3,59.92322636
,,,,117,0,117,0,,,,,,,,,,,,,,,,,,,,,,3146.740076,None,,,,,,,,,,,,,,,,,power,36,118,sing,old,blue,3144.341736,None,3144.341736,None,1,1.6985931,3144.341736,None,1.6985931,3146.057565,None,3146.556665,None,3146.556665,None,n,0.1556349,3146.556665,None,0.1556349,,,August10Sing1,24,2022_Aug_10_1337,ProdSingRedoBetween,2021.2.3,59.92322636
,,,,118,0,118,0,,,,,,,,,,,,,,,,,,,,,,3151.563065,None,,,,,,,,,,,,,,,,,machinery,68,119,sing,old,red,3147.242924,None,3147.242924,None,6,2.5734468,3147.242924,None,2.5734468,3149.845056,None,3150.360446,None,3150.360446,None,r,1.1841515,3150.360446,None,1.1841515,,,August10Sing1,24,2022_Aug_10_1337,ProdSingRedoBetween,2021.2.3,59.92322636
,,,,119,0,119,0,,,,,,,,,,,,,,,,,,,,,,3156.817053,None,,,,,,,,,,,,,,,,,solution,139,120,sing,new,null,3152.068693,None,3152.068693,None,4,3.3637453,3152.068693,None,3.3637453,3155.450062,None,3155.953715,None,3155.953715,None,f,0.8466721,3155.953715,None,0.8466721,,,August10Sing1,24,2022_Aug_10_1337,ProdSingRedoBetween,2021.2.3,59.92322636
,,,,120,0,120,0,,,,,,,,,,,,,,,,,,,,,,3164.174325,None,,,,,,,,,,,,,,,,,testimony,58,121,sing,old,blue,3157.327695,None,3157.327695,None,1,5.6807702,3157.327695,None,5.6807702,3163.024865,None,3163.526322,None,3163.526322,None,n,0.6260982,3163.526322,None,0.6260982,,,August10Sing1,24,2022_Aug_10_1337,ProdSingRedoBetween,2021.2.3,59.92322636
,,,,121,0,121,0,,,,,,,,,,,,,,,,,,,,,,3168.764227,None,,,,,,,,,,,,,,,,,profession,33,122,sing,old,blue,3164.686023,None,3164.686023,None,4,3.0985352,3164.686023,None,3.0985352,3167.820581,None,3168.331803,None,3168.331803,None,f,0.4047658,3168.331803,None,0.4047658,,,August10Sing1,24,2022_Aug_10_1337,ProdSingRedoBetween,2021.2.3,59.92322636
,,,,122,0,122,0,,,,,,,,,,,,,,,,,,,,,,3172.399114,None,,,,,,,,,,,,,,,,,theme,39,123,sing,old,blue,3169.286587,None,3169.286587,None,1,1.4738861,3169.286587,None,1.4738861,3170.784246,None,3171.298506,None,3171.298506,None,n,1.069992,3171.298506,None,1.069992,,,August10Sing1,24,2022_Aug_10_1337,ProdSingRedoBetween,2021.2.3,59.92322636
,,,,123,0,123,0,,,,,,,,,,,,,,,,,,,,,,3174.588128,None,,,,,,,,,,,,,,,,,rough,134,124,sing,new,null,3172.908187,None,3172.908187,None,1,0.8122498,3172.908187,None,0.8122498,3173.761695,None,3174.269852,None,3174.269852,None,n,0.2907137,3174.269852,None,0.2907137,,,August10Sing1,24,2022_Aug_10_1337,ProdSingRedoBetween,2021.2.3,59.92322636
,,,,124,0,124,0,,,,,,,,,,,,,,,,,,,,,,3176.670121,None,,,,,,,,,,,,,,,,,benefit,155,125,sing,new,null,3175.107551,None,3175.107551,None,1,0.7249303,3175.107551,None,0.7249303,3175.856521,None,3176.378264,None,3176.378264,None,n,0.2704875,3176.378264,None,0.2704875,,,August10Sing1,24,2022_Aug_10_1337,ProdSingRedoBetween,2021.2.3,59.92322636
,,,,125,0,125,0,,,,,,,,,,,,,,,,,,,,,,3180.040136,None,,,,,,,,,,,,,,,,,author,50,126,sing,old,blue,3177.17322,None,3177.17322,None,1,2.0032229,3177.17322,None,2.0032229,3179.206027,None,3179.706814,None,3179.706814,None,n,0.3097161,3179.706814,None,0.3097161,,,August10Sing1,24,2022_Aug_10_1337,ProdSingRedoBetween,2021.2.3,59.92322636
,,,,126,0,126,0,,,,,,,,,,,,,,,,,,,,,,3182.543257,None,,,,,,,,,,,,,,,,,interview,9,127,sing,old,yellow,3180.552809,None,3180.552809,None,1,0.9835411,3180.552809,None,0.9835411,3181.558929,None,3182.068713,None,3182.068713,None,n,0.4437585,3182.068713,None,0.4437585,,,August10Sing1,24,2022_Aug_10_1337,ProdSingRedoBetween,2021.2.3,59.92322636
,,,,127,0,127,0,,,,,,,,,,,,,,,,,,,,,,3184.944984,None,,,,,,,,,,,,,,,,,guide,78,128,sing,old,red,3183.04947,None,3183.04947,None,1,0.9990793,3183.04947,None,0.9990793,3184.082737,None,3184.595027,None,3184.595027,None,n,0.3334603,3184.595027,None,0.3334603,,,August10Sing1,24,2022_Aug_10_1337,ProdSingRedoBetween,2021.2.3,59.92322636
,,,,128,0,128,0,,,,,,,,,,,,,,,,,,,,,,3187.414193,None,,,,,,,,,,,,,,,,,suggestion,154,129,sing,new,null,3185.449571,None,3185.449571,None,1,1.0068801,3185.449571,None,1.0068801,3186.479931,None,3186.980605,None,3186.980605,None,n,0.4038501,3186.980605,None,0.4038501,,,August10Sing1,24,2022_Aug_10_1337,ProdSingRedoBetween,2021.2.3,59.92322636
,,,,129,0,129,0,,,,,,,,,,,,,,,,,,,,,,3189.75313,None,,,,,,,,,,,,,,,,,murder,135,130,sing,new,null,3187.924026,None,3187.924026,None,1,1.0044219,3187.924026,None,1.0044219,3188.949005,None,3189.455401,None,3189.455401,None,n,0.2732005,3189.455401,None,0.2732005,,,August10Sing1,24,2022_Aug_10_1337,ProdSingRedoBetween,2021.2.3,59.92322636
,,,,130,0,130,0,,,,,,,,,,,,,,,,,,,,,,3191.986665,None,,,,,,,,,,,,,,,,,incident,83,131,sing,old,red,3190.26842,None,3190.26842,None,1,0.8760357,3190.26842,None,0.8760357,3191.168821,None,3191.674487,None,3191.674487,None,n,0.2862164,3191.674487,None,0.2862164,,,August10Sing1,24,2022_Aug_10_1337,ProdSingRedoBetween,2021.2.3,59.92322636
,,,,131,0,131,0,,,,,,,,,,,,,,,,,,,,,,3196.439948,None,,,,,,,,,,,,,,,,,beginning,108,132,sing,new,null,3192.493081,None,3192.493081,None,1,3.0752917,3192.493081,None,3.0752917,3195.592681,None,3196.10651,None,3196.10651,None,n,0.3099468,3196.10651,None,0.3099468,,,August10Sing1,24,2022_Aug_10_1337,ProdSingRedoBetween,2021.2.3,59.92322636
,,,,132,0,132,0,,,,,,,,,,,,,,,,,,,,,,3201.91203,None,,,,,,,,,,,,,,,,,research,147,133,sing,new,null,3196.948309,None,3196.948309,None,4,3.2761534,3196.948309,None,3.2761534,3200.246703,None,3200.763746,None,3200.763746,None,f,1.1327245,3200.763746,None,1.1327245,,,August10Sing1,24,2022_Aug_10_1337,ProdSingRedoBetween,2021.2.3,59.92322636
,,,,133,0,133,0,,,,,,,,,,,,,,,,,,,,,,3207.419147,None,,,,,,,,,,,,,,,,,answer,69,134,sing,old,red,3202.413914,None,3202.413914,None,4,3.8426028,3202.413914,None,3.8426028,3206.28493,None,3206.805908,None,3206.805908,None,f,0.5867709,3206.805908,None,0.5867709,,,August10Sing1,24,2022_Aug_10_1337,ProdSingRedoBetween,2021.2.3,59.92322636
,,,,134,0,134,0,,,,,,,,,,,,,,,,,,,,,,3210.455645,None,,,,,,,,,,,,,,,,,medicine,118,135,sing,new,null,3207.934911,None,3207.934911,None,1,1.6095679,3207.934911,None,1.6095679,3209.570606,None,3210.0741,None,3210.0741,None,n,0.3503068,3210.0741,None,0.3503068,,,August10Sing1,24,2022_Aug_10_1337,ProdSingRedoBetween,2021.2.3,59.92322636
,,,,135,0,135,0,,,,,,,,,,,,,,,,,,,,,,3214.808276,None,,,,,,,,,,,,,,,,,accident,106,136,sing,new,null,3210.971181,None,3210.971181,None,1,2.2693269,3210.971181,None,2.2693269,3213.258861,None,3213.773903,None,3213.773903,None,n,1.0105767,3213.773903,None,1.0105767,,,August10Sing1,24,2022_Aug_10_1337,ProdSingRedoBetween,2021.2.3,59.92322636
,,,,136,0,136,0,,,,,,,,,,,,,,,,,,,,,,3217.494312,None,,,,,,,,,,,,,,,,,level,176,137,sing,new,null,3215.310791,None,3215.310791,None,1,1.1697337,3215.310791,None,1.1697337,3216.512193,None,3217.027283,None,3217.027283,None,n,0.4452166,3217.027283,None,0.4452166,,,August10Sing1,24,2022_Aug_10_1337,ProdSingRedoBetween,2021.2.3,59.92322636
,,,,137,0,137,0,,,,,,,,,,,,,,,,,,,,,,3219.679863,None,,,,,,,,,,,,,,,,,owner,23,138,sing,old,yellow,3217.999024,None,3217.999024,None,1,0.8494743,3217.999024,None,0.8494743,3218.879912,None,3219.384,None,3219.384,None,n,0.2804991,3219.384,None,0.2804991,,,August10Sing1,24,2022_Aug_10_1337,ProdSingRedoBetween,2021.2.3,59.92322636
,,,,138,0,138,0,,,,,,,,,,,,,,,,,,,,,,3222.086353,None,,,,,,,,,,,,,,,,,measure,86,139,sing,old,red,3220.186562,None,3220.186562,None,1,0.9979291,3220.186562,None,0.9979291,3221.215706,None,3221.718565,None,3221.718565,None,n,0.3380117,3221.718565,None,0.3380117,,,August10Sing1,24,2022_Aug_10_1337,ProdSingRedoBetween,2021.2.3,59.92322636
,,,,139,0,139,0,,,,,,,,,,,,,,,,,,,,,,3224.551408,None,,,,,,,,,,,,,,,,,drove,90,140,sing,new,null,3222.606877,None,3222.606877,None,1,1.1055317,3222.606877,None,1.1055317,3223.73685,None,3224.25123,None,3224.25123,None,n,0.2692178,3224.25123,None,0.2692178,,,August10Sing1,24,2022_Aug_10_1337,ProdSingRedoBetween,2021.2.3,59.92322636
,,,,140,0,140,0,,,,,,,,,,,,,,,,,,,,,,3226.720139,None,,,,,,,,,,,,,,,,,whole,163,141,sing,new,null,3225.059219,None,3225.059219,None,1,0.8851971,3225.059219,None,0.8851971,3225.969408,None,3226.474987,None,3226.474987,None,n,0.2215479,3226.474987,None,0.2215479,,,August10Sing1,24,2022_Aug_10_1337,ProdSingRedoBetween,2021.2.3,59.92322636
,,,,141,0,141,0,,,,,,,,,,,,,,,,,,,,,,3230.340604,None,,,,,,,,,,,,,,,,,graduate,22,142,sing,old,yellow,3227.229367,None,3227.229367,None,6,1.5791165,3227.229367,None,1.5791165,3228.839563,None,3229.344574,None,3229.344574,None,r,0.9679504,3229.344574,None,0.9679504,,,August10Sing1,24,2022_Aug_10_1337,ProdSingRedoBetween,2021.2.3,59.92322636
,,,,142,0,142,0,,,,,,,,,,,,,,,,,,,,,,3234.611547,None,,,,,,,,,,,,,,,,,bicycle,148,143,sing,new,null,3230.848353,None,3230.848353,None,1,2.328116,3230.848353,None,2.328116,3233.194944,None,3233.696339,None,3233.696339,None,n,0.8880974,3233.696339,None,0.8880974,,,August10Sing1,24,2022_Aug_10_1337,ProdSingRedoBetween,2021.2.3,59.92322636
,,,,143,0,143,0,,,,,,,,,,,,,,,,,,,,,,3237.397575,None,,,,,,,,,,,,,,,,,payment,130,144,sing,new,null,3235.118951,None,3235.118951,None,1,1.393493,3235.118951,None,1.393493,3236.532043,None,3237.053535,None,3237.053535,None,n,0.3228692,3237.053535,None,0.3228692,,,August10Sing1,24,2022_Aug_10_1337,ProdSingRedoBetween,2021.2.3,59.92322636
,,,,144,0,144,0,,,,,,,,,,,,,,,,,,,,,,3239.866659,None,,,,,,,,,,,,,,,,,title,151,145,sing,new,null,3237.902787,None,3237.902787,None,1,0.9457379,3237.902787,None,0.9457379,3238.871386,None,3239.390213,None,3239.390213,None,n,0.4503341,3239.390213,None,0.4503341,,,August10Sing1,24,2022_Aug_10_1337,ProdSingRedoBetween,2021.2.3,59.92322636
,,,,145,0,145,0,,,,,,,,,,,,,,,,,,,,,,3242.335808,None,,,,,,,,,,,,,,,,,citizen,128,146,sing,new,null,3240.387337,None,3240.387337,None,1,1.0691176,3240.387337,None,1.0691176,3241.491441,None,3242.002392,None,3242.002392,None,n,0.3182013,3242.002392,None,0.3182013,,,August10Sing1,24,2022_Aug_10_1337,ProdSingRedoBetween,2021.2.3,59.92322636
,,,,146,0,146,0,,,,,,,,,,,,,,,,,,,,,,3245.438916,None,,,,,,,,,,,,,,,,,trial,76,147,sing,old,red,3242.837752,None,3242.837752,None,6,1.4747869,3242.837752,None,1.4747869,3244.337847,None,3244.841318,None,3244.841318,None,r,0.5671829,3244.841318,None,0.5671829,,,August10Sing1,24,2022_Aug_10_1337,ProdSingRedoBetween,2021.2.3,59.92322636
,,,,147,0,147,0,,,,,,,,,,,,,,,,,,,,,,3248.325124,None,,,,,,,,,,,,,,,,,shear,67,148,sing,old,red,3245.945756,None,3245.945756,None,1,1.110705,3245.945756,None,1.110705,3247.075267,None,3247.577726,None,3247.577726,None,n,0.7268074,3247.577726,None,0.7268074,,,August10Sing1,24,2022_Aug_10_1337,ProdSingRedoBetween,2021.2.3,59.92322636
,,,,148,0,148,0,,,,,,,,,,,,,,,,,,,,,,3251.762014,None,,,,,,,,,,,,,,,,,executive,56,149,sing,old,blue,3248.831402,None,3248.831402,None,6,1.4891187,3248.831402,None,1.4891187,3250.345272,None,3250.846297,None,3250.846297,None,r,0.8902111,3250.846297,None,0.8902111,,,August10Sing1,24,2022_Aug_10_1337,ProdSingRedoBetween,2021.2.3,59.92322636
,,,,149,0,149,0,,,,,,,,,,,,,,,,,,,,,,3255.615595,None,,,,,,,,,,,,,,,,,territory,11,150,sing,old,yellow,3252.274556,None,3252.274556,None,6,2.4218769,3252.274556,None,2.4218769,3254.716033,None,3255.219911,None,3255.219911,None,r,0.3805024,3255.219911,None,0.3805024,,,August10Sing1,24,2022_Aug_10_1337,ProdSingRedoBetween,2021.2.3,59.92322636
,,,,150,0,150,0,,,,,,,,,,,,,,,,,,,,,,3258.134934,None,,,,,,,,,,,,,,,,,leader,160,151,sing,new,null,3256.116996,None,3256.116996,None,1,1.1555326,3256.116996,None,1.1555326,3257.30221,None,3257.805191,None,3257.805191,None,n,0.3073371,3257.805191,None,0.3073371,,,August10Sing1,24,2022_Aug_10_1337,ProdSingRedoBetween,2021.2.3,59.92322636
,,,,151,0,151,0,,,,,,,,,,,,,,,,,,,,,,3261.639236,None,,,,,,,,,,,,,,,,,break,44,152,sing,old,blue,3258.638285,None,3258.638285,None,1,1.9221872,3258.638285,None,1.9221872,3260.587435,None,3261.088089,None,3261.088089,None,n,0.5204913,3261.088089,None,0.5204913,,,August10Sing1,24,2022_Aug_10_1337,ProdSingRedoBetween,2021.2.3,59.92322636
,,,,152,0,152,0,,,,,,,,,,,,,,,,,,,,,,3267.578957,None,,,,,,,,,,,,,,,,,agreement,18,153,sing,old,yellow,3262.140485,None,3262.140485,None,6,4.5881423,3262.140485,None,4.5881423,3266.748836,None,3267.26095,None,3267.26095,None,r,0.2916679,3267.26095,None,0.2916679,,,August10Sing1,24,2022_Aug_10_1337,ProdSingRedoBetween,2021.2.3,59.92322636
,,,,153,0,153,0,,,,,,,,,,,,,,,,,,,,,,3270.283078,None,,,,,,,,,,,,,,,,,universal,77,154,sing,old,red,3268.083267,None,3268.083267,None,1,1.2533579,3268.083267,None,1.2533579,3269.36514,None,3269.885711,None,3269.885711,None,n,0.3630007,3269.885711,None,0.3630007,,,August10Sing1,24,2022_Aug_10_1337,ProdSingRedoBetween,2021.2.3,59.92322636
,,,,154,0,154,0,,,,,,,,,,,,,,,,,,,,,,3272.60102,None,,,,,,,,,,,,,,,,,bucket,165,155,sing,new,null,3270.805228,None,3270.805228,None,1,0.9394422,3270.805228,None,0.9394422,3271.770232,None,3272.283432,None,3272.283432,None,n,0.2853207,3272.283432,None,0.2853207,,,August10Sing1,24,2022_Aug_10_1337,ProdSingRedoBetween,2021.2.3,59.92322636
,,,,155,0,155,0,,,,,,,,,,,,,,,,,,,,,,3277.270725,None,,,,,,,,,,,,,,,,,management,137,156,sing,new,null,3273.107076,None,3273.107076,None,1,3.3494688,3273.107076,None,3.3494688,3276.496169,None,3277.003808,None,3277.003808,None,n,0.2447026,3277.003808,None,0.2447026,,,August10Sing1,24,2022_Aug_10_1337,ProdSingRedoBetween,2021.2.3,59.92322636
,,,,156,0,156,0,,,,,,,,,,,,,,,,,,,,,,3279.906755,None,,,,,,,,,,,,,,,,,agency,28,157,sing,old,yellow,3277.774606,None,3277.774606,None,1,1.3058812,3277.774606,None,1.3058812,3279.106942,None,3279.617352,None,3279.617352,None,n,0.263196,3279.617352,None,0.263196,,,August10Sing1,24,2022_Aug_10_1337,ProdSingRedoBetween,2021.2.3,59.92322636
,,,,157,0,157,0,,,,,,,,,,,,,,,,,,,,,,3282.277676,None,,,,,,,,,,,,,,,,,marriage,156,158,sing,new,null,3280.413358,None,3280.413358,None,1,1.0111566,3280.413358,None,1.0111566,3281.444277,None,3281.95898,None,3281.95898,None,n,0.2976202,3281.95898,None,0.2976202,,,August10Sing1,24,2022_Aug_10_1337,ProdSingRedoBetween,2021.2.3,59.92322636
,,,,158,0,158,0,,,,,,,,,,,,,,,,,,,,,,3284.32782,None,,,,,,,,,,,,,,,,,nation,161,159,sing,new,null,3282.7931,None,3282.7931,None,1,0.6794732,3282.7931,None,0.6794732,3283.494578,None,3283.99843,None,3283.99843,None,n,0.3141615,3283.99843,None,0.3141615,,,August10Sing1,24,2022_Aug_10_1337,ProdSingRedoBetween,2021.2.3,59.92322636
,,,,159,0,159,0,,,,,,,,,,,,,,,,,,,,,,3286.830271,None,,,,,,,,,,,,,,,,,point,100,160,sing,new,null,3284.831298,None,3284.831298,None,1,0.9852054,3284.831298,None,0.9852054,3285.848558,None,3286.363358,None,3286.363358,None,n,0.4452098,3286.363358,None,0.4452098,,,August10Sing1,24,2022_Aug_10_1337,ProdSingRedoBetween,2021.2.3,59.92322636
,,,,160,0,160,0,,,,,,,,,,,,,,,,,,,,,,3289.583108,None,,,,,,,,,,,,,,,,,prime,178,161,sing,new,null,3287.33888,None,3287.33888,None,1,1.3576812,3287.33888,None,1.3576812,3288.716765,None,3289.222636,None,3289.222636,None,n,0.3300395,3289.222636,None,0.3300395,,,August10Sing1,24,2022_Aug_10_1337,ProdSingRedoBetween,2021.2.3,59.92322636
,,,,161,0,161,0,,,,,,,,,,,,,,,,,,,,,,3291.987912,None,,,,,,,,,,,,,,,,,crime,34,162,sing,old,blue,3290.091362,None,3290.091362,None,1,0.9732332,3290.091362,None,0.9732332,3291.085505,None,3291.589737,None,3291.589737,None,n,0.3710097,3291.589737,None,0.3710097,,,August10Sing1,24,2022_Aug_10_1337,ProdSingRedoBetween,2021.2.3,59.92322636
,,,,162,0,162,0,,,,,,,,,,,,,,,,,,,,,,3294.488004,None,,,,,,,,,,,,,,,,,interior,142,163,sing,new,null,3292.515807,None,3292.515807,None,1,1.076792,3292.515807,None,1.076792,3293.621064,None,3294.124898,None,3294.124898,None,n,0.3319213,3294.124898,None,0.3319213,,,August10Sing1,24,2022_Aug_10_1337,ProdSingRedoBetween,2021.2.3,59.92322636
,,,,163,0,163,0,,,,,,,,,,,,,,,,,,,,,,3296.890375,None,,,,,,,,,,,,,,,,,enemy,94,164,sing,new,null,3294.991957,None,3294.991957,None,1,1.0806218,3294.991957,None,1.0806218,3296.089642,None,3296.597142,None,3296.597142,None,n,0.2674821,3296.597142,None,0.2674821,,,August10Sing1,24,2022_Aug_10_1337,ProdSingRedoBetween,2021.2.3,59.92322636
,,,,164,0,164,0,,,,,,,,,,,,,,,,,,,,,,3300.527308,None,,,,,,,,,,,,,,,,,generation,4,165,sing,old,yellow,3297.395813,None,3297.395813,None,6,1.7808946,3297.395813,None,1.7808946,3299.197435,None,3299.710087,None,3299.710087,None,r,0.7864665,3299.710087,None,0.7864665,,,August10Sing1,24,2022_Aug_10_1337,ProdSingRedoBetween,2021.2.3,59.92322636
,,,,165,0,165,0,,,,,,,,,,,,,,,,,,,,,,3303.432575,None,,,,,,,,,,,,,,,,,service,113,166,sing,new,null,3301.041179,None,3301.041179,None,1,1.4794599,3301.041179,None,1.4794599,3302.552375,None,3303.063335,None,3303.063335,None,n,0.3373415,3303.063335,None,0.3373415,,,August10Sing1,24,2022_Aug_10_1337,ProdSingRedoBetween,2021.2.3,59.92322636
,,,,166,0,166,0,,,,,,,,,,,,,,,,,,,,,,3305.982887,None,,,,,,,,,,,,,,,,,present,149,167,sing,new,null,3303.955978,None,3303.955978,None,1,1.1566214,3303.955978,None,1.1566214,3305.133127,None,3305.636243,None,3305.636243,None,n,0.3243928,3305.636243,None,0.3243928,,,August10Sing1,24,2022_Aug_10_1337,ProdSingRedoBetween,2021.2.3,59.92322636
,,,,167,0,167,0,,,,,,,,,,,,,,,,,,,,,,3311.938734,None,,,,,,,,,,,,,,,,,appearance,47,168,sing,old,blue,3306.485816,None,3306.485816,None,5,3.5067747,3306.485816,None,3.5067747,3310.023108,None,3310.537578,None,3310.537578,None,r,1.3830681,3310.537578,None,1.3830681,,,August10Sing1,24,2022_Aug_10_1337,ProdSingRedoBetween,2021.2.3,59.92322636
,,,,168,0,168,0,,,,,,,,,,,,,,,,,,,,,,3314.274436,None,,,,,,,,,,,,,,,,,still,158,169,sing,new,null,3312.446006,None,3312.446006,None,1,1.026582,3312.446006,None,1.026582,3313.492494,None,3314.007689,None,3314.007689,None,n,0.2408466,3314.007689,None,0.2408466,,,August10Sing1,24,2022_Aug_10_1337,ProdSingRedoBetween,2021.2.3,59.92322636
,,,,169,0,169,0,,,,,,,,,,,,,,,,,,,,,,3318.712155,None,,,,,,,,,,,,,,,,,audience,30,170,sing,old,blue,3314.784576,None,3314.784576,None,1,3.1601438,3314.784576,None,3.1601438,3317.968599,None,3318.481067,None,3318.481067,None,n,0.2075831,3318.481067,None,0.2075831,,,August10Sing1,24,2022_Aug_10_1337,ProdSingRedoBetween,2021.2.3,59.92322636
,,,,170,0,170,0,,,,,,,,,,,,,,,,,,,,,,3321.932109,None,,,,,,,,,,,,,,,,,store,173,171,sing,new,null,3319.216138,None,3319.216138,None,1,1.8564969,3319.216138,None,1.8564969,3321.101488,None,3321.615319,None,3321.615319,None,n,0.2973574,3321.615319,None,0.2973574,,,August10Sing1,24,2022_Aug_10_1337,ProdSingRedoBetween,2021.2.3,59.92322636
,,,,171,0,171,0,,,,,,,,,,,,,,,,,,,,,,3324.167688,None,,,,,,,,,,,,,,,,,capital,101,172,sing,new,null,3322.441946,None,3322.441946,None,1,0.9026753,3322.441946,None,0.9026753,3323.368945,None,3323.888454,None,3323.888454,None,n,0.2561926,3323.888454,None,0.2561926,,,August10Sing1,24,2022_Aug_10_1337,ProdSingRedoBetween,2021.2.3,59.92322636
,,,,172,0,172,0,,,,,,,,,,,,,,,,,,,,,,3326.836999,None,,,,,,,,,,,,,,,,,candidate,26,173,sing,old,yellow,3324.669064,None,3324.669064,None,1,1.3318658,3324.669064,None,1.3318658,3326.025826,None,3326.538138,None,3326.538138,None,n,0.2785675,3326.538138,None,0.2785675,,,August10Sing1,24,2022_Aug_10_1337,ProdSingRedoBetween,2021.2.3,59.92322636
,,,,173,0,173,0,,,,,,,,,,,,,,,,,,,,,,3329.458493,None,,,,,,,,,,,,,,,,,relation,53,174,sing,old,blue,3327.345306,None,3327.345306,None,1,1.2472879,3327.345306,None,1.2472879,3328.62215,None,3329.124772,None,3329.124772,None,n,0.3080938,3329.124772,None,0.3080938,,,August10Sing1,24,2022_Aug_10_1337,ProdSingRedoBetween,2021.2.3,59.92322636
,,,,174,0,174,0,,,,,,,,,,,,,,,,,,,,,,3331.858595,None,,,,,,,,,,,,,,,,,working,177,175,sing,new,null,3329.978531,None,3329.978531,None,1,1.0622468,3329.978531,None,1.0622468,3331.060401,None,3331.581202,None,3331.581202,None,n,0.2593981,3331.581202,None,0.2593981,,,August10Sing1,24,2022_Aug_10_1337,ProdSingRedoBetween,2021.2.3,59.92322636
,,,,175,0,175,0,,,,,,,,,,,,,,,,,,,,,,3334.244397,None,,,,,,,,,,,,,,,,,atmosphere,124,176,sing,new,null,3332.362285,None,3332.362285,None,1,0.9022818,3332.362285,None,0.9022818,3333.294485,None,3333.798881,None,3333.798881,None,n,0.4257387,3333.798881,None,0.4257387,,,August10Sing1,24,2022_Aug_10_1337,ProdSingRedoBetween,2021.2.3,59.92322636
,,,,176,0,176,0,,,,,,,,,,,,,,,,,,,,,,3336.997169,None,,,,,,,,,,,,,,,,,impact,144,177,sing,new,null,3334.75372,None,3334.75372,None,1,1.2949505,3334.75372,None,1.2949505,3336.083465,None,3336.596869,None,3336.596869,None,n,0.3718208,3336.596869,None,0.3718208,,,August10Sing1,24,2022_Aug_10_1337,ProdSingRedoBetween,2021.2.3,59.92322636
,,,,177,0,177,0,,,,,,,,,,,,,,,,,,,,,,3339.937888,None,,,,,,,,,,,,,,,,,collection,114,178,sing,new,null,3337.511074,None,3337.511074,None,1,1.07353,3337.511074,None,1.07353,3338.619431,None,3339.132681,None,3339.132681,None,n,0.7798499,3339.132681,None,0.7798499,,,August10Sing1,24,2022_Aug_10_1337,ProdSingRedoBetween,2021.2.3,59.92322636
,,,,178,0,178,0,,,,,,,,,,,,,,,,,,,,,,3342.389413,None,,,,,,,,,,,,,,,,,piece,138,179,sing,new,null,3340.450835,None,3340.450835,None,1,0.7818353,3340.450835,None,0.7818353,3341.26022,None,3341.76858,None,3341.76858,None,n,0.5921521,3341.76858,None,0.5921521,,,August10Sing1,24,2022_Aug_10_1337,ProdSingRedoBetween,2021.2.3,59.92322636
,,,,179,0,179,0,,,,,,,,,,,,,,,,,,,,,,3344.921761,None,,,,,,,,,,,,,,,,,smooth,112,180,sing,new,null,3342.903087,None,3342.903087,None,1,1.0335494,3342.903087,None,1.0335494,3343.957099,None,3344.475744,None,3344.475744,None,n,0.4288463,3344.475744,None,0.4288463,,,August10Sing1,24,2022_Aug_10_1337,ProdSingRedoBetween,2021.2.3,59.92322636
,,,,,,,,,,,,,,,,,,,,,,,,,,,,,,,,,,,,,,,,,,,,,,,,,,,,,,,,,,,,,,,,,,,,,,,,,3345.42267,None,,,,,,
