StudyLoop.thisRepN,StudyLoop.thisTrialN,StudyLoop.thisN,StudyLoop.thisIndex,TestLoop.thisRepN,TestLoop.thisTrialN,TestLoop.thisN,TestLoop.thisIndex,textCondition.started,textCondition.stopped,keyCondition.keys,keyCondition.rt,keyCondition.started,keyCondition.stopped,Condition,textWelcome.started,textWelcome.stopped,keyWelcome.keys,keyWelcome.rt,keyWelcome.started,keyWelcome.stopped,textAloud.started,textAloud.stopped,textSilent.started,textSilent.stopped,textSing.started,textSing.stopped,conditional_text.started,conditional_text.stopped,textBlank500.started,textBlank500.stopped,study_word,study_num,study_order,study_type,word_color,textStudy.started,textStudy.stopped,keyStudy.keys,keyStudy.started,keyStudy.stopped,textTestInstructions.started,textTestInstructions.stopped,key_resp_3.keys,key_resp_3.rt,key_resp_3.started,key_resp_3.stopped,test_word,test_num,test_order,test_condition,old_new_test,test_word_original_color,textConf.started,textConf.stopped,textConfScale.started,textConfScale.stopped,keyConf.keys,keyConf.rt,keyConf.started,keyConf.stopped,confidence response time,textTestBlank.started,textTestBlank.stopped,textRKN.started,textRKN.stopped,textRKNScale.started,textRKNScale.stopped,keyRKN.keys,keyRKN.rt,keyRKN.started,keyRKN.stopped,rkn response time,textEnd.started,textEnd.stopped,participant,session,date,expName,psychopyVersion,frameRate
,,,,,,,,84.8956922,None,a,376.5561776,84.8956922,None,,,,,,,,,,,,,,,,,,,,,,,,,,,,,,,,,,,,,,,,,,,,,,,,,,,,,,,,,,,,,,August10Silent3,25,2022_Aug_10_1435,ProdSingRedoBetween,2021.2.3,59.93982042
,,,,,,,,,,,,,,SilentTest,461.5058645,None,space,11.5858994,461.5058645,None,,,,,,,,,,,,,,,,,,,,,,,,,,,,,,,,,,,,,,,,,,,,,,,,,,,,,,,August10Silent3,25,2022_Aug_10_1435,ProdSingRedoBetween,2021.2.3,59.93982042
0,0,0,0,,,,,,,,,,,,,,,,,,461.5058645,None,461.5058645,None,461.5058645,None,461.5058645,None,475.6102059,None,community,61,1,silent,red,473.6103742,None,None,473.6103742,None,,,,,,,,,,,,,,,,,,,,,,,,,,,,,,,,,,,August10Silent3,25,2022_Aug_10_1435,ProdSingRedoBetween,2021.2.3,59.93982042
1,0,1,0,,,,,,,,,,,,,,,,,,,,,,,,,,478.1126273,None,property,67,2,silent,red,476.1117357,None,None,476.1117357,None,,,,,,,,,,,,,,,,,,,,,,,,,,,,,,,,,,,August10Silent3,25,2022_Aug_10_1435,ProdSingRedoBetween,2021.2.3,59.93982042
2,0,2,0,,,,,,,,,,,,,,,,,,,,,,,,,,480.6317169,None,message,79,3,silent,red,478.6164258,None,None,478.6164258,None,,,,,,,,,,,,,,,,,,,,,,,,,,,,,,,,,,,August10Silent3,25,2022_Aug_10_1435,ProdSingRedoBetween,2021.2.3,59.93982042
3,0,3,0,,,,,,,,,,,,,,,,,,,,,,,,,,483.1342577,None,detective,30,4,silent,blue,481.1346362,None,None,481.1346362,None,,,,,,,,,,,,,,,,,,,,,,,,,,,,,,,,,,,August10Silent3,25,2022_Aug_10_1435,ProdSingRedoBetween,2021.2.3,59.93982042
4,0,4,0,,,,,,,,,,,,,,,,,,,,,,,,,,485.6367354,None,surface,0,5,silent,yellow,483.634721,None,None,483.634721,None,,,,,,,,,,,,,,,,,,,,,,,,,,,,,,,,,,,August10Silent3,25,2022_Aug_10_1435,ProdSingRedoBetween,2021.2.3,59.93982042
5,0,5,0,,,,,,,,,,,,,,,,,,,,,,,,,,488.139413,None,broke,88,6,silent,red,486.1372453,None,None,486.1372453,None,,,,,,,,,,,,,,,,,,,,,,,,,,,,,,,,,,,August10Silent3,25,2022_Aug_10_1435,ProdSingRedoBetween,2021.2.3,59.93982042
6,0,6,0,,,,,,,,,,,,,,,,,,,,,,,,,,490.6585104,None,close,68,7,silent,red,488.6447223,None,None,488.6447223,None,,,,,,,,,,,,,,,,,,,,,,,,,,,,,,,,,,,August10Silent3,25,2022_Aug_10_1435,ProdSingRedoBetween,2021.2.3,59.93982042
7,0,7,0,,,,,,,,,,,,,,,,,,,,,,,,,,493.1610049,None,guest,21,8,silent,yellow,491.1590834,None,None,491.1590834,None,,,,,,,,,,,,,,,,,,,,,,,,,,,,,,,,,,,August10Silent3,25,2022_Aug_10_1435,ProdSingRedoBetween,2021.2.3,59.93982042
8,0,8,0,,,,,,,,,,,,,,,,,,,,,,,,,,495.6635314,None,shear,38,9,silent,blue,493.6622263,None,None,493.6622263,None,,,,,,,,,,,,,,,,,,,,,,,,,,,,,,,,,,,August10Silent3,25,2022_Aug_10_1435,ProdSingRedoBetween,2021.2.3,59.93982042
9,0,9,0,,,,,,,,,,,,,,,,,,,,,,,,,,498.1660471,None,second,40,10,silent,blue,496.1664532,None,None,496.1664532,None,,,,,,,,,,,,,,,,,,,,,,,,,,,,,,,,,,,August10Silent3,25,2022_Aug_10_1435,ProdSingRedoBetween,2021.2.3,59.93982042
10,0,10,0,,,,,,,,,,,,,,,,,,,,,,,,,,500.6850753,None,waste,47,11,silent,blue,498.6726733,None,None,498.6726733,None,,,,,,,,,,,,,,,,,,,,,,,,,,,,,,,,,,,August10Silent3,25,2022_Aug_10_1435,ProdSingRedoBetween,2021.2.3,59.93982042
11,0,11,0,,,,,,,,,,,,,,,,,,,,,,,,,,503.1876882,None,poetry,13,12,silent,yellow,501.1856715,None,None,501.1856715,None,,,,,,,,,,,,,,,,,,,,,,,,,,,,,,,,,,,August10Silent3,25,2022_Aug_10_1435,ProdSingRedoBetween,2021.2.3,59.93982042
12,0,12,0,,,,,,,,,,,,,,,,,,,,,,,,,,505.70683,None,religion,44,13,silent,blue,503.69219,None,None,503.69219,None,,,,,,,,,,,,,,,,,,,,,,,,,,,,,,,,,,,August10Silent3,25,2022_Aug_10_1435,ProdSingRedoBetween,2021.2.3,59.93982042
13,0,13,0,,,,,,,,,,,,,,,,,,,,,,,,,,508.2093008,None,guard,84,14,silent,red,506.20741,None,None,506.20741,None,,,,,,,,,,,,,,,,,,,,,,,,,,,,,,,,,,,August10Silent3,25,2022_Aug_10_1435,ProdSingRedoBetween,2021.2.3,59.93982042
14,0,14,0,,,,,,,,,,,,,,,,,,,,,,,,,,510.7119032,None,owner,15,15,silent,yellow,508.7111744,None,None,508.7111744,None,,,,,,,,,,,,,,,,,,,,,,,,,,,,,,,,,,,August10Silent3,25,2022_Aug_10_1435,ProdSingRedoBetween,2021.2.3,59.93982042
15,0,15,0,,,,,,,,,,,,,,,,,,,,,,,,,,513.2142784,None,substance,27,16,silent,yellow,511.2139501,None,None,511.2139501,None,,,,,,,,,,,,,,,,,,,,,,,,,,,,,,,,,,,August10Silent3,25,2022_Aug_10_1435,ProdSingRedoBetween,2021.2.3,59.93982042
16,0,16,0,,,,,,,,,,,,,,,,,,,,,,,,,,515.7170308,None,instrument,52,17,silent,blue,513.7164774,None,None,513.7164774,None,,,,,,,,,,,,,,,,,,,,,,,,,,,,,,,,,,,August10Silent3,25,2022_Aug_10_1435,ProdSingRedoBetween,2021.2.3,59.93982042
17,0,17,0,,,,,,,,,,,,,,,,,,,,,,,,,,518.2192621,None,production,69,18,silent,red,516.219396,None,None,516.219396,None,,,,,,,,,,,,,,,,,,,,,,,,,,,,,,,,,,,August10Silent3,25,2022_Aug_10_1435,ProdSingRedoBetween,2021.2.3,59.93982042
18,0,18,0,,,,,,,,,,,,,,,,,,,,,,,,,,520.7386365,None,company,16,19,silent,yellow,518.7257671,None,None,518.7257671,None,,,,,,,,,,,,,,,,,,,,,,,,,,,,,,,,,,,August10Silent3,25,2022_Aug_10_1435,ProdSingRedoBetween,2021.2.3,59.93982042
19,0,19,0,,,,,,,,,,,,,,,,,,,,,,,,,,523.2411557,None,appeal,83,20,silent,red,521.2419512,None,None,521.2419512,None,,,,,,,,,,,,,,,,,,,,,,,,,,,,,,,,,,,August10Silent3,25,2022_Aug_10_1435,ProdSingRedoBetween,2021.2.3,59.93982042
20,0,20,0,,,,,,,,,,,,,,,,,,,,,,,,,,525.743607,None,match,22,21,silent,yellow,523.7433045,None,None,523.7433045,None,,,,,,,,,,,,,,,,,,,,,,,,,,,,,,,,,,,August10Silent3,25,2022_Aug_10_1435,ProdSingRedoBetween,2021.2.3,59.93982042
21,0,21,0,,,,,,,,,,,,,,,,,,,,,,,,,,528.2627582,None,candidate,20,22,silent,yellow,526.2478664,None,None,526.2478664,None,,,,,,,,,,,,,,,,,,,,,,,,,,,,,,,,,,,August10Silent3,25,2022_Aug_10_1435,ProdSingRedoBetween,2021.2.3,59.93982042
22,0,22,0,,,,,,,,,,,,,,,,,,,,,,,,,,530.7650951,None,notice,14,23,silent,yellow,528.7632773,None,None,528.7632773,None,,,,,,,,,,,,,,,,,,,,,,,,,,,,,,,,,,,August10Silent3,25,2022_Aug_10_1435,ProdSingRedoBetween,2021.2.3,59.93982042
23,0,23,0,,,,,,,,,,,,,,,,,,,,,,,,,,533.2842361,None,worker,41,24,silent,blue,531.2728436,None,None,531.2728436,None,,,,,,,,,,,,,,,,,,,,,,,,,,,,,,,,,,,August10Silent3,25,2022_Aug_10_1435,ProdSingRedoBetween,2021.2.3,59.93982042
24,0,24,0,,,,,,,,,,,,,,,,,,,,,,,,,,535.8036922,None,rural,53,25,silent,blue,533.7882888,None,None,533.7882888,None,,,,,,,,,,,,,,,,,,,,,,,,,,,,,,,,,,,August10Silent3,25,2022_Aug_10_1435,ProdSingRedoBetween,2021.2.3,59.93982042
25,0,25,0,,,,,,,,,,,,,,,,,,,,,,,,,,538.306112,None,distance,85,26,silent,red,536.3054285,None,None,536.3054285,None,,,,,,,,,,,,,,,,,,,,,,,,,,,,,,,,,,,August10Silent3,25,2022_Aug_10_1435,ProdSingRedoBetween,2021.2.3,59.93982042
26,0,26,0,,,,,,,,,,,,,,,,,,,,,,,,,,540.8087483,None,income,2,27,silent,yellow,538.806479,None,None,538.806479,None,,,,,,,,,,,,,,,,,,,,,,,,,,,,,,,,,,,August10Silent3,25,2022_Aug_10_1435,ProdSingRedoBetween,2021.2.3,59.93982042
27,0,27,0,,,,,,,,,,,,,,,,,,,,,,,,,,543.3112223,None,express,3,28,silent,yellow,541.3109756,None,None,541.3109756,None,,,,,,,,,,,,,,,,,,,,,,,,,,,,,,,,,,,August10Silent3,25,2022_Aug_10_1435,ProdSingRedoBetween,2021.2.3,59.93982042
28,0,28,0,,,,,,,,,,,,,,,,,,,,,,,,,,545.8302739,None,solution,78,29,silent,red,543.8176814,None,None,543.8176814,None,,,,,,,,,,,,,,,,,,,,,,,,,,,,,,,,,,,August10Silent3,25,2022_Aug_10_1435,ProdSingRedoBetween,2021.2.3,59.93982042
29,0,29,0,,,,,,,,,,,,,,,,,,,,,,,,,,548.3327039,None,bureau,10,30,silent,yellow,546.3307127,None,None,546.3307127,None,,,,,,,,,,,,,,,,,,,,,,,,,,,,,,,,,,,August10Silent3,25,2022_Aug_10_1435,ProdSingRedoBetween,2021.2.3,59.93982042
30,0,30,0,,,,,,,,,,,,,,,,,,,,,,,,,,550.8352461,None,length,46,31,silent,blue,548.8332273,None,None,548.8332273,None,,,,,,,,,,,,,,,,,,,,,,,,,,,,,,,,,,,August10Silent3,25,2022_Aug_10_1435,ProdSingRedoBetween,2021.2.3,59.93982042
31,0,31,0,,,,,,,,,,,,,,,,,,,,,,,,,,553.3544718,None,whole,49,32,silent,blue,551.3407598,None,None,551.3407598,None,,,,,,,,,,,,,,,,,,,,,,,,,,,,,,,,,,,August10Silent3,25,2022_Aug_10_1435,ProdSingRedoBetween,2021.2.3,59.93982042
32,0,32,0,,,,,,,,,,,,,,,,,,,,,,,,,,555.8570163,None,character,1,33,silent,yellow,553.8551214,None,None,553.8551214,None,,,,,,,,,,,,,,,,,,,,,,,,,,,,,,,,,,,August10Silent3,25,2022_Aug_10_1435,ProdSingRedoBetween,2021.2.3,59.93982042
33,0,33,0,,,,,,,,,,,,,,,,,,,,,,,,,,558.3595539,None,mankind,60,34,silent,red,556.3594283,None,None,556.3594283,None,,,,,,,,,,,,,,,,,,,,,,,,,,,,,,,,,,,August10Silent3,25,2022_Aug_10_1435,ProdSingRedoBetween,2021.2.3,59.93982042
34,0,34,0,,,,,,,,,,,,,,,,,,,,,,,,,,560.8787373,None,birth,51,35,silent,blue,558.8677091,None,None,558.8677091,None,,,,,,,,,,,,,,,,,,,,,,,,,,,,,,,,,,,August10Silent3,25,2022_Aug_10_1435,ProdSingRedoBetween,2021.2.3,59.93982042
35,0,35,0,,,,,,,,,,,,,,,,,,,,,,,,,,563.3979398,None,background,17,36,silent,yellow,561.3831513,None,None,561.3831513,None,,,,,,,,,,,,,,,,,,,,,,,,,,,,,,,,,,,August10Silent3,25,2022_Aug_10_1435,ProdSingRedoBetween,2021.2.3,59.93982042
36,0,36,0,,,,,,,,,,,,,,,,,,,,,,,,,,565.9003562,None,right,65,37,silent,red,563.9001839,None,None,563.9001839,None,,,,,,,,,,,,,,,,,,,,,,,,,,,,,,,,,,,August10Silent3,25,2022_Aug_10_1435,ProdSingRedoBetween,2021.2.3,59.93982042
37,0,37,0,,,,,,,,,,,,,,,,,,,,,,,,,,568.4029943,None,shock,34,38,silent,blue,566.4015266,None,None,566.4015266,None,,,,,,,,,,,,,,,,,,,,,,,,,,,,,,,,,,,August10Silent3,25,2022_Aug_10_1435,ProdSingRedoBetween,2021.2.3,59.93982042
38,0,38,0,,,,,,,,,,,,,,,,,,,,,,,,,,570.905426,None,course,54,39,silent,blue,568.9055786,None,None,568.9055786,None,,,,,,,,,,,,,,,,,,,,,,,,,,,,,,,,,,,August10Silent3,25,2022_Aug_10_1435,ProdSingRedoBetween,2021.2.3,59.93982042
39,0,39,0,,,,,,,,,,,,,,,,,,,,,,,,,,573.424639,None,sound,45,40,silent,blue,571.4091655,None,None,571.4091655,None,,,,,,,,,,,,,,,,,,,,,,,,,,,,,,,,,,,August10Silent3,25,2022_Aug_10_1435,ProdSingRedoBetween,2021.2.3,59.93982042
40,0,40,0,,,,,,,,,,,,,,,,,,,,,,,,,,575.9272671,None,sleep,81,41,silent,red,573.9279303,None,None,573.9279303,None,,,,,,,,,,,,,,,,,,,,,,,,,,,,,,,,,,,August10Silent3,25,2022_Aug_10_1435,ProdSingRedoBetween,2021.2.3,59.93982042
41,0,41,0,,,,,,,,,,,,,,,,,,,,,,,,,,578.4462457,None,swift,11,42,silent,yellow,576.4318735,None,None,576.4318735,None,,,,,,,,,,,,,,,,,,,,,,,,,,,,,,,,,,,August10Silent3,25,2022_Aug_10_1435,ProdSingRedoBetween,2021.2.3,59.93982042
42,0,42,0,,,,,,,,,,,,,,,,,,,,,,,,,,580.9488293,None,judge,28,43,silent,yellow,578.949069,None,None,578.949069,None,,,,,,,,,,,,,,,,,,,,,,,,,,,,,,,,,,,August10Silent3,25,2022_Aug_10_1435,ProdSingRedoBetween,2021.2.3,59.93982042
43,0,43,0,,,,,,,,,,,,,,,,,,,,,,,,,,583.4680713,None,balance,9,44,silent,yellow,581.4525839,None,None,581.4525839,None,,,,,,,,,,,,,,,,,,,,,,,,,,,,,,,,,,,August10Silent3,25,2022_Aug_10_1435,ProdSingRedoBetween,2021.2.3,59.93982042
44,0,44,0,,,,,,,,,,,,,,,,,,,,,,,,,,585.9704646,None,institute,31,45,silent,blue,583.9685632,None,None,583.9685632,None,,,,,,,,,,,,,,,,,,,,,,,,,,,,,,,,,,,August10Silent3,25,2022_Aug_10_1435,ProdSingRedoBetween,2021.2.3,59.93982042
45,0,45,0,,,,,,,,,,,,,,,,,,,,,,,,,,588.4730135,None,throw,39,46,silent,blue,586.4715425,None,None,586.4715425,None,,,,,,,,,,,,,,,,,,,,,,,,,,,,,,,,,,,August10Silent3,25,2022_Aug_10_1435,ProdSingRedoBetween,2021.2.3,59.93982042
46,0,46,0,,,,,,,,,,,,,,,,,,,,,,,,,,590.9919084,None,equipment,66,47,silent,red,588.9782207,None,None,588.9782207,None,,,,,,,,,,,,,,,,,,,,,,,,,,,,,,,,,,,August10Silent3,25,2022_Aug_10_1435,ProdSingRedoBetween,2021.2.3,59.93982042
47,0,47,0,,,,,,,,,,,,,,,,,,,,,,,,,,593.4947737,None,problem,71,48,silent,red,591.492705,None,None,591.492705,None,,,,,,,,,,,,,,,,,,,,,,,,,,,,,,,,,,,August10Silent3,25,2022_Aug_10_1435,ProdSingRedoBetween,2021.2.3,59.93982042
48,0,48,0,,,,,,,,,,,,,,,,,,,,,,,,,,596.0137352,None,attack,19,49,silent,yellow,593.9994822,None,None,593.9994822,None,,,,,,,,,,,,,,,,,,,,,,,,,,,,,,,,,,,August10Silent3,25,2022_Aug_10_1435,ProdSingRedoBetween,2021.2.3,59.93982042
49,0,49,0,,,,,,,,,,,,,,,,,,,,,,,,,,598.5164985,None,space,63,50,silent,red,596.5143828,None,None,596.5143828,None,,,,,,,,,,,,,,,,,,,,,,,,,,,,,,,,,,,August10Silent3,25,2022_Aug_10_1435,ProdSingRedoBetween,2021.2.3,59.93982042
50,0,50,0,,,,,,,,,,,,,,,,,,,,,,,,,,601.0187954,None,cover,55,51,silent,blue,599.0181044,None,None,599.0181044,None,,,,,,,,,,,,,,,,,,,,,,,,,,,,,,,,,,,August10Silent3,25,2022_Aug_10_1435,ProdSingRedoBetween,2021.2.3,59.93982042
51,0,51,0,,,,,,,,,,,,,,,,,,,,,,,,,,603.5381388,None,nature,4,52,silent,yellow,601.5276521,None,None,601.5276521,None,,,,,,,,,,,,,,,,,,,,,,,,,,,,,,,,,,,August10Silent3,25,2022_Aug_10_1435,ProdSingRedoBetween,2021.2.3,59.93982042
52,0,52,0,,,,,,,,,,,,,,,,,,,,,,,,,,606.0405269,None,payment,89,53,silent,red,604.0385542,None,None,604.0385542,None,,,,,,,,,,,,,,,,,,,,,,,,,,,,,,,,,,,August10Silent3,25,2022_Aug_10_1435,ProdSingRedoBetween,2021.2.3,59.93982042
53,0,53,0,,,,,,,,,,,,,,,,,,,,,,,,,,608.5598243,None,territory,62,54,silent,red,606.5442059,None,None,606.5442059,None,,,,,,,,,,,,,,,,,,,,,,,,,,,,,,,,,,,August10Silent3,25,2022_Aug_10_1435,ProdSingRedoBetween,2021.2.3,59.93982042
54,0,54,0,,,,,,,,,,,,,,,,,,,,,,,,,,611.062319,None,portion,58,55,silent,blue,609.0602206,None,None,609.0602206,None,,,,,,,,,,,,,,,,,,,,,,,,,,,,,,,,,,,August10Silent3,25,2022_Aug_10_1435,ProdSingRedoBetween,2021.2.3,59.93982042
55,0,55,0,,,,,,,,,,,,,,,,,,,,,,,,,,613.564653,None,alert,43,56,silent,blue,611.5631057,None,None,611.5631057,None,,,,,,,,,,,,,,,,,,,,,,,,,,,,,,,,,,,August10Silent3,25,2022_Aug_10_1435,ProdSingRedoBetween,2021.2.3,59.93982042
56,0,56,0,,,,,,,,,,,,,,,,,,,,,,,,,,616.0671413,None,volume,73,57,silent,red,614.0670775,None,None,614.0670775,None,,,,,,,,,,,,,,,,,,,,,,,,,,,,,,,,,,,August10Silent3,25,2022_Aug_10_1435,ProdSingRedoBetween,2021.2.3,59.93982042
57,0,57,0,,,,,,,,,,,,,,,,,,,,,,,,,,618.5894505,None,novel,36,58,silent,blue,616.5714875,None,None,616.5714875,None,,,,,,,,,,,,,,,,,,,,,,,,,,,,,,,,,,,August10Silent3,25,2022_Aug_10_1435,ProdSingRedoBetween,2021.2.3,59.93982042
58,0,58,0,,,,,,,,,,,,,,,,,,,,,,,,,,621.0889857,None,store,82,59,silent,red,619.0897562,None,None,619.0897562,None,,,,,,,,,,,,,,,,,,,,,,,,,,,,,,,,,,,August10Silent3,25,2022_Aug_10_1435,ProdSingRedoBetween,2021.2.3,59.93982042
59,0,59,0,,,,,,,,,,,,,,,,,,,,,,,,,,623.6080616,None,prime,25,60,silent,yellow,621.5929461,None,None,621.5929461,None,,,,,,,,,,,,,,,,,,,,,,,,,,,,,,,,,,,August10Silent3,25,2022_Aug_10_1435,ProdSingRedoBetween,2021.2.3,59.93982042
60,0,60,0,,,,,,,,,,,,,,,,,,,,,,,,,,626.110613,None,title,8,61,silent,yellow,624.1086093,None,None,624.1086093,None,,,,,,,,,,,,,,,,,,,,,,,,,,,,,,,,,,,August10Silent3,25,2022_Aug_10_1435,ProdSingRedoBetween,2021.2.3,59.93982042
61,0,61,0,,,,,,,,,,,,,,,,,,,,,,,,,,628.6132951,None,meeting,26,62,silent,yellow,626.6109961,None,None,626.6109961,None,,,,,,,,,,,,,,,,,,,,,,,,,,,,,,,,,,,August10Silent3,25,2022_Aug_10_1435,ProdSingRedoBetween,2021.2.3,59.93982042
62,0,62,0,,,,,,,,,,,,,,,,,,,,,,,,,,631.1156582,None,center,5,63,silent,yellow,629.114833,None,None,629.114833,None,,,,,,,,,,,,,,,,,,,,,,,,,,,,,,,,,,,August10Silent3,25,2022_Aug_10_1435,ProdSingRedoBetween,2021.2.3,59.93982042
63,0,63,0,,,,,,,,,,,,,,,,,,,,,,,,,,633.6349621,None,debate,86,64,silent,red,631.6248652,None,None,631.6248652,None,,,,,,,,,,,,,,,,,,,,,,,,,,,,,,,,,,,August10Silent3,25,2022_Aug_10_1435,ProdSingRedoBetween,2021.2.3,59.93982042
64,0,64,0,,,,,,,,,,,,,,,,,,,,,,,,,,636.1374061,None,danger,12,65,silent,yellow,634.1373556,None,None,634.1373556,None,,,,,,,,,,,,,,,,,,,,,,,,,,,,,,,,,,,August10Silent3,25,2022_Aug_10_1435,ProdSingRedoBetween,2021.2.3,59.93982042
65,0,65,0,,,,,,,,,,,,,,,,,,,,,,,,,,638.6397658,None,enemy,42,66,silent,blue,636.6377985,None,None,636.6377985,None,,,,,,,,,,,,,,,,,,,,,,,,,,,,,,,,,,,August10Silent3,25,2022_Aug_10_1435,ProdSingRedoBetween,2021.2.3,59.93982042
66,0,66,0,,,,,,,,,,,,,,,,,,,,,,,,,,641.1422726,None,under,48,67,silent,blue,639.1403325,None,None,639.1403325,None,,,,,,,,,,,,,,,,,,,,,,,,,,,,,,,,,,,August10Silent3,25,2022_Aug_10_1435,ProdSingRedoBetween,2021.2.3,59.93982042
67,0,67,0,,,,,,,,,,,,,,,,,,,,,,,,,,643.6449221,None,blind,33,68,silent,blue,641.6432631,None,None,641.6432631,None,,,,,,,,,,,,,,,,,,,,,,,,,,,,,,,,,,,August10Silent3,25,2022_Aug_10_1435,ProdSingRedoBetween,2021.2.3,59.93982042
68,0,68,0,,,,,,,,,,,,,,,,,,,,,,,,,,646.1474394,None,scale,77,69,silent,red,644.1453819,None,None,644.1453819,None,,,,,,,,,,,,,,,,,,,,,,,,,,,,,,,,,,,August10Silent3,25,2022_Aug_10_1435,ProdSingRedoBetween,2021.2.3,59.93982042
69,0,69,0,,,,,,,,,,,,,,,,,,,,,,,,,,648.6666335,None,death,7,70,silent,yellow,646.6515794,None,None,646.6515794,None,,,,,,,,,,,,,,,,,,,,,,,,,,,,,,,,,,,August10Silent3,25,2022_Aug_10_1435,ProdSingRedoBetween,2021.2.3,59.93982042
70,0,70,0,,,,,,,,,,,,,,,,,,,,,,,,,,651.168884,None,crime,56,71,silent,blue,649.1684105,None,None,649.1684105,None,,,,,,,,,,,,,,,,,,,,,,,,,,,,,,,,,,,August10Silent3,25,2022_Aug_10_1435,ProdSingRedoBetween,2021.2.3,59.93982042
71,0,71,0,,,,,,,,,,,,,,,,,,,,,,,,,,653.6881991,None,growth,23,72,silent,yellow,651.6743058,None,None,651.6743058,None,,,,,,,,,,,,,,,,,,,,,,,,,,,,,,,,,,,August10Silent3,25,2022_Aug_10_1435,ProdSingRedoBetween,2021.2.3,59.93982042
72,0,72,0,,,,,,,,,,,,,,,,,,,,,,,,,,656.1906933,None,taste,70,73,silent,red,654.1885985,None,None,654.1885985,None,,,,,,,,,,,,,,,,,,,,,,,,,,,,,,,,,,,August10Silent3,25,2022_Aug_10_1435,ProdSingRedoBetween,2021.2.3,59.93982042
73,0,73,0,,,,,,,,,,,,,,,,,,,,,,,,,,658.6931729,None,cousin,18,74,silent,yellow,656.6912231,None,None,656.6912231,None,,,,,,,,,,,,,,,,,,,,,,,,,,,,,,,,,,,August10Silent3,25,2022_Aug_10_1435,ProdSingRedoBetween,2021.2.3,59.93982042
74,0,74,0,,,,,,,,,,,,,,,,,,,,,,,,,,661.2125052,None,agency,24,75,silent,yellow,659.199406,None,None,659.199406,None,,,,,,,,,,,,,,,,,,,,,,,,,,,,,,,,,,,August10Silent3,25,2022_Aug_10_1435,ProdSingRedoBetween,2021.2.3,59.93982042
75,0,75,0,,,,,,,,,,,,,,,,,,,,,,,,,,663.7149238,None,tough,57,76,silent,blue,661.714571,None,None,661.714571,None,,,,,,,,,,,,,,,,,,,,,,,,,,,,,,,,,,,August10Silent3,25,2022_Aug_10_1435,ProdSingRedoBetween,2021.2.3,59.93982042
76,0,76,0,,,,,,,,,,,,,,,,,,,,,,,,,,666.2174382,None,evidence,6,77,silent,yellow,664.2157356,None,None,664.2157356,None,,,,,,,,,,,,,,,,,,,,,,,,,,,,,,,,,,,August10Silent3,25,2022_Aug_10_1435,ProdSingRedoBetween,2021.2.3,59.93982042
77,0,77,0,,,,,,,,,,,,,,,,,,,,,,,,,,668.7198799,None,style,50,78,silent,blue,666.7203544,None,None,666.7203544,None,,,,,,,,,,,,,,,,,,,,,,,,,,,,,,,,,,,August10Silent3,25,2022_Aug_10_1435,ProdSingRedoBetween,2021.2.3,59.93982042
78,0,78,0,,,,,,,,,,,,,,,,,,,,,,,,,,671.2223108,None,emergency,64,79,silent,red,669.2203627,None,None,669.2203627,None,,,,,,,,,,,,,,,,,,,,,,,,,,,,,,,,,,,August10Silent3,25,2022_Aug_10_1435,ProdSingRedoBetween,2021.2.3,59.93982042
79,0,79,0,,,,,,,,,,,,,,,,,,,,,,,,,,673.7415887,None,corner,29,80,silent,blue,671.7324017,None,None,671.7324017,None,,,,,,,,,,,,,,,,,,,,,,,,,,,,,,,,,,,August10Silent3,25,2022_Aug_10_1435,ProdSingRedoBetween,2021.2.3,59.93982042
80,0,80,0,,,,,,,,,,,,,,,,,,,,,,,,,,676.2440439,None,afternoon,32,81,silent,blue,674.2421801,None,None,674.2421801,None,,,,,,,,,,,,,,,,,,,,,,,,,,,,,,,,,,,August10Silent3,25,2022_Aug_10_1435,ProdSingRedoBetween,2021.2.3,59.93982042
81,0,81,0,,,,,,,,,,,,,,,,,,,,,,,,,,678.7465948,None,commercial,80,82,silent,red,676.7454466,None,None,676.7454466,None,,,,,,,,,,,,,,,,,,,,,,,,,,,,,,,,,,,August10Silent3,25,2022_Aug_10_1435,ProdSingRedoBetween,2021.2.3,59.93982042
82,0,82,0,,,,,,,,,,,,,,,,,,,,,,,,,,681.2491492,None,piece,74,83,silent,red,679.2470866,None,None,679.2470866,None,,,,,,,,,,,,,,,,,,,,,,,,,,,,,,,,,,,August10Silent3,25,2022_Aug_10_1435,ProdSingRedoBetween,2021.2.3,59.93982042
83,0,83,0,,,,,,,,,,,,,,,,,,,,,,,,,,683.7683882,None,executive,35,84,silent,blue,681.7585696,None,None,681.7585696,None,,,,,,,,,,,,,,,,,,,,,,,,,,,,,,,,,,,August10Silent3,25,2022_Aug_10_1435,ProdSingRedoBetween,2021.2.3,59.93982042
84,0,84,0,,,,,,,,,,,,,,,,,,,,,,,,,,686.2706817,None,orchestra,37,85,silent,blue,684.2708342,None,None,684.2708342,None,,,,,,,,,,,,,,,,,,,,,,,,,,,,,,,,,,,August10Silent3,25,2022_Aug_10_1435,ProdSingRedoBetween,2021.2.3,59.93982042
85,0,85,0,,,,,,,,,,,,,,,,,,,,,,,,,,688.7900879,None,universal,76,86,silent,red,686.7792745,None,None,686.7792745,None,,,,,,,,,,,,,,,,,,,,,,,,,,,,,,,,,,,August10Silent3,25,2022_Aug_10_1435,ProdSingRedoBetween,2021.2.3,59.93982042
86,0,86,0,,,,,,,,,,,,,,,,,,,,,,,,,,691.3091794,None,block,75,87,silent,red,689.2947796,None,None,689.2947796,None,,,,,,,,,,,,,,,,,,,,,,,,,,,,,,,,,,,August10Silent3,25,2022_Aug_10_1435,ProdSingRedoBetween,2021.2.3,59.93982042
87,0,87,0,,,,,,,,,,,,,,,,,,,,,,,,,,693.8284797,None,rough,72,88,silent,red,691.8161189,None,None,691.8161189,None,,,,,,,,,,,,,,,,,,,,,,,,,,,,,,,,,,,August10Silent3,25,2022_Aug_10_1435,ProdSingRedoBetween,2021.2.3,59.93982042
88,0,88,0,,,,,,,,,,,,,,,,,,,,,,,,,,696.3308938,None,thing,87,89,silent,red,694.3289005,None,None,694.3289005,None,,,,,,,,,,,,,,,,,,,,,,,,,,,,,,,,,,,August10Silent3,25,2022_Aug_10_1435,ProdSingRedoBetween,2021.2.3,59.93982042
89,0,89,0,,,,,,,,,,,,,,,,,,,,,,,,,,698.8501608,None,voice,59,90,silent,yellow,696.8376955,None,None,696.8376955,None,,,,,,,,,,,,,,,,,,,,,,,,,,,,,,,,,,,August10Silent3,25,2022_Aug_10_1435,ProdSingRedoBetween,2021.2.3,59.93982042
,,,,,,,,,,,,,,,,,,,,,,,,,,,,,,,,,,,,,,,,,699.3508104,None,k,102.5012739,699.3508104,None,,,,,,,,,,,,,,,,,,,,,,,,,,,,,August10Silent3,25,2022_Aug_10_1435,ProdSingRedoBetween,2021.2.3,59.93982042
,,,,0,0,0,0,,,,,,,,,,,,,,,,,,,,,,812.4970143,None,,,,,,,,,,,,,,,,,guide,170,1,silent,new,null,802.3882535,None,802.3882535,None,2,5.5757442,802.3882535,None,5.5757442,807.9950712,None,808.5130286,None,808.5130286,None,n,3.955079,808.5130286,None,3.955079,,,August10Silent3,25,2022_Aug_10_1435,ProdSingRedoBetween,2021.2.3,59.93982042
,,,,1,0,1,0,,,,,,,,,,,,,,,,,,,,,,820.3059516,None,,,,,,,,,,,,,,,,,portion,58,2,silent,old,blue,813.0048599,None,813.0048599,None,1,5.1512174,813.0048599,None,5.1512174,818.1868725,None,818.6866284,None,818.6866284,None,n,1.5975841,818.6866284,None,1.5975841,,,August10Silent3,25,2022_Aug_10_1435,ProdSingRedoBetween,2021.2.3,59.93982042
,,,,2,0,2,0,,,,,,,,,,,,,,,,,,,,,,829.7475271,None,,,,,,,,,,,,,,,,,growth,23,3,silent,old,yellow,820.8098079,None,820.8098079,None,6,3.7622507,820.8098079,None,3.7622507,824.5930326,None,825.0989557,None,825.0989557,None,f,4.63308,825.0989557,None,4.63308,,,August10Silent3,25,2022_Aug_10_1435,ProdSingRedoBetween,2021.2.3,59.93982042
,,,,3,0,3,0,,,,,,,,,,,,,,,,,,,,,,838.6231361,None,,,,,,,,,,,,,,,,,distance,85,4,silent,old,red,830.2546633,None,830.2546633,None,1,3.0374831,830.2546633,None,3.0374831,833.3198902,None,833.838774,None,833.838774,None,n,4.7573296,833.838774,None,4.7573296,,,August10Silent3,25,2022_Aug_10_1435,ProdSingRedoBetween,2021.2.3,59.93982042
,,,,4,0,4,0,,,,,,,,,,,,,,,,,,,,,,848.0158328,None,,,,,,,,,,,,,,,,,match,22,5,silent,old,yellow,839.1322909,None,839.1322909,None,1,2.5838763,839.1322909,None,2.5838763,841.7532004,None,842.2602468,None,842.2602468,None,n,5.7278459,842.2602468,None,5.7278459,,,August10Silent3,25,2022_Aug_10_1435,ProdSingRedoBetween,2021.2.3,59.93982042
,,,,5,0,5,0,,,,,,,,,,,,,,,,,,,,,,861.129029,None,,,,,,,,,,,,,,,,,voice,59,6,silent,old,yellow,848.5228075,None,848.5228075,None,1,8.3453763,848.5228075,None,8.3453763,856.8944905,None,857.4131962,None,857.4131962,None,n,3.6869606,857.4131962,None,3.6869606,,,August10Silent3,25,2022_Aug_10_1435,ProdSingRedoBetween,2021.2.3,59.93982042
,,,,6,0,6,0,,,,,,,,,,,,,,,,,,,,,,868.8085872,None,,,,,,,,,,,,,,,,,short,114,7,silent,new,null,861.6373308,None,861.6373308,None,2,3.4388541,861.6373308,None,3.4388541,865.1014524,None,865.6188967,None,865.6188967,None,n,3.1692157,865.6188967,None,3.1692157,,,August10Silent3,25,2022_Aug_10_1435,ProdSingRedoBetween,2021.2.3,59.93982042
,,,,7,0,7,0,,,,,,,,,,,,,,,,,,,,,,873.8250216,None,,,,,,,,,,,,,,,,,shock,34,8,silent,old,blue,869.3204424,None,869.3204424,None,1,2.4357879,869.3204424,None,2.4357879,871.7861845,None,872.2901517,None,872.2901517,None,n,1.5140373,872.2901517,None,1.5140373,,,August10Silent3,25,2022_Aug_10_1435,ProdSingRedoBetween,2021.2.3,59.93982042
,,,,8,0,8,0,,,,,,,,,,,,,,,,,,,,,,880.381546,None,,,,,,,,,,,,,,,,,payment,89,9,silent,old,red,874.3357305,None,874.3357305,None,1,4.5646976,874.3357305,None,4.5646976,878.935768,None,879.451608,None,879.451608,None,n,0.9046228,879.451608,None,0.9046228,,,August10Silent3,25,2022_Aug_10_1435,ProdSingRedoBetween,2021.2.3,59.93982042
,,,,9,0,9,0,,,,,,,,,,,,,,,,,,,,,,886.7880214,None,,,,,,,,,,,,,,,,,right,65,10,silent,old,red,880.8907228,None,880.8907228,None,6,3.0655733,880.8907228,None,3.0655733,883.9920842,None,884.5023745,None,884.5023745,None,r,2.2618391,884.5023745,None,2.2618391,,,August10Silent3,25,2022_Aug_10_1435,ProdSingRedoBetween,2021.2.3,59.93982042
,,,,10,0,10,0,,,,,,,,,,,,,,,,,,,,,,891.4593846,None,,,,,,,,,,,,,,,,,orchestra,37,11,silent,old,blue,887.292676,None,887.292676,None,6,2.5756014,887.292676,None,2.5756014,889.8922292,None,890.3976075,None,890.3976075,None,r,1.0465905,890.3976075,None,1.0465905,,,August10Silent3,25,2022_Aug_10_1435,ProdSingRedoBetween,2021.2.3,59.93982042
,,,,11,0,11,0,,,,,,,,,,,,,,,,,,,,,,896.3808222,None,,,,,,,,,,,,,,,,,management,165,12,silent,new,null,891.9629486,None,891.9629486,None,1,2.2973152,891.9629486,None,2.2973152,894.2806476,None,894.7992651,None,894.7992651,None,n,1.5569537,894.7992651,None,1.5569537,,,August10Silent3,25,2022_Aug_10_1435,ProdSingRedoBetween,2021.2.3,59.93982042
,,,,12,0,12,0,,,,,,,,,,,,,,,,,,,,,,900.5851371,None,,,,,,,,,,,,,,,,,column,157,13,silent,new,null,896.8874891,None,896.8874891,None,1,2.092723,896.8874891,None,2.092723,899.0010203,None,899.5043091,None,899.5043091,None,n,1.0599414,899.5043091,None,1.0599414,,,August10Silent3,25,2022_Aug_10_1435,ProdSingRedoBetween,2021.2.3,59.93982042
,,,,13,0,13,0,,,,,,,,,,,,,,,,,,,,,,906.824716,None,,,,,,,,,,,,,,,,,stand,147,14,silent,new,null,901.0911155,None,901.0911155,None,1,4.0652324,901.0911155,None,4.0652324,905.1833467,None,905.6903843,None,905.6903843,None,n,1.1138516,905.6903843,None,1.1138516,,,August10Silent3,25,2022_Aug_10_1435,ProdSingRedoBetween,2021.2.3,59.93982042
,,,,14,0,14,0,,,,,,,,,,,,,,,,,,,,,,917.5531142,None,,,,,,,,,,,,,,,,,afternoon,32,15,silent,old,blue,907.3340364,None,907.3340364,None,5,8.0784139,907.3340364,None,8.0784139,915.4404564,None,915.952117,None,915.952117,None,f,1.5721853,915.952117,None,1.5721853,,,August10Silent3,25,2022_Aug_10_1435,ProdSingRedoBetween,2021.2.3,59.93982042
,,,,15,0,15,0,,,,,,,,,,,,,,,,,,,,,,922.0116828,None,,,,,,,,,,,,,,,,,candidate,20,16,silent,old,yellow,918.0619015,None,918.0619015,None,1,1.9343683,918.0619015,None,1.9343683,920.0236004,None,920.5423832,None,920.5423832,None,n,1.4379504,920.5423832,None,1.4379504,,,August10Silent3,25,2022_Aug_10_1435,ProdSingRedoBetween,2021.2.3,59.93982042
,,,,16,0,16,0,,,,,,,,,,,,,,,,,,,,,,927.8957399,None,,,,,,,,,,,,,,,,,damage,121,17,silent,new,null,922.5311614,None,922.5311614,None,1,3.457321,922.5311614,None,3.457321,926.0162335,None,926.5279249,None,926.5279249,None,n,1.3483024,926.5279249,None,1.3483024,,,August10Silent3,25,2022_Aug_10_1435,ProdSingRedoBetween,2021.2.3,59.93982042
,,,,17,0,17,0,,,,,,,,,,,,,,,,,,,,,,935.8036618,None,,,,,,,,,,,,,,,,,display,98,18,silent,new,null,928.3993738,None,928.3993738,None,1,4.4048594,928.3993738,None,4.4048594,932.8361824,None,933.3513701,None,933.3513701,None,n,2.4368811,933.3513701,None,2.4368811,,,August10Silent3,25,2022_Aug_10_1435,ProdSingRedoBetween,2021.2.3,59.93982042
,,,,18,0,18,0,,,,,,,,,,,,,,,,,,,,,,941.125583,None,,,,,,,,,,,,,,,,,thick,127,19,silent,new,null,936.305566,None,936.305566,None,1,3.562847,936.305566,None,3.562847,939.898158,None,940.4123413,None,940.4123413,None,n,0.6879379,940.4123413,None,0.6879379,,,August10Silent3,25,2022_Aug_10_1435,ProdSingRedoBetween,2021.2.3,59.93982042
,,,,19,0,19,0,,,,,,,,,,,,,,,,,,,,,,948.1994418,None,,,,,,,,,,,,,,,,,discovery,167,20,silent,new,null,941.6380965,None,941.6380965,None,1,4.7343519,941.6380965,None,4.7343519,946.4042262,None,946.9149675,None,946.9149675,None,n,1.265361,946.9149675,None,1.265361,,,August10Silent3,25,2022_Aug_10_1435,ProdSingRedoBetween,2021.2.3,59.93982042
,,,,20,0,20,0,,,,,,,,,,,,,,,,,,,,,,954.5390473,None,,,,,,,,,,,,,,,,,benefit,173,21,silent,new,null,948.7068537,None,948.7068537,None,1,4.5293084,948.7068537,None,4.5293084,953.2574419,None,953.771715,None,953.771715,None,n,0.7524938,953.771715,None,0.7524938,,,August10Silent3,25,2022_Aug_10_1435,ProdSingRedoBetween,2021.2.3,59.93982042
,,,,21,0,21,0,,,,,,,,,,,,,,,,,,,,,,961.1122873,None,,,,,,,,,,,,,,,,,executive,35,22,silent,old,blue,955.0447185,None,955.0447185,None,1,4.7355819,955.0447185,None,4.7355819,959.8130252,None,960.3336472,None,960.3336472,None,n,0.7507043,960.3336472,None,0.7507043,,,August10Silent3,25,2022_Aug_10_1435,ProdSingRedoBetween,2021.2.3,59.93982042
,,,,22,0,22,0,,,,,,,,,,,,,,,,,,,,,,967.2184708,None,,,,,,,,,,,,,,,,,emergency,64,23,silent,old,red,961.6174671,None,961.6174671,None,5,3.3149575,961.6174671,None,3.3149575,964.9575091,None,965.4682046,None,965.4682046,None,r,1.7200983,965.4682046,None,1.7200983,,,August10Silent3,25,2022_Aug_10_1435,ProdSingRedoBetween,2021.2.3,59.93982042
,,,,23,0,23,0,,,,,,,,,,,,,,,,,,,,,,973.4925078,None,,,,,,,,,,,,,,,,,finish,171,24,silent,new,null,967.7280271,None,967.7280271,None,1,3.0602203,967.7280271,None,3.0602203,970.8065778,None,971.3060792,None,971.3060792,None,n,2.16224,971.3060792,None,2.16224,,,August10Silent3,25,2022_Aug_10_1435,ProdSingRedoBetween,2021.2.3,59.93982042
,,,,24,0,24,0,,,,,,,,,,,,,,,,,,,,,,979.0645968,None,,,,,,,,,,,,,,,,,count,166,25,silent,new,null,974.0072214,None,974.0072214,None,5,3.1010797,974.0072214,None,3.1010797,977.1282869,None,977.6290089,None,977.6290089,None,f,1.4073966,977.6290089,None,1.4073966,,,August10Silent3,25,2022_Aug_10_1435,ProdSingRedoBetween,2021.2.3,59.93982042
,,,,25,0,25,0,,,,,,,,,,,,,,,,,,,,,,987.7389778,None,,,,,,,,,,,,,,,,,people,154,26,silent,new,null,979.5685528,None,979.5685528,None,3,6.1077284,979.5685528,None,6.1077284,985.7054279,None,986.2292968,None,986.2292968,None,f,1.4949511,986.2292968,None,1.4949511,,,August10Silent3,25,2022_Aug_10_1435,ProdSingRedoBetween,2021.2.3,59.93982042
,,,,26,0,26,0,,,,,,,,,,,,,,,,,,,,,,995.5483812,None,,,,,,,,,,,,,,,,,attack,19,27,silent,old,yellow,988.2471055,None,988.2471055,None,1,5.6452335,988.2471055,None,5.6452335,993.9128718,None,994.4125308,None,994.4125308,None,n,1.1038046,994.4125308,None,1.1038046,,,August10Silent3,25,2022_Aug_10_1435,ProdSingRedoBetween,2021.2.3,59.93982042
,,,,27,0,27,0,,,,,,,,,,,,,,,,,,,,,,1006.691209,None,,,,,,,,,,,,,,,,,appearance,90,28,silent,new,null,996.0678956,None,996.0678956,None,1,8.8005024,996.0678956,None,8.8005024,1004.907377,None,1005.417615,None,1005.417615,None,n,1.2507219,1005.417615,None,1.2507219,,,August10Silent3,25,2022_Aug_10_1435,ProdSingRedoBetween,2021.2.3,59.93982042
,,,,28,0,28,0,,,,,,,,,,,,,,,,,,,,,,1010.211453,None,,,,,,,,,,,,,,,,,quick,103,29,silent,new,null,1007.201956,None,1007.201956,None,1,1.698409,1007.201956,None,1.698409,1008.931305,None,1009.450372,None,1009.450372,None,n,0.7379701,1009.450372,None,0.7379701,,,August10Silent3,25,2022_Aug_10_1435,ProdSingRedoBetween,2021.2.3,59.93982042
,,,,29,0,29,0,,,,,,,,,,,,,,,,,,,,,,1015.483281,None,,,,,,,,,,,,,,,,,judge,28,30,silent,old,yellow,1010.721111,None,1010.721111,None,1,3.667232,1010.721111,None,3.667232,1014.417567,None,1014.93411,None,1014.93411,None,n,0.52651,1014.93411,None,0.52651,,,August10Silent3,25,2022_Aug_10_1435,ProdSingRedoBetween,2021.2.3,59.93982042
,,,,30,0,30,0,,,,,,,,,,,,,,,,,,,,,,1020.757161,None,,,,,,,,,,,,,,,,,danger,12,31,silent,old,yellow,1015.992595,None,1015.992595,None,3,2.9798465,1015.992595,None,2.9798465,1019.003607,None,1019.508314,None,1019.508314,None,f,1.2240751,1019.508314,None,1.2240751,,,August10Silent3,25,2022_Aug_10_1435,ProdSingRedoBetween,2021.2.3,59.93982042
,,,,31,0,31,0,,,,,,,,,,,,,,,,,,,,,,1026.711267,None,,,,,,,,,,,,,,,,,universal,76,32,silent,old,red,1021.284622,None,1021.284622,None,1,3.5999144,1021.284622,None,3.5999144,1024.911548,None,1025.43281,None,1025.43281,None,n,1.2595957,1025.43281,None,1.2595957,,,August10Silent3,25,2022_Aug_10_1435,ProdSingRedoBetween,2021.2.3,59.93982042
,,,,32,0,32,0,,,,,,,,,,,,,,,,,,,,,,1030.582907,None,,,,,,,,,,,,,,,,,carry,141,33,silent,new,null,1027.211956,None,1027.211956,None,1,1.8563567,1027.211956,None,1.8563567,1029.100649,None,1029.616272,None,1029.616272,None,n,0.94024,1029.616272,None,0.94024,,,August10Silent3,25,2022_Aug_10_1435,ProdSingRedoBetween,2021.2.3,59.93982042
,,,,33,0,33,0,,,,,,,,,,,,,,,,,,,,,,1038.239457,None,,,,,,,,,,,,,,,,,cousin,18,34,silent,old,yellow,1031.085375,None,1031.085375,None,6,4.5590549,1031.085375,None,4.5590549,1035.674332,None,1036.192397,None,1036.192397,None,r,2.0281402,1036.192397,None,2.0281402,,,August10Silent3,25,2022_Aug_10_1435,ProdSingRedoBetween,2021.2.3,59.93982042
,,,,34,0,34,0,,,,,,,,,,,,,,,,,,,,,,1042.360229,None,,,,,,,,,,,,,,,,,owner,15,35,silent,old,yellow,1038.747031,None,1038.747031,None,1,2.3374065,1038.747031,None,2.3374065,1041.110161,None,1041.614055,None,1041.614055,None,n,0.726333,1041.614055,None,0.726333,,,August10Silent3,25,2022_Aug_10_1435,ProdSingRedoBetween,2021.2.3,59.93982042
,,,,35,0,35,0,,,,,,,,,,,,,,,,,,,,,,1048.619057,None,,,,,,,,,,,,,,,,,block,75,36,silent,old,red,1042.862985,None,1042.862985,None,6,3.5657736,1042.862985,None,3.5657736,1046.455881,None,1046.964856,None,1046.964856,None,r,1.6316335,1046.964856,None,1.6316335,,,August10Silent3,25,2022_Aug_10_1435,ProdSingRedoBetween,2021.2.3,59.93982042
,,,,36,0,36,0,,,,,,,,,,,,,,,,,,,,,,1052.954224,None,,,,,,,,,,,,,,,,,stranger,146,37,silent,new,null,1049.138965,None,1049.138965,None,1,1.9214599,1049.138965,None,1.9214599,1051.086896,None,1051.592624,None,1051.592624,None,n,1.3317995,1051.592624,None,1.3317995,,,August10Silent3,25,2022_Aug_10_1435,ProdSingRedoBetween,2021.2.3,59.93982042
,,,,37,0,37,0,,,,,,,,,,,,,,,,,,,,,,1062.847264,None,,,,,,,,,,,,,,,,,place,109,38,silent,new,null,1053.458454,None,1053.458454,None,5,7.3221152,1053.458454,None,7.3221152,1060.817591,None,1061.329255,None,1061.329255,None,f,1.4991306,1061.329255,None,1.4991306,,,August10Silent3,25,2022_Aug_10_1435,ProdSingRedoBetween,2021.2.3,59.93982042
,,,,38,0,38,0,,,,,,,,,,,,,,,,,,,,,,1066.834755,None,,,,,,,,,,,,,,,,,vision,125,39,silent,new,null,1063.355365,None,1063.355365,None,1,1.5289999,1063.355365,None,1.5289999,1064.917457,None,1065.416736,None,1065.416736,None,n,1.3877009,1065.416736,None,1.3877009,,,August10Silent3,25,2022_Aug_10_1435,ProdSingRedoBetween,2021.2.3,59.93982042
,,,,39,0,39,0,,,,,,,,,,,,,,,,,,,,,,1071.67288,None,,,,,,,,,,,,,,,,,solution,78,40,silent,old,red,1067.343303,None,1067.343303,None,1,2.533219,1067.343303,None,2.533219,1069.913218,None,1070.421795,None,1070.421795,None,n,1.2226297,1070.421795,None,1.2226297,,,August10Silent3,25,2022_Aug_10_1435,ProdSingRedoBetween,2021.2.3,59.93982042
,,,,40,0,40,0,,,,,,,,,,,,,,,,,,,,,,1076.427797,None,,,,,,,,,,,,,,,,,running,104,41,silent,new,null,1072.179501,None,1072.179501,None,1,2.5049476,1072.179501,None,2.5049476,1074.710133,None,1075.2172,None,1075.2172,None,n,1.1872428,1075.2172,None,1.1872428,,,August10Silent3,25,2022_Aug_10_1435,ProdSingRedoBetween,2021.2.3,59.93982042
,,,,41,0,41,0,,,,,,,,,,,,,,,,,,,,,,1084.402299,None,,,,,,,,,,,,,,,,,throw,39,42,silent,old,blue,1076.956073,None,1076.956073,None,2,5.1763083,1076.956073,None,5.1763083,1082.152309,None,1082.667473,None,1082.667473,None,n,1.7049651,1082.667473,None,1.7049651,,,August10Silent3,25,2022_Aug_10_1435,ProdSingRedoBetween,2021.2.3,59.93982042
,,,,42,0,42,0,,,,,,,,,,,,,,,,,,,,,,1090.341568,None,,,,,,,,,,,,,,,,,rural,53,43,silent,old,blue,1084.91062,None,1084.91062,None,1,3.5900294,1084.91062,None,3.5900294,1088.527749,None,1089.043125,None,1089.043125,None,n,1.281415,1089.043125,None,1.281415,,,August10Silent3,25,2022_Aug_10_1435,ProdSingRedoBetween,2021.2.3,59.93982042
,,,,43,0,43,0,,,,,,,,,,,,,,,,,,,,,,1098.399607,None,,,,,,,,,,,,,,,,,enemy,42,44,silent,old,blue,1090.856633,None,1090.856633,None,1,6.1078794,1090.856633,None,6.1078794,1096.982848,None,1097.482545,None,1097.482545,None,n,0.8898776,1097.482545,None,0.8898776,,,August10Silent3,25,2022_Aug_10_1435,ProdSingRedoBetween,2021.2.3,59.93982042
,,,,44,0,44,0,,,,,,,,,,,,,,,,,,,,,,1102.086703,None,,,,,,,,,,,,,,,,,taste,70,45,silent,old,red,1098.909585,None,1098.909585,None,1,1.9189411,1098.909585,None,1.9189411,1100.854519,None,1101.384082,None,1101.384082,None,n,0.6843704,1101.384082,None,0.6843704,,,August10Silent3,25,2022_Aug_10_1435,ProdSingRedoBetween,2021.2.3,59.93982042
,,,,45,0,45,0,,,,,,,,,,,,,,,,,,,,,,1105.723696,None,,,,,,,,,,,,,,,,,session,120,46,silent,new,null,1102.59388,None,1102.59388,None,1,2.1225975,1102.59388,None,2.1225975,1104.739205,None,1105.246719,None,1105.246719,None,n,0.4537579,1105.246719,None,0.4537579,,,August10Silent3,25,2022_Aug_10_1435,ProdSingRedoBetween,2021.2.3,59.93982042
,,,,46,0,46,0,,,,,,,,,,,,,,,,,,,,,,1119.937841,None,,,,,,,,,,,,,,,,,suggestion,177,47,silent,new,null,1106.242856,None,1106.242856,None,3,11.9936837,1106.242856,None,11.9936837,1118.254212,None,1118.754038,None,1118.754038,None,f,1.1544615,1118.754038,None,1.1544615,,,August10Silent3,25,2022_Aug_10_1435,ProdSingRedoBetween,2021.2.3,59.93982042
,,,,47,0,47,0,,,,,,,,,,,,,,,,,,,,,,1125.760301,None,,,,,,,,,,,,,,,,,instrument,52,48,silent,old,blue,1120.458217,None,1120.458217,None,6,2.8742883,1120.458217,None,2.8742883,1123.359214,None,1123.862863,None,1123.862863,None,f,1.8695875,1123.862863,None,1.8695875,,,August10Silent3,25,2022_Aug_10_1435,ProdSingRedoBetween,2021.2.3,59.93982042
,,,,48,0,48,0,,,,,,,,,,,,,,,,,,,,,,1129.997887,None,,,,,,,,,,,,,,,,,express,3,49,silent,old,yellow,1126.261015,None,1126.261015,None,1,1.9594925,1126.261015,None,1.9594925,1128.246059,None,1128.746785,None,1128.746785,None,n,1.233656,1128.746785,None,1.233656,,,August10Silent3,25,2022_Aug_10_1435,ProdSingRedoBetween,2021.2.3,59.93982042
,,,,49,0,49,0,,,,,,,,,,,,,,,,,,,,,,1134.902959,None,,,,,,,,,,,,,,,,,length,46,50,silent,old,blue,1130.505712,None,1130.505712,None,1,2.8989601,1130.505712,None,2.8989601,1133.434684,None,1133.937777,None,1133.937777,None,n,0.9467249,1133.937777,None,0.9467249,,,August10Silent3,25,2022_Aug_10_1435,ProdSingRedoBetween,2021.2.3,59.93982042
,,,,50,0,50,0,,,,,,,,,,,,,,,,,,,,,,1138.50643,None,,,,,,,,,,,,,,,,,piece,74,51,silent,old,red,1135.409823,None,1135.409823,None,1,1.8825982,1135.409823,None,1.8825982,1137.324367,None,1137.839257,None,1137.839257,None,n,0.6372821,1137.839257,None,0.6372821,,,August10Silent3,25,2022_Aug_10_1435,ProdSingRedoBetween,2021.2.3,59.93982042
,,,,51,0,51,0,,,,,,,,,,,,,,,,,,,,,,1143.377961,None,,,,,,,,,,,,,,,,,mankind,60,52,silent,old,red,1139.022992,None,1139.022992,None,6,2.5014712,1139.022992,None,2.5014712,1141.543594,None,1142.047483,None,1142.047483,None,r,1.3092299,1142.047483,None,1.3092299,,,August10Silent3,25,2022_Aug_10_1435,ProdSingRedoBetween,2021.2.3,59.93982042
,,,,52,0,52,0,,,,,,,,,,,,,,,,,,,,,,1149.000288,None,,,,,,,,,,,,,,,,,community,61,53,silent,old,red,1143.881976,None,1143.881976,None,6,3.0507323,1143.881976,None,3.0507323,1146.959336,None,1147.473575,None,1147.473575,None,r,1.4989195,1147.473575,None,1.4989195,,,August10Silent3,25,2022_Aug_10_1435,ProdSingRedoBetween,2021.2.3,59.93982042
,,,,53,0,53,0,,,,,,,,,,,,,,,,,,,,,,1153.640535,None,,,,,,,,,,,,,,,,,straight,155,54,silent,new,null,1149.514462,None,1149.514462,None,1,2.4500745,1149.514462,None,2.4500745,1151.989455,None,1152.50947,None,1152.50947,None,n,1.1110921,1152.50947,None,1.1110921,,,August10Silent3,25,2022_Aug_10_1435,ProdSingRedoBetween,2021.2.3,59.93982042
,,,,54,0,54,0,,,,,,,,,,,,,,,,,,,,,,1161.446162,None,,,,,,,,,,,,,,,,,worker,41,55,silent,old,blue,1154.160452,None,1154.160452,None,1,5.1880583,1154.160452,None,5.1880583,1159.378552,None,1159.882937,None,1159.882937,None,n,1.5375652,1159.882937,None,1.5375652,,,August10Silent3,25,2022_Aug_10_1435,ProdSingRedoBetween,2021.2.3,59.93982042
,,,,55,0,55,0,,,,,,,,,,,,,,,,,,,,,,1166.250741,None,,,,,,,,,,,,,,,,,south,131,56,silent,new,null,1161.95607,None,1161.95607,None,1,2.8244791,1161.95607,None,2.8244791,1164.801004,None,1165.307232,None,1165.307232,None,n,0.9133647,1165.307232,None,0.9133647,,,August10Silent3,25,2022_Aug_10_1435,ProdSingRedoBetween,2021.2.3,59.93982042
,,,,56,0,56,0,,,,,,,,,,,,,,,,,,,,,,1169.523109,None,,,,,,,,,,,,,,,,,marriage,133,57,silent,new,null,1166.760369,None,1166.760369,None,1,1.7321523,1166.760369,None,1.7321523,1168.52202,None,1169.038274,None,1169.038274,None,n,0.4624184,1169.038274,None,0.4624184,,,August10Silent3,25,2022_Aug_10_1435,ProdSingRedoBetween,2021.2.3,59.93982042
,,,,57,0,57,0,,,,,,,,,,,,,,,,,,,,,,1176.06068,None,,,,,,,,,,,,,,,,,bureau,10,58,silent,old,yellow,1170.041813,None,1170.041813,None,5,4.0749388,1170.041813,None,4.0749388,1174.143804,None,1174.659411,None,1174.659411,None,f,1.3851615,1174.659411,None,1.3851615,,,August10Silent3,25,2022_Aug_10_1435,ProdSingRedoBetween,2021.2.3,59.93982042
,,,,58,0,58,0,,,,,,,,,,,,,,,,,,,,,,1181.585486,None,,,,,,,,,,,,,,,,,agreement,128,59,silent,new,null,1176.568608,None,1176.568608,None,1,3.3079616,1176.568608,None,3.3079616,1179.899555,None,1180.415114,None,1180.415114,None,n,1.1495801,1180.415114,None,1.1495801,,,August10Silent3,25,2022_Aug_10_1435,ProdSingRedoBetween,2021.2.3,59.93982042
,,,,59,0,59,0,,,,,,,,,,,,,,,,,,,,,,1199.033608,None,,,,,,,,,,,,,,,,,substance,27,60,silent,old,yellow,1182.104724,None,1182.104724,None,1,15.2518237,1182.104724,None,15.2518237,1197.38575,None,1197.901823,None,1197.901823,None,n,1.1028506,1197.901823,None,1.1028506,,,August10Silent3,25,2022_Aug_10_1435,ProdSingRedoBetween,2021.2.3,59.93982042
,,,,60,0,60,0,,,,,,,,,,,,,,,,,,,,,,1204.572565,None,,,,,,,,,,,,,,,,,debate,86,61,silent,old,red,1199.550574,None,1199.550574,None,3,3.6061494,1199.550574,None,3.6061494,1203.187809,None,1203.691435,None,1203.691435,None,f,0.8651863,1203.691435,None,0.8651863,,,August10Silent3,25,2022_Aug_10_1435,ProdSingRedoBetween,2021.2.3,59.93982042
,,,,61,0,61,0,,,,,,,,,,,,,,,,,,,,,,1207.759178,None,,,,,,,,,,,,,,,,,quiet,135,62,silent,new,null,1205.081618,None,1205.081618,None,1,1.8429294,1205.081618,None,1.8429294,1206.942959,None,1207.445089,None,1207.445089,None,n,0.2954924,1207.445089,None,0.2954924,,,August10Silent3,25,2022_Aug_10_1435,ProdSingRedoBetween,2021.2.3,59.93982042
,,,,62,0,62,0,,,,,,,,,,,,,,,,,,,,,,1212.780712,None,,,,,,,,,,,,,,,,,measure,123,63,silent,new,null,1208.266138,None,1208.266138,None,1,3.5705143,1208.266138,None,3.5705143,1211.865182,None,1212.38548,None,1212.38548,None,n,0.3792195,1212.38548,None,0.3792195,,,August10Silent3,25,2022_Aug_10_1435,ProdSingRedoBetween,2021.2.3,59.93982042
,,,,63,0,63,0,,,,,,,,,,,,,,,,,,,,,,1216.734644,None,,,,,,,,,,,,,,,,,partner,105,64,silent,new,null,1213.28765,None,1213.28765,None,1,2.3409655,1213.28765,None,2.3409655,1215.651386,None,1216.15084,None,1216.15084,None,n,0.5577319,1216.15084,None,0.5577319,,,August10Silent3,25,2022_Aug_10_1435,ProdSingRedoBetween,2021.2.3,59.93982042
,,,,64,0,64,0,,,,,,,,,,,,,,,,,,,,,,1220.522858,None,,,,,,,,,,,,,,,,,period,101,65,silent,new,null,1217.235221,None,1217.235221,None,1,2.2494731,1217.235221,None,2.2494731,1219.509078,None,1220.025321,None,1220.025321,None,n,0.4674471,1220.025321,None,0.4674471,,,August10Silent3,25,2022_Aug_10_1435,ProdSingRedoBetween,2021.2.3,59.93982042
,,,,65,0,65,0,,,,,,,,,,,,,,,,,,,,,,1226.027322,None,,,,,,,,,,,,,,,,,scale,77,66,silent,old,red,1221.033057,None,1221.033057,None,3,3.5635696,1221.033057,None,3.5635696,1224.626622,None,1225.131028,None,1225.131028,None,f,0.865596,1225.131028,None,0.865596,,,August10Silent3,25,2022_Aug_10_1435,ProdSingRedoBetween,2021.2.3,59.93982042
,,,,66,0,66,0,,,,,,,,,,,,,,,,,,,,,,1233.801743,None,,,,,,,,,,,,,,,,,swift,11,67,silent,old,yellow,1226.539035,None,1226.539035,None,3,6.1696018,1226.539035,None,6.1696018,1232.735067,None,1233.238713,None,1233.238713,None,f,0.5339817,1233.238713,None,0.5339817,,,August10Silent3,25,2022_Aug_10_1435,ProdSingRedoBetween,2021.2.3,59.93982042
,,,,67,0,67,0,,,,,,,,,,,,,,,,,,,,,,1241.426082,None,,,,,,,,,,,,,,,,,trial,100,68,silent,new,null,1234.305025,None,1234.305025,None,3,6.0117284,1234.305025,None,6.0117284,1240.349178,None,1240.861603,None,1240.861603,None,f,0.5352829,1240.861603,None,0.5352829,,,August10Silent3,25,2022_Aug_10_1435,ProdSingRedoBetween,2021.2.3,59.93982042
,,,,68,0,68,0,,,,,,,,,,,,,,,,,,,,,,1252.42123,None,,,,,,,,,,,,,,,,,guard,84,69,silent,old,red,1241.939292,None,1241.939292,None,3,9.5933657,1241.939292,None,9.5933657,1251.55376,None,1252.055273,None,1252.055273,None,f,0.3492922,1252.055273,None,0.3492922,,,August10Silent3,25,2022_Aug_10_1435,ProdSingRedoBetween,2021.2.3,59.93982042
,,,,69,0,69,0,,,,,,,,,,,,,,,,,,,,,,1260.91221,None,,,,,,,,,,,,,,,,,music,144,70,silent,new,null,1252.927382,None,1252.927382,None,3,6.4852059,1252.927382,None,6.4852059,1259.427267,None,1259.930012,None,1259.930012,None,f,0.9546045,1259.930012,None,0.9546045,,,August10Silent3,25,2022_Aug_10_1435,ProdSingRedoBetween,2021.2.3,59.93982042
,,,,70,0,70,0,,,,,,,,,,,,,,,,,,,,,,1269.053704,None,,,,,,,,,,,,,,,,,rough,72,71,silent,old,red,1261.420978,None,1261.420978,None,1,6.4477495,1261.420978,None,6.4477495,1267.892339,None,1268.404163,None,1268.404163,None,n,0.624508,1268.404163,None,0.624508,,,August10Silent3,25,2022_Aug_10_1435,ProdSingRedoBetween,2021.2.3,59.93982042
,,,,71,0,71,0,,,,,,,,,,,,,,,,,,,,,,1276.377644,None,,,,,,,,,,,,,,,,,meeting,26,72,silent,old,yellow,1269.563153,None,1269.563153,None,4,5.1374148,1269.563153,None,5.1374148,1274.726664,None,1275.226639,None,1275.226639,None,f,1.1221198,1275.226639,None,1.1221198,,,August10Silent3,25,2022_Aug_10_1435,ProdSingRedoBetween,2021.2.3,59.93982042
,,,,72,0,72,0,,,,,,,,,,,,,,,,,,,,,,1279.598472,None,,,,,,,,,,,,,,,,,volume,73,73,silent,old,red,1276.878402,None,1276.878402,None,1,1.7503154,1276.878402,None,1.7503154,1278.650279,None,1279.166819,None,1279.166819,None,n,0.4138791,1279.166819,None,0.4138791,,,August10Silent3,25,2022_Aug_10_1435,ProdSingRedoBetween,2021.2.3,59.93982042
,,,,73,0,73,0,,,,,,,,,,,,,,,,,,,,,,1288.473156,None,,,,,,,,,,,,,,,,,tough,57,74,silent,old,blue,1280.099398,None,1280.099398,None,3,7.065188,1280.099398,None,7.065188,1287.193366,None,1287.705956,None,1287.705956,None,f,0.7387632,1287.705956,None,0.7387632,,,August10Silent3,25,2022_Aug_10_1435,ProdSingRedoBetween,2021.2.3,59.93982042
,,,,74,0,74,0,,,,,,,,,,,,,,,,,,,,,,1298.434518,None,,,,,,,,,,,,,,,,,member,92,75,silent,new,null,1288.976248,None,1288.976248,None,5,7.7247304,1288.976248,None,7.7247304,1296.740541,None,1297.25,None,1297.25,None,r,1.1628127,1297.25,None,1.1628127,,,August10Silent3,25,2022_Aug_10_1435,ProdSingRedoBetween,2021.2.3,59.93982042
,,,,75,0,75,0,,,,,,,,,,,,,,,,,,,,,,1303.755012,None,,,,,,,,,,,,,,,,,primary,151,76,silent,new,null,1298.940807,None,1298.940807,None,1,2.8559439,1298.940807,None,2.8559439,1301.821044,None,1302.324882,None,1302.324882,None,n,1.4078496,1302.324882,None,1.4078496,,,August10Silent3,25,2022_Aug_10_1435,ProdSingRedoBetween,2021.2.3,59.93982042
,,,,76,0,76,0,,,,,,,,,,,,,,,,,,,,,,1308.659939,None,,,,,,,,,,,,,,,,,phrase,106,77,silent,new,null,1304.258596,None,1304.258596,None,1,2.8341144,1304.258596,None,2.8341144,1307.110722,None,1307.629976,None,1307.629976,None,n,1.014762,1307.629976,None,1.014762,,,August10Silent3,25,2022_Aug_10_1435,ProdSingRedoBetween,2021.2.3,59.93982042
,,,,77,0,77,0,,,,,,,,,,,,,,,,,,,,,,1313.881881,None,,,,,,,,,,,,,,,,,present,149,78,silent,new,null,1309.167658,None,1309.167658,None,1,3.3410177,1309.167658,None,3.3410177,1312.531658,None,1313.033379,None,1313.033379,None,n,0.8273681,1313.033379,None,0.8273681,,,August10Silent3,25,2022_Aug_10_1435,ProdSingRedoBetween,2021.2.3,59.93982042
,,,,78,0,78,0,,,,,,,,,,,,,,,,,,,,,,1321.128806,None,,,,,,,,,,,,,,,,,track,169,79,silent,new,null,1314.389179,None,1314.389179,None,3,5.815507,1314.389179,None,5.815507,1320.222807,None,1320.722072,None,1320.722072,None,f,0.3706815,1320.722072,None,0.3706815,,,August10Silent3,25,2022_Aug_10_1435,ProdSingRedoBetween,2021.2.3,59.93982042
,,,,79,0,79,0,,,,,,,,,,,,,,,,,,,,,,1328.16276,None,,,,,,,,,,,,,,,,,balance,9,80,silent,old,yellow,1321.639578,None,1321.639578,None,1,4.8451237,1321.639578,None,4.8451237,1326.512065,None,1327.016819,None,1327.016819,None,n,1.1239012,1327.016819,None,1.1239012,,,August10Silent3,25,2022_Aug_10_1435,ProdSingRedoBetween,2021.2.3,59.93982042
,,,,80,0,80,0,,,,,,,,,,,,,,,,,,,,,,1334.135455,None,,,,,,,,,,,,,,,,,production,69,81,silent,old,red,1328.669922,None,1328.669922,None,1,4.0948623,1328.669922,None,4.0948623,1332.787471,None,1333.301476,None,1333.301476,None,n,0.8073132,1333.301476,None,0.8073132,,,August10Silent3,25,2022_Aug_10_1435,ProdSingRedoBetween,2021.2.3,59.93982042
,,,,81,0,81,0,,,,,,,,,,,,,,,,,,,,,,1338.706686,None,,,,,,,,,,,,,,,,,waste,47,82,silent,old,blue,1334.638601,None,1334.638601,None,6,2.2940932,1334.638601,None,2.2940932,1336.959966,None,1337.472265,None,1337.472265,None,r,1.2125173,1337.472265,None,1.2125173,,,August10Silent3,25,2022_Aug_10_1435,ProdSingRedoBetween,2021.2.3,59.93982042
,,,,82,0,82,0,,,,,,,,,,,,,,,,,,,,,,1342.510513,None,,,,,,,,,,,,,,,,,tragedy,136,83,silent,new,null,1339.210106,None,1339.210106,None,6,2.202851,1339.210106,None,2.202851,1341.448244,None,1341.963834,None,1341.963834,None,r,0.5211083,1341.963834,None,0.5211083,,,August10Silent3,25,2022_Aug_10_1435,ProdSingRedoBetween,2021.2.3,59.93982042
,,,,83,0,83,0,,,,,,,,,,,,,,,,,,,,,,1348.166112,None,,,,,,,,,,,,,,,,,cover,55,84,silent,old,blue,1343.013978,None,1343.013978,None,3,3.9508738,1343.013978,None,3.9508738,1346.991206,None,1347.498889,None,1347.498889,None,f,0.6419697,1347.498889,None,0.6419697,,,August10Silent3,25,2022_Aug_10_1435,ProdSingRedoBetween,2021.2.3,59.93982042
,,,,84,0,84,0,,,,,,,,,,,,,,,,,,,,,,1354.089441,None,,,,,,,,,,,,,,,,,store,82,85,silent,old,red,1348.676035,None,1348.676035,None,3,4.4007427,1348.676035,None,4.4007427,1353.110319,None,1353.628371,None,1353.628371,None,f,0.4324373,1353.628371,None,0.4324373,,,August10Silent3,25,2022_Aug_10_1435,ProdSingRedoBetween,2021.2.3,59.93982042
,,,,85,0,85,0,,,,,,,,,,,,,,,,,,,,,,1360.812159,None,,,,,,,,,,,,,,,,,territory,62,86,silent,old,red,1354.592187,None,1354.592187,None,5,3.8846782,1354.592187,None,3.8846782,1358.500455,None,1359.015667,None,1359.015667,None,r,1.7811062,1359.015667,None,1.7811062,,,August10Silent3,25,2022_Aug_10_1435,ProdSingRedoBetween,2021.2.3,59.93982042
,,,,86,0,86,0,,,,,,,,,,,,,,,,,,,,,,1371.14446,None,,,,,,,,,,,,,,,,,background,17,87,silent,old,yellow,1361.32085,None,1361.32085,None,1,5.1399717,1361.32085,None,5.1399717,1366.487445,None,1367.001893,None,1367.001893,None,n,4.1151746,1367.001893,None,4.1151746,,,August10Silent3,25,2022_Aug_10_1435,ProdSingRedoBetween,2021.2.3,59.93982042
,,,,87,0,87,0,,,,,,,,,,,,,,,,,,,,,,1377.261784,None,,,,,,,,,,,,,,,,,surface,0,88,silent,old,yellow,1371.664391,None,1371.664391,None,1,4.5724449,1371.664391,None,4.5724449,1376.262836,None,1376.778312,None,1376.778312,None,n,0.4664269,1376.778312,None,0.4664269,,,August10Silent3,25,2022_Aug_10_1435,ProdSingRedoBetween,2021.2.3,59.93982042
,,,,88,0,88,0,,,,,,,,,,,,,,,,,,,,,,1382.93425,None,,,,,,,,,,,,,,,,,second,40,89,silent,old,blue,1377.763865,None,1377.763865,None,6,2.8250091,1377.763865,None,2.8250091,1380.622468,None,1381.132649,None,1381.132649,None,r,1.7760791,1381.132649,None,1.7760791,,,August10Silent3,25,2022_Aug_10_1435,ProdSingRedoBetween,2021.2.3,59.93982042
,,,,89,0,89,0,,,,,,,,,,,,,,,,,,,,,,1387.83919,None,,,,,,,,,,,,,,,,,evidence,6,90,silent,old,yellow,1383.435026,None,1383.435026,None,1,2.4257611,1383.435026,None,2.4257611,1385.88902,None,1386.404545,None,1386.404545,None,n,1.4082424,1386.404545,None,1.4082424,,,August10Silent3,25,2022_Aug_10_1435,ProdSingRedoBetween,2021.2.3,59.93982042
,,,,90,0,90,0,,,,,,,,,,,,,,,,,,,,,,1395.780445,None,,,,,,,,,,,,,,,,,corner,29,91,silent,old,blue,1388.348381,None,1388.348381,None,1,4.1044893,1388.348381,None,4.1044893,1392.484264,None,1392.995522,None,1392.995522,None,n,2.7613093,1392.995522,None,2.7613093,,,August10Silent3,25,2022_Aug_10_1435,ProdSingRedoBetween,2021.2.3,59.93982042
,,,,91,0,91,0,,,,,,,,,,,,,,,,,,,,,,1401.836437,None,,,,,,,,,,,,,,,,,crisis,124,92,silent,new,null,1396.290019,None,1396.290019,None,4,3.7548318,1396.290019,None,3.7548318,1400.069204,None,1400.574132,None,1400.574132,None,f,1.2387101,1400.574132,None,1.2387101,,,August10Silent3,25,2022_Aug_10_1435,ProdSingRedoBetween,2021.2.3,59.93982042
,,,,92,0,92,0,,,,,,,,,,,,,,,,,,,,,,1406.942686,None,,,,,,,,,,,,,,,,,title,8,93,silent,old,yellow,1402.344099,None,1402.344099,None,6,2.5248102,1402.344099,None,2.5248102,1404.894231,None,1405.406963,None,1405.406963,None,r,1.5098152,1405.406963,None,1.5098152,,,August10Silent3,25,2022_Aug_10_1435,ProdSingRedoBetween,2021.2.3,59.93982042
,,,,93,0,93,0,,,,,,,,,,,,,,,,,,,,,,1414.082056,None,,,,,,,,,,,,,,,,,department,102,94,silent,new,null,1407.446928,None,1407.446928,None,4,4.8058912,1407.446928,None,4.8058912,1412.281046,None,1412.785889,None,1412.785889,None,f,1.2670253,1412.785889,None,1.2670253,,,August10Silent3,25,2022_Aug_10_1435,ProdSingRedoBetween,2021.2.3,59.93982042
,,,,94,0,94,0,,,,,,,,,,,,,,,,,,,,,,1417.802328,None,,,,,,,,,,,,,,,,,religion,44,95,silent,old,blue,1414.588566,None,1414.588566,None,6,1.9442043,1414.588566,None,1.9442043,1416.55208,None,1417.054374,None,1417.054374,None,r,0.726667,1417.054374,None,0.726667,,,August10Silent3,25,2022_Aug_10_1435,ProdSingRedoBetween,2021.2.3,59.93982042
,,,,95,0,95,0,,,,,,,,,,,,,,,,,,,,,,1425.193157,None,,,,,,,,,,,,,,,,,whole,49,96,silent,old,blue,1418.314486,None,1418.314486,None,1,4.9543975,1418.314486,None,4.9543975,1423.292354,None,1423.794689,None,1423.794689,None,n,1.3701743,1423.794689,None,1.3701743,,,August10Silent3,25,2022_Aug_10_1435,ProdSingRedoBetween,2021.2.3,59.93982042
,,,,96,0,96,0,,,,,,,,,,,,,,,,,,,,,,1434.602567,None,,,,,,,,,,,,,,,,,conference,143,97,silent,new,null,1425.700714,None,1425.700714,None,3,7.9682651,1425.700714,None,7.9682651,1433.687098,None,1434.202151,None,1434.202151,None,f,0.3787345,1434.202151,None,0.3787345,,,August10Silent3,25,2022_Aug_10_1435,ProdSingRedoBetween,2021.2.3,59.93982042
,,,,97,0,97,0,,,,,,,,,,,,,,,,,,,,,,1440.425114,None,,,,,,,,,,,,,,,,,equipment,66,98,silent,old,red,1435.113558,None,1435.113558,None,1,4.259307,1435.113558,None,4.259307,1439.395245,None,1439.911913,None,1439.911913,None,n,0.4930709,1439.911913,None,0.4930709,,,August10Silent3,25,2022_Aug_10_1435,ProdSingRedoBetween,2021.2.3,59.93982042
,,,,98,0,98,0,,,,,,,,,,,,,,,,,,,,,,1444.796995,None,,,,,,,,,,,,,,,,,break,153,99,silent,new,null,1440.93522,None,1440.93522,None,1,2.1656953,1440.93522,None,2.1656953,1443.131106,None,1443.645176,None,1443.645176,None,n,1.1358648,1443.645176,None,1.1358648,,,August10Silent3,25,2022_Aug_10_1435,ProdSingRedoBetween,2021.2.3,59.93982042
,,,,99,0,99,0,,,,,,,,,,,,,,,,,,,,,,1451.310737,None,,,,,,,,,,,,,,,,,agency,24,100,silent,old,yellow,1445.312795,None,1445.312795,None,3,5.0521268,1445.312795,None,5.0521268,1450.390513,None,1450.902377,None,1450.902377,None,f,0.374487,1450.902377,None,0.374487,,,August10Silent3,25,2022_Aug_10_1435,ProdSingRedoBetween,2021.2.3,59.93982042
,,,,100,0,100,0,,,,,,,,,,,,,,,,,,,,,,1455.223088,None,,,,,,,,,,,,,,,,,relation,139,101,silent,new,null,1451.824868,None,1451.824868,None,1,2.316132,1451.824868,None,2.316132,1454.177457,None,1454.690839,None,1454.690839,None,n,0.5060856,1454.690839,None,0.5060856,,,August10Silent3,25,2022_Aug_10_1435,ProdSingRedoBetween,2021.2.3,59.93982042
,,,,101,0,101,0,,,,,,,,,,,,,,,,,,,,,,1460.628439,None,,,,,,,,,,,,,,,,,property,67,102,silent,old,red,1455.73503,None,1455.73503,None,3,3.9740374,1455.73503,None,3.9740374,1459.735933,None,1460.245102,None,1460.245102,None,f,0.3678359,1460.245102,None,0.3678359,,,August10Silent3,25,2022_Aug_10_1435,ProdSingRedoBetween,2021.2.3,59.93982042
,,,,102,0,102,0,,,,,,,,,,,,,,,,,,,,,,1467.487352,None,,,,,,,,,,,,,,,,,sweet,148,103,silent,new,null,1461.139957,None,1461.139957,None,1,3.5529453,1461.139957,None,3.5529453,1464.719125,None,1465.236385,None,1465.236385,None,n,2.2244179,1465.236385,None,2.2244179,,,August10Silent3,25,2022_Aug_10_1435,ProdSingRedoBetween,2021.2.3,59.93982042
,,,,103,0,103,0,,,,,,,,,,,,,,,,,,,,,,1474.008733,None,,,,,,,,,,,,,,,,,clean,129,104,silent,new,null,1468.013382,None,1468.013382,None,1,5.1035488,1468.013382,None,5.1035488,1473.143015,None,1473.660708,None,1473.660708,None,n,0.328212,1473.660708,None,0.328212,,,August10Silent3,25,2022_Aug_10_1435,ProdSingRedoBetween,2021.2.3,59.93982042
,,,,104,0,104,0,,,,,,,,,,,,,,,,,,,,,,1476.878231,None,,,,,,,,,,,,,,,,,disease,96,105,silent,new,null,1474.527134,None,1474.527134,None,1,1.7337257,1474.527134,None,1.7337257,1476.282467,None,1476.795007,None,1476.795007,None,n,0.0579582,1476.795007,None,0.0579582,,,August10Silent3,25,2022_Aug_10_1435,ProdSingRedoBetween,2021.2.3,59.93982042
,,,,105,0,105,0,,,,,,,,,,,,,,,,,,,,,,1483.251307,None,,,,,,,,,,,,,,,,,testimony,138,106,silent,new,null,1477.388736,None,1477.388736,None,4,4.4644975,1477.388736,None,4.4644975,1481.889934,None,1482.403532,None,1482.403532,None,f,0.8254288,1482.403532,None,0.8254288,,,August10Silent3,25,2022_Aug_10_1435,ProdSingRedoBetween,2021.2.3,59.93982042
,,,,106,0,106,0,,,,,,,,,,,,,,,,,,,,,,1488.25624,None,,,,,,,,,,,,,,,,,sound,45,107,silent,old,blue,1483.760256,None,1483.760256,None,3,3.1247288,1483.760256,None,3.1247288,1486.910762,None,1487.42504,None,1487.42504,None,f,0.8119289,1487.42504,None,0.8119289,,,August10Silent3,25,2022_Aug_10_1435,ProdSingRedoBetween,2021.2.3,59.93982042
,,,,107,0,107,0,,,,,,,,,,,,,,,,,,,,,,1491.476185,None,,,,,,,,,,,,,,,,,dozen,179,108,silent,new,null,1488.780152,None,1488.780152,None,1,1.728995,1488.780152,None,1.728995,1490.526302,None,1491.030012,None,1491.030012,None,n,0.4309369,1491.030012,None,0.4309369,,,August10Silent3,25,2022_Aug_10_1435,ProdSingRedoBetween,2021.2.3,59.93982042
,,,,108,0,108,0,,,,,,,,,,,,,,,,,,,,,,1494.912983,None,,,,,,,,,,,,,,,,,front,91,109,silent,new,null,1491.988072,None,1491.988072,None,1,2.1449274,1491.988072,None,2.1449274,1494.16492,None,1494.679497,None,1494.679497,None,n,0.2054244,1494.679497,None,0.2054244,,,August10Silent3,25,2022_Aug_10_1435,ProdSingRedoBetween,2021.2.3,59.93982042
,,,,109,0,109,0,,,,,,,,,,,,,,,,,,,,,,1503.771782,None,,,,,,,,,,,,,,,,,sleep,81,110,silent,old,red,1495.421402,None,1495.421402,None,1,7.2555185,1495.421402,None,7.2555185,1502.705974,None,1503.231139,None,1503.231139,None,n,0.5099087,1503.231139,None,0.5099087,,,August10Silent3,25,2022_Aug_10_1435,ProdSingRedoBetween,2021.2.3,59.93982042
,,,,110,0,110,0,,,,,,,,,,,,,,,,,,,,,,1511.396874,None,,,,,,,,,,,,,,,,,suspect,137,111,silent,new,null,1504.280949,None,1504.280949,None,1,5.4199929,1504.280949,None,5.4199929,1509.728693,None,1510.233315,None,1510.233315,None,n,1.1318245,1510.233315,None,1.1318245,,,August10Silent3,25,2022_Aug_10_1435,ProdSingRedoBetween,2021.2.3,59.93982042
,,,,111,0,111,0,,,,,,,,,,,,,,,,,,,,,,1515.187487,None,,,,,,,,,,,,,,,,,detective,30,112,silent,old,blue,1511.900685,None,1511.900685,None,3,2.4083145,1511.900685,None,2.4083145,1514.335299,None,1514.849702,None,1514.849702,None,f,0.3152832,1514.849702,None,0.3152832,,,August10Silent3,25,2022_Aug_10_1435,ProdSingRedoBetween,2021.2.3,59.93982042
,,,,112,0,112,0,,,,,,,,,,,,,,,,,,,,,,1523.675041,None,,,,,,,,,,,,,,,,,nature,4,113,silent,old,yellow,1515.704365,None,1515.704365,None,1,6.548647,1515.704365,None,6.548647,1522.273659,None,1522.776697,None,1522.776697,None,n,0.8763011,1522.776697,None,0.8763011,,,August10Silent3,25,2022_Aug_10_1435,ProdSingRedoBetween,2021.2.3,59.93982042
,,,,113,0,113,0,,,,,,,,,,,,,,,,,,,,,,1527.495594,None,,,,,,,,,,,,,,,,,novel,36,114,silent,old,blue,1524.178751,None,1524.178751,None,1,2.3062074,1524.178751,None,2.3062074,1526.51245,None,1527.019251,None,1527.019251,None,n,0.457684,1527.019251,None,0.457684,,,August10Silent3,25,2022_Aug_10_1435,ProdSingRedoBetween,2021.2.3,59.93982042
,,,,114,0,114,0,,,,,,,,,,,,,,,,,,,,,,1530.765359,None,,,,,,,,,,,,,,,,,cross,161,115,silent,new,null,1527.996163,None,1527.996163,None,1,1.8808682,1527.996163,None,1.8808682,1529.898708,None,1530.405072,None,1530.405072,None,n,0.3359813,1530.405072,None,0.3359813,,,August10Silent3,25,2022_Aug_10_1435,ProdSingRedoBetween,2021.2.3,59.93982042
,,,,115,0,115,0,,,,,,,,,,,,,,,,,,,,,,1533.468134,None,,,,,,,,,,,,,,,,,union,172,116,silent,new,null,1531.271956,None,1531.271956,None,1,1.4769925,1531.271956,None,1.4769925,1532.76838,None,1533.268127,None,1533.268127,None,n,0.1689983,1533.268127,None,0.1689983,,,August10Silent3,25,2022_Aug_10_1435,ProdSingRedoBetween,2021.2.3,59.93982042
,,,,116,0,116,0,,,,,,,,,,,,,,,,,,,,,,1538.224925,None,,,,,,,,,,,,,,,,,appeal,83,117,silent,old,red,1533.978211,None,1533.978211,None,2,3.3468179,1533.978211,None,3.3468179,1537.357088,None,1537.875858,None,1537.875858,None,n,0.3212853,1537.875858,None,0.3212853,,,August10Silent3,25,2022_Aug_10_1435,ProdSingRedoBetween,2021.2.3,59.93982042
,,,,117,0,117,0,,,,,,,,,,,,,,,,,,,,,,1542.260329,None,,,,,,,,,,,,,,,,,recall,107,118,silent,new,null,1538.748333,None,1538.748333,None,1,2.6086983,1538.748333,None,2.6086983,1541.377818,None,1541.894261,None,1541.894261,None,n,0.3507167,1541.894261,None,0.3507167,,,August10Silent3,25,2022_Aug_10_1435,ProdSingRedoBetween,2021.2.3,59.93982042
,,,,118,0,118,0,,,,,,,,,,,,,,,,,,,,,,1545.079827,None,,,,,,,,,,,,,,,,,shear,38,119,silent,old,blue,1542.76373,None,1542.76373,None,1,1.4493599,1542.76373,None,1.4493599,1544.236649,None,1544.749613,None,1544.749613,None,n,0.3034077,1544.749613,None,0.3034077,,,August10Silent3,25,2022_Aug_10_1435,ProdSingRedoBetween,2021.2.3,59.93982042
,,,,119,0,119,0,,,,,,,,,,,,,,,,,,,,,,1550.368432,None,,,,,,,,,,,,,,,,,article,163,120,silent,new,null,1545.589208,None,1545.589208,None,1,3.8639527,1545.589208,None,3.8639527,1549.484769,None,1549.988429,None,1549.988429,None,n,0.3606913,1549.988429,None,0.3606913,,,August10Silent3,25,2022_Aug_10_1435,ProdSingRedoBetween,2021.2.3,59.93982042
,,,,120,0,120,0,,,,,,,,,,,,,,,,,,,,,,1557.10833,None,,,,,,,,,,,,,,,,,working,112,121,silent,new,null,1550.879487,None,1550.879487,None,3,4.8694531,1550.879487,None,4.8694531,1555.773994,None,1556.274466,None,1556.274466,None,f,0.8104819,1556.274466,None,0.8104819,,,August10Silent3,25,2022_Aug_10_1435,ProdSingRedoBetween,2021.2.3,59.93982042
,,,,121,0,121,0,,,,,,,,,,,,,,,,,,,,,,1563.414797,None,,,,,,,,,,,,,,,,,motion,156,122,silent,new,null,1557.609053,None,1557.609053,None,1,4.8360228,1557.609053,None,4.8360228,1562.465561,None,1562.981181,None,1562.981181,None,n,0.4158268,1562.981181,None,0.4158268,,,August10Silent3,25,2022_Aug_10_1435,ProdSingRedoBetween,2021.2.3,59.93982042
,,,,122,0,122,0,,,,,,,,,,,,,,,,,,,,,,1568.40289,None,,,,,,,,,,,,,,,,,device,119,123,silent,new,null,1563.929981,None,1563.929981,None,1,2.5071515,1563.929981,None,2.5071515,1566.469613,None,1566.98496,None,1566.98496,None,n,1.3880412,1566.98496,None,1.3880412,,,August10Silent3,25,2022_Aug_10_1435,ProdSingRedoBetween,2021.2.3,59.93982042
,,,,123,0,123,0,,,,,,,,,,,,,,,,,,,,,,1573.860202,None,,,,,,,,,,,,,,,,,smell,111,124,silent,new,null,1568.903585,None,1568.903585,None,5,3.0614285,1568.903585,None,3.0614285,1571.993635,None,1572.507185,None,1572.507185,None,r,1.3217946,1572.507185,None,1.3217946,,,August10Silent3,25,2022_Aug_10_1435,ProdSingRedoBetween,2021.2.3,59.93982042
,,,,124,0,124,0,,,,,,,,,,,,,,,,,,,,,,1577.612092,None,,,,,,,,,,,,,,,,,concern,142,125,silent,new,null,1574.370258,None,1574.370258,None,1,2.2189699,1574.370258,None,2.2189699,1576.614126,None,1577.128867,None,1577.128867,None,n,0.4523561,1577.128867,None,0.4523561,,,August10Silent3,25,2022_Aug_10_1435,ProdSingRedoBetween,2021.2.3,59.93982042
,,,,125,0,125,0,,,,,,,,,,,,,,,,,,,,,,1582.083526,None,,,,,,,,,,,,,,,,,death,7,126,silent,old,yellow,1578.120756,None,1578.120756,None,1,2.4363584,1578.120756,None,2.4363584,1580.587556,None,1581.099381,None,1581.099381,None,n,0.9537413,1581.099381,None,0.9537413,,,August10Silent3,25,2022_Aug_10_1435,ProdSingRedoBetween,2021.2.3,59.93982042
,,,,126,0,126,0,,,,,,,,,,,,,,,,,,,,,,1586.938393,None,,,,,,,,,,,,,,,,,income,2,127,silent,old,yellow,1582.59026,None,1582.59026,None,1,3.4469161,1582.59026,None,3.4469161,1586.064105,None,1586.571472,None,1586.571472,None,n,0.3376426,1586.571472,None,0.3376426,,,August10Silent3,25,2022_Aug_10_1435,ProdSingRedoBetween,2021.2.3,59.93982042
,,,,127,0,127,0,,,,,,,,,,,,,,,,,,,,,,1589.877973,None,,,,,,,,,,,,,,,,,blind,33,128,silent,old,blue,1587.441743,None,1587.441743,None,1,1.483266,1587.441743,None,1.483266,1588.940292,None,1589.444981,None,1589.444981,None,n,0.4003312,1589.444981,None,0.4003312,,,August10Silent3,25,2022_Aug_10_1435,ProdSingRedoBetween,2021.2.3,59.93982042
,,,,128,0,128,0,,,,,,,,,,,,,,,,,,,,,,1595.179912,None,,,,,,,,,,,,,,,,,exchange,168,129,silent,new,null,1590.392354,None,1590.392354,None,1,3.3809377,1590.392354,None,3.3809377,1593.804248,None,1594.312539,None,1594.312539,None,n,0.8366701,1594.312539,None,0.8366701,,,August10Silent3,25,2022_Aug_10_1435,ProdSingRedoBetween,2021.2.3,59.93982042
,,,,129,0,129,0,,,,,,,,,,,,,,,,,,,,,,1598.549932,None,,,,,,,,,,,,,,,,,treatment,178,130,silent,new,null,1595.691149,None,1595.691149,None,1,2.0179373,1595.691149,None,2.0179373,1597.734272,None,1598.250642,None,1598.250642,None,n,0.2744671,1598.250642,None,0.2744671,,,August10Silent3,25,2022_Aug_10_1435,ProdSingRedoBetween,2021.2.3,59.93982042
,,,,130,0,130,0,,,,,,,,,,,,,,,,,,,,,,1606.14284,None,,,,,,,,,,,,,,,,,couch,113,131,silent,new,null,1599.057587,None,1599.057587,None,3,5.2195657,1599.057587,None,5.2195657,1604.309505,None,1604.825861,None,1604.825861,None,f,1.2913099,1604.825861,None,1.2913099,,,August10Silent3,25,2022_Aug_10_1435,ProdSingRedoBetween,2021.2.3,59.93982042
,,,,131,0,131,0,,,,,,,,,,,,,,,,,,,,,,1615.049749,None,,,,,,,,,,,,,,,,,produce,159,132,silent,new,null,1606.664154,None,1606.664154,None,3,7.4209669,1606.664154,None,7.4209669,1614.116557,None,1614.623858,None,1614.623858,None,f,0.3972415,1614.623858,None,0.3972415,,,August10Silent3,25,2022_Aug_10_1435,ProdSingRedoBetween,2021.2.3,59.93982042
,,,,132,0,132,0,,,,,,,,,,,,,,,,,,,,,,1619.187278,None,,,,,,,,,,,,,,,,,atmosphere,174,133,silent,new,null,1615.552846,None,1615.552846,None,1,2.5642687,1615.552846,None,2.5642687,1618.139079,None,1618.653492,None,1618.653492,None,n,0.5117254,1618.653492,None,0.5117254,,,August10Silent3,25,2022_Aug_10_1435,ProdSingRedoBetween,2021.2.3,59.93982042
,,,,133,0,133,0,,,,,,,,,,,,,,,,,,,,,,1626.431637,None,,,,,,,,,,,,,,,,,character,1,134,silent,old,yellow,1619.695903,None,1619.695903,None,1,5.7652664,1619.695903,None,5.7652664,1625.486239,None,1625.995859,None,1625.995859,None,n,0.4095229,1625.995859,None,0.4095229,,,August10Silent3,25,2022_Aug_10_1435,ProdSingRedoBetween,2021.2.3,59.93982042
,,,,134,0,134,0,,,,,,,,,,,,,,,,,,,,,,1634.423739,None,,,,,,,,,,,,,,,,,impact,162,135,silent,new,null,1626.961265,None,1626.961265,None,1,6.4758731,1626.961265,None,6.4758731,1633.468398,None,1633.979433,None,1633.979433,None,n,0.4096108,1633.979433,None,0.4096108,,,August10Silent3,25,2022_Aug_10_1435,ProdSingRedoBetween,2021.2.3,59.93982042
,,,,135,0,135,0,,,,,,,,,,,,,,,,,,,,,,1641.409493,None,,,,,,,,,,,,,,,,,brilliant,176,136,silent,new,null,1634.936451,None,1634.936451,None,1,3.2926273,1634.936451,None,3.2926273,1638.263272,None,1638.775977,None,1638.775977,None,n,2.6051648,1638.775977,None,2.6051648,,,August10Silent3,25,2022_Aug_10_1435,ProdSingRedoBetween,2021.2.3,59.93982042
,,,,136,0,136,0,,,,,,,,,,,,,,,,,,,,,,1646.631368,None,,,,,,,,,,,,,,,,,close,68,137,silent,old,red,1641.922161,None,1641.922161,None,1,4.0829864,1641.922161,None,4.0829864,1646.032541,None,1646.548068,None,1646.548068,None,n,0.0570956,1646.548068,None,0.0570956,,,August10Silent3,25,2022_Aug_10_1435,ProdSingRedoBetween,2021.2.3,59.93982042
,,,,137,0,137,0,,,,,,,,,,,,,,,,,,,,,,1650.018077,None,,,,,,,,,,,,,,,,,bitter,116,138,silent,new,null,1647.135146,None,1647.135146,None,1,2.0379721,1647.135146,None,2.0379721,1649.200556,None,1649.704214,None,1649.704214,None,n,0.2929786,1649.704214,None,0.2929786,,,August10Silent3,25,2022_Aug_10_1435,ProdSingRedoBetween,2021.2.3,59.93982042
,,,,138,0,138,0,,,,,,,,,,,,,,,,,,,,,,1658.04288,None,,,,,,,,,,,,,,,,,staff,150,139,silent,new,null,1650.525391,None,1650.525391,None,2,5.0798605,1650.525391,None,5.0798605,1655.633488,None,1656.141047,None,1656.141047,None,n,1.8802639,1656.141047,None,1.8802639,,,August10Silent3,25,2022_Aug_10_1435,ProdSingRedoBetween,2021.2.3,59.93982042
,,,,139,0,139,0,,,,,,,,,,,,,,,,,,,,,,1662.365561,None,,,,,,,,,,,,,,,,,pretty,132,140,silent,new,null,1658.552571,None,1658.552571,None,1,2.9566118,1658.552571,None,2.9566118,1661.531313,None,1662.050911,None,1662.050911,None,n,0.2824682,1662.050911,None,0.2824682,,,August10Silent3,25,2022_Aug_10_1435,ProdSingRedoBetween,2021.2.3,59.93982042
,,,,140,0,140,0,,,,,,,,,,,,,,,,,,,,,,1667.185269,None,,,,,,,,,,,,,,,,,message,79,141,silent,old,red,1662.887934,None,1662.887934,None,1,1.9412433,1662.887934,None,1.9412433,1664.850797,None,1665.355138,None,1665.355138,None,n,1.8099178,1665.355138,None,1.8099178,,,August10Silent3,25,2022_Aug_10_1435,ProdSingRedoBetween,2021.2.3,59.93982042
,,,,141,0,141,0,,,,,,,,,,,,,,,,,,,,,,1676.01069,None,,,,,,,,,,,,,,,,,course,54,142,silent,old,blue,1667.694812,None,1667.694812,None,3,7.0464575,1667.694812,None,7.0464575,1674.768091,None,1675.280582,None,1675.280582,None,f,0.70861,1675.280582,None,0.70861,,,August10Silent3,25,2022_Aug_10_1435,ProdSingRedoBetween,2021.2.3,59.93982042
,,,,142,0,142,0,,,,,,,,,,,,,,,,,,,,,,1681.599782,None,,,,,,,,,,,,,,,,,council,108,143,silent,new,null,1676.519588,None,1676.519588,None,1,3.381594,1676.519588,None,3.381594,1679.932971,None,1680.434278,None,1680.434278,None,n,1.1388125,1680.434278,None,1.1388125,,,August10Silent3,25,2022_Aug_10_1435,ProdSingRedoBetween,2021.2.3,59.93982042
,,,,143,0,143,0,,,,,,,,,,,,,,,,,,,,,,1692.510577,None,,,,,,,,,,,,,,,,,reach,95,144,silent,new,null,1682.105207,None,1682.105207,None,1,8.6360048,1682.105207,None,8.6360048,1690.758754,None,1691.264975,None,1691.264975,None,n,1.2282672,1691.264975,None,1.2282672,,,August10Silent3,25,2022_Aug_10_1435,ProdSingRedoBetween,2021.2.3,59.93982042
,,,,144,0,144,0,,,,,,,,,,,,,,,,,,,,,,1697.298648,None,,,,,,,,,,,,,,,,,election,126,145,silent,new,null,1693.019454,None,1693.019454,None,1,3.3297339,1693.019454,None,3.3297339,1696.365087,None,1696.877186,None,1696.877186,None,n,0.3920034,1696.877186,None,0.3920034,,,August10Silent3,25,2022_Aug_10_1435,ProdSingRedoBetween,2021.2.3,59.93982042
,,,,145,0,145,0,,,,,,,,,,,,,,,,,,,,,,1700.118208,None,,,,,,,,,,,,,,,,,fashion,122,146,silent,new,null,1697.80856,None,1697.80856,None,1,1.4365397,1697.80856,None,1.4365397,1699.267893,None,1699.767945,None,1699.767945,None,n,0.3331994,1699.767945,None,0.3331994,,,August10Silent3,25,2022_Aug_10_1435,ProdSingRedoBetween,2021.2.3,59.93982042
,,,,146,0,146,0,,,,,,,,,,,,,,,,,,,,,,1703.472162,None,,,,,,,,,,,,,,,,,drama,145,147,silent,new,null,1700.620624,None,1700.620624,None,1,2.0725865,1700.620624,None,2.0725865,1702.72172,None,1703.225174,None,1703.225174,None,n,0.2200724,1703.225174,None,0.2200724,,,August10Silent3,25,2022_Aug_10_1435,ProdSingRedoBetween,2021.2.3,59.93982042
,,,,147,0,147,0,,,,,,,,,,,,,,,,,,,,,,1706.207678,None,,,,,,,,,,,,,,,,,skill,117,148,silent,new,null,1703.983882,None,1703.983882,None,1,1.517345,1703.983882,None,1.517345,1705.526854,None,1706.040904,None,1706.040904,None,n,0.1403366,1706.040904,None,0.1403366,,,August10Silent3,25,2022_Aug_10_1435,ProdSingRedoBetween,2021.2.3,59.93982042
,,,,148,0,148,0,,,,,,,,,,,,,,,,,,,,,,1712.514387,None,,,,,,,,,,,,,,,,,broke,88,149,silent,old,red,1706.710957,None,1706.710957,None,3,4.7982777,1706.710957,None,4.7982777,1711.531758,None,1712.047921,None,1712.047921,None,f,0.4373746,1712.047921,None,0.4373746,,,August10Silent3,25,2022_Aug_10_1435,ProdSingRedoBetween,2021.2.3,59.93982042
,,,,149,0,149,0,,,,,,,,,,,,,,,,,,,,,,1716.417723,None,,,,,,,,,,,,,,,,,shape,164,150,silent,new,null,1713.014561,None,1713.014561,None,1,2.2947459,1713.014561,None,2.2947459,1715.341068,None,1715.852114,None,1715.852114,None,n,0.5451312,1715.852114,None,0.5451312,,,August10Silent3,25,2022_Aug_10_1435,ProdSingRedoBetween,2021.2.3,59.93982042
,,,,150,0,150,0,,,,,,,,,,,,,,,,,,,,,,1720.172541,None,,,,,,,,,,,,,,,,,poetry,13,151,silent,old,yellow,1716.921131,None,1716.921131,None,6,1.9641177,1716.921131,None,1.9641177,1718.904824,None,1719.409801,None,1719.409801,None,r,0.7314648,1719.409801,None,0.7314648,,,August10Silent3,25,2022_Aug_10_1435,ProdSingRedoBetween,2021.2.3,59.93982042
,,,,151,0,151,0,,,,,,,,,,,,,,,,,,,,,,1725.29629,None,,,,,,,,,,,,,,,,,crime,56,152,silent,old,blue,1720.672212,None,1720.672212,None,3,3.3170411,1720.672212,None,3.3170411,1724.009248,None,1724.514675,None,1724.514675,None,f,0.7546095,1724.514675,None,0.7546095,,,August10Silent3,25,2022_Aug_10_1435,ProdSingRedoBetween,2021.2.3,59.93982042
,,,,152,0,152,0,,,,,,,,,,,,,,,,,,,,,,1732.3838,None,,,,,,,,,,,,,,,,,crowd,94,153,silent,new,null,1725.814715,None,1725.814715,None,2,3.6867201,1725.814715,None,3.6867201,1729.536686,None,1730.049381,None,1730.049381,None,n,2.3158553,1730.049381,None,2.3158553,,,August10Silent3,25,2022_Aug_10_1435,ProdSingRedoBetween,2021.2.3,59.93982042
,,,,153,0,153,0,,,,,,,,,,,,,,,,,,,,,,1736.039432,None,,,,,,,,,,,,,,,,,season,93,154,silent,new,null,1732.893604,None,1732.893604,None,1,2.135694,1732.893604,None,2.135694,1735.056188,None,1735.574248,None,1735.574248,None,n,0.446976,1735.574248,None,0.446976,,,August10Silent3,25,2022_Aug_10_1435,ProdSingRedoBetween,2021.2.3,59.93982042
,,,,154,0,154,0,,,,,,,,,,,,,,,,,,,,,,1739.458092,None,,,,,,,,,,,,,,,,,permit,130,155,silent,new,null,1736.559499,None,1736.559499,None,1,2.0217742,1736.559499,None,2.0217742,1738.609567,None,1739.123992,None,1739.123992,None,n,0.3133525,1739.123992,None,0.3133525,,,August10Silent3,25,2022_Aug_10_1435,ProdSingRedoBetween,2021.2.3,59.93982042
,,,,155,0,155,0,,,,,,,,,,,,,,,,,,,,,,1750.185017,None,,,,,,,,,,,,,,,,,problem,71,156,silent,old,red,1739.959648,None,1739.959648,None,2,8.8936309,1739.959648,None,8.8936309,1748.884338,None,1749.3904,None,1749.3904,None,n,0.7668333,1749.3904,None,0.7668333,,,August10Silent3,25,2022_Aug_10_1435,ProdSingRedoBetween,2021.2.3,59.93982042
,,,,156,0,156,0,,,,,,,,,,,,,,,,,,,,,,1754.172246,None,,,,,,,,,,,,,,,,,school,152,157,silent,new,null,1750.694707,None,1750.694707,None,1,1.9665175,1750.694707,None,1.9665175,1752.690406,None,1753.20578,None,1753.20578,None,n,0.9435489,1753.20578,None,0.9435489,,,August10Silent3,25,2022_Aug_10_1435,ProdSingRedoBetween,2021.2.3,59.93982042
,,,,157,0,157,0,,,,,,,,,,,,,,,,,,,,,,1757.125278,None,,,,,,,,,,,,,,,,,capital,175,158,silent,new,null,1754.675644,None,1754.675644,None,1,1.7215899,1754.675644,None,1.7215899,1756.424545,None,1756.937308,None,1756.937308,None,n,0.1641696,1756.937308,None,0.1641696,,,August10Silent3,25,2022_Aug_10_1435,ProdSingRedoBetween,2021.2.3,59.93982042
,,,,158,0,158,0,,,,,,,,,,,,,,,,,,,,,,1760.4619,None,,,,,,,,,,,,,,,,,drove,134,159,silent,new,null,1757.627771,None,1757.627771,None,1,1.9054474,1757.627771,None,1.9054474,1759.561662,None,1760.063995,None,1760.063995,None,n,0.3733437,1760.063995,None,0.3733437,,,August10Silent3,25,2022_Aug_10_1435,ProdSingRedoBetween,2021.2.3,59.93982042
,,,,159,0,159,0,,,,,,,,,,,,,,,,,,,,,,1763.132966,None,,,,,,,,,,,,,,,,,style,50,160,silent,old,blue,1760.970237,None,1760.970237,None,1,1.4351574,1760.970237,None,1.4351574,1762.431759,None,1762.93232,None,1762.93232,None,n,0.1688586,1762.93232,None,0.1688586,,,August10Silent3,25,2022_Aug_10_1435,ProdSingRedoBetween,2021.2.3,59.93982042
,,,,160,0,160,0,,,,,,,,,,,,,,,,,,,,,,1767.368551,None,,,,,,,,,,,,,,,,,committee,160,161,silent,new,null,1763.652021,None,1763.652021,None,1,2.9772814,1763.652021,None,2.9772814,1766.653232,None,1767.168504,None,1767.168504,None,n,0.180704,1767.168504,None,0.180704,,,August10Silent3,25,2022_Aug_10_1435,ProdSingRedoBetween,2021.2.3,59.93982042
,,,,161,0,161,0,,,,,,,,,,,,,,,,,,,,,,1771.375351,None,,,,,,,,,,,,,,,,,oxygen,99,162,silent,new,null,1767.870229,None,1767.870229,None,1,2.6310782,1767.870229,None,2.6310782,1770.524105,None,1771.042975,None,1771.042975,None,n,0.306568,1771.042975,None,0.306568,,,August10Silent3,25,2022_Aug_10_1435,ProdSingRedoBetween,2021.2.3,59.93982042
,,,,162,0,162,0,,,,,,,,,,,,,,,,,,,,,,1774.976432,None,,,,,,,,,,,,,,,,,general,158,163,silent,new,null,1771.894734,None,1771.894734,None,1,2.2945844,1771.894734,None,2.2945844,1774.210764,None,1774.73075,None,1774.73075,None,n,0.2184929,1774.73075,None,0.2184929,,,August10Silent3,25,2022_Aug_10_1435,ProdSingRedoBetween,2021.2.3,59.93982042
,,,,163,0,163,0,,,,,,,,,,,,,,,,,,,,,,1778.196258,None,,,,,,,,,,,,,,,,,thing,87,164,silent,old,red,1775.476946,None,1775.476946,None,1,1.8803747,1775.476946,None,1.8803747,1777.382124,None,1777.896222,None,1777.896222,None,n,0.2851747,1777.896222,None,0.2851747,,,August10Silent3,25,2022_Aug_10_1435,ProdSingRedoBetween,2021.2.3,59.93982042
,,,,164,0,164,0,,,,,,,,,,,,,,,,,,,,,,1781.267627,None,,,,,,,,,,,,,,,,,birth,51,165,silent,old,blue,1778.702507,None,1778.702507,None,1,1.7988128,1778.702507,None,1.7988128,1780.53258,None,1781.036555,None,1781.036555,None,n,0.2088491,1781.036555,None,0.2088491,,,August10Silent3,25,2022_Aug_10_1435,ProdSingRedoBetween,2021.2.3,59.93982042
,,,,165,0,165,0,,,,,,,,,,,,,,,,,,,,,,1789.390772,None,,,,,,,,,,,,,,,,,under,48,166,silent,old,blue,1781.778163,None,1781.778163,None,2,5.9391585,1781.778163,None,5.9391585,1787.740003,None,1788.239867,None,1788.239867,None,n,1.125452,1788.239867,None,1.125452,,,August10Silent3,25,2022_Aug_10_1435,ProdSingRedoBetween,2021.2.3,59.93982042
,,,,166,0,166,0,,,,,,,,,,,,,,,,,,,,,,1795.69714,None,,,,,,,,,,,,,,,,,company,16,167,silent,old,yellow,1789.901148,None,1789.901148,None,4,4.4083988,1789.901148,None,4.4083988,1794.33731,None,1794.84641,None,1794.84641,None,f,0.8309425,1794.84641,None,0.8309425,,,August10Silent3,25,2022_Aug_10_1435,ProdSingRedoBetween,2021.2.3,59.93982042
,,,,167,0,167,0,,,,,,,,,,,,,,,,,,,,,,1801.202506,None,,,,,,,,,,,,,,,,,prime,25,168,silent,old,yellow,1796.201581,None,1796.201581,None,4,3.4277548,1796.201581,None,3.4277548,1799.652414,None,1800.152722,None,1800.152722,None,f,1.0286378,1800.152722,None,1.0286378,,,August10Silent3,25,2022_Aug_10_1435,ProdSingRedoBetween,2021.2.3,59.93982042
,,,,168,0,168,0,,,,,,,,,,,,,,,,,,,,,,1806.140933,None,,,,,,,,,,,,,,,,,range,115,169,silent,new,null,1801.710647,None,1801.710647,None,1,2.863229,1801.710647,None,2.863229,1804.601214,None,1805.106741,None,1805.106741,None,n,1.0106551,1805.106741,None,1.0106551,,,August10Silent3,25,2022_Aug_10_1435,ProdSingRedoBetween,2021.2.3,59.93982042
,,,,169,0,169,0,,,,,,,,,,,,,,,,,,,,,,1811.546308,None,,,,,,,,,,,,,,,,,commercial,80,170,silent,old,red,1806.654178,None,1806.654178,None,2,3.7191811,1806.654178,None,3.7191811,1810.397739,None,1810.914512,None,1810.914512,None,n,0.6029579,1810.914512,None,0.6029579,,,August10Silent3,25,2022_Aug_10_1435,ProdSingRedoBetween,2021.2.3,59.93982042
,,,,170,0,170,0,,,,,,,,,,,,,,,,,,,,,,1815.600285,None,,,,,,,,,,,,,,,,,review,118,171,silent,new,null,1812.05226,None,1812.05226,None,1,2.1611232,1812.05226,None,2.1611232,1814.235624,None,1814.750312,None,1814.750312,None,n,0.8230014,1814.750312,None,0.8230014,,,August10Silent3,25,2022_Aug_10_1435,ProdSingRedoBetween,2021.2.3,59.93982042
,,,,171,0,171,0,,,,,,,,,,,,,,,,,,,,,,1818.419833,None,,,,,,,,,,,,,,,,,author,110,172,silent,new,null,1816.106884,None,1816.106884,None,1,1.5464687,1816.106884,None,1.5464687,1817.670384,None,1818.169763,None,1818.169763,None,n,0.2276059,1818.169763,None,0.2276059,,,August10Silent3,25,2022_Aug_10_1435,ProdSingRedoBetween,2021.2.3,59.93982042
,,,,172,0,172,0,,,,,,,,,,,,,,,,,,,,,,1820.955639,None,,,,,,,,,,,,,,,,,alert,43,173,silent,old,blue,1818.928858,None,1818.928858,None,1,1.3084784,1818.928858,None,1.3084784,1820.254978,None,1820.755718,None,1820.755718,None,n,0.1776838,1820.755718,None,0.1776838,,,August10Silent3,25,2022_Aug_10_1435,ProdSingRedoBetween,2021.2.3,59.93982042
,,,,173,0,173,0,,,,,,,,,,,,,,,,,,,,,,1825.376757,None,,,,,,,,,,,,,,,,,center,5,174,silent,old,yellow,1821.46577,None,1821.46577,None,2,2.5076538,1821.46577,None,2.5076538,1823.993774,None,1824.509356,None,1824.509356,None,n,0.8480035,1824.509356,None,0.8480035,,,August10Silent3,25,2022_Aug_10_1435,ProdSingRedoBetween,2021.2.3,59.93982042
,,,,174,0,174,0,,,,,,,,,,,,,,,,,,,,,,1831.649774,None,,,,,,,,,,,,,,,,,institute,31,175,silent,old,blue,1825.880495,None,1825.880495,None,3,4.5168596,1825.880495,None,4.5168596,1830.416502,None,1830.915853,None,1830.915853,None,f,0.7135376,1830.915853,None,0.7135376,,,August10Silent3,25,2022_Aug_10_1435,ProdSingRedoBetween,2021.2.3,59.93982042
,,,,175,0,175,0,,,,,,,,,,,,,,,,,,,,,,1835.988253,None,,,,,,,,,,,,,,,,,space,63,176,silent,old,red,1832.159645,None,1832.159645,None,1,2.3577588,1832.159645,None,2.3577588,1834.537385,None,1835.04355,None,1835.04355,None,n,0.9140097,1835.04355,None,0.9140097,,,August10Silent3,25,2022_Aug_10_1435,ProdSingRedoBetween,2021.2.3,59.93982042
,,,,176,0,176,0,,,,,,,,,,,,,,,,,,,,,,1840.361956,None,,,,,,,,,,,,,,,,,beginning,97,177,silent,new,null,1836.489517,None,1836.489517,None,1,2.4199061,1836.489517,None,2.4199061,1838.944858,None,1839.457718,None,1839.457718,None,n,0.8838727,1839.457718,None,0.8838727,,,August10Silent3,25,2022_Aug_10_1435,ProdSingRedoBetween,2021.2.3,59.93982042
,,,,177,0,177,0,,,,,,,,,,,,,,,,,,,,,,1845.048423,None,,,,,,,,,,,,,,,,,guest,21,178,silent,old,yellow,1840.879628,None,1840.879628,None,2,2.9897767,1840.879628,None,2.9897767,1843.901772,None,1844.412752,None,1844.412752,None,f,0.6166851,1844.412752,None,0.6166851,,,August10Silent3,25,2022_Aug_10_1435,ProdSingRedoBetween,2021.2.3,59.93982042
,,,,178,0,178,0,,,,,,,,,,,,,,,,,,,,,,1855.357676,None,,,,,,,,,,,,,,,,,notice,14,179,silent,old,yellow,1845.564612,None,1845.564612,None,4,8.5048077,1845.564612,None,8.5048077,1854.090681,None,1854.606124,None,1854.606124,None,f,0.7352737,1854.606124,None,0.7352737,,,August10Silent3,25,2022_Aug_10_1435,ProdSingRedoBetween,2021.2.3,59.93982042
,,,,179,0,179,0,,,,,,,,,,,,,,,,,,,,,,1859.210684,None,,,,,,,,,,,,,,,,,curve,140,180,silent,new,null,1855.857434,None,1855.857434,None,1,1.4999385,1855.857434,None,1.4999385,1857.37536,None,1857.87616,None,1857.87616,None,n,1.3053025,1857.87616,None,1.3053025,,,August10Silent3,25,2022_Aug_10_1435,ProdSingRedoBetween,2021.2.3,59.93982042
,,,,,,,,,,,,,,,,,,,,,,,,,,,,,,,,,,,,,,,,,,,,,,,,,,,,,,,,,,,,,,,,,,,,,,,,,1859.711768,None,,,,,,
