StudyLoop.thisRepN,StudyLoop.thisTrialN,StudyLoop.thisN,StudyLoop.thisIndex,TestLoop.thisRepN,TestLoop.thisTrialN,TestLoop.thisN,TestLoop.thisIndex,textCondition.started,textCondition.stopped,keyCondition.keys,keyCondition.rt,keyCondition.started,keyCondition.stopped,Condition,textWelcome.started,textWelcome.stopped,keyWelcome.keys,keyWelcome.rt,keyWelcome.started,keyWelcome.stopped,textAloud.started,textAloud.stopped,textSilent.started,textSilent.stopped,textSing.started,textSing.stopped,conditional_text.started,conditional_text.stopped,textBlank500.started,textBlank500.stopped,study_word,study_num,study_order,study_type,word_color,textStudy.started,textStudy.stopped,keyStudy.keys,keyStudy.started,keyStudy.stopped,textTestInstructions.started,textTestInstructions.stopped,key_resp_3.keys,key_resp_3.rt,key_resp_3.started,key_resp_3.stopped,test_word,test_num,test_order,test_condition,old_new_test,test_word_original_color,textConf.started,textConf.stopped,textConfScale.started,textConfScale.stopped,keyConf.keys,keyConf.rt,keyConf.started,keyConf.stopped,confidence response time,textTestBlank.started,textTestBlank.stopped,textRKN.started,textRKN.stopped,textRKNScale.started,textRKNScale.stopped,keyRKN.keys,keyRKN.rt,keyRKN.started,keyRKN.stopped,rkn response time,textEnd.started,textEnd.stopped,participant,session,date,expName,psychopyVersion,frameRate,
,,,,,,,,16.682144499965943,None,b,2.244347099971492,16.682144499965943,None,,,,,,,,,,,,,,,,,,,,,,,,,,,,,,,,,,,,,,,,,,,,,,,,,,,,,,,,,,,,,,26Aloud,001,2022_Aug_15_1454,ProdSingRedoBetween,2021.2.3,59.951714884089206,
,,,,,,,,,,,,,,AloudTest,18.996535399986897,None,space,525.9137024999945,18.996535399986897,None,,,,,,,,,,,,,,,,,,,,,,,,,,,,,,,,,,,,,,,,,,,,,,,,,,,,,,,26Aloud,001,2022_Aug_15_1454,ProdSingRedoBetween,2021.2.3,59.951714884089206,
0,0,0,0,,,,,,,,,,,,,,,,,,18.996535399986897,None,18.996535399986897,None,18.996535399986897,None,18.996535399986897,None,547.4464075999567,None,breath,85,1,aloud,red,545.4324877999607,None,None,545.4324877999607,None,,,,,,,,,,,,,,,,,,,,,,,,,,,,,,,,,,,26Aloud,001,2022_Aug_15_1454,ProdSingRedoBetween,2021.2.3,59.951714884089206,
1,0,1,0,,,,,,,,,,,,,,,,,,,,,,,,,,549.948922099953,None,couch,81,2,aloud,red,547.9487867999705,None,None,547.9487867999705,None,,,,,,,,,,,,,,,,,,,,,,,,,,,,,,,,,,,26Aloud,001,2022_Aug_15_1454,ProdSingRedoBetween,2021.2.3,59.951714884089206,
2,0,2,0,,,,,,,,,,,,,,,,,,,,,,,,,,552.4514981000102,None,council,5,3,aloud,yellow,550.4511222000001,None,None,550.4511222000001,None,,,,,,,,,,,,,,,,,,,,,,,,,,,,,,,,,,,26Aloud,001,2022_Aug_15_1454,ProdSingRedoBetween,2021.2.3,59.951714884089206,
3,0,3,0,,,,,,,,,,,,,,,,,,,,,,,,,,554.9539615999674,None,accident,78,4,aloud,red,552.9538735999959,None,None,552.9538735999959,None,,,,,,,,,,,,,,,,,,,,,,,,,,,,,,,,,,,26Aloud,001,2022_Aug_15_1454,ProdSingRedoBetween,2021.2.3,59.951714884089206,
4,0,4,0,,,,,,,,,,,,,,,,,,,,,,,,,,557.4732444999972,None,throw,0,5,aloud,yellow,555.4579111000057,None,None,555.4579111000057,None,,,,,,,,,,,,,,,,,,,,,,,,,,,,,,,,,,,26Aloud,001,2022_Aug_15_1454,ProdSingRedoBetween,2021.2.3,59.951714884089206,
5,0,5,0,,,,,,,,,,,,,,,,,,,,,,,,,,559.9759288000059,None,reading,1,6,aloud,yellow,557.9744682000019,None,None,557.9744682000019,None,,,,,,,,,,,,,,,,,,,,,,,,,,,,,,,,,,,26Aloud,001,2022_Aug_15_1454,ProdSingRedoBetween,2021.2.3,59.951714884089206,
6,0,6,0,,,,,,,,,,,,,,,,,,,,,,,,,,562.4781885999837,None,medicine,59,7,aloud,yellow,560.4761798999971,None,None,560.4761798999971,None,,,,,,,,,,,,,,,,,,,,,,,,,,,,,,,,,,,26Aloud,001,2022_Aug_15_1454,ProdSingRedoBetween,2021.2.3,59.951714884089206,
7,0,7,0,,,,,,,,,,,,,,,,,,,,,,,,,,564.9805920000072,None,minute,49,8,aloud,blue,562.9786150999716,None,None,562.9786150999716,None,,,,,,,,,,,,,,,,,,,,,,,,,,,,,,,,,,,26Aloud,001,2022_Aug_15_1454,ProdSingRedoBetween,2021.2.3,59.951714884089206,
8,0,8,0,,,,,,,,,,,,,,,,,,,,,,,,,,567.4830047999858,None,safety,86,9,aloud,red,565.4810154999723,None,None,565.4810154999723,None,,,,,,,,,,,,,,,,,,,,,,,,,,,,,,,,,,,26Aloud,001,2022_Aug_15_1454,ProdSingRedoBetween,2021.2.3,59.951714884089206,
9,0,9,0,,,,,,,,,,,,,,,,,,,,,,,,,,569.985505699995,None,brief,45,10,aloud,blue,567.9835431000101,None,None,567.9835431000101,None,,,,,,,,,,,,,,,,,,,,,,,,,,,,,,,,,,,26Aloud,001,2022_Aug_15_1454,ProdSingRedoBetween,2021.2.3,59.951714884089206,
10,0,10,0,,,,,,,,,,,,,,,,,,,,,,,,,,572.4880773999612,None,guest,87,11,aloud,red,570.4860872999998,None,None,570.4860872999998,None,,,,,,,,,,,,,,,,,,,,,,,,,,,,,,,,,,,26Aloud,001,2022_Aug_15_1454,ProdSingRedoBetween,2021.2.3,59.951714884089206,
11,0,11,0,,,,,,,,,,,,,,,,,,,,,,,,,,574.9904705999652,None,cross,25,12,aloud,yellow,572.9886849999893,None,None,572.9886849999893,None,,,,,,,,,,,,,,,,,,,,,,,,,,,,,,,,,,,26Aloud,001,2022_Aug_15_1454,ProdSingRedoBetween,2021.2.3,59.951714884089206,
12,0,12,0,,,,,,,,,,,,,,,,,,,,,,,,,,577.4929880999844,None,commercial,53,13,aloud,blue,575.4911804999574,None,None,575.4911804999574,None,,,,,,,,,,,,,,,,,,,,,,,,,,,,,,,,,,,26Aloud,001,2022_Aug_15_1454,ProdSingRedoBetween,2021.2.3,59.951714884089206,
13,0,13,0,,,,,,,,,,,,,,,,,,,,,,,,,,579.9954545999644,None,balance,75,14,aloud,red,577.9935399999958,None,None,577.9935399999958,None,,,,,,,,,,,,,,,,,,,,,,,,,,,,,,,,,,,26Aloud,001,2022_Aug_15_1454,ProdSingRedoBetween,2021.2.3,59.951714884089206,
14,0,14,0,,,,,,,,,,,,,,,,,,,,,,,,,,582.4980216999538,None,weather,56,15,aloud,blue,580.4960947000072,None,None,580.4960947000072,None,,,,,,,,,,,,,,,,,,,,,,,,,,,,,,,,,,,26Aloud,001,2022_Aug_15_1454,ProdSingRedoBetween,2021.2.3,59.951714884089206,
15,0,15,0,,,,,,,,,,,,,,,,,,,,,,,,,,585.000497800007,None,drama,63,16,aloud,red,582.9985592999728,None,None,582.9985592999728,None,,,,,,,,,,,,,,,,,,,,,,,,,,,,,,,,,,,26Aloud,001,2022_Aug_15_1454,ProdSingRedoBetween,2021.2.3,59.951714884089206,
16,0,16,0,,,,,,,,,,,,,,,,,,,,,,,,,,587.5028745000018,None,equipment,24,17,aloud,yellow,585.5028586999979,None,None,585.5028586999979,None,,,,,,,,,,,,,,,,,,,,,,,,,,,,,,,,,,,26Aloud,001,2022_Aug_15_1454,ProdSingRedoBetween,2021.2.3,59.951714884089206,
17,0,17,0,,,,,,,,,,,,,,,,,,,,,,,,,,590.0054826999549,None,childhood,43,18,aloud,blue,588.0035236999975,None,None,588.0035236999975,None,,,,,,,,,,,,,,,,,,,,,,,,,,,,,,,,,,,26Aloud,001,2022_Aug_15_1454,ProdSingRedoBetween,2021.2.3,59.951714884089206,
18,0,18,0,,,,,,,,,,,,,,,,,,,,,,,,,,592.508008099976,None,spoke,31,19,aloud,blue,590.5060301999911,None,None,590.5060301999911,None,,,,,,,,,,,,,,,,,,,,,,,,,,,,,,,,,,,26Aloud,001,2022_Aug_15_1454,ProdSingRedoBetween,2021.2.3,59.951714884089206,
19,0,19,0,,,,,,,,,,,,,,,,,,,,,,,,,,595.0106551999925,None,cousin,67,20,aloud,red,593.0084348999662,None,None,593.0084348999662,None,,,,,,,,,,,,,,,,,,,,,,,,,,,,,,,,,,,26Aloud,001,2022_Aug_15_1454,ProdSingRedoBetween,2021.2.3,59.951714884089206,
20,0,20,0,,,,,,,,,,,,,,,,,,,,,,,,,,597.5131625999929,None,native,33,21,aloud,blue,595.5110852000071,None,None,595.5110852000071,None,,,,,,,,,,,,,,,,,,,,,,,,,,,,,,,,,,,26Aloud,001,2022_Aug_15_1454,ProdSingRedoBetween,2021.2.3,59.951714884089206,
21,0,21,0,,,,,,,,,,,,,,,,,,,,,,,,,,600.032320600003,None,expansion,88,22,aloud,red,598.0308757000021,None,None,598.0308757000021,None,,,,,,,,,,,,,,,,,,,,,,,,,,,,,,,,,,,26Aloud,001,2022_Aug_15_1454,ProdSingRedoBetween,2021.2.3,59.951714884089206,
22,0,22,0,,,,,,,,,,,,,,,,,,,,,,,,,,602.5515494999709,None,signal,23,23,aloud,yellow,600.5371428999933,None,None,600.5371428999933,None,,,,,,,,,,,,,,,,,,,,,,,,,,,,,,,,,,,26Aloud,001,2022_Aug_15_1454,ProdSingRedoBetween,2021.2.3,59.951714884089206,
23,0,23,0,,,,,,,,,,,,,,,,,,,,,,,,,,605.0704606999643,None,victory,41,24,aloud,blue,603.0586305999896,None,None,603.0586305999896,None,,,,,,,,,,,,,,,,,,,,,,,,,,,,,,,,,,,26Aloud,001,2022_Aug_15_1454,ProdSingRedoBetween,2021.2.3,59.951714884089206,
24,0,24,0,,,,,,,,,,,,,,,,,,,,,,,,,,607.5730084999814,None,thick,12,25,aloud,yellow,605.5714087999659,None,None,605.5714087999659,None,,,,,,,,,,,,,,,,,,,,,,,,,,,,,,,,,,,26Aloud,001,2022_Aug_15_1454,ProdSingRedoBetween,2021.2.3,59.951714884089206,
25,0,25,0,,,,,,,,,,,,,,,,,,,,,,,,,,610.0755686999764,None,candidate,35,26,aloud,blue,608.0744445999735,None,None,608.0744445999735,None,,,,,,,,,,,,,,,,,,,,,,,,,,,,,,,,,,,26Aloud,001,2022_Aug_15_1454,ProdSingRedoBetween,2021.2.3,59.951714884089206,
26,0,26,0,,,,,,,,,,,,,,,,,,,,,,,,,,612.5781666999683,None,trial,16,27,aloud,yellow,610.578164699953,None,None,610.578164699953,None,,,,,,,,,,,,,,,,,,,,,,,,,,,,,,,,,,,26Aloud,001,2022_Aug_15_1454,ProdSingRedoBetween,2021.2.3,59.951714884089206,
27,0,27,0,,,,,,,,,,,,,,,,,,,,,,,,,,615.0806386999902,None,state,76,28,aloud,red,613.0799368000007,None,None,613.0799368000007,None,,,,,,,,,,,,,,,,,,,,,,,,,,,,,,,,,,,26Aloud,001,2022_Aug_15_1454,ProdSingRedoBetween,2021.2.3,59.951714884089206,
28,0,28,0,,,,,,,,,,,,,,,,,,,,,,,,,,617.5998676999588,None,skill,64,29,aloud,red,615.5914494000026,None,None,615.5914494000026,None,,,,,,,,,,,,,,,,,,,,,,,,,,,,,,,,,,,26Aloud,001,2022_Aug_15_1454,ProdSingRedoBetween,2021.2.3,59.951714884089206,
29,0,29,0,,,,,,,,,,,,,,,,,,,,,,,,,,620.1023578000022,None,express,82,30,aloud,red,618.1003845999949,None,None,618.1003845999949,None,,,,,,,,,,,,,,,,,,,,,,,,,,,,,,,,,,,26Aloud,001,2022_Aug_15_1454,ProdSingRedoBetween,2021.2.3,59.951714884089206,
30,0,30,0,,,,,,,,,,,,,,,,,,,,,,,,,,622.6049378999742,None,build,39,31,aloud,blue,620.6033740999992,None,None,620.6033740999992,None,,,,,,,,,,,,,,,,,,,,,,,,,,,,,,,,,,,26Aloud,001,2022_Aug_15_1454,ProdSingRedoBetween,2021.2.3,59.951714884089206,
31,0,31,0,,,,,,,,,,,,,,,,,,,,,,,,,,625.1242531999596,None,light,21,32,aloud,yellow,623.1089672999806,None,None,623.1089672999806,None,,,,,,,,,,,,,,,,,,,,,,,,,,,,,,,,,,,26Aloud,001,2022_Aug_15_1454,ProdSingRedoBetween,2021.2.3,59.951714884089206,
32,0,32,0,,,,,,,,,,,,,,,,,,,,,,,,,,627.6265832000063,None,corner,58,33,aloud,blue,625.6246212999686,None,None,625.6246212999686,None,,,,,,,,,,,,,,,,,,,,,,,,,,,,,,,,,,,26Aloud,001,2022_Aug_15_1454,ProdSingRedoBetween,2021.2.3,59.951714884089206,
33,0,33,0,,,,,,,,,,,,,,,,,,,,,,,,,,630.145812999981,None,pattern,17,34,aloud,yellow,628.1306177999941,None,None,628.1306177999941,None,,,,,,,,,,,,,,,,,,,,,,,,,,,,,,,,,,,26Aloud,001,2022_Aug_15_1454,ProdSingRedoBetween,2021.2.3,59.951714884089206,
34,0,34,0,,,,,,,,,,,,,,,,,,,,,,,,,,632.6482346999692,None,under,37,35,aloud,blue,630.6462596000056,None,None,630.6462596000056,None,,,,,,,,,,,,,,,,,,,,,,,,,,,,,,,,,,,26Aloud,001,2022_Aug_15_1454,ProdSingRedoBetween,2021.2.3,59.951714884089206,
35,0,35,0,,,,,,,,,,,,,,,,,,,,,,,,,,635.1674444999662,None,review,89,36,aloud,red,633.153608899971,None,None,633.153608899971,None,,,,,,,,,,,,,,,,,,,,,,,,,,,,,,,,,,,26Aloud,001,2022_Aug_15_1454,ProdSingRedoBetween,2021.2.3,59.951714884089206,
36,0,36,0,,,,,,,,,,,,,,,,,,,,,,,,,,637.6700724999537,None,strength,51,37,aloud,blue,635.67068749998,None,None,635.67068749998,None,,,,,,,,,,,,,,,,,,,,,,,,,,,,,,,,,,,26Aloud,001,2022_Aug_15_1454,ProdSingRedoBetween,2021.2.3,59.951714884089206,
37,0,37,0,,,,,,,,,,,,,,,,,,,,,,,,,,640.1725925999926,None,range,74,38,aloud,red,638.1708462999668,None,None,638.1708462999668,None,,,,,,,,,,,,,,,,,,,,,,,,,,,,,,,,,,,26Aloud,001,2022_Aug_15_1454,ProdSingRedoBetween,2021.2.3,59.951714884089206,
38,0,38,0,,,,,,,,,,,,,,,,,,,,,,,,,,642.6916460999637,None,motion,3,39,aloud,yellow,640.6810225999798,None,None,640.6810225999798,None,,,,,,,,,,,,,,,,,,,,,,,,,,,,,,,,,,,26Aloud,001,2022_Aug_15_1454,ProdSingRedoBetween,2021.2.3,59.951714884089206,
39,0,39,0,,,,,,,,,,,,,,,,,,,,,,,,,,645.1941349999979,None,election,50,40,aloud,blue,643.1921753999777,None,None,643.1921753999777,None,,,,,,,,,,,,,,,,,,,,,,,,,,,,,,,,,,,26Aloud,001,2022_Aug_15_1454,ProdSingRedoBetween,2021.2.3,59.951714884089206,
40,0,40,0,,,,,,,,,,,,,,,,,,,,,,,,,,647.6965152999619,None,population,7,41,aloud,yellow,645.6964180999785,None,None,645.6964180999785,None,,,,,,,,,,,,,,,,,,,,,,,,,,,,,,,,,,,26Aloud,001,2022_Aug_15_1454,ProdSingRedoBetween,2021.2.3,59.951714884089206,
41,0,41,0,,,,,,,,,,,,,,,,,,,,,,,,,,650.2157943999628,None,brilliant,2,42,aloud,yellow,648.2020306999912,None,None,648.2020306999912,None,,,,,,,,,,,,,,,,,,,,,,,,,,,,,,,,,,,26Aloud,001,2022_Aug_15_1454,ProdSingRedoBetween,2021.2.3,59.951714884089206,
42,0,42,0,,,,,,,,,,,,,,,,,,,,,,,,,,652.71833959996,None,welcome,42,43,aloud,blue,650.7171554999659,None,None,650.7171554999659,None,,,,,,,,,,,,,,,,,,,,,,,,,,,,,,,,,,,26Aloud,001,2022_Aug_15_1454,ProdSingRedoBetween,2021.2.3,59.951714884089206,
43,0,43,0,,,,,,,,,,,,,,,,,,,,,,,,,,655.2375530999852,None,religion,29,44,aloud,blue,653.2220788999693,None,None,653.2220788999693,None,,,,,,,,,,,,,,,,,,,,,,,,,,,,,,,,,,,26Aloud,001,2022_Aug_15_1454,ProdSingRedoBetween,2021.2.3,59.951714884089206,
44,0,44,0,,,,,,,,,,,,,,,,,,,,,,,,,,657.7565884999931,None,message,62,45,aloud,red,655.7418150999583,None,None,655.7418150999583,None,,,,,,,,,,,,,,,,,,,,,,,,,,,,,,,,,,,26Aloud,001,2022_Aug_15_1454,ProdSingRedoBetween,2021.2.3,59.951714884089206,
45,0,45,0,,,,,,,,,,,,,,,,,,,,,,,,,,660.2758458000026,None,threat,32,46,aloud,blue,658.264343399962,None,None,658.264343399962,None,,,,,,,,,,,,,,,,,,,,,,,,,,,,,,,,,,,26Aloud,001,2022_Aug_15_1454,ProdSingRedoBetween,2021.2.3,59.951714884089206,
46,0,46,0,,,,,,,,,,,,,,,,,,,,,,,,,,662.7783249999629,None,personnel,71,47,aloud,red,660.7762606999604,None,None,660.7762606999604,None,,,,,,,,,,,,,,,,,,,,,,,,,,,,,,,,,,,26Aloud,001,2022_Aug_15_1454,ProdSingRedoBetween,2021.2.3,59.951714884089206,
47,0,47,0,,,,,,,,,,,,,,,,,,,,,,,,,,665.2975815999671,None,universal,47,48,aloud,blue,663.2823012999725,None,None,663.2823012999725,None,,,,,,,,,,,,,,,,,,,,,,,,,,,,,,,,,,,26Aloud,001,2022_Aug_15_1454,ProdSingRedoBetween,2021.2.3,59.951714884089206,
48,0,48,0,,,,,,,,,,,,,,,,,,,,,,,,,,667.800009700004,None,committee,83,49,aloud,red,665.8005137,None,None,665.8005137,None,,,,,,,,,,,,,,,,,,,,,,,,,,,,,,,,,,,26Aloud,001,2022_Aug_15_1454,ProdSingRedoBetween,2021.2.3,59.951714884089206,
49,0,49,0,,,,,,,,,,,,,,,,,,,,,,,,,,670.3024967999663,None,goose,20,50,aloud,yellow,668.3013963999692,None,None,668.3013963999692,None,,,,,,,,,,,,,,,,,,,,,,,,,,,,,,,,,,,26Aloud,001,2022_Aug_15_1454,ProdSingRedoBetween,2021.2.3,59.951714884089206,
50,0,50,0,,,,,,,,,,,,,,,,,,,,,,,,,,672.8050053999759,None,music,65,51,aloud,red,670.8046937999898,None,None,670.8046937999898,None,,,,,,,,,,,,,,,,,,,,,,,,,,,,,,,,,,,26Aloud,001,2022_Aug_15_1454,ProdSingRedoBetween,2021.2.3,59.951714884089206,
51,0,51,0,,,,,,,,,,,,,,,,,,,,,,,,,,675.3243467999855,None,object,46,52,aloud,blue,673.3109073999804,None,None,673.3109073999804,None,,,,,,,,,,,,,,,,,,,,,,,,,,,,,,,,,,,26Aloud,001,2022_Aug_15_1454,ProdSingRedoBetween,2021.2.3,59.951714884089206,
52,0,52,0,,,,,,,,,,,,,,,,,,,,,,,,,,677.8435400999733,None,scene,22,53,aloud,yellow,675.8278804000001,None,None,675.8278804000001,None,,,,,,,,,,,,,,,,,,,,,,,,,,,,,,,,,,,26Aloud,001,2022_Aug_15_1454,ProdSingRedoBetween,2021.2.3,59.951714884089206,
53,0,53,0,,,,,,,,,,,,,,,,,,,,,,,,,,680.3626408999553,None,harmony,79,54,aloud,red,678.3490775999962,None,None,678.3490775999962,None,,,,,,,,,,,,,,,,,,,,,,,,,,,,,,,,,,,26Aloud,001,2022_Aug_15_1454,ProdSingRedoBetween,2021.2.3,59.951714884089206,
54,0,54,0,,,,,,,,,,,,,,,,,,,,,,,,,,682.8651660999749,None,dream,40,55,aloud,blue,680.8653703999589,None,None,680.8653703999589,None,,,,,,,,,,,,,,,,,,,,,,,,,,,,,,,,,,,26Aloud,001,2022_Aug_15_1454,ProdSingRedoBetween,2021.2.3,59.951714884089206,
55,0,55,0,,,,,,,,,,,,,,,,,,,,,,,,,,685.3841850999743,None,union,10,56,aloud,yellow,683.3706720999908,None,None,683.3706720999908,None,,,,,,,,,,,,,,,,,,,,,,,,,,,,,,,,,,,26Aloud,001,2022_Aug_15_1454,ProdSingRedoBetween,2021.2.3,59.951714884089206,
56,0,56,0,,,,,,,,,,,,,,,,,,,,,,,,,,687.9034747999976,None,running,4,57,aloud,yellow,685.893137099978,None,None,685.893137099978,None,,,,,,,,,,,,,,,,,,,,,,,,,,,,,,,,,,,26Aloud,001,2022_Aug_15_1454,ProdSingRedoBetween,2021.2.3,59.951714884089206,
57,0,57,0,,,,,,,,,,,,,,,,,,,,,,,,,,690.4060600000084,None,edition,52,58,aloud,blue,688.404925699986,None,None,688.404925699986,None,,,,,,,,,,,,,,,,,,,,,,,,,,,,,,,,,,,26Aloud,001,2022_Aug_15_1454,ProdSingRedoBetween,2021.2.3,59.951714884089206,
58,0,58,0,,,,,,,,,,,,,,,,,,,,,,,,,,692.9252681999933,None,patient,61,59,aloud,red,690.9098222999601,None,None,690.9098222999601,None,,,,,,,,,,,,,,,,,,,,,,,,,,,,,,,,,,,26Aloud,001,2022_Aug_15_1454,ProdSingRedoBetween,2021.2.3,59.951714884089206,
59,0,59,0,,,,,,,,,,,,,,,,,,,,,,,,,,695.427782099985,None,rapid,8,60,aloud,yellow,693.425603199983,None,None,693.425603199983,None,,,,,,,,,,,,,,,,,,,,,,,,,,,,,,,,,,,26Aloud,001,2022_Aug_15_1454,ProdSingRedoBetween,2021.2.3,59.951714884089206,
60,0,60,0,,,,,,,,,,,,,,,,,,,,,,,,,,697.946853899979,None,beginning,6,61,aloud,yellow,695.9338063999894,None,None,695.9338063999894,None,,,,,,,,,,,,,,,,,,,,,,,,,,,,,,,,,,,26Aloud,001,2022_Aug_15_1454,ProdSingRedoBetween,2021.2.3,59.951714884089206,
61,0,61,0,,,,,,,,,,,,,,,,,,,,,,,,,,700.4493644000031,None,tough,34,62,aloud,blue,698.4473152999999,None,None,698.4473152999999,None,,,,,,,,,,,,,,,,,,,,,,,,,,,,,,,,,,,26Aloud,001,2022_Aug_15_1454,ProdSingRedoBetween,2021.2.3,59.951714884089206,
62,0,62,0,,,,,,,,,,,,,,,,,,,,,,,,,,702.95188399998,None,education,13,63,aloud,yellow,700.9497094999533,None,None,700.9497094999533,None,,,,,,,,,,,,,,,,,,,,,,,,,,,,,,,,,,,26Aloud,001,2022_Aug_15_1454,ProdSingRedoBetween,2021.2.3,59.951714884089206,
63,0,63,0,,,,,,,,,,,,,,,,,,,,,,,,,,705.4711087999749,None,public,26,64,aloud,yellow,703.4585567999748,None,None,703.4585567999748,None,,,,,,,,,,,,,,,,,,,,,,,,,,,,,,,,,,,26Aloud,001,2022_Aug_15_1454,ProdSingRedoBetween,2021.2.3,59.951714884089206,
64,0,64,0,,,,,,,,,,,,,,,,,,,,,,,,,,707.973390500003,None,distance,68,65,aloud,red,705.9741197999683,None,None,705.9741197999683,None,,,,,,,,,,,,,,,,,,,,,,,,,,,,,,,,,,,26Aloud,001,2022_Aug_15_1454,ProdSingRedoBetween,2021.2.3,59.951714884089206,
65,0,65,0,,,,,,,,,,,,,,,,,,,,,,,,,,710.4926181999617,None,engineer,19,66,aloud,yellow,708.4784477999783,None,None,708.4784477999783,None,,,,,,,,,,,,,,,,,,,,,,,,,,,,,,,,,,,26Aloud,001,2022_Aug_15_1454,ProdSingRedoBetween,2021.2.3,59.951714884089206,
66,0,66,0,,,,,,,,,,,,,,,,,,,,,,,,,,712.9951329999603,None,escape,9,67,aloud,yellow,710.9940106999711,None,None,710.9940106999711,None,,,,,,,,,,,,,,,,,,,,,,,,,,,,,,,,,,,26Aloud,001,2022_Aug_15_1454,ProdSingRedoBetween,2021.2.3,59.951714884089206,
67,0,67,0,,,,,,,,,,,,,,,,,,,,,,,,,,715.4976239000098,None,present,84,68,aloud,red,713.4978318999638,None,None,713.4978318999638,None,,,,,,,,,,,,,,,,,,,,,,,,,,,,,,,,,,,26Aloud,001,2022_Aug_15_1454,ProdSingRedoBetween,2021.2.3,59.951714884089206,
68,0,68,0,,,,,,,,,,,,,,,,,,,,,,,,,,718.0168444999726,None,account,55,69,aloud,blue,716.0045860999962,None,None,716.0045860999962,None,,,,,,,,,,,,,,,,,,,,,,,,,,,,,,,,,,,26Aloud,001,2022_Aug_15_1454,ProdSingRedoBetween,2021.2.3,59.951714884089206,
69,0,69,0,,,,,,,,,,,,,,,,,,,,,,,,,,720.5194712000084,None,tragedy,15,70,aloud,yellow,718.5173733999836,None,None,718.5173733999836,None,,,,,,,,,,,,,,,,,,,,,,,,,,,,,,,,,,,26Aloud,001,2022_Aug_15_1454,ProdSingRedoBetween,2021.2.3,59.951714884089206,
70,0,70,0,,,,,,,,,,,,,,,,,,,,,,,,,,723.0218594999751,None,month,48,71,aloud,blue,721.0200405999785,None,None,721.0200405999785,None,,,,,,,,,,,,,,,,,,,,,,,,,,,,,,,,,,,26Aloud,001,2022_Aug_15_1454,ProdSingRedoBetween,2021.2.3,59.951714884089206,
71,0,71,0,,,,,,,,,,,,,,,,,,,,,,,,,,725.541082199954,None,property,73,72,aloud,red,723.5253924999852,None,None,723.5253924999852,None,,,,,,,,,,,,,,,,,,,,,,,,,,,,,,,,,,,26Aloud,001,2022_Aug_15_1454,ProdSingRedoBetween,2021.2.3,59.951714884089206,
72,0,72,0,,,,,,,,,,,,,,,,,,,,,,,,,,728.0435482999892,None,sleep,69,73,aloud,red,726.0415814999724,None,None,726.0415814999724,None,,,,,,,,,,,,,,,,,,,,,,,,,,,,,,,,,,,26Aloud,001,2022_Aug_15_1454,ProdSingRedoBetween,2021.2.3,59.951714884089206,
73,0,73,0,,,,,,,,,,,,,,,,,,,,,,,,,,730.5460468999809,None,suspect,70,74,aloud,red,728.5465092000086,None,None,728.5465092000086,None,,,,,,,,,,,,,,,,,,,,,,,,,,,,,,,,,,,26Aloud,001,2022_Aug_15_1454,ProdSingRedoBetween,2021.2.3,59.951714884089206,
74,0,74,0,,,,,,,,,,,,,,,,,,,,,,,,,,733.0653040999896,None,benefit,11,75,aloud,yellow,731.0516884999815,None,None,731.0516884999815,None,,,,,,,,,,,,,,,,,,,,,,,,,,,,,,,,,,,26Aloud,001,2022_Aug_15_1454,ProdSingRedoBetween,2021.2.3,59.951714884089206,
75,0,75,0,,,,,,,,,,,,,,,,,,,,,,,,,,735.584415099991,None,finish,57,76,aloud,blue,733.5690932999714,None,None,733.5690932999714,None,,,,,,,,,,,,,,,,,,,,,,,,,,,,,,,,,,,26Aloud,001,2022_Aug_15_1454,ProdSingRedoBetween,2021.2.3,59.951714884089206,
76,0,76,0,,,,,,,,,,,,,,,,,,,,,,,,,,738.1036346000037,None,bureau,30,77,aloud,blue,736.0912686999654,None,None,736.0912686999654,None,,,,,,,,,,,,,,,,,,,,,,,,,,,,,,,,,,,26Aloud,001,2022_Aug_15_1454,ProdSingRedoBetween,2021.2.3,59.951714884089206,
77,0,77,0,,,,,,,,,,,,,,,,,,,,,,,,,,740.606123399979,None,territory,72,78,aloud,red,738.6055899999919,None,None,738.6055899999919,None,,,,,,,,,,,,,,,,,,,,,,,,,,,,,,,,,,,26Aloud,001,2022_Aug_15_1454,ProdSingRedoBetween,2021.2.3,59.951714884089206,
78,0,78,0,,,,,,,,,,,,,,,,,,,,,,,,,,743.108631399984,None,century,80,79,aloud,red,741.1092022999655,None,None,741.1092022999655,None,,,,,,,,,,,,,,,,,,,,,,,,,,,,,,,,,,,26Aloud,001,2022_Aug_15_1454,ProdSingRedoBetween,2021.2.3,59.951714884089206,
79,0,79,0,,,,,,,,,,,,,,,,,,,,,,,,,,745.6278606999549,None,session,54,80,aloud,blue,743.6128979999921,None,None,743.6128979999921,None,,,,,,,,,,,,,,,,,,,,,,,,,,,,,,,,,,,26Aloud,001,2022_Aug_15_1454,ProdSingRedoBetween,2021.2.3,59.951714884089206,
80,0,80,0,,,,,,,,,,,,,,,,,,,,,,,,,,748.1470245000091,None,cover,77,81,aloud,red,746.1340739000007,None,None,746.1340739000007,None,,,,,,,,,,,,,,,,,,,,,,,,,,,,,,,,,,,26Aloud,001,2022_Aug_15_1454,ProdSingRedoBetween,2021.2.3,59.951714884089206,
81,0,81,0,,,,,,,,,,,,,,,,,,,,,,,,,,750.6661413999973,None,recall,14,82,aloud,yellow,748.6534275999875,None,None,748.6534275999875,None,,,,,,,,,,,,,,,,,,,,,,,,,,,,,,,,,,,26Aloud,001,2022_Aug_15_1454,ProdSingRedoBetween,2021.2.3,59.951714884089206,
82,0,82,0,,,,,,,,,,,,,,,,,,,,,,,,,,753.1686883000075,None,captain,60,83,aloud,red,751.1685612999718,None,None,751.1685612999718,None,,,,,,,,,,,,,,,,,,,,,,,,,,,,,,,,,,,26Aloud,001,2022_Aug_15_1454,ProdSingRedoBetween,2021.2.3,59.951714884089206,
83,0,83,0,,,,,,,,,,,,,,,,,,,,,,,,,,755.6712309999857,None,angle,28,84,aloud,yellow,753.669523199962,None,None,753.669523199962,None,,,,,,,,,,,,,,,,,,,,,,,,,,,,,,,,,,,26Aloud,001,2022_Aug_15_1454,ProdSingRedoBetween,2021.2.3,59.951714884089206,
84,0,84,0,,,,,,,,,,,,,,,,,,,,,,,,,,758.1736362999654,None,device,38,85,aloud,blue,756.1745743000065,None,None,756.1745743000065,None,,,,,,,,,,,,,,,,,,,,,,,,,,,,,,,,,,,26Aloud,001,2022_Aug_15_1454,ProdSingRedoBetween,2021.2.3,59.951714884089206,
85,0,85,0,,,,,,,,,,,,,,,,,,,,,,,,,,760.6761996999849,None,appearance,44,86,aloud,blue,758.6760730000096,None,None,758.6760730000096,None,,,,,,,,,,,,,,,,,,,,,,,,,,,,,,,,,,,26Aloud,001,2022_Aug_15_1454,ProdSingRedoBetween,2021.2.3,59.951714884089206,
86,0,86,0,,,,,,,,,,,,,,,,,,,,,,,,,,763.1786967999651,None,discussion,27,87,aloud,yellow,761.1786312999902,None,None,761.1786312999902,None,,,,,,,,,,,,,,,,,,,,,,,,,,,,,,,,,,,26Aloud,001,2022_Aug_15_1454,ProdSingRedoBetween,2021.2.3,59.951714884089206,
87,0,87,0,,,,,,,,,,,,,,,,,,,,,,,,,,765.6980119000073,None,column,36,88,aloud,blue,763.6825864999555,None,None,763.6825864999555,None,,,,,,,,,,,,,,,,,,,,,,,,,,,,,,,,,,,26Aloud,001,2022_Aug_15_1454,ProdSingRedoBetween,2021.2.3,59.951714884089206,
88,0,88,0,,,,,,,,,,,,,,,,,,,,,,,,,,768.2001519000041,None,listen,18,89,aloud,yellow,766.201047999959,None,None,766.201047999959,None,,,,,,,,,,,,,,,,,,,,,,,,,,,,,,,,,,,26Aloud,001,2022_Aug_15_1454,ProdSingRedoBetween,2021.2.3,59.951714884089206,
89,0,89,0,,,,,,,,,,,,,,,,,,,,,,,,,,770.7195814999868,None,voice,66,90,aloud,red,768.7096017999575,None,None,768.7096017999575,None,,,,,,,,,,,,,,,,,,,,,,,,,,,,,,,,,,,26Aloud,001,2022_Aug_15_1454,ProdSingRedoBetween,2021.2.3,59.951714884089206,
,,,,,,,,,,,,,,,,,,,,,,,,,,,,,,,,,,,,,,,,,771.2202337000053,None,k,85.70627389999572,771.2202337000053,None,,,,,,,,,,,,,,,,,,,,,,,,,,,,,26Aloud,001,2022_Aug_15_1454,ProdSingRedoBetween,2021.2.3,59.951714884089206,
,,,,0,0,0,0,,,,,,,,,,,,,,,,,,,,,,867.149131299986,None,,,,,,,,,,,,,,,,,tragedy,15,1,aloud,old,yellow,857.4570559999556,None,857.4570559999556,None,6,7.0291538999881595,857.4570559999556,None,7.0291538999881595,864.518576100003,None,865.037136400002,None,865.037136400002,None,r,2.080976199998986,865.037136400002,None,2.080976199998986,,,26Aloud,001,2022_Aug_15_1454,ProdSingRedoBetween,2021.2.3,59.951714884089206,
,,,,1,0,1,0,,,,,,,,,,,,,,,,,,,,,,872.2875944999978,None,,,,,,,,,,,,,,,,,angle,28,2,aloud,old,yellow,867.6587154999725,None,867.6587154999725,None,6,2.1875511000398546,867.6587154999725,None,2.1875511000398546,869.8731491999933,None,870.3919680999825,None,870.3919680999825,None,r,1.8702608000021428,870.3919680999825,None,1.8702608000021428,,,26Aloud,001,2022_Aug_15_1454,ProdSingRedoBetween,2021.2.3,59.951714884089206,
,,,,2,0,2,0,,,,,,,,,,,,,,,,,,,,,,880.4290540000075,None,,,,,,,,,,,,,,,,,carry,112,3,aloud,new,null,872.8018333999789,None,872.8018333999789,None,1,4.500412299996242,872.8018333999789,None,4.500412299996242,877.3306904999772,None,877.8520370000042,None,877.8520370000042,None,n,2.5461396999889985,877.8520370000042,None,2.5461396999889985,,,26Aloud,001,2022_Aug_15_1454,ProdSingRedoBetween,2021.2.3,59.951714884089206,
,,,,3,0,3,0,,,,,,,,,,,,,,,,,,,,,,887.9698675999534,None,,,,,,,,,,,,,,,,,cover,77,4,aloud,old,red,880.9425587999867,None,880.9425587999867,None,4,5.295763199974317,880.9425587999867,None,5.295763199974317,886.2725280000013,None,886.785556799965,None,886.785556799965,None,f,1.164671599981375,886.785556799965,None,1.164671599981375,,,26Aloud,001,2022_Aug_15_1454,ProdSingRedoBetween,2021.2.3,59.951714884089206,
,,,,4,0,4,0,,,,,,,,,,,,,,,,,,,,,,892.8602335999603,None,,,,,,,,,,,,,,,,,split,117,5,aloud,new,null,888.4817096999614,None,888.4817096999614,None,1,2.8768222000217065,888.4817096999614,None,2.8768222000217065,891.3835191999678,None,891.8910315999528,None,891.8910315999528,None,n,0.9392980000120588,891.8910315999528,None,0.9392980000120588,,,26Aloud,001,2022_Aug_15_1454,ProdSingRedoBetween,2021.2.3,59.951714884089206,
,,,,5,0,5,0,,,,,,,,,,,,,,,,,,,,,,900.5993160000071,None,,,,,,,,,,,,,,,,,stranger,94,6,aloud,new,null,893.3806317999843,None,893.3806317999843,None,4,5.953884300019126,893.3806317999843,None,5.953884300019126,899.3722341999528,None,899.8819866999984,None,899.8819866999984,None,f,0.6922913999878801,899.8819866999984,None,0.6922913999878801,,,26Aloud,001,2022_Aug_15_1454,ProdSingRedoBetween,2021.2.3,59.951714884089206,
,,,,6,0,6,0,,,,,,,,,,,,,,,,,,,,,,905.4377708999673,None,,,,,,,,,,,,,,,,,column,36,7,aloud,old,blue,901.1099583999603,None,901.1099583999603,None,6,2.024216699996032,901.1099583999603,None,2.024216699996032,903.1539104999974,None,903.6740672999877,None,903.6740672999877,None,r,1.7402947000227869,903.6740672999877,None,1.7402947000227869,,,26Aloud,001,2022_Aug_15_1454,ProdSingRedoBetween,2021.2.3,59.951714884089206,
,,,,7,0,7,0,,,,,,,,,,,,,,,,,,,,,,909.7083881999715,None,,,,,,,,,,,,,,,,,cross,25,8,aloud,old,yellow,905.9557165000006,None,905.9557165000006,None,6,2.5065373000106774,905.9557165000006,None,2.5065373000106774,908.4937162999995,None,909.0169258000096,None,909.0169258000096,None,r,0.6613260000012815,909.0169258000096,None,0.6613260000012815,,,26Aloud,001,2022_Aug_15_1454,ProdSingRedoBetween,2021.2.3,59.951714884089206,
,,,,8,0,8,0,,,,,,,,,,,,,,,,,,,,,,914.5307415999705,None,,,,,,,,,,,,,,,,,breath,85,9,aloud,old,red,910.2213962000096,None,910.2213962000096,None,6,2.720850799989421,910.2213962000096,None,2.720850799989421,912.9649143999559,None,913.4860463999794,None,913.4860463999794,None,r,1.0162277999916114,913.4860463999794,None,1.0162277999916114,,,26Aloud,001,2022_Aug_15_1454,ProdSingRedoBetween,2021.2.3,59.951714884089206,
,,,,9,0,9,0,,,,,,,,,,,,,,,,,,,,,,920.0227363999584,None,,,,,,,,,,,,,,,,,republic,142,10,aloud,new,null,915.0463851999957,None,915.0463851999957,None,1,3.031837600050494,915.0463851999957,None,3.031837600050494,918.1035605999641,None,918.6201452999958,None,918.6201452999958,None,n,1.3782349999528378,918.6201452999958,None,1.3782349999528378,,,26Aloud,001,2022_Aug_15_1454,ProdSingRedoBetween,2021.2.3,59.951714884089206,
,,,,10,0,10,0,,,,,,,,,,,,,,,,,,,,,,925.4751148999785,None,,,,,,,,,,,,,,,,,point,125,11,aloud,new,null,920.5488833999843,None,920.5488833999843,None,1,3.657425100042019,920.5488833999843,None,3.657425100042019,924.2264185000095,None,924.7452415999724,None,924.7452415999724,None,n,0.7010844000033103,924.7452415999724,None,0.7010844000033103,,,26Aloud,001,2022_Aug_15_1454,ProdSingRedoBetween,2021.2.3,59.951714884089206,
,,,,11,0,11,0,,,,,,,,,,,,,,,,,,,,,,929.3779503999976,None,,,,,,,,,,,,,,,,,permit,151,12,aloud,new,null,925.9804659999791,None,925.9804659999791,None,1,2.098008700006176,925.9804659999791,None,2.098008700006176,928.1015899999766,None,928.6116407999652,None,928.6116407999652,None,n,0.7466355999931693,928.6116407999652,None,0.7466355999931693,,,26Aloud,001,2022_Aug_15_1454,ProdSingRedoBetween,2021.2.3,59.951714884089206,
,,,,12,0,12,0,,,,,,,,,,,,,,,,,,,,,,933.669179199962,None,,,,,,,,,,,,,,,,,listen,18,13,aloud,old,yellow,929.8920720999595,None,929.8920720999595,None,6,2.314158200053498,929.8920720999595,None,2.314158200053498,932.2355106999748,None,932.7556467999821,None,932.7556467999821,None,r,0.8907235999940895,932.7556467999821,None,0.8907235999940895,,,26Aloud,001,2022_Aug_15_1454,ProdSingRedoBetween,2021.2.3,59.951714884089206,
,,,,13,0,13,0,,,,,,,,,,,,,,,,,,,,,,937.2525533000007,None,,,,,,,,,,,,,,,,,reading,1,14,aloud,old,yellow,934.1883887999575,None,934.1883887999575,None,6,1.666140599991195,934.1883887999575,None,1.666140599991195,935.8957642999594,None,936.4066304999869,None,936.4066304999869,None,r,0.8155922000296414,936.4066304999869,None,0.8155922000296414,,,26Aloud,001,2022_Aug_15_1454,ProdSingRedoBetween,2021.2.3,59.951714884089206,
,,,,14,0,14,0,,,,,,,,,,,,,,,,,,,,,,942.3251409999793,None,,,,,,,,,,,,,,,,,author,106,15,aloud,new,null,937.7635321999551,None,937.7635321999551,None,2,3.33073929999955,937.7635321999551,None,3.33073929999955,941.1249351999722,None,941.6480173000018,None,941.6480173000018,None,n,0.646260200010147,941.6480173000018,None,0.646260200010147,,,26Aloud,001,2022_Aug_15_1454,ProdSingRedoBetween,2021.2.3,59.951714884089206,
,,,,15,0,15,0,,,,,,,,,,,,,,,,,,,,,,950.7492745000054,None,,,,,,,,,,,,,,,,,burden,149,16,aloud,new,null,942.8347560999682,None,942.8347560999682,None,3,6.635376000020187,942.8347560999682,None,6.635376000020187,949.4981126000057,None,950.0008536999812,None,950.0008536999812,None,n,0.7253936000051908,950.0008536999812,None,0.7253936000051908,,,26Aloud,001,2022_Aug_15_1454,ProdSingRedoBetween,2021.2.3,59.951714884089206,
,,,,16,0,16,0,,,,,,,,,,,,,,,,,,,,,,954.653223500005,None,,,,,,,,,,,,,,,,,minor,166,17,aloud,new,null,951.2614690999617,None,951.2614690999617,None,1,2.0727381000178866,951.2614690999617,None,2.0727381000178866,953.3550943000009,None,953.8719894000096,None,953.8719894000096,None,n,0.7502393999602646,953.8719894000096,None,0.7502393999602646,,,26Aloud,001,2022_Aug_15_1454,ProdSingRedoBetween,2021.2.3,59.951714884089206,
,,,,17,0,17,0,,,,,,,,,,,,,,,,,,,,,,958.5237153999624,None,,,,,,,,,,,,,,,,,brilliant,2,18,aloud,old,yellow,955.1645450000069,None,955.1645450000069,None,6,2.0097850999445654,955.1645450000069,None,2.0097850999445654,957.2098102999735,None,957.7309581000009,None,957.7309581000009,None,r,0.7712930999696255,957.7309581000009,None,0.7712930999696255,,,26Aloud,001,2022_Aug_15_1454,ProdSingRedoBetween,2021.2.3,59.951714884089206,
,,,,18,0,18,0,,,,,,,,,,,,,,,,,,,,,,963.9459331999533,None,,,,,,,,,,,,,,,,,commercial,53,19,aloud,old,blue,959.0339971999638,None,959.0339971999638,None,5,4.012265699973796,959.0339971999638,None,4.012265699973796,963.0661094999523,None,963.5825377999572,None,963.5825377999572,None,f,0.34369300003163517,963.5825377999572,None,0.34369300003163517,,,26Aloud,001,2022_Aug_15_1454,ProdSingRedoBetween,2021.2.3,59.951714884089206,
,,,,19,0,19,0,,,,,,,,,,,,,,,,,,,,,,968.5337327999878,None,,,,,,,,,,,,,,,,,problem,92,20,aloud,new,null,964.460420599964,None,964.460420599964,None,5,2.9138059000251815,964.460420599964,None,2.9138059000251815,967.4027154999785,None,967.9217349999817,None,967.9217349999817,None,f,0.5884641999728046,967.9217349999817,None,0.5884641999728046,,,26Aloud,001,2022_Aug_15_1454,ProdSingRedoBetween,2021.2.3,59.951714884089206,
,,,,20,0,20,0,,,,,,,,,,,,,,,,,,,,,,972.1707134000026,None,,,,,,,,,,,,,,,,,express,82,21,aloud,old,red,969.0423291999614,None,969.0423291999614,None,6,2.2200555999879725,969.0423291999614,None,2.2200555999879725,971.2912333999993,None,971.8038420999656,None,971.8038420999656,None,r,0.33845079998718575,971.8038420999656,None,0.33845079998718575,,,26Aloud,001,2022_Aug_15_1454,ProdSingRedoBetween,2021.2.3,59.951714884089206,
,,,,21,0,21,0,,,,,,,,,,,,,,,,,,,,,,976.4916155999526,None,,,,,,,,,,,,,,,,,signal,23,22,aloud,old,yellow,972.683502800006,None,972.683502800006,None,4,2.8747245000558905,972.683502800006,None,2.8747245000558905,975.577628900006,None,976.1013873000047,None,976.1013873000047,None,f,0.3608949000481516,976.1013873000047,None,0.3608949000481516,,,26Aloud,001,2022_Aug_15_1454,ProdSingRedoBetween,2021.2.3,59.951714884089206,
,,,,22,0,22,0,,,,,,,,,,,,,,,,,,,,,,981.8804903999553,None,,,,,,,,,,,,,,,,,literature,124,23,aloud,new,null,977.0057481999975,None,977.0057481999975,None,1,3.1445889999740757,977.0057481999975,None,3.1445889999740757,980.1831032999908,None,980.6987817999907,None,980.6987817999907,None,n,1.155455100000836,980.6987817999907,None,1.155455100000836,,,26Aloud,001,2022_Aug_15_1454,ProdSingRedoBetween,2021.2.3,59.951714884089206,
,,,,23,0,23,0,,,,,,,,,,,,,,,,,,,,,,986.0523746999679,None,,,,,,,,,,,,,,,,,balance,75,24,aloud,old,red,982.3954186000046,None,982.3954186000046,None,4,2.7385138000245206,982.3954186000046,None,2.7385138000245206,985.1536691999645,None,985.6678145999904,None,985.6678145999904,None,f,0.35457450000103563,985.6678145999904,None,0.35457450000103563,,,26Aloud,001,2022_Aug_15_1454,ProdSingRedoBetween,2021.2.3,59.951714884089206,
,,,,24,0,24,0,,,,,,,,,,,,,,,,,,,,,,989.5269634999568,None,,,,,,,,,,,,,,,,,heavy,157,25,aloud,new,null,986.557145299972,None,986.557145299972,None,1,1.9290126000414602,986.557145299972,None,1.9290126000414602,988.5051852999604,None,989.011128299986,None,989.011128299986,None,n,0.4832740999991074,989.011128299986,None,0.4832740999991074,,,26Aloud,001,2022_Aug_15_1454,ProdSingRedoBetween,2021.2.3,59.951714884089206,
,,,,25,0,25,0,,,,,,,,,,,,,,,,,,,,,,993.9925281999749,None,,,,,,,,,,,,,,,,,present,84,26,aloud,old,red,990.0507487999857,None,990.0507487999857,None,4,3.1395649999612942,990.0507487999857,None,3.1395649999612942,993.2170076000039,None,993.7308923999663,None,993.7308923999663,None,f,0.23533349996432662,993.7308923999663,None,0.23533349996432662,,,26Aloud,001,2022_Aug_15_1454,ProdSingRedoBetween,2021.2.3,59.951714884089206,
,,,,26,0,26,0,,,,,,,,,,,,,,,,,,,,,,998.5992358999792,None,,,,,,,,,,,,,,,,,month,48,27,aloud,old,blue,994.5052259999793,None,994.5052259999793,None,4,3.3729832000099123,994.5052259999793,None,3.3729832000099123,997.8997311999556,None,998.4217952999752,None,998.4217952999752,None,f,0.14449350000359118,998.4217952999752,None,0.14449350000359118,,,26Aloud,001,2022_Aug_15_1454,ProdSingRedoBetween,2021.2.3,59.951714884089206,
,,,,27,0,27,0,,,,,,,,,,,,,,,,,,,,,,1003.2683827999863,None,,,,,,,,,,,,,,,,,music,65,28,aloud,old,red,999.1345865000039,None,999.1345865000039,None,1,2.935849200002849,999.1345865000039,None,2.935849200002849,1002.1114420999656,None,1002.6220334999962,None,1002.6220334999962,None,n,0.6242477000341751,1002.6220334999962,None,0.6242477000341751,,,26Aloud,001,2022_Aug_15_1454,ProdSingRedoBetween,2021.2.3,59.951714884089206,
,,,,28,0,28,0,,,,,,,,,,,,,,,,,,,,,,1007.0911176999798,None,,,,,,,,,,,,,,,,,guard,156,29,aloud,new,null,1003.7842947999598,None,1003.7842947999598,None,1,2.1901257999707013,1003.7842947999598,None,2.1901257999707013,1006.0113380999537,None,1006.5219272999675,None,1006.5219272999675,None,n,0.5485743000172079,1006.5219272999675,None,0.5485743000172079,,,26Aloud,001,2022_Aug_15_1454,ProdSingRedoBetween,2021.2.3,59.951714884089206,
,,,,29,0,29,0,,,,,,,,,,,,,,,,,,,,,,1010.0585638000048,None,,,,,,,,,,,,,,,,,enemy,90,30,aloud,new,null,1007.6123121999553,None,1007.6123121999553,None,1,1.4498004000051878,1007.6123121999553,None,1.4498004000051878,1009.0973043999984,None,1009.6125464999932,None,1009.6125464999932,None,n,0.4177700000000186,1009.6125464999932,None,0.4177700000000186,,,26Aloud,001,2022_Aug_15_1454,ProdSingRedoBetween,2021.2.3,59.951714884089206,
,,,,30,0,30,0,,,,,,,,,,,,,,,,,,,,,,1014.396302499983,None,,,,,,,,,,,,,,,,,public,26,31,aloud,old,yellow,1010.5651934999623,None,1010.5651934999623,None,3,2.5290124000166543,1010.5651934999623,None,2.5290124000166543,1013.117162199982,None,1013.632054799993,None,1013.632054799993,None,f,0.7342013000161387,1013.632054799993,None,0.7342013000161387,,,26Aloud,001,2022_Aug_15_1454,ProdSingRedoBetween,2021.2.3,59.951714884089206,
,,,,31,0,31,0,,,,,,,,,,,,,,,,,,,,,,1018.3000931999995,None,,,,,,,,,,,,,,,,,distance,68,32,aloud,old,red,1014.9126408000011,None,1014.9126408000011,None,6,1.8135930999997072,1014.9126408000011,None,1.8135930999997072,1016.753428499971,None,1017.2659621000057,None,1017.2659621000057,None,r,1.0123060999903828,1017.2659621000057,None,1.0123060999903828,,,26Aloud,001,2022_Aug_15_1454,ProdSingRedoBetween,2021.2.3,59.951714884089206,
,,,,32,0,32,0,,,,,,,,,,,,,,,,,,,,,,1021.7035908999969,None,,,,,,,,,,,,,,,,,comfort,103,33,aloud,new,null,1018.8172474000021,None,1018.8172474000021,None,1,1.9169419000390917,1018.8172474000021,None,1.9169419000390917,1020.7574557999615,None,1021.2742979999748,None,1021.2742979999748,None,n,0.40390160004608333,1021.2742979999748,None,0.40390160004608333,,,26Aloud,001,2022_Aug_15_1454,ProdSingRedoBetween,2021.2.3,59.951714884089206,
,,,,33,0,33,0,,,,,,,,,,,,,,,,,,,,,,1024.6427208000096,None,,,,,,,,,,,,,,,,,birth,98,34,aloud,new,null,1022.2112482999801,None,1022.2112482999801,None,1,1.3949837999534793,1022.2112482999801,None,1.3949837999534793,1023.6287807999761,None,1024.139653499995,None,1024.139653499995,None,n,0.47466180002084,1024.139653499995,None,0.47466180002084,,,26Aloud,001,2022_Aug_15_1454,ProdSingRedoBetween,2021.2.3,59.951714884089206,
,,,,34,0,34,0,,,,,,,,,,,,,,,,,,,,,,1028.1280172999832,None,,,,,,,,,,,,,,,,,error,99,35,aloud,new,null,1025.1739592999802,None,1025.1739592999802,None,1,1.696323800017126,1025.1739592999802,None,1.696323800017126,1026.8978743999614,None,1027.4094787999638,None,1027.4094787999638,None,n,0.6927911000093445,1027.4094787999638,None,0.6927911000093445,,,26Aloud,001,2022_Aug_15_1454,ProdSingRedoBetween,2021.2.3,59.951714884089206,
,,,,35,0,35,0,,,,,,,,,,,,,,,,,,,,,,1034.065872499952,None,,,,,,,,,,,,,,,,,household,126,36,aloud,new,null,1028.6325696999556,None,1028.6325696999556,None,3,4.605572899978142,1028.6325696999556,None,4.605572899978142,1033.2661857999628,None,1033.7698871999746,None,1033.7698871999746,None,n,0.2763396000373177,1033.7698871999746,None,0.2763396000373177,,,26Aloud,001,2022_Aug_15_1454,ProdSingRedoBetween,2021.2.3,59.951714884089206,
,,,,36,0,36,0,,,,,,,,,,,,,,,,,,,,,,1038.6231469999766,None,,,,,,,,,,,,,,,,,running,4,37,aloud,old,yellow,1034.5745039999601,None,1034.5745039999601,None,4,3.4318615999654867,1034.5745039999601,None,3.4318615999654867,1038.0476756999851,None,1038.5539581999765,None,1038.5539581999765,None,f,0.04438559996197,1038.5539581999765,None,0.04438559996197,,,26Aloud,001,2022_Aug_15_1454,ProdSingRedoBetween,2021.2.3,59.951714884089206,
,,,,37,0,37,0,,,,,,,,,,,,,,,,,,,,,,1043.3443454999942,None,,,,,,,,,,,,,,,,,pattern,17,38,aloud,old,yellow,1039.1430776999914,None,1039.1430776999914,None,6,3.4951736999792047,1039.1430776999914,None,3.4951736999792047,1042.661316099984,None,1043.1834124999586,None,1043.1834124999586,None,r,0.14305030001560226,1043.1834124999586,None,0.14305030001560226,,,26Aloud,001,2022_Aug_15_1454,ProdSingRedoBetween,2021.2.3,59.951714884089206,
,,,,38,0,38,0,,,,,,,,,,,,,,,,,,,,,,1050.315521499957,None,,,,,,,,,,,,,,,,,throw,0,39,aloud,old,yellow,1043.8631058000028,None,1043.8631058000028,None,5,5.615405699994881,1043.8631058000028,None,5.615405699994881,1049.5083880999591,None,1050.0204064999707,None,1050.0204064999707,None,f,0.26581509999232367,1050.0204064999707,None,0.26581509999232367,,,26Aloud,001,2022_Aug_15_1454,ProdSingRedoBetween,2021.2.3,59.951714884089206,
,,,,39,0,39,0,,,,,,,,,,,,,,,,,,,,,,1054.6531321000075,None,,,,,,,,,,,,,,,,,review,89,40,aloud,old,red,1050.830017899978,None,1050.830017899978,None,2,3.016478499979712,1050.830017899978,None,3.016478499979712,1053.8818775999825,None,1054.3912150999531,None,1054.3912150999531,None,n,0.23900090000825003,1054.3912150999531,None,0.23900090000825003,,,26Aloud,001,2022_Aug_15_1454,ProdSingRedoBetween,2021.2.3,59.951714884089206,
,,,,40,0,40,0,,,,,,,,,,,,,,,,,,,,,,1061.576710399997,None,,,,,,,,,,,,,,,,,pressure,130,41,aloud,new,null,1055.1658021999756,None,1055.1658021999756,None,4,4.104704400000628,1055.1658021999756,None,4.104704400000628,1059.298575999972,None,1059.808471299999,None,1059.808471299999,None,n,1.7497745999717154,1059.808471299999,None,1.7497745999717154,,,26Aloud,001,2022_Aug_15_1454,ProdSingRedoBetween,2021.2.3,59.951714884089206,
,,,,41,0,41,0,,,,,,,,,,,,,,,,,,,,,,1066.2814335000003,None,,,,,,,,,,,,,,,,,property,73,42,aloud,old,red,1062.090684900002,None,1062.090684900002,None,1,3.475784499954898,1062.090684900002,None,3.475784499954898,1065.6064616999938,None,1066.1208664999576,None,1066.1208664999576,None,n,0.1413721000426449,1066.1208664999576,None,0.1413721000426449,,,26Aloud,001,2022_Aug_15_1454,ProdSingRedoBetween,2021.2.3,59.951714884089206,
,,,,42,0,42,0,,,,,,,,,,,,,,,,,,,,,,1072.504265399999,None,,,,,,,,,,,,,,,,,speech,114,43,aloud,new,null,1066.7914485000074,None,1066.7914485000074,None,4,3.8708694000379182,1066.7914485000074,None,3.8708694000379182,1070.6913510999875,None,1071.2043503999594,None,1071.2043503999594,None,f,1.2740586000145413,1071.2043503999594,None,1.2740586000145413,,,26Aloud,001,2022_Aug_15_1454,ProdSingRedoBetween,2021.2.3,59.951714884089206,
,,,,43,0,43,0,,,,,,,,,,,,,,,,,,,,,,1075.2404287999962,None,,,,,,,,,,,,,,,,,poetry,161,44,aloud,new,null,1073.0156966999639,None,1073.0156966999639,None,1,1.6146164999809116,1073.0156966999639,None,1.6146164999809116,1074.6577815999626,None,1075.1621165999677,None,1075.1621165999677,None,n,0.06016950000775978,1075.1621165999677,None,0.06016950000775978,,,26Aloud,001,2022_Aug_15_1454,ProdSingRedoBetween,2021.2.3,59.951714884089206,
,,,,44,0,44,0,,,,,,,,,,,,,,,,,,,,,,1079.4314392000088,None,,,,,,,,,,,,,,,,,weather,56,45,aloud,old,blue,1075.7549282999826,None,1075.7549282999826,None,6,2.8753752000047825,1075.7549282999826,None,2.8753752000047825,1078.668606799969,None,1079.180082899984,None,1079.180082899984,None,r,0.21828290005214512,1079.180082899984,None,0.21828290005214512,,,26Aloud,001,2022_Aug_15_1454,ProdSingRedoBetween,2021.2.3,59.951714884089206,
,,,,45,0,45,0,,,,,,,,,,,,,,,,,,,,,,1084.5536000999855,None,,,,,,,,,,,,,,,,,material,146,46,aloud,new,null,1079.960787399963,None,1079.960787399963,None,3,3.6614612000412308,1079.960787399963,None,3.6614612000412308,1083.6505479000043,None,1084.1705795999733,None,1084.1705795999733,None,f,0.36390699999174103,1084.1705795999733,None,0.36390699999174103,,,26Aloud,001,2022_Aug_15_1454,ProdSingRedoBetween,2021.2.3,59.951714884089206,
,,,,46,0,46,0,,,,,,,,,,,,,,,,,,,,,,1088.621842499997,None,,,,,,,,,,,,,,,,,worker,160,47,aloud,new,null,1085.0728588000056,None,1085.0728588000056,None,1,2.8295102000120096,1085.0728588000056,None,2.8295102000120096,1087.9273459999822,None,1088.4423166000051,None,1088.4423166000051,None,n,0.1559850000194274,1088.4423166000051,None,0.1559850000194274,,,26Aloud,001,2022_Aug_15_1454,ProdSingRedoBetween,2021.2.3,59.951714884089206,
,,,,47,0,47,0,,,,,,,,,,,,,,,,,,,,,,1091.356495599961,None,,,,,,,,,,,,,,,,,trend,136,48,aloud,new,null,1089.1358691999922,None,1089.1358691999922,None,1,1.3344745999784209,1089.1358691999922,None,1.3344745999784209,1090.4927951999707,None,1091.0100419999799,None,1091.0100419999799,None,n,0.3243145000305958,1091.0100419999799,None,0.3243145000305958,,,26Aloud,001,2022_Aug_15_1454,ProdSingRedoBetween,2021.2.3,59.951714884089206,
,,,,48,0,48,0,,,,,,,,,,,,,,,,,,,,,,1095.7442033999832,None,,,,,,,,,,,,,,,,,scene,22,49,aloud,old,yellow,1091.871783599956,None,1091.871783599956,None,3,3.1503809000132605,1091.871783599956,None,3.1503809000132605,1095.046082899964,None,1095.5609403999988,None,1095.5609403999988,None,n,0.1571614000131376,1095.5609403999988,None,0.1571614000131376,,,26Aloud,001,2022_Aug_15_1454,ProdSingRedoBetween,2021.2.3,59.951714884089206,
,,,,49,0,49,0,,,,,,,,,,,,,,,,,,,,,,1098.4802383999922,None,,,,,,,,,,,,,,,,,orchestra,105,50,aloud,new,null,1096.2446225999738,None,1096.2446225999738,None,1,1.5536226999829523,1096.2446225999738,None,1.5536226999829523,1097.8316117000068,None,1098.346906699997,None,1098.346906699997,None,n,0.10726100002648309,1098.346906699997,None,0.10726100002648309,,,26Aloud,001,2022_Aug_15_1454,ProdSingRedoBetween,2021.2.3,59.951714884089206,
,,,,50,0,50,0,,,,,,,,,,,,,,,,,,,,,,1103.5689600000042,None,,,,,,,,,,,,,,,,,couch,81,51,aloud,old,red,1098.9808532999596,None,1098.9808532999596,None,5,3.601613399980124,1098.9808532999596,None,3.601613399980124,1102.6012642999995,None,1103.1015987999854,None,1103.1015987999854,None,f,0.44055619998835027,1103.1015987999854,None,0.44055619998835027,,,26Aloud,001,2022_Aug_15_1454,ProdSingRedoBetween,2021.2.3,59.951714884089206,
,,,,51,0,51,0,,,,,,,,,,,,,,,,,,,,,,1107.1058786999783,None,,,,,,,,,,,,,,,,,object,46,52,aloud,old,blue,1104.069275799964,None,1104.069275799964,None,6,2.0968590999837033,1104.069275799964,None,2.0968590999837033,1106.190076400002,None,1106.7052639999893,None,1106.7052639999893,None,r,0.3728716000332497,1106.7052639999893,None,0.3728716000332497,,,26Aloud,001,2022_Aug_15_1454,ProdSingRedoBetween,2021.2.3,59.951714884089206,
,,,,52,0,52,0,,,,,,,,,,,,,,,,,,,,,,1110.9955595000065,None,,,,,,,,,,,,,,,,,threat,32,53,aloud,old,blue,1107.6064994999906,None,1107.6064994999906,None,5,2.7436103000072762,1107.6064994999906,None,2.7436103000072762,1110.375495699991,None,1110.8760694999946,None,1110.8760694999946,None,f,0.09000879997620359,1110.8760694999946,None,0.09000879997620359,,,26Aloud,001,2022_Aug_15_1454,ProdSingRedoBetween,2021.2.3,59.951714884089206,
,,,,53,0,53,0,,,,,,,,,,,,,,,,,,,,,,1113.582296699984,None,,,,,,,,,,,,,,,,,bureau,30,54,aloud,old,blue,1111.511043299979,None,1111.511043299979,None,6,1.415130199980922,1111.511043299979,None,1.415130199980922,1112.949833199964,None,1113.4620188999688,None,1113.4620188999688,None,r,0.09610219998285174,1113.4620188999688,None,0.09610219998285174,,,26Aloud,001,2022_Aug_15_1454,ProdSingRedoBetween,2021.2.3,59.951714884089206,
,,,,54,0,54,0,,,,,,,,,,,,,,,,,,,,,,1116.4324618999963,None,,,,,,,,,,,,,,,,,group,102,55,aloud,new,null,1114.0979315000004,None,1114.0979315000004,None,6,1.780219100008253,1114.0979315000004,None,1.780219100008253,1115.8977389999782,None,1116.3987303999602,None,1116.3987303999602,None,r,0.015422399970702827,1116.3987303999602,None,0.015422399970702827,,,26Aloud,001,2022_Aug_15_1454,ProdSingRedoBetween,2021.2.3,59.951714884089206,
,,,,55,0,55,0,,,,,,,,,,,,,,,,,,,,,,1120.8222055999795,None,,,,,,,,,,,,,,,,,career,139,56,aloud,new,null,1116.9367383999634,None,1116.9367383999634,None,5,2.9413596999947913,1116.9367383999634,None,2.9413596999947913,1119.9051945999963,None,1120.4189866000088,None,1120.4189866000088,None,f,0.37111030000960454,1120.4189866000088,None,0.37111030000960454,,,26Aloud,001,2022_Aug_15_1454,ProdSingRedoBetween,2021.2.3,59.951714884089206,
,,,,56,0,56,0,,,,,,,,,,,,,,,,,,,,,,1123.4552345999982,None,,,,,,,,,,,,,,,,,smell,163,57,aloud,new,null,1121.3377817999572,None,1121.3377817999572,None,1,1.4603562999982387,1121.3377817999572,None,1.4603562999982387,1122.8212596999947,None,1123.3217006999766,None,1123.3217006999766,None,n,0.11644220002926886,1123.3217006999766,None,0.11644220002926886,,,26Aloud,001,2022_Aug_15_1454,ProdSingRedoBetween,2021.2.3,59.951714884089206,
,,,,57,0,57,0,,,,,,,,,,,,,,,,,,,,,,1125.977269099967,None,,,,,,,,,,,,,,,,,cousin,67,58,aloud,old,red,1123.9608179999632,None,1123.9608179999632,None,6,1.4613363000098616,1123.9608179999632,None,1.4613363000098616,1125.4409404000035,None,1125.941241399967,None,1125.941241399967,None,r,0.008878399967215955,1125.941241399967,None,0.008878399967215955,,,26Aloud,001,2022_Aug_15_1454,ProdSingRedoBetween,2021.2.3,59.951714884089206,
,,,,58,0,58,0,,,,,,,,,,,,,,,,,,,,,,1131.1795430000057,None,,,,,,,,,,,,,,,,,union,10,59,aloud,old,yellow,1126.4924511999707,None,1126.4924511999707,None,6,2.1216690999572165,1126.4924511999707,None,2.1216690999572165,1128.6441847999813,None,1129.1442622999894,None,1129.1442622999894,None,r,2.0059290999779478,1129.1442622999894,None,2.0059290999779478,,,26Aloud,001,2022_Aug_15_1454,ProdSingRedoBetween,2021.2.3,59.951714884089206,
,,,,59,0,59,0,,,,,,,,,,,,,,,,,,,,,,1134.7164411999984,None,,,,,,,,,,,,,,,,,citizen,159,60,aloud,new,null,1131.6828810999868,None,1131.6828810999868,None,2,2.195356799988076,1131.6828810999868,None,2.195356799988076,1133.8990784999914,None,1134.4001221999642,None,1134.4001221999642,None,n,0.29410070000449196,1134.4001221999642,None,0.29410070000449196,,,26Aloud,001,2022_Aug_15_1454,ProdSingRedoBetween,2021.2.3,59.951714884089206,
,,,,60,0,60,0,,,,,,,,,,,,,,,,,,,,,,1139.1541720999521,None,,,,,,,,,,,,,,,,,little,101,61,aloud,new,null,1135.2169895999832,None,1135.2169895999832,None,2,3.2851759000332095,1135.2169895999832,None,3.2851759000332095,1138.520239799982,None,1139.020845799998,None,1139.020845799998,None,n,0.11329989996738732,1139.020845799998,None,0.11329989996738732,,,26Aloud,001,2022_Aug_15_1454,ProdSingRedoBetween,2021.2.3,59.951714884089206,
,,,,61,0,61,0,,,,,,,,,,,,,,,,,,,,,,1143.6753044999787,None,,,,,,,,,,,,,,,,,range,74,62,aloud,old,red,1139.6548005999648,None,1139.6548005999648,None,5,2.887334799976088,1139.6548005999648,None,2.887334799976088,1142.5578789999709,None,1143.0582300999667,None,1143.0582300999667,None,f,0.5878510000184178,1143.0582300999667,None,0.5878510000184178,,,26Aloud,001,2022_Aug_15_1454,ProdSingRedoBetween,2021.2.3,59.951714884089206,
,,,,62,0,62,0,,,,,,,,,,,,,,,,,,,,,,1148.2132333999616,None,,,,,,,,,,,,,,,,,gesture,97,63,aloud,new,null,1144.1915868999786,None,1144.1915868999786,None,3,3.4064979000249878,1144.1915868999786,None,3.4064979000249878,1147.6292539999704,None,1148.1299739999813,None,1148.1299739999813,None,n,0.06816159997833893,1148.1299739999813,None,0.06816159997833893,,,26Aloud,001,2022_Aug_15_1454,ProdSingRedoBetween,2021.2.3,59.951714884089206,
,,,,63,0,63,0,,,,,,,,,,,,,,,,,,,,,,1151.7667239999864,None,,,,,,,,,,,,,,,,,guest,87,64,aloud,old,red,1148.7138136999565,None,1148.7138136999565,None,6,2.420402899966575,1148.7138136999565,None,2.420402899966575,1151.1495628999546,None,1151.650106999965,None,1151.650106999965,None,r,0.09208789997501299,1151.650106999965,None,0.09208789997501299,,,26Aloud,001,2022_Aug_15_1454,ProdSingRedoBetween,2021.2.3,59.951714884089206,
,,,,64,0,64,0,,,,,,,,,,,,,,,,,,,,,,1155.9876728999661,None,,,,,,,,,,,,,,,,,state,76,65,aloud,old,red,1152.2674423999852,None,1152.2674423999852,None,2,2.32269030000316,1152.2674423999852,None,2.32269030000316,1154.6196945999982,None,1155.1202430999838,None,1155.1202430999838,None,n,0.8378836999763735,1155.1202430999838,None,0.8378836999763735,,,26Aloud,001,2022_Aug_15_1454,ProdSingRedoBetween,2021.2.3,59.951714884089206,
,,,,65,0,65,0,,,,,,,,,,,,,,,,,,,,,,1160.5257360999822,None,,,,,,,,,,,,,,,,,impact,152,66,aloud,new,null,1156.4921431999537,None,1156.4921431999537,None,2,3.2739899000152946,1156.4921431999537,None,3.2739899000152946,1159.7936860999907,None,1160.309163399972,None,1160.309163399972,None,n,0.20113010000204667,1160.309163399972,None,0.20113010000204667,,,26Aloud,001,2022_Aug_15_1454,ProdSingRedoBetween,2021.2.3,59.951714884089206,
,,,,66,0,66,0,,,,,,,,,,,,,,,,,,,,,,1164.8324347999878,None,,,,,,,,,,,,,,,,,clear,120,67,aloud,new,null,1161.030655599956,None,1161.030655599956,None,4,3.159444999997504,1161.030655599956,None,3.159444999997504,1164.2191273999633,None,1164.7298934999853,None,1164.7298934999853,None,n,0.08425259997602552,1164.7298934999853,None,0.08425259997602552,,,26Aloud,001,2022_Aug_15_1454,ProdSingRedoBetween,2021.2.3,59.951714884089206,
,,,,67,0,67,0,,,,,,,,,,,,,,,,,,,,,,1169.8202783999732,None,,,,,,,,,,,,,,,,,contract,133,68,aloud,new,null,1165.347120099992,None,1165.347120099992,None,5,3.835126699996181,1165.347120099992,None,3.835126699996181,1169.2075909999548,None,1169.7183296000003,None,1169.7183296000003,None,f,0.07181100000161678,1169.7183296000003,None,0.07181100000161678,,,26Aloud,001,2022_Aug_15_1454,ProdSingRedoBetween,2021.2.3,59.951714884089206,
,,,,68,0,68,0,,,,,,,,,,,,,,,,,,,,,,1173.4390025999746,None,,,,,,,,,,,,,,,,,engineer,19,69,aloud,old,yellow,1170.3353369999677,None,1170.3353369999677,None,6,1.6867578999954276,1170.3353369999677,None,1.6867578999954276,1172.045111799962,None,1172.5544427999994,None,1172.5544427999994,None,r,0.8677440999890678,1172.5544427999994,None,0.8677440999890678,,,26Aloud,001,2022_Aug_15_1454,ProdSingRedoBetween,2021.2.3,59.951714884089206,
,,,,69,0,69,0,,,,,,,,,,,,,,,,,,,,,,1176.127652700001,None,,,,,,,,,,,,,,,,,light,21,70,aloud,old,yellow,1173.9395113000064,None,1173.9395113000064,None,6,1.5546544999815524,1173.9395113000064,None,1.5546544999815524,1175.530300399987,None,1176.0411942999926,None,1176.0411942999926,None,r,0.06893140001920983,1176.0411942999926,None,0.06893140001920983,,,26Aloud,001,2022_Aug_15_1454,ProdSingRedoBetween,2021.2.3,59.951714884089206,
,,,,70,0,70,0,,,,,,,,,,,,,,,,,,,,,,1179.1440666999551,None,,,,,,,,,,,,,,,,,bucket,93,71,aloud,new,null,1176.6438710999792,None,1176.6438710999792,None,4,1.8902307000244036,1176.6438710999792,None,1.8902307000244036,1178.5665895999991,None,1179.0774907000014,None,1179.0774907000014,None,f,0.040627699985634536,1179.0774907000014,None,0.040627699985634536,,,26Aloud,001,2022_Aug_15_1454,ProdSingRedoBetween,2021.2.3,59.951714884089206,
,,,,71,0,71,0,,,,,,,,,,,,,,,,,,,,,,1181.581049099972,None,,,,,,,,,,,,,,,,,religion,29,72,aloud,old,blue,1179.6478160999832,None,1179.6478160999832,None,6,1.3502651000162587,1179.6478160999832,None,1.3502651000162587,1181.0341503999662,None,1181.54663409997,None,1181.54663409997,None,r,0.003589700034353882,1181.54663409997,None,0.003589700034353882,,,26Aloud,001,2022_Aug_15_1454,ProdSingRedoBetween,2021.2.3,59.951714884089206,
,,,,72,0,72,0,,,,,,,,,,,,,,,,,,,,,,1186.3715326999663,None,,,,,,,,,,,,,,,,,skill,64,73,aloud,old,red,1182.0804654000094,None,1182.0804654000094,None,5,3.1096387000288814,1182.0804654000094,None,3.1096387000288814,1185.2209826000035,None,1185.7341397999553,None,1185.7341397999553,None,f,0.6079658000380732,1185.7341397999553,None,0.6079658000380732,,,26Aloud,001,2022_Aug_15_1454,ProdSingRedoBetween,2021.2.3,59.951714884089206,
,,,,73,0,73,0,,,,,,,,,,,,,,,,,,,,,,1190.5078871999867,None,,,,,,,,,,,,,,,,,territory,72,74,aloud,old,red,1186.8886758000008,None,1186.8886758000008,None,1,2.853449799993541,1186.8886758000008,None,2.853449799993541,1189.780389499967,None,1190.2897787999827,None,1190.2897787999827,None,n,0.1963559000287205,1190.2897787999827,None,0.1963559000287205,,,26Aloud,001,2022_Aug_15_1454,ProdSingRedoBetween,2021.2.3,59.951714884089206,
,,,,74,0,74,0,,,,,,,,,,,,,,,,,,,,,,1193.293109799968,None,,,,,,,,,,,,,,,,,tough,34,75,aloud,old,blue,1191.02483879996,None,1191.02483879996,None,6,1.3012522000353783,1191.02483879996,None,1.3012522000353783,1192.363271099981,None,1192.8750651999726,None,1192.8750651999726,None,r,0.39505009999265894,1192.8750651999726,None,0.39505009999265894,,,26Aloud,001,2022_Aug_15_1454,ProdSingRedoBetween,2021.2.3,59.951714884089206,
,,,,75,0,75,0,,,,,,,,,,,,,,,,,,,,,,1196.061538000009,None,,,,,,,,,,,,,,,,,edition,52,76,aloud,old,blue,1193.8110626999987,None,1193.8110626999987,None,6,1.5470517000067048,1193.8110626999987,None,1.5470517000067048,1195.3841168999788,None,1195.8945060999831,None,1195.8945060999831,None,r,0.1516565999481827,1195.8945060999831,None,0.1516565999481827,,,26Aloud,001,2022_Aug_15_1454,ProdSingRedoBetween,2021.2.3,59.951714884089206,
,,,,76,0,76,0,,,,,,,,,,,,,,,,,,,,,,1198.6973569999682,None,,,,,,,,,,,,,,,,,harmony,79,77,aloud,old,red,1196.5619157999754,None,1196.5619157999754,None,6,1.484212999988813,1196.5619157999754,None,1.484212999988813,1198.0683771999902,None,1198.5806817999692,None,1198.5806817999692,None,r,0.09771060000639409,1198.5806817999692,None,0.09771060000639409,,,26Aloud,001,2022_Aug_15_1454,ProdSingRedoBetween,2021.2.3,59.951714884089206,
,,,,77,0,77,0,,,,,,,,,,,,,,,,,,,,,,1201.7857889999868,None,,,,,,,,,,,,,,,,,drink,108,78,aloud,new,null,1199.1976180999773,None,1199.1976180999773,None,3,1.952578199969139,1199.1976180999773,None,1.952578199969139,1201.1684762999648,None,1201.6839981999947,None,1201.6839981999947,None,n,0.08220619999337941,1201.6839981999947,None,0.08220619999337941,,,26Aloud,001,2022_Aug_15_1454,ProdSingRedoBetween,2021.2.3,59.951714884089206,
,,,,78,0,78,0,,,,,,,,,,,,,,,,,,,,,,1205.28719860001,None,,,,,,,,,,,,,,,,,alert,150,79,aloud,new,null,1202.300865199999,None,1202.300865199999,None,1,2.297311100002844,1202.300865199999,None,2.297311100002844,1204.6249384999974,None,1205.1372732999735,None,1205.1372732999735,None,n,0.132895200047642,1205.1372732999735,None,0.132895200047642,,,26Aloud,001,2022_Aug_15_1454,ProdSingRedoBetween,2021.2.3,59.951714884089206,
,,,,79,0,79,0,,,,,,,,,,,,,,,,,,,,,,1208.056670299964,None,,,,,,,,,,,,,,,,,drama,63,80,aloud,old,red,1205.7892192999716,None,1205.7892192999716,None,5,1.6569821999873966,1205.7892192999716,None,1.6569821999873966,1207.4749991999706,None,1207.9900850999984,None,1207.9900850999984,None,f,0.0480608000070788,1207.9900850999984,None,0.0480608000070788,,,26Aloud,001,2022_Aug_15_1454,ProdSingRedoBetween,2021.2.3,59.951714884089206,
,,,,80,0,80,0,,,,,,,,,,,,,,,,,,,,,,1211.727128300001,None,,,,,,,,,,,,,,,,,junior,122,81,aloud,new,null,1208.5595407999936,None,1208.5595407999936,None,4,2.086597800021991,1208.5595407999936,None,2.086597800021991,1210.677895699977,None,1211.19337980001,None,1211.19337980001,None,f,0.5087331999675371,1211.19337980001,None,0.5087331999675371,,,26Aloud,001,2022_Aug_15_1454,ProdSingRedoBetween,2021.2.3,59.951714884089206,
,,,,81,0,81,0,,,,,,,,,,,,,,,,,,,,,,1215.1637618999812,None,,,,,,,,,,,,,,,,,block,178,82,aloud,new,null,1212.2281779999612,None,1212.2281779999612,None,1,2.281931000004988,1212.2281779999612,None,2.281931000004988,1214.532469799975,None,1215.0471298999619,None,1215.0471298999619,None,n,0.09499489999143407,1215.0471298999619,None,0.09499489999143407,,,26Aloud,001,2022_Aug_15_1454,ProdSingRedoBetween,2021.2.3,59.951714884089206,
,,,,82,0,82,0,,,,,,,,,,,,,,,,,,,,,,1218.3837274999823,None,,,,,,,,,,,,,,,,,minute,49,83,aloud,old,blue,1215.667204700003,None,1215.667204700003,None,6,2.1309491000138223,1215.667204700003,None,2.1309491000138223,1217.8193902999628,None,1218.333547099959,None,1218.333547099959,None,r,0.03265889995964244,1218.333547099959,None,0.03265889995964244,,,26Aloud,001,2022_Aug_15_1454,ProdSingRedoBetween,2021.2.3,59.951714884089206,
,,,,83,0,83,0,,,,,,,,,,,,,,,,,,,,,,1221.4867528000032,None,,,,,,,,,,,,,,,,,member,91,84,aloud,new,null,1218.8839150999556,None,1218.8839150999556,None,5,1.9862912999815308,1218.8839150999556,None,1.9862912999815308,1220.8901396999718,None,1221.4034879999817,None,1221.4034879999817,None,f,0.06673620000947267,1221.4034879999817,None,0.06673620000947267,,,26Aloud,001,2022_Aug_15_1454,ProdSingRedoBetween,2021.2.3,59.951714884089206,
,,,,84,0,84,0,,,,,,,,,,,,,,,,,,,,,,1224.87351569999,None,,,,,,,,,,,,,,,,,motion,3,85,aloud,old,yellow,1221.9900295999832,None,1221.9900295999832,None,6,2.2961160000413656,1221.9900295999832,None,2.2961160000413656,1224.306212699972,None,1224.8069341999944,None,1224.8069341999944,None,r,0.039246999949682504,1224.8069341999944,None,0.039246999949682504,,,26Aloud,001,2022_Aug_15_1454,ProdSingRedoBetween,2021.2.3,59.951714884089206,
,,,,85,0,85,0,,,,,,,,,,,,,,,,,,,,,,1227.5261724999873,None,,,,,,,,,,,,,,,,,swift,107,86,aloud,new,null,1225.3741242999677,None,1225.3741242999677,None,1,1.5520081000286154,1225.3741242999677,None,1.5520081000286154,1226.9486811999814,None,1227.4595517999842,None,1227.4595517999842,None,n,0.050569500017445534,1227.4595517999842,None,0.050569500017445534,,,26Aloud,001,2022_Aug_15_1454,ProdSingRedoBetween,2021.2.3,59.951714884089206,
,,,,86,0,86,0,,,,,,,,,,,,,,,,,,,,,,1230.0453079,None,,,,,,,,,,,,,,,,,sleep,69,87,aloud,old,red,1228.0286444000085,None,1228.0286444000085,None,6,1.209486499952618,1228.0286444000085,None,1.209486499952618,1229.261972200009,None,1229.7619507999625,None,1229.7619507999625,None,r,0.2681740000261925,1229.7619507999625,None,0.2681740000261925,,,26Aloud,001,2022_Aug_15_1454,ProdSingRedoBetween,2021.2.3,59.951714884089206,
,,,,87,0,87,0,,,,,,,,,,,,,,,,,,,,,,1232.4311591999722,None,,,,,,,,,,,,,,,,,benefit,11,88,aloud,old,yellow,1230.547778200009,None,1230.547778200009,None,6,1.2663605000125244,1230.547778200009,None,1.2663605000125244,1231.838842600002,None,1232.3477101000026,None,1232.3477101000026,None,r,0.05842100002337247,1232.3477101000026,None,0.05842100002337247,,,26Aloud,001,2022_Aug_15_1454,ProdSingRedoBetween,2021.2.3,59.951714884089206,
,,,,88,0,88,0,,,,,,,,,,,,,,,,,,,,,,1237.0021325999987,None,,,,,,,,,,,,,,,,,thick,12,89,aloud,old,yellow,1232.9341046999907,None,1232.9341046999907,None,4,1.6960341000230983,1232.9341046999907,None,1.6960341000230983,1234.6532724999706,None,1235.167125899985,None,1235.167125899985,None,n,1.8149933000095189,1235.167125899985,None,1.8149933000095189,,,26Aloud,001,2022_Aug_15_1454,ProdSingRedoBetween,2021.2.3,59.951714884089206,
,,,,89,0,89,0,,,,,,,,,,,,,,,,,,,,,,1240.605628499994,None,,,,,,,,,,,,,,,,,exchange,111,90,aloud,new,null,1237.503710399964,None,1237.503710399964,None,6,2.2144128000363708,1237.503710399964,None,2.2144128000363708,1239.7457136999583,None,1240.255605299957,None,1240.255605299957,None,r,0.32651220000116155,1240.255605299957,None,0.32651220000116155,,,26Aloud,001,2022_Aug_15_1454,ProdSingRedoBetween,2021.2.3,59.951714884089206,
,,,,90,0,90,0,,,,,,,,,,,,,,,,,,,,,,1243.2097632999648,None,,,,,,,,,,,,,,,,,military,128,91,aloud,new,null,1241.1065831999877,None,1241.1065831999877,None,1,1.3955234999884851,1241.1065831999877,None,1.3955234999884851,1242.5278554999968,None,1243.0417444999912,None,1243.0417444999912,None,n,0.14043149998178706,1243.0417444999912,None,0.14043149998178706,,,26Aloud,001,2022_Aug_15_1454,ProdSingRedoBetween,2021.2.3,59.951714884089206,
,,,,91,0,91,0,,,,,,,,,,,,,,,,,,,,,,1246.4139963999623,None,,,,,,,,,,,,,,,,,marriage,169,92,aloud,new,null,1243.725576900004,None,1243.725576900004,None,1,1.9686577999964356,1243.725576900004,None,1.9686577999964356,1245.7127920999774,None,1246.2281045999844,None,1246.2281045999844,None,n,0.16199380002217367,1246.2281045999844,None,0.16199380002217367,,,26Aloud,001,2022_Aug_15_1454,ProdSingRedoBetween,2021.2.3,59.951714884089206,
,,,,92,0,92,0,,,,,,,,,,,,,,,,,,,,,,1249.5815181999933,None,,,,,,,,,,,,,,,,,travel,174,93,aloud,new,null,1246.9290588999866,None,1246.9290588999866,None,2,2.0291055000270717,1246.9290588999866,None,2.0291055000270717,1248.982127700001,None,1249.4812578999554,None,1249.4812578999554,None,n,0.07692119997227564,1249.4812578999554,None,0.07692119997227564,,,26Aloud,001,2022_Aug_15_1454,ProdSingRedoBetween,2021.2.3,59.951714884089206,
,,,,93,0,93,0,,,,,,,,,,,,,,,,,,,,,,1253.1528084999882,None,,,,,,,,,,,,,,,,,patient,61,94,aloud,old,red,1250.0879905999755,None,1250.0879905999755,None,6,1.7981207999982871,1250.0879905999755,None,1.7981207999982871,1251.918857499957,None,1252.434535599954,None,1252.434535599954,None,r,0.6997164000058547,1252.434535599954,None,0.6997164000058547,,,26Aloud,001,2022_Aug_15_1454,ProdSingRedoBetween,2021.2.3,59.951714884089206,
,,,,94,0,94,0,,,,,,,,,,,,,,,,,,,,,,1257.0555967999971,None,,,,,,,,,,,,,,,,,quick,140,95,aloud,new,null,1253.6564188000048,None,1253.6564188000048,None,6,2.077697900007479,1253.6564188000048,None,2.077697900007479,1255.7571331000072,None,1256.2714011999778,None,1256.2714011999778,None,r,0.7667696000426076,1256.2714011999778,None,0.7667696000426076,,,26Aloud,001,2022_Aug_15_1454,ProdSingRedoBetween,2021.2.3,59.951714884089206,
,,,,95,0,95,0,,,,,,,,,,,,,,,,,,,,,,1259.824697199976,None,,,,,,,,,,,,,,,,,design,171,96,aloud,new,null,1257.5583810000098,None,1257.5583810000098,None,3,1.6797369999694638,1257.5583810000098,None,1.6797369999694638,1259.2586897999863,None,1259.7583735999651,None,1259.7583735999651,None,f,0.039757999998982996,1259.7583735999651,None,0.039757999998982996,,,26Aloud,001,2022_Aug_15_1454,ProdSingRedoBetween,2021.2.3,59.951714884089206,
,,,,96,0,96,0,,,,,,,,,,,,,,,,,,,,,,1263.7789432999562,None,,,,,,,,,,,,,,,,,damage,158,97,aloud,new,null,1260.3286337999743,None,1260.3286337999743,None,1,2.669555299973581,1260.3286337999743,None,2.669555299973581,1263.0279160999926,None,1263.5289873000002,None,1263.5289873000002,None,n,0.22915710002416745,1263.5289873000002,None,0.22915710002416745,,,26Aloud,001,2022_Aug_15_1454,ProdSingRedoBetween,2021.2.3,59.951714884089206,
,,,,97,0,97,0,,,,,,,,,,,,,,,,,,,,,,1267.5668939999887,None,,,,,,,,,,,,,,,,,spoke,31,98,aloud,old,blue,1264.2819832999958,None,1264.2819832999958,None,6,2.6521867000265047,1264.2819832999958,None,2.6521867000265047,1266.9686845999677,None,1267.4828499999712,None,1267.4828499999712,None,r,0.05932059994665906,1267.4828499999712,None,0.05932059994665906,,,26Aloud,001,2022_Aug_15_1454,ProdSingRedoBetween,2021.2.3,59.951714884089206,
,,,,98,0,98,0,,,,,,,,,,,,,,,,,,,,,,1271.119411199994,None,,,,,,,,,,,,,,,,,salary,96,99,aloud,new,null,1268.0668142999639,None,1268.0668142999639,None,3,1.9233458999660797,1268.0668142999639,None,1.9233458999660797,1270.0216205999604,None,1270.5357641999726,None,1270.5357641999726,None,n,0.5664125999901444,1270.5357641999726,None,0.5664125999901444,,,26Aloud,001,2022_Aug_15_1454,ProdSingRedoBetween,2021.2.3,59.951714884089206,
,,,,99,0,99,0,,,,,,,,,,,,,,,,,,,,,,1275.0241388999857,None,,,,,,,,,,,,,,,,,people,100,100,aloud,new,null,1271.6207878999994,None,1271.6207878999994,None,1,2.2013582999934442,1271.6207878999994,None,2.2013582999934442,1273.842501599982,None,1274.3559897000086,None,1274.3559897000086,None,n,0.6502019999898039,1274.3559897000086,None,0.6502019999898039,,,26Aloud,001,2022_Aug_15_1454,ProdSingRedoBetween,2021.2.3,59.951714884089206,
,,,,100,0,100,0,,,,,,,,,,,,,,,,,,,,,,1277.7095568999648,None,,,,,,,,,,,,,,,,,welcome,42,101,aloud,old,blue,1275.524223299988,None,1275.524223299988,None,6,1.393958400003612,1275.524223299988,None,1.393958400003612,1276.94443579996,None,1277.4594964999706,None,1277.4594964999706,None,r,0.23459880001610145,1277.4594964999706,None,0.23459880001610145,,,26Aloud,001,2022_Aug_15_1454,ProdSingRedoBetween,2021.2.3,59.951714884089206,
,,,,101,0,101,0,,,,,,,,,,,,,,,,,,,,,,1280.662615499983,None,,,,,,,,,,,,,,,,,machinery,109,102,aloud,new,null,1278.2114297999651,None,1278.2114297999651,None,1,1.6907030000002123,1278.2114297999651,None,1.6907030000002123,1279.9325469000032,None,1280.4457194999559,None,1280.4457194999559,None,n,0.19243609998375177,1280.4457194999559,None,0.19243609998375177,,,26Aloud,001,2022_Aug_15_1454,ProdSingRedoBetween,2021.2.3,59.951714884089206,
,,,,102,0,102,0,,,,,,,,,,,,,,,,,,,,,,1285.4027212999645,None,,,,,,,,,,,,,,,,,candidate,35,103,aloud,old,blue,1281.1645466999616,None,1281.1645466999616,None,3,2.9215987999923527,1281.1645466999616,None,2.9215987999923527,1284.1213709999574,None,1284.6333289999748,None,1284.6333289999748,None,f,0.7488078000023961,1284.6333289999748,None,0.7488078000023961,,,26Aloud,001,2022_Aug_15_1454,ProdSingRedoBetween,2021.2.3,59.951714884089206,
,,,,103,0,103,0,,,,,,,,,,,,,,,,,,,,,,1289.5714025999769,None,,,,,,,,,,,,,,,,,story,167,104,aloud,new,null,1285.9177413999569,None,1285.9177413999569,None,4,2.9204057000461034,1285.9177413999569,None,2.9204057000461034,1288.8570330999792,None,1289.371366199979,None,1289.371366199979,None,f,0.1787393999984488,1289.371366199979,None,0.1787393999984488,,,26Aloud,001,2022_Aug_15_1454,ProdSingRedoBetween,2021.2.3,59.951714884089206,
,,,,104,0,104,0,,,,,,,,,,,,,,,,,,,,,,1294.192658199987,None,,,,,,,,,,,,,,,,,escape,9,105,aloud,old,yellow,1290.0732986999792,None,1290.0732986999792,None,6,3.52486400003545,1290.0732986999792,None,3.52486400003545,1293.6330207999563,None,1294.1428866999922,None,1294.1428866999922,None,r,0.023230499995406717,1294.1428866999922,None,0.023230499995406717,,,26Aloud,001,2022_Aug_15_1454,ProdSingRedoBetween,2021.2.3,59.951714884089206,
,,,,105,0,105,0,,,,,,,,,,,,,,,,,,,,,,1297.212337600009,None,,,,,,,,,,,,,,,,,beginning,6,106,aloud,old,yellow,1294.6929601999582,None,1294.6929601999582,None,1,1.6652158999931999,1294.6929601999582,None,1.6652158999931999,1296.3810550000053,None,1296.8954873000039,None,1296.8954873000039,None,n,0.28664150001714006,1296.8954873000039,None,0.28664150001714006,,,26Aloud,001,2022_Aug_15_1454,ProdSingRedoBetween,2021.2.3,59.951714884089206,
,,,,106,0,106,0,,,,,,,,,,,,,,,,,,,,,,1301.2175452999654,None,,,,,,,,,,,,,,,,,agreement,154,107,aloud,new,null,1297.7143449999858,None,1297.7143449999858,None,3,2.1478193000075407,1297.7143449999858,None,2.1478193000075407,1299.8873270999757,None,1300.3991842999822,None,1300.3991842999822,None,f,0.7910443000146188,1300.3991842999822,None,0.7910443000146188,,,26Aloud,001,2022_Aug_15_1454,ProdSingRedoBetween,2021.2.3,59.951714884089206,
,,,,107,0,107,0,,,,,,,,,,,,,,,,,,,,,,1305.2537668999867,None,,,,,,,,,,,,,,,,,beauty,95,108,aloud,new,null,1301.7180572999641,None,1301.7180572999641,None,1,2.7121226000017487,1301.7180572999641,None,2.7121226000017487,1304.4552766999695,None,1304.9703719999525,None,1304.9703719999525,None,n,0.26781150000169873,1304.9703719999525,None,0.26781150000169873,,,26Aloud,001,2022_Aug_15_1454,ProdSingRedoBetween,2021.2.3,59.951714884089206,
,,,,108,0,108,0,,,,,,,,,,,,,,,,,,,,,,1308.2066810999531,None,,,,,,,,,,,,,,,,,report,123,109,aloud,new,null,1305.7563333999715,None,1305.7563333999715,None,4,1.84986650000792,1305.7563333999715,None,1.84986650000792,1307.6256802999997,None,1308.1402288999525,None,1308.1402288999525,None,f,0.049941300007048994,1308.1402288999525,None,0.049941300007048994,,,26Aloud,001,2022_Aug_15_1454,ProdSingRedoBetween,2021.2.3,59.951714884089206,
,,,,109,0,109,0,,,,,,,,,,,,,,,,,,,,,,1311.778119399969,None,,,,,,,,,,,,,,,,,vision,147,110,aloud,new,null,1308.7087111999863,None,1308.7087111999863,None,1,2.3054114999831654,1308.7087111999863,None,2.3054114999831654,1311.0462210999685,None,1311.56011999998,None,1311.56011999998,None,n,0.19002440001349896,1311.56011999998,None,0.19002440001349896,,,26Aloud,001,2022_Aug_15_1454,ProdSingRedoBetween,2021.2.3,59.951714884089206,
,,,,110,0,110,0,,,,,,,,,,,,,,,,,,,,,,1314.7466051999945,None,,,,,,,,,,,,,,,,,council,5,111,aloud,old,yellow,1312.2775719999918,None,1312.2775719999918,None,6,1.8007036999915726,1312.2775719999918,None,1.8007036999915726,1314.09613109997,None,1314.5965333000058,None,1314.5965333000058,None,r,0.12965099996654317,1314.5965333000058,None,0.12965099996654317,,,26Aloud,001,2022_Aug_15_1454,ProdSingRedoBetween,2021.2.3,59.951714884089206,
,,,,111,0,111,0,,,,,,,,,,,,,,,,,,,,,,1318.5005788999842,None,,,,,,,,,,,,,,,,,discussion,27,112,aloud,old,yellow,1315.248537699983,None,1315.248537699983,None,4,2.285610600025393,1315.248537699983,None,2.285610600025393,1317.550630099955,None,1318.0522684999742,None,1318.0522684999742,None,f,0.4258784999838099,1318.0522684999742,None,0.4258784999838099,,,26Aloud,001,2022_Aug_15_1454,ProdSingRedoBetween,2021.2.3,59.951714884089206,
,,,,112,0,112,0,,,,,,,,,,,,,,,,,,,,,,1321.9538968999987,None,,,,,,,,,,,,,,,,,capital,164,113,aloud,new,null,1319.001009700005,None,1319.001009700005,None,3,1.7811098999809474,1319.001009700005,None,1.7811098999809474,1320.8041007999564,None,1321.3199314000085,None,1321.3199314000085,None,n,0.6142070000059903,1321.3199314000085,None,0.6142070000059903,,,26Aloud,001,2022_Aug_15_1454,ProdSingRedoBetween,2021.2.3,59.951714884089206,
,,,,113,0,113,0,,,,,,,,,,,,,,,,,,,,,,1327.1757894000039,None,,,,,,,,,,,,,,,,,population,7,114,aloud,old,yellow,1322.459894599975,None,1322.459894599975,None,4,4.066251100040972,1322.459894599975,None,4.066251100040972,1326.5460330999922,None,1327.0589790999657,None,1327.0589790999657,None,f,0.09923870000056922,1327.0589790999657,None,0.09923870000056922,,,26Aloud,001,2022_Aug_15_1454,ProdSingRedoBetween,2021.2.3,59.951714884089206,
,,,,114,0,114,0,,,,,,,,,,,,,,,,,,,,,,1329.6945256000035,None,,,,,,,,,,,,,,,,,finish,57,115,aloud,old,blue,1327.6771137999604,None,1327.6771137999604,None,6,1.2410222999751568,1327.6771137999604,None,1.2410222999751568,1328.9453844999662,None,1329.4614090999821,None,1329.4614090999821,None,r,0.20872830000007525,1329.4614090999821,None,0.20872830000007525,,,26Aloud,001,2022_Aug_15_1454,ProdSingRedoBetween,2021.2.3,59.951714884089206,
,,,,115,0,115,0,,,,,,,,,,,,,,,,,,,,,,1336.837800599984,None,,,,,,,,,,,,,,,,,corner,58,116,aloud,old,blue,1330.196861399978,None,1330.196861399978,None,5,5.64134259999264,1330.196861399978,None,5.64134259999264,1335.8748397000018,None,1336.3848598999903,None,1336.3848598999903,None,f,0.42130300001008436,1336.3848598999903,None,0.42130300001008436,,,26Aloud,001,2022_Aug_15_1454,ProdSingRedoBetween,2021.2.3,59.951714884089206,
,,,,116,0,116,0,,,,,,,,,,,,,,,,,,,,,,1340.1570753999986,None,,,,,,,,,,,,,,,,,length,118,117,aloud,new,null,1337.3609292999608,None,1337.3609292999608,None,1,1.8934177000191994,1337.3609292999608,None,1.8934177000191994,1339.2716736999573,None,1339.7712998999632,None,1339.7712998999632,None,n,0.36289759998908266,1339.7712998999632,None,0.36289759998908266,,,26Aloud,001,2022_Aug_15_1454,ProdSingRedoBetween,2021.2.3,59.951714884089206,
,,,,117,0,117,0,,,,,,,,,,,,,,,,,,,,,,1342.6407129999716,None,,,,,,,,,,,,,,,,,medicine,59,118,aloud,old,yellow,1340.672916099953,None,1340.672916099953,None,6,1.2772450000047684,1340.672916099953,None,1.2772450000047684,1341.9789884999627,None,1342.491038999986,None,1342.491038999986,None,r,0.12313449999783188,1342.491038999986,None,0.12313449999783188,,,26Aloud,001,2022_Aug_15_1454,ProdSingRedoBetween,2021.2.3,59.951714884089206,
,,,,118,0,118,0,,,,,,,,,,,,,,,,,,,,,,1347.5314873000025,None,,,,,,,,,,,,,,,,,device,38,119,aloud,old,blue,1343.145452799974,None,1343.145452799974,None,3,3.80472740001278,1343.145452799974,None,3.80472740001278,1346.981481899973,None,1347.4961397000006,None,1347.4961397000006,None,f,0.014005700009875,1347.4961397000006,None,0.014005700009875,,,26Aloud,001,2022_Aug_15_1454,ProdSingRedoBetween,2021.2.3,59.951714884089206,
,,,,119,0,119,0,,,,,,,,,,,,,,,,,,,,,,1350.9500791999744,None,,,,,,,,,,,,,,,,,safety,86,120,aloud,old,red,1348.049695900001,None,1348.049695900001,None,6,1.8524512000149116,1348.049695900001,None,1.8524512000149116,1349.9391107999836,None,1350.4488113999832,None,1350.4488113999832,None,r,0.485327199974563,1350.4488113999832,None,0.485327199974563,,,26Aloud,001,2022_Aug_15_1454,ProdSingRedoBetween,2021.2.3,59.951714884089206,
,,,,120,0,120,0,,,,,,,,,,,,,,,,,,,,,,1354.0690230999608,None,,,,,,,,,,,,,,,,,youth,129,121,aloud,new,null,1351.4538572999882,None,1351.4538572999882,None,3,1.7922863999847323,1351.4538572999882,None,1.7922863999847323,1353.271798599977,None,1353.7857926999568,None,1353.7857926999568,None,f,0.2603372999583371,1353.7857926999568,None,0.2603372999583371,,,26Aloud,001,2022_Aug_15_1454,ProdSingRedoBetween,2021.2.3,59.951714884089206,
,,,,121,0,121,0,,,,,,,,,,,,,,,,,,,,,,1357.1385352999787,None,,,,,,,,,,,,,,,,,message,62,122,aloud,old,red,1354.5696037999587,None,1354.5696037999587,None,6,1.9405178999877535,1354.5696037999587,None,1.9405178999877535,1356.5418449999997,None,1357.0552716999664,None,1357.0552716999664,None,r,0.05486360000213608,1357.0552716999664,None,0.05486360000213608,,,26Aloud,001,2022_Aug_15_1454,ProdSingRedoBetween,2021.2.3,59.951714884089206,
,,,,122,0,122,0,,,,,,,,,,,,,,,,,,,,,,1359.5743223999743,None,,,,,,,,,,,,,,,,,century,80,123,aloud,old,red,1357.6409167000093,None,1357.6409167000093,None,6,1.2372183000552468,1357.6409167000093,None,1.2372183000552468,1358.9136202000082,None,1359.4242397999624,None,1359.4242397999624,None,r,0.12591729999985546,1359.4242397999624,None,0.12591729999985546,,,26Aloud,001,2022_Aug_15_1454,ProdSingRedoBetween,2021.2.3,59.951714884089206,
,,,,123,0,123,0,,,,,,,,,,,,,,,,,,,,,,1362.7465445999987,None,,,,,,,,,,,,,,,,,space,141,124,aloud,new,null,1360.077788900002,None,1360.077788900002,None,1,2.0163224999560043,1360.077788900002,None,2.0163224999560043,1362.1172310999827,None,1362.627869399963,None,1362.627869399963,None,n,0.09031409997260198,1362.627869399963,None,0.09031409997260198,,,26Aloud,001,2022_Aug_15_1454,ProdSingRedoBetween,2021.2.3,59.951714884089206,
,,,,124,0,124,0,,,,,,,,,,,,,,,,,,,,,,1366.0815504000057,None,,,,,,,,,,,,,,,,,suspect,70,125,aloud,old,red,1363.2627873999882,None,1363.2627873999882,None,6,1.7673628000193276,1363.2627873999882,None,1.7673628000193276,1365.0548009999911,None,1365.563810099964,None,1365.563810099964,None,r,0.49034459999529645,1365.563810099964,None,0.49034459999529645,,,26Aloud,001,2022_Aug_15_1454,ProdSingRedoBetween,2021.2.3,59.951714884089206,
,,,,125,0,125,0,,,,,,,,,,,,,,,,,,,,,,1368.7168994999956,None,,,,,,,,,,,,,,,,,captain,60,126,aloud,old,red,1366.5849225999555,None,1366.5849225999555,None,6,1.3013961999677122,1366.5849225999555,None,1.3013961999677122,1367.9187122999574,None,1368.4345667999587,None,1368.4345667999587,None,r,0.2516901000053622,1368.4345667999587,None,0.2516901000053622,,,26Aloud,001,2022_Aug_15_1454,ProdSingRedoBetween,2021.2.3,59.951714884089206,
,,,,126,0,126,0,,,,,,,,,,,,,,,,,,,,,,1372.1204505999922,None,,,,,,,,,,,,,,,,,revolution,135,127,aloud,new,null,1369.2276858999976,None,1369.2276858999976,None,1,2.202578199969139,1369.2276858999976,None,2.202578199969139,1371.4542675999692,None,1371.9603585999575,None,1371.9603585999575,None,n,0.14184240001486614,1371.9603585999575,None,0.14184240001486614,,,26Aloud,001,2022_Aug_15_1454,ProdSingRedoBetween,2021.2.3,59.951714884089206,
,,,,127,0,127,0,,,,,,,,,,,,,,,,,,,,,,1375.0899140999536,None,,,,,,,,,,,,,,,,,dream,40,128,aloud,old,blue,1372.6329679999617,None,1372.6329679999617,None,6,1.3495090000214987,1372.6329679999617,None,1.3495090000214987,1374.0099736999837,None,1374.522920999967,None,1374.522920999967,None,r,0.5473687999765389,1374.522920999967,None,0.5473687999765389,,,26Aloud,001,2022_Aug_15_1454,ProdSingRedoBetween,2021.2.3,59.951714884089206,
,,,,128,0,128,0,,,,,,,,,,,,,,,,,,,,,,1378.0275521999574,None,,,,,,,,,,,,,,,,,budget,175,129,aloud,new,null,1375.5991121999687,None,1375.5991121999687,None,3,1.831238399958238,1375.5991121999687,None,1.831238399958238,1377.4630813999684,None,1377.9823996999767,None,1377.9823996999767,None,f,0.023980199999641627,1377.9823996999767,None,0.023980199999641627,,,26Aloud,001,2022_Aug_15_1454,ProdSingRedoBetween,2021.2.3,59.951714884089206,
,,,,129,0,129,0,,,,,,,,,,,,,,,,,,,,,,1382.3972528000013,None,,,,,,,,,,,,,,,,,shear,104,130,aloud,new,null,1378.5360109999892,None,1378.5360109999892,None,1,3.142268800002057,1378.5360109999892,None,3.142268800002057,1381.7011781999609,None,1382.2172835000092,None,1382.2172835000092,None,n,0.15697010001167655,1382.2172835000092,None,0.15697010001167655,,,26Aloud,001,2022_Aug_15_1454,ProdSingRedoBetween,2021.2.3,59.951714884089206,
,,,,130,0,130,0,,,,,,,,,,,,,,,,,,,,,,1385.7172132999985,None,,,,,,,,,,,,,,,,,stand,143,131,aloud,new,null,1382.9071171999676,None,1382.9071171999676,None,5,1.827244599990081,1382.9071171999676,None,1.827244599990081,1384.7543860999867,None,1385.2720852000057,None,1385.2720852000057,None,f,0.4222205000114627,1385.2720852000057,None,0.4222205000114627,,,26Aloud,001,2022_Aug_15_1454,ProdSingRedoBetween,2021.2.3,59.951714884089206,
,,,,131,0,131,0,,,,,,,,,,,,,,,,,,,,,,1390.2884853999713,None,,,,,,,,,,,,,,,,,profession,177,132,aloud,new,null,1386.2339089000016,None,1386.2339089000016,None,2,3.2204447999829426,1386.2339089000016,None,3.2204447999829426,1389.4754687999957,None,1389.997693399957,None,1389.997693399957,None,n,0.26455730001907796,1389.997693399957,None,0.26455730001907796,,,26Aloud,001,2022_Aug_15_1454,ProdSingRedoBetween,2021.2.3,59.951714884089206,
,,,,132,0,132,0,,,,,,,,,,,,,,,,,,,,,,1393.7586912999977,None,,,,,,,,,,,,,,,,,account,55,133,aloud,old,blue,1390.7979643999715,None,1390.7979643999715,None,6,2.320409199979622,1390.7979643999715,None,2.320409199979622,1393.152277199959,None,1393.6593944999622,None,1393.6593944999622,None,r,0.08296229998813942,1393.6593944999622,None,0.08296229998813942,,,26Aloud,001,2022_Aug_15_1454,ProdSingRedoBetween,2021.2.3,59.951714884089206,
,,,,133,0,133,0,,,,,,,,,,,,,,,,,,,,,,1396.8127513999934,None,,,,,,,,,,,,,,,,,fellow,145,134,aloud,new,null,1394.2705382999848,None,1394.2705382999848,None,1,1.7998584000160918,1394.2705382999848,None,1.7998584000160918,1396.1014636000036,None,1396.611588299973,None,1396.611588299973,None,n,0.17077379999682307,1396.611588299973,None,0.17077379999682307,,,26Aloud,001,2022_Aug_15_1454,ProdSingRedoBetween,2021.2.3,59.951714884089206,
,,,,134,0,134,0,,,,,,,,,,,,,,,,,,,,,,1400.2015673999558,None,,,,,,,,,,,,,,,,,strain,134,135,aloud,new,null,1397.315423699969,None,1397.315423699969,None,2,2.171032499987632,1397.315423699969,None,2.171032499987632,1399.5229768999852,None,1400.0332617000095,None,1400.0332617000095,None,n,0.1410578999784775,1400.0332617000095,None,0.1410578999784775,,,26Aloud,001,2022_Aug_15_1454,ProdSingRedoBetween,2021.2.3,59.951714884089206,
,,,,135,0,135,0,,,,,,,,,,,,,,,,,,,,,,1403.118003599986,None,,,,,,,,,,,,,,,,,strength,51,136,aloud,old,blue,1400.721765699971,None,1400.721765699971,None,6,1.788422100013122,1400.721765699971,None,1.788422100013122,1402.5351951000048,None,1403.0433554999763,None,1403.0433554999763,None,r,0.05096600000979379,1403.0433554999763,None,0.05096600000979379,,,26Aloud,001,2022_Aug_15_1454,ProdSingRedoBetween,2021.2.3,59.951714884089206,
,,,,136,0,136,0,,,,,,,,,,,,,,,,,,,,,,1407.6892641999875,None,,,,,,,,,,,,,,,,,agency,168,137,aloud,new,null,1403.6229725999874,None,1403.6229725999874,None,4,3.11947739997413,1403.6229725999874,None,3.11947739997413,1406.7833162999596,None,1407.292448399996,None,1407.292448399996,None,f,0.36983919999329373,1407.292448399996,None,0.36983919999329373,,,26Aloud,001,2022_Aug_15_1454,ProdSingRedoBetween,2021.2.3,59.951714884089206,
,,,,137,0,137,0,,,,,,,,,,,,,,,,,,,,,,1411.2761772999656,None,,,,,,,,,,,,,,,,,close,144,138,aloud,new,null,1408.2001123999944,None,1408.2001123999944,None,2,2.422480800014455,1408.2001123999944,None,2.422480800014455,1410.6527296999702,None,1411.1608676000033,None,1411.1608676000033,None,n,0.08548290003091097,1411.1608676000033,None,0.08548290003091097,,,26Aloud,001,2022_Aug_15_1454,ProdSingRedoBetween,2021.2.3,59.951714884089206,
,,,,138,0,138,0,,,,,,,,,,,,,,,,,,,,,,1413.7469287999556,None,,,,,,,,,,,,,,,,,goose,20,139,aloud,old,yellow,1411.788991599984,None,1411.788991599984,None,6,1.3134776999941096,1411.788991599984,None,1.3134776999941096,1413.1410890999832,None,1413.6498676000047,None,1413.6498676000047,None,r,0.06860539998160675,1413.6498676000047,None,0.06860539998160675,,,26Aloud,001,2022_Aug_15_1454,ProdSingRedoBetween,2021.2.3,59.951714884089206,
,,,,139,0,139,0,,,,,,,,,,,,,,,,,,,,,,1416.498108299973,None,,,,,,,,,,,,,,,,,silence,176,140,aloud,new,null,1414.2634698000038,None,1414.2634698000038,None,1,1.4868550000246614,1414.2634698000038,None,1.4868550000246614,1415.785160099971,None,1416.3016772999545,None,1416.3016772999545,None,n,0.1766108000301756,1416.3016772999545,None,0.1766108000301756,,,26Aloud,001,2022_Aug_15_1454,ProdSingRedoBetween,2021.2.3,59.951714884089206,
,,,,140,0,140,0,,,,,,,,,,,,,,,,,,,,,,1419.1551239999826,None,,,,,,,,,,,,,,,,,sunset,155,141,aloud,new,null,1417.0109144999878,None,1417.0109144999878,None,1,1.3553567999624647,1417.0109144999878,None,1.3553567999624647,1418.3867522999644,None,1418.907893800002,None,1418.907893800002,None,n,0.2184040000429377,1418.907893800002,None,0.2184040000429377,,,26Aloud,001,2022_Aug_15_1454,ProdSingRedoBetween,2021.2.3,59.951714884089206,
,,,,141,0,141,0,,,,,,,,,,,,,,,,,,,,,,1421.9201627000002,None,,,,,,,,,,,,,,,,,history,173,142,aloud,new,null,1419.6768230999587,None,1419.6768230999587,None,4,1.673489500011783,1419.6768230999587,None,1.673489500011783,1421.375447999977,None,1421.8927893000073,None,1421.8927893000073,None,f,0.009446499985642731,1421.8927893000073,None,0.009446499985642731,,,26Aloud,001,2022_Aug_15_1454,ProdSingRedoBetween,2021.2.3,59.951714884089206,
,,,,142,0,142,0,,,,,,,,,,,,,,,,,,,,,,1426.4312302999897,None,,,,,,,,,,,,,,,,,dozen,115,143,aloud,new,null,1422.4325139999855,None,1422.4325139999855,None,3,2.573733200028073,1422.4325139999855,None,2.573733200028073,1425.024380799965,None,1425.530687899969,None,1425.530687899969,None,n,0.8676115999696776,1425.530687899969,None,0.8676115999696776,,,26Aloud,001,2022_Aug_15_1454,ProdSingRedoBetween,2021.2.3,59.951714884089206,
,,,,143,0,143,0,,,,,,,,,,,,,,,,,,,,,,1429.4968415999901,None,,,,,,,,,,,,,,,,,appearance,44,144,aloud,old,blue,1426.9548100999673,None,1426.9548100999673,None,6,1.7314785999478772,1426.9548100999673,None,1.7314785999478772,1428.7132881999714,None,1429.2315203999751,None,1429.2315203999751,None,r,0.23884499998530373,1429.2315203999751,None,0.23884499998530373,,,26Aloud,001,2022_Aug_15_1454,ProdSingRedoBetween,2021.2.3,59.951714884089206,
,,,,144,0,144,0,,,,,,,,,,,,,,,,,,,,,,1432.6141935999622,None,,,,,,,,,,,,,,,,,pretty,170,145,aloud,new,null,1430.015584399982,None,1430.015584399982,None,3,1.7187265999964438,1430.015584399982,None,1.7187265999964438,1431.7642388999811,None,1432.2758338999702,None,1432.2758338999702,None,n,0.3144604999688454,1432.2758338999702,None,0.3144604999688454,,,26Aloud,001,2022_Aug_15_1454,ProdSingRedoBetween,2021.2.3,59.951714884089206,
,,,,145,0,145,0,,,,,,,,,,,,,,,,,,,,,,1435.4864794999594,None,,,,,,,,,,,,,,,,,session,54,146,aloud,old,blue,1433.121194599953,None,1433.121194599953,None,6,1.7250869999988936,1433.121194599953,None,1.7250869999988936,1434.8664996000007,None,1435.3695716999937,None,1435.3695716999937,None,r,0.09282970003550872,1435.3695716999937,None,0.09282970003550872,,,26Aloud,001,2022_Aug_15_1454,ProdSingRedoBetween,2021.2.3,59.951714884089206,
,,,,146,0,146,0,,,,,,,,,,,,,,,,,,,,,,1439.0705849999795,None,,,,,,,,,,,,,,,,,accident,78,147,aloud,old,red,1436.0046263999538,None,1436.0046263999538,None,4,1.9619057000381872,1436.0046263999538,None,1.9619057000381872,1437.9945612999727,None,1438.5102678999538,None,1438.5102678999538,None,f,0.5360283000045456,1438.5102678999538,None,0.5360283000045456,,,26Aloud,001,2022_Aug_15_1454,ProdSingRedoBetween,2021.2.3,59.951714884089206,
,,,,147,0,147,0,,,,,,,,,,,,,,,,,,,,,,1445.0963241999852,None,,,,,,,,,,,,,,,,,store,165,148,aloud,new,null,1439.5819891999708,None,1439.5819891999708,None,4,4.840304400015157,1439.5819891999708,None,4.840304400015157,1444.4452252999763,None,1444.9704569999594,None,1444.9704569999594,None,f,0.09196749998955056,1444.9704569999594,None,0.09196749998955056,,,26Aloud,001,2022_Aug_15_1454,ProdSingRedoBetween,2021.2.3,59.951714884089206,
,,,,148,0,148,0,,,,,,,,,,,,,,,,,,,,,,1449.1525054000085,None,,,,,,,,,,,,,,,,,straight,127,149,aloud,new,null,1445.616132199997,None,1445.616132199997,None,2,2.5101718999794684,1445.616132199997,None,2.5101718999794684,1448.1495750999893,None,1448.6672126000049,None,1448.6672126000049,None,n,0.459387400012929,1448.6672126000049,None,0.459387400012929,,,26Aloud,001,2022_Aug_15_1454,ProdSingRedoBetween,2021.2.3,59.951714884089206,
,,,,149,0,149,0,,,,,,,,,,,,,,,,,,,,,,1453.2900381999789,None,,,,,,,,,,,,,,,,,equipment,24,150,aloud,old,yellow,1449.6825189999654,None,1449.6825189999654,None,6,1.6998491000267677,1449.6825189999654,None,1.6998491000267677,1451.4086510000052,None,1451.9231742999982,None,1451.9231742999982,None,r,1.3393653000239283,1451.9231742999982,None,1.3393653000239283,,,26Aloud,001,2022_Aug_15_1454,ProdSingRedoBetween,2021.2.3,59.951714884089206,
,,,,150,0,150,0,,,,,,,,,,,,,,,,,,,,,,1457.9561767999548,None,,,,,,,,,,,,,,,,,build,39,151,aloud,old,blue,1453.807692900009,None,1453.807692900009,None,4,3.2864614999853075,1453.807692900009,None,3.2864614999853075,1457.1244009999791,None,1457.6436752000009,None,1457.6436752000009,None,f,0.2906607000040822,1457.6436752000009,None,0.2906607000040822,,,26Aloud,001,2022_Aug_15_1454,ProdSingRedoBetween,2021.2.3,59.951714884089206,
,,,,151,0,151,0,,,,,,,,,,,,,,,,,,,,,,1460.5269065999892,None,,,,,,,,,,,,,,,,,rapid,8,152,aloud,old,yellow,1458.4687765999697,None,1458.4687765999697,None,2,1.353919599961955,1458.4687765999697,None,1.353919599961955,1459.8517617000034,None,1460.3586007999838,None,1460.3586007999838,None,n,0.14390939997974783,1460.3586007999838,None,0.14390939997974783,,,26Aloud,001,2022_Aug_15_1454,ProdSingRedoBetween,2021.2.3,59.951714884089206,
,,,,152,0,152,0,,,,,,,,,,,,,,,,,,,,,,1463.1612976999604,None,,,,,,,,,,,,,,,,,native,33,153,aloud,old,blue,1461.047514899983,None,1461.047514899983,None,6,1.4869291000068188,1461.047514899983,None,1.4869291000068188,1462.571384299954,None,1463.0817910999758,None,1463.0817910999758,None,r,0.06046910001896322,1463.0817910999758,None,0.06046910001896322,,,26Aloud,001,2022_Aug_15_1454,ProdSingRedoBetween,2021.2.3,59.951714884089206,
,,,,153,0,153,0,,,,,,,,,,,,,,,,,,,,,,1465.581769499986,None,,,,,,,,,,,,,,,,,comedy,110,154,aloud,new,null,1463.6713747999747,None,1463.6713747999747,None,1,1.279094299999997,1463.6713747999747,None,1.279094299999997,1464.9843387999572,None,1465.4971714999992,None,1465.4971714999992,None,n,0.06123789999401197,1465.4971714999992,None,0.06123789999401197,,,26Aloud,001,2022_Aug_15_1454,ProdSingRedoBetween,2021.2.3,59.951714884089206,
,,,,154,0,154,0,,,,,,,,,,,,,,,,,,,,,,1469.3675350999692,None,,,,,,,,,,,,,,,,,expansion,88,155,aloud,old,red,1466.0937541999738,None,1466.0937541999738,None,5,2.6965370000107214,1466.0937541999738,None,2.6965370000107214,1468.8211874999688,None,1469.3373998999596,None,1469.3373998999596,None,f,0.004961700004059821,1469.3373998999596,None,0.004961700004059821,,,26Aloud,001,2022_Aug_15_1454,ProdSingRedoBetween,2021.2.3,59.951714884089206,
,,,,155,0,155,0,,,,,,,,,,,,,,,,,,,,,,1472.4228906999924,None,,,,,,,,,,,,,,,,,under,37,156,aloud,old,blue,1469.8783818999655,None,1469.8783818999655,None,6,1.6319970000186004,1469.8783818999655,None,1.6319970000186004,1471.5418362999917,None,1472.0544085999718,None,1472.0544085999718,None,r,0.3360517999972217,1472.0544085999718,None,0.3360517999972217,,,26Aloud,001,2022_Aug_15_1454,ProdSingRedoBetween,2021.2.3,59.951714884089206,
,,,,156,0,156,0,,,,,,,,,,,,,,,,,,,,,,1475.91063150001,None,,,,,,,,,,,,,,,,,weight,132,157,aloud,new,null,1472.95307649998,None,1472.95307649998,None,3,2.213188099965919,1472.95307649998,None,2.213188099965919,1475.1960467000026,None,1475.7111642999807,None,1475.7111642999807,None,f,0.16736130003118888,1475.7111642999807,None,0.16736130003118888,,,26Aloud,001,2022_Aug_15_1454,ProdSingRedoBetween,2021.2.3,59.951714884089206,
,,,,157,0,157,0,,,,,,,,,,,,,,,,,,,,,,1479.5622942000045,None,,,,,,,,,,,,,,,,,solution,116,158,aloud,new,null,1476.4312067999854,None,1476.4312067999854,None,4,2.543060500000138,1476.4312067999854,None,2.543060500000138,1478.9949070999864,None,1479.5037464000052,None,1479.5037464000052,None,f,0.03875269996933639,1479.5037464000052,None,0.03875269996933639,,,26Aloud,001,2022_Aug_15_1454,ProdSingRedoBetween,2021.2.3,59.951714884089206,
,,,,158,0,158,0,,,,,,,,,,,,,,,,,,,,,,1482.969013999973,None,,,,,,,,,,,,,,,,,bicycle,148,159,aloud,new,null,1480.0738065000041,None,1480.0738065000041,None,1,1.4206397000234574,1480.0738065000041,None,1.4206397000234574,1481.5178434999543,None,1482.0302751999698,None,1482.0302751999698,None,n,0.9043173000100069,1482.0302751999698,None,0.9043173000100069,,,26Aloud,001,2022_Aug_15_1454,ProdSingRedoBetween,2021.2.3,59.951714884089206,
,,,,159,0,159,0,,,,,,,,,,,,,,,,,,,,,,1486.3700139999855,None,,,,,,,,,,,,,,,,,election,50,160,aloud,old,blue,1483.4930117999902,None,1483.4930117999902,None,3,2.1613933999906294,1483.4930117999902,None,2.1613933999906294,1485.68800319999,None,1486.2107920999988,None,1486.2107920999988,None,n,0.13158069999190047,1486.2107920999988,None,0.13158069999190047,,,26Aloud,001,2022_Aug_15_1454,ProdSingRedoBetween,2021.2.3,59.951714884089206,
,,,,160,0,160,0,,,,,,,,,,,,,,,,,,,,,,1489.4042358999723,None,,,,,,,,,,,,,,,,,education,13,161,aloud,old,yellow,1486.8919261999545,None,1486.8919261999545,None,5,1.7786907000117935,1486.8919261999545,None,1.7786907000117935,1488.6964201999945,None,1489.2041290999623,None,1489.2041290999623,None,f,0.17013340000994503,1489.2041290999623,None,0.17013340000994503,,,26Aloud,001,2022_Aug_15_1454,ProdSingRedoBetween,2021.2.3,59.951714884089206,
,,,,161,0,161,0,,,,,,,,,,,,,,,,,,,,,,1493.1413665,None,,,,,,,,,,,,,,,,,trial,16,162,aloud,old,yellow,1489.9118751999922,None,1489.9118751999922,None,6,2.6304113999940455,1489.9118751999922,None,2.6304113999940455,1492.558144599956,None,1493.063339699991,None,1493.063339699991,None,r,0.04721270001027733,1493.063339699991,None,0.04721270001027733,,,26Aloud,001,2022_Aug_15_1454,ProdSingRedoBetween,2021.2.3,59.951714884089206,
,,,,162,0,162,0,,,,,,,,,,,,,,,,,,,,,,1496.7147391999606,None,,,,,,,,,,,,,,,,,thing,162,163,aloud,new,null,1493.6488500999985,None,1493.6488500999985,None,3,2.261510799988173,1493.6488500999985,None,2.261510799988173,1495.9360988999833,None,1496.4464274999918,None,1496.4464274999918,None,f,0.2400160999968648,1496.4464274999918,None,0.2400160999968648,,,26Aloud,001,2022_Aug_15_1454,ProdSingRedoBetween,2021.2.3,59.951714884089206,
,,,,163,0,163,0,,,,,,,,,,,,,,,,,,,,,,1501.1492358999676,None,,,,,,,,,,,,,,,,,recall,14,164,aloud,old,yellow,1497.243470299989,None,1497.243470299989,None,2,2.9069224999984726,1497.243470299989,None,2.9069224999984726,1500.18581299996,None,1500.699030299962,None,1500.699030299962,None,n,0.4192258999682963,1500.699030299962,None,0.4192258999682963,,,26Aloud,001,2022_Aug_15_1454,ProdSingRedoBetween,2021.2.3,59.951714884089206,
,,,,164,0,164,0,,,,,,,,,,,,,,,,,,,,,,1505.2366940999636,None,,,,,,,,,,,,,,,,,victory,41,165,aloud,old,blue,1501.6603144999826,None,1501.6603144999826,None,6,2.0899921000236645,1501.6603144999826,None,2.0899921000236645,1503.7746852999553,None,1504.2894493999775,None,1504.2894493999775,None,r,0.9168268999783322,1504.2894493999775,None,0.9168268999783322,,,26Aloud,001,2022_Aug_15_1454,ProdSingRedoBetween,2021.2.3,59.951714884089206,
,,,,165,0,165,0,,,,,,,,,,,,,,,,,,,,,,1507.705899099994,None,,,,,,,,,,,,,,,,,phrase,131,166,aloud,new,null,1505.7475389000028,None,1505.7475389000028,None,1,1.2829285999760032,1505.7475389000028,None,1.2829285999760032,1507.0674409999629,None,1507.5768413000042,None,1507.5768413000042,None,n,0.10137799999210984,1507.5768413000042,None,0.10137799999210984,,,26Aloud,001,2022_Aug_15_1454,ProdSingRedoBetween,2021.2.3,59.951714884089206,
,,,,166,0,166,0,,,,,,,,,,,,,,,,,,,,,,1511.392829599965,None,,,,,,,,,,,,,,,,,community,121,167,aloud,new,null,1508.2177673999686,None,1508.2177673999686,None,3,2.380554100032896,1508.2177673999686,None,2.380554100032896,1510.6308052999666,None,1511.147206099995,None,1511.147206099995,None,n,0.2190726000117138,1511.147206099995,None,0.2190726000117138,,,26Aloud,001,2022_Aug_15_1454,ProdSingRedoBetween,2021.2.3,59.951714884089206,
,,,,167,0,167,0,,,,,,,,,,,,,,,,,,,,,,1515.9641123999609,None,,,,,,,,,,,,,,,,,personnel,71,168,aloud,old,red,1511.903277000005,None,1511.903277000005,None,2,3.247043199953623,1511.903277000005,None,3.247043199953623,1515.1829850999638,None,1515.7076732999994,None,1515.7076732999994,None,n,0.22662799997488037,1515.7076732999994,None,0.22662799997488037,,,26Aloud,001,2022_Aug_15_1454,ProdSingRedoBetween,2021.2.3,59.951714884089206,
,,,,168,0,168,0,,,,,,,,,,,,,,,,,,,,,,1520.4019081000006,None,,,,,,,,,,,,,,,,,place,137,169,aloud,new,null,1516.4785093999817,None,1516.4785093999817,None,3,3.015879699960351,1516.4785093999817,None,3.015879699960351,1519.525767299987,None,1520.0366237999988,None,1520.0366237999988,None,n,0.34572689997730777,1520.0366237999988,None,0.34572689997730777,,,26Aloud,001,2022_Aug_15_1454,ProdSingRedoBetween,2021.2.3,59.951714884089206,
,,,,169,0,169,0,,,,,,,,,,,,,,,,,,,,,,1526.1939998999587,None,,,,,,,,,,,,,,,,,drove,179,170,aloud,new,null,1520.9088687999756,None,1520.9088687999756,None,1,4.489421500009485,1520.9088687999756,None,4.489421500009485,1525.424629999965,None,1525.9304950999795,None,1525.9304950999795,None,n,0.235918499995023,1525.9304950999795,None,0.235918499995023,,,26Aloud,001,2022_Aug_15_1454,ProdSingRedoBetween,2021.2.3,59.951714884089206,
,,,,170,0,170,0,,,,,,,,,,,,,,,,,,,,,,1530.0281461999984,None,,,,,,,,,,,,,,,,,country,113,171,aloud,new,null,1526.715696499974,None,1526.715696499974,None,1,2.2987073000404052,1526.715696499974,None,2.2987073000404052,1529.0545841999701,None,1529.565756099997,None,1529.565756099997,None,n,0.4405471999780275,1529.565756099997,None,0.4405471999780275,,,26Aloud,001,2022_Aug_15_1454,ProdSingRedoBetween,2021.2.3,59.951714884089206,
,,,,171,0,171,0,,,,,,,,,,,,,,,,,,,,,,1533.0359247999731,None,,,,,,,,,,,,,,,,,childhood,43,172,aloud,old,blue,1530.5377434999682,None,1530.5377434999682,None,3,1.508587800024543,1530.5377434999682,None,1.508587800024543,1532.0694443999673,None,1532.5809331999626,None,1532.5809331999626,None,f,0.4255515999975614,1532.5809331999626,None,0.4255515999975614,,,26Aloud,001,2022_Aug_15_1454,ProdSingRedoBetween,2021.2.3,59.951714884089206,
,,,,172,0,172,0,,,,,,,,,,,,,,,,,,,,,,1537.0685230999952,None,,,,,,,,,,,,,,,,,voice,66,173,aloud,old,red,1533.5559486999991,None,1533.5559486999991,None,4,2.90649600001052,1533.5559486999991,None,2.90649600001052,1536.4972586999647,None,1537.0019959000056,None,1537.0019959000056,None,f,0.044377900019753724,1537.0019959000056,None,0.044377900019753724,,,26Aloud,001,2022_Aug_15_1454,ProdSingRedoBetween,2021.2.3,59.951714884089206,
,,,,173,0,173,0,,,,,,,,,,,,,,,,,,,,,,1541.2560108999605,None,,,,,,,,,,,,,,,,,management,119,174,aloud,new,null,1537.5792073999764,None,1537.5792073999764,None,1,2.9790835000458173,1537.5792073999764,None,2.9790835000458173,1540.5892363999737,None,1541.095862099959,None,1541.095862099959,None,n,0.14241969998693094,1541.095862099959,None,0.14241969998693094,,,26Aloud,001,2022_Aug_15_1454,ProdSingRedoBetween,2021.2.3,59.951714884089206,
,,,,174,0,174,0,,,,,,,,,,,,,,,,,,,,,,1544.108851099969,None,,,,,,,,,,,,,,,,,sound,138,175,aloud,new,null,1541.7666427000077,None,1541.7666427000077,None,6,1.6796802999451756,1541.7666427000077,None,1.6796802999451756,1543.4782315999619,None,1543.9922455999767,None,1543.9922455999767,None,r,0.09410379995824769,1543.9922455999767,None,0.09410379995824769,,,26Aloud,001,2022_Aug_15_1454,ProdSingRedoBetween,2021.2.3,59.951714884089206,
,,,,175,0,175,0,,,,,,,,,,,,,,,,,,,,,,1547.1452211999567,None,,,,,,,,,,,,,,,,,committee,83,176,aloud,old,red,1544.6216247999691,None,1544.6216247999691,None,6,1.9286797000095248,1544.6216247999691,None,1.9286797000095248,1546.5820631000097,None,1547.0953969999682,None,1547.0953969999682,None,r,0.03112979995785281,1547.0953969999682,None,0.03112979995785281,,,26Aloud,001,2022_Aug_15_1454,ProdSingRedoBetween,2021.2.3,59.951714884089206,
