StudyLoop.thisRepN,StudyLoop.thisTrialN,StudyLoop.thisN,StudyLoop.thisIndex,TestLoop.thisRepN,TestLoop.thisTrialN,TestLoop.thisN,TestLoop.thisIndex,textCondition.started,textCondition.stopped,keyCondition.keys,keyCondition.rt,keyCondition.started,keyCondition.stopped,Condition,textWelcome.started,textWelcome.stopped,keyWelcome.keys,keyWelcome.rt,keyWelcome.started,keyWelcome.stopped,textAloud.started,textAloud.stopped,textSilent.started,textSilent.stopped,textSing.started,textSing.stopped,conditional_text.started,conditional_text.stopped,textBlank500.started,textBlank500.stopped,study_word,study_num,study_order,study_type,word_color,textStudy.started,textStudy.stopped,keyStudy.keys,keyStudy.started,keyStudy.stopped,textTestInstructions.started,textTestInstructions.stopped,key_resp_3.keys,key_resp_3.rt,key_resp_3.started,key_resp_3.stopped,test_word,test_num,test_order,test_condition,old_new_test,test_word_original_color,textConf.started,textConf.stopped,textConfScale.started,textConfScale.stopped,keyConf.keys,keyConf.rt,keyConf.started,keyConf.stopped,confidence response time,textTestBlank.started,textTestBlank.stopped,textRKN.started,textRKN.stopped,textRKNScale.started,textRKNScale.stopped,keyRKN.keys,keyRKN.rt,keyRKN.started,keyRKN.stopped,rkn response time,textEnd.started,textEnd.stopped,participant,session,date,expName,psychopyVersion,frameRate,
,,,,,,,,14.593215299999997,None,c,3.049743200000023,14.593215299999997,None,,,,,,,,,,,,,,,,,,,,,,,,,,,,,,,,,,,,,,,,,,,,,,,,,,,,,,,,,,,,,,27Sing,001,2022_Aug_26_1101,ProdSingRedoBetween,2021.2.3,59.94618031931163,
,,,,,,,,,,,,,,SingTest,17.706929100000025,None,space,196.63213279999997,17.706929100000025,None,,,,,,,,,,,,,,,,,,,,,,,,,,,,,,,,,,,,,,,,,,,,,,,,,,,,,,,27Sing,001,2022_Aug_26_1101,ProdSingRedoBetween,2021.2.3,59.94618031931163,
0,0,0,0,,,,,,,,,,,,,,,,,,17.706929100000025,None,17.706929100000025,None,17.706929100000025,None,17.706929100000025,None,216.8799169,None,general,82,1,sing,red,214.87089460000004,None,None,214.87089460000004,None,,,,,,,,,,,,,,,,,,,,,,,,,,,,,,,,,,,27Sing,001,2022_Aug_26_1101,ProdSingRedoBetween,2021.2.3,59.94618031931163,
1,0,1,0,,,,,,,,,,,,,,,,,,,,,,,,,,219.3991628,None,provision,0,2,sing,yellow,217.38674600000002,None,None,217.38674600000002,None,,,,,,,,,,,,,,,,,,,,,,,,,,,,,,,,,,,27Sing,001,2022_Aug_26_1101,ProdSingRedoBetween,2021.2.3,59.94618031931163,
2,0,2,0,,,,,,,,,,,,,,,,,,,,,,,,,,221.90164719999996,None,history,55,3,sing,blue,219.8995086,None,None,219.8995086,None,,,,,,,,,,,,,,,,,,,,,,,,,,,,,,,,,,,27Sing,001,2022_Aug_26_1101,ProdSingRedoBetween,2021.2.3,59.94618031931163,
3,0,3,0,,,,,,,,,,,,,,,,,,,,,,,,,,224.4210041,None,capital,64,4,sing,red,222.40541789999997,None,None,222.40541789999997,None,,,,,,,,,,,,,,,,,,,,,,,,,,,,,,,,,,,27Sing,001,2022_Aug_26_1101,ProdSingRedoBetween,2021.2.3,59.94618031931163,
4,0,4,0,,,,,,,,,,,,,,,,,,,,,,,,,,226.94022010000003,None,trail,37,5,sing,blue,224.92792380000003,None,None,224.92792380000003,None,,,,,,,,,,,,,,,,,,,,,,,,,,,,,,,,,,,27Sing,001,2022_Aug_26_1101,ProdSingRedoBetween,2021.2.3,59.94618031931163,
5,0,5,0,,,,,,,,,,,,,,,,,,,,,,,,,,229.44267449999995,None,force,73,6,sing,red,227.44348300000001,None,None,227.44348300000001,None,,,,,,,,,,,,,,,,,,,,,,,,,,,,,,,,,,,27Sing,001,2022_Aug_26_1101,ProdSingRedoBetween,2021.2.3,59.94618031931163,
6,0,6,0,,,,,,,,,,,,,,,,,,,,,,,,,,231.96168880000005,None,chief,80,7,sing,red,229.9568941,None,None,229.9568941,None,,,,,,,,,,,,,,,,,,,,,,,,,,,,,,,,,,,27Sing,001,2022_Aug_26_1101,ProdSingRedoBetween,2021.2.3,59.94618031931163,
7,0,7,0,,,,,,,,,,,,,,,,,,,,,,,,,,234.48085990000004,None,sweet,34,8,sing,blue,232.47077709999996,None,None,232.47077709999996,None,,,,,,,,,,,,,,,,,,,,,,,,,,,,,,,,,,,27Sing,001,2022_Aug_26_1101,ProdSingRedoBetween,2021.2.3,59.94618031931163,
8,0,8,0,,,,,,,,,,,,,,,,,,,,,,,,,,236.98342639999998,None,minute,3,9,sing,yellow,234.98124659999996,None,None,234.98124659999996,None,,,,,,,,,,,,,,,,,,,,,,,,,,,,,,,,,,,27Sing,001,2022_Aug_26_1101,ProdSingRedoBetween,2021.2.3,59.94618031931163,
9,0,9,0,,,,,,,,,,,,,,,,,,,,,,,,,,239.50229349999995,None,universal,10,10,sing,yellow,237.48984529999996,None,None,237.48984529999996,None,,,,,,,,,,,,,,,,,,,,,,,,,,,,,,,,,,,27Sing,001,2022_Aug_26_1101,ProdSingRedoBetween,2021.2.3,59.94618031931163,
10,0,10,0,,,,,,,,,,,,,,,,,,,,,,,,,,242.00520129999995,None,resistance,88,11,sing,red,240.00286070000004,None,None,240.00286070000004,None,,,,,,,,,,,,,,,,,,,,,,,,,,,,,,,,,,,27Sing,001,2022_Aug_26_1101,ProdSingRedoBetween,2021.2.3,59.94618031931163,
11,0,11,0,,,,,,,,,,,,,,,,,,,,,,,,,,244.52435830000002,None,platform,65,12,sing,red,242.51421960000005,None,None,242.51421960000005,None,,,,,,,,,,,,,,,,,,,,,,,,,,,,,,,,,,,27Sing,001,2022_Aug_26_1101,ProdSingRedoBetween,2021.2.3,59.94618031931163,
12,0,12,0,,,,,,,,,,,,,,,,,,,,,,,,,,247.04351859999997,None,discovery,51,13,sing,blue,245.03260709999995,None,None,245.03260709999995,None,,,,,,,,,,,,,,,,,,,,,,,,,,,,,,,,,,,27Sing,001,2022_Aug_26_1101,ProdSingRedoBetween,2021.2.3,59.94618031931163,
13,0,13,0,,,,,,,,,,,,,,,,,,,,,,,,,,249.56262289999995,None,beauty,79,14,sing,red,247.55013340000005,None,None,247.55013340000005,None,,,,,,,,,,,,,,,,,,,,,,,,,,,,,,,,,,,27Sing,001,2022_Aug_26_1101,ProdSingRedoBetween,2021.2.3,59.94618031931163,
14,0,14,0,,,,,,,,,,,,,,,,,,,,,,,,,,252.08182369999997,None,victory,17,15,sing,yellow,250.06844590000003,None,None,250.06844590000003,None,,,,,,,,,,,,,,,,,,,,,,,,,,,,,,,,,,,27Sing,001,2022_Aug_26_1101,ProdSingRedoBetween,2021.2.3,59.94618031931163,
15,0,15,0,,,,,,,,,,,,,,,,,,,,,,,,,,254.58424479999996,None,style,52,16,sing,blue,252.58438620000004,None,None,252.58438620000004,None,,,,,,,,,,,,,,,,,,,,,,,,,,,,,,,,,,,27Sing,001,2022_Aug_26_1101,ProdSingRedoBetween,2021.2.3,59.94618031931163,
16,0,16,0,,,,,,,,,,,,,,,,,,,,,,,,,,257.10361079999996,None,majority,21,17,sing,yellow,255.089339,None,None,255.089339,None,,,,,,,,,,,,,,,,,,,,,,,,,,,,,,,,,,,27Sing,001,2022_Aug_26_1101,ProdSingRedoBetween,2021.2.3,59.94618031931163,
17,0,17,0,,,,,,,,,,,,,,,,,,,,,,,,,,259.6059824,None,principal,23,18,sing,yellow,257.60633559999997,None,None,257.60633559999997,None,,,,,,,,,,,,,,,,,,,,,,,,,,,,,,,,,,,27Sing,001,2022_Aug_26_1101,ProdSingRedoBetween,2021.2.3,59.94618031931163,
18,0,18,0,,,,,,,,,,,,,,,,,,,,,,,,,,262.10846419999996,None,enemy,61,19,sing,red,260.107044,None,None,260.107044,None,,,,,,,,,,,,,,,,,,,,,,,,,,,,,,,,,,,27Sing,001,2022_Aug_26_1101,ProdSingRedoBetween,2021.2.3,59.94618031931163,
19,0,19,0,,,,,,,,,,,,,,,,,,,,,,,,,,264.62772729999995,None,under,18,20,sing,yellow,262.6161671,None,None,262.6161671,None,,,,,,,,,,,,,,,,,,,,,,,,,,,,,,,,,,,27Sing,001,2022_Aug_26_1101,ProdSingRedoBetween,2021.2.3,59.94618031931163,
20,0,20,0,,,,,,,,,,,,,,,,,,,,,,,,,,267.1298805,None,appearance,84,21,sing,red,265.12802109999996,None,None,265.12802109999996,None,,,,,,,,,,,,,,,,,,,,,,,,,,,,,,,,,,,27Sing,001,2022_Aug_26_1101,ProdSingRedoBetween,2021.2.3,59.94618031931163,
21,0,21,0,,,,,,,,,,,,,,,,,,,,,,,,,,269.6493454,None,contract,11,22,sing,yellow,267.63647260000005,None,None,267.63647260000005,None,,,,,,,,,,,,,,,,,,,,,,,,,,,,,,,,,,,27Sing,001,2022_Aug_26_1101,ProdSingRedoBetween,2021.2.3,59.94618031931163,
22,0,22,0,,,,,,,,,,,,,,,,,,,,,,,,,,272.151847,None,management,67,23,sing,red,270.15098950000004,None,None,270.15098950000004,None,,,,,,,,,,,,,,,,,,,,,,,,,,,,,,,,,,,27Sing,001,2022_Aug_26_1101,ProdSingRedoBetween,2021.2.3,59.94618031931163,
23,0,23,0,,,,,,,,,,,,,,,,,,,,,,,,,,274.6710005,None,second,77,24,sing,red,272.65671840000005,None,None,272.65671840000005,None,,,,,,,,,,,,,,,,,,,,,,,,,,,,,,,,,,,27Sing,001,2022_Aug_26_1101,ProdSingRedoBetween,2021.2.3,59.94618031931163,
24,0,24,0,,,,,,,,,,,,,,,,,,,,,,,,,,277.19034309999995,None,afternoon,42,25,sing,blue,275.17691909999996,None,None,275.17691909999996,None,,,,,,,,,,,,,,,,,,,,,,,,,,,,,,,,,,,27Sing,001,2022_Aug_26_1101,ProdSingRedoBetween,2021.2.3,59.94618031931163,
25,0,25,0,,,,,,,,,,,,,,,,,,,,,,,,,,279.70935,None,audience,36,26,sing,blue,277.6951487,None,None,277.6951487,None,,,,,,,,,,,,,,,,,,,,,,,,,,,,,,,,,,,27Sing,001,2022_Aug_26_1101,ProdSingRedoBetween,2021.2.3,59.94618031931163,
26,0,26,0,,,,,,,,,,,,,,,,,,,,,,,,,,282.21184600000004,None,strain,15,27,sing,yellow,280.21122890000004,None,None,280.21122890000004,None,,,,,,,,,,,,,,,,,,,,,,,,,,,,,,,,,,,27Sing,001,2022_Aug_26_1101,ProdSingRedoBetween,2021.2.3,59.94618031931163,
27,0,27,0,,,,,,,,,,,,,,,,,,,,,,,,,,284.7310493,None,accident,33,28,sing,blue,282.72080800000003,None,None,282.72080800000003,None,,,,,,,,,,,,,,,,,,,,,,,,,,,,,,,,,,,27Sing,001,2022_Aug_26_1101,ProdSingRedoBetween,2021.2.3,59.94618031931163,
28,0,28,0,,,,,,,,,,,,,,,,,,,,,,,,,,287.2335108,None,alert,13,29,sing,yellow,285.232623,None,None,285.232623,None,,,,,,,,,,,,,,,,,,,,,,,,,,,,,,,,,,,27Sing,001,2022_Aug_26_1101,ProdSingRedoBetween,2021.2.3,59.94618031931163,
29,0,29,0,,,,,,,,,,,,,,,,,,,,,,,,,,289.7360747,None,couch,24,30,sing,yellow,287.7350473,None,None,287.7350473,None,,,,,,,,,,,,,,,,,,,,,,,,,,,,,,,,,,,27Sing,001,2022_Aug_26_1101,ProdSingRedoBetween,2021.2.3,59.94618031931163,
30,0,30,0,,,,,,,,,,,,,,,,,,,,,,,,,,292.25516259999995,None,smooth,66,31,sing,red,290.2412786,None,None,290.2412786,None,,,,,,,,,,,,,,,,,,,,,,,,,,,,,,,,,,,27Sing,001,2022_Aug_26_1101,ProdSingRedoBetween,2021.2.3,59.94618031931163,
31,0,31,0,,,,,,,,,,,,,,,,,,,,,,,,,,294.7576947,None,speech,19,32,sing,yellow,292.7555141,None,None,292.7555141,None,,,,,,,,,,,,,,,,,,,,,,,,,,,,,,,,,,,27Sing,001,2022_Aug_26_1101,ProdSingRedoBetween,2021.2.3,59.94618031931163,
32,0,32,0,,,,,,,,,,,,,,,,,,,,,,,,,,297.2768367,None,rough,54,33,sing,blue,295.2679941,None,None,295.2679941,None,,,,,,,,,,,,,,,,,,,,,,,,,,,,,,,,,,,27Sing,001,2022_Aug_26_1101,ProdSingRedoBetween,2021.2.3,59.94618031931163,
33,0,33,0,,,,,,,,,,,,,,,,,,,,,,,,,,299.77941020000003,None,front,7,34,sing,yellow,297.7774547,None,None,297.7774547,None,,,,,,,,,,,,,,,,,,,,,,,,,,,,,,,,,,,27Sing,001,2022_Aug_26_1101,ProdSingRedoBetween,2021.2.3,59.94618031931163,
34,0,34,0,,,,,,,,,,,,,,,,,,,,,,,,,,302.28182890000005,None,court,83,35,sing,red,300.2798682,None,None,300.2798682,None,,,,,,,,,,,,,,,,,,,,,,,,,,,,,,,,,,,27Sing,001,2022_Aug_26_1101,ProdSingRedoBetween,2021.2.3,59.94618031931163,
35,0,35,0,,,,,,,,,,,,,,,,,,,,,,,,,,304.7843868,None,leader,25,36,sing,yellow,302.78234669999995,None,None,302.78234669999995,None,,,,,,,,,,,,,,,,,,,,,,,,,,,,,,,,,,,27Sing,001,2022_Aug_26_1101,ProdSingRedoBetween,2021.2.3,59.94618031931163,
36,0,36,0,,,,,,,,,,,,,,,,,,,,,,,,,,307.30363580000005,None,evidence,29,37,sing,blue,305.2884017,None,None,305.2884017,None,,,,,,,,,,,,,,,,,,,,,,,,,,,,,,,,,,,27Sing,001,2022_Aug_26_1101,ProdSingRedoBetween,2021.2.3,59.94618031931163,
37,0,37,0,,,,,,,,,,,,,,,,,,,,,,,,,,309.8227428,None,novel,69,38,sing,red,307.80827739999995,None,None,307.80827739999995,None,,,,,,,,,,,,,,,,,,,,,,,,,,,,,,,,,,,27Sing,001,2022_Aug_26_1101,ProdSingRedoBetween,2021.2.3,59.94618031931163,
38,0,38,0,,,,,,,,,,,,,,,,,,,,,,,,,,312.3252334,None,damage,31,39,sing,blue,310.3233947,None,None,310.3233947,None,,,,,,,,,,,,,,,,,,,,,,,,,,,,,,,,,,,27Sing,001,2022_Aug_26_1101,ProdSingRedoBetween,2021.2.3,59.94618031931163,
39,0,39,0,,,,,,,,,,,,,,,,,,,,,,,,,,314.84439139999995,None,research,68,40,sing,red,312.83719399999995,None,None,312.83719399999995,None,,,,,,,,,,,,,,,,,,,,,,,,,,,,,,,,,,,27Sing,001,2022_Aug_26_1101,ProdSingRedoBetween,2021.2.3,59.94618031931163,
40,0,40,0,,,,,,,,,,,,,,,,,,,,,,,,,,317.34688819999997,None,production,78,41,sing,red,315.3449538,None,None,315.3449538,None,,,,,,,,,,,,,,,,,,,,,,,,,,,,,,,,,,,27Sing,001,2022_Aug_26_1101,ProdSingRedoBetween,2021.2.3,59.94618031931163,
41,0,41,0,,,,,,,,,,,,,,,,,,,,,,,,,,319.84952799999996,None,junior,72,42,sing,red,317.84907380000004,None,None,317.84907380000004,None,,,,,,,,,,,,,,,,,,,,,,,,,,,,,,,,,,,27Sing,001,2022_Aug_26_1101,ProdSingRedoBetween,2021.2.3,59.94618031931163,
42,0,42,0,,,,,,,,,,,,,,,,,,,,,,,,,,322.36860950000005,None,article,59,43,sing,yellow,320.3559765,None,None,320.3559765,None,,,,,,,,,,,,,,,,,,,,,,,,,,,,,,,,,,,27Sing,001,2022_Aug_26_1101,ProdSingRedoBetween,2021.2.3,59.94618031931163,
43,0,43,0,,,,,,,,,,,,,,,,,,,,,,,,,,324.87114440000005,None,school,57,44,sing,blue,322.87127410000005,None,None,322.87127410000005,None,,,,,,,,,,,,,,,,,,,,,,,,,,,,,,,,,,,27Sing,001,2022_Aug_26_1101,ProdSingRedoBetween,2021.2.3,59.94618031931163,
44,0,44,0,,,,,,,,,,,,,,,,,,,,,,,,,,327.37341660000004,None,carry,2,45,sing,yellow,325.37294139999995,None,None,325.37294139999995,None,,,,,,,,,,,,,,,,,,,,,,,,,,,,,,,,,,,27Sing,001,2022_Aug_26_1101,ProdSingRedoBetween,2021.2.3,59.94618031931163,
45,0,45,0,,,,,,,,,,,,,,,,,,,,,,,,,,329.8927956,None,population,20,46,sing,yellow,327.8787221,None,None,327.8787221,None,,,,,,,,,,,,,,,,,,,,,,,,,,,,,,,,,,,27Sing,001,2022_Aug_26_1101,ProdSingRedoBetween,2021.2.3,59.94618031931163,
46,0,46,0,,,,,,,,,,,,,,,,,,,,,,,,,,332.41208700000004,None,patient,28,47,sing,yellow,330.39737990000003,None,None,330.39737990000003,None,,,,,,,,,,,,,,,,,,,,,,,,,,,,,,,,,,,27Sing,001,2022_Aug_26_1101,ProdSingRedoBetween,2021.2.3,59.94618031931163,
47,0,47,0,,,,,,,,,,,,,,,,,,,,,,,,,,334.9144658,None,congress,41,48,sing,blue,332.9124815,None,None,332.9124815,None,,,,,,,,,,,,,,,,,,,,,,,,,,,,,,,,,,,27Sing,001,2022_Aug_26_1101,ProdSingRedoBetween,2021.2.3,59.94618031931163,
48,0,48,0,,,,,,,,,,,,,,,,,,,,,,,,,,337.43374529999994,None,husband,44,49,sing,blue,335.4210077,None,None,335.4210077,None,,,,,,,,,,,,,,,,,,,,,,,,,,,,,,,,,,,27Sing,001,2022_Aug_26_1101,ProdSingRedoBetween,2021.2.3,59.94618031931163,
49,0,49,0,,,,,,,,,,,,,,,,,,,,,,,,,,339.9361192,None,guest,75,50,sing,red,337.93714550000004,None,None,337.93714550000004,None,,,,,,,,,,,,,,,,,,,,,,,,,,,,,,,,,,,27Sing,001,2022_Aug_26_1101,ProdSingRedoBetween,2021.2.3,59.94618031931163,
50,0,50,0,,,,,,,,,,,,,,,,,,,,,,,,,,342.4387097,None,captain,9,51,sing,yellow,340.4379183,None,None,340.4379183,None,,,,,,,,,,,,,,,,,,,,,,,,,,,,,,,,,,,27Sing,001,2022_Aug_26_1101,ProdSingRedoBetween,2021.2.3,59.94618031931163,
51,0,51,0,,,,,,,,,,,,,,,,,,,,,,,,,,344.95787040000005,None,block,60,52,sing,red,342.94685159999995,None,None,342.94685159999995,None,,,,,,,,,,,,,,,,,,,,,,,,,,,,,,,,,,,27Sing,001,2022_Aug_26_1101,ProdSingRedoBetween,2021.2.3,59.94618031931163,
52,0,52,0,,,,,,,,,,,,,,,,,,,,,,,,,,347.47706089999997,None,edition,87,53,sing,red,345.4666945,None,None,345.4666945,None,,,,,,,,,,,,,,,,,,,,,,,,,,,,,,,,,,,27Sing,001,2022_Aug_26_1101,ProdSingRedoBetween,2021.2.3,59.94618031931163,
53,0,53,0,,,,,,,,,,,,,,,,,,,,,,,,,,349.9795401,None,public,5,54,sing,yellow,347.97762720000003,None,None,347.97762720000003,None,,,,,,,,,,,,,,,,,,,,,,,,,,,,,,,,,,,27Sing,001,2022_Aug_26_1101,ProdSingRedoBetween,2021.2.3,59.94618031931163,
54,0,54,0,,,,,,,,,,,,,,,,,,,,,,,,,,352.4819721,None,committee,32,55,sing,blue,350.48215589999995,None,None,350.48215589999995,None,,,,,,,,,,,,,,,,,,,,,,,,,,,,,,,,,,,27Sing,001,2022_Aug_26_1101,ProdSingRedoBetween,2021.2.3,59.94618031931163,
55,0,55,0,,,,,,,,,,,,,,,,,,,,,,,,,,355.0012348,None,crowd,40,56,sing,blue,352.9861621,None,None,352.9861621,None,,,,,,,,,,,,,,,,,,,,,,,,,,,,,,,,,,,27Sing,001,2022_Aug_26_1101,ProdSingRedoBetween,2021.2.3,59.94618031931163,
56,0,56,0,,,,,,,,,,,,,,,,,,,,,,,,,,357.52036769999995,None,thick,27,57,sing,yellow,355.5073748,None,None,355.5073748,None,,,,,,,,,,,,,,,,,,,,,,,,,,,,,,,,,,,27Sing,001,2022_Aug_26_1101,ProdSingRedoBetween,2021.2.3,59.94618031931163,
57,0,57,0,,,,,,,,,,,,,,,,,,,,,,,,,,360.0239971,None,permit,56,58,sing,blue,358.020843,None,None,358.020843,None,,,,,,,,,,,,,,,,,,,,,,,,,,,,,,,,,,,27Sing,001,2022_Aug_26_1101,ProdSingRedoBetween,2021.2.3,59.94618031931163,
58,0,58,0,,,,,,,,,,,,,,,,,,,,,,,,,,362.5253549,None,territory,70,59,sing,red,360.525531,None,None,360.525531,None,,,,,,,,,,,,,,,,,,,,,,,,,,,,,,,,,,,27Sing,001,2022_Aug_26_1101,ProdSingRedoBetween,2021.2.3,59.94618031931163,
59,0,59,0,,,,,,,,,,,,,,,,,,,,,,,,,,365.0277989,None,debate,6,60,sing,yellow,363.02652950000004,None,None,363.02652950000004,None,,,,,,,,,,,,,,,,,,,,,,,,,,,,,,,,,,,27Sing,001,2022_Aug_26_1101,ProdSingRedoBetween,2021.2.3,59.94618031931163,
60,0,60,0,,,,,,,,,,,,,,,,,,,,,,,,,,367.53056159999994,None,sound,1,61,sing,yellow,365.52977969999995,None,None,365.52977969999995,None,,,,,,,,,,,,,,,,,,,,,,,,,,,,,,,,,,,27Sing,001,2022_Aug_26_1101,ProdSingRedoBetween,2021.2.3,59.94618031931163,
61,0,61,0,,,,,,,,,,,,,,,,,,,,,,,,,,370.04954280000004,None,finish,48,62,sing,blue,368.04071150000004,None,None,368.04071150000004,None,,,,,,,,,,,,,,,,,,,,,,,,,,,,,,,,,,,27Sing,001,2022_Aug_26_1101,ProdSingRedoBetween,2021.2.3,59.94618031931163,
62,0,62,0,,,,,,,,,,,,,,,,,,,,,,,,,,372.56876969999996,None,stranger,74,63,sing,red,370.55338989999996,None,None,370.55338989999996,None,,,,,,,,,,,,,,,,,,,,,,,,,,,,,,,,,,,27Sing,001,2022_Aug_26_1101,ProdSingRedoBetween,2021.2.3,59.94618031931163,
63,0,63,0,,,,,,,,,,,,,,,,,,,,,,,,,,375.08786009999994,None,display,85,64,sing,red,373.0752962,None,None,373.0752962,None,,,,,,,,,,,,,,,,,,,,,,,,,,,,,,,,,,,27Sing,001,2022_Aug_26_1101,ProdSingRedoBetween,2021.2.3,59.94618031931163,
64,0,64,0,,,,,,,,,,,,,,,,,,,,,,,,,,377.5904194,None,broke,89,65,sing,red,375.58823829999994,None,None,375.58823829999994,None,,,,,,,,,,,,,,,,,,,,,,,,,,,,,,,,,,,27Sing,001,2022_Aug_26_1101,ProdSingRedoBetween,2021.2.3,59.94618031931163,
65,0,65,0,,,,,,,,,,,,,,,,,,,,,,,,,,380.0929297,None,answer,62,66,sing,red,378.09298,None,None,378.09298,None,,,,,,,,,,,,,,,,,,,,,,,,,,,,,,,,,,,27Sing,001,2022_Aug_26_1101,ProdSingRedoBetween,2021.2.3,59.94618031931163,
66,0,66,0,,,,,,,,,,,,,,,,,,,,,,,,,,382.61211949999995,None,match,26,67,sing,yellow,380.5973073,None,None,380.5973073,None,,,,,,,,,,,,,,,,,,,,,,,,,,,,,,,,,,,27Sing,001,2022_Aug_26_1101,ProdSingRedoBetween,2021.2.3,59.94618031931163,
67,0,67,0,,,,,,,,,,,,,,,,,,,,,,,,,,385.13113880000003,None,bitter,53,68,sing,blue,383.1172167,None,None,383.1172167,None,,,,,,,,,,,,,,,,,,,,,,,,,,,,,,,,,,,27Sing,001,2022_Aug_26_1101,ProdSingRedoBetween,2021.2.3,59.94618031931163,
68,0,68,0,,,,,,,,,,,,,,,,,,,,,,,,,,387.6338863,None,clear,43,69,sing,blue,385.6336378,None,None,385.6336378,None,,,,,,,,,,,,,,,,,,,,,,,,,,,,,,,,,,,27Sing,001,2022_Aug_26_1101,ProdSingRedoBetween,2021.2.3,59.94618031931163,
69,0,69,0,,,,,,,,,,,,,,,,,,,,,,,,,,390.1360062,None,cover,39,70,sing,blue,388.13648950000004,None,None,388.13648950000004,None,,,,,,,,,,,,,,,,,,,,,,,,,,,,,,,,,,,27Sing,001,2022_Aug_26_1101,ProdSingRedoBetween,2021.2.3,59.94618031931163,
70,0,70,0,,,,,,,,,,,,,,,,,,,,,,,,,,392.65541570000005,None,quantity,35,71,sing,blue,390.6444619,None,None,390.6444619,None,,,,,,,,,,,,,,,,,,,,,,,,,,,,,,,,,,,27Sing,001,2022_Aug_26_1101,ProdSingRedoBetween,2021.2.3,59.94618031931163,
71,0,71,0,,,,,,,,,,,,,,,,,,,,,,,,,,395.15782279999996,None,emergency,14,72,sing,yellow,393.1572674,None,None,393.1572674,None,,,,,,,,,,,,,,,,,,,,,,,,,,,,,,,,,,,27Sing,001,2022_Aug_26_1101,ProdSingRedoBetween,2021.2.3,59.94618031931163,
72,0,72,0,,,,,,,,,,,,,,,,,,,,,,,,,,397.67704879999997,None,instrument,12,73,sing,yellow,395.66980779999994,None,None,395.66980779999994,None,,,,,,,,,,,,,,,,,,,,,,,,,,,,,,,,,,,27Sing,001,2022_Aug_26_1101,ProdSingRedoBetween,2021.2.3,59.94618031931163,
73,0,73,0,,,,,,,,,,,,,,,,,,,,,,,,,,400.19628720000003,None,silence,30,74,sing,blue,398.186455,None,None,398.186455,None,,,,,,,,,,,,,,,,,,,,,,,,,,,,,,,,,,,27Sing,001,2022_Aug_26_1101,ProdSingRedoBetween,2021.2.3,59.94618031931163,
74,0,74,0,,,,,,,,,,,,,,,,,,,,,,,,,,402.69878059999996,None,safety,86,75,sing,red,400.69974049999996,None,None,400.69974049999996,None,,,,,,,,,,,,,,,,,,,,,,,,,,,,,,,,,,,27Sing,001,2022_Aug_26_1101,ProdSingRedoBetween,2021.2.3,59.94618031931163,
75,0,75,0,,,,,,,,,,,,,,,,,,,,,,,,,,405.2180903,None,staff,8,76,sing,yellow,403.20333960000005,None,None,403.20333960000005,None,,,,,,,,,,,,,,,,,,,,,,,,,,,,,,,,,,,27Sing,001,2022_Aug_26_1101,ProdSingRedoBetween,2021.2.3,59.94618031931163,
76,0,76,0,,,,,,,,,,,,,,,,,,,,,,,,,,407.73727299999996,None,primary,38,77,sing,blue,405.7272239,None,None,405.7272239,None,,,,,,,,,,,,,,,,,,,,,,,,,,,,,,,,,,,27Sing,001,2022_Aug_26_1101,ProdSingRedoBetween,2021.2.3,59.94618031931163,
77,0,77,0,,,,,,,,,,,,,,,,,,,,,,,,,,410.23960609999995,None,surface,22,78,sing,yellow,408.23753709999994,None,None,408.23753709999994,None,,,,,,,,,,,,,,,,,,,,,,,,,,,,,,,,,,,27Sing,001,2022_Aug_26_1101,ProdSingRedoBetween,2021.2.3,59.94618031931163,
78,0,78,0,,,,,,,,,,,,,,,,,,,,,,,,,,412.74212620000003,None,little,47,79,sing,blue,410.7407653,None,None,410.7407653,None,,,,,,,,,,,,,,,,,,,,,,,,,,,,,,,,,,,27Sing,001,2022_Aug_26_1101,ProdSingRedoBetween,2021.2.3,59.94618031931163,
79,0,79,0,,,,,,,,,,,,,,,,,,,,,,,,,,415.2447506,None,household,49,80,sing,blue,413.24452039999994,None,None,413.24452039999994,None,,,,,,,,,,,,,,,,,,,,,,,,,,,,,,,,,,,27Sing,001,2022_Aug_26_1101,ProdSingRedoBetween,2021.2.3,59.94618031931163,
80,0,80,0,,,,,,,,,,,,,,,,,,,,,,,,,,417.76382939999996,None,material,71,81,sing,red,415.74846690000004,None,None,415.74846690000004,None,,,,,,,,,,,,,,,,,,,,,,,,,,,,,,,,,,,27Sing,001,2022_Aug_26_1101,ProdSingRedoBetween,2021.2.3,59.94618031931163,
81,0,81,0,,,,,,,,,,,,,,,,,,,,,,,,,,420.26629949999995,None,pretty,58,82,sing,blue,418.2664757,None,None,418.2664757,None,,,,,,,,,,,,,,,,,,,,,,,,,,,,,,,,,,,27Sing,001,2022_Aug_26_1101,ProdSingRedoBetween,2021.2.3,59.94618031931163,
82,0,82,0,,,,,,,,,,,,,,,,,,,,,,,,,,422.7855485,None,oxygen,63,83,sing,red,420.77085750000003,None,None,420.77085750000003,None,,,,,,,,,,,,,,,,,,,,,,,,,,,,,,,,,,,27Sing,001,2022_Aug_26_1101,ProdSingRedoBetween,2021.2.3,59.94618031931163,
83,0,83,0,,,,,,,,,,,,,,,,,,,,,,,,,,425.30468429999996,None,benefit,4,84,sing,yellow,423.28959199999997,None,None,423.28959199999997,None,,,,,,,,,,,,,,,,,,,,,,,,,,,,,,,,,,,27Sing,001,2022_Aug_26_1101,ProdSingRedoBetween,2021.2.3,59.94618031931163,
84,0,84,0,,,,,,,,,,,,,,,,,,,,,,,,,,427.82397579999997,None,worker,45,85,sing,blue,425.8139807,None,None,425.8139807,None,,,,,,,,,,,,,,,,,,,,,,,,,,,,,,,,,,,27Sing,001,2022_Aug_26_1101,ProdSingRedoBetween,2021.2.3,59.94618031931163,
85,0,85,0,,,,,,,,,,,,,,,,,,,,,,,,,,430.34316309999997,None,master,16,86,sing,yellow,428.33074079999994,None,None,428.33074079999994,None,,,,,,,,,,,,,,,,,,,,,,,,,,,,,,,,,,,27Sing,001,2022_Aug_26_1101,ProdSingRedoBetween,2021.2.3,59.94618031931163,
86,0,86,0,,,,,,,,,,,,,,,,,,,,,,,,,,432.86227340000005,None,suspect,76,87,sing,red,430.85026559999994,None,None,430.85026559999994,None,,,,,,,,,,,,,,,,,,,,,,,,,,,,,,,,,,,27Sing,001,2022_Aug_26_1101,ProdSingRedoBetween,2021.2.3,59.94618031931163,
87,0,87,0,,,,,,,,,,,,,,,,,,,,,,,,,,435.3813682,None,crime,50,88,sing,blue,433.36589560000004,None,None,433.36589560000004,None,,,,,,,,,,,,,,,,,,,,,,,,,,,,,,,,,,,27Sing,001,2022_Aug_26_1101,ProdSingRedoBetween,2021.2.3,59.94618031931163,
88,0,88,0,,,,,,,,,,,,,,,,,,,,,,,,,,437.88384799999994,None,estate,81,89,sing,red,435.88173729999994,None,None,435.88173729999994,None,,,,,,,,,,,,,,,,,,,,,,,,,,,,,,,,,,,27Sing,001,2022_Aug_26_1101,ProdSingRedoBetween,2021.2.3,59.94618031931163,
89,0,89,0,,,,,,,,,,,,,,,,,,,,,,,,,,440.40315150000004,None,shape,46,90,sing,blue,438.3948401,None,None,438.3948401,None,,,,,,,,,,,,,,,,,,,,,,,,,,,,,,,,,,,27Sing,001,2022_Aug_26_1101,ProdSingRedoBetween,2021.2.3,59.94618031931163,
,,,,,,,,,,,,,,,,,,,,,,,,,,,,,,,,,,,,,,,,,440.90400520000003,None,k,121.56244049999998,440.90400520000003,None,,,,,,,,,,,,,,,,,,,,,,,,,,,,,27Sing,001,2022_Aug_26_1101,ProdSingRedoBetween,2021.2.3,59.94618031931163,
,,,,0,0,0,0,,,,,,,,,,,,,,,,,,,,,,570.1010094,None,,,,,,,,,,,,,,,,,minute,3,1,sing,old,yellow,562.9962562,None,562.9962562,None,6,4.814249600000039,562.9962562,None,4.814249600000039,567.830088,None,568.3306768,None,568.3306768,None,r,1.7519205000000966,568.3306768,None,1.7519205000000966,,,27Sing,001,2022_Aug_26_1101,ProdSingRedoBetween,2021.2.3,59.94618031931163,
,,,,1,0,1,0,,,,,,,,,,,,,,,,,,,,,,576.1715422,None,,,,,,,,,,,,,,,,,report,142,2,sing,new,null,570.6162708,None,570.6162708,None,6,3.8021343000000343,570.6162708,None,3.8021343000000343,574.4366704,None,574.9372986,None,574.9372986,None,r,1.2172930999998925,574.9372986,None,1.2172930999998925,,,27Sing,001,2022_Aug_26_1101,ProdSingRedoBetween,2021.2.3,59.94618031931163,
,,,,2,0,2,0,,,,,,,,,,,,,,,,,,,,,,579.8255094,None,,,,,,,,,,,,,,,,,accident,33,3,sing,old,blue,576.6755104,None,576.6755104,None,6,1.9350495999999566,576.6755104,None,1.9350495999999566,578.6413914,None,579.1446279,None,579.1446279,None,r,0.6659464000000526,579.1446279,None,0.6659464000000526,,,27Sing,001,2022_Aug_26_1101,ProdSingRedoBetween,2021.2.3,59.94618031931163,
,,,,3,0,3,0,,,,,,,,,,,,,,,,,,,,,,585.4144434,None,,,,,,,,,,,,,,,,,taste,144,4,sing,new,null,580.3333545,None,580.3333545,None,5,3.261290600000052,580.3333545,None,3.261290600000052,583.6231172,None,584.1331645,None,584.1331645,None,f,1.2613713999999163,584.1331645,None,1.2613713999999163,,,27Sing,001,2022_Aug_26_1101,ProdSingRedoBetween,2021.2.3,59.94618031931163,
,,,,4,0,4,0,,,,,,,,,,,,,,,,,,,,,,588.6364559,None,,,,,,,,,,,,,,,,,audience,36,5,sing,old,blue,585.9233503,None,585.9233503,None,6,1.7352028999999902,585.9233503,None,1.7352028999999902,587.6857244,None,588.2084622,None,588.2084622,None,r,0.4020845999999665,588.2084622,None,0.4020845999999665,,,27Sing,001,2022_Aug_26_1101,ProdSingRedoBetween,2021.2.3,59.94618031931163,
,,,,5,0,5,0,,,,,,,,,,,,,,,,,,,,,,592.638326,None,,,,,,,,,,,,,,,,,style,52,6,sing,old,blue,589.1591401,None,589.1591401,None,6,1.643487499999992,589.1591401,None,1.643487499999992,590.828832,None,591.3403178,None,591.3403178,None,f,1.278211600000077,591.3403178,None,1.278211600000077,,,27Sing,001,2022_Aug_26_1101,ProdSingRedoBetween,2021.2.3,59.94618031931163,
,,,,6,0,6,0,,,,,,,,,,,,,,,,,,,,,,597.7099656,None,,,,,,,,,,,,,,,,,treatment,111,7,sing,new,null,593.14759,None,593.14759,None,1,2.1912035000000287,593.14759,None,2.1912035000000287,595.3655064,None,595.8754375,None,595.8754375,None,n,1.8070363000000498,595.8754375,None,1.8070363000000498,,,27Sing,001,2022_Aug_26_1101,ProdSingRedoBetween,2021.2.3,59.94618031931163,
,,,,7,0,7,0,,,,,,,,,,,,,,,,,,,,,,601.5639507,None,,,,,,,,,,,,,,,,,color,95,8,sing,new,null,598.2148274,None,598.2148274,None,1,1.9717983000000459,598.2148274,None,1.9717983000000459,600.21817,None,600.7331105,None,600.7331105,None,n,0.8054094999999961,600.7331105,None,0.8054094999999961,,,27Sing,001,2022_Aug_26_1101,ProdSingRedoBetween,2021.2.3,59.94618031931163,
,,,,8,0,8,0,,,,,,,,,,,,,,,,,,,,,,606.9885522,None,,,,,,,,,,,,,,,,,cover,39,9,sing,old,blue,602.0809737,None,602.0809737,None,4,3.0975201999999626,602.0809737,None,3.0975201999999626,605.2030855,None,605.7182133,None,605.7182133,None,f,1.2364539999999806,605.7182133,None,1.2364539999999806,,,27Sing,001,2022_Aug_26_1101,ProdSingRedoBetween,2021.2.3,59.94618031931163,
,,,,9,0,9,0,,,,,,,,,,,,,,,,,,,,,,612.3913357,None,,,,,,,,,,,,,,,,,foundation,178,10,sing,new,null,607.5124462,None,607.5124462,None,2,3.4260638999999173,607.5124462,None,3.4260638999999173,610.960197,None,611.4739396,None,611.4739396,None,n,0.8966069000000516,611.4739396,None,0.8966069000000516,,,27Sing,001,2022_Aug_26_1101,ProdSingRedoBetween,2021.2.3,59.94618031931163,
,,,,10,0,10,0,,,,,,,,,,,,,,,,,,,,,,615.4108293,None,,,,,,,,,,,,,,,,,waste,161,11,sing,new,null,612.9102188,None,612.9102188,None,1,1.6044765999999981,612.9102188,None,1.6044765999999981,614.5520547,None,615.0673879,None,615.0673879,None,n,0.3271224000000075,615.0673879,None,0.3271224000000075,,,27Sing,001,2022_Aug_26_1101,ProdSingRedoBetween,2021.2.3,59.94618031931163,
,,,,11,0,11,0,,,,,,,,,,,,,,,,,,,,,,620.4995510000001,None,,,,,,,,,,,,,,,,,provision,0,12,sing,old,yellow,615.9249643,None,615.9249643,None,2,3.1254811999999674,615.9249643,None,3.1254811999999674,619.0887147000001,None,619.60239,None,619.60239,None,n,0.8721543999999994,619.60239,None,0.8721543999999994,,,27Sing,001,2022_Aug_26_1101,ProdSingRedoBetween,2021.2.3,59.94618031931163,
,,,,12,0,12,0,,,,,,,,,,,,,,,,,,,,,,624.2865555000001,None,,,,,,,,,,,,,,,,,exchange,126,13,sing,new,null,621.0156667000001,None,621.0156667000001,None,1,1.9309151999998448,621.0156667000001,None,1.9309151999998448,622.9802809,None,623.489028,None,623.489028,None,n,0.7694627000000764,623.489028,None,0.7694627000000764,,,27Sing,001,2022_Aug_26_1101,ProdSingRedoBetween,2021.2.3,59.94618031931163,
,,,,13,0,13,0,,,,,,,,,,,,,,,,,,,,,,626.9936964000001,None,,,,,,,,,,,,,,,,,command,160,14,sing,new,null,624.7977907,None,624.7977907,None,1,1.1727955999999722,624.7977907,None,1.1727955999999722,625.9918441,None,626.5116952999999,None,626.5116952999999,None,n,0.45898810000016965,626.5116952999999,None,0.45898810000016965,,,27Sing,001,2022_Aug_26_1101,ProdSingRedoBetween,2021.2.3,59.94618031931163,
,,,,14,0,14,0,,,,,,,,,,,,,,,,,,,,,,632.8484788999999,None,,,,,,,,,,,,,,,,,answer,62,15,sing,old,red,627.5096429,None,627.5096429,None,3,2.28483140000003,627.5096429,None,2.28483140000003,629.8265953,None,630.3305295,None,630.3305295,None,n,2.4881026000000475,630.3305295,None,2.4881026000000475,,,27Sing,001,2022_Aug_26_1101,ProdSingRedoBetween,2021.2.3,59.94618031931163,
,,,,15,0,15,0,,,,,,,,,,,,,,,,,,,,,,636.5154456,None,,,,,,,,,,,,,,,,,broke,89,16,sing,old,red,633.3766635,None,633.3766635,None,6,1.4498725999999351,633.3766635,None,1.4498725999999351,634.8521570999999,None,635.3662973,None,635.3662973,None,r,1.1321285999999873,635.3662973,None,1.1321285999999873,,,27Sing,001,2022_Aug_26_1101,ProdSingRedoBetween,2021.2.3,59.94618031931163,
,,,,16,0,16,0,,,,,,,,,,,,,,,,,,,,,,641.2422116,None,,,,,,,,,,,,,,,,,income,172,17,sing,new,null,637.0203775,None,637.0203775,None,3,2.438247199999978,637.0203775,None,2.438247199999978,639.4930439,None,640.0022564999999,None,640.0022564999999,None,n,1.208326500000112,640.0022564999999,None,1.208326500000112,,,27Sing,001,2022_Aug_26_1101,ProdSingRedoBetween,2021.2.3,59.94618031931163,
,,,,17,0,17,0,,,,,,,,,,,,,,,,,,,,,,644.476482,None,,,,,,,,,,,,,,,,,commercial,157,18,sing,new,null,641.7590875000001,None,641.7590875000001,None,1,1.723563500000182,641.7590875000001,None,1.723563500000182,643.5211517,None,644.0302122999999,None,644.0302122999999,None,n,0.4204070999999203,644.0302122999999,None,0.4204070999999203,,,27Sing,001,2022_Aug_26_1101,ProdSingRedoBetween,2021.2.3,59.94618031931163,
,,,,18,0,18,0,,,,,,,,,,,,,,,,,,,,,,649.4450678000001,None,,,,,,,,,,,,,,,,,school,57,19,sing,old,blue,644.9933884,None,644.9933884,None,5,2.9291309000000183,644.9933884,None,2.9291309000000183,647.9514993,None,648.4622408,None,648.4622408,None,f,0.9641496000001553,648.4622408,None,0.9641496000001553,,,27Sing,001,2022_Aug_26_1101,ProdSingRedoBetween,2021.2.3,59.94618031931163,
,,,,19,0,19,0,,,,,,,,,,,,,,,,,,,,,,653.3323803999999,None,,,,,,,,,,,,,,,,,society,173,20,sing,new,null,649.9561561,None,649.9561561,None,1,1.3424949000000197,649.9561561,None,1.3424949000000197,651.3247885000001,None,651.843521,None,651.843521,None,n,1.4628834999998617,651.843521,None,1.4628834999998617,,,27Sing,001,2022_Aug_26_1101,ProdSingRedoBetween,2021.2.3,59.94618031931163,
,,,,20,0,20,0,,,,,,,,,,,,,,,,,,,,,,656.6036459,None,,,,,,,,,,,,,,,,,permit,56,21,sing,old,blue,653.8426737,None,653.8426737,None,6,1.407761100000016,653.8426737,None,1.407761100000016,655.2695808999999,None,655.7870469,None,655.7870469,None,r,0.7995687000000089,655.7870469,None,0.7995687000000089,,,27Sing,001,2022_Aug_26_1101,ProdSingRedoBetween,2021.2.3,59.94618031931163,
,,,,21,0,21,0,,,,,,,,,,,,,,,,,,,,,,659.5885582999999,None,,,,,,,,,,,,,,,,,bitter,53,22,sing,old,blue,657.1061890000001,None,657.1061890000001,None,6,1.744343100000151,657.1061890000001,None,1.744343100000151,658.8780081,None,659.3919426,None,659.3919426,None,r,0.17042480000009164,659.3919426,None,0.17042480000009164,,,27Sing,001,2022_Aug_26_1101,ProdSingRedoBetween,2021.2.3,59.94618031931163,
,,,,22,0,22,0,,,,,,,,,,,,,,,,,,,,,,662.3745541999999,None,,,,,,,,,,,,,,,,,estate,81,23,sing,old,red,660.0989921999999,None,660.0989921999999,None,6,1.2954939999999624,660.0989921999999,None,1.2954939999999624,661.4263583,None,661.9450667000001,None,661.9450667000001,None,r,0.4093901999999616,661.9450667000001,None,0.4093901999999616,,,27Sing,001,2022_Aug_26_1101,ProdSingRedoBetween,2021.2.3,59.94618031931163,
,,,,23,0,23,0,,,,,,,,,,,,,,,,,,,,,,665.1273105,None,,,,,,,,,,,,,,,,,running,147,24,sing,new,null,662.8855238000001,None,662.8855238000001,None,1,1.6849631000000045,662.8855238000001,None,1.6849631000000045,664.6001478000001,None,665.1121508000001,None,665.1121508000001,None,n,0.002509700000018711,665.1121508000001,None,0.002509700000018711,,,27Sing,001,2022_Aug_26_1101,ProdSingRedoBetween,2021.2.3,59.94618031931163,
,,,,24,0,24,0,,,,,,,,,,,,,,,,,,,,,,667.4474923,None,,,,,,,,,,,,,,,,,front,7,25,sing,old,yellow,665.6380866,None,665.6380866,None,1,1.212566200000083,665.6380866,None,1.212566200000083,666.8859944000001,None,667.3975333999999,None,667.3975333999999,None,n,0.021037399999841,667.3975333999999,None,0.021037399999841,,,27Sing,001,2022_Aug_26_1101,ProdSingRedoBetween,2021.2.3,59.94618031931163,
,,,,25,0,25,0,,,,,,,,,,,,,,,,,,,,,,669.5004094000001,None,,,,,,,,,,,,,,,,,budget,135,26,sing,new,null,667.9580358000001,None,667.9580358000001,None,1,0.9323885999999675,667.9580358000001,None,0.9323885999999675,668.9162902999999,None,669.4336628000001,None,669.4336628000001,None,n,0.040908100000024206,669.4336628000001,None,0.040908100000024206,,,27Sing,001,2022_Aug_26_1101,ProdSingRedoBetween,2021.2.3,59.94618031931163,
,,,,26,0,26,0,,,,,,,,,,,,,,,,,,,,,,673.1687056000001,None,,,,,,,,,,,,,,,,,review,145,27,sing,new,null,670.0324997,None,670.0324997,None,1,1.8979593000001387,670.0324997,None,1.8979593000001387,671.9547508999999,None,672.4728321,None,672.4728321,None,n,0.6735884999998234,672.4728321,None,0.6735884999998234,,,27Sing,001,2022_Aug_26_1101,ProdSingRedoBetween,2021.2.3,59.94618031931163,
,,,,27,0,27,0,,,,,,,,,,,,,,,,,,,,,,676.2218261,None,,,,,,,,,,,,,,,,,watch,163,28,sing,new,null,673.6820131,None,673.6820131,None,1,0.9765203000001748,673.6820131,None,0.9765203000001748,674.6936787,None,675.2076688,None,675.2076688,None,n,0.9947681000001012,675.2076688,None,0.9947681000001012,,,27Sing,001,2022_Aug_26_1101,ProdSingRedoBetween,2021.2.3,59.94618031931163,
,,,,28,0,28,0,,,,,,,,,,,,,,,,,,,,,,680.161546,None,,,,,,,,,,,,,,,,,store,102,29,sing,new,null,676.7316433999999,None,676.7316433999999,None,5,2.11078509999993,676.7316433999999,None,2.11078509999993,678.8589715,None,679.3636228,None,679.3636228,None,f,0.7669104999999945,679.3636228,None,0.7669104999999945,,,27Sing,001,2022_Aug_26_1101,ProdSingRedoBetween,2021.2.3,59.94618031931163,
,,,,29,0,29,0,,,,,,,,,,,,,,,,,,,,,,682.7783208999999,None,,,,,,,,,,,,,,,,,height,177,30,sing,new,null,680.6883555,None,680.6883555,None,1,1.4820756000001438,680.6883555,None,1.4820756000001438,682.1966279999999,None,682.7151385,None,682.7151385,None,n,0.03922469999997702,682.7151385,None,0.03922469999997702,,,27Sing,001,2022_Aug_26_1101,ProdSingRedoBetween,2021.2.3,59.94618031931163,
,,,,30,0,30,0,,,,,,,,,,,,,,,,,,,,,,687.2493995,None,,,,,,,,,,,,,,,,,capital,64,31,sing,old,red,683.2890156999999,None,683.2890156999999,None,6,2.4813672000000224,683.2890156999999,None,2.4813672000000224,685.7990625,None,686.3039255000001,None,686.3039255000001,None,f,0.9305006000001868,686.3039255000001,None,0.9305006000001868,,,27Sing,001,2022_Aug_26_1101,ProdSingRedoBetween,2021.2.3,59.94618031931163,
,,,,31,0,31,0,,,,,,,,,,,,,,,,,,,,,,690.7894145,None,,,,,,,,,,,,,,,,,oxygen,63,32,sing,old,red,687.7617386,None,687.7617386,None,6,1.9607418000000507,687.7617386,None,1.9607418000000507,689.7528953000001,None,690.2567254,None,690.2567254,None,f,0.5058005000000776,690.2567254,None,0.5058005000000776,,,27Sing,001,2022_Aug_26_1101,ProdSingRedoBetween,2021.2.3,59.94618031931163,
,,,,32,0,32,0,,,,,,,,,,,,,,,,,,,,,,695.7745465999999,None,,,,,,,,,,,,,,,,,tough,106,33,sing,new,null,691.3119743,None,691.3119743,None,4,3.5384358000001157,691.3119743,None,3.5384358000001157,694.8735168999999,None,695.3784228,None,695.3784228,None,f,0.3760728000002018,695.3784228,None,0.3760728000002018,,,27Sing,001,2022_Aug_26_1101,ProdSingRedoBetween,2021.2.3,59.94618031931163,
,,,,33,0,33,0,,,,,,,,,,,,,,,,,,,,,,699.1946662,None,,,,,,,,,,,,,,,,,volume,125,34,sing,new,null,696.2835063,None,696.2835063,None,1,1.4230155999998715,696.2835063,None,1.4230155999998715,697.7347574999999,None,698.2447623999999,None,698.2447623999999,None,n,0.9337401000000227,698.2447623999999,None,0.9337401000000227,,,27Sing,001,2022_Aug_26_1101,ProdSingRedoBetween,2021.2.3,59.94618031931163,
,,,,34,0,34,0,,,,,,,,,,,,,,,,,,,,,,705.5029471,None,,,,,,,,,,,,,,,,,carry,2,35,sing,old,yellow,699.7035942,None,699.7035942,None,3,4.554964900000186,699.7035942,None,4.554964900000186,704.2923741,None,704.8004794000001,None,704.8004794000001,None,n,0.6818774000000758,704.8004794000001,None,0.6818774000000758,,,27Sing,001,2022_Aug_26_1101,ProdSingRedoBetween,2021.2.3,59.94618031931163,
,,,,35,0,35,0,,,,,,,,,,,,,,,,,,,,,,707.9534752,None,,,,,,,,,,,,,,,,,primary,38,36,sing,old,blue,706.0326356,None,706.0326356,None,3,1.3138718000000154,706.0326356,None,1.3138718000000154,707.3781646,None,707.8907734,None,707.8907734,None,n,0.031772799999998824,707.8907734,None,0.031772799999998824,,,27Sing,001,2022_Aug_26_1101,ProdSingRedoBetween,2021.2.3,59.94618031931163,
,,,,36,0,36,0,,,,,,,,,,,,,,,,,,,,,,710.4059377000001,None,,,,,,,,,,,,,,,,,rural,94,37,sing,new,null,708.464995,None,708.464995,None,1,1.3374604000000545,708.464995,None,1.3374604000000545,709.8252513,None,710.3433562,None,710.3433562,None,n,0.04303790000017216,710.3433562,None,0.04303790000017216,,,27Sing,001,2022_Aug_26_1101,ProdSingRedoBetween,2021.2.3,59.94618031931163,
,,,,37,0,37,0,,,,,,,,,,,,,,,,,,,,,,712.4787795,None,,,,,,,,,,,,,,,,,youth,108,38,sing,new,null,710.9178125000001,None,710.9178125000001,None,1,0.9485970999999154,710.9178125000001,None,0.9485970999999154,711.8919372,None,712.3951006,None,712.3951006,None,n,0.05545970000002853,712.3951006,None,0.05545970000002853,,,27Sing,001,2022_Aug_26_1101,ProdSingRedoBetween,2021.2.3,59.94618031931163,
,,,,38,0,38,0,,,,,,,,,,,,,,,,,,,,,,714.8770079000001,None,,,,,,,,,,,,,,,,,question,97,39,sing,new,null,713.0028434999999,None,713.0028434999999,None,1,1.2477237999999033,713.0028434999999,None,1.2477237999999033,714.2864351000001,None,714.7962989,None,714.7962989,None,n,0.05406940000011673,714.7962989,None,0.05406940000011673,,,27Sing,001,2022_Aug_26_1101,ProdSingRedoBetween,2021.2.3,59.94618031931163,
,,,,39,0,39,0,,,,,,,,,,,,,,,,,,,,,,718.6640961999999,None,,,,,,,,,,,,,,,,,stranger,74,40,sing,old,red,715.3880307,None,715.3880307,None,6,2.094461899999942,715.3880307,None,2.094461899999942,717.5173738000001,None,718.0320495000001,None,718.0320495000001,None,f,0.6023588999998992,718.0320495000001,None,0.6023588999998992,,,27Sing,001,2022_Aug_26_1101,ProdSingRedoBetween,2021.2.3,59.94618031931163,
,,,,40,0,40,0,,,,,,,,,,,,,,,,,,,,,,724.4550581999999,None,,,,,,,,,,,,,,,,,travel,112,41,sing,new,null,719.1719574000001,None,719.1719574000001,None,4,4.222622300000012,719.1719574000001,None,4.222622300000012,723.4303067000001,None,723.9407795,None,723.9407795,None,n,0.485723999999891,723.9407795,None,0.485723999999891,,,27Sing,001,2022_Aug_26_1101,ProdSingRedoBetween,2021.2.3,59.94618031931163,
,,,,41,0,41,0,,,,,,,,,,,,,,,,,,,,,,728.8076065,None,,,,,,,,,,,,,,,,,surface,22,42,sing,old,yellow,724.9798845,None,724.9798845,None,1,3.006730999999945,724.9798845,None,3.006730999999945,728.0230635,None,728.5307055000001,None,728.5307055000001,None,n,0.25570559999982834,728.5307055000001,None,0.25570559999982834,,,27Sing,001,2022_Aug_26_1101,ProdSingRedoBetween,2021.2.3,59.94618031931163,
,,,,42,0,42,0,,,,,,,,,,,,,,,,,,,,,,732.1775975999999,None,,,,,,,,,,,,,,,,,expansion,141,43,sing,new,null,729.3184948999999,None,729.3184948999999,None,1,2.203961100000015,729.3184948999999,None,2.203961100000015,731.5508635000001,None,732.0669769000001,None,732.0669769000001,None,n,0.08738960000005136,732.0669769000001,None,0.08738960000005136,,,27Sing,001,2022_Aug_26_1101,ProdSingRedoBetween,2021.2.3,59.94618031931163,
,,,,43,0,43,0,,,,,,,,,,,,,,,,,,,,,,737.3846963999999,None,,,,,,,,,,,,,,,,,under,18,44,sing,old,yellow,732.6879736000001,None,732.6879736000001,None,1,3.48256020000008,732.6879736000001,None,3.48256020000008,736.2065633,None,736.7194489000001,None,736.7194489000001,None,n,0.6430301000000327,736.7194489000001,None,0.6430301000000327,,,27Sing,001,2022_Aug_26_1101,ProdSingRedoBetween,2021.2.3,59.94618031931163,
,,,,44,0,44,0,,,,,,,,,,,,,,,,,,,,,,739.6684472,None,,,,,,,,,,,,,,,,,safety,86,45,sing,old,red,737.9063232999999,None,737.9063232999999,None,1,1.1040646000001288,737.9063232999999,None,1.1040646000001288,739.0375785000001,None,739.5566607000001,None,739.5566607000001,None,n,0.08570940000004157,739.5566607000001,None,0.08570940000004157,,,27Sing,001,2022_Aug_26_1101,ProdSingRedoBetween,2021.2.3,59.94618031931163,
,,,,45,0,45,0,,,,,,,,,,,,,,,,,,,,,,743.1386072,None,,,,,,,,,,,,,,,,,sound,1,46,sing,old,yellow,740.1785815000001,None,740.1785815000001,None,1,1.7358595999999125,740.1785815000001,None,1.7358595999999125,741.9436370999999,None,742.4546097,None,742.4546097,None,n,0.6598338999999669,742.4546097,None,0.6598338999999669,,,27Sing,001,2022_Aug_26_1101,ProdSingRedoBetween,2021.2.3,59.94618031931163,
,,,,46,0,46,0,,,,,,,,,,,,,,,,,,,,,,745.2761298,None,,,,,,,,,,,,,,,,,little,47,47,sing,old,blue,743.6521138999999,None,743.6521138999999,None,1,0.9583838000000924,743.6521138999999,None,0.9583838000000924,744.6421579,None,745.1643515999999,None,745.1643515999999,None,n,0.08606250000002547,745.1643515999999,None,0.08606250000002547,,,27Sing,001,2022_Aug_26_1101,ProdSingRedoBetween,2021.2.3,59.94618031931163,
,,,,47,0,47,0,,,,,,,,,,,,,,,,,,,,,,749.3447139,None,,,,,,,,,,,,,,,,,captain,9,48,sing,old,yellow,745.7955234000001,None,745.7955234000001,None,2,2.038955299999998,745.7955234000001,None,2.038955299999998,747.8682034999999,None,748.3909374,None,748.3909374,None,n,0.9314765999999963,748.3909374,None,0.9314765999999963,,,27Sing,001,2022_Aug_26_1101,ProdSingRedoBetween,2021.2.3,59.94618031931163,
,,,,48,0,48,0,,,,,,,,,,,,,,,,,,,,,,751.8995201,None,,,,,,,,,,,,,,,,,length,164,49,sing,new,null,749.8601305,None,749.8601305,None,1,0.870414700000083,749.8601305,None,0.870414700000083,750.7494475999999,None,751.2634036,None,751.2634036,None,n,0.6110877999999502,751.2634036,None,0.6110877999999502,,,27Sing,001,2022_Aug_26_1101,ProdSingRedoBetween,2021.2.3,59.94618031931163,
,,,,49,0,49,0,,,,,,,,,,,,,,,,,,,,,,754.2551461,None,,,,,,,,,,,,,,,,,motion,136,50,sing,new,null,752.4245409,None,752.4245409,None,1,0.7137910999999804,752.4245409,None,0.7137910999999804,753.1652388,None,753.6668187,None,753.6668187,None,n,0.5677060000000438,753.6668187,None,0.5677060000000438,,,27Sing,001,2022_Aug_26_1101,ProdSingRedoBetween,2021.2.3,59.94618031931163,
,,,,50,0,50,0,,,,,,,,,,,,,,,,,,,,,,758.2870421,None,,,,,,,,,,,,,,,,,edition,87,51,sing,old,red,754.7740292999999,None,754.7740292999999,None,3,2.6604718000000958,754.7740292999999,None,2.6604718000000958,757.4592177,None,757.9772886999999,None,757.9772886999999,None,n,0.28917630000000827,757.9772886999999,None,0.28917630000000827,,,27Sing,001,2022_Aug_26_1101,ProdSingRedoBetween,2021.2.3,59.94618031931163,
,,,,51,0,51,0,,,,,,,,,,,,,,,,,,,,,,761.1898940000001,None,,,,,,,,,,,,,,,,,appeal,120,52,sing,new,null,758.8013214,None,758.8013214,None,1,1.5610183000001143,758.8013214,None,1.5610183000001143,760.39507,None,760.9080587000001,None,760.9080587000001,None,n,0.254304300000058,760.9080587000001,None,0.254304300000058,,,27Sing,001,2022_Aug_26_1101,ProdSingRedoBetween,2021.2.3,59.94618031931163,
,,,,52,0,52,0,,,,,,,,,,,,,,,,,,,,,,763.1156509,None,,,,,,,,,,,,,,,,,partner,155,53,sing,new,null,761.7040472000001,None,761.7040472000001,None,1,0.7943190000000868,761.7040472000001,None,0.7943190000000868,762.5276681,None,763.0511529999999,None,763.0511529999999,None,n,0.03119590000005701,763.0511529999999,None,0.03119590000005701,,,27Sing,001,2022_Aug_26_1101,ProdSingRedoBetween,2021.2.3,59.94618031931163,
,,,,53,0,53,0,,,,,,,,,,,,,,,,,,,,,,765.2773747000001,None,,,,,,,,,,,,,,,,,personnel,105,54,sing,new,null,763.6446596000001,None,763.6446596000001,None,1,0.9179492000000664,763.6446596000001,None,0.9179492000000664,764.5982176,None,765.1146785999999,None,765.1146785999999,None,n,0.1356356000001142,765.1146785999999,None,0.1356356000001142,,,27Sing,001,2022_Aug_26_1101,ProdSingRedoBetween,2021.2.3,59.94618031931163,
,,,,54,0,54,0,,,,,,,,,,,,,,,,,,,,,,767.1124658000001,None,,,,,,,,,,,,,,,,,south,116,55,sing,new,null,765.7881012,None,765.7881012,None,1,0.6702241000000413,765.7881012,None,0.6702241000000413,766.4797550000001,None,766.9847081999999,None,766.9847081999999,None,n,0.09769110000002001,766.9847081999999,None,0.09769110000002001,,,27Sing,001,2022_Aug_26_1101,ProdSingRedoBetween,2021.2.3,59.94618031931163,
,,,,55,0,55,0,,,,,,,,,,,,,,,,,,,,,,770.2656909,None,,,,,,,,,,,,,,,,,rough,54,56,sing,old,blue,767.6211900999999,None,767.6211900999999,None,5,2.0211926999998013,767.6211900999999,None,2.0211926999998013,769.6669337999999,None,770.1870015,None,770.1870015,None,f,0.055446600000095714,770.1870015,None,0.055446600000095714,,,27Sing,001,2022_Aug_26_1101,ProdSingRedoBetween,2021.2.3,59.94618031931163,
,,,,56,0,56,0,,,,,,,,,,,,,,,,,,,,,,773.7524162,None,,,,,,,,,,,,,,,,,break,151,57,sing,new,null,770.7805827,None,770.7805827,None,1,1.7737739000001511,770.7805827,None,1.7737739000001511,772.5843864999999,None,773.0893470000001,None,773.0893470000001,None,n,0.6330405000001065,773.0893470000001,None,0.6330405000001065,,,27Sing,001,2022_Aug_26_1101,ProdSingRedoBetween,2021.2.3,59.94618031931163,
,,,,57,0,57,0,,,,,,,,,,,,,,,,,,,,,,775.5394676999999,None,,,,,,,,,,,,,,,,,beauty,79,58,sing,old,red,774.2676080000001,None,774.2676080000001,None,1,0.6388007000000471,774.2676080000001,None,0.6388007000000471,774.9400066999999,None,775.4628250999999,None,775.4628250999999,None,n,0.05961139999999432,775.4628250999999,None,0.05961139999999432,,,27Sing,001,2022_Aug_26_1101,ProdSingRedoBetween,2021.2.3,59.94618031931163,
,,,,58,0,58,0,,,,,,,,,,,,,,,,,,,,,,777.2236797999999,None,,,,,,,,,,,,,,,,,tragedy,121,59,sing,new,null,776.060297,None,776.060297,None,1,0.5102391000000353,776.060297,None,0.5102391000000353,776.5966794000001,None,777.113648,None,777.113648,None,n,0.08081769999989774,777.113648,None,0.08081769999989774,,,27Sing,001,2022_Aug_26_1101,ProdSingRedoBetween,2021.2.3,59.94618031931163,
,,,,59,0,59,0,,,,,,,,,,,,,,,,,,,,,,779.6250202000001,None,,,,,,,,,,,,,,,,,match,26,60,sing,old,yellow,777.7275826,None,777.7275826,None,1,1.2347720999998728,777.7275826,None,1.2347720999998728,778.9910147,None,779.4968670000001,None,779.4968670000001,None,n,0.10557229999994888,779.4968670000001,None,0.10557229999994888,,,27Sing,001,2022_Aug_26_1101,ProdSingRedoBetween,2021.2.3,59.94618031931163,
,,,,60,0,60,0,,,,,,,,,,,,,,,,,,,,,,782.3276863000001,None,,,,,,,,,,,,,,,,,pretty,58,61,sing,old,blue,780.1410983999999,None,780.1410983999999,None,6,1.3013558000000103,780.1410983999999,None,1.3013558000000103,781.4718748,None,781.9779572,None,781.9779572,None,r,0.32836939999992865,781.9779572,None,0.32836939999992865,,,27Sing,001,2022_Aug_26_1101,ProdSingRedoBetween,2021.2.3,59.94618031931163,
,,,,61,0,61,0,,,,,,,,,,,,,,,,,,,,,,785.5141432,None,,,,,,,,,,,,,,,,,graduate,150,62,sing,new,null,782.8356448,None,782.8356448,None,1,2.0468384000000697,782.8356448,None,2.0468384000000697,784.9188088000001,None,785.4345306,None,785.4345306,None,n,0.0638358999999582,785.4345306,None,0.0638358999999582,,,27Sing,001,2022_Aug_26_1101,ProdSingRedoBetween,2021.2.3,59.94618031931163,
,,,,62,0,62,0,,,,,,,,,,,,,,,,,,,,,,788.7841458999999,None,,,,,,,,,,,,,,,,,short,146,63,sing,new,null,786.0283586999999,None,786.0283586999999,None,1,1.326030400000036,786.0283586999999,None,1.326030400000036,787.3878132,None,787.9040359,None,787.9040359,None,n,0.8503988999998455,787.9040359,None,0.8503988999998455,,,27Sing,001,2022_Aug_26_1101,ProdSingRedoBetween,2021.2.3,59.94618031931163,
,,,,63,0,63,0,,,,,,,,,,,,,,,,,,,,,,792.0539985,None,,,,,,,,,,,,,,,,,passage,138,64,sing,new,null,789.2878581,None,789.2878581,None,1,1.770504899999878,789.2878581,None,1.770504899999878,791.0926300000001,None,791.6036967,None,791.6036967,None,n,0.42268510000008064,791.6036967,None,0.42268510000008064,,,27Sing,001,2022_Aug_26_1101,ProdSingRedoBetween,2021.2.3,59.94618031931163,
,,,,64,0,64,0,,,,,,,,,,,,,,,,,,,,,,795.3570837,None,,,,,,,,,,,,,,,,,route,115,65,sing,new,null,792.5683187,None,792.5683187,None,1,2.2180450000000747,792.5683187,None,2.2180450000000747,794.8133,None,795.3240378999999,None,795.3240378999999,None,n,0.006423000000040702,795.3240378999999,None,0.006423000000040702,,,27Sing,001,2022_Aug_26_1101,ProdSingRedoBetween,2021.2.3,59.94618031931163,
,,,,65,0,65,0,,,,,,,,,,,,,,,,,,,,,,797.7428262999999,None,,,,,,,,,,,,,,,,,nation,92,66,sing,new,null,795.8727621999999,None,795.8727621999999,None,1,1.2416634999999587,795.8727621999999,None,1.2416634999999587,797.1496299999999,None,797.6703855000001,None,797.6703855000001,None,n,0.04401370000005045,797.6703855000001,None,0.04401370000005045,,,27Sing,001,2022_Aug_26_1101,ProdSingRedoBetween,2021.2.3,59.94618031931163,
,,,,66,0,66,0,,,,,,,,,,,,,,,,,,,,,,800.7804225,None,,,,,,,,,,,,,,,,,novel,69,67,sing,old,red,798.2544097,None,798.2544097,None,6,1.3158948999998756,798.2544097,None,1.3158948999998756,799.5978032,None,800.1137492,None,800.1137492,None,r,0.6484785999998621,800.1137492,None,0.6484785999998621,,,27Sing,001,2022_Aug_26_1101,ProdSingRedoBetween,2021.2.3,59.94618031931163,
,,,,67,0,67,0,,,,,,,,,,,,,,,,,,,,,,803.9848479,None,,,,,,,,,,,,,,,,,drink,140,68,sing,new,null,801.2901758,None,801.2901758,None,1,1.6561617999998361,801.2901758,None,1.6561617999998361,802.9700086,None,803.4822204,None,803.4822204,None,n,0.48027239999987614,803.4822204,None,0.48027239999987614,,,27Sing,001,2022_Aug_26_1101,ProdSingRedoBetween,2021.2.3,59.94618031931163,
,,,,68,0,68,0,,,,,,,,,,,,,,,,,,,,,,806.8855146999999,None,,,,,,,,,,,,,,,,,service,110,69,sing,new,null,804.5093733000001,None,804.5093733000001,None,1,1.4929713999999876,804.5093733000001,None,1.4929713999999876,806.0212961,None,806.5386610999999,None,806.5386610999999,None,n,0.327711299999919,806.5386610999999,None,0.327711299999919,,,27Sing,001,2022_Aug_26_1101,ProdSingRedoBetween,2021.2.3,59.94618031931163,
,,,,69,0,69,0,,,,,,,,,,,,,,,,,,,,,,808.987582,None,,,,,,,,,,,,,,,,,staff,8,70,sing,old,yellow,807.4024029,None,807.4024029,None,1,0.951901399999997,807.4024029,None,0.951901399999997,808.3761376,None,808.891758,None,808.891758,None,n,0.07856409999999414,808.891758,None,0.07856409999999414,,,27Sing,001,2022_Aug_26_1101,ProdSingRedoBetween,2021.2.3,59.94618031931163,
,,,,70,0,70,0,,,,,,,,,,,,,,,,,,,,,,814.2280933,None,,,,,,,,,,,,,,,,,general,82,71,sing,old,red,809.5003323999999,None,809.5003323999999,None,3,2.07803059999992,809.5003323999999,None,2.07803059999992,811.6095918000001,None,812.1315296,None,812.1315296,None,n,2.0788559000000078,812.1315296,None,2.0788559000000078,,,27Sing,001,2022_Aug_26_1101,ProdSingRedoBetween,2021.2.3,59.94618031931163,
,,,,71,0,71,0,,,,,,,,,,,,,,,,,,,,,,817.2651387999999,None,,,,,,,,,,,,,,,,,patient,28,72,sing,old,yellow,814.7561229,None,814.7561229,None,1,1.2142632000000049,814.7561229,None,1.2142632000000049,816.0021905000001,None,816.5150066000001,None,816.5150066000001,None,n,0.7194902999999613,816.5150066000001,None,0.7194902999999613,,,27Sing,001,2022_Aug_26_1101,ProdSingRedoBetween,2021.2.3,59.94618031931163,
,,,,72,0,72,0,,,,,,,,,,,,,,,,,,,,,,819.8651838000001,None,,,,,,,,,,,,,,,,,quantity,35,73,sing,old,blue,817.7909895,None,817.7909895,None,6,1.2993458999999348,817.7909895,None,1.2993458999999348,819.1176468000001,None,819.6383515,None,819.6383515,None,r,0.2119774000000234,819.6383515,None,0.2119774000000234,,,27Sing,001,2022_Aug_26_1101,ProdSingRedoBetween,2021.2.3,59.94618031931163,
,,,,73,0,73,0,,,,,,,,,,,,,,,,,,,,,,823.9040276000001,None,,,,,,,,,,,,,,,,,public,5,74,sing,old,yellow,820.3759281,None,820.3759281,None,2,2.8583467999999357,820.3759281,None,2.8583467999999357,823.2532409999999,None,823.7587217,None,823.7587217,None,n,0.11563650000016423,823.7587217,None,0.11563650000016423,,,27Sing,001,2022_Aug_26_1101,ProdSingRedoBetween,2021.2.3,59.94618031931163,
,,,,74,0,74,0,,,,,,,,,,,,,,,,,,,,,,827.3581741,None,,,,,,,,,,,,,,,,,thick,27,75,sing,old,yellow,824.421132,None,824.421132,None,6,1.3572285000000193,824.421132,None,1.3572285000000193,825.8120563,None,826.3263251999999,None,826.3263251999999,None,f,1.004113499999903,826.3263251999999,None,1.004113499999903,,,27Sing,001,2022_Aug_26_1101,ProdSingRedoBetween,2021.2.3,59.94618031931163,
,,,,75,0,75,0,,,,,,,,,,,,,,,,,,,,,,831.3765423,None,,,,,,,,,,,,,,,,,shock,122,76,sing,new,null,827.8818285,None,827.8818285,None,1,2.8967640000000756,827.8818285,None,2.8967640000000756,830.8255471,None,831.3297087000001,None,831.3297087000001,None,n,0.016647400000010748,831.3297087000001,None,0.016647400000010748,,,27Sing,001,2022_Aug_26_1101,ProdSingRedoBetween,2021.2.3,59.94618031931163,
,,,,76,0,76,0,,,,,,,,,,,,,,,,,,,,,,835.1134585,None,,,,,,,,,,,,,,,,,trail,37,77,sing,old,blue,831.8841805,None,831.8841805,None,2,1.934154499999977,831.8841805,None,1.934154499999977,833.8486780000001,None,834.3630016,None,834.3630016,None,n,0.7353516000000582,834.3630016,None,0.7353516000000582,,,27Sing,001,2022_Aug_26_1101,ProdSingRedoBetween,2021.2.3,59.94618031931163,
,,,,77,0,77,0,,,,,,,,,,,,,,,,,,,,,,837.3992940999999,None,,,,,,,,,,,,,,,,,territory,70,78,sing,old,red,835.6337387000001,None,835.6337387000001,None,2,1.112790299999915,835.6337387000001,None,1.112790299999915,836.7651043999999,None,837.2708238,None,837.2708238,None,n,0.10746949999997923,837.2708238,None,0.10746949999997923,,,27Sing,001,2022_Aug_26_1101,ProdSingRedoBetween,2021.2.3,59.94618031931163,
,,,,78,0,78,0,,,,,,,,,,,,,,,,,,,,,,842.4042303000001,None,,,,,,,,,,,,,,,,,crime,50,79,sing,old,blue,837.9067565,None,837.9067565,None,6,2.903549200000043,837.9067565,None,2.903549200000043,840.8383899,None,841.3562853000001,None,841.3562853000001,None,r,1.0220171000000846,841.3562853000001,None,1.0220171000000846,,,27Sing,001,2022_Aug_26_1101,ProdSingRedoBetween,2021.2.3,59.94618031931163,
,,,,79,0,79,0,,,,,,,,,,,,,,,,,,,,,,845.1067962,None,,,,,,,,,,,,,,,,,sweet,34,80,sing,old,blue,842.9213751,None,842.9213751,None,1,0.9769539000001259,842.9213751,None,0.9769539000001259,843.9252403999999,None,844.4486523999999,None,844.4486523999999,None,n,0.6417120999999497,844.4486523999999,None,0.6417120999999497,,,27Sing,001,2022_Aug_26_1101,ProdSingRedoBetween,2021.2.3,59.94618031931163,
,,,,80,0,80,0,,,,,,,,,,,,,,,,,,,,,,847.4757694,None,,,,,,,,,,,,,,,,,individual,148,81,sing,new,null,845.6239989000001,None,845.6239989000001,None,1,1.170321400000148,845.6239989000001,None,1.170321400000148,846.8285794000001,None,847.3454271999999,None,847.3454271999999,None,n,0.11284739999996418,847.3454271999999,None,0.11284739999996418,,,27Sing,001,2022_Aug_26_1101,ProdSingRedoBetween,2021.2.3,59.94618031931163,
,,,,81,0,81,0,,,,,,,,,,,,,,,,,,,,,,849.4946803,None,,,,,,,,,,,,,,,,,author,179,82,sing,new,null,847.9832633000001,None,847.9832633000001,None,1,0.938995499999919,847.9832633000001,None,0.938995499999919,848.9437702,None,849.4475806,None,849.4475806,None,n,0.01871520000008786,849.4475806,None,0.01871520000008786,,,27Sing,001,2022_Aug_26_1101,ProdSingRedoBetween,2021.2.3,59.94618031931163,
,,,,82,0,82,0,,,,,,,,,,,,,,,,,,,,,,851.9804836999999,None,,,,,,,,,,,,,,,,,smooth,66,83,sing,old,red,850.0048543,None,850.0048543,None,1,0.8935062999998991,850.0048543,None,0.8935062999998991,850.9304684000001,None,851.4345034,None,851.4345034,None,n,0.5197058000001107,851.4345034,None,0.5197058000001107,,,27Sing,001,2022_Aug_26_1101,ProdSingRedoBetween,2021.2.3,59.94618031931163,
,,,,83,0,83,0,,,,,,,,,,,,,,,,,,,,,,855.2336447,None,,,,,,,,,,,,,,,,,block,60,84,sing,old,red,852.4909756,None,852.4909756,None,6,1.3994645999998738,852.4909756,None,1.3994645999998738,853.9253348,None,854.4365782,None,854.4365782,None,f,0.7817427999998472,854.4365782,None,0.7817427999998472,,,27Sing,001,2022_Aug_26_1101,ProdSingRedoBetween,2021.2.3,59.94618031931163,
,,,,84,0,84,0,,,,,,,,,,,,,,,,,,,,,,857.7109430999999,None,,,,,,,,,,,,,,,,,entrance,153,85,sing,new,null,855.7443446,None,855.7443446,None,1,1.4178604000001087,855.7443446,None,1.4178604000001087,857.1867064999999,None,857.688441,None,857.688441,None,n,0.002076600000009421,857.688441,None,0.002076600000009421,,,27Sing,001,2022_Aug_26_1101,ProdSingRedoBetween,2021.2.3,59.94618031931163,
,,,,85,0,85,0,,,,,,,,,,,,,,,,,,,,,,859.8550321,None,,,,,,,,,,,,,,,,,department,154,86,sing,new,null,858.2278418000001,None,858.2278418000001,None,1,0.6545305999998163,858.2278418000001,None,0.6545305999998163,858.9071825000001,None,859.425256,None,859.425256,None,n,0.40109189999998307,859.425256,None,0.40109189999998307,,,27Sing,001,2022_Aug_26_1101,ProdSingRedoBetween,2021.2.3,59.94618031931163,
,,,,86,0,86,0,,,,,,,,,,,,,,,,,,,,,,861.7417639,None,,,,,,,,,,,,,,,,,fight,167,87,sing,new,null,860.3720693,None,860.3720693,None,1,0.7260314000000108,860.3720693,None,0.7260314000000108,861.1296007000001,None,861.6461629,None,861.6461629,None,n,0.07603759999983595,861.6461629,None,0.07603759999983595,,,27Sing,001,2022_Aug_26_1101,ProdSingRedoBetween,2021.2.3,59.94618031931163,
,,,,87,0,87,0,,,,,,,,,,,,,,,,,,,,,,864.2259489999999,None,,,,,,,,,,,,,,,,,universal,10,88,sing,old,yellow,862.2413578000001,None,862.2413578000001,None,1,1.328975200000059,862.2413578000001,None,1.328975200000059,863.6040659,None,864.1137200000001,None,864.1137200000001,None,n,0.0965609999998378,864.1137200000001,None,0.0965609999998378,,,27Sing,001,2022_Aug_26_1101,ProdSingRedoBetween,2021.2.3,59.94618031931163,
,,,,88,0,88,0,,,,,,,,,,,,,,,,,,,,,,866.5612441999999,None,,,,,,,,,,,,,,,,,management,67,89,sing,old,red,864.7390315,None,864.7390315,None,1,0.7992788999999902,864.7390315,None,0.7992788999999902,865.5618563,None,866.0686174,None,866.0686174,None,n,0.46154759999990347,866.0686174,None,0.46154759999990347,,,27Sing,001,2022_Aug_26_1101,ProdSingRedoBetween,2021.2.3,59.94618031931163,
,,,,89,0,89,0,,,,,,,,,,,,,,,,,,,,,,869.4810823,None,,,,,,,,,,,,,,,,,husband,44,90,sing,old,blue,867.0730083000001,None,867.0730083000001,None,6,1.5132771999999477,867.0730083000001,None,1.5132771999999477,868.6171109,None,869.1312284999999,None,869.1312284999999,None,r,0.33507729999996627,869.1312284999999,None,0.33507729999996627,,,27Sing,001,2022_Aug_26_1101,ProdSingRedoBetween,2021.2.3,59.94618031931163,
,,,,90,0,90,0,,,,,,,,,,,,,,,,,,,,,,872.0672182000001,None,,,,,,,,,,,,,,,,,research,68,91,sing,old,red,869.9968438000001,None,869.9968438000001,None,1,1.4693721000001005,869.9968438000001,None,1.4693721000001005,871.4863962,None,872.0060174,None,872.0060174,None,n,0.044228200000134166,872.0060174,None,0.044228200000134166,,,27Sing,001,2022_Aug_26_1101,ProdSingRedoBetween,2021.2.3,59.94618031931163,
,,,,91,0,91,0,,,,,,,,,,,,,,,,,,,,,,874.2191849999999,None,,,,,,,,,,,,,,,,,whole,104,92,sing,new,null,872.5777177,None,872.5777177,None,1,0.5926901000000271,872.5777177,None,0.5926901000000271,873.2026575,None,873.7060131000001,None,873.7060131000001,None,n,0.49625049999986004,873.7060131000001,None,0.49625049999986004,,,27Sing,001,2022_Aug_26_1101,ProdSingRedoBetween,2021.2.3,59.94618031931163,
,,,,92,0,92,0,,,,,,,,,,,,,,,,,,,,,,876.3229558999999,None,,,,,,,,,,,,,,,,,century,176,93,sing,new,null,874.7292772000001,None,874.7292772000001,None,1,0.9210671999999249,874.7292772000001,None,0.9210671999999249,875.6779446,None,876.1879713999999,None,876.1879713999999,None,n,0.11037630000009813,876.1879713999999,None,0.11037630000009813,,,27Sing,001,2022_Aug_26_1101,ProdSingRedoBetween,2021.2.3,59.94618031931163,
,,,,93,0,93,0,,,,,,,,,,,,,,,,,,,,,,879.2908677,None,,,,,,,,,,,,,,,,,couch,24,94,sing,old,yellow,876.8418119,None,876.8418119,None,2,1.6004695000001448,876.8418119,None,1.6004695000001448,878.4734583,None,878.9787217999999,None,878.9787217999999,None,n,0.2955418000001373,878.9787217999999,None,0.2955418000001373,,,27Sing,001,2022_Aug_26_1101,ProdSingRedoBetween,2021.2.3,59.94618031931163,
,,,,94,0,94,0,,,,,,,,,,,,,,,,,,,,,,881.9959268,None,,,,,,,,,,,,,,,,,fashion,159,95,sing,new,null,879.8061809999999,None,879.8061809999999,None,1,1.2124168000000282,879.8061809999999,None,1.2124168000000282,881.0525190000001,None,881.5620964,None,881.5620964,None,n,0.40034369999989394,881.5620964,None,0.40034369999989394,,,27Sing,001,2022_Aug_26_1101,ProdSingRedoBetween,2021.2.3,59.94618031931163,
,,,,95,0,95,0,,,,,,,,,,,,,,,,,,,,,,883.9121511999999,None,,,,,,,,,,,,,,,,,enemy,61,96,sing,old,red,882.5168630999999,None,882.5168630999999,None,1,0.6776301999998395,882.5168630999999,None,0.6776301999998395,883.2180871,None,883.7412385,None,883.7412385,None,n,0.14904490000003534,883.7412385,None,0.14904490000003534,,,27Sing,001,2022_Aug_26_1101,ProdSingRedoBetween,2021.2.3,59.94618031931163,
,,,,96,0,96,0,,,,,,,,,,,,,,,,,,,,,,887.0820395000001,None,,,,,,,,,,,,,,,,,emergency,14,97,sing,old,yellow,884.4243724,None,884.4243724,None,2,1.8579420999999456,884.4243724,None,1.8579420999999456,886.3070902,None,886.8175163000001,None,886.8175163000001,None,n,0.24078059999988,886.8175163000001,None,0.24078059999988,,,27Sing,001,2022_Aug_26_1101,ProdSingRedoBetween,2021.2.3,59.94618031931163,
,,,,97,0,97,0,,,,,,,,,,,,,,,,,,,,,,890.2536075,None,,,,,,,,,,,,,,,,,dream,131,98,sing,new,null,887.5900300999999,None,887.5900300999999,None,1,1.9242486000000554,887.5900300999999,None,1.9242486000000554,889.5370304999999,None,890.0555449000001,None,890.0555449000001,None,n,0.1787349000001086,890.0555449000001,None,0.1787349000001086,,,27Sing,001,2022_Aug_26_1101,ProdSingRedoBetween,2021.2.3,59.94618031931163,
,,,,98,0,98,0,,,,,,,,,,,,,,,,,,,,,,895.3903837,None,,,,,,,,,,,,,,,,,executive,119,99,sing,new,null,890.7639895,None,890.7639895,None,4,3.3824121000000105,890.7639895,None,3.3824121000000105,894.1834618999999,None,894.6915492,None,894.6915492,None,f,0.6786947000000509,894.6915492,None,0.6786947000000509,,,27Sing,001,2022_Aug_26_1101,ProdSingRedoBetween,2021.2.3,59.94618031931163,
,,,,99,0,99,0,,,,,,,,,,,,,,,,,,,,,,899.7677369999999,None,,,,,,,,,,,,,,,,,state,175,100,sing,new,null,895.901026,None,895.901026,None,1,3.2694962000000487,895.901026,None,3.2694962000000487,899.2070839999999,None,899.714346,None,899.714346,None,n,0.015992000000096596,899.714346,None,0.015992000000096596,,,27Sing,001,2022_Aug_26_1101,ProdSingRedoBetween,2021.2.3,59.94618031931163,
,,,,100,0,100,0,,,,,,,,,,,,,,,,,,,,,,902.0467629,None,,,,,,,,,,,,,,,,,cousin,128,101,sing,new,null,900.2827609999999,None,900.2827609999999,None,1,0.7596215999999458,900.2827609999999,None,0.7596215999999458,901.0677851999999,None,901.5807728,None,901.5807728,None,n,0.4455892999999378,901.5807728,None,0.4455892999999378,,,27Sing,001,2022_Aug_26_1101,ProdSingRedoBetween,2021.2.3,59.94618031931163,
,,,,101,0,101,0,,,,,,,,,,,,,,,,,,,,,,904.3492375000001,None,,,,,,,,,,,,,,,,,hunger,158,102,sing,new,null,902.5613433999999,None,902.5613433999999,None,1,1.0489328999999543,902.5613433999999,None,1.0489328999999543,903.6353256,None,904.1537699999999,None,904.1537699999999,None,n,0.16852050000011332,904.1537699999999,None,0.16852050000011332,,,27Sing,001,2022_Aug_26_1101,ProdSingRedoBetween,2021.2.3,59.94618031931163,
,,,,102,0,102,0,,,,,,,,,,,,,,,,,,,,,,907.0855095,None,,,,,,,,,,,,,,,,,interview,162,103,sing,new,null,904.8499231999999,None,904.8499231999999,None,2,1.3844606000000113,904.8499231999999,None,1.3844606000000113,906.2575284,None,906.7733086000001,None,906.7733086000001,None,n,0.284894199999826,906.7733086000001,None,0.284894199999826,,,27Sing,001,2022_Aug_26_1101,ProdSingRedoBetween,2021.2.3,59.94618031931163,
,,,,103,0,103,0,,,,,,,,,,,,,,,,,,,,,,912.4905179,None,,,,,,,,,,,,,,,,,angle,165,104,sing,new,null,907.5971648,None,907.5971648,None,4,2.973343899999918,907.5971648,None,2.973343899999918,910.5965719999999,None,911.1125677,None,911.1125677,None,f,1.3619083000000956,911.1125677,None,1.3619083000000956,,,27Sing,001,2022_Aug_26_1101,ProdSingRedoBetween,2021.2.3,59.94618031931163,
,,,,104,0,104,0,,,,,,,,,,,,,,,,,,,,,,916.5781088000001,None,,,,,,,,,,,,,,,,,evidence,29,105,sing,old,blue,913.0068020000001,None,913.0068020000001,None,4,2.747468900000058,913.0068020000001,None,2.747468900000058,915.7823780000001,None,916.3001578999999,None,916.3001578999999,None,f,0.25405000000000655,916.3001578999999,None,0.25405000000000655,,,27Sing,001,2022_Aug_26_1101,ProdSingRedoBetween,2021.2.3,59.94618031931163,
,,,,105,0,105,0,,,,,,,,,,,,,,,,,,,,,,920.0984097,None,,,,,,,,,,,,,,,,,principal,23,106,sing,old,yellow,917.0885963999999,None,917.0885963999999,None,3,1.457770999999866,917.0885963999999,None,1.457770999999866,918.5717468,None,919.0860862,None,919.0860862,None,n,0.9961308999997982,919.0860862,None,0.9961308999997982,,,27Sing,001,2022_Aug_26_1101,ProdSingRedoBetween,2021.2.3,59.94618031931163,
,,,,106,0,106,0,,,,,,,,,,,,,,,,,,,,,,923.8716334999999,None,,,,,,,,,,,,,,,,,employment,117,107,sing,new,null,920.6160961,None,920.6160961,None,5,2.490211600000066,920.6160961,None,2.490211600000066,923.1392983000001,None,923.6555426,None,923.6555426,None,f,0.19486480000000483,923.6555426,None,0.19486480000000483,,,27Sing,001,2022_Aug_26_1101,ProdSingRedoBetween,2021.2.3,59.94618031931163,
,,,,107,0,107,0,,,,,,,,,,,,,,,,,,,,,,926.5716786,None,,,,,,,,,,,,,,,,,swift,174,108,sing,new,null,924.4030015999999,None,924.4030015999999,None,1,1.0472686999999041,924.4030015999999,None,1.0472686999999041,925.4783938,None,925.9900556,None,925.9900556,None,n,0.5641448999999739,925.9900556,None,0.5641448999999739,,,27Sing,001,2022_Aug_26_1101,ProdSingRedoBetween,2021.2.3,59.94618031931163,
,,,,108,0,108,0,,,,,,,,,,,,,,,,,,,,,,928.5568135000001,None,,,,,,,,,,,,,,,,,attack,91,109,sing,new,null,927.0850508000001,None,927.0850508000001,None,1,0.6772022999998626,927.0850508000001,None,0.6772022999998626,927.7953657,None,928.3093334,None,928.3093334,None,n,0.22894109999992907,928.3093334,None,0.22894109999992907,,,27Sing,001,2022_Aug_26_1101,ProdSingRedoBetween,2021.2.3,59.94618031931163,
,,,,109,0,109,0,,,,,,,,,,,,,,,,,,,,,,931.9630419,None,,,,,,,,,,,,,,,,,suspect,76,110,sing,old,red,929.0672261,None,929.0672261,None,3,1.6391097999999147,929.0672261,None,1.6391097999999147,930.7367254999999,None,931.2455927999999,None,931.2455927999999,None,n,0.6926856999998563,931.2455927999999,None,0.6926856999998563,,,27Sing,001,2022_Aug_26_1101,ProdSingRedoBetween,2021.2.3,59.94618031931163,
,,,,110,0,110,0,,,,,,,,,,,,,,,,,,,,,,935.0321489,None,,,,,,,,,,,,,,,,,force,73,111,sing,old,red,932.4867067,None,932.4867067,None,1,1.24347970000008,932.4867067,None,1.24347970000008,933.7483416,None,934.2730985000001,None,934.2730985000001,None,n,0.7371355000000221,934.2730985000001,None,0.7371355000000221,,,27Sing,001,2022_Aug_26_1101,ProdSingRedoBetween,2021.2.3,59.94618031931163,
,,,,111,0,111,0,,,,,,,,,,,,,,,,,,,,,,937.2987840999999,None,,,,,,,,,,,,,,,,,country,99,112,sing,new,null,935.5492432000001,None,935.5492432000001,None,1,1.125084300000026,935.5492432000001,None,1.125084300000026,936.7043011999999,None,937.2173087000001,None,937.2173087000001,None,n,0.056877100000065184,937.2173087000001,None,0.056877100000065184,,,27Sing,001,2022_Aug_26_1101,ProdSingRedoBetween,2021.2.3,59.94618031931163,
,,,,112,0,112,0,,,,,,,,,,,,,,,,,,,,,,939.4199622000001,None,,,,,,,,,,,,,,,,,object,123,113,sing,new,null,937.8093802000001,None,937.8093802000001,None,1,0.9689288000001852,937.8093802000001,None,0.9689288000001852,938.8093038,None,939.3214138999999,None,939.3214138999999,None,n,0.06498680000004242,939.3214138999999,None,0.06498680000004242,,,27Sing,001,2022_Aug_26_1101,ProdSingRedoBetween,2021.2.3,59.94618031931163,
,,,,113,0,113,0,,,,,,,,,,,,,,,,,,,,,,941.4529912999999,None,,,,,,,,,,,,,,,,,reading,127,114,sing,new,null,939.9401677000001,None,939.9401677000001,None,1,0.8460600000000795,939.9401677000001,None,0.8460600000000795,940.8143321,None,941.3218274999999,None,941.3218274999999,None,n,0.11242710000010447,941.3218274999999,None,0.11242710000010447,,,27Sing,001,2022_Aug_26_1101,ProdSingRedoBetween,2021.2.3,59.94618031931163,
,,,,114,0,114,0,,,,,,,,,,,,,,,,,,,,,,944.1558829999999,None,,,,,,,,,,,,,,,,,congress,41,115,sing,old,blue,941.9624825000001,None,941.9624825000001,None,6,1.5439275999999609,941.9624825000001,None,1.5439275999999609,943.5341731000001,None,944.0422716999999,None,944.0422716999999,None,r,0.09588510000003225,944.0422716999999,None,0.09588510000003225,,,27Sing,001,2022_Aug_26_1101,ProdSingRedoBetween,2021.2.3,59.94618031931163,
,,,,115,0,115,0,,,,,,,,,,,,,,,,,,,,,,947.8618363,None,,,,,,,,,,,,,,,,,leader,25,116,sing,old,yellow,944.6675109,None,944.6675109,None,1,2.0945725999999922,944.6675109,None,2.0945725999999922,946.8117146,None,947.3309847999999,None,947.3309847999999,None,n,0.5113736000000699,947.3309847999999,None,0.5113736000000699,,,27Sing,001,2022_Aug_26_1101,ProdSingRedoBetween,2021.2.3,59.94618031931163,
,,,,116,0,116,0,,,,,,,,,,,,,,,,,,,,,,950.4118867,None,,,,,,,,,,,,,,,,,portion,170,117,sing,new,null,948.386518,None,948.386518,None,1,1.0157157999999527,948.386518,None,1.0157157999999527,949.4291774999999,None,949.93345,None,949.93345,None,n,0.4607356000001346,949.93345,None,0.4607356000001346,,,27Sing,001,2022_Aug_26_1101,ProdSingRedoBetween,2021.2.3,59.94618031931163,
,,,,117,0,117,0,,,,,,,,,,,,,,,,,,,,,,953.501773,None,,,,,,,,,,,,,,,,,worker,45,118,sing,old,blue,950.9284502,None,950.9284502,None,5,1.689760700000079,950.9284502,None,1.689760700000079,952.6504264,None,953.1702754,None,953.1702754,None,f,0.3120205000000169,953.1702754,None,0.3120205000000169,,,27Sing,001,2022_Aug_26_1101,ProdSingRedoBetween,2021.2.3,59.94618031931163,
,,,,118,0,118,0,,,,,,,,,,,,,,,,,,,,,,957.6356172999999,None,,,,,,,,,,,,,,,,,crisis,156,119,sing,new,null,954.0246924,None,954.0246924,None,1,2.497654900000043,954.0246924,None,2.497654900000043,956.5599480999999,None,957.0704538,None,957.0704538,None,n,0.5476859000000331,957.0704538,None,0.5476859000000331,,,27Sing,001,2022_Aug_26_1101,ProdSingRedoBetween,2021.2.3,59.94618031931163,
,,,,119,0,119,0,,,,,,,,,,,,,,,,,,,,,,960.1549600999999,None,,,,,,,,,,,,,,,,,dispute,129,120,sing,new,null,958.1467628999999,None,958.1467628999999,None,1,1.1913154999999733,958.1467628999999,None,1.1913154999999733,959.3573633999999,None,959.8758207999999,None,959.8758207999999,None,n,0.25445510000008653,959.8758207999999,None,0.25445510000008653,,,27Sing,001,2022_Aug_26_1101,ProdSingRedoBetween,2021.2.3,59.94618031931163,
,,,,120,0,120,0,,,,,,,,,,,,,,,,,,,,,,962.4571691000001,None,,,,,,,,,,,,,,,,,platform,65,121,sing,old,red,960.670789,None,960.670789,None,1,1.1153976000000512,960.670789,None,1.1153976000000512,961.8099076999999,None,962.3270814,None,962.3270814,None,n,0.11524500000018634,962.3270814,None,0.11524500000018634,,,27Sing,001,2022_Aug_26_1101,ProdSingRedoBetween,2021.2.3,59.94618031931163,
,,,,121,0,121,0,,,,,,,,,,,,,,,,,,,,,,964.8598321,None,,,,,,,,,,,,,,,,,clear,43,122,sing,old,blue,962.9644092999999,None,962.9644092999999,None,5,1.2859627000000273,962.9644092999999,None,1.2859627000000273,964.2842595,None,964.7967286999999,None,964.7967286999999,None,f,0.03765010000006441,964.7967286999999,None,0.03765010000006441,,,27Sing,001,2022_Aug_26_1101,ProdSingRedoBetween,2021.2.3,59.94618031931163,
,,,,122,0,122,0,,,,,,,,,,,,,,,,,,,,,,969.2309187000001,None,,,,,,,,,,,,,,,,,history,55,123,sing,old,blue,965.3721665,None,965.3721665,None,4,2.590242900000021,965.3721665,None,2.590242900000021,967.9914891000001,None,968.5000901999999,None,968.5000901999999,None,f,0.7101689000000988,968.5000901999999,None,0.7101689000000988,,,27Sing,001,2022_Aug_26_1101,ProdSingRedoBetween,2021.2.3,59.94618031931163,
,,,,123,0,123,0,,,,,,,,,,,,,,,,,,,,,,972.1003472,None,,,,,,,,,,,,,,,,,impact,152,124,sing,new,null,969.7382442999999,None,969.7382442999999,None,1,1.7761031999998522,969.7382442999999,None,1.7761031999998522,971.5363371999999,None,972.0522685000001,None,972.0522685000001,None,n,0.02980939999997645,972.0522685000001,None,0.02980939999997645,,,27Sing,001,2022_Aug_26_1101,ProdSingRedoBetween,2021.2.3,59.94618031931163,
,,,,124,0,124,0,,,,,,,,,,,,,,,,,,,,,,975.7389675,None,,,,,,,,,,,,,,,,,alert,13,125,sing,old,yellow,972.6118268,None,972.6118268,None,5,1.9183916000001773,972.6118268,None,1.9183916000001773,974.5548753999999,None,975.0715143,None,975.0715143,None,f,0.6347468999999819,975.0715143,None,0.6347468999999819,,,27Sing,001,2022_Aug_26_1101,ProdSingRedoBetween,2021.2.3,59.94618031931163,
,,,,125,0,125,0,,,,,,,,,,,,,,,,,,,,,,979.1616371,None,,,,,,,,,,,,,,,,,strain,15,126,sing,old,yellow,976.2502136999999,None,976.2502136999999,None,2,1.048028800000111,976.2502136999999,None,1.048028800000111,977.3322361999999,None,977.8393947,None,977.8393947,None,n,1.2989299000000756,977.8393947,None,1.2989299000000756,,,27Sing,001,2022_Aug_26_1101,ProdSingRedoBetween,2021.2.3,59.94618031931163,
,,,,126,0,126,0,,,,,,,,,,,,,,,,,,,,,,981.4262610000001,None,,,,,,,,,,,,,,,,,light,124,127,sing,new,null,979.6778125999999,None,979.6778125999999,None,1,1.1245132999999896,979.6778125999999,None,1.1245132999999896,980.8290795,None,981.3487328000001,None,981.3487328000001,None,n,0.0535595999999714,981.3487328000001,None,0.0535595999999714,,,27Sing,001,2022_Aug_26_1101,ProdSingRedoBetween,2021.2.3,59.94618031931163,
,,,,127,0,127,0,,,,,,,,,,,,,,,,,,,,,,983.9956778000001,None,,,,,,,,,,,,,,,,,voice,109,128,sing,new,null,981.9362521999999,None,981.9362521999999,None,1,1.4500671000000693,981.9362521999999,None,1.4500671000000693,983.4169245999999,None,983.9322625,None,983.9322625,None,n,0.04588439999997718,983.9322625,None,0.04588439999997718,,,27Sing,001,2022_Aug_26_1101,ProdSingRedoBetween,2021.2.3,59.94618031931163,
,,,,128,0,128,0,,,,,,,,,,,,,,,,,,,,,,986.6649844000001,None,,,,,,,,,,,,,,,,,music,93,129,sing,new,null,984.5102382,None,984.5102382,None,1,1.5319504999999936,984.5102382,None,1.5319504999999936,986.0678184000001,None,986.5814052999999,None,986.5814052999999,None,n,0.060875099999975646,986.5814052999999,None,0.060875099999975646,,,27Sing,001,2022_Aug_26_1101,ProdSingRedoBetween,2021.2.3,59.94618031931163,
,,,,129,0,129,0,,,,,,,,,,,,,,,,,,,,,,989.2339712,None,,,,,,,,,,,,,,,,,measure,113,130,sing,new,null,987.1862295000001,None,987.1862295000001,None,1,1.0400004000000536,987.1862295000001,None,1.0400004000000536,988.2583288999999,None,988.7751681,None,988.7751681,None,n,0.43498490000001766,988.7751681,None,0.43498490000001766,,,27Sing,001,2022_Aug_26_1101,ProdSingRedoBetween,2021.2.3,59.94618031931163,
,,,,130,0,130,0,,,,,,,,,,,,,,,,,,,,,,992.2558443,None,,,,,,,,,,,,,,,,,guest,75,131,sing,old,red,989.7439623,None,989.7439623,None,1,1.8022921000001588,989.7439623,None,1.8022921000001588,991.5760419999999,None,992.0921355,None,992.0921355,None,n,0.13413050000008298,992.0921355,None,0.13413050000008298,,,27Sing,001,2022_Aug_26_1101,ProdSingRedoBetween,2021.2.3,59.94618031931163,
,,,,131,0,131,0,,,,,,,,,,,,,,,,,,,,,,995.1068541,None,,,,,,,,,,,,,,,,,instrument,12,132,sing,old,yellow,992.7787381999999,None,992.7787381999999,None,5,1.5354632999999467,992.7787381999999,None,1.5354632999999467,994.3458223,None,994.8647476000001,None,994.8647476000001,None,f,0.21744459999990795,994.8647476000001,None,0.21744459999990795,,,27Sing,001,2022_Aug_26_1101,ProdSingRedoBetween,2021.2.3,59.94618031931163,
,,,,132,0,132,0,,,,,,,,,,,,,,,,,,,,,,997.9761125,None,,,,,,,,,,,,,,,,,search,101,133,sing,new,null,995.6208652,None,995.6208652,None,1,1.6614307999998346,995.6208652,None,1.6614307999998346,997.3099777,None,997.8135574999999,None,997.8135574999999,None,n,0.13253159999999298,997.8135574999999,None,0.13253159999999298,,,27Sing,001,2022_Aug_26_1101,ProdSingRedoBetween,2021.2.3,59.94618031931163,
,,,,133,0,133,0,,,,,,,,,,,,,,,,,,,,,,1000.361784,None,,,,,,,,,,,,,,,,,second,77,134,sing,old,red,998.4841974000001,None,998.4841974000001,None,1,1.3179556000000048,998.4841974000001,None,1.3179556000000048,999.8288461,None,1000.3340645000001,None,1000.3340645000001,None,n,0.012282099999993079,1000.3340645000001,None,0.012282099999993079,,,27Sing,001,2022_Aug_26_1101,ProdSingRedoBetween,2021.2.3,59.94618031931163,
,,,,134,0,134,0,,,,,,,,,,,,,,,,,,,,,,1002.2100215999999,None,,,,,,,,,,,,,,,,,owner,96,135,sing,new,null,1000.8751935,None,1000.8751935,None,1,0.7510120000001734,1000.8751935,None,0.7510120000001734,1001.6515718999999,None,1002.1692538,None,1002.1692538,None,n,0.009213399999907779,1002.1692538,None,0.009213399999907779,,,27Sing,001,2022_Aug_26_1101,ProdSingRedoBetween,2021.2.3,59.94618031931163,
,,,,135,0,135,0,,,,,,,,,,,,,,,,,,,,,,1004.8512585000001,None,,,,,,,,,,,,,,,,,figure,90,136,sing,new,null,1002.7212238,None,1002.7212238,None,1,0.7529283999999734,1002.7212238,None,0.7529283999999734,1003.5011182000001,None,1004.0229085999999,None,1004.0229085999999,None,n,0.8112661999998636,1004.0229085999999,None,0.8112661999998636,,,27Sing,001,2022_Aug_26_1101,ProdSingRedoBetween,2021.2.3,59.94618031931163,
,,,,136,0,136,0,,,,,,,,,,,,,,,,,,,,,,1007.4187956999999,None,,,,,,,,,,,,,,,,,benefit,4,137,sing,old,yellow,1005.3667446,None,1005.3667446,None,1,1.3073113999998895,1005.3667446,None,1.3073113999998895,1006.7042386999999,None,1007.2221718999999,None,1007.2221718999999,None,n,0.17195879999985664,1007.2221718999999,None,0.17195879999985664,,,27Sing,001,2022_Aug_26_1101,ProdSingRedoBetween,2021.2.3,59.94618031931163,
,,,,137,0,137,0,,,,,,,,,,,,,,,,,,,,,,1009.9392355,None,,,,,,,,,,,,,,,,,chief,80,138,sing,old,red,1007.9294029,None,1007.9294029,None,5,1.376870899999858,1007.9294029,None,1.376870899999858,1009.3396923,None,1009.8628242,None,1009.8628242,None,f,0.051347099999929924,1009.8628242,None,0.051347099999929924,,,27Sing,001,2022_Aug_26_1101,ProdSingRedoBetween,2021.2.3,59.94618031931163,
,,,,138,0,138,0,,,,,,,,,,,,,,,,,,,,,,1012.5073018,None,,,,,,,,,,,,,,,,,tennis,114,139,sing,new,null,1010.4492680999999,None,1010.4492680999999,None,1,1.0729312999999365,1010.4492680999999,None,1.0729312999999365,1011.5478817000001,None,1012.0596786000001,None,1012.0596786000001,None,n,0.42245759999991606,1012.0596786000001,None,0.42245759999991606,,,27Sing,001,2022_Aug_26_1101,ProdSingRedoBetween,2021.2.3,59.94618031931163,
,,,,139,0,139,0,,,,,,,,,,,,,,,,,,,,,,1016.2944267,None,,,,,,,,,,,,,,,,,production,78,140,sing,old,red,1013.0196929000001,None,1013.0196929000001,None,4,2.390547599999991,1013.0196929000001,None,2.390547599999991,1015.4378846,None,1015.9490403,None,1015.9490403,None,f,0.31710960000009436,1015.9490403,None,0.31710960000009436,,,27Sing,001,2022_Aug_26_1101,ProdSingRedoBetween,2021.2.3,59.94618031931163,
,,,,140,0,140,0,,,,,,,,,,,,,,,,,,,,,,1019.8479808,None,,,,,,,,,,,,,,,,,population,20,141,sing,old,yellow,1016.8025368000001,None,1016.8025368000001,None,3,2.4636078999999427,1016.8025368000001,None,2.4636078999999427,1019.2865863,None,1019.8033900999999,None,1019.8033900999999,None,n,0.014754000000039014,1019.8033900999999,None,0.014754000000039014,,,27Sing,001,2022_Aug_26_1101,ProdSingRedoBetween,2021.2.3,59.94618031931163,
,,,,141,0,141,0,,,,,,,,,,,,,,,,,,,,,,1022.6202202,None,,,,,,,,,,,,,,,,,debate,6,142,sing,old,yellow,1020.3672097000001,None,1020.3672097000001,None,3,1.6669145000000753,1020.3672097000001,None,1.6669145000000753,1022.0542822,None,1022.56846,None,1022.56846,None,n,0.0258157000000665,1022.56846,None,0.0258157000000665,,,27Sing,001,2022_Aug_26_1101,ProdSingRedoBetween,2021.2.3,59.94618031931163,
,,,,142,0,142,0,,,,,,,,,,,,,,,,,,,,,,1024.8530151,None,,,,,,,,,,,,,,,,,shape,46,143,sing,old,blue,1023.1458405999999,None,1023.1458405999999,None,1,1.136327700000038,1023.1458405999999,None,1.136327700000038,1024.3102517,None,1024.8197975,None,1024.8197975,None,n,0.006427399999893169,1024.8197975,None,0.006427399999893169,,,27Sing,001,2022_Aug_26_1101,ProdSingRedoBetween,2021.2.3,59.94618031931163,
,,,,143,0,143,0,,,,,,,,,,,,,,,,,,,,,,1027.2268033,None,,,,,,,,,,,,,,,,,literature,107,144,sing,new,null,1025.3653441,None,1025.3653441,None,1,0.7327827999999954,1025.3653441,None,0.7327827999999954,1026.1208967,None,1026.6256586,None,1026.6256586,None,n,0.5686768999999003,1026.6256586,None,0.5686768999999003,,,27Sing,001,2022_Aug_26_1101,ProdSingRedoBetween,2021.2.3,59.94618031931163,
,,,,144,0,144,0,,,,,,,,,,,,,,,,,,,,,,1029.4744787,None,,,,,,,,,,,,,,,,,election,139,145,sing,new,null,1027.7524309,None,1027.7524309,None,1,0.9777050000000145,1027.7524309,None,0.9777050000000145,1028.7590675,None,1029.2829011,None,1029.2829011,None,n,0.16726390000007996,1029.2829011,None,0.16726390000007996,,,27Sing,001,2022_Aug_26_1101,ProdSingRedoBetween,2021.2.3,59.94618031931163,
,,,,145,0,145,0,,,,,,,,,,,,,,,,,,,,,,1032.9110206,None,,,,,,,,,,,,,,,,,committee,32,146,sing,old,blue,1029.9881504,None,1029.9881504,None,3,1.6220264999999472,1029.9881504,None,1.6220264999999472,1031.6298302,None,1032.1438228,None,1032.1438228,None,f,0.7463434000001143,1032.1438228,None,0.7463434000001143,,,27Sing,001,2022_Aug_26_1101,ProdSingRedoBetween,2021.2.3,59.94618031931163,
,,,,146,0,146,0,,,,,,,,,,,,,,,,,,,,,,1035.1315295,None,,,,,,,,,,,,,,,,,guard,134,147,sing,new,null,1033.424884,None,1033.424884,None,1,0.7452883999999358,1033.424884,None,0.7452883999999358,1034.2017987,None,1034.7130977,None,1034.7130977,None,n,0.4010517000001528,1034.7130977,None,0.4010517000001528,,,27Sing,001,2022_Aug_26_1101,ProdSingRedoBetween,2021.2.3,59.94618031931163,
,,,,147,0,147,0,,,,,,,,,,,,,,,,,,,,,,1037.4656489,None,,,,,,,,,,,,,,,,,display,85,148,sing,old,red,1035.6479267,None,1035.6479267,None,1,1.2503174000000854,1035.6479267,None,1.2503174000000854,1036.9223214,None,1037.4357914,None,1037.4357914,None,n,0.006347200000163866,1037.4357914,None,0.006347200000163866,,,27Sing,001,2022_Aug_26_1101,ProdSingRedoBetween,2021.2.3,59.94618031931163,
,,,,148,0,148,0,,,,,,,,,,,,,,,,,,,,,,1040.3519355,None,,,,,,,,,,,,,,,,,story,133,149,sing,new,null,1037.9793297,None,1037.9793297,None,1,1.3107053999999607,1037.9793297,None,1.3107053999999607,1039.3191669,None,1039.839832,None,1039.839832,None,n,0.48231779999991886,1039.839832,None,0.48231779999991886,,,27Sing,001,2022_Aug_26_1101,ProdSingRedoBetween,2021.2.3,59.94618031931163,
,,,,149,0,149,0,,,,,,,,,,,,,,,,,,,,,,1042.3386872,None,,,,,,,,,,,,,,,,,smell,166,150,sing,new,null,1040.8644573,None,1040.8644573,None,1,0.8256646999998338,1040.8644573,None,0.8256646999998338,1041.7262621,None,1042.2428757,None,1042.2428757,None,n,0.07943139999997584,1042.2428757,None,0.07943139999997584,,,27Sing,001,2022_Aug_26_1101,ProdSingRedoBetween,2021.2.3,59.94618031931163,
,,,,150,0,150,0,,,,,,,,,,,,,,,,,,,,,,1044.3390233,None,,,,,,,,,,,,,,,,,growth,100,151,sing,new,null,1042.8502998,None,1042.8502998,None,1,0.9357942000001458,1042.8502998,None,0.9357942000001458,1043.8067511,None,1044.3110693,None,1044.3110693,None,n,0.011046099999930448,1044.3110693,None,0.011046099999930448,,,27Sing,001,2022_Aug_26_1101,ProdSingRedoBetween,2021.2.3,59.94618031931163,
,,,,151,0,151,0,,,,,,,,,,,,,,,,,,,,,,1046.0605016,None,,,,,,,,,,,,,,,,,fellow,98,152,sing,new,null,1044.8488041,None,1044.8488041,None,1,0.6413554999999178,1044.8488041,None,0.6413554999999178,1045.5153476,None,1046.0247327,None,1046.0247327,None,n,0.017606300000124975,1046.0247327,None,0.017606300000124975,,,27Sing,001,2022_Aug_26_1101,ProdSingRedoBetween,2021.2.3,59.94618031931163,
,,,,152,0,152,0,,,,,,,,,,,,,,,,,,,,,,1048.7935016,None,,,,,,,,,,,,,,,,,resistance,88,153,sing,old,red,1046.5816032,None,1046.5816032,None,1,1.276460299999826,1046.5816032,None,1.276460299999826,1047.8793211,None,1048.3984898,None,1048.3984898,None,n,0.3636656999999559,1048.3984898,None,0.3636656999999559,,,27Sing,001,2022_Aug_26_1101,ProdSingRedoBetween,2021.2.3,59.94618031931163,
,,,,153,0,153,0,,,,,,,,,,,,,,,,,,,,,,1051.1967593,None,,,,,,,,,,,,,,,,,council,137,154,sing,new,null,1049.3028706,None,1049.3028706,None,1,1.2752084000001105,1049.3028706,None,1.2752084000001105,1050.5976873,None,1051.1149049,None,1051.1149049,None,n,0.055444099999931495,1051.1149049,None,0.055444099999931495,,,27Sing,001,2022_Aug_26_1101,ProdSingRedoBetween,2021.2.3,59.94618031931163,
,,,,154,0,154,0,,,,,,,,,,,,,,,,,,,,,,1053.9027377,None,,,,,,,,,,,,,,,,,junior,72,155,sing,old,red,1051.7002778,None,1051.7002778,None,6,1.5259055999999873,1051.7002778,None,1.5259055999999873,1053.2532983,None,1053.7719096,None,1053.7719096,None,f,0.10226540000007844,1053.7719096,None,0.10226540000007844,,,27Sing,001,2022_Aug_26_1101,ProdSingRedoBetween,2021.2.3,59.94618031931163,
,,,,155,0,155,0,,,,,,,,,,,,,,,,,,,,,,1056.6727235,None,,,,,,,,,,,,,,,,,court,83,156,sing,old,red,1054.432458,None,1054.432458,None,6,1.5056377000000793,1054.432458,None,1.5056377000000793,1055.9674618,None,1056.4701321,None,1056.4701321,None,r,0.17211050000014438,1056.4701321,None,0.17211050000014438,,,27Sing,001,2022_Aug_26_1101,ProdSingRedoBetween,2021.2.3,59.94618031931163,
,,,,156,0,156,0,,,,,,,,,,,,,,,,,,,,,,1058.9716412,None,,,,,,,,,,,,,,,,,company,130,157,sing,new,null,1057.1921614999999,None,1057.1921614999999,None,2,0.9859340999998949,1057.1921614999999,None,0.9859340999998949,1058.2099755,None,1058.7213244,None,1058.7213244,None,n,0.22480539999992288,1058.7213244,None,0.22480539999992288,,,27Sing,001,2022_Aug_26_1101,ProdSingRedoBetween,2021.2.3,59.94618031931163,
,,,,157,0,157,0,,,,,,,,,,,,,,,,,,,,,,1061.4099961,None,,,,,,,,,,,,,,,,,session,132,158,sing,new,null,1059.4748949,None,1059.4748949,None,1,0.8873951999999008,1059.4748949,None,0.8873951999999008,1060.3962227,None,1060.9115756,None,1060.9115756,None,n,0.4746466000001419,1060.9115756,None,0.4746466000001419,,,27Sing,001,2022_Aug_26_1101,ProdSingRedoBetween,2021.2.3,59.94618031931163,
,,,,158,0,158,0,,,,,,,,,,,,,,,,,,,,,,1064.8487681,None,,,,,,,,,,,,,,,,,contract,11,159,sing,old,yellow,1061.9309639,None,1061.9309639,None,4,1.6552672999998777,1061.9309639,None,1.6552672999998777,1063.6151991,None,1064.1262097,None,1064.1262097,None,f,0.6920866000000387,1064.1262097,None,0.6920866000000387,,,27Sing,001,2022_Aug_26_1101,ProdSingRedoBetween,2021.2.3,59.94618031931163,
,,,,159,0,159,0,,,,,,,,,,,,,,,,,,,,,,1067.4623286,None,,,,,,,,,,,,,,,,,discovery,51,160,sing,old,blue,1065.3768665,None,1065.3768665,None,1,1.4412434999999277,1065.3768665,None,1.4412434999999277,1066.8496587,None,1067.373445,None,1067.373445,None,n,0.06866889999992054,1067.373445,None,0.06866889999992054,,,27Sing,001,2022_Aug_26_1101,ProdSingRedoBetween,2021.2.3,59.94618031931163,
,,,,160,0,160,0,,,,,,,,,,,,,,,,,,,,,,1070.8031738,None,,,,,,,,,,,,,,,,,article,59,161,sing,old,yellow,1067.9815353,None,1067.9815353,None,2,1.7884913000000324,1067.9815353,None,1.7884913000000324,1069.7979253,None,1070.2987708,None,1070.2987708,None,n,0.4794753999999557,1070.2987708,None,0.4794753999999557,,,27Sing,001,2022_Aug_26_1101,ProdSingRedoBetween,2021.2.3,59.94618031931163,
,,,,161,0,161,0,,,,,,,,,,,,,,,,,,,,,,1073.970006,None,,,,,,,,,,,,,,,,,afternoon,42,162,sing,old,blue,1071.3263193,None,1071.3263193,None,1,1.6597094999999626,1071.3263193,None,1.6597094999999626,1073.0018997,None,1073.509185,None,1073.509185,None,n,0.4288940999999795,1073.509185,None,0.4288940999999795,,,27Sing,001,2022_Aug_26_1101,ProdSingRedoBetween,2021.2.3,59.94618031931163,
,,,,162,0,162,0,,,,,,,,,,,,,,,,,,,,,,1076.1891823,None,,,,,,,,,,,,,,,,,level,103,163,sing,new,null,1074.4858432,None,1074.4858432,None,1,1.116216900000154,1074.4858432,None,1.116216900000154,1075.6282871,None,1076.1421297,None,1076.1421297,None,n,0.019976300000053016,1076.1421297,None,0.019976300000053016,,,27Sing,001,2022_Aug_26_1101,ProdSingRedoBetween,2021.2.3,59.94618031931163,
,,,,163,0,163,0,,,,,,,,,,,,,,,,,,,,,,1080.0080751,None,,,,,,,,,,,,,,,,,brief,168,164,sing,new,null,1076.7179854,None,1076.7179854,None,3,1.5561157999998159,1076.7179854,None,1.5561157999998159,1078.2936248,None,1078.811185,None,1078.811185,None,n,1.1748970999999528,1078.811185,None,1.1748970999999528,,,27Sing,001,2022_Aug_26_1101,ProdSingRedoBetween,2021.2.3,59.94618031931163,
,,,,164,0,164,0,,,,,,,,,,,,,,,,,,,,,,1083.4127829,None,,,,,,,,,,,,,,,,,pancakes,149,165,sing,new,null,1080.5226439,None,1080.5226439,None,1,1.9035079000000223,1080.5226439,None,1.9035079000000223,1082.4526008,None,1082.9675728,None,1082.9675728,None,n,0.41864609999993263,1082.9675728,None,0.41864609999993263,,,27Sing,001,2022_Aug_26_1101,ProdSingRedoBetween,2021.2.3,59.94618031931163,
,,,,165,0,165,0,,,,,,,,,,,,,,,,,,,,,,1085.9307945,None,,,,,,,,,,,,,,,,,master,16,166,sing,old,yellow,1083.9202739,None,1083.9202739,None,2,1.4259675000000698,1083.9202739,None,1.4259675000000698,1085.3779613,None,1085.8878011,None,1085.8878011,None,n,0.01833279999982551,1085.8878011,None,0.01833279999982551,,,27Sing,001,2022_Aug_26_1101,ProdSingRedoBetween,2021.2.3,59.94618031931163,
,,,,166,0,166,0,,,,,,,,,,,,,,,,,,,,,,1089.0195218,None,,,,,,,,,,,,,,,,,material,71,167,sing,old,red,1086.4364698,None,1086.4364698,None,2,1.501757699999871,1086.4364698,None,1.501757699999871,1087.9710358,None,1088.4834041,None,1088.4834041,None,n,0.5028113999999277,1088.4834041,None,0.5028113999999277,,,27Sing,001,2022_Aug_26_1101,ProdSingRedoBetween,2021.2.3,59.94618031931163,
,,,,167,0,167,0,,,,,,,,,,,,,,,,,,,,,,1091.3030848,None,,,,,,,,,,,,,,,,,poetry,143,168,sing,new,null,1089.5491534,None,1089.5491534,None,2,1.1489166000001205,1089.5491534,None,1.1489166000001205,1090.722301,None,1091.2390415,None,1091.2390415,None,n,0.03508460000011837,1091.2390415,None,0.03508460000011837,,,27Sing,001,2022_Aug_26_1101,ProdSingRedoBetween,2021.2.3,59.94618031931163,
,,,,168,0,168,0,,,,,,,,,,,,,,,,,,,,,,1093.308655,None,,,,,,,,,,,,,,,,,speech,19,169,sing,old,yellow,1091.8168923,None,1091.8168923,None,1,0.8811610000000201,1091.8168923,None,0.8811610000000201,1092.7236212,None,1093.2432234999999,None,1093.2432234999999,None,n,0.03914299999996729,1093.2432234999999,None,0.03914299999996729,,,27Sing,001,2022_Aug_26_1101,ProdSingRedoBetween,2021.2.3,59.94618031931163,
,,,,169,0,169,0,,,,,,,,,,,,,,,,,,,,,,1095.4567442,None,,,,,,,,,,,,,,,,,victory,17,170,sing,old,yellow,1093.8413313,None,1093.8413313,None,1,0.520831699999917,1093.8413313,None,0.520831699999917,1094.4015129,None,1094.9067913,None,1094.9067913,None,n,0.5272615000001224,1094.9067913,None,0.5272615000001224,,,27Sing,001,2022_Aug_26_1101,ProdSingRedoBetween,2021.2.3,59.94618031931163,
,,,,170,0,170,0,,,,,,,,,,,,,,,,,,,,,,1101.5015044,None,,,,,,,,,,,,,,,,,damage,31,171,sing,old,blue,1095.9660792,None,1095.9660792,None,2,4.87603369999988,1095.9660792,None,4.87603369999988,1100.8669378,None,1101.3799922,None,1101.3799922,None,n,0.08617800000001807,1101.3799922,None,0.08617800000001807,,,27Sing,001,2022_Aug_26_1101,ProdSingRedoBetween,2021.2.3,59.94618031931163,
,,,,171,0,171,0,,,,,,,,,,,,,,,,,,,,,,1108.1707377,None,,,,,,,,,,,,,,,,,finish,48,172,sing,old,blue,1102.014142,None,1102.014142,None,2,1.675906599999962,1102.014142,None,1.675906599999962,1103.7178716,None,1104.2389089,None,1104.2389089,None,r,3.907223599999952,1104.2389089,None,3.907223599999952,,,27Sing,001,2022_Aug_26_1101,ProdSingRedoBetween,2021.2.3,59.94618031931163,
,,,,172,0,172,0,,,,,,,,,,,,,,,,,,,,,,1112.9257717,None,,,,,,,,,,,,,,,,,government,171,173,sing,new,null,1108.6754092,None,1108.6754092,None,3,3.358688000000029,1108.6754092,None,3.358688000000029,1112.0625828,None,1112.5739307,None,1112.5739307,None,n,0.324163100000078,1112.5739307,None,0.324163100000078,,,27Sing,001,2022_Aug_26_1101,ProdSingRedoBetween,2021.2.3,59.94618031931163,
,,,,173,0,173,0,,,,,,,,,,,,,,,,,,,,,,1117.5461964,None,,,,,,,,,,,,,,,,,silence,30,174,sing,old,blue,1113.4365076,None,1113.4365076,None,4,3.085607100000061,1113.4365076,None,3.085607100000061,1116.5509674,None,1117.0634264,None,1117.0634264,None,f,0.4586690000000999,1117.0634264,None,0.4586690000000999,,,27Sing,001,2022_Aug_26_1101,ProdSingRedoBetween,2021.2.3,59.94618031931163,
,,,,174,0,174,0,,,,,,,,,,,,,,,,,,,,,,1121.516323,None,,,,,,,,,,,,,,,,,majority,21,175,sing,old,yellow,1118.0625213,None,1118.0625213,None,5,2.6276769999999487,1118.0625213,None,2.6276769999999487,1120.7246363,None,1121.2352578,None,1121.2352578,None,f,0.2628257000001213,1121.2352578,None,0.2628257000001213,,,27Sing,001,2022_Aug_26_1101,ProdSingRedoBetween,2021.2.3,59.94618031931163,
,,,,175,0,175,0,,,,,,,,,,,,,,,,,,,,,,1124.5693074,None,,,,,,,,,,,,,,,,,raise,169,176,sing,new,null,1122.0303605,None,1122.0303605,None,3,1.739697299999989,1122.0303605,None,1.739697299999989,1123.7885856,None,1124.3118607,None,1124.3118607,None,n,0.2343326000000161,1124.3118607,None,0.2343326000000161,,,27Sing,001,2022_Aug_26_1101,ProdSingRedoBetween,2021.2.3,59.94618031931163,
,,,,176,0,176,0,,,,,,,,,,,,,,,,,,,,,,1127.0223097,None,,,,,,,,,,,,,,,,,judge,118,177,sing,new,null,1125.0763248,None,1125.0763248,None,3,0.9497340000000349,1125.0763248,None,0.9497340000000349,1126.0567357,None,1126.5736161,None,1126.5736161,None,n,0.4285302999999203,1126.5736161,None,0.4285302999999203,,,27Sing,001,2022_Aug_26_1101,ProdSingRedoBetween,2021.2.3,59.94618031931163,
,,,,177,0,177,0,,,,,,,,,,,,,,,,,,,,,,1129.4785677,None,,,,,,,,,,,,,,,,,crowd,40,178,sing,old,blue,1127.5345131,None,1127.5345131,None,3,1.2515743999999813,1127.5345131,None,1.2515743999999813,1128.8106013,None,1129.333406,None,1129.333406,None,n,0.12465159999987918,1129.333406,None,0.12465159999987918,,,27Sing,001,2022_Aug_26_1101,ProdSingRedoBetween,2021.2.3,59.94618031931163,
,,,,178,0,178,0,,,,,,,,,,,,,,,,,,,,,,1133.6783636,None,,,,,,,,,,,,,,,,,appearance,84,179,sing,old,red,1129.9999675,None,1129.9999675,None,4,2.6260431999999128,1129.9999675,None,2.6260431999999128,1132.6475328,None,1133.1648635,None,1133.1648635,None,f,0.4851800999999796,1133.1648635,None,0.4851800999999796,,,27Sing,001,2022_Aug_26_1101,ProdSingRedoBetween,2021.2.3,59.94618031931163,
,,,,179,0,179,0,,,,,,,,,,,,,,,,,,,,,,1136.8649357,None,,,,,,,,,,,,,,,,,household,49,180,sing,old,blue,1134.188782,None,1134.188782,None,6,2.0612820999999713,1134.188782,None,2.0612820999999713,1136.289222,None,1136.8022441,None,1136.8022441,None,f,0.039775400000053196,1136.8022441,None,0.039775400000053196,,,27Sing,001,2022_Aug_26_1101,ProdSingRedoBetween,2021.2.3,59.94618031931163,
,,,,,,,,,,,,,,,,,,,,,,,,,,,,,,,,,,,,,,,,,,,,,,,,,,,,,,,,,,,,,,,,,,,,,,,,,1137.366028,None,,,,,,,
