StudyLoop.thisRepN,StudyLoop.thisTrialN,StudyLoop.thisN,StudyLoop.thisIndex,TestLoop.thisRepN,TestLoop.thisTrialN,TestLoop.thisN,TestLoop.thisIndex,textCondition.started,textCondition.stopped,keyCondition.keys,keyCondition.rt,keyCondition.started,keyCondition.stopped,Condition,textWelcome.started,textWelcome.stopped,keyWelcome.keys,keyWelcome.rt,keyWelcome.started,keyWelcome.stopped,textAloud.started,textAloud.stopped,textSilent.started,textSilent.stopped,textSing.started,textSing.stopped,conditional_text.started,conditional_text.stopped,textBlank500.started,textBlank500.stopped,study_word,study_num,study_order,study_type,word_color,textStudy.started,textStudy.stopped,keyStudy.keys,keyStudy.started,keyStudy.stopped,textTestInstructions.started,textTestInstructions.stopped,key_resp_3.keys,key_resp_3.rt,key_resp_3.started,key_resp_3.stopped,test_word,test_num,test_order,test_condition,old_new_test,test_word_original_color,textConf.started,textConf.stopped,textConfScale.started,textConfScale.stopped,keyConf.keys,keyConf.rt,keyConf.started,keyConf.stopped,confidence response time,textTestBlank.started,textTestBlank.stopped,textRKN.started,textRKN.stopped,textRKNScale.started,textRKNScale.stopped,keyRKN.keys,keyRKN.rt,keyRKN.started,keyRKN.stopped,rkn response time,textEnd.started,textEnd.stopped,participant,session,date,expName,psychopyVersion,frameRate,
,,,,,,,,19.896291699999892,None,a,10.76250529999993,19.896291699999892,None,,,,,,,,,,,,,,,,,,,,,,,,,,,,,,,,,,,,,,,,,,,,,,,,,,,,,,,,,,,,,,28silent,001,2022_Aug_26_1126,ProdSingRedoBetween,2021.2.3,59.880203664550265,
,,,,,,,,,,,,,,SilentTest,30.696291499999916,None,space,186.30650009999977,30.696291499999916,None,,,,,,,,,,,,,,,,,,,,,,,,,,,,,,,,,,,,,,,,,,,,,,,,,,,,,,,28silent,001,2022_Aug_26_1126,ProdSingRedoBetween,2021.2.3,59.880203664550265,
0,0,0,0,,,,,,,,,,,,,,,,,,30.696291499999916,None,30.696291499999916,None,30.696291499999916,None,30.696291499999916,None,219.5191314000001,None,reading,51,1,silent,blue,217.51757620000012,None,None,217.51757620000012,None,,,,,,,,,,,,,,,,,,,,,,,,,,,,,,,,,,,28silent,001,2022_Aug_26_1126,ProdSingRedoBetween,2021.2.3,59.880203664550265,
1,0,1,0,,,,,,,,,,,,,,,,,,,,,,,,,,222.0221650000001,None,member,38,2,silent,blue,220.02003649999983,None,None,220.02003649999983,None,,,,,,,,,,,,,,,,,,,,,,,,,,,,,,,,,,,28silent,001,2022_Aug_26_1126,ProdSingRedoBetween,2021.2.3,59.880203664550265,
2,0,2,0,,,,,,,,,,,,,,,,,,,,,,,,,,224.54124279999974,None,school,0,3,silent,yellow,222.53214449999973,None,None,222.53214449999973,None,,,,,,,,,,,,,,,,,,,,,,,,,,,,,,,,,,,28silent,001,2022_Aug_26_1126,ProdSingRedoBetween,2021.2.3,59.880203664550265,
3,0,3,0,,,,,,,,,,,,,,,,,,,,,,,,,,227.0605939999998,None,service,6,4,silent,yellow,225.0483842000001,None,None,225.0483842000001,None,,,,,,,,,,,,,,,,,,,,,,,,,,,,,,,,,,,28silent,001,2022_Aug_26_1126,ProdSingRedoBetween,2021.2.3,59.880203664550265,
4,0,4,0,,,,,,,,,,,,,,,,,,,,,,,,,,229.56293709999977,None,graduate,77,5,silent,red,227.56089279999992,None,None,227.56089279999992,None,,,,,,,,,,,,,,,,,,,,,,,,,,,,,,,,,,,28silent,001,2022_Aug_26_1126,ProdSingRedoBetween,2021.2.3,59.880203664550265,
5,0,5,0,,,,,,,,,,,,,,,,,,,,,,,,,,232.08193199999982,None,atmosphere,28,6,silent,yellow,230.0715244999999,None,None,230.0715244999999,None,,,,,,,,,,,,,,,,,,,,,,,,,,,,,,,,,,,28silent,001,2022_Aug_26_1126,ProdSingRedoBetween,2021.2.3,59.880203664550265,
6,0,6,0,,,,,,,,,,,,,,,,,,,,,,,,,,234.5847311,None,dispute,65,7,silent,red,232.58263039999997,None,None,232.58263039999997,None,,,,,,,,,,,,,,,,,,,,,,,,,,,,,,,,,,,28silent,001,2022_Aug_26_1126,ProdSingRedoBetween,2021.2.3,59.880203664550265,
7,0,7,0,,,,,,,,,,,,,,,,,,,,,,,,,,237.10379940000007,None,bucket,4,8,silent,yellow,235.09050009999987,None,None,235.09050009999987,None,,,,,,,,,,,,,,,,,,,,,,,,,,,,,,,,,,,28silent,001,2022_Aug_26_1126,ProdSingRedoBetween,2021.2.3,59.880203664550265,
8,0,8,0,,,,,,,,,,,,,,,,,,,,,,,,,,239.6060369999998,None,pressure,67,9,silent,red,237.60728259999973,None,None,237.60728259999973,None,,,,,,,,,,,,,,,,,,,,,,,,,,,,,,,,,,,28silent,001,2022_Aug_26_1126,ProdSingRedoBetween,2021.2.3,59.880203664550265,
9,0,9,0,,,,,,,,,,,,,,,,,,,,,,,,,,242.12546940000016,None,portion,64,10,silent,red,240.12008379999975,None,None,240.12008379999975,None,,,,,,,,,,,,,,,,,,,,,,,,,,,,,,,,,,,28silent,001,2022_Aug_26_1126,ProdSingRedoBetween,2021.2.3,59.880203664550265,
10,0,10,0,,,,,,,,,,,,,,,,,,,,,,,,,,244.62805959999992,None,colonel,53,11,silent,blue,242.62689419999992,None,None,242.62689419999992,None,,,,,,,,,,,,,,,,,,,,,,,,,,,,,,,,,,,28silent,001,2022_Aug_26_1126,ProdSingRedoBetween,2021.2.3,59.880203664550265,
11,0,11,0,,,,,,,,,,,,,,,,,,,,,,,,,,247.1471570000001,None,stranger,81,12,silent,red,245.13238449999994,None,None,245.13238449999994,None,,,,,,,,,,,,,,,,,,,,,,,,,,,,,,,,,,,28silent,001,2022_Aug_26_1126,ProdSingRedoBetween,2021.2.3,59.880203664550265,
12,0,12,0,,,,,,,,,,,,,,,,,,,,,,,,,,249.66629910000006,None,burden,47,13,silent,blue,247.6524382,None,None,247.6524382,None,,,,,,,,,,,,,,,,,,,,,,,,,,,,,,,,,,,28silent,001,2022_Aug_26_1126,ProdSingRedoBetween,2021.2.3,59.880203664550265,
13,0,13,0,,,,,,,,,,,,,,,,,,,,,,,,,,252.16878549999979,None,right,26,14,silent,yellow,250.16655259999993,None,None,250.16655259999993,None,,,,,,,,,,,,,,,,,,,,,,,,,,,,,,,,,,,28silent,001,2022_Aug_26_1126,ProdSingRedoBetween,2021.2.3,59.880203664550265,
14,0,14,0,,,,,,,,,,,,,,,,,,,,,,,,,,254.68824119999977,None,couch,80,15,silent,red,252.67356919999997,None,None,252.67356919999997,None,,,,,,,,,,,,,,,,,,,,,,,,,,,,,,,,,,,28silent,001,2022_Aug_26_1126,ProdSingRedoBetween,2021.2.3,59.880203664550265,
15,0,15,0,,,,,,,,,,,,,,,,,,,,,,,,,,257.1906084999998,None,edition,74,16,silent,red,255.1912546000001,None,None,255.1912546000001,None,,,,,,,,,,,,,,,,,,,,,,,,,,,,,,,,,,,28silent,001,2022_Aug_26_1126,ProdSingRedoBetween,2021.2.3,59.880203664550265,
16,0,16,0,,,,,,,,,,,,,,,,,,,,,,,,,,259.6929425999999,None,health,37,17,silent,blue,257.6915409999999,None,None,257.6915409999999,None,,,,,,,,,,,,,,,,,,,,,,,,,,,,,,,,,,,28silent,001,2022_Aug_26_1126,ProdSingRedoBetween,2021.2.3,59.880203664550265,
17,0,17,0,,,,,,,,,,,,,,,,,,,,,,,,,,262.1954718999998,None,order,70,18,silent,red,260.19352379999987,None,None,260.19352379999987,None,,,,,,,,,,,,,,,,,,,,,,,,,,,,,,,,,,,28silent,001,2022_Aug_26_1126,ProdSingRedoBetween,2021.2.3,59.880203664550265,
18,0,18,0,,,,,,,,,,,,,,,,,,,,,,,,,,264.7146543000001,None,clear,41,19,silent,blue,262.699488,None,None,262.699488,None,,,,,,,,,,,,,,,,,,,,,,,,,,,,,,,,,,,28silent,001,2022_Aug_26_1126,ProdSingRedoBetween,2021.2.3,59.880203664550265,
19,0,19,0,,,,,,,,,,,,,,,,,,,,,,,,,,267.2171820000001,None,audience,71,20,silent,red,265.2151578999999,None,None,265.2151578999999,None,,,,,,,,,,,,,,,,,,,,,,,,,,,,,,,,,,,28silent,001,2022_Aug_26_1126,ProdSingRedoBetween,2021.2.3,59.880203664550265,
20,0,20,0,,,,,,,,,,,,,,,,,,,,,,,,,,269.7363893999998,None,emergency,58,21,silent,blue,267.7216667,None,None,267.7216667,None,,,,,,,,,,,,,,,,,,,,,,,,,,,,,,,,,,,28silent,001,2022_Aug_26_1126,ProdSingRedoBetween,2021.2.3,59.880203664550265,
21,0,21,0,,,,,,,,,,,,,,,,,,,,,,,,,,272.2390718999998,None,captain,9,22,silent,yellow,270.23872989999995,None,None,270.23872989999995,None,,,,,,,,,,,,,,,,,,,,,,,,,,,,,,,,,,,28silent,001,2022_Aug_26_1126,ProdSingRedoBetween,2021.2.3,59.880203664550265,
22,0,22,0,,,,,,,,,,,,,,,,,,,,,,,,,,274.7580765,None,conference,52,23,silent,blue,272.74883109999996,None,None,272.74883109999996,None,,,,,,,,,,,,,,,,,,,,,,,,,,,,,,,,,,,28silent,001,2022_Aug_26_1126,ProdSingRedoBetween,2021.2.3,59.880203664550265,
23,0,23,0,,,,,,,,,,,,,,,,,,,,,,,,,,277.2609421999998,None,style,40,24,silent,blue,275.2598657000001,None,None,275.2598657000001,None,,,,,,,,,,,,,,,,,,,,,,,,,,,,,,,,,,,28silent,001,2022_Aug_26_1126,ProdSingRedoBetween,2021.2.3,59.880203664550265,
24,0,24,0,,,,,,,,,,,,,,,,,,,,,,,,,,279.76270199999976,None,country,36,25,silent,blue,277.76274850000004,None,None,277.76274850000004,None,,,,,,,,,,,,,,,,,,,,,,,,,,,,,,,,,,,28silent,001,2022_Aug_26_1126,ProdSingRedoBetween,2021.2.3,59.880203664550265,
25,0,25,0,,,,,,,,,,,,,,,,,,,,,,,,,,282.2822589,None,scene,33,26,silent,blue,280.26899530000014,None,None,280.26899530000014,None,,,,,,,,,,,,,,,,,,,,,,,,,,,,,,,,,,,28silent,001,2022_Aug_26_1126,ProdSingRedoBetween,2021.2.3,59.880203664550265,
26,0,26,0,,,,,,,,,,,,,,,,,,,,,,,,,,284.8014062,None,short,48,27,silent,blue,282.7871183999998,None,None,282.7871183999998,None,,,,,,,,,,,,,,,,,,,,,,,,,,,,,,,,,,,28silent,001,2022_Aug_26_1126,ProdSingRedoBetween,2021.2.3,59.880203664550265,
27,0,27,0,,,,,,,,,,,,,,,,,,,,,,,,,,287.3039083000001,None,growth,17,28,silent,yellow,285.30190030000017,None,None,285.30190030000017,None,,,,,,,,,,,,,,,,,,,,,,,,,,,,,,,,,,,28silent,001,2022_Aug_26_1126,ProdSingRedoBetween,2021.2.3,59.880203664550265,
28,0,28,0,,,,,,,,,,,,,,,,,,,,,,,,,,289.80638380000005,None,primary,18,29,silent,yellow,287.80635719999987,None,None,287.80635719999987,None,,,,,,,,,,,,,,,,,,,,,,,,,,,,,,,,,,,28silent,001,2022_Aug_26_1126,ProdSingRedoBetween,2021.2.3,59.880203664550265,
29,0,29,0,,,,,,,,,,,,,,,,,,,,,,,,,,292.32556120000004,None,skill,3,30,silent,yellow,290.31153199999994,None,None,290.31153199999994,None,,,,,,,,,,,,,,,,,,,,,,,,,,,,,,,,,,,28silent,001,2022_Aug_26_1126,ProdSingRedoBetween,2021.2.3,59.880203664550265,
30,0,30,0,,,,,,,,,,,,,,,,,,,,,,,,,,294.8448070000002,None,religion,23,31,silent,yellow,292.83031049999977,None,None,292.83031049999977,None,,,,,,,,,,,,,,,,,,,,,,,,,,,,,,,,,,,28silent,001,2022_Aug_26_1126,ProdSingRedoBetween,2021.2.3,59.880203664550265,
31,0,31,0,,,,,,,,,,,,,,,,,,,,,,,,,,297.34726909999995,None,speech,7,32,silent,yellow,295.3471920999998,None,None,295.3471920999998,None,,,,,,,,,,,,,,,,,,,,,,,,,,,,,,,,,,,28silent,001,2022_Aug_26_1126,ProdSingRedoBetween,2021.2.3,59.880203664550265,
32,0,32,0,,,,,,,,,,,,,,,,,,,,,,,,,,299.84976900000015,None,distance,72,33,silent,red,297.8477624999998,None,None,297.8477624999998,None,,,,,,,,,,,,,,,,,,,,,,,,,,,,,,,,,,,28silent,001,2022_Aug_26_1126,ProdSingRedoBetween,2021.2.3,59.880203664550265,
33,0,33,0,,,,,,,,,,,,,,,,,,,,,,,,,,302.3522283,None,voice,8,34,silent,yellow,300.3530717000001,None,None,300.3530717000001,None,,,,,,,,,,,,,,,,,,,,,,,,,,,,,,,,,,,28silent,001,2022_Aug_26_1126,ProdSingRedoBetween,2021.2.3,59.880203664550265,
34,0,34,0,,,,,,,,,,,,,,,,,,,,,,,,,,304.8547648000001,None,empty,42,35,silent,blue,302.85502310000015,None,None,302.85502310000015,None,,,,,,,,,,,,,,,,,,,,,,,,,,,,,,,,,,,28silent,001,2022_Aug_26_1126,ProdSingRedoBetween,2021.2.3,59.880203664550265,
35,0,35,0,,,,,,,,,,,,,,,,,,,,,,,,,,307.3739441,None,executive,75,36,silent,red,305.36675549999995,None,None,305.36675549999995,None,,,,,,,,,,,,,,,,,,,,,,,,,,,,,,,,,,,28silent,001,2022_Aug_26_1126,ProdSingRedoBetween,2021.2.3,59.880203664550265,
36,0,36,0,,,,,,,,,,,,,,,,,,,,,,,,,,309.8765535,None,revolution,45,37,silent,blue,307.87704359999975,None,None,307.87704359999975,None,,,,,,,,,,,,,,,,,,,,,,,,,,,,,,,,,,,28silent,001,2022_Aug_26_1126,ProdSingRedoBetween,2021.2.3,59.880203664550265,
37,0,37,0,,,,,,,,,,,,,,,,,,,,,,,,,,312.3954554999998,None,payment,50,38,silent,blue,310.38257980000003,None,None,310.38257980000003,None,,,,,,,,,,,,,,,,,,,,,,,,,,,,,,,,,,,28silent,001,2022_Aug_26_1126,ProdSingRedoBetween,2021.2.3,59.880203664550265,
38,0,38,0,,,,,,,,,,,,,,,,,,,,,,,,,,314.89808389999985,None,state,86,39,silent,red,312.8987534999999,None,None,312.8987534999999,None,,,,,,,,,,,,,,,,,,,,,,,,,,,,,,,,,,,28silent,001,2022_Aug_26_1126,ProdSingRedoBetween,2021.2.3,59.880203664550265,
39,0,39,0,,,,,,,,,,,,,,,,,,,,,,,,,,317.4172642000001,None,minute,1,40,silent,yellow,315.40568400000006,None,None,315.40568400000006,None,,,,,,,,,,,,,,,,,,,,,,,,,,,,,,,,,,,28silent,001,2022_Aug_26_1126,ProdSingRedoBetween,2021.2.3,59.880203664550265,
40,0,40,0,,,,,,,,,,,,,,,,,,,,,,,,,,319.91977250000014,None,people,73,41,silent,red,317.92007020000005,None,None,317.92007020000005,None,,,,,,,,,,,,,,,,,,,,,,,,,,,,,,,,,,,28silent,001,2022_Aug_26_1126,ProdSingRedoBetween,2021.2.3,59.880203664550265,
41,0,41,0,,,,,,,,,,,,,,,,,,,,,,,,,,322.43902120000007,None,department,10,42,silent,yellow,320.4264326,None,None,320.4264326,None,,,,,,,,,,,,,,,,,,,,,,,,,,,,,,,,,,,28silent,001,2022_Aug_26_1126,ProdSingRedoBetween,2021.2.3,59.880203664550265,
42,0,42,0,,,,,,,,,,,,,,,,,,,,,,,,,,324.9414095999998,None,charter,32,43,silent,blue,322.93978249999986,None,None,322.93978249999986,None,,,,,,,,,,,,,,,,,,,,,,,,,,,,,,,,,,,28silent,001,2022_Aug_26_1126,ProdSingRedoBetween,2021.2.3,59.880203664550265,
43,0,43,0,,,,,,,,,,,,,,,,,,,,,,,,,,327.46065569999996,None,present,56,44,silent,blue,325.4544131,None,None,325.4544131,None,,,,,,,,,,,,,,,,,,,,,,,,,,,,,,,,,,,28silent,001,2022_Aug_26_1126,ProdSingRedoBetween,2021.2.3,59.880203664550265,
44,0,44,0,,,,,,,,,,,,,,,,,,,,,,,,,,329.97947610000006,None,industry,54,45,silent,blue,327.9637445999999,None,None,327.9637445999999,None,,,,,,,,,,,,,,,,,,,,,,,,,,,,,,,,,,,28silent,001,2022_Aug_26_1126,ProdSingRedoBetween,2021.2.3,59.880203664550265,
45,0,45,0,,,,,,,,,,,,,,,,,,,,,,,,,,332.48231869999995,None,group,15,46,silent,yellow,330.4815722999999,None,None,330.4815722999999,None,,,,,,,,,,,,,,,,,,,,,,,,,,,,,,,,,,,28silent,001,2022_Aug_26_1126,ProdSingRedoBetween,2021.2.3,59.880203664550265,
46,0,46,0,,,,,,,,,,,,,,,,,,,,,,,,,,335.00129159999983,None,watch,83,47,silent,red,332.98808639999993,None,None,332.98808639999993,None,,,,,,,,,,,,,,,,,,,,,,,,,,,,,,,,,,,28silent,001,2022_Aug_26_1126,ProdSingRedoBetween,2021.2.3,59.880203664550265,
47,0,47,0,,,,,,,,,,,,,,,,,,,,,,,,,,337.50397309999994,None,sweet,49,48,silent,blue,335.5021350999998,None,None,335.5021350999998,None,,,,,,,,,,,,,,,,,,,,,,,,,,,,,,,,,,,28silent,001,2022_Aug_26_1126,ProdSingRedoBetween,2021.2.3,59.880203664550265,
48,0,48,0,,,,,,,,,,,,,,,,,,,,,,,,,,340.00632800000017,None,marriage,63,49,silent,red,338.00636580000014,None,None,338.00636580000014,None,,,,,,,,,,,,,,,,,,,,,,,,,,,,,,,,,,,28silent,001,2022_Aug_26_1126,ProdSingRedoBetween,2021.2.3,59.880203664550265,
49,0,49,0,,,,,,,,,,,,,,,,,,,,,,,,,,342.5090601999998,None,opening,27,50,silent,yellow,340.5089605999999,None,None,340.5089605999999,None,,,,,,,,,,,,,,,,,,,,,,,,,,,,,,,,,,,28silent,001,2022_Aug_26_1126,ProdSingRedoBetween,2021.2.3,59.880203664550265,
50,0,50,0,,,,,,,,,,,,,,,,,,,,,,,,,,345.0115936999998,None,broad,69,51,silent,red,343.0094606,None,None,343.0094606,None,,,,,,,,,,,,,,,,,,,,,,,,,,,,,,,,,,,28silent,001,2022_Aug_26_1126,ProdSingRedoBetween,2021.2.3,59.880203664550265,
51,0,51,0,,,,,,,,,,,,,,,,,,,,,,,,,,347.5140884,None,commercial,20,52,silent,yellow,345.51375269999994,None,None,345.51375269999994,None,,,,,,,,,,,,,,,,,,,,,,,,,,,,,,,,,,,28silent,001,2022_Aug_26_1126,ProdSingRedoBetween,2021.2.3,59.880203664550265,
52,0,52,0,,,,,,,,,,,,,,,,,,,,,,,,,,350.0332428999998,None,community,21,53,silent,yellow,348.02017219999993,None,None,348.02017219999993,None,,,,,,,,,,,,,,,,,,,,,,,,,,,,,,,,,,,28silent,001,2022_Aug_26_1126,ProdSingRedoBetween,2021.2.3,59.880203664550265,
53,0,53,0,,,,,,,,,,,,,,,,,,,,,,,,,,352.5357683,None,split,44,54,silent,blue,350.5351721999998,None,None,350.5351721999998,None,,,,,,,,,,,,,,,,,,,,,,,,,,,,,,,,,,,28silent,001,2022_Aug_26_1126,ProdSingRedoBetween,2021.2.3,59.880203664550265,
54,0,54,0,,,,,,,,,,,,,,,,,,,,,,,,,,355.0382063999998,None,crisis,34,55,silent,blue,353.03793919999976,None,None,353.03793919999976,None,,,,,,,,,,,,,,,,,,,,,,,,,,,,,,,,,,,28silent,001,2022_Aug_26_1126,ProdSingRedoBetween,2021.2.3,59.880203664550265,
55,0,55,0,,,,,,,,,,,,,,,,,,,,,,,,,,357.5406863999999,None,budget,62,56,silent,red,355.5392220000001,None,None,355.5392220000001,None,,,,,,,,,,,,,,,,,,,,,,,,,,,,,,,,,,,28silent,001,2022_Aug_26_1126,ProdSingRedoBetween,2021.2.3,59.880203664550265,
56,0,56,0,,,,,,,,,,,,,,,,,,,,,,,,,,360.04302840000014,None,treatment,87,57,silent,red,358.0434945999998,None,None,358.0434945999998,None,,,,,,,,,,,,,,,,,,,,,,,,,,,,,,,,,,,28silent,001,2022_Aug_26_1126,ProdSingRedoBetween,2021.2.3,59.880203664550265,
57,0,57,0,,,,,,,,,,,,,,,,,,,,,,,,,,362.5624064000001,None,surface,11,58,silent,yellow,360.5506490999999,None,None,360.5506490999999,None,,,,,,,,,,,,,,,,,,,,,,,,,,,,,,,,,,,28silent,001,2022_Aug_26_1126,ProdSingRedoBetween,2021.2.3,59.880203664550265,
58,0,58,0,,,,,,,,,,,,,,,,,,,,,,,,,,365.0648429999999,None,trend,12,59,silent,yellow,363.0626654,None,None,363.0626654,None,,,,,,,,,,,,,,,,,,,,,,,,,,,,,,,,,,,28silent,001,2022_Aug_26_1126,ProdSingRedoBetween,2021.2.3,59.880203664550265,
59,0,59,0,,,,,,,,,,,,,,,,,,,,,,,,,,367.583981,None,straight,66,60,silent,red,365.5690268000001,None,None,365.5690268000001,None,,,,,,,,,,,,,,,,,,,,,,,,,,,,,,,,,,,28silent,001,2022_Aug_26_1126,ProdSingRedoBetween,2021.2.3,59.880203664550265,
60,0,60,0,,,,,,,,,,,,,,,,,,,,,,,,,,370.08651129999976,None,space,46,61,silent,blue,368.0845760999998,None,None,368.0845760999998,None,,,,,,,,,,,,,,,,,,,,,,,,,,,,,,,,,,,28silent,001,2022_Aug_26_1126,ProdSingRedoBetween,2021.2.3,59.880203664550265,
61,0,61,0,,,,,,,,,,,,,,,,,,,,,,,,,,372.60571779999987,None,tragedy,35,62,silent,blue,370.59694620000005,None,None,370.59694620000005,None,,,,,,,,,,,,,,,,,,,,,,,,,,,,,,,,,,,28silent,001,2022_Aug_26_1126,ProdSingRedoBetween,2021.2.3,59.880203664550265,
62,0,62,0,,,,,,,,,,,,,,,,,,,,,,,,,,375.1078614999999,None,defeat,68,63,silent,red,373.1069842999998,None,None,373.1069842999998,None,,,,,,,,,,,,,,,,,,,,,,,,,,,,,,,,,,,28silent,001,2022_Aug_26_1126,ProdSingRedoBetween,2021.2.3,59.880203664550265,
63,0,63,0,,,,,,,,,,,,,,,,,,,,,,,,,,377.6273635,None,property,76,64,silent,red,375.6196676000002,None,None,375.6196676000002,None,,,,,,,,,,,,,,,,,,,,,,,,,,,,,,,,,,,28silent,001,2022_Aug_26_1126,ProdSingRedoBetween,2021.2.3,59.880203664550265,
64,0,64,0,,,,,,,,,,,,,,,,,,,,,,,,,,380.14652790000014,None,problem,59,65,silent,yellow,378.13244280000004,None,None,378.13244280000004,None,,,,,,,,,,,,,,,,,,,,,,,,,,,,,,,,,,,28silent,001,2022_Aug_26_1126,ProdSingRedoBetween,2021.2.3,59.880203664550265,
65,0,65,0,,,,,,,,,,,,,,,,,,,,,,,,,,382.6491238000001,None,sight,19,66,silent,yellow,380.6471174999999,None,None,380.6471174999999,None,,,,,,,,,,,,,,,,,,,,,,,,,,,,,,,,,,,28silent,001,2022_Aug_26_1126,ProdSingRedoBetween,2021.2.3,59.880203664550265,
66,0,66,0,,,,,,,,,,,,,,,,,,,,,,,,,,385.1684650999998,None,center,61,67,silent,red,383.15821889999984,None,None,383.15821889999984,None,,,,,,,,,,,,,,,,,,,,,,,,,,,,,,,,,,,28silent,001,2022_Aug_26_1126,ProdSingRedoBetween,2021.2.3,59.880203664550265,
67,0,67,0,,,,,,,,,,,,,,,,,,,,,,,,,,387.68720899999994,None,waste,16,68,silent,yellow,385.6730675000001,None,None,385.6730675000001,None,,,,,,,,,,,,,,,,,,,,,,,,,,,,,,,,,,,28silent,001,2022_Aug_26_1126,ProdSingRedoBetween,2021.2.3,59.880203664550265,
68,0,68,0,,,,,,,,,,,,,,,,,,,,,,,,,,390.1899842999999,None,front,30,69,silent,blue,388.18925030000014,None,None,388.18925030000014,None,,,,,,,,,,,,,,,,,,,,,,,,,,,,,,,,,,,28silent,001,2022_Aug_26_1126,ProdSingRedoBetween,2021.2.3,59.880203664550265,
69,0,69,0,,,,,,,,,,,,,,,,,,,,,,,,,,392.7090621,None,broke,79,70,silent,red,390.6954741000002,None,None,390.6954741000002,None,,,,,,,,,,,,,,,,,,,,,,,,,,,,,,,,,,,28silent,001,2022_Aug_26_1126,ProdSingRedoBetween,2021.2.3,59.880203664550265,
70,0,70,0,,,,,,,,,,,,,,,,,,,,,,,,,,395.2113960999998,None,account,2,71,silent,yellow,393.2105954000001,None,None,393.2105954000001,None,,,,,,,,,,,,,,,,,,,,,,,,,,,,,,,,,,,28silent,001,2022_Aug_26_1126,ProdSingRedoBetween,2021.2.3,59.880203664550265,
71,0,71,0,,,,,,,,,,,,,,,,,,,,,,,,,,397.7141442999998,None,government,5,72,silent,yellow,395.7143229999999,None,None,395.7143229999999,None,,,,,,,,,,,,,,,,,,,,,,,,,,,,,,,,,,,28silent,001,2022_Aug_26_1126,ProdSingRedoBetween,2021.2.3,59.880203664550265,
72,0,72,0,,,,,,,,,,,,,,,,,,,,,,,,,,400.2329468999999,None,piece,57,73,silent,blue,398.2175181,None,None,398.2175181,None,,,,,,,,,,,,,,,,,,,,,,,,,,,,,,,,,,,28silent,001,2022_Aug_26_1126,ProdSingRedoBetween,2021.2.3,59.880203664550265,
73,0,73,0,,,,,,,,,,,,,,,,,,,,,,,,,,402.75242920000005,None,range,29,74,silent,blue,400.7444045999998,None,None,400.7444045999998,None,,,,,,,,,,,,,,,,,,,,,,,,,,,,,,,,,,,28silent,001,2022_Aug_26_1126,ProdSingRedoBetween,2021.2.3,59.880203664550265,
74,0,74,0,,,,,,,,,,,,,,,,,,,,,,,,,,405.2547535000001,None,solution,88,75,silent,red,403.2543254999998,None,None,403.2543254999998,None,,,,,,,,,,,,,,,,,,,,,,,,,,,,,,,,,,,28silent,001,2022_Aug_26_1126,ProdSingRedoBetween,2021.2.3,59.880203664550265,
75,0,75,0,,,,,,,,,,,,,,,,,,,,,,,,,,407.774146,None,afternoon,22,76,silent,yellow,405.75963149999984,None,None,405.75963149999984,None,,,,,,,,,,,,,,,,,,,,,,,,,,,,,,,,,,,28silent,001,2022_Aug_26_1126,ProdSingRedoBetween,2021.2.3,59.880203664550265,
76,0,76,0,,,,,,,,,,,,,,,,,,,,,,,,,,410.29316319999975,None,quantity,31,77,silent,blue,408.28477829999997,None,None,408.28477829999997,None,,,,,,,,,,,,,,,,,,,,,,,,,,,,,,,,,,,28silent,001,2022_Aug_26_1126,ProdSingRedoBetween,2021.2.3,59.880203664550265,
77,0,77,0,,,,,,,,,,,,,,,,,,,,,,,,,,412.81247499999995,None,suspect,14,78,silent,yellow,410.7978977,None,None,410.7978977,None,,,,,,,,,,,,,,,,,,,,,,,,,,,,,,,,,,,28silent,001,2022_Aug_26_1126,ProdSingRedoBetween,2021.2.3,59.880203664550265,
78,0,78,0,,,,,,,,,,,,,,,,,,,,,,,,,,415.3314382000001,None,meeting,39,79,silent,blue,413.31700209999985,None,None,413.31700209999985,None,,,,,,,,,,,,,,,,,,,,,,,,,,,,,,,,,,,28silent,001,2022_Aug_26_1126,ProdSingRedoBetween,2021.2.3,59.880203664550265,
79,0,79,0,,,,,,,,,,,,,,,,,,,,,,,,,,417.83437560000016,None,benefit,78,80,silent,red,415.8344712999999,None,None,415.8344712999999,None,,,,,,,,,,,,,,,,,,,,,,,,,,,,,,,,,,,28silent,001,2022_Aug_26_1126,ProdSingRedoBetween,2021.2.3,59.880203664550265,
80,0,80,0,,,,,,,,,,,,,,,,,,,,,,,,,,420.3364595999999,None,private,85,81,silent,red,418.3345815,None,None,418.3345815,None,,,,,,,,,,,,,,,,,,,,,,,,,,,,,,,,,,,28silent,001,2022_Aug_26_1126,ProdSingRedoBetween,2021.2.3,59.880203664550265,
81,0,81,0,,,,,,,,,,,,,,,,,,,,,,,,,,422.8390855,None,substance,24,82,silent,yellow,420.8370547000002,None,None,420.8370547000002,None,,,,,,,,,,,,,,,,,,,,,,,,,,,,,,,,,,,28silent,001,2022_Aug_26_1126,ProdSingRedoBetween,2021.2.3,59.880203664550265,
82,0,82,0,,,,,,,,,,,,,,,,,,,,,,,,,,425.3414525999999,None,thing,13,83,silent,yellow,423.33972259999996,None,None,423.33972259999996,None,,,,,,,,,,,,,,,,,,,,,,,,,,,,,,,,,,,28silent,001,2022_Aug_26_1126,ProdSingRedoBetween,2021.2.3,59.880203664550265,
83,0,83,0,,,,,,,,,,,,,,,,,,,,,,,,,,427.8610222,None,point,25,84,silent,yellow,425.8456152000001,None,None,425.8456152000001,None,,,,,,,,,,,,,,,,,,,,,,,,,,,,,,,,,,,28silent,001,2022_Aug_26_1126,ProdSingRedoBetween,2021.2.3,59.880203664550265,
84,0,84,0,,,,,,,,,,,,,,,,,,,,,,,,,,430.3798147,None,listen,43,85,silent,blue,428.3674174999999,None,None,428.3674174999999,None,,,,,,,,,,,,,,,,,,,,,,,,,,,,,,,,,,,28silent,001,2022_Aug_26_1126,ProdSingRedoBetween,2021.2.3,59.880203664550265,
85,0,85,0,,,,,,,,,,,,,,,,,,,,,,,,,,432.89901080000004,None,production,82,86,silent,red,430.8850795000001,None,None,430.8850795000001,None,,,,,,,,,,,,,,,,,,,,,,,,,,,,,,,,,,,28silent,001,2022_Aug_26_1126,ProdSingRedoBetween,2021.2.3,59.880203664550265,
86,0,86,0,,,,,,,,,,,,,,,,,,,,,,,,,,435.4184219000001,None,taste,84,87,silent,red,433.4056038000001,None,None,433.4056038000001,None,,,,,,,,,,,,,,,,,,,,,,,,,,,,,,,,,,,28silent,001,2022_Aug_26_1126,ProdSingRedoBetween,2021.2.3,59.880203664550265,
87,0,87,0,,,,,,,,,,,,,,,,,,,,,,,,,,437.9207736999999,None,agency,89,88,silent,red,435.9188305,None,None,435.9188305,None,,,,,,,,,,,,,,,,,,,,,,,,,,,,,,,,,,,28silent,001,2022_Aug_26_1126,ProdSingRedoBetween,2021.2.3,59.880203664550265,
88,0,88,0,,,,,,,,,,,,,,,,,,,,,,,,,,440.43978029999994,None,relation,55,89,silent,blue,438.42676659999984,None,None,438.42676659999984,None,,,,,,,,,,,,,,,,,,,,,,,,,,,,,,,,,,,28silent,001,2022_Aug_26_1126,ProdSingRedoBetween,2021.2.3,59.880203664550265,
89,0,89,0,,,,,,,,,,,,,,,,,,,,,,,,,,442.9426188,None,minor,60,90,silent,red,440.9416067999998,None,None,440.9416067999998,None,,,,,,,,,,,,,,,,,,,,,,,,,,,,,,,,,,,28silent,001,2022_Aug_26_1126,ProdSingRedoBetween,2021.2.3,59.880203664550265,
,,,,,,,,,,,,,,,,,,,,,,,,,,,,,,,,,,,,,,,,,443.44315489999985,None,k,98.11916479999991,443.44315489999985,None,,,,,,,,,,,,,,,,,,,,,,,,,,,,,28silent,001,2022_Aug_26_1126,ProdSingRedoBetween,2021.2.3,59.880203664550265,
,,,,0,0,0,0,,,,,,,,,,,,,,,,,,,,,,549.1155106999997,None,,,,,,,,,,,,,,,,,community,21,1,silent,old,yellow,542.0931376000001,None,542.0931376000001,None,2,4.3973980000000665,542.0931376000001,None,4.3973980000000665,546.5256434,None,547.0333945999998,None,547.0333945999998,None,n,2.057047500000408,547.0333945999998,None,2.057047500000408,,,28silent,001,2022_Aug_26_1126,ProdSingRedoBetween,2021.2.3,59.880203664550265,
,,,,1,0,1,0,,,,,,,,,,,,,,,,,,,,,,553.4860983000001,None,,,,,,,,,,,,,,,,,territory,111,2,silent,new,null,549.6213415,None,549.6213415,None,2,2.6931463999999323,549.6213415,None,2.6931463999999323,552.3420629,None,552.8522983999999,None,552.8522983999999,None,n,0.6141263999998046,552.8522983999999,None,0.6141263999998046,,,28silent,001,2022_Aug_26_1126,ProdSingRedoBetween,2021.2.3,59.880203664550265,
,,,,2,0,2,0,,,,,,,,,,,,,,,,,,,,,,558.2606776999999,None,,,,,,,,,,,,,,,,,portion,64,3,silent,old,red,553.995608,None,553.995608,None,1,3.430827700000009,553.995608,None,3.430827700000009,557.4578666999998,None,557.9632530000001,None,557.9632530000001,None,n,0.2793978999998217,557.9632530000001,None,0.2793978999998217,,,28silent,001,2022_Aug_26_1126,ProdSingRedoBetween,2021.2.3,59.880203664550265,
,,,,3,0,3,0,,,,,,,,,,,,,,,,,,,,,,562.7955638000001,None,,,,,,,,,,,,,,,,,death,110,4,silent,new,null,558.7767929999998,None,558.7767929999998,None,1,2.8256641000002674,558.7767929999998,None,2.8256641000002674,561.6322419999999,None,562.1448567,None,562.1448567,None,n,0.6336254000002555,562.1448567,None,0.6336254000002555,,,28silent,001,2022_Aug_26_1126,ProdSingRedoBetween,2021.2.3,59.880203664550265,
,,,,4,0,4,0,,,,,,,,,,,,,,,,,,,,,,568.0675011000001,None,,,,,,,,,,,,,,,,,commercial,20,5,silent,old,yellow,563.3110340999999,None,563.3110340999999,None,5,2.9792302999999265,563.3110340999999,None,2.9792302999999265,566.3160403999998,None,566.816165,None,566.816165,None,f,1.2262292000000343,566.816165,None,1.2262292000000343,,,28silent,001,2022_Aug_26_1126,ProdSingRedoBetween,2021.2.3,59.880203664550265,
,,,,5,0,5,0,,,,,,,,,,,,,,,,,,,,,,572.8887151000001,None,,,,,,,,,,,,,,,,,pressure,67,6,silent,old,red,568.5757967000002,None,568.5757967000002,None,5,2.3705205999999635,568.5757967000002,None,2.3705205999999635,570.9701036999998,None,571.4750634999998,None,571.4750634999998,None,f,1.391344200000276,571.4750634999998,None,1.391344200000276,,,28silent,001,2022_Aug_26_1126,ProdSingRedoBetween,2021.2.3,59.880203664550265,
,,,,6,0,6,0,,,,,,,,,,,,,,,,,,,,,,576.9094164999999,None,,,,,,,,,,,,,,,,,produce,173,7,silent,new,null,573.3951752,None,573.3951752,None,5,2.39932060000001,573.3951752,None,2.39932060000001,575.8361856999998,None,576.3424146999998,None,576.3424146999998,None,f,0.540050500000234,576.3424146999998,None,0.540050500000234,,,28silent,001,2022_Aug_26_1126,ProdSingRedoBetween,2021.2.3,59.880203664550265,
,,,,7,0,7,0,,,,,,,,,,,,,,,,,,,,,,581.5473712999999,None,,,,,,,,,,,,,,,,,treatment,87,8,silent,old,red,577.4167215,None,577.4167215,None,4,2.905844199999592,577.4167215,None,2.905844199999592,580.3622879000002,None,580.8636765999997,None,580.8636765999997,None,f,0.6586374999997133,580.8636765999997,None,0.6586374999997133,,,28silent,001,2022_Aug_26_1126,ProdSingRedoBetween,2021.2.3,59.880203664550265,
,,,,8,0,8,0,,,,,,,,,,,,,,,,,,,,,,586.4530161,None,,,,,,,,,,,,,,,,,background,142,9,silent,new,null,582.0532950999998,None,582.0532950999998,None,3,2.3249989000000824,582.0532950999998,None,2.3249989000000824,584.4001750999998,None,584.9005578999997,None,584.9005578999997,None,n,1.525889399999869,584.9005578999997,None,1.525889399999869,,,28silent,001,2022_Aug_26_1126,ProdSingRedoBetween,2021.2.3,59.880203664550265,
,,,,9,0,9,0,,,,,,,,,,,,,,,,,,,,,,590.1284447999999,None,,,,,,,,,,,,,,,,,rapid,100,10,silent,new,null,586.9634048,None,586.9634048,None,2,1.6469427000001815,586.9634048,None,1.6469427000001815,588.6377156000001,None,589.1384774,None,589.1384774,None,n,0.960041999999703,589.1384774,None,0.960041999999703,,,28silent,001,2022_Aug_26_1126,ProdSingRedoBetween,2021.2.3,59.880203664550265,
,,,,10,0,10,0,,,,,,,,,,,,,,,,,,,,,,593.5596807999998,None,,,,,,,,,,,,,,,,,whole,175,11,silent,new,null,590.6449111,None,590.6449111,None,2,1.4376876999999695,590.6449111,None,1.4376876999999695,592.1125108999997,None,592.6253759999997,None,592.6253759999997,None,n,0.9128943999999137,592.6253759999997,None,0.9128943999999137,,,28silent,001,2022_Aug_26_1126,ProdSingRedoBetween,2021.2.3,59.880203664550265,
,,,,11,0,11,0,,,,,,,,,,,,,,,,,,,,,,597.5800044,None,,,,,,,,,,,,,,,,,angle,129,12,silent,new,null,594.0601574999998,None,594.0601574999998,None,1,2.6141020999998545,594.0601574999998,None,2.6141020999998545,596.6957464999998,None,597.1965714,None,597.1965714,None,n,0.3658015000000887,597.1965714,None,0.3658015000000887,,,28silent,001,2022_Aug_26_1126,ProdSingRedoBetween,2021.2.3,59.880203664550265,
,,,,12,0,12,0,,,,,,,,,,,,,,,,,,,,,,602.5515348000001,None,,,,,,,,,,,,,,,,,production,82,13,silent,old,red,598.0807861000001,None,598.0807861000001,None,6,2.6655949999999393,598.0807861000001,None,2.6655949999999393,600.7697574000001,None,601.2911301000001,None,601.2911301000001,None,r,1.2391390999996474,601.2911301000001,None,1.2391390999996474,,,28silent,001,2022_Aug_26_1126,ProdSingRedoBetween,2021.2.3,59.880203664550265,
,,,,13,0,13,0,,,,,,,,,,,,,,,,,,,,,,605.9717711000001,None,,,,,,,,,,,,,,,,,escape,178,14,silent,new,null,603.0718175,None,603.0718175,None,2,1.6745504999998957,603.0718175,None,1.6745504999998957,604.7704228999999,None,605.2771869999999,None,605.2771869999999,None,n,0.6690945999998803,605.2771869999999,None,0.6690945999998803,,,28silent,001,2022_Aug_26_1126,ProdSingRedoBetween,2021.2.3,59.880203664550265,
,,,,14,0,14,0,,,,,,,,,,,,,,,,,,,,,,609.1443360000001,None,,,,,,,,,,,,,,,,,center,61,15,silent,old,red,606.4720767000001,None,606.4720767000001,None,3,1.5544165999999677,606.4720767000001,None,1.5544165999999677,608.0626884999999,None,608.5744462999999,None,608.5744462999999,None,n,0.5400647999999819,608.5744462999999,None,0.5400647999999819,,,28silent,001,2022_Aug_26_1126,ProdSingRedoBetween,2021.2.3,59.880203664550265,
,,,,15,0,15,0,,,,,,,,,,,,,,,,,,,,,,613.0290079999997,None,,,,,,,,,,,,,,,,,sweet,49,16,silent,old,blue,609.6685796999998,None,609.6685796999998,None,3,2.1818960000000516,609.6685796999998,None,2.1818960000000516,611.8874586999998,None,612.4000807,None,612.4000807,None,n,0.6023104999999305,612.4000807,None,0.6023104999999305,,,28silent,001,2022_Aug_26_1126,ProdSingRedoBetween,2021.2.3,59.880203664550265,
,,,,16,0,16,0,,,,,,,,,,,,,,,,,,,,,,616.7490704999998,None,,,,,,,,,,,,,,,,,industry,54,17,silent,old,blue,613.5369087000001,None,613.5369087000001,None,4,1.761298700000225,613.5369087000001,None,1.761298700000225,615.3154315999998,None,615.8246888000001,None,615.8246888000001,None,f,0.9057272000000012,615.8246888000001,None,0.9057272000000012,,,28silent,001,2022_Aug_26_1126,ProdSingRedoBetween,2021.2.3,59.880203664550265,
,,,,17,0,17,0,,,,,,,,,,,,,,,,,,,,,,620.5881768000002,None,,,,,,,,,,,,,,,,,problem,59,18,silent,old,yellow,617.2572045,None,617.2572045,None,4,2.033105699999851,617.2572045,None,2.033105699999851,619.3192413999998,None,619.8225472000001,None,619.8225472000001,None,f,0.7478734999999688,619.8225472000001,None,0.7478734999999688,,,28silent,001,2022_Aug_26_1126,ProdSingRedoBetween,2021.2.3,59.880203664550265,
,,,,18,0,18,0,,,,,,,,,,,,,,,,,,,,,,624.4071393000002,None,,,,,,,,,,,,,,,,,pancakes,143,19,silent,new,null,621.1037199999998,None,621.1037199999998,None,1,1.9465304000000287,621.1037199999998,None,1.9465304000000287,623.0723721000002,None,623.5727113999999,None,623.5727113999999,None,n,0.8054845999999998,623.5727113999999,None,0.8054845999999998,,,28silent,001,2022_Aug_26_1126,ProdSingRedoBetween,2021.2.3,59.880203664550265,
,,,,19,0,19,0,,,,,,,,,,,,,,,,,,,,,,628.1785447999998,None,,,,,,,,,,,,,,,,,under,105,20,silent,new,null,624.9080895999998,None,624.9080895999998,None,2,1.742248600000039,624.9080895999998,None,1.742248600000039,626.6755845,None,627.1827086000001,None,627.1827086000001,None,n,0.9716435999998794,627.1827086000001,None,0.9716435999998794,,,28silent,001,2022_Aug_26_1126,ProdSingRedoBetween,2021.2.3,59.880203664550265,
,,,,20,0,20,0,,,,,,,,,,,,,,,,,,,,,,632.2827770000001,None,,,,,,,,,,,,,,,,,exchange,93,21,silent,new,null,628.6883529999998,None,628.6883529999998,None,5,2.3220016000000214,628.6883529999998,None,2.3220016000000214,631.0340629999998,None,631.5540905999999,None,631.5540905999999,None,f,0.7124029999999948,631.5540905999999,None,0.7124029999999948,,,28silent,001,2022_Aug_26_1126,ProdSingRedoBetween,2021.2.3,59.880203664550265,
,,,,21,0,21,0,,,,,,,,,,,,,,,,,,,,,,635.9183726999997,None,,,,,,,,,,,,,,,,,afternoon,22,22,silent,old,yellow,632.7993141999998,None,632.7993141999998,None,5,1.7470003999997061,632.7993141999998,None,1.7470003999997061,634.5683959999999,None,635.0715518,None,635.0715518,None,f,0.8187730999998166,635.0715518,None,0.8187730999998166,,,28silent,001,2022_Aug_26_1126,ProdSingRedoBetween,2021.2.3,59.880203664550265,
,,,,22,0,22,0,,,,,,,,,,,,,,,,,,,,,,639.4894127,None,,,,,,,,,,,,,,,,,still,126,23,silent,new,null,636.4315110999999,None,636.4315110999999,None,2,1.658855599999697,636.4315110999999,None,1.658855599999697,638.1224335999998,None,638.6461977000001,None,638.6461977000001,None,n,0.8201626999998552,638.6461977000001,None,0.8201626999998552,,,28silent,001,2022_Aug_26_1126,ProdSingRedoBetween,2021.2.3,59.880203664550265,
,,,,23,0,23,0,,,,,,,,,,,,,,,,,,,,,,643.3924344999998,None,,,,,,,,,,,,,,,,,alert,162,24,silent,new,null,639.9950587000001,None,639.9950587000001,None,3,1.9352232000001095,639.9950587000001,None,1.9352232000001095,641.9594685999998,None,642.4792989999999,None,642.4792989999999,None,n,0.88308139999981,642.4792989999999,None,0.88308139999981,,,28silent,001,2022_Aug_26_1126,ProdSingRedoBetween,2021.2.3,59.880203664550265,
,,,,24,0,24,0,,,,,,,,,,,,,,,,,,,,,,647.4023295,None,,,,,,,,,,,,,,,,,military,150,25,silent,new,null,643.9060941999999,None,643.9060941999999,None,1,2.32823290000033,643.9060941999999,None,2.32823290000033,646.2669137,None,646.7866120000001,None,646.7866120000001,None,n,0.5918480000000272,646.7866120000001,None,0.5918480000000272,,,28silent,001,2022_Aug_26_1126,ProdSingRedoBetween,2021.2.3,59.880203664550265,
,,,,25,0,25,0,,,,,,,,,,,,,,,,,,,,,,652.4015606,None,,,,,,,,,,,,,,,,,empty,42,26,silent,old,blue,647.9238351000001,None,647.9238351000001,None,4,3.3583942999998726,647.9238351000001,None,3.3583942999998726,651.3038261999998,None,651.8258079999998,None,651.8258079999998,None,f,0.544665200000054,651.8258079999998,None,0.544665200000054,,,28silent,001,2022_Aug_26_1126,ProdSingRedoBetween,2021.2.3,59.880203664550265,
,,,,26,0,26,0,,,,,,,,,,,,,,,,,,,,,,656.3247081000002,None,,,,,,,,,,,,,,,,,quarter,116,27,silent,new,null,652.9119091,None,652.9119091,None,4,2.330485200000112,652.9119091,None,2.330485200000112,655.2754205999997,None,655.7956222999999,None,655.7956222999999,None,f,0.5028477000000748,655.7956222999999,None,0.5028477000000748,,,28silent,001,2022_Aug_26_1126,ProdSingRedoBetween,2021.2.3,59.880203664550265,
,,,,27,0,27,0,,,,,,,,,,,,,,,,,,,,,,659.4920030999999,None,,,,,,,,,,,,,,,,,charter,32,28,silent,old,blue,656.8436089999998,None,656.8436089999998,None,2,1.4626619000000574,656.8436089999998,None,1.4626619000000574,658.3294152999999,None,658.8450178,None,658.8450178,None,n,0.6214103000002069,658.8450178,None,0.6214103000002069,,,28silent,001,2022_Aug_26_1126,ProdSingRedoBetween,2021.2.3,59.880203664550265,
,,,,28,0,28,0,,,,,,,,,,,,,,,,,,,,,,665.6500911,None,,,,,,,,,,,,,,,,,graduate,77,29,silent,old,red,660.0103447999998,None,660.0103447999998,None,6,2.1840377000003173,660.0103447999998,None,2.1840377000003173,662.2147481,None,662.7300463999998,None,662.7300463999998,None,r,2.8962909000001673,662.7300463999998,None,2.8962909000001673,,,28silent,001,2022_Aug_26_1126,ProdSingRedoBetween,2021.2.3,59.880203664550265,
,,,,29,0,29,0,,,,,,,,,,,,,,,,,,,,,,669.2685030999999,None,,,,,,,,,,,,,,,,,swift,152,30,silent,new,null,666.1673838999998,None,666.1673838999998,None,2,1.7229470000002038,666.1673838999998,None,1.7229470000002038,667.9239329,None,668.4404693999998,None,668.4404693999998,None,n,0.8097020000000157,668.4404693999998,None,0.8097020000000157,,,28silent,001,2022_Aug_26_1126,ProdSingRedoBetween,2021.2.3,59.880203664550265,
,,,,30,0,30,0,,,,,,,,,,,,,,,,,,,,,,673.2057716000002,None,,,,,,,,,,,,,,,,,dispute,65,31,silent,old,red,669.7824822,None,669.7824822,None,3,2.243881099999726,669.7824822,None,2.243881099999726,672.0577891,None,672.5718721000001,None,672.5718721000001,None,n,0.6064304999999877,672.5718721000001,None,0.6064304999999877,,,28silent,001,2022_Aug_26_1126,ProdSingRedoBetween,2021.2.3,59.880203664550265,
,,,,31,0,31,0,,,,,,,,,,,,,,,,,,,,,,676.4921035,None,,,,,,,,,,,,,,,,,piece,57,32,silent,old,blue,673.7231454,None,673.7231454,None,4,1.5111920999997892,673.7231454,None,1.5111920999997892,675.2661489999998,None,675.7750988999999,None,675.7750988999999,None,f,0.691255999999612,675.7750988999999,None,0.691255999999612,,,28silent,001,2022_Aug_26_1126,ProdSingRedoBetween,2021.2.3,59.880203664550265,
,,,,32,0,32,0,,,,,,,,,,,,,,,,,,,,,,680.2480096000002,None,,,,,,,,,,,,,,,,,bureau,168,33,silent,new,null,677.0029730999997,None,677.0029730999997,None,1,1.9994219999998677,677.0029730999997,None,1.9994219999998677,679.0337453,None,679.5508029999999,None,679.5508029999999,None,n,0.675596399999904,679.5508029999999,None,0.675596399999904,,,28silent,001,2022_Aug_26_1126,ProdSingRedoBetween,2021.2.3,59.880203664550265,
,,,,33,0,33,0,,,,,,,,,,,,,,,,,,,,,,683.8512029999999,None,,,,,,,,,,,,,,,,,quantity,31,34,silent,old,blue,680.776443,None,680.776443,None,2,1.8739285999999993,680.776443,None,1.8739285999999993,682.6732721000001,None,683.1836139,None,683.1836139,None,n,0.6507476000001589,683.1836139,None,0.6507476000001589,,,28silent,001,2022_Aug_26_1126,ProdSingRedoBetween,2021.2.3,59.880203664550265,
,,,,34,0,34,0,,,,,,,,,,,,,,,,,,,,,,687.7702151000001,None,,,,,,,,,,,,,,,,,people,73,35,silent,old,red,684.3708847999999,None,684.3708847999999,None,4,2.3354394000002685,684.3708847999999,None,2.3354394000002685,686.7393838999999,None,687.2573135,None,687.2573135,None,f,0.4969824999998309,687.2573135,None,0.4969824999998309,,,28silent,001,2022_Aug_26_1126,ProdSingRedoBetween,2021.2.3,59.880203664550265,
,,,,35,0,35,0,,,,,,,,,,,,,,,,,,,,,,692.1078734999999,None,,,,,,,,,,,,,,,,,service,6,36,silent,old,yellow,688.2831949999998,None,688.2831949999998,None,3,2.455255400000169,688.2831949999998,None,2.455255400000169,690.7699795000001,None,691.2779462000001,None,691.2779462000001,None,n,0.8043680999999197,691.2779462000001,None,0.8043680999999197,,,28silent,001,2022_Aug_26_1126,ProdSingRedoBetween,2021.2.3,59.880203664550265,
,,,,36,0,36,0,,,,,,,,,,,,,,,,,,,,,,695.6281376,None,,,,,,,,,,,,,,,,,crowd,161,37,silent,new,null,692.6222308999997,None,692.6222308999997,None,2,1.9561122999998588,692.6222308999997,None,1.9561122999998588,694.5997174000001,None,695.1132771999999,None,695.1132771999999,None,n,0.49699610000016037,695.1132771999999,None,0.49699610000016037,,,28silent,001,2022_Aug_26_1126,ProdSingRedoBetween,2021.2.3,59.880203664550265,
,,,,37,0,37,0,,,,,,,,,,,,,,,,,,,,,,698.9313589999999,None,,,,,,,,,,,,,,,,,generation,91,38,silent,new,null,696.1408534999998,None,696.1408534999998,None,1,1.725430999999844,696.1408534999998,None,1.725430999999844,697.9041644000001,None,698.4169694,None,698.4169694,None,n,0.48935400000027585,698.4169694,None,0.48935400000027585,,,28silent,001,2022_Aug_26_1126,ProdSingRedoBetween,2021.2.3,59.880203664550265,
,,,,38,0,38,0,,,,,,,,,,,,,,,,,,,,,,702.2690056999998,None,,,,,,,,,,,,,,,,,congress,90,39,silent,new,null,699.4435547999999,None,699.4435547999999,None,1,1.718793900000037,699.4435547999999,None,1.718793900000037,701.1910285000001,None,701.7070013999999,None,701.7070013999999,None,n,0.5353836999997839,701.7070013999999,None,0.5353836999997839,,,28silent,001,2022_Aug_26_1126,ProdSingRedoBetween,2021.2.3,59.880203664550265,
,,,,39,0,39,0,,,,,,,,,,,,,,,,,,,,,,706.3221578999999,None,,,,,,,,,,,,,,,,,minute,1,40,silent,old,yellow,702.7780350999999,None,702.7780350999999,None,3,2.5605078999997204,702.7780350999999,None,2.5605078999997204,705.3640893999998,None,705.8719792999998,None,705.8719792999998,None,n,0.4343138000003819,705.8719792999998,None,0.4343138000003819,,,28silent,001,2022_Aug_26_1126,ProdSingRedoBetween,2021.2.3,59.880203664550265,
,,,,40,0,40,0,,,,,,,,,,,,,,,,,,,,,,709.6754775000002,None,,,,,,,,,,,,,,,,,harmony,167,41,silent,new,null,706.8325767999997,None,706.8325767999997,None,3,1.537703099999817,706.8325767999997,None,1.537703099999817,708.3938532999998,None,708.9115160999997,None,708.9115160999997,None,n,0.7387536999999611,708.9115160999997,None,0.7387536999999611,,,28silent,001,2022_Aug_26_1126,ProdSingRedoBetween,2021.2.3,59.880203664550265,
,,,,41,0,41,0,,,,,,,,,,,,,,,,,,,,,,715.2661162000002,None,,,,,,,,,,,,,,,,,emergency,58,42,silent,old,blue,710.1865605,None,710.1865605,None,3,3.9520321999998487,710.1865605,None,3.9520321999998487,714.1689167000002,None,714.6882924999998,None,714.6882924999998,None,n,0.554060699999809,714.6882924999998,None,0.554060699999809,,,28silent,001,2022_Aug_26_1126,ProdSingRedoBetween,2021.2.3,59.880203664550265,
,,,,42,0,42,0,,,,,,,,,,,,,,,,,,,,,,719.1015187,None,,,,,,,,,,,,,,,,,opening,27,43,silent,old,yellow,715.7860832999997,None,715.7860832999997,None,4,2.080302500000016,715.7860832999997,None,2.080302500000016,717.8924177000001,None,718.4051880999998,None,718.4051880999998,None,f,0.6690284999999676,718.4051880999998,None,0.6690284999999676,,,28silent,001,2022_Aug_26_1126,ProdSingRedoBetween,2021.2.3,59.880203664550265,
,,,,43,0,43,0,,,,,,,,,,,,,,,,,,,,,,723.7563220999998,None,,,,,,,,,,,,,,,,,sight,19,44,silent,old,yellow,719.6123842999998,None,719.6123842999998,None,5,1.8378762000002098,719.6123842999998,None,1.8378762000002098,721.4726036,None,721.9923357999999,None,721.9923357999999,None,r,1.738074499999584,721.9923357999999,None,1.738074499999584,,,28silent,001,2022_Aug_26_1126,ProdSingRedoBetween,2021.2.3,59.880203664550265,
,,,,44,0,44,0,,,,,,,,,,,,,,,,,,,,,,727.8465567000001,None,,,,,,,,,,,,,,,,,thing,13,45,silent,old,yellow,724.2721475999999,None,724.2721475999999,None,6,2.4501492999997936,724.2721475999999,None,2.4501492999997936,726.7468127,None,727.2662558,None,727.2662558,None,r,0.5521420000000035,727.2662558,None,0.5521420000000035,,,28silent,001,2022_Aug_26_1126,ProdSingRedoBetween,2021.2.3,59.880203664550265,
,,,,45,0,45,0,,,,,,,,,,,,,,,,,,,,,,731.9021420000001,None,,,,,,,,,,,,,,,,,incident,118,46,silent,new,null,728.3732428999999,None,728.3732428999999,None,4,2.0850476000000526,728.3732428999999,None,2.0850476000000526,730.4865059000001,None,730.9968658,None,730.9968658,None,f,0.8774743999997554,730.9968658,None,0.8774743999997554,,,28silent,001,2022_Aug_26_1126,ProdSingRedoBetween,2021.2.3,59.880203664550265,
,,,,46,0,46,0,,,,,,,,,,,,,,,,,,,,,,735.5679065000002,None,,,,,,,,,,,,,,,,,rough,115,47,silent,new,null,732.4175763000001,None,732.4175763000001,None,4,1.912832299999991,732.4175763000001,None,1.912832299999991,734.3589470999998,None,734.8712435,None,734.8712435,None,f,0.6750412999999753,734.8712435,None,0.6750412999999753,,,28silent,001,2022_Aug_26_1126,ProdSingRedoBetween,2021.2.3,59.880203664550265,
,,,,47,0,47,0,,,,,,,,,,,,,,,,,,,,,,739.9387687999999,None,,,,,,,,,,,,,,,,,straight,66,48,silent,old,red,736.0789103,None,736.0789103,None,6,2.00336070000003,736.0789103,None,2.00336070000003,738.1106011999998,None,738.6271811999998,None,738.6271811999998,None,f,1.295174599999882,738.6271811999998,None,1.295174599999882,,,28silent,001,2022_Aug_26_1126,ProdSingRedoBetween,2021.2.3,59.880203664550265,
,,,,48,0,48,0,,,,,,,,,,,,,,,,,,,,,,744.3099721000001,None,,,,,,,,,,,,,,,,,appeal,166,49,silent,new,null,740.4428593999999,None,740.4428593999999,None,3,2.711470599999757,740.4428593999999,None,2.711470599999757,743.1812422,None,743.6958093000001,None,743.6958093000001,None,n,0.5945114999999532,743.6958093000001,None,0.5945114999999532,,,28silent,001,2022_Aug_26_1126,ProdSingRedoBetween,2021.2.3,59.880203664550265,
,,,,49,0,49,0,,,,,,,,,,,,,,,,,,,,,,748.4650370000002,None,,,,,,,,,,,,,,,,,track,160,50,silent,new,null,744.8196727000002,None,744.8196727000002,None,3,2.230815099999745,744.8196727000002,None,2.230815099999745,747.0867946000001,None,747.5967044000001,None,747.5967044000001,None,n,0.8375476999999591,747.5967044000001,None,0.8375476999999591,,,28silent,001,2022_Aug_26_1126,ProdSingRedoBetween,2021.2.3,59.880203664550265,
,,,,50,0,50,0,,,,,,,,,,,,,,,,,,,,,,752.5081529000001,None,,,,,,,,,,,,,,,,,figure,102,51,silent,new,null,748.9680793999999,None,748.9680793999999,None,2,2.250180900000032,748.9680793999999,None,2.250180900000032,751.2436113000001,None,751.7535655999998,None,751.7535655999998,None,n,0.7209533999998712,751.7535655999998,None,0.7209533999998712,,,28silent,001,2022_Aug_26_1126,ProdSingRedoBetween,2021.2.3,59.880203664550265,
,,,,51,0,51,0,,,,,,,,,,,,,,,,,,,,,,755.9384241999999,None,,,,,,,,,,,,,,,,,express,101,52,silent,new,null,753.0325173999997,None,753.0325173999997,None,2,2.0097594999997455,753.0325173999997,None,2.0097594999997455,755.0741169999999,None,755.5965782999999,None,755.5965782999999,None,n,0.325532899999871,755.5965782999999,None,0.325532899999871,,,28silent,001,2022_Aug_26_1126,ProdSingRedoBetween,2021.2.3,59.880203664550265,
,,,,52,0,52,0,,,,,,,,,,,,,,,,,,,,,,759.1915228,None,,,,,,,,,,,,,,,,,strength,127,53,silent,new,null,756.4606974999999,None,756.4606974999999,None,4,1.7895880000000943,756.4606974999999,None,1.7895880000000943,758.2811187999998,None,758.7944996999997,None,758.7944996999997,None,f,0.3677001000000928,758.7944996999997,None,0.3677001000000928,,,28silent,001,2022_Aug_26_1126,ProdSingRedoBetween,2021.2.3,59.880203664550265,
,,,,53,0,53,0,,,,,,,,,,,,,,,,,,,,,,763.2289994999999,None,,,,,,,,,,,,,,,,,column,145,54,silent,new,null,759.6998078999998,None,759.6998078999998,None,5,2.4866047000000435,759.6998078999998,None,2.4866047000000435,762.2257176999999,None,762.7332036,None,762.7332036,None,f,0.4689757000001009,762.7332036,None,0.4689757000001009,,,28silent,001,2022_Aug_26_1126,ProdSingRedoBetween,2021.2.3,59.880203664550265,
,,,,54,0,54,0,,,,,,,,,,,,,,,,,,,,,,767.4508912999997,None,,,,,,,,,,,,,,,,,clear,41,55,silent,old,blue,763.7394385,None,763.7394385,None,5,2.5508207000002585,763.7394385,None,2.5508207000002585,766.3184660999998,None,766.8325637,None,766.8325637,None,f,0.5936794999997801,766.8325637,None,0.5936794999997801,,,28silent,001,2022_Aug_26_1126,ProdSingRedoBetween,2021.2.3,59.880203664550265,
,,,,55,0,55,0,,,,,,,,,,,,,,,,,,,,,,771.236858,None,,,,,,,,,,,,,,,,,principal,172,56,silent,new,null,767.9616947000002,None,767.9616947000002,None,3,2.208592299999964,767.9616947000002,None,2.208592299999964,770.1921663,None,770.7089324000001,None,770.7089324000001,None,n,0.5092822999999953,770.7089324000001,None,0.5092822999999953,,,28silent,001,2022_Aug_26_1126,ProdSingRedoBetween,2021.2.3,59.880203664550265,
,,,,56,0,56,0,,,,,,,,,,,,,,,,,,,,,,775.5634118,None,,,,,,,,,,,,,,,,,dozen,92,57,silent,new,null,771.7523092999998,None,771.7523092999998,None,2,2.449931900000138,771.7523092999998,None,2.449931900000138,774.2304323999999,None,774.7412355999998,None,774.7412355999998,None,n,0.7971128000003773,774.7412355999998,None,0.7971128000003773,,,28silent,001,2022_Aug_26_1126,ProdSingRedoBetween,2021.2.3,59.880203664550265,
,,,,57,0,57,0,,,,,,,,,,,,,,,,,,,,,,780.3040039999998,None,,,,,,,,,,,,,,,,,course,121,58,silent,new,null,776.0852102000001,None,776.0852102000001,None,5,2.717154300000402,776.0852102000001,None,2.717154300000402,778.8323905999998,None,779.3452012,None,779.3452012,None,f,0.9292167000003246,779.3452012,None,0.9292167000003246,,,28silent,001,2022_Aug_26_1126,ProdSingRedoBetween,2021.2.3,59.880203664550265,
,,,,58,0,58,0,,,,,,,,,,,,,,,,,,,,,,784.1746427999999,None,,,,,,,,,,,,,,,,,crisis,34,59,silent,old,blue,780.8246152999998,None,780.8246152999998,None,3,2.0817298000001756,780.8246152999998,None,2.0817298000001756,782.9445905999999,None,783.4509713,None,783.4509713,None,n,0.6953723000001446,783.4509713,None,0.6953723000001446,,,28silent,001,2022_Aug_26_1126,ProdSingRedoBetween,2021.2.3,59.880203664550265,
,,,,59,0,59,0,,,,,,,,,,,,,,,,,,,,,,788.7543675,None,,,,,,,,,,,,,,,,,religion,23,60,silent,old,yellow,784.6924234999999,None,784.6924234999999,None,4,2.797899900000175,784.6924234999999,None,2.797899900000175,787.5289501,None,788.0384127,None,788.0384127,None,f,0.6996644999999262,788.0384127,None,0.6996644999999262,,,28silent,001,2022_Aug_26_1126,ProdSingRedoBetween,2021.2.3,59.880203664550265,
,,,,60,0,60,0,,,,,,,,,,,,,,,,,,,,,,792.6581911000001,None,,,,,,,,,,,,,,,,,breath,157,61,silent,new,null,789.2656103000002,None,789.2656103000002,None,3,1.9526122000002033,789.2656103000002,None,1.9526122000002033,791.2435546999998,None,791.7588650999999,None,791.7588650999999,None,n,0.8832492999999886,791.7588650999999,None,0.8832492999999886,,,28silent,001,2022_Aug_26_1126,ProdSingRedoBetween,2021.2.3,59.880203664550265,
,,,,61,0,61,0,,,,,,,,,,,,,,,,,,,,,,796.9123616999998,None,,,,,,,,,,,,,,,,,school,0,62,silent,old,yellow,793.1701258999999,None,793.1701258999999,None,5,2.6161729999998897,793.1701258999999,None,2.6161729999998897,795.8256450000001,None,796.3363836000001,None,796.3363836000001,None,f,0.5459465000003547,796.3363836000001,None,0.5459465000003547,,,28silent,001,2022_Aug_26_1126,ProdSingRedoBetween,2021.2.3,59.880203664550265,
,,,,62,0,62,0,,,,,,,,,,,,,,,,,,,,,,800.2491845000002,None,,,,,,,,,,,,,,,,,speech,7,63,silent,old,yellow,797.4162892000002,None,797.4162892000002,None,2,1.59394919999977,797.4162892000002,None,1.59394919999977,799.0359974999999,None,799.5518535999997,None,799.5518535999997,None,n,0.6744264000003568,799.5518535999997,None,0.6744264000003568,,,28silent,001,2022_Aug_26_1126,ProdSingRedoBetween,2021.2.3,59.880203664550265,
,,,,63,0,63,0,,,,,,,,,,,,,,,,,,,,,,803.7876583,None,,,,,,,,,,,,,,,,,broad,69,64,silent,old,red,800.7515507999999,None,800.7515507999999,None,5,1.85863130000007,800.7515507999999,None,1.85863130000007,802.6407314,None,803.1521749000001,None,803.1521749000001,None,f,0.6180698999996821,803.1521749000001,None,0.6180698999996821,,,28silent,001,2022_Aug_26_1126,ProdSingRedoBetween,2021.2.3,59.880203664550265,
,,,,64,0,64,0,,,,,,,,,,,,,,,,,,,,,,807.7566461999998,None,,,,,,,,,,,,,,,,,instrument,95,65,silent,new,null,804.3067001000002,None,804.3067001000002,None,1,2.135699299999942,804.3067001000002,None,2.135699299999942,806.4797028,None,806.9909031,None,806.9909031,None,n,0.7472963999998683,806.9909031,None,0.7472963999998683,,,28silent,001,2022_Aug_26_1126,ProdSingRedoBetween,2021.2.3,59.880203664550265,
,,,,65,0,65,0,,,,,,,,,,,,,,,,,,,,,,811.7939982999999,None,,,,,,,,,,,,,,,,,defeat,68,66,silent,old,red,808.2718842000002,None,808.2718842000002,None,4,2.4423067000002447,808.2718842000002,None,2.4423067000002447,810.7461956,None,811.26783,None,811.26783,None,f,0.5105627000002642,811.26783,None,0.5105627000002642,,,28silent,001,2022_Aug_26_1126,ProdSingRedoBetween,2021.2.3,59.880203664550265,
,,,,66,0,66,0,,,,,,,,,,,,,,,,,,,,,,815.2305906999998,None,,,,,,,,,,,,,,,,,grade,156,67,silent,new,null,812.2985105,None,812.2985105,None,2,1.719756899999993,812.2985105,None,1.719756899999993,814.0516024000001,None,814.5635436,None,814.5635436,None,n,0.6387233999998898,814.5635436,None,0.6387233999998898,,,28silent,001,2022_Aug_26_1126,ProdSingRedoBetween,2021.2.3,59.880203664550265,
,,,,67,0,67,0,,,,,,,,,,,,,,,,,,,,,,818.6509586,None,,,,,,,,,,,,,,,,,health,37,68,silent,old,blue,815.7345560000001,None,815.7345560000001,None,6,1.7957028999999238,815.7345560000001,None,1.7957028999999238,817.5578337,None,818.0669887000001,None,818.0669887000001,None,f,0.5672756999997546,818.0669887000001,None,0.5672756999997546,,,28silent,001,2022_Aug_26_1126,ProdSingRedoBetween,2021.2.3,59.880203664550265,
,,,,68,0,68,0,,,,,,,,,,,,,,,,,,,,,,822.6549447999998,None,,,,,,,,,,,,,,,,,employment,132,69,silent,new,null,819.1667596999998,None,819.1667596999998,None,3,2.3074117000001024,819.1667596999998,None,2.3074117000001024,821.5048454,None,822.0052736,None,822.0052736,None,n,0.6209135000003698,822.0052736,None,0.6209135000003698,,,28silent,001,2022_Aug_26_1126,ProdSingRedoBetween,2021.2.3,59.880203664550265,
,,,,69,0,69,0,,,,,,,,,,,,,,,,,,,,,,825.6922932,None,,,,,,,,,,,,,,,,,captain,9,70,silent,old,yellow,823.1664724,None,823.1664724,None,5,1.4838550999998006,823.1664724,None,1.4838550999998006,824.6802507,None,825.1951596000001,None,825.1951596000001,None,f,0.4790923999998995,825.1951596000001,None,0.4790923999998995,,,28silent,001,2022_Aug_26_1126,ProdSingRedoBetween,2021.2.3,59.880203664550265,
,,,,70,0,70,0,,,,,,,,,,,,,,,,,,,,,,829.1446792999998,None,,,,,,,,,,,,,,,,,bicycle,99,71,silent,new,null,826.2066415000002,None,826.2066415000002,None,3,1.907527200000004,826.2066415000002,None,1.907527200000004,828.1482346999999,None,828.6639674,None,828.6639674,None,n,0.4502265000000989,828.6639674,None,0.4502265000000989,,,28silent,001,2022_Aug_26_1126,ProdSingRedoBetween,2021.2.3,59.880203664550265,
,,,,71,0,71,0,,,,,,,,,,,,,,,,,,,,,,832.4141843999998,None,,,,,,,,,,,,,,,,,atmosphere,28,72,silent,old,yellow,829.6582212999999,None,829.6582212999999,None,4,1.8479683000000477,829.6582212999999,None,1.8479683000000477,831.5349463,None,832.0477521999999,None,832.0477521999999,None,f,0.3465328000002046,832.0477521999999,None,0.3465328000002046,,,28silent,001,2022_Aug_26_1126,ProdSingRedoBetween,2021.2.3,59.880203664550265,
,,,,72,0,72,0,,,,,,,,,,,,,,,,,,,,,,837.2198015000001,None,,,,,,,,,,,,,,,,,substance,24,73,silent,old,yellow,832.9233502999998,None,832.9233502999998,None,4,3.2469843999997465,832.9233502999998,None,3.2469843999997465,836.210284,None,836.7271358999999,None,836.7271358999999,None,f,0.47512300000016694,836.7271358999999,None,0.47512300000016694,,,28silent,001,2022_Aug_26_1126,ProdSingRedoBetween,2021.2.3,59.880203664550265,
,,,,73,0,73,0,,,,,,,,,,,,,,,,,,,,,,840.3558731,None,,,,,,,,,,,,,,,,,orchestra,171,74,silent,new,null,837.7243387000001,None,837.7243387000001,None,1,1.7497957999999016,837.7243387000001,None,1.7497957999999016,839.5116482999999,None,840.0219610000001,None,840.0219610000001,None,n,0.31614410000020143,840.0219610000001,None,0.31614410000020143,,,28silent,001,2022_Aug_26_1126,ProdSingRedoBetween,2021.2.3,59.880203664550265,
,,,,74,0,74,0,,,,,,,,,,,,,,,,,,,,,,843.4421011000002,None,,,,,,,,,,,,,,,,,prime,103,75,silent,new,null,840.8666151,None,840.8666151,None,1,1.5675309999996898,840.8666151,None,1.5675309999996898,842.4584034000002,None,842.9657,None,842.9657,None,n,0.46038750000025175,842.9657,None,0.46038750000025175,,,28silent,001,2022_Aug_26_1126,ProdSingRedoBetween,2021.2.3,59.880203664550265,
,,,,75,0,75,0,,,,,,,,,,,,,,,,,,,,,,846.4952225999998,None,,,,,,,,,,,,,,,,,surface,11,76,silent,old,yellow,843.9562235000001,None,843.9562235000001,None,5,1.3819015000003674,843.9562235000001,None,1.3819015000003674,845.3617873000001,None,845.8657003000001,None,845.8657003000001,None,f,0.6085532999995849,845.8657003000001,None,0.6085532999995849,,,28silent,001,2022_Aug_26_1126,ProdSingRedoBetween,2021.2.3,59.880203664550265,
,,,,76,0,76,0,,,,,,,,,,,,,,,,,,,,,,850.1822553,None,,,,,,,,,,,,,,,,,property,76,77,silent,old,red,847.0077552999999,None,847.0077552999999,None,4,2.1064540999996098,847.0077552999999,None,2.1064540999996098,849.1363653999999,None,849.650238,None,849.650238,None,f,0.5039065999999366,849.650238,None,0.5039065999999366,,,28silent,001,2022_Aug_26_1126,ProdSingRedoBetween,2021.2.3,59.880203664550265,
,,,,77,0,77,0,,,,,,,,,,,,,,,,,,,,,,853.7252701,None,,,,,,,,,,,,,,,,,public,108,78,silent,new,null,850.6935603999998,None,850.6935603999998,None,4,1.8925976000000446,850.6935603999998,None,1.8925976000000446,852.6023721999998,None,853.1047007,None,853.1047007,None,f,0.593570500000169,853.1047007,None,0.593570500000169,,,28silent,001,2022_Aug_26_1126,ProdSingRedoBetween,2021.2.3,59.880203664550265,
,,,,78,0,78,0,,,,,,,,,,,,,,,,,,,,,,856.8429386,None,,,,,,,,,,,,,,,,,vision,94,79,silent,new,null,854.2426260999998,None,854.2426260999998,None,3,1.4875096000000667,854.2426260999998,None,1.4875096000000667,855.7562406,None,856.2716549999998,None,856.2716549999998,None,n,0.5385778999998365,856.2716549999998,None,0.5385778999998365,,,28silent,001,2022_Aug_26_1126,ProdSingRedoBetween,2021.2.3,59.880203664550265,
,,,,79,0,79,0,,,,,,,,,,,,,,,,,,,,,,860.5968729999997,None,,,,,,,,,,,,,,,,,short,48,80,silent,old,blue,857.3586942999998,None,857.3586942999998,None,6,1.9155784999998104,857.3586942999998,None,1.9155784999998104,859.2970115,None,859.8154705,None,859.8154705,None,f,0.7468468000001849,859.8154705,None,0.7468468000001849,,,28silent,001,2022_Aug_26_1126,ProdSingRedoBetween,2021.2.3,59.880203664550265,
,,,,80,0,80,0,,,,,,,,,,,,,,,,,,,,,,863.8153316999999,None,,,,,,,,,,,,,,,,,waste,16,81,silent,old,yellow,861.1216169000002,None,861.1216169000002,None,3,1.600647399999616,861.1216169000002,None,1.600647399999616,862.7555233,None,863.2621406000001,None,863.2621406000001,None,n,0.5320725999999922,863.2621406000001,None,0.5320725999999922,,,28silent,001,2022_Aug_26_1126,ProdSingRedoBetween,2021.2.3,59.880203664550265,
,,,,81,0,81,0,,,,,,,,,,,,,,,,,,,,,,868.3042489000002,None,,,,,,,,,,,,,,,,,write,139,82,silent,new,null,864.3397087999999,None,864.3397087999999,None,2,2.6625795999998445,864.3397087999999,None,2.6625795999998445,867.0449983000001,None,867.5524858000001,None,867.5524858000001,None,n,0.7298025999998572,867.5524858000001,None,0.7298025999998572,,,28silent,001,2022_Aug_26_1126,ProdSingRedoBetween,2021.2.3,59.880203664550265,
,,,,82,0,82,0,,,,,,,,,,,,,,,,,,,,,,872.4377539999998,None,,,,,,,,,,,,,,,,,benefit,78,83,silent,old,red,868.8234298,None,868.8234298,None,4,2.618635499999982,868.8234298,None,2.618635499999982,871.4709329999998,None,871.9708758999998,None,871.9708758999998,None,f,0.43921339999997144,871.9708758999998,None,0.43921339999997144,,,28silent,001,2022_Aug_26_1126,ProdSingRedoBetween,2021.2.3,59.880203664550265,
,,,,83,0,83,0,,,,,,,,,,,,,,,,,,,,,,875.5241651999997,None,,,,,,,,,,,,,,,,,private,85,84,silent,old,red,872.9504940999998,None,872.9504940999998,None,5,1.5157392999999502,872.9504940999998,None,1.5157392999999502,874.5023337,None,875.0114488000002,None,875.0114488000002,None,f,0.49453670000002603,875.0114488000002,None,0.49453670000002603,,,28silent,001,2022_Aug_26_1126,ProdSingRedoBetween,2021.2.3,59.880203664550265,
,,,,84,0,84,0,,,,,,,,,,,,,,,,,,,,,,878.7606727,None,,,,,,,,,,,,,,,,,edition,74,85,silent,old,red,876.0346413,None,876.0346413,None,3,1.5355101000000104,876.0346413,None,1.5355101000000104,877.6003938000001,None,878.1136199999999,None,878.1136199999999,None,n,0.6165172000000894,878.1136199999999,None,0.6165172000000894,,,28silent,001,2022_Aug_26_1126,ProdSingRedoBetween,2021.2.3,59.880203664550265,
,,,,85,0,85,0,,,,,,,,,,,,,,,,,,,,,,882.7479769999998,None,,,,,,,,,,,,,,,,,career,146,86,silent,new,null,879.2772825999998,None,879.2772825999998,None,5,2.396816999999828,879.2772825999998,None,2.396816999999828,881.6978326999999,None,882.1977675999999,None,882.1977675999999,None,f,0.5323765999996795,882.1977675999999,None,0.5323765999996795,,,28silent,001,2022_Aug_26_1126,ProdSingRedoBetween,2021.2.3,59.880203664550265,
,,,,86,0,86,0,,,,,,,,,,,,,,,,,,,,,,886.4184978999999,None,,,,,,,,,,,,,,,,,audience,71,87,silent,old,red,883.2597669999998,None,883.2597669999998,None,3,1.4544431999997869,883.2597669999998,None,1.4544431999997869,884.7359608999998,None,885.2520593000002,None,885.2520593000002,None,n,1.1499668000001293,885.2520593000002,None,1.1499668000001293,,,28silent,001,2022_Aug_26_1126,ProdSingRedoBetween,2021.2.3,59.880203664550265,
,,,,87,0,87,0,,,,,,,,,,,,,,,,,,,,,,889.8217321,None,,,,,,,,,,,,,,,,,solution,88,88,silent,old,red,886.9319183999999,None,886.9319183999999,None,2,1.6222923000000264,886.9319183999999,None,1.6222923000000264,888.5794309,None,889.0919278999997,None,889.0919278999997,None,n,0.7021254000001136,889.0919278999997,None,0.7021254000001136,,,28silent,001,2022_Aug_26_1126,ProdSingRedoBetween,2021.2.3,59.880203664550265,
,,,,88,0,88,0,,,,,,,,,,,,,,,,,,,,,,893.4754351999998,None,,,,,,,,,,,,,,,,,narrow,165,89,silent,new,null,890.3326131000001,None,890.3326131000001,None,1,1.669503199999781,890.3326131000001,None,1.669503199999781,892.0250155000001,None,892.5278897999999,None,892.5278897999999,None,n,0.9302183999998306,892.5278897999999,None,0.9302183999998306,,,28silent,001,2022_Aug_26_1126,ProdSingRedoBetween,2021.2.3,59.880203664550265,
,,,,89,0,89,0,,,,,,,,,,,,,,,,,,,,,,896.7150088999999,None,,,,,,,,,,,,,,,,,mankind,128,90,silent,new,null,893.9849864999999,None,893.9849864999999,None,1,1.4891182999999728,893.9849864999999,None,1.4891182999999728,895.4965353,None,896.0148661000001,None,896.0148661000001,None,n,0.6673996999998053,896.0148661000001,None,0.6673996999998053,,,28silent,001,2022_Aug_26_1126,ProdSingRedoBetween,2021.2.3,59.880203664550265,
,,,,90,0,90,0,,,,,,,,,,,,,,,,,,,,,,901.2166043999998,None,,,,,,,,,,,,,,,,,appearance,158,91,silent,new,null,897.2393436,None,897.2393436,None,5,3.0827595000000656,897.2393436,None,3.0827595000000656,900.3521951999999,None,900.8664206999999,None,900.8664206999999,None,f,0.32770990000017264,900.8664206999999,None,0.32770990000017264,,,28silent,001,2022_Aug_26_1126,ProdSingRedoBetween,2021.2.3,59.880203664550265,
,,,,91,0,91,0,,,,,,,,,,,,,,,,,,,,,,905.7222832,None,,,,,,,,,,,,,,,,,story,133,92,silent,new,null,901.7297762000001,None,901.7297762000001,None,2,1.5684415999999146,901.7297762000001,None,1.5684415999999146,903.3288282999999,None,903.8448839,None,903.8448839,None,n,1.8532857999998669,903.8448839,None,1.8532857999998669,,,28silent,001,2022_Aug_26_1126,ProdSingRedoBetween,2021.2.3,59.880203664550265,
,,,,92,0,92,0,,,,,,,,,,,,,,,,,,,,,,908.9240867000001,None,,,,,,,,,,,,,,,,,style,40,93,silent,old,blue,906.2431693000001,None,906.2431693000001,None,6,1.767050399999789,906.2431693000001,None,1.767050399999789,908.0496704999998,None,908.5640605000001,None,908.5640605000001,None,f,0.3339061000001493,908.5640605000001,None,0.3339061000001493,,,28silent,001,2022_Aug_26_1126,ProdSingRedoBetween,2021.2.3,59.880203664550265,
,,,,93,0,93,0,,,,,,,,,,,,,,,,,,,,,,911.9856294999997,None,,,,,,,,,,,,,,,,,union,96,94,silent,new,null,909.4318740000001,None,909.4318740000001,None,4,1.5063466999999946,909.4318740000001,None,1.5063466999999946,910.9640384000002,None,911.4779425999998,None,911.4779425999998,None,f,0.4842696999999134,911.4779425999998,None,0.4842696999999134,,,28silent,001,2022_Aug_26_1126,ProdSingRedoBetween,2021.2.3,59.880203664550265,
,,,,94,0,94,0,,,,,,,,,,,,,,,,,,,,,,915.6156315000001,None,,,,,,,,,,,,,,,,,conference,52,95,silent,old,blue,912.5024633999999,None,912.5024633999999,None,4,2.0437297000003127,912.5024633999999,None,2.0437297000003127,914.5734463000001,None,915.0833526999998,None,915.0833526999998,None,f,0.5028873000001113,915.0833526999998,None,0.5028873000001113,,,28silent,001,2022_Aug_26_1126,ProdSingRedoBetween,2021.2.3,59.880203664550265,
,,,,95,0,95,0,,,,,,,,,,,,,,,,,,,,,,919.5531665999999,None,,,,,,,,,,,,,,,,,minor,60,96,silent,old,red,916.1232085999998,None,916.1232085999998,None,6,1.6068997000002128,916.1232085999998,None,1.6068997000002128,917.7515505999997,None,918.2732938000001,None,918.2732938000001,None,f,1.248803499999667,918.2732938000001,None,1.248803499999667,,,28silent,001,2022_Aug_26_1126,ProdSingRedoBetween,2021.2.3,59.880203664550265,
,,,,96,0,96,0,,,,,,,,,,,,,,,,,,,,,,923.2219091,None,,,,,,,,,,,,,,,,,tragedy,35,97,silent,old,blue,920.0643873000001,None,920.0643873000001,None,2,2.1218878999998196,920.0643873000001,None,2.1218878999998196,922.2152663999998,None,922.7234446,None,922.7234446,None,n,0.4786247000001822,922.7234446,None,0.4786247000001822,,,28silent,001,2022_Aug_26_1126,ProdSingRedoBetween,2021.2.3,59.880203664550265,
,,,,97,0,97,0,,,,,,,,,,,,,,,,,,,,,,926.4251222,None,,,,,,,,,,,,,,,,,weather,135,98,silent,new,null,923.7385258000002,None,923.7385258000002,None,2,1.3836380000002464,923.7385258000002,None,1.3836380000002464,925.143554,None,925.6630275,None,925.6630275,None,n,0.7390457999999853,925.6630275,None,0.7390457999999853,,,28silent,001,2022_Aug_26_1126,ProdSingRedoBetween,2021.2.3,59.880203664550265,
,,,,98,0,98,0,,,,,,,,,,,,,,,,,,,,,,930.3302867,None,,,,,,,,,,,,,,,,,court,120,99,silent,new,null,926.9354519000001,None,926.9354519000001,None,2,2.1386136999999508,926.9354519000001,None,2.1386136999999508,929.094225,None,929.5990758999999,None,929.5990758999999,None,n,0.6990560999997797,929.5990758999999,None,0.6990560999997797,,,28silent,001,2022_Aug_26_1126,ProdSingRedoBetween,2021.2.3,59.880203664550265,
,,,,99,0,99,0,,,,,,,,,,,,,,,,,,,,,,933.2651312,None,,,,,,,,,,,,,,,,,growth,17,100,silent,old,yellow,930.8328485,None,930.8328485,None,4,1.3612639999996645,930.8328485,None,1.3612639999996645,932.2191829000001,None,932.7343024999998,None,932.7343024999998,None,f,0.5077599000001101,932.7343024999998,None,0.5077599000001101,,,28silent,001,2022_Aug_26_1126,ProdSingRedoBetween,2021.2.3,59.880203664550265,
,,,,100,0,100,0,,,,,,,,,,,,,,,,,,,,,,937.0527107999999,None,,,,,,,,,,,,,,,,,smooth,122,101,silent,new,null,933.7713966999997,None,933.7713966999997,None,5,2.206713100000343,933.7713966999997,None,2.206713100000343,936.0050595,None,936.5284092999998,None,936.5284092999998,None,f,0.5057449000000815,936.5284092999998,None,0.5057449000000815,,,28silent,001,2022_Aug_26_1126,ProdSingRedoBetween,2021.2.3,59.880203664550265,
,,,,101,0,101,0,,,,,,,,,,,,,,,,,,,,,,940.1221625000001,None,,,,,,,,,,,,,,,,,working,138,102,silent,new,null,937.5765061,None,937.5765061,None,4,1.4336419000001115,937.5765061,None,1.4336419000001115,939.0479625999999,None,939.5589240000002,None,939.5589240000002,None,f,0.5390615999999682,939.5589240000002,None,0.5390615999999682,,,28silent,001,2022_Aug_26_1126,ProdSingRedoBetween,2021.2.3,59.880203664550265,
,,,,102,0,102,0,,,,,,,,,,,,,,,,,,,,,,945.1437775000002,None,,,,,,,,,,,,,,,,,executive,75,103,silent,old,red,940.6365941000001,None,940.6365941000001,None,3,3.0055796999999984,940.6365941000001,None,3.0055796999999984,943.6713228000001,None,944.1787129000002,None,944.1787129000002,None,n,0.9433552999998938,944.1787129000002,None,0.9433552999998938,,,28silent,001,2022_Aug_26_1126,ProdSingRedoBetween,2021.2.3,59.880203664550265,
,,,,103,0,103,0,,,,,,,,,,,,,,,,,,,,,,949.0475837000001,None,,,,,,,,,,,,,,,,,revolution,45,104,silent,old,blue,945.6550261999998,None,945.6550261999998,None,2,2.2911104999998315,945.6550261999998,None,2.2911104999998315,947.9678581000001,None,948.4942533000001,None,948.4942533000001,None,n,0.5318006000002242,948.4942533000001,None,0.5318006000002242,,,28silent,001,2022_Aug_26_1126,ProdSingRedoBetween,2021.2.3,59.880203664550265,
,,,,104,0,104,0,,,,,,,,,,,,,,,,,,,,,,951.9503910000001,None,,,,,,,,,,,,,,,,,budget,62,105,silent,old,red,949.5522459000001,None,949.5522459000001,None,4,1.521820999999818,949.5522459000001,None,1.521820999999818,951.1046207000002,None,951.6170322999999,None,951.6170322999999,None,f,0.3130507000000762,951.6170322999999,None,0.3130507000000762,,,28silent,001,2022_Aug_26_1126,ProdSingRedoBetween,2021.2.3,59.880203664550265,
,,,,105,0,105,0,,,,,,,,,,,,,,,,,,,,,,954.9367725999998,None,,,,,,,,,,,,,,,,,victory,174,106,silent,new,null,952.4715564,None,952.4715564,None,3,1.4425332000000708,952.4715564,None,1.4425332000000708,953.9428166999999,None,954.4597335000001,None,954.4597335000001,None,n,0.446452500000305,954.4597335000001,None,0.446452500000305,,,28silent,001,2022_Aug_26_1126,ProdSingRedoBetween,2021.2.3,59.880203664550265,
,,,,106,0,106,0,,,,,,,,,,,,,,,,,,,,,,958.7906409,None,,,,,,,,,,,,,,,,,bucket,4,107,silent,old,yellow,955.4548993000001,None,955.4548993000001,None,2,2.283384599999863,955.4548993000001,None,2.283384599999863,957.7662572000002,None,958.2776906000001,None,958.2776906000001,None,n,0.4843785999996726,958.2776906000001,None,0.4843785999996726,,,28silent,001,2022_Aug_26_1126,ProdSingRedoBetween,2021.2.3,59.880203664550265,
,,,,107,0,107,0,,,,,,,,,,,,,,,,,,,,,,962.6612127000001,None,,,,,,,,,,,,,,,,,front,30,108,silent,old,blue,959.3029195000001,None,959.3029195000001,None,3,2.3712178000000677,959.3029195000001,None,2.3712178000000677,961.6996364999998,None,962.2125127000002,None,962.2125127000002,None,n,0.4295302000000447,962.2125127000002,None,0.4295302000000447,,,28silent,001,2022_Aug_26_1126,ProdSingRedoBetween,2021.2.3,59.880203664550265,
,,,,108,0,108,0,,,,,,,,,,,,,,,,,,,,,,965.5331721,None,,,,,,,,,,,,,,,,,scene,33,109,silent,old,blue,963.1702616,None,963.1702616,None,5,1.3118328000000474,963.1702616,None,1.3118328000000474,964.5185929000002,None,965.0322488999998,None,965.0322488999998,None,f,0.47391719999995985,965.0322488999998,None,0.47391719999995985,,,28silent,001,2022_Aug_26_1126,ProdSingRedoBetween,2021.2.3,59.880203664550265,
,,,,109,0,109,0,,,,,,,,,,,,,,,,,,,,,,968.5669737000001,None,,,,,,,,,,,,,,,,,gesture,125,110,silent,new,null,966.0602756000001,None,966.0602756000001,None,1,1.4296673000003466,966.0602756000001,None,1.4296673000003466,967.5171331999998,None,968.0227250999999,None,968.0227250999999,None,n,0.5232958999999937,968.0227250999999,None,0.5232958999999937,,,28silent,001,2022_Aug_26_1126,ProdSingRedoBetween,2021.2.3,59.880203664550265,
,,,,110,0,110,0,,,,,,,,,,,,,,,,,,,,,,971.9224364999998,None,,,,,,,,,,,,,,,,,ground,163,111,silent,new,null,969.0692296999998,None,969.0692296999998,None,4,1.8369981000000735,969.0692296999998,None,1.8369981000000735,970.9438661000002,None,971.4532172000002,None,971.4532172000002,None,f,0.4368524999999863,971.4532172000002,None,0.4368524999999863,,,28silent,001,2022_Aug_26_1126,ProdSingRedoBetween,2021.2.3,59.880203664550265,
,,,,111,0,111,0,,,,,,,,,,,,,,,,,,,,,,975.0416232999999,None,,,,,,,,,,,,,,,,,guard,137,112,silent,new,null,972.4413194000001,None,972.4413194000001,None,3,1.4968222000002243,972.4413194000001,None,1.4968222000002243,973.9659438000001,None,974.4729959999997,None,974.4729959999997,None,n,0.5372093000000859,974.4729959999997,None,0.5372093000000859,,,28silent,001,2022_Aug_26_1126,ProdSingRedoBetween,2021.2.3,59.880203664550265,
,,,,112,0,112,0,,,,,,,,,,,,,,,,,,,,,,978.3269130000001,None,,,,,,,,,,,,,,,,,title,159,113,silent,new,null,975.5491340000001,None,975.5491340000001,None,2,1.653016000000207,975.5491340000001,None,1.653016000000207,977.2310467999998,None,977.7460227999998,None,977.7460227999998,None,n,0.5600375999997595,977.7460227999998,None,0.5600375999997595,,,28silent,001,2022_Aug_26_1126,ProdSingRedoBetween,2021.2.3,59.880203664550265,
,,,,113,0,113,0,,,,,,,,,,,,,,,,,,,,,,981.4134038,None,,,,,,,,,,,,,,,,,running,164,114,silent,new,null,978.8394691999999,None,978.8394691999999,None,3,1.458659400000215,978.8394691999999,None,1.458659400000215,980.3408031000001,None,980.8475473999999,None,980.8475473999999,None,n,0.5464843999998266,980.8475473999999,None,0.5464843999998266,,,28silent,001,2022_Aug_26_1126,ProdSingRedoBetween,2021.2.3,59.880203664550265,
,,,,114,0,114,0,,,,,,,,,,,,,,,,,,,,,,984.4830848999998,None,,,,,,,,,,,,,,,,,right,26,115,silent,old,yellow,981.9211901000001,None,981.9211901000001,None,3,1.5929642000000968,981.9211901000001,None,1.5929642000000968,983.5380886999999,None,984.0510821,None,984.0510821,None,n,0.4070564000003287,984.0510821,None,0.4070564000003287,,,28silent,001,2022_Aug_26_1126,ProdSingRedoBetween,2021.2.3,59.880203664550265,
,,,,115,0,115,0,,,,,,,,,,,,,,,,,,,,,,987.8441559,None,,,,,,,,,,,,,,,,,universal,134,116,silent,new,null,984.9995799000001,None,984.9995799000001,None,2,1.7065794000000096,984.9995799000001,None,1.7065794000000096,986.7423431999998,None,987.2556152999998,None,987.2556152999998,None,n,0.5625674000002618,987.2556152999998,None,0.5625674000002618,,,28silent,001,2022_Aug_26_1126,ProdSingRedoBetween,2021.2.3,59.880203664550265,
,,,,116,0,116,0,,,,,,,,,,,,,,,,,,,,,,991.5735474,None,,,,,,,,,,,,,,,,,plane,149,117,silent,new,null,988.3587823999999,None,988.3587823999999,None,1,2.211533000000145,988.3587823999999,None,2.211533000000145,990.5989938999999,None,991.1063093999999,None,991.1063093999999,None,n,0.43970619999981864,991.1063093999999,None,0.43970619999981864,,,28silent,001,2022_Aug_26_1126,ProdSingRedoBetween,2021.2.3,59.880203664550265,
,,,,117,0,117,0,,,,,,,,,,,,,,,,,,,,,,995.7439117000001,None,,,,,,,,,,,,,,,,,reading,51,118,silent,old,blue,992.0856963999997,None,992.0856963999997,None,3,2.4843485999999757,992.0856963999997,None,2.4843485999999757,994.5975820000001,None,995.1167512,None,995.1167512,None,n,0.6053096000000551,995.1167512,None,0.6053096000000551,,,28silent,001,2022_Aug_26_1126,ProdSingRedoBetween,2021.2.3,59.880203664550265,
,,,,118,0,118,0,,,,,,,,,,,,,,,,,,,,,,999.5646112000002,None,,,,,,,,,,,,,,,,,marriage,63,119,silent,old,red,996.2579478999999,None,996.2579478999999,None,4,2.280186500000127,996.2579478999999,None,2.280186500000127,998.5702162999999,None,999.0909663999998,None,999.0909663999998,None,f,0.45512079999980415,999.0909663999998,None,0.45512079999980415,,,28silent,001,2022_Aug_26_1126,ProdSingRedoBetween,2021.2.3,59.880203664550265,
,,,,119,0,119,0,,,,,,,,,,,,,,,,,,,,,,1002.6864613,None,,,,,,,,,,,,,,,,,watch,83,120,silent,old,red,1000.0739268999998,None,1000.0739268999998,None,4,1.5441123000000516,1000.0739268999998,None,1.5441123000000516,1001.6374751000001,None,1002.1508114999999,None,1002.1508114999999,None,f,0.5150754999999663,1002.1508114999999,None,0.5150754999999663,,,28silent,001,2022_Aug_26_1126,ProdSingRedoBetween,2021.2.3,59.880203664550265,
,,,,120,0,120,0,,,,,,,,,,,,,,,,,,,,,,1006.1380151999999,None,,,,,,,,,,,,,,,,,space,46,121,silent,old,blue,1003.2045514999998,None,1003.2045514999998,None,3,1.781499199999871,1003.2045514999998,None,1.781499199999871,1005.0104045,None,1005.5246762999998,None,1005.5246762999998,None,n,0.5972433000001729,1005.5246762999998,None,0.5972433000001729,,,28silent,001,2022_Aug_26_1126,ProdSingRedoBetween,2021.2.3,59.880203664550265,
,,,,121,0,121,0,,,,,,,,,,,,,,,,,,,,,,1009.1077013000001,None,,,,,,,,,,,,,,,,,broke,79,122,silent,old,red,1006.6491230999998,None,1006.6491230999998,None,6,1.3209031999999752,1006.6491230999998,None,1.3209031999999752,1007.9918437999997,None,1008.5095475999999,None,1008.5095475999999,None,f,0.5724635000001399,1008.5095475999999,None,0.5724635000001399,,,28silent,001,2022_Aug_26_1126,ProdSingRedoBetween,2021.2.3,59.880203664550265,
,,,,122,0,122,0,,,,,,,,,,,,,,,,,,,,,,1012.0794273999998,None,,,,,,,,,,,,,,,,,institute,144,123,silent,new,null,1009.6117542,None,1009.6117542,None,4,1.3664810999998735,1009.6117542,None,1.3664810999998735,1011.0177993,None,1011.5300319,None,1011.5300319,None,f,0.5199591999999029,1011.5300319,None,0.5199591999999029,,,28silent,001,2022_Aug_26_1126,ProdSingRedoBetween,2021.2.3,59.880203664550265,
,,,,123,0,123,0,,,,,,,,,,,,,,,,,,,,,,1015.1813384999998,None,,,,,,,,,,,,,,,,,resistance,154,124,silent,new,null,1012.5966738999998,None,1012.5966738999998,None,2,1.5332518000000164,1012.5966738999998,None,1.5332518000000164,1014.1473785999999,None,1014.6499443,None,1014.6499443,None,n,0.5120538999999553,1014.6499443,None,0.5120538999999553,,,28silent,001,2022_Aug_26_1126,ProdSingRedoBetween,2021.2.3,59.880203664550265,
,,,,124,0,124,0,,,,,,,,,,,,,,,,,,,,,,1018.2511129000002,None,,,,,,,,,,,,,,,,,touch,97,125,silent,new,null,1015.6928040999999,None,1015.6928040999999,None,3,1.5412147000001823,1015.6928040999999,None,1.5412147000001823,1017.2544985000002,None,1017.7701782000001,None,1017.7701782000001,None,n,0.4558273999996345,1017.7701782000001,None,0.4558273999996345,,,28silent,001,2022_Aug_26_1126,ProdSingRedoBetween,2021.2.3,59.880203664550265,
,,,,125,0,125,0,,,,,,,,,,,,,,,,,,,,,,1022.2038909999999,None,,,,,,,,,,,,,,,,,listen,43,126,silent,old,blue,1018.7640610999999,None,1018.7640610999999,None,5,1.6378281999996034,1018.7640610999999,None,1.6378281999996034,1020.4186956000001,None,1020.9193084999999,None,1020.9193084999999,None,f,1.258613200000127,1020.9193084999999,None,1.258613200000127,,,28silent,001,2022_Aug_26_1126,ProdSingRedoBetween,2021.2.3,59.880203664550265,
,,,,126,0,126,0,,,,,,,,,,,,,,,,,,,,,,1025.3769744999997,None,,,,,,,,,,,,,,,,,agency,89,127,silent,old,red,1022.7136410999999,None,1022.7136410999999,None,4,1.6482914999996865,1022.7136410999999,None,1.6482914999996865,1024.3927434999998,None,1024.9116548999998,None,1024.9116548999998,None,f,0.4423830000000635,1024.9116548999998,None,0.4423830000000635,,,28silent,001,2022_Aug_26_1126,ProdSingRedoBetween,2021.2.3,59.880203664550265,
,,,,127,0,127,0,,,,,,,,,,,,,,,,,,,,,,1029.1109377,None,,,,,,,,,,,,,,,,,colonel,53,128,silent,old,blue,1025.8937404,None,1025.8937404,None,6,1.7722985999998855,1025.8937404,None,1.7722985999998855,1027.6961678,None,1028.2097843999998,None,1028.2097843999998,None,f,0.8722609999999804,1028.2097843999998,None,0.8722609999999804,,,28silent,001,2022_Aug_26_1126,ProdSingRedoBetween,2021.2.3,59.880203664550265,
,,,,128,0,128,0,,,,,,,,,,,,,,,,,,,,,,1033.4485997999998,None,,,,,,,,,,,,,,,,,group,15,129,silent,old,yellow,1029.6183631000001,None,1029.6183631000001,None,6,1.7276808000001438,1029.6183631000001,None,1.7276808000001438,1031.3671477999999,None,1031.8801419999998,None,1031.8801419999998,None,f,1.5378693000002386,1031.8801419999998,None,1.5378693000002386,,,28silent,001,2022_Aug_26_1126,ProdSingRedoBetween,2021.2.3,59.880203664550265,
,,,,129,0,129,0,,,,,,,,,,,,,,,,,,,,,,1036.5516934,None,,,,,,,,,,,,,,,,,pretty,123,130,silent,new,null,1033.9645944000001,None,1033.9645944000001,None,3,1.5735257000001184,1033.9645944000001,None,1.5735257000001184,1035.570712,None,1036.0846115000002,None,1036.0846115000002,None,n,0.43743399999993926,1036.0846115000002,None,0.43743399999993926,,,28silent,001,2022_Aug_26_1126,ProdSingRedoBetween,2021.2.3,59.880203664550265,
,,,,130,0,130,0,,,,,,,,,,,,,,,,,,,,,,1039.7880637,None,,,,,,,,,,,,,,,,,balance,177,131,silent,new,null,1037.0609745,None,1037.0609745,None,3,1.6930489999999736,1037.0609745,None,1.6930489999999736,1038.775174,None,1039.2878512,None,1039.2878512,None,n,0.4741739000000962,1039.2878512,None,0.4741739000000962,,,28silent,001,2022_Aug_26_1126,ProdSingRedoBetween,2021.2.3,59.880203664550265,
,,,,131,0,131,0,,,,,,,,,,,,,,,,,,,,,,1043.6265572,None,,,,,,,,,,,,,,,,,voice,8,132,silent,old,yellow,1040.3002186,None,1040.3002186,None,4,1.9738962000001266,1040.3002186,None,1.9738962000001266,1042.2941924999998,None,1042.8080131,None,1042.8080131,None,f,0.7939978999997948,1042.8080131,None,0.7939978999997948,,,28silent,001,2022_Aug_26_1126,ProdSingRedoBetween,2021.2.3,59.880203664550265,
,,,,132,0,132,0,,,,,,,,,,,,,,,,,,,,,,1046.5450168,None,,,,,,,,,,,,,,,,,order,70,133,silent,old,red,1044.1372829999998,None,1044.1372829999998,None,1,1.4406930999998622,1044.1372829999998,None,1.4406930999998622,1045.5987361999998,None,1046.1173987,None,1046.1173987,None,n,0.40462509999997565,1046.1173987,None,0.40462509999997565,,,28silent,001,2022_Aug_26_1126,ProdSingRedoBetween,2021.2.3,59.880203664550265,
,,,,133,0,133,0,,,,,,,,,,,,,,,,,,,,,,1049.1808009,None,,,,,,,,,,,,,,,,,department,10,134,silent,old,yellow,1047.0640726999998,None,1047.0640726999998,None,2,1.0899695999996766,1047.0640726999998,None,1.0899695999996766,1048.1870001999998,None,1048.6996267000002,None,1048.6996267000002,None,n,0.46243060000006153,1048.6996267000002,None,0.46243060000006153,,,28silent,001,2022_Aug_26_1126,ProdSingRedoBetween,2021.2.3,59.880203664550265,
,,,,134,0,134,0,,,,,,,,,,,,,,,,,,,,,,1052.684262,None,,,,,,,,,,,,,,,,,search,113,135,silent,new,null,1049.6926132,None,1049.6926132,None,2,2.0054144999999153,1049.6926132,None,2.0054144999999153,1051.7204461,None,1052.2370035000001,None,1052.2370035000001,None,n,0.42890239999996993,1052.2370035000001,None,0.42890239999996993,,,28silent,001,2022_Aug_26_1126,ProdSingRedoBetween,2021.2.3,59.880203664550265,
,,,,135,0,135,0,,,,,,,,,,,,,,,,,,,,,,1056.388161,None,,,,,,,,,,,,,,,,,majority,109,136,silent,new,null,1053.2001011999998,None,1053.2001011999998,None,2,2.1860458999999537,1053.2001011999998,None,2.1860458999999537,1055.4157478,None,1055.9234465000002,None,1055.9234465000002,None,n,0.4464238000000478,1055.9234465000002,None,0.4464238000000478,,,28silent,001,2022_Aug_26_1126,ProdSingRedoBetween,2021.2.3,59.880203664550265,
,,,,136,0,136,0,,,,,,,,,,,,,,,,,,,,,,1060.0985948,None,,,,,,,,,,,,,,,,,split,44,137,silent,old,blue,1056.89819,None,1056.89819,None,4,2.2877558000000136,1056.89819,None,2.2877558000000136,1059.2090107000001,None,1059.7125600000002,None,1059.7125600000002,None,f,0.3535936000002948,1059.7125600000002,None,0.3535936000002948,,,28silent,001,2022_Aug_26_1126,ProdSingRedoBetween,2021.2.3,59.880203664550265,
,,,,137,0,137,0,,,,,,,,,,,,,,,,,,,,,,1063.7491159999997,None,,,,,,,,,,,,,,,,,oxygen,117,138,silent,new,null,1060.6251614999999,None,1060.6251614999999,None,5,1.920743599999696,1060.6251614999999,None,1.920743599999696,1062.5618538,None,1063.0634238999999,None,1063.0634238999999,None,f,0.6666402999999264,1063.0634238999999,None,0.6666402999999264,,,28silent,001,2022_Aug_26_1126,ProdSingRedoBetween,2021.2.3,59.880203664550265,
,,,,138,0,138,0,,,,,,,,,,,,,,,,,,,,,,1066.3646023999997,None,,,,,,,,,,,,,,,,,suspect,14,139,silent,old,yellow,1064.2727429999998,None,1064.2727429999998,None,1,1.2413522000001649,1064.2727429999998,None,1.2413522000001649,1065.5341594,None,1066.0594192,None,1066.0594192,None,n,0.28666610000027504,1066.0594192,None,0.28666610000027504,,,28silent,001,2022_Aug_26_1126,ProdSingRedoBetween,2021.2.3,59.880203664550265,
,,,,139,0,139,0,,,,,,,,,,,,,,,,,,,,,,1071.1219595,None,,,,,,,,,,,,,,,,,individual,153,140,silent,new,null,1066.8764367,None,1066.8764367,None,4,3.333625700000084,1066.8764367,None,3.333625700000084,1070.2411237,None,1070.7591836,None,1070.7591836,None,f,0.3309508000002097,1070.7591836,None,0.3309508000002097,,,28silent,001,2022_Aug_26_1126,ProdSingRedoBetween,2021.2.3,59.880203664550265,
,,,,140,0,140,0,,,,,,,,,,,,,,,,,,,,,,1074.2893597999998,None,,,,,,,,,,,,,,,,,passage,169,141,silent,new,null,1071.6456378999999,None,1071.6456378999999,None,2,1.6844934999999168,1071.6456378999999,None,1.6844934999999168,1073.3563014999997,None,1073.8610529,None,1073.8610529,None,n,0.4129023000000416,1073.8610529,None,0.4129023000000416,,,28silent,001,2022_Aug_26_1126,ProdSingRedoBetween,2021.2.3,59.880203664550265,
,,,,141,0,141,0,,,,,,,,,,,,,,,,,,,,,,1078.4131931999998,None,,,,,,,,,,,,,,,,,bitter,136,142,silent,new,null,1074.8008904,None,1074.8008904,None,2,2.409176799999841,1074.8008904,None,2.409176799999841,1077.2339896,None,1077.7438497,None,1077.7438497,None,n,0.6422515999997813,1077.7438497,None,0.6422515999997813,,,28silent,001,2022_Aug_26_1126,ProdSingRedoBetween,2021.2.3,59.880203664550265,
,,,,142,0,142,0,,,,,,,,,,,,,,,,,,,,,,1081.3962596999997,None,,,,,,,,,,,,,,,,,couch,80,143,silent,old,red,1078.9328056000002,None,1078.9328056000002,None,2,1.5012918000002173,1078.9328056000002,None,1.5012918000002173,1080.4684457,None,1080.9817362000001,None,1080.9817362000001,None,n,0.38826030000018363,1080.9817362000001,None,0.38826030000018363,,,28silent,001,2022_Aug_26_1126,ProdSingRedoBetween,2021.2.3,59.880203664550265,
,,,,143,0,143,0,,,,,,,,,,,,,,,,,,,,,,1084.4340294,None,,,,,,,,,,,,,,,,,skill,3,144,silent,old,yellow,1081.9004456,None,1081.9004456,None,4,1.4936017999998512,1081.9004456,None,1.4936017999998512,1083.4257248000001,None,1083.9366205,None,1083.9366205,None,f,0.4734747000002244,1083.9366205,None,0.4734747000002244,,,28silent,001,2022_Aug_26_1126,ProdSingRedoBetween,2021.2.3,59.880203664550265,
,,,,144,0,144,0,,,,,,,,,,,,,,,,,,,,,,1087.3211107999998,None,,,,,,,,,,,,,,,,,carry,106,145,silent,new,null,1084.9549031,None,1084.9549031,None,5,1.5031279999998333,1084.9549031,None,1.5031279999998333,1086.4918995,None,1087.005218,None,1087.005218,None,f,0.292804299999716,1087.005218,None,0.292804299999716,,,28silent,001,2022_Aug_26_1126,ProdSingRedoBetween,2021.2.3,59.880203664550265,
,,,,145,0,145,0,,,,,,,,,,,,,,,,,,,,,,1090.6908584999999,None,,,,,,,,,,,,,,,,,little,119,146,silent,new,null,1087.8395850999998,None,1087.8395850999998,None,2,1.9143543000000136,1087.8395850999998,None,1.9143543000000136,1089.7722313000002,None,1090.2786773999999,None,1090.2786773999999,None,n,0.38759150000032605,1090.2786773999999,None,0.38759150000032605,,,28silent,001,2022_Aug_26_1126,ProdSingRedoBetween,2021.2.3,59.880203664550265,
,,,,146,0,146,0,,,,,,,,,,,,,,,,,,,,,,1093.2941574,None,,,,,,,,,,,,,,,,,tennis,140,147,silent,new,null,1091.2166211,None,1091.2166211,None,1,1.2493064000000231,1091.2166211,None,1.2493064000000231,1092.4937364,None,1093.0079884999998,None,1093.0079884999998,None,n,0.2581017000002248,1093.0079884999998,None,0.2581017000002248,,,28silent,001,2022_Aug_26_1126,ProdSingRedoBetween,2021.2.3,59.880203664550265,
,,,,147,0,147,0,,,,,,,,,,,,,,,,,,,,,,1097.0454653,None,,,,,,,,,,,,,,,,,guest,176,148,silent,new,null,1093.8146335999998,None,1093.8146335999998,None,5,2.2112105000001065,1093.8146335999998,None,2.2112105000001065,1096.0450693999999,None,1096.5490598,None,1096.5490598,None,f,0.4768707000002905,1096.5490598,None,0.4768707000002905,,,28silent,001,2022_Aug_26_1126,ProdSingRedoBetween,2021.2.3,59.880203664550265,
,,,,148,0,148,0,,,,,,,,,,,,,,,,,,,,,,1099.7507916000002,None,,,,,,,,,,,,,,,,,account,2,149,silent,old,yellow,1097.5579154,None,1097.5579154,None,6,1.2200768000002427,1097.5579154,None,1.2200768000002427,1098.8044238,None,1099.3243971999998,None,1099.3243971999998,None,f,0.40559129999974175,1099.3243971999998,None,0.40559129999974175,,,28silent,001,2022_Aug_26_1126,ProdSingRedoBetween,2021.2.3,59.880203664550265,
,,,,149,0,149,0,,,,,,,,,,,,,,,,,,,,,,1103.1542136,None,,,,,,,,,,,,,,,,,surprise,130,150,silent,new,null,1100.2710458999998,None,1100.2710458999998,None,1,1.938957400000163,1100.2710458999998,None,1.938957400000163,1102.2423144000002,None,1102.7562366999998,None,1102.7562366999998,None,n,0.373895100000027,1102.7562366999998,None,0.373895100000027,,,28silent,001,2022_Aug_26_1126,ProdSingRedoBetween,2021.2.3,59.880203664550265,
,,,,150,0,150,0,,,,,,,,,,,,,,,,,,,,,,1106.3220196999998,None,,,,,,,,,,,,,,,,,match,148,151,silent,new,null,1103.6741298999998,None,1103.6741298999998,None,2,1.6558226000001923,1103.6741298999998,None,1.6558226000001923,1105.3591033,None,1105.8740028,None,1105.8740028,None,n,0.41615269999965676,1105.8740028,None,0.41615269999965676,,,28silent,001,2022_Aug_26_1126,ProdSingRedoBetween,2021.2.3,59.880203664550265,
,,,,151,0,151,0,,,,,,,,,,,,,,,,,,,,,,1109.1408153,None,,,,,,,,,,,,,,,,,frank,124,152,silent,new,null,1106.83762,None,1106.83762,None,1,1.332329700000173,1106.83762,None,1.332329700000173,1108.1947367,None,1108.7176991,None,1108.7176991,None,n,0.4042628000001969,1108.7176991,None,0.4042628000001969,,,28silent,001,2022_Aug_26_1126,ProdSingRedoBetween,2021.2.3,59.880203664550265,
,,,,152,0,152,0,,,,,,,,,,,,,,,,,,,,,,1111.8099562999998,None,,,,,,,,,,,,,,,,,turkey,141,153,silent,new,null,1109.6525493000001,None,1109.6525493000001,None,1,1.1894978000000265,1109.6525493000001,None,1.1894978000000265,1110.8721358999999,None,1111.3804868,None,1111.3804868,None,n,0.41334210000013627,1111.3804868,None,0.41334210000013627,,,28silent,001,2022_Aug_26_1126,ProdSingRedoBetween,2021.2.3,59.880203664550265,
,,,,153,0,153,0,,,,,,,,,,,,,,,,,,,,,,1115.3802426,None,,,,,,,,,,,,,,,,,suggestion,104,154,silent,new,null,1112.3251238,None,1112.3251238,None,5,2.0849474000001464,1112.3251238,None,2.0849474000001464,1114.4457086999998,None,1114.9521716000002,None,1114.9521716000002,None,f,0.4018644999996468,1114.9521716000002,None,0.4018644999996468,,,28silent,001,2022_Aug_26_1126,ProdSingRedoBetween,2021.2.3,59.880203664550265,
,,,,154,0,154,0,,,,,,,,,,,,,,,,,,,,,,1118.1998326,None,,,,,,,,,,,,,,,,,length,155,155,silent,new,null,1115.8893652999998,None,1115.8893652999998,None,4,1.3207150999996884,1115.8893652999998,None,1.3207150999996884,1117.2432075999998,None,1117.7496425000002,None,1117.7496425000002,None,f,0.42033290000017587,1117.7496425000002,None,0.42033290000017587,,,28silent,001,2022_Aug_26_1126,ProdSingRedoBetween,2021.2.3,59.880203664550265,
,,,,155,0,155,0,,,,,,,,,,,,,,,,,,,,,,1121.1727187,None,,,,,,,,,,,,,,,,,finance,151,156,silent,new,null,1118.7125024,None,1118.7125024,None,4,1.5534840000000258,1118.7125024,None,1.5534840000000258,1120.2975866999998,None,1120.8057172000001,None,1120.8057172000001,None,f,0.3403307999997196,1120.8057172000001,None,0.3403307999997196,,,28silent,001,2022_Aug_26_1126,ProdSingRedoBetween,2021.2.3,59.880203664550265,
,,,,156,0,156,0,,,,,,,,,,,,,,,,,,,,,,1123.973177,None,,,,,,,,,,,,,,,,,committee,107,157,silent,new,null,1121.6925659,None,1121.6925659,None,3,1.4133975999998256,1121.6925659,None,1.4133975999998256,1123.1278409,None,1123.6416987,None,1123.6416987,None,n,0.3042803999996977,1123.6416987,None,0.3042803999996977,,,28silent,001,2022_Aug_26_1126,ProdSingRedoBetween,2021.2.3,59.880203664550265,
,,,,157,0,157,0,,,,,,,,,,,,,,,,,,,,,,1126.6082795999998,None,,,,,,,,,,,,,,,,,theme,131,158,silent,new,null,1124.4779187000001,None,1124.4779187000001,None,4,1.2441552000000229,1124.4779187000001,None,1.2441552000000229,1125.7482757,None,1126.2649632,None,1126.2649632,None,f,0.321054500000173,1126.2649632,None,0.321054500000173,,,28silent,001,2022_Aug_26_1126,ProdSingRedoBetween,2021.2.3,59.880203664550265,
,,,,158,0,158,0,,,,,,,,,,,,,,,,,,,,,,1129.5112138000002,None,,,,,,,,,,,,,,,,,distance,72,159,silent,old,red,1127.1233114,None,1127.1233114,None,6,1.4865417999999408,1127.1233114,None,1.4865417999999408,1128.6315634999999,None,1129.1502226999999,None,1129.1502226999999,None,f,0.3315978999999061,1129.1502226999999,None,0.3315978999999061,,,28silent,001,2022_Aug_26_1126,ProdSingRedoBetween,2021.2.3,59.880203664550265,
,,,,159,0,159,0,,,,,,,,,,,,,,,,,,,,,,1132.9019210999998,None,,,,,,,,,,,,,,,,,range,29,160,silent,old,blue,1130.0189591,None,1130.0189591,None,2,1.8872309999997015,1130.0189591,None,1.8872309999997015,1131.9403492,None,1132.4542229,None,1132.4542229,None,n,0.42778880000014397,1132.4542229,None,0.42778880000014397,,,28silent,001,2022_Aug_26_1126,ProdSingRedoBetween,2021.2.3,59.880203664550265,
,,,,160,0,160,0,,,,,,,,,,,,,,,,,,,,,,1136.4513146000002,None,,,,,,,,,,,,,,,,,country,36,161,silent,old,blue,1133.4197846999998,None,1133.4197846999998,None,4,2.046101699999781,1133.4197846999998,None,2.046101699999781,1135.4888884999998,None,1136.0153023,None,1136.0153023,None,f,0.4185984999999164,1136.0153023,None,0.4185984999999164,,,28silent,001,2022_Aug_26_1126,ProdSingRedoBetween,2021.2.3,59.880203664550265,
,,,,161,0,161,0,,,,,,,,,,,,,,,,,,,,,,1139.4878496,None,,,,,,,,,,,,,,,,,error,112,162,silent,new,null,1136.9620211999998,None,1136.9620211999998,None,1,1.5920030000002043,1136.9620211999998,None,1.5920030000002043,1138.5755422,None,1139.0888165,None,1139.0888165,None,n,0.37704570000005333,1139.0888165,None,0.37704570000005333,,,28silent,001,2022_Aug_26_1126,ProdSingRedoBetween,2021.2.3,59.880203664550265,
,,,,162,0,162,0,,,,,,,,,,,,,,,,,,,,,,1142.4085168,None,,,,,,,,,,,,,,,,,government,5,163,silent,old,yellow,1140.0013187000002,None,1140.0013187000002,None,5,1.4325693000000683,1140.0013187000002,None,1.4325693000000683,1141.4573999000002,None,1141.9620183999998,None,1141.9620183999998,None,f,0.4159197999997559,1141.9620183999998,None,0.4159197999997559,,,28silent,001,2022_Aug_26_1126,ProdSingRedoBetween,2021.2.3,59.880203664550265,
,,,,163,0,163,0,,,,,,,,,,,,,,,,,,,,,,1145.4602020999998,None,,,,,,,,,,,,,,,,,stranger,81,164,silent,old,red,1142.9212841,None,1142.9212841,None,2,1.6246350000001257,1142.9212841,None,1.6246350000001257,1144.5777474,None,1145.0824682999998,None,1145.0824682999998,None,n,0.3593850000002021,1145.0824682999998,None,0.3593850000002021,,,28silent,001,2022_Aug_26_1126,ProdSingRedoBetween,2021.2.3,59.880203664550265,
,,,,164,0,164,0,,,,,,,,,,,,,,,,,,,,,,1148.0964375,None,,,,,,,,,,,,,,,,,relation,55,165,silent,old,blue,1145.9694634999998,None,1145.9694634999998,None,4,1.2566364999997859,1145.9694634999998,None,1.2566364999997859,1147.2515004,None,1147.7734678,None,1147.7734678,None,f,0.30053989999987607,1147.7734678,None,0.30053989999987607,,,28silent,001,2022_Aug_26_1126,ProdSingRedoBetween,2021.2.3,59.880203664550265,
,,,,165,0,165,0,,,,,,,,,,,,,,,,,,,,,,1151.0491349000001,None,,,,,,,,,,,,,,,,,state,86,166,silent,old,red,1148.6016570999998,None,1148.6016570999998,None,3,1.5762845999997808,1148.6016570999998,None,1.5762845999997808,1150.2043639,None,1150.7186958999998,None,1150.7186958999998,None,n,0.31515330000001995,1150.7186958999998,None,0.31515330000001995,,,28silent,001,2022_Aug_26_1126,ProdSingRedoBetween,2021.2.3,59.880203664550265,
,,,,166,0,166,0,,,,,,,,,,,,,,,,,,,,,,1154.7900710000001,None,,,,,,,,,,,,,,,,,member,38,167,silent,old,blue,1151.5553741,None,1151.5553741,None,4,2.2866852000001927,1151.5553741,None,2.2866852000001927,1153.8747062999998,None,1154.3872447,None,1154.3872447,None,f,0.3746916999998575,1154.3872447,None,0.3746916999998575,,,28silent,001,2022_Aug_26_1126,ProdSingRedoBetween,2021.2.3,59.880203664550265,
,,,,167,0,167,0,,,,,,,,,,,,,,,,,,,,,,1159.0930182,None,,,,,,,,,,,,,,,,,cross,98,168,silent,new,null,1155.3132297999998,None,1155.3132297999998,None,3,1.6167304999999033,1155.3132297999998,None,1.6167304999999033,1156.9649772,None,1157.4753121,None,1157.4753121,None,n,1.598638800000117,1157.4753121,None,1.598638800000117,,,28silent,001,2022_Aug_26_1126,ProdSingRedoBetween,2021.2.3,59.880203664550265,
,,,,168,0,168,0,,,,,,,,,,,,,,,,,,,,,,1162.2770785999999,None,,,,,,,,,,,,,,,,,payment,50,169,silent,old,blue,1159.6154983999998,None,1159.6154983999998,None,4,1.7145672999999988,1159.6154983999998,None,1.7145672999999988,1161.3714084,None,1161.8813106999999,None,1161.8813106999999,None,f,0.3766885000000002,1161.8813106999999,None,0.3766885000000002,,,28silent,001,2022_Aug_26_1126,ProdSingRedoBetween,2021.2.3,59.880203664550265,
,,,,169,0,169,0,,,,,,,,,,,,,,,,,,,,,,1167.8029995,None,,,,,,,,,,,,,,,,,present,56,170,silent,old,blue,1162.7818866999999,None,1162.7818866999999,None,6,3.6921829000002617,1162.7818866999999,None,3.6921829000002617,1166.5070555,None,1167.0194838,None,1167.0194838,None,f,0.7585167000002002,1167.0194838,None,0.7585167000002002,,,28silent,001,2022_Aug_26_1126,ProdSingRedoBetween,2021.2.3,59.880203664550265,
,,,,170,0,170,0,,,,,,,,,,,,,,,,,,,,,,1171.8081083,None,,,,,,,,,,,,,,,,,object,170,171,silent,new,null,1168.3287868999998,None,1168.3287868999998,None,3,2.5451389999998355,1168.3287868999998,None,2.5451389999998355,1170.910638,None,1171.4228976000002,None,1171.4228976000002,None,n,0.35506420000001526,1171.4228976000002,None,0.35506420000001526,,,28silent,001,2022_Aug_26_1126,ProdSingRedoBetween,2021.2.3,59.880203664550265,
,,,,171,0,171,0,,,,,,,,,,,,,,,,,,,,,,1175.6736832999998,None,,,,,,,,,,,,,,,,,meeting,39,172,silent,old,blue,1172.3308303000001,None,1172.3308303000001,None,3,2.4151296,1172.3308303000001,None,2.4151296,1174.77966,None,1175.2921198000001,None,1175.2921198000001,None,n,0.36573009999983697,1175.2921198000001,None,0.36573009999983697,,,28silent,001,2022_Aug_26_1126,ProdSingRedoBetween,2021.2.3,59.880203664550265,
,,,,172,0,172,0,,,,,,,,,,,,,,,,,,,,,,1178.8936523,None,,,,,,,,,,,,,,,,,threat,114,173,silent,new,null,1176.1831402,None,1176.1831402,None,2,1.810837900000024,1176.1831402,None,1.810837900000024,1178.0189228000002,None,1178.5266884,None,1178.5266884,None,n,0.339163400000416,1178.5266884,None,0.339163400000416,,,28silent,001,2022_Aug_26_1126,ProdSingRedoBetween,2021.2.3,59.880203664550265,
,,,,173,0,173,0,,,,,,,,,,,,,,,,,,,,,,1182.2305072000001,None,,,,,,,,,,,,,,,,,taste,84,174,silent,old,red,1179.4051597999999,None,1179.4051597999999,None,6,1.900796100000207,1179.4051597999999,None,1.900796100000207,1181.3369839,None,1181.8509723999998,None,1181.8509723999998,None,f,0.3508882999999514,1181.8509723999998,None,0.3508882999999514,,,28silent,001,2022_Aug_26_1126,ProdSingRedoBetween,2021.2.3,59.880203664550265,
,,,,174,0,174,0,,,,,,,,,,,,,,,,,,,,,,1186.0173576999998,None,,,,,,,,,,,,,,,,,republic,147,175,silent,new,null,1182.7409025999998,None,1182.7409025999998,None,4,2.325115200000255,1182.7409025999998,None,2.325115200000255,1185.0900699000001,None,1185.6035758,None,1185.6035758,None,f,0.39027939999959926,1185.6035758,None,0.39027939999959926,,,28silent,001,2022_Aug_26_1126,ProdSingRedoBetween,2021.2.3,59.880203664550265,
,,,,175,0,175,0,,,,,,,,,,,,,,,,,,,,,,1189.3873864999998,None,,,,,,,,,,,,,,,,,point,25,176,silent,old,yellow,1186.5275748000001,None,1186.5275748000001,None,4,1.8103079000002253,1186.5275748000001,None,1.8103079000002253,1188.356692,None,1188.8743373,None,1188.8743373,None,f,0.4875121999998555,1188.8743373,None,0.4875121999998555,,,28silent,001,2022_Aug_26_1126,ProdSingRedoBetween,2021.2.3,59.880203664550265,
,,,,176,0,176,0,,,,,,,,,,,,,,,,,,,,,,1192.6073439,None,,,,,,,,,,,,,,,,,primary,18,177,silent,old,yellow,1189.9044462,None,1189.9044462,None,4,1.5774347999999918,1189.9044462,None,1.5774347999999918,1191.5097144,None,1192.0318058,None,1192.0318058,None,f,0.5540729000003921,1192.0318058,None,0.5540729000003921,,,28silent,001,2022_Aug_26_1126,ProdSingRedoBetween,2021.2.3,59.880203664550265,
,,,,177,0,177,0,,,,,,,,,,,,,,,,,,,,,,1195.629452,None,,,,,,,,,,,,,,,,,burden,47,178,silent,old,blue,1193.1170288,None,1193.1170288,None,2,1.5088223000002472,1193.1170288,None,1.5088223000002472,1194.6495861,None,1195.1598462999998,None,1195.1598462999998,None,n,0.44211429999995744,1195.1598462999998,None,0.44211429999995744,,,28silent,001,2022_Aug_26_1126,ProdSingRedoBetween,2021.2.3,59.880203664550265,
,,,,178,0,178,0,,,,,,,,,,,,,,,,,,,,,,1198.7998165000001,None,,,,,,,,,,,,,,,,,trend,12,179,silent,old,yellow,1196.1524004999999,None,1196.1524004999999,None,2,1.5616763999996692,1196.1524004999999,None,1.5616763999996692,1197.7383038,None,1198.2473472999998,None,1198.2473472999998,None,n,0.5306955999999445,1198.2473472999998,None,0.5306955999999445,,,28silent,001,2022_Aug_26_1126,ProdSingRedoBetween,2021.2.3,59.880203664550265,
,,,,179,0,179,0,,,,,,,,,,,,,,,,,,,,,,1202.3017314,None,,,,,,,,,,,,,,,,,novel,179,180,silent,new,null,1199.3257972,None,1199.3257972,None,2,2.108193399999891,1199.3257972,None,2.108193399999891,1201.457483,None,1201.9678754999998,None,1201.9678754999998,None,n,0.31404750000001513,1201.9678754999998,None,0.31404750000001513,,,28silent,001,2022_Aug_26_1126,ProdSingRedoBetween,2021.2.3,59.880203664550265,
,,,,,,,,,,,,,,,,,,,,,,,,,,,,,,,,,,,,,,,,,,,,,,,,,,,,,,,,,,,,,,,,,,,,,,,,,1202.8015739999998,None,,,,,,,
