StudyLoop.thisRepN,StudyLoop.thisTrialN,StudyLoop.thisN,StudyLoop.thisIndex,TestLoop.thisRepN,TestLoop.thisTrialN,TestLoop.thisN,TestLoop.thisIndex,textCondition.started,textCondition.stopped,keyCondition.keys,keyCondition.rt,keyCondition.started,keyCondition.stopped,Condition,textWelcome.started,textWelcome.stopped,keyWelcome.keys,keyWelcome.rt,keyWelcome.started,keyWelcome.stopped,textAloud.started,textAloud.stopped,textSilent.started,textSilent.stopped,textSing.started,textSing.stopped,conditional_text.started,conditional_text.stopped,textBlank500.started,textBlank500.stopped,study_word,study_num,study_order,study_type,word_color,textStudy.started,textStudy.stopped,keyStudy.keys,keyStudy.started,keyStudy.stopped,textTestInstructions.started,textTestInstructions.stopped,key_resp_3.keys,key_resp_3.rt,key_resp_3.started,key_resp_3.stopped,test_word,test_num,test_order,test_condition,old_new_test,test_word_original_color,textConf.started,textConf.stopped,textConfScale.started,textConfScale.stopped,keyConf.keys,keyConf.rt,keyConf.started,keyConf.stopped,confidence response time,textTestBlank.started,textTestBlank.stopped,textRKN.started,textRKN.stopped,textRKNScale.started,textRKNScale.stopped,keyRKN.keys,keyRKN.rt,keyRKN.started,keyRKN.stopped,rkn response time,textEnd.started,textEnd.stopped,participant,session,date,expName,psychopyVersion,frameRate,
,,,,,,,,15.497033500025282,None,b,5.638941399985924,15.497033500025282,None,,,,,,,,,,,,,,,,,,,,,,,,,,,,,,,,,,,,,,,,,,,,,,,,,,,,,,,,,,,,,,29Aloud,001,2022_Aug_29_1101,ProdSingRedoBetween,2021.2.3,59.88888216553408,
,,,,,,,,,,,,,,AloudTest,21.17468930000905,None,space,133.64990349998698,21.17468930000905,None,,,,,,,,,,,,,,,,,,,,,,,,,,,,,,,,,,,,,,,,,,,,,,,,,,,,,,,29Aloud,001,2022_Aug_29_1101,ProdSingRedoBetween,2021.2.3,59.88888216553408,
0,0,0,0,,,,,,,,,,,,,,,,,,21.17468930000905,None,21.17468930000905,None,21.17468930000905,None,21.17468930000905,None,157.34187000000384,None,account,2,1,aloud,yellow,155.3397778000217,None,None,155.3397778000217,None,,,,,,,,,,,,,,,,,,,,,,,,,,,,,,,,,,,29Aloud,001,2022_Aug_29_1101,ProdSingRedoBetween,2021.2.3,59.88888216553408,
1,0,1,0,,,,,,,,,,,,,,,,,,,,,,,,,,159.86104850002448,None,session,89,2,aloud,red,157.8472237000242,None,None,157.8472237000242,None,,,,,,,,,,,,,,,,,,,,,,,,,,,,,,,,,,,29Aloud,001,2022_Aug_29_1101,ProdSingRedoBetween,2021.2.3,59.88888216553408,
2,0,2,0,,,,,,,,,,,,,,,,,,,,,,,,,,162.38030990000698,None,worker,75,3,aloud,red,160.37391940000816,None,None,160.37391940000816,None,,,,,,,,,,,,,,,,,,,,,,,,,,,,,,,,,,,29Aloud,001,2022_Aug_29_1101,ProdSingRedoBetween,2021.2.3,59.88888216553408,
3,0,3,0,,,,,,,,,,,,,,,,,,,,,,,,,,164.88285100000212,None,company,14,4,aloud,yellow,162.88197180000134,None,None,162.88197180000134,None,,,,,,,,,,,,,,,,,,,,,,,,,,,,,,,,,,,29Aloud,001,2022_Aug_29_1101,ProdSingRedoBetween,2021.2.3,59.88888216553408,
4,0,4,0,,,,,,,,,,,,,,,,,,,,,,,,,,167.40188930000295,None,benefit,79,5,aloud,red,165.38891410001088,None,None,165.38891410001088,None,,,,,,,,,,,,,,,,,,,,,,,,,,,,,,,,,,,29Aloud,001,2022_Aug_29_1101,ProdSingRedoBetween,2021.2.3,59.88888216553408,
5,0,5,0,,,,,,,,,,,,,,,,,,,,,,,,,,169.92116779999924,None,service,16,6,aloud,yellow,167.90796160002355,None,None,167.90796160002355,None,,,,,,,,,,,,,,,,,,,,,,,,,,,,,,,,,,,29Aloud,001,2022_Aug_29_1101,ProdSingRedoBetween,2021.2.3,59.88888216553408,
6,0,6,0,,,,,,,,,,,,,,,,,,,,,,,,,,172.4236858000222,None,machinery,3,7,aloud,yellow,170.4247277000104,None,None,170.4247277000104,None,,,,,,,,,,,,,,,,,,,,,,,,,,,,,,,,,,,29Aloud,001,2022_Aug_29_1101,ProdSingRedoBetween,2021.2.3,59.88888216553408,
7,0,7,0,,,,,,,,,,,,,,,,,,,,,,,,,,174.942626700009,None,design,56,8,aloud,blue,172.93077690000064,None,None,172.93077690000064,None,,,,,,,,,,,,,,,,,,,,,,,,,,,,,,,,,,,29Aloud,001,2022_Aug_29_1101,ProdSingRedoBetween,2021.2.3,59.88888216553408,
8,0,8,0,,,,,,,,,,,,,,,,,,,,,,,,,,177.44533750001574,None,household,80,9,aloud,red,175.44336000000476,None,None,175.44336000000476,None,,,,,,,,,,,,,,,,,,,,,,,,,,,,,,,,,,,29Aloud,001,2022_Aug_29_1101,ProdSingRedoBetween,2021.2.3,59.88888216553408,
9,0,9,0,,,,,,,,,,,,,,,,,,,,,,,,,,179.96451170000364,None,burden,88,10,aloud,red,177.94980880001094,None,None,177.94980880001094,None,,,,,,,,,,,,,,,,,,,,,,,,,,,,,,,,,,,29Aloud,001,2022_Aug_29_1101,ProdSingRedoBetween,2021.2.3,59.88888216553408,
10,0,10,0,,,,,,,,,,,,,,,,,,,,,,,,,,182.4838811000227,None,health,53,11,aloud,blue,180.4698951000173,None,None,180.4698951000173,None,,,,,,,,,,,,,,,,,,,,,,,,,,,,,,,,,,,29Aloud,001,2022_Aug_29_1101,ProdSingRedoBetween,2021.2.3,59.88888216553408,
11,0,11,0,,,,,,,,,,,,,,,,,,,,,,,,,,184.98618800000986,None,couch,76,12,aloud,red,182.98573430001852,None,None,182.98573430001852,None,,,,,,,,,,,,,,,,,,,,,,,,,,,,,,,,,,,29Aloud,001,2022_Aug_29_1101,ProdSingRedoBetween,2021.2.3,59.88888216553408,
12,0,12,0,,,,,,,,,,,,,,,,,,,,,,,,,,187.48869510000804,None,store,77,13,aloud,red,185.48666070000036,None,None,185.48666070000036,None,,,,,,,,,,,,,,,,,,,,,,,,,,,,,,,,,,,29Aloud,001,2022_Aug_29_1101,ProdSingRedoBetween,2021.2.3,59.88888216553408,
13,0,13,0,,,,,,,,,,,,,,,,,,,,,,,,,,190.0080146000255,None,force,31,14,aloud,blue,187.9926734000037,None,None,187.9926734000037,None,,,,,,,,,,,,,,,,,,,,,,,,,,,,,,,,,,,29Aloud,001,2022_Aug_29_1101,ProdSingRedoBetween,2021.2.3,59.88888216553408,
14,0,14,0,,,,,,,,,,,,,,,,,,,,,,,,,,192.51040230001672,None,edition,64,15,aloud,red,190.50834410000243,None,None,190.50834410000243,None,,,,,,,,,,,,,,,,,,,,,,,,,,,,,,,,,,,29Aloud,001,2022_Aug_29_1101,ProdSingRedoBetween,2021.2.3,59.88888216553408,
15,0,15,0,,,,,,,,,,,,,,,,,,,,,,,,,,195.0294790000189,None,south,59,16,aloud,yellow,193.01539650000632,None,None,193.01539650000632,None,,,,,,,,,,,,,,,,,,,,,,,,,,,,,,,,,,,29Aloud,001,2022_Aug_29_1101,ProdSingRedoBetween,2021.2.3,59.88888216553408,
16,0,16,0,,,,,,,,,,,,,,,,,,,,,,,,,,197.5485857000167,None,engineer,6,17,aloud,yellow,195.53413630000432,None,None,195.53413630000432,None,,,,,,,,,,,,,,,,,,,,,,,,,,,,,,,,,,,29Aloud,001,2022_Aug_29_1101,ProdSingRedoBetween,2021.2.3,59.88888216553408,
17,0,17,0,,,,,,,,,,,,,,,,,,,,,,,,,,200.06783640000504,None,department,69,18,aloud,red,198.0533631000144,None,None,198.0533631000144,None,,,,,,,,,,,,,,,,,,,,,,,,,,,,,,,,,,,29Aloud,001,2022_Aug_29_1101,ProdSingRedoBetween,2021.2.3,59.88888216553408,
18,0,18,0,,,,,,,,,,,,,,,,,,,,,,,,,,202.5703513000044,None,testimony,46,19,aloud,blue,200.56840150000062,None,None,200.56840150000062,None,,,,,,,,,,,,,,,,,,,,,,,,,,,,,,,,,,,29Aloud,001,2022_Aug_29_1101,ProdSingRedoBetween,2021.2.3,59.88888216553408,
19,0,19,0,,,,,,,,,,,,,,,,,,,,,,,,,,205.0894484000164,None,dispute,82,20,aloud,red,203.07777350000106,None,None,203.07777350000106,None,,,,,,,,,,,,,,,,,,,,,,,,,,,,,,,,,,,29Aloud,001,2022_Aug_29_1101,ProdSingRedoBetween,2021.2.3,59.88888216553408,
20,0,20,0,,,,,,,,,,,,,,,,,,,,,,,,,,207.59207560002687,None,welcome,4,21,aloud,yellow,205.59005530001014,None,None,205.59005530001014,None,,,,,,,,,,,,,,,,,,,,,,,,,,,,,,,,,,,29Aloud,001,2022_Aug_29_1101,ProdSingRedoBetween,2021.2.3,59.88888216553408,
21,0,21,0,,,,,,,,,,,,,,,,,,,,,,,,,,210.09458280002582,None,breath,5,22,aloud,yellow,208.09256380001898,None,None,208.09256380001898,None,,,,,,,,,,,,,,,,,,,,,,,,,,,,,,,,,,,29Aloud,001,2022_Aug_29_1101,ProdSingRedoBetween,2021.2.3,59.88888216553408,
22,0,22,0,,,,,,,,,,,,,,,,,,,,,,,,,,212.61368370000855,None,payment,67,23,aloud,red,210.59855100000277,None,None,210.59855100000277,None,,,,,,,,,,,,,,,,,,,,,,,,,,,,,,,,,,,29Aloud,001,2022_Aug_29_1101,ProdSingRedoBetween,2021.2.3,59.88888216553408,
23,0,23,0,,,,,,,,,,,,,,,,,,,,,,,,,,215.1160525000014,None,hunger,37,24,aloud,blue,213.115564000007,None,None,213.115564000007,None,,,,,,,,,,,,,,,,,,,,,,,,,,,,,,,,,,,29Aloud,001,2022_Aug_29_1101,ProdSingRedoBetween,2021.2.3,59.88888216553408,
24,0,24,0,,,,,,,,,,,,,,,,,,,,,,,,,,217.63537630002247,None,straight,21,25,aloud,yellow,215.62311420001788,None,None,215.62311420001788,None,,,,,,,,,,,,,,,,,,,,,,,,,,,,,,,,,,,29Aloud,001,2022_Aug_29_1101,ProdSingRedoBetween,2021.2.3,59.88888216553408,
25,0,25,0,,,,,,,,,,,,,,,,,,,,,,,,,,220.13776850001886,None,period,18,26,aloud,yellow,218.13593050002237,None,None,218.13593050002237,None,,,,,,,,,,,,,,,,,,,,,,,,,,,,,,,,,,,29Aloud,001,2022_Aug_29_1101,ProdSingRedoBetween,2021.2.3,59.88888216553408,
26,0,26,0,,,,,,,,,,,,,,,,,,,,,,,,,,222.6405536000093,None,platform,68,27,aloud,red,220.63840840000194,None,None,220.63840840000194,None,,,,,,,,,,,,,,,,,,,,,,,,,,,,,,,,,,,29Aloud,001,2022_Aug_29_1101,ProdSingRedoBetween,2021.2.3,59.88888216553408,
27,0,27,0,,,,,,,,,,,,,,,,,,,,,,,,,,225.1595674000273,None,scale,54,28,aloud,blue,223.14616060000844,None,None,223.14616060000844,None,,,,,,,,,,,,,,,,,,,,,,,,,,,,,,,,,,,29Aloud,001,2022_Aug_29_1101,ProdSingRedoBetween,2021.2.3,59.88888216553408,
28,0,28,0,,,,,,,,,,,,,,,,,,,,,,,,,,227.67891180000152,None,direction,74,29,aloud,red,225.6692184000276,None,None,225.6692184000276,None,,,,,,,,,,,,,,,,,,,,,,,,,,,,,,,,,,,29Aloud,001,2022_Aug_29_1101,ProdSingRedoBetween,2021.2.3,59.88888216553408,
29,0,29,0,,,,,,,,,,,,,,,,,,,,,,,,,,230.18132870001136,None,junior,86,30,aloud,red,228.18096700002206,None,None,228.18096700002206,None,,,,,,,,,,,,,,,,,,,,,,,,,,,,,,,,,,,29Aloud,001,2022_Aug_29_1101,ProdSingRedoBetween,2021.2.3,59.88888216553408,
30,0,30,0,,,,,,,,,,,,,,,,,,,,,,,,,,232.68384480001987,None,signal,20,31,aloud,yellow,230.68165430001682,None,None,230.68165430001682,None,,,,,,,,,,,,,,,,,,,,,,,,,,,,,,,,,,,29Aloud,001,2022_Aug_29_1101,ProdSingRedoBetween,2021.2.3,59.88888216553408,
31,0,31,0,,,,,,,,,,,,,,,,,,,,,,,,,,235.20295460001216,None,universal,87,32,aloud,red,233.1940028000099,None,None,233.1940028000099,None,,,,,,,,,,,,,,,,,,,,,,,,,,,,,,,,,,,29Aloud,001,2022_Aug_29_1101,ProdSingRedoBetween,2021.2.3,59.88888216553408,
32,0,32,0,,,,,,,,,,,,,,,,,,,,,,,,,,237.70546660001855,None,symbol,29,33,aloud,blue,235.7034963000042,None,None,235.7034963000042,None,,,,,,,,,,,,,,,,,,,,,,,,,,,,,,,,,,,29Aloud,001,2022_Aug_29_1101,ProdSingRedoBetween,2021.2.3,59.88888216553408,
33,0,33,0,,,,,,,,,,,,,,,,,,,,,,,,,,240.22474640002474,None,report,45,34,aloud,blue,238.21164320001844,None,None,238.21164320001844,None,,,,,,,,,,,,,,,,,,,,,,,,,,,,,,,,,,,29Aloud,001,2022_Aug_29_1101,ProdSingRedoBetween,2021.2.3,59.88888216553408,
34,0,34,0,,,,,,,,,,,,,,,,,,,,,,,,,,242.7270212000003,None,fight,72,35,aloud,red,240.72799240000313,None,None,240.72799240000313,None,,,,,,,,,,,,,,,,,,,,,,,,,,,,,,,,,,,29Aloud,001,2022_Aug_29_1101,ProdSingRedoBetween,2021.2.3,59.88888216553408,
35,0,35,0,,,,,,,,,,,,,,,,,,,,,,,,,,245.2294975000259,None,master,19,36,aloud,yellow,243.23050689999945,None,None,243.23050689999945,None,,,,,,,,,,,,,,,,,,,,,,,,,,,,,,,,,,,29Aloud,001,2022_Aug_29_1101,ProdSingRedoBetween,2021.2.3,59.88888216553408,
36,0,36,0,,,,,,,,,,,,,,,,,,,,,,,,,,247.7487589000084,None,general,36,37,aloud,blue,245.73476810002467,None,None,245.73476810002467,None,,,,,,,,,,,,,,,,,,,,,,,,,,,,,,,,,,,29Aloud,001,2022_Aug_29_1101,ProdSingRedoBetween,2021.2.3,59.88888216553408,
37,0,37,0,,,,,,,,,,,,,,,,,,,,,,,,,,250.2511896000069,None,country,13,38,aloud,yellow,248.25214220001362,None,None,248.25214220001362,None,,,,,,,,,,,,,,,,,,,,,,,,,,,,,,,,,,,29Aloud,001,2022_Aug_29_1101,ProdSingRedoBetween,2021.2.3,59.88888216553408,
38,0,38,0,,,,,,,,,,,,,,,,,,,,,,,,,,252.75385000000824,None,military,33,39,aloud,blue,250.75448600001982,None,None,250.75448600001982,None,,,,,,,,,,,,,,,,,,,,,,,,,,,,,,,,,,,29Aloud,001,2022_Aug_29_1101,ProdSingRedoBetween,2021.2.3,59.88888216553408,
39,0,39,0,,,,,,,,,,,,,,,,,,,,,,,,,,255.2730362000002,None,crisis,0,40,aloud,yellow,253.2589843000169,None,None,253.2589843000169,None,,,,,,,,,,,,,,,,,,,,,,,,,,,,,,,,,,,29Aloud,001,2022_Aug_29_1101,ProdSingRedoBetween,2021.2.3,59.88888216553408,
40,0,40,0,,,,,,,,,,,,,,,,,,,,,,,,,,257.7755938000046,None,society,51,41,aloud,blue,255.77525470001274,None,None,255.77525470001274,None,,,,,,,,,,,,,,,,,,,,,,,,,,,,,,,,,,,29Aloud,001,2022_Aug_29_1101,ProdSingRedoBetween,2021.2.3,59.88888216553408,
41,0,41,0,,,,,,,,,,,,,,,,,,,,,,,,,,260.2943433000182,None,still,50,42,aloud,blue,258.2838813000126,None,None,258.2838813000126,None,,,,,,,,,,,,,,,,,,,,,,,,,,,,,,,,,,,29Aloud,001,2022_Aug_29_1101,ProdSingRedoBetween,2021.2.3,59.88888216553408,
42,0,42,0,,,,,,,,,,,,,,,,,,,,,,,,,,262.79726550000487,None,touch,10,43,aloud,yellow,260.79662000000826,None,None,260.79662000000826,None,,,,,,,,,,,,,,,,,,,,,,,,,,,,,,,,,,,29Aloud,001,2022_Aug_29_1101,ProdSingRedoBetween,2021.2.3,59.88888216553408,
43,0,43,0,,,,,,,,,,,,,,,,,,,,,,,,,,265.29971620001015,None,conference,41,44,aloud,blue,263.29873100001714,None,None,263.29873100001714,None,,,,,,,,,,,,,,,,,,,,,,,,,,,,,,,,,,,29Aloud,001,2022_Aug_29_1101,ProdSingRedoBetween,2021.2.3,59.88888216553408,
44,0,44,0,,,,,,,,,,,,,,,,,,,,,,,,,,267.80232290001004,None,debate,55,45,aloud,blue,265.8008234000008,None,None,265.8008234000008,None,,,,,,,,,,,,,,,,,,,,,,,,,,,,,,,,,,,29Aloud,001,2022_Aug_29_1101,ProdSingRedoBetween,2021.2.3,59.88888216553408,
45,0,45,0,,,,,,,,,,,,,,,,,,,,,,,,,,270.30468170001404,None,whole,49,46,aloud,blue,268.305139700009,None,None,268.305139700009,None,,,,,,,,,,,,,,,,,,,,,,,,,,,,,,,,,,,29Aloud,001,2022_Aug_29_1101,ProdSingRedoBetween,2021.2.3,59.88888216553408,
46,0,46,0,,,,,,,,,,,,,,,,,,,,,,,,,,272.8238982000039,None,style,30,47,aloud,blue,270.80891780002275,None,None,270.80891780002275,None,,,,,,,,,,,,,,,,,,,,,,,,,,,,,,,,,,,29Aloud,001,2022_Aug_29_1101,ProdSingRedoBetween,2021.2.3,59.88888216553408,
47,0,47,0,,,,,,,,,,,,,,,,,,,,,,,,,,275.32629780002753,None,sleep,32,48,aloud,blue,273.32584270002553,None,None,273.32584270002553,None,,,,,,,,,,,,,,,,,,,,,,,,,,,,,,,,,,,29Aloud,001,2022_Aug_29_1101,ProdSingRedoBetween,2021.2.3,59.88888216553408,
48,0,48,0,,,,,,,,,,,,,,,,,,,,,,,,,,277.84565260002273,None,carry,15,49,aloud,yellow,275.8323736000166,None,None,275.8323736000166,None,,,,,,,,,,,,,,,,,,,,,,,,,,,,,,,,,,,29Aloud,001,2022_Aug_29_1101,ProdSingRedoBetween,2021.2.3,59.88888216553408,
49,0,49,0,,,,,,,,,,,,,,,,,,,,,,,,,,280.34807400000864,None,bucket,9,50,aloud,yellow,278.34580260000075,None,None,278.34580260000075,None,,,,,,,,,,,,,,,,,,,,,,,,,,,,,,,,,,,29Aloud,001,2022_Aug_29_1101,ProdSingRedoBetween,2021.2.3,59.88888216553408,
50,0,50,0,,,,,,,,,,,,,,,,,,,,,,,,,,282.8673223000078,None,foundation,8,51,aloud,yellow,280.8561899000197,None,None,280.8561899000197,None,,,,,,,,,,,,,,,,,,,,,,,,,,,,,,,,,,,29Aloud,001,2022_Aug_29_1101,ProdSingRedoBetween,2021.2.3,59.88888216553408,
51,0,51,0,,,,,,,,,,,,,,,,,,,,,,,,,,285.3698169000272,None,level,34,52,aloud,blue,283.37023100000806,None,None,283.37023100000806,None,,,,,,,,,,,,,,,,,,,,,,,,,,,,,,,,,,,29Aloud,001,2022_Aug_29_1101,ProdSingRedoBetween,2021.2.3,59.88888216553408,
52,0,52,0,,,,,,,,,,,,,,,,,,,,,,,,,,287.8722746000276,None,little,44,53,aloud,blue,285.87022219999926,None,None,285.87022219999926,None,,,,,,,,,,,,,,,,,,,,,,,,,,,,,,,,,,,29Aloud,001,2022_Aug_29_1101,ProdSingRedoBetween,2021.2.3,59.88888216553408,
53,0,53,0,,,,,,,,,,,,,,,,,,,,,,,,,,290.3914596000104,None,instrument,57,54,aloud,blue,288.3761120000272,None,None,288.3761120000272,None,,,,,,,,,,,,,,,,,,,,,,,,,,,,,,,,,,,29Aloud,001,2022_Aug_29_1101,ProdSingRedoBetween,2021.2.3,59.88888216553408,
54,0,54,0,,,,,,,,,,,,,,,,,,,,,,,,,,292.9105953000253,None,trail,27,55,aloud,yellow,290.8951584000024,None,None,290.8951584000024,None,,,,,,,,,,,,,,,,,,,,,,,,,,,,,,,,,,,29Aloud,001,2022_Aug_29_1101,ProdSingRedoBetween,2021.2.3,59.88888216553408,
55,0,55,0,,,,,,,,,,,,,,,,,,,,,,,,,,295.4131205000158,None,executive,78,56,aloud,red,293.4109420000168,None,None,293.4109420000168,None,,,,,,,,,,,,,,,,,,,,,,,,,,,,,,,,,,,29Aloud,001,2022_Aug_29_1101,ProdSingRedoBetween,2021.2.3,59.88888216553408,
56,0,56,0,,,,,,,,,,,,,,,,,,,,,,,,,,297.91529360000277,None,smell,83,57,aloud,red,295.91491050002514,None,None,295.91491050002514,None,,,,,,,,,,,,,,,,,,,,,,,,,,,,,,,,,,,29Aloud,001,2022_Aug_29_1101,ProdSingRedoBetween,2021.2.3,59.88888216553408,
57,0,57,0,,,,,,,,,,,,,,,,,,,,,,,,,,300.4180645000015,None,harmony,17,58,aloud,yellow,298.4161647000001,None,None,298.4161647000001,None,,,,,,,,,,,,,,,,,,,,,,,,,,,,,,,,,,,29Aloud,001,2022_Aug_29_1101,ProdSingRedoBetween,2021.2.3,59.88888216553408,
58,0,58,0,,,,,,,,,,,,,,,,,,,,,,,,,,302.9205022000242,None,concern,71,59,aloud,red,300.91993470001034,None,None,300.91993470001034,None,,,,,,,,,,,,,,,,,,,,,,,,,,,,,,,,,,,29Aloud,001,2022_Aug_29_1101,ProdSingRedoBetween,2021.2.3,59.88888216553408,
59,0,59,0,,,,,,,,,,,,,,,,,,,,,,,,,,305.42303790000733,None,figure,11,60,aloud,yellow,303.422040800011,None,None,303.422040800011,None,,,,,,,,,,,,,,,,,,,,,,,,,,,,,,,,,,,29Aloud,001,2022_Aug_29_1101,ProdSingRedoBetween,2021.2.3,59.88888216553408,
60,0,60,0,,,,,,,,,,,,,,,,,,,,,,,,,,307.92557600000873,None,phrase,24,61,aloud,yellow,305.92571670000325,None,None,305.92571670000325,None,,,,,,,,,,,,,,,,,,,,,,,,,,,,,,,,,,,29Aloud,001,2022_Aug_29_1101,ProdSingRedoBetween,2021.2.3,59.88888216553408,
61,0,61,0,,,,,,,,,,,,,,,,,,,,,,,,,,310.4448457000253,None,vision,22,62,aloud,yellow,308.4304158000159,None,None,308.4304158000159,None,,,,,,,,,,,,,,,,,,,,,,,,,,,,,,,,,,,29Aloud,001,2022_Aug_29_1101,ProdSingRedoBetween,2021.2.3,59.88888216553408,
62,0,62,0,,,,,,,,,,,,,,,,,,,,,,,,,,312.9639098000189,None,committee,39,63,aloud,blue,310.9483583000256,None,None,310.9483583000256,None,,,,,,,,,,,,,,,,,,,,,,,,,,,,,,,,,,,29Aloud,001,2022_Aug_29_1101,ProdSingRedoBetween,2021.2.3,59.88888216553408,
63,0,63,0,,,,,,,,,,,,,,,,,,,,,,,,,,315.46637450001435,None,short,38,64,aloud,blue,313.4643925000273,None,None,313.4643925000273,None,,,,,,,,,,,,,,,,,,,,,,,,,,,,,,,,,,,29Aloud,001,2022_Aug_29_1101,ProdSingRedoBetween,2021.2.3,59.88888216553408,
64,0,64,0,,,,,,,,,,,,,,,,,,,,,,,,,,317.96883710002294,None,medicine,52,65,aloud,blue,315.9671932000201,None,None,315.9671932000201,None,,,,,,,,,,,,,,,,,,,,,,,,,,,,,,,,,,,29Aloud,001,2022_Aug_29_1101,ProdSingRedoBetween,2021.2.3,59.88888216553408,
65,0,65,0,,,,,,,,,,,,,,,,,,,,,,,,,,320.4881526000099,None,agency,73,66,aloud,red,318.4807575000159,None,None,318.4807575000159,None,,,,,,,,,,,,,,,,,,,,,,,,,,,,,,,,,,,29Aloud,001,2022_Aug_29_1101,ProdSingRedoBetween,2021.2.3,59.88888216553408,
66,0,66,0,,,,,,,,,,,,,,,,,,,,,,,,,,322.99061660000007,None,employment,48,67,aloud,blue,320.98981560001266,None,None,320.98981560001266,None,,,,,,,,,,,,,,,,,,,,,,,,,,,,,,,,,,,29Aloud,001,2022_Aug_29_1101,ProdSingRedoBetween,2021.2.3,59.88888216553408,
67,0,67,0,,,,,,,,,,,,,,,,,,,,,,,,,,325.4929751000018,None,answer,43,68,aloud,blue,323.4911097000004,None,None,323.4911097000004,None,,,,,,,,,,,,,,,,,,,,,,,,,,,,,,,,,,,29Aloud,001,2022_Aug_29_1101,ProdSingRedoBetween,2021.2.3,59.88888216553408,
68,0,68,0,,,,,,,,,,,,,,,,,,,,,,,,,,328.01228760002414,None,clear,58,69,aloud,blue,325.9969224000233,None,None,325.9969224000233,None,,,,,,,,,,,,,,,,,,,,,,,,,,,,,,,,,,,29Aloud,001,2022_Aug_29_1101,ProdSingRedoBetween,2021.2.3,59.88888216553408,
69,0,69,0,,,,,,,,,,,,,,,,,,,,,,,,,,330.51462150001316,None,bureau,63,70,aloud,red,328.51464660000056,None,None,328.51464660000056,None,,,,,,,,,,,,,,,,,,,,,,,,,,,,,,,,,,,29Aloud,001,2022_Aug_29_1101,ProdSingRedoBetween,2021.2.3,59.88888216553408,
70,0,70,0,,,,,,,,,,,,,,,,,,,,,,,,,,333.01734900000156,None,material,35,71,aloud,blue,331.0152397000056,None,None,331.0152397000056,None,,,,,,,,,,,,,,,,,,,,,,,,,,,,,,,,,,,29Aloud,001,2022_Aug_29_1101,ProdSingRedoBetween,2021.2.3,59.88888216553408,
71,0,71,0,,,,,,,,,,,,,,,,,,,,,,,,,,335.5364590000245,None,personnel,26,72,aloud,yellow,333.5216021000233,None,None,333.5216021000233,None,,,,,,,,,,,,,,,,,,,,,,,,,,,,,,,,,,,29Aloud,001,2022_Aug_29_1101,ProdSingRedoBetween,2021.2.3,59.88888216553408,
72,0,72,0,,,,,,,,,,,,,,,,,,,,,,,,,,338.0555667000008,None,break,62,73,aloud,red,336.0468191000109,None,None,336.0468191000109,None,,,,,,,,,,,,,,,,,,,,,,,,,,,,,,,,,,,29Aloud,001,2022_Aug_29_1101,ProdSingRedoBetween,2021.2.3,59.88888216553408,
73,0,73,0,,,,,,,,,,,,,,,,,,,,,,,,,,340.5582489000226,None,sweet,47,74,aloud,blue,338.55823040002724,None,None,338.55823040002724,None,,,,,,,,,,,,,,,,,,,,,,,,,,,,,,,,,,,29Aloud,001,2022_Aug_29_1101,ProdSingRedoBetween,2021.2.3,59.88888216553408,
74,0,74,0,,,,,,,,,,,,,,,,,,,,,,,,,,343.0770526000124,None,skill,25,75,aloud,yellow,341.0671382000146,None,None,341.0671382000146,None,,,,,,,,,,,,,,,,,,,,,,,,,,,,,,,,,,,29Aloud,001,2022_Aug_29_1101,ProdSingRedoBetween,2021.2.3,59.88888216553408,
75,0,75,0,,,,,,,,,,,,,,,,,,,,,,,,,,345.57982440001797,None,owner,40,76,aloud,blue,343.5797684999998,None,None,343.5797684999998,None,,,,,,,,,,,,,,,,,,,,,,,,,,,,,,,,,,,29Aloud,001,2022_Aug_29_1101,ProdSingRedoBetween,2021.2.3,59.88888216553408,
76,0,76,0,,,,,,,,,,,,,,,,,,,,,,,,,,348.08234390002326,None,afternoon,61,77,aloud,red,346.08024460001616,None,None,346.08024460001616,None,,,,,,,,,,,,,,,,,,,,,,,,,,,,,,,,,,,29Aloud,001,2022_Aug_29_1101,ProdSingRedoBetween,2021.2.3,59.88888216553408,
77,0,77,0,,,,,,,,,,,,,,,,,,,,,,,,,,350.60146040000836,None,emergency,60,78,aloud,red,348.58766509999987,None,None,348.58766509999987,None,,,,,,,,,,,,,,,,,,,,,,,,,,,,,,,,,,,29Aloud,001,2022_Aug_29_1101,ProdSingRedoBetween,2021.2.3,59.88888216553408,
78,0,78,0,,,,,,,,,,,,,,,,,,,,,,,,,,353.104023300024,None,distance,81,79,aloud,red,351.10199010002543,None,None,351.10199010002543,None,,,,,,,,,,,,,,,,,,,,,,,,,,,,,,,,,,,29Aloud,001,2022_Aug_29_1101,ProdSingRedoBetween,2021.2.3,59.88888216553408,
79,0,79,0,,,,,,,,,,,,,,,,,,,,,,,,,,355.62329720001435,None,people,70,80,aloud,red,353.60946410000906,None,None,353.60946410000906,None,,,,,,,,,,,,,,,,,,,,,,,,,,,,,,,,,,,29Aloud,001,2022_Aug_29_1101,ProdSingRedoBetween,2021.2.3,59.88888216553408,
80,0,80,0,,,,,,,,,,,,,,,,,,,,,,,,,,358.12562240002444,None,rural,85,81,aloud,red,356.12367990001803,None,None,356.12367990001803,None,,,,,,,,,,,,,,,,,,,,,,,,,,,,,,,,,,,29Aloud,001,2022_Aug_29_1101,ProdSingRedoBetween,2021.2.3,59.88888216553408,
81,0,81,0,,,,,,,,,,,,,,,,,,,,,,,,,,360.64454850001493,None,track,84,82,aloud,red,358.6307566000032,None,None,358.6307566000032,None,,,,,,,,,,,,,,,,,,,,,,,,,,,,,,,,,,,29Aloud,001,2022_Aug_29_1101,ProdSingRedoBetween,2021.2.3,59.88888216553408,
82,0,82,0,,,,,,,,,,,,,,,,,,,,,,,,,,363.1640420000185,None,beginning,66,83,aloud,red,361.1485508000187,None,None,361.1485508000187,None,,,,,,,,,,,,,,,,,,,,,,,,,,,,,,,,,,,29Aloud,001,2022_Aug_29_1101,ProdSingRedoBetween,2021.2.3,59.88888216553408,
83,0,83,0,,,,,,,,,,,,,,,,,,,,,,,,,,365.66643330000807,None,property,42,84,aloud,blue,363.6646002000198,None,None,363.6646002000198,None,,,,,,,,,,,,,,,,,,,,,,,,,,,,,,,,,,,29Aloud,001,2022_Aug_29_1101,ProdSingRedoBetween,2021.2.3,59.88888216553408,
84,0,84,0,,,,,,,,,,,,,,,,,,,,,,,,,,368.1690275000001,None,union,23,85,aloud,yellow,366.1670573000156,None,None,366.1670573000156,None,,,,,,,,,,,,,,,,,,,,,,,,,,,,,,,,,,,29Aloud,001,2022_Aug_29_1101,ProdSingRedoBetween,2021.2.3,59.88888216553408,
85,0,85,0,,,,,,,,,,,,,,,,,,,,,,,,,,370.6715371000173,None,grade,7,86,aloud,yellow,368.67115790001117,None,None,368.67115790001117,None,,,,,,,,,,,,,,,,,,,,,,,,,,,,,,,,,,,29Aloud,001,2022_Aug_29_1101,ProdSingRedoBetween,2021.2.3,59.88888216553408,
86,0,86,0,,,,,,,,,,,,,,,,,,,,,,,,,,373.1908885000157,None,weight,12,87,aloud,yellow,371.17770860000746,None,None,371.17770860000746,None,,,,,,,,,,,,,,,,,,,,,,,,,,,,,,,,,,,29Aloud,001,2022_Aug_29_1101,ProdSingRedoBetween,2021.2.3,59.88888216553408,
87,0,87,0,,,,,,,,,,,,,,,,,,,,,,,,,,375.6932458000083,None,literature,28,88,aloud,yellow,373.69195460001356,None,None,373.69195460001356,None,,,,,,,,,,,,,,,,,,,,,,,,,,,,,,,,,,,29Aloud,001,2022_Aug_29_1101,ProdSingRedoBetween,2021.2.3,59.88888216553408,
88,0,88,0,,,,,,,,,,,,,,,,,,,,,,,,,,378.2125023000117,None,quiet,65,89,aloud,red,376.2117768000171,None,None,376.2117768000171,None,,,,,,,,,,,,,,,,,,,,,,,,,,,,,,,,,,,29Aloud,001,2022_Aug_29_1101,ProdSingRedoBetween,2021.2.3,59.88888216553408,
89,0,89,0,,,,,,,,,,,,,,,,,,,,,,,,,,380.73162669999874,None,captain,1,90,aloud,yellow,378.717744100024,None,None,378.717744100024,None,,,,,,,,,,,,,,,,,,,,,,,,,,,,,,,,,,,29Aloud,001,2022_Aug_29_1101,ProdSingRedoBetween,2021.2.3,59.88888216553408,
,,,,,,,,,,,,,,,,,,,,,,,,,,,,,,,,,,,,,,,,,381.23234570000204,None,k,77.30436139999074,381.23234570000204,None,,,,,,,,,,,,,,,,,,,,,,,,,,,,,29Aloud,001,2022_Aug_29_1101,ProdSingRedoBetween,2021.2.3,59.88888216553408,
,,,,0,0,0,0,,,,,,,,,,,,,,,,,,,,,,472.17269530001795,None,,,,,,,,,,,,,,,,,direction,74,1,aloud,old,red,459.07020550000016,None,459.07020550000016,None,5,7.370394700003089,459.07020550000016,None,7.370394700003089,466.47091150001506,None,466.9879516000219,None,466.9879516000219,None,f,5.1564891999878455,466.9879516000219,None,5.1564891999878455,,,29Aloud,001,2022_Aug_29_1101,ProdSingRedoBetween,2021.2.3,59.88888216553408,
,,,,1,0,1,0,,,,,,,,,,,,,,,,,,,,,,504.47168870002497,None,,,,,,,,,,,,,,,,,property,42,2,aloud,old,blue,472.6853500000143,None,472.6853500000143,None,5,29.7154395999969,472.6853500000143,None,29.7154395999969,502.42730630000005,None,502.93688390002353,None,502.93688390002353,None,r,1.519482000003336,502.93688390002353,None,1.519482000003336,,,29Aloud,001,2022_Aug_29_1101,ProdSingRedoBetween,2021.2.3,59.88888216553408,
,,,,2,0,2,0,,,,,,,,,,,,,,,,,,,,,,514.9652070000011,None,,,,,,,,,,,,,,,,,hunger,37,3,aloud,old,blue,504.97224420000566,None,504.97224420000566,None,3,5.668400400027167,504.97224420000566,None,5.668400400027167,510.6666585000057,None,511.18075150001096,None,511.18075150001096,None,f,3.7635638999927323,511.18075150001096,None,3.7635638999927323,,,29Aloud,001,2022_Aug_29_1101,ProdSingRedoBetween,2021.2.3,59.88888216553408,
,,,,3,0,3,0,,,,,,,,,,,,,,,,,,,,,,521.2437130000035,None,,,,,,,,,,,,,,,,,strength,112,4,aloud,new,null,515.4763555000245,None,515.4763555000245,None,1,2.0601222999976017,515.4763555000245,None,2.0601222999976017,517.5591639000049,None,518.068496700027,None,518.068496700027,None,r,3.1484142999979667,518.068496700027,None,3.1484142999979667,,,29Aloud,001,2022_Aug_29_1101,ProdSingRedoBetween,2021.2.3,59.88888216553408,
,,,,4,0,4,0,,,,,,,,,,,,,,,,,,,,,,529.3298590000195,None,,,,,,,,,,,,,,,,,pressure,93,5,aloud,new,null,521.7640405000129,None,521.7640405000129,None,3,3.3004133000213187,521.7640405000129,None,3.3004133000213187,525.0988931000174,None,525.6142893000215,None,525.6142893000215,None,n,3.698098900000332,525.6142893000215,None,3.698098900000332,,,29Aloud,001,2022_Aug_29_1101,ProdSingRedoBetween,2021.2.3,59.88888216553408,
,,,,5,0,5,0,,,,,,,,,,,,,,,,,,,,,,540.8246306000219,None,,,,,,,,,,,,,,,,,vision,22,6,aloud,old,yellow,529.8415501000127,None,529.8415501000127,None,3,6.3029341000074055,529.8415501000127,None,6.3029341000074055,536.1700585000217,None,536.6797208000207,None,536.6797208000207,None,r,4.120878899993841,536.6797208000207,None,4.120878899993841,,,29Aloud,001,2022_Aug_29_1101,ProdSingRedoBetween,2021.2.3,59.88888216553408,
,,,,6,0,6,0,,,,,,,,,,,,,,,,,,,,,,546.8499316000089,None,,,,,,,,,,,,,,,,,sweet,47,7,aloud,old,blue,541.3355271000182,None,541.3355271000182,None,5,3.960792700003367,541.3355271000182,None,3.960792700003367,545.3147166000272,None,545.8297257000231,None,545.8297257000231,None,r,1.002650700014783,545.8297257000231,None,1.002650700014783,,,29Aloud,001,2022_Aug_29_1101,ProdSingRedoBetween,2021.2.3,59.88888216553408,
,,,,7,0,7,0,,,,,,,,,,,,,,,,,,,,,,554.2213723000023,None,,,,,,,,,,,,,,,,,mayor,124,8,aloud,new,null,547.3645893000066,None,547.3645893000066,None,2,5.171785199985607,547.3645893000066,None,5.171785199985607,552.5547605000029,None,553.070163700002,None,553.070163700002,None,f,1.1302025000040885,553.070163700002,None,1.1302025000040885,,,29Aloud,001,2022_Aug_29_1101,ProdSingRedoBetween,2021.2.3,59.88888216553408,
,,,,8,0,8,0,,,,,,,,,,,,,,,,,,,,,,559.6934494000161,None,,,,,,,,,,,,,,,,,rural,85,9,aloud,old,red,554.7326531000144,None,554.7326531000144,None,3,4.187700500013307,554.7326531000144,None,4.187700500013307,558.9424861000152,None,559.4466907000169,None,559.4466907000169,None,r,0.22566369999549352,559.4466907000169,None,0.22566369999549352,,,29Aloud,001,2022_Aug_29_1101,ProdSingRedoBetween,2021.2.3,59.88888216553408,
,,,,9,0,9,0,,,,,,,,,,,,,,,,,,,,,,568.1018550000153,None,,,,,,,,,,,,,,,,,distance,81,10,aloud,old,red,560.1941535000224,None,560.1941535000224,None,4,5.014248499996029,560.1941535000224,None,5.014248499996029,565.2351323000039,None,565.7496088000189,None,565.7496088000189,None,f,2.3227345000195783,565.7496088000189,None,2.3227345000195783,,,29Aloud,001,2022_Aug_29_1101,ProdSingRedoBetween,2021.2.3,59.88888216553408,
,,,,10,0,10,0,,,,,,,,,,,,,,,,,,,,,,578.349472300004,None,,,,,,,,,,,,,,,,,debate,55,11,aloud,old,blue,568.6094421000162,None,568.6094421000162,None,5,7.84689710001112,568.6094421000162,None,7.84689710001112,576.4767319000093,None,576.9775565000018,None,576.9775565000018,None,r,1.3510296999884304,576.9775565000018,None,1.3510296999884304,,,29Aloud,001,2022_Aug_29_1101,ProdSingRedoBetween,2021.2.3,59.88888216553408,
,,,,11,0,11,0,,,,,,,,,,,,,,,,,,,,,,588.3587867000024,None,,,,,,,,,,,,,,,,,individual,164,12,aloud,new,null,578.869557500002,None,578.869557500002,None,3,4.427119400002994,578.869557500002,None,4.427119400002994,583.3179076000233,None,583.8252844000235,None,583.8252844000235,None,f,4.511338899988914,583.8252844000235,None,4.511338899988914,,,29Aloud,001,2022_Aug_29_1101,ProdSingRedoBetween,2021.2.3,59.88888216553408,
,,,,12,0,12,0,,,,,,,,,,,,,,,,,,,,,,596.4801277000224,None,,,,,,,,,,,,,,,,,balance,156,13,aloud,new,null,588.8765060000005,None,588.8765060000005,None,2,5.348051199980546,588.8765060000005,None,5.348051199980546,594.252552400023,None,594.7647277000069,None,594.7647277000069,None,n,1.699577199993655,594.7647277000069,None,1.699577199993655,,,29Aloud,001,2022_Aug_29_1101,ProdSingRedoBetween,2021.2.3,59.88888216553408,
,,,,13,0,13,0,,,,,,,,,,,,,,,,,,,,,,600.9511091000168,None,,,,,,,,,,,,,,,,,break,62,14,aloud,old,red,596.9879968000168,None,596.9879968000168,None,3,2.788420800003223,596.9879968000168,None,2.788420800003223,599.8126061000221,None,600.3190394000267,None,600.3190394000267,None,r,0.6173340999812353,600.3190394000267,None,0.6173340999812353,,,29Aloud,001,2022_Aug_29_1101,ProdSingRedoBetween,2021.2.3,59.88888216553408,
,,,,14,0,14,0,,,,,,,,,,,,,,,,,,,,,,605.9062330000161,None,,,,,,,,,,,,,,,,,society,51,15,aloud,old,blue,601.4581842000189,None,601.4581842000189,None,6,3.3340054000145756,601.4581842000189,None,3.3340054000145756,604.8249388000113,None,605.3390537000087,None,605.3390537000087,None,r,0.54128830000991,605.3390537000087,None,0.54128830000991,,,29Aloud,001,2022_Aug_29_1101,ProdSingRedoBetween,2021.2.3,59.88888216553408,
,,,,15,0,15,0,,,,,,,,,,,,,,,,,,,,,,611.1281518000178,None,,,,,,,,,,,,,,,,,report,45,16,aloud,old,blue,606.4161807000055,None,606.4161807000055,None,5,2.768130899989046,606.4161807000055,None,2.768130899989046,609.2203305000148,None,609.7354668000189,None,609.7354668000189,None,f,1.3769550000142772,609.7354668000189,None,1.3769550000142772,,,29Aloud,001,2022_Aug_29_1101,ProdSingRedoBetween,2021.2.3,59.88888216553408,
,,,,16,0,16,0,,,,,,,,,,,,,,,,,,,,,,617.1843062000116,None,,,,,,,,,,,,,,,,,story,107,17,aloud,new,null,611.6345177000039,None,611.6345177000039,None,4,3.941852400021162,611.6345177000039,None,3.941852400021162,615.603385000024,None,616.1166012000176,None,616.1166012000176,None,f,1.0438156999880448,616.1166012000176,None,1.0438156999880448,,,29Aloud,001,2022_Aug_29_1101,ProdSingRedoBetween,2021.2.3,59.88888216553408,
,,,,17,0,17,0,,,,,,,,,,,,,,,,,,,,,,629.0291261000093,None,,,,,,,,,,,,,,,,,owner,40,18,aloud,old,blue,617.6888161000097,None,617.6888161000097,None,3,6.759434799983865,617.6888161000097,None,6.759434799983865,624.4765043000225,None,625.0023621,None,625.0023621,None,f,4.005911599990213,625.0023621,None,4.005911599990213,,,29Aloud,001,2022_Aug_29_1101,ProdSingRedoBetween,2021.2.3,59.88888216553408,
,,,,18,0,18,0,,,,,,,,,,,,,,,,,,,,,,635.502440900018,None,,,,,,,,,,,,,,,,,tennis,174,19,aloud,new,null,629.537334600027,None,629.537334600027,None,2,4.127267500007292,629.537334600027,None,4.127267500007292,633.6883075000078,None,634.2055137999996,None,634.2055137999996,None,n,1.2747741999919526,634.2055137999996,None,1.2747741999919526,,,29Aloud,001,2022_Aug_29_1101,ProdSingRedoBetween,2021.2.3,59.88888216553408,
,,,,19,0,19,0,,,,,,,,,,,,,,,,,,,,,,642.5595285000163,None,,,,,,,,,,,,,,,,,threat,119,20,aloud,new,null,636.0096211000055,None,636.0096211000055,None,1,5.622736999997869,636.0096211000055,None,5.622736999997869,641.6604735000001,None,642.1757007999986,None,642.1757007999986,None,f,0.3526936999987811,642.1757007999986,None,0.3526936999987811,,,29Aloud,001,2022_Aug_29_1101,ProdSingRedoBetween,2021.2.3,59.88888216553408,
,,,,20,0,20,0,,,,,,,,,,,,,,,,,,,,,,648.8157506000134,None,,,,,,,,,,,,,,,,,death,146,21,aloud,new,null,643.0660957000218,None,643.0660957000218,None,1,3.4782551000243984,643.0660957000218,None,3.4782551000243984,646.5710139000148,None,647.0808092000079,None,647.0808092000079,None,f,1.711470600013854,647.0808092000079,None,1.711470600013854,,,29Aloud,001,2022_Aug_29_1101,ProdSingRedoBetween,2021.2.3,59.88888216553408,
,,,,21,0,21,0,,,,,,,,,,,,,,,,,,,,,,652.9529684000008,None,,,,,,,,,,,,,,,,,master,19,22,aloud,old,yellow,649.3263137000031,None,649.3263137000031,None,6,2.1859551000234205,649.3263137000031,None,2.1859551000234205,651.5367329000146,None,652.0387600000249,None,652.0387600000249,None,r,0.8974667000002228,652.0387600000249,None,0.8974667000002228,,,29Aloud,001,2022_Aug_29_1101,ProdSingRedoBetween,2021.2.3,59.88888216553408,
,,,,22,0,22,0,,,,,,,,,,,,,,,,,,,,,,660.076996400021,None,,,,,,,,,,,,,,,,,bucket,9,23,aloud,old,yellow,653.4646249000216,None,653.4646249000216,None,5,6.039699700020719,653.4646249000216,None,6.039699700020719,659.532585900015,None,660.0437048000167,None,660.0437048000167,None,r,0.004604099987773225,660.0437048000167,None,0.004604099987773225,,,29Aloud,001,2022_Aug_29_1101,ProdSingRedoBetween,2021.2.3,59.88888216553408,
,,,,23,0,23,0,,,,,,,,,,,,,,,,,,,,,,669.4196469000017,None,,,,,,,,,,,,,,,,,match,94,24,aloud,new,null,660.5858866000199,None,660.5858866000199,None,3,4.366261699993629,660.5858866000199,None,4.366261699993629,664.9851858000038,None,665.5007850000111,None,665.5007850000111,None,f,3.8915295000188053,665.5007850000111,None,3.8915295000188053,,,29Aloud,001,2022_Aug_29_1101,ProdSingRedoBetween,2021.2.3,59.88888216553408,
,,,,24,0,24,0,,,,,,,,,,,,,,,,,,,,,,673.9920461000002,None,,,,,,,,,,,,,,,,,reach,150,25,aloud,new,null,669.9209764000261,None,669.9209764000261,None,1,1.999279599986039,669.9209764000261,None,1.999279599986039,671.9389661000168,None,672.4426929000183,None,672.4426929000183,None,n,1.5176358000026084,672.4426929000183,None,1.5176358000026084,,,29Aloud,001,2022_Aug_29_1101,ProdSingRedoBetween,2021.2.3,59.88888216553408,
,,,,25,0,25,0,,,,,,,,,,,,,,,,,,,,,,677.5958459000103,None,,,,,,,,,,,,,,,,,frank,179,26,aloud,new,null,674.5011168000055,None,674.5011168000055,None,1,2.22710439999355,674.5011168000055,None,2.22710439999355,676.7465751999989,None,677.2609309000254,None,677.2609309000254,None,n,0.3073343000141904,677.2609309000254,None,0.3073343000141904,,,29Aloud,001,2022_Aug_29_1101,ProdSingRedoBetween,2021.2.3,59.88888216553408,
,,,,26,0,26,0,,,,,,,,,,,,,,,,,,,,,,684.9718008000054,None,,,,,,,,,,,,,,,,,season,137,27,aloud,new,null,678.1073418000014,None,678.1073418000014,None,3,3.453180099983001,678.1073418000014,None,3.453180099983001,681.5831206000003,None,682.0866687000089,None,682.0866687000089,None,r,2.8657608999928925,682.0866687000089,None,2.8657608999928925,,,29Aloud,001,2022_Aug_29_1101,ProdSingRedoBetween,2021.2.3,59.88888216553408,
,,,,27,0,27,0,,,,,,,,,,,,,,,,,,,,,,691.2914511999988,None,,,,,,,,,,,,,,,,,company,14,28,aloud,old,yellow,685.48570010002,None,685.48570010002,None,6,3.7945465000229888,685.48570010002,None,3.7945465000229888,689.3072856000217,None,689.8067942000052,None,689.8067942000052,None,f,1.4574093000264838,689.8067942000052,None,1.4574093000264838,,,29Aloud,001,2022_Aug_29_1101,ProdSingRedoBetween,2021.2.3,59.88888216553408,
,,,,28,0,28,0,,,,,,,,,,,,,,,,,,,,,,694.577852700022,None,,,,,,,,,,,,,,,,,personnel,26,29,aloud,old,yellow,691.8062310000241,None,691.8062310000241,None,6,1.92196690000128,691.8062310000241,None,1.92196690000128,693.7634671000123,None,694.2785991000128,None,694.2785991000128,None,r,0.27365350001491606,694.2785991000128,None,0.27365350001491606,,,29Aloud,001,2022_Aug_29_1101,ProdSingRedoBetween,2021.2.3,59.88888216553408,
,,,,29,0,29,0,,,,,,,,,,,,,,,,,,,,,,699.332630000019,None,,,,,,,,,,,,,,,,,waste,166,30,aloud,new,null,695.0784789000172,None,695.0784789000172,None,2,2.961947899981169,695.0784789000172,None,2.961947899981169,698.0718532000028,None,698.5821827000182,None,698.5821827000182,None,f,0.7221770999894943,698.5821827000182,None,0.7221770999894943,,,29Aloud,001,2022_Aug_29_1101,ProdSingRedoBetween,2021.2.3,59.88888216553408,
,,,,30,0,30,0,,,,,,,,,,,,,,,,,,,,,,712.5337266999995,None,,,,,,,,,,,,,,,,,store,77,31,aloud,old,red,699.8418668000086,None,699.8418668000086,None,3,10.462363800004823,699.8418668000086,None,10.462363800004823,710.3298900000227,None,710.8442380000197,None,710.8442380000197,None,n,1.6680410999979358,710.8442380000197,None,1.6680410999979358,,,29Aloud,001,2022_Aug_29_1101,ProdSingRedoBetween,2021.2.3,59.88888216553408,
,,,,31,0,31,0,,,,,,,,,,,,,,,,,,,,,,720.8042810000188,None,,,,,,,,,,,,,,,,,guest,102,32,aloud,new,null,713.057470300002,None,713.057470300002,None,4,6.0707829000020865,713.057470300002,None,6.0707829000020865,719.1540613000107,None,719.654114600009,None,719.654114600009,None,n,1.1301037999801338,719.654114600009,None,1.1301037999801338,,,29Aloud,001,2022_Aug_29_1101,ProdSingRedoBetween,2021.2.3,59.88888216553408,
,,,,32,0,32,0,,,,,,,,,,,,,,,,,,,,,,725.6924735000066,None,,,,,,,,,,,,,,,,,territory,135,33,aloud,new,null,721.3163884000096,None,721.3163884000096,None,2,3.2917598000203725,721.3163884000096,None,3.2917598000203725,724.6340956000204,None,725.1419268000172,None,725.1419268000172,None,f,0.5304333999811206,725.1419268000172,None,0.5304333999811206,,,29Aloud,001,2022_Aug_29_1101,ProdSingRedoBetween,2021.2.3,59.88888216553408,
,,,,33,0,33,0,,,,,,,,,,,,,,,,,,,,,,729.8466990000161,None,,,,,,,,,,,,,,,,,disease,121,34,aloud,new,null,726.1964595000027,None,726.1964595000027,None,4,2.443784599978244,726.1964595000027,None,2.443784599978244,728.6623695000017,None,729.1659075000207,None,729.1659075000207,None,f,0.658307200006675,729.1659075000207,None,0.658307200006675,,,29Aloud,001,2022_Aug_29_1101,ProdSingRedoBetween,2021.2.3,59.88888216553408,
,,,,34,0,34,0,,,,,,,,,,,,,,,,,,,,,,734.7348218000261,None,,,,,,,,,,,,,,,,,court,152,35,aloud,new,null,730.3569671000005,None,730.3569671000005,None,6,3.451189899991732,730.3569671000005,None,3.451189899991732,733.8367291000031,None,734.3558104000113,None,734.3558104000113,None,r,0.3484187000140082,734.3558104000113,None,0.3484187000140082,,,29Aloud,001,2022_Aug_29_1101,ProdSingRedoBetween,2021.2.3,59.88888216553408,
,,,,35,0,35,0,,,,,,,,,,,,,,,,,,,,,,741.9587771000224,None,,,,,,,,,,,,,,,,,worker,75,36,aloud,old,red,735.251628500002,None,735.251628500002,None,6,5.900539800000843,735.251628500002,None,5.900539800000843,741.1769128000014,None,741.6918751000194,None,741.6918751000194,None,r,0.23632590001216158,741.6918751000194,None,0.23632590001216158,,,29Aloud,001,2022_Aug_29_1101,ProdSingRedoBetween,2021.2.3,59.88888216553408,
,,,,36,0,36,0,,,,,,,,,,,,,,,,,,,,,,749.2159729000123,None,,,,,,,,,,,,,,,,,captain,1,37,aloud,old,yellow,742.4704341000179,None,742.4704341000179,None,6,5.945752800005721,742.4704341000179,None,5.945752800005721,748.4330562000105,None,748.9375907000212,None,748.9375907000212,None,r,0.26259910000953823,748.9375907000212,None,0.26259910000953823,,,29Aloud,001,2022_Aug_29_1101,ProdSingRedoBetween,2021.2.3,59.88888216553408,
,,,,37,0,37,0,,,,,,,,,,,,,,,,,,,,,,752.5023873000173,None,,,,,,,,,,,,,,,,,style,30,38,aloud,old,blue,749.7286313000077,None,749.7286313000077,None,6,2.0077723000140395,749.7286313000077,None,2.0077723000140395,751.7581710000231,None,752.2721403000178,None,752.2721403000178,None,r,0.20809639999060892,752.2721403000178,None,0.20809639999060892,,,29Aloud,001,2022_Aug_29_1101,ProdSingRedoBetween,2021.2.3,59.88888216553408,
,,,,38,0,38,0,,,,,,,,,,,,,,,,,,,,,,758.3584403000132,None,,,,,,,,,,,,,,,,,theme,170,39,aloud,new,null,753.0033235000155,None,753.0033235000155,None,4,3.772997899999609,753.0033235000155,None,3.772997899999609,756.8098246000009,None,757.3264602000127,None,757.3264602000127,None,f,1.0097765999962576,757.3264602000127,None,1.0097765999962576,,,29Aloud,001,2022_Aug_29_1101,ProdSingRedoBetween,2021.2.3,59.88888216553408,
,,,,39,0,39,0,,,,,,,,,,,,,,,,,,,,,,763.1020360000257,None,,,,,,,,,,,,,,,,,poetry,110,40,aloud,new,null,758.8717329000065,None,758.8717329000065,None,3,3.3204498999984935,758.8717329000065,None,3.3204498999984935,762.2137623000017,None,762.712875199999,None,762.712875199999,None,n,0.36780589999398217,762.712875199999,None,0.36780589999398217,,,29Aloud,001,2022_Aug_29_1101,ProdSingRedoBetween,2021.2.3,59.88888216553408,
,,,,40,0,40,0,,,,,,,,,,,,,,,,,,,,,,770.4037985000177,None,,,,,,,,,,,,,,,,,engineer,6,41,aloud,old,yellow,763.6154805000115,None,763.6154805000115,None,2,4.912917700014077,763.6154805000115,None,4.912917700014077,768.556810500013,None,769.0692033000232,None,769.0692033000232,None,f,1.3149670999846421,769.0692033000232,None,1.3149670999846421,,,29Aloud,001,2022_Aug_29_1101,ProdSingRedoBetween,2021.2.3,59.88888216553408,
,,,,41,0,41,0,,,,,,,,,,,,,,,,,,,,,,778.0945860000211,None,,,,,,,,,,,,,,,,,conference,41,42,aloud,old,blue,770.9066880000173,None,770.9066880000173,None,4,6.109407999989344,770.9066880000173,None,6.109407999989344,777.0450752000033,None,777.5564491000259,None,777.5564491000259,None,n,0.5157628000015393,777.5564491000259,None,0.5157628000015393,,,29Aloud,001,2022_Aug_29_1101,ProdSingRedoBetween,2021.2.3,59.88888216553408,
,,,,42,0,42,0,,,,,,,,,,,,,,,,,,,,,,780.9329338000098,None,,,,,,,,,,,,,,,,,volume,139,43,aloud,new,null,778.5992312000017,None,778.5992312000017,None,1,1.5369389999832492,778.5992312000017,None,1.5369389999832492,780.1687292999995,None,780.6815746000211,None,780.6815746000211,None,f,0.23080859999754466,780.6815746000211,None,0.23080859999754466,,,29Aloud,001,2022_Aug_29_1101,ProdSingRedoBetween,2021.2.3,59.88888216553408,
,,,,43,0,43,0,,,,,,,,,,,,,,,,,,,,,,787.6237728000269,None,,,,,,,,,,,,,,,,,trash,168,44,aloud,new,null,781.4637229000218,None,781.4637229000218,None,1,5.584668099996634,781.4637229000218,None,5.584668099996634,787.0781687000126,None,787.5877210000181,None,787.5877210000181,None,n,0.01248999999370426,787.5877210000181,None,0.01248999999370426,,,29Aloud,001,2022_Aug_29_1101,ProdSingRedoBetween,2021.2.3,59.88888216553408,
,,,,44,0,44,0,,,,,,,,,,,,,,,,,,,,,,790.4135944000154,None,,,,,,,,,,,,,,,,,motion,130,45,aloud,new,null,788.1497882000112,None,788.1497882000112,None,1,1.554390199977206,788.1497882000112,None,1.554390199977206,789.7241562000127,None,790.2236898000119,None,790.2236898000119,None,n,0.15265519998501986,790.2236898000119,None,0.15265519998501986,,,29Aloud,001,2022_Aug_29_1101,ProdSingRedoBetween,2021.2.3,59.88888216553408,
,,,,45,0,45,0,,,,,,,,,,,,,,,,,,,,,,793.8289734999998,None,,,,,,,,,,,,,,,,,produce,160,46,aloud,new,null,790.9361779000028,None,790.9361779000028,None,3,1.935970799997449,790.9361779000028,None,1.935970799997449,792.8960925000138,None,793.4101985000016,None,793.4101985000016,None,f,0.3978678999992553,793.4101985000016,None,0.3978678999992553,,,29Aloud,001,2022_Aug_29_1101,ProdSingRedoBetween,2021.2.3,59.88888216553408,
,,,,46,0,46,0,,,,,,,,,,,,,,,,,,,,,,799.0991398000042,None,,,,,,,,,,,,,,,,,afternoon,61,47,aloud,old,red,794.3511575000011,None,794.3511575000011,None,4,3.2970722999889404,794.3511575000011,None,3.2970722999889404,797.670484000002,None,798.1816070000059,None,798.1816070000059,None,f,0.8986199999926612,798.1816070000059,None,0.8986199999926612,,,29Aloud,001,2022_Aug_29_1101,ProdSingRedoBetween,2021.2.3,59.88888216553408,
,,,,47,0,47,0,,,,,,,,,,,,,,,,,,,,,,802.8528339000186,None,,,,,,,,,,,,,,,,,weight,12,48,aloud,old,yellow,799.601849300001,None,799.601849300001,None,6,2.15025139998761,799.601849300001,None,2.15025139998761,801.7698307000101,None,802.2722199000127,None,802.2722199000127,None,r,0.5599234999972396,802.2722199000127,None,0.5599234999972396,,,29Aloud,001,2022_Aug_29_1101,ProdSingRedoBetween,2021.2.3,59.88888216553408,
,,,,48,0,48,0,,,,,,,,,,,,,,,,,,,,,,810.4604185000062,None,,,,,,,,,,,,,,,,,military,33,49,aloud,old,blue,803.3606212000013,None,803.3606212000013,None,3,4.887554099987028,803.3606212000013,None,4.887554099987028,808.2852482000017,None,808.7919774000184,None,808.7919774000184,None,f,1.6481608000176493,808.7919774000184,None,1.6481608000176493,,,29Aloud,001,2022_Aug_29_1101,ProdSingRedoBetween,2021.2.3,59.88888216553408,
,,,,49,0,49,0,,,,,,,,,,,,,,,,,,,,,,814.4641761000094,None,,,,,,,,,,,,,,,,,problem,165,50,aloud,new,null,810.9785328000144,None,810.9785328000144,None,2,2.6775858999753837,810.9785328000144,None,2.6775858999753837,813.6819361000089,None,814.1976012000232,None,814.1976012000232,None,f,0.25051180002628826,814.1976012000232,None,0.25051180002628826,,,29Aloud,001,2022_Aug_29_1101,ProdSingRedoBetween,2021.2.3,59.88888216553408,
,,,,50,0,50,0,,,,,,,,,,,,,,,,,,,,,,820.9393210000126,None,,,,,,,,,,,,,,,,,fight,72,51,aloud,old,red,814.9670139000227,None,814.9670139000227,None,6,5.041315099981148,814.9670139000227,None,5.041315099981148,820.043383900018,None,820.5579613000154,None,820.5579613000154,None,r,0.3543976999935694,820.5579613000154,None,0.3543976999935694,,,29Aloud,001,2022_Aug_29_1101,ProdSingRedoBetween,2021.2.3,59.88888216553408,
,,,,51,0,51,0,,,,,,,,,,,,,,,,,,,,,,824.3589011000004,None,,,,,,,,,,,,,,,,,reading,122,52,aloud,new,null,821.4730577000009,None,821.4730577000009,None,2,2.039143800007878,821.4730577000009,None,2.039143800007878,823.5445393000264,None,824.0654305000207,None,824.0654305000207,None,f,0.26292349997675046,824.0654305000207,None,0.26292349997675046,,,29Aloud,001,2022_Aug_29_1101,ProdSingRedoBetween,2021.2.3,59.88888216553408,
,,,,52,0,52,0,,,,,,,,,,,,,,,,,,,,,,830.4807204000244,None,,,,,,,,,,,,,,,,,profession,126,53,aloud,new,null,824.865438000008,None,824.865438000008,None,1,3.7026448999822605,824.865438000008,None,3.7026448999822605,828.6001771000156,None,829.1159189000027,None,829.1159189000027,None,n,1.3482710999960545,829.1159189000027,None,1.3482710999960545,,,29Aloud,001,2022_Aug_29_1101,ProdSingRedoBetween,2021.2.3,59.88888216553408,
,,,,53,0,53,0,,,,,,,,,,,,,,,,,,,,,,833.8350343000202,None,,,,,,,,,,,,,,,,,welcome,4,54,aloud,old,yellow,830.9846479000116,None,830.9846479000116,None,6,2.199664199986728,830.9846479000116,None,2.199664199986728,833.2061744000239,None,833.7203713000054,None,833.7203713000054,None,r,0.095865799987223,833.7203713000054,None,0.095865799987223,,,29Aloud,001,2022_Aug_29_1101,ProdSingRedoBetween,2021.2.3,59.88888216553408,
,,,,54,0,54,0,,,,,,,,,,,,,,,,,,,,,,841.4246938000142,None,,,,,,,,,,,,,,,,,passage,118,55,aloud,new,null,834.3498183000193,None,834.3498183000193,None,4,5.394311300013214,834.3498183000193,None,5.394311300013214,839.774318700016,None,840.2792005000229,None,840.2792005000229,None,f,1.1290422000165563,840.2792005000229,None,1.1290422000165563,,,29Aloud,001,2022_Aug_29_1101,ProdSingRedoBetween,2021.2.3,59.88888216553408,
,,,,55,0,55,0,,,,,,,,,,,,,,,,,,,,,,844.9947218000016,None,,,,,,,,,,,,,,,,,discussion,116,56,aloud,new,null,841.9301387000014,None,841.9301387000014,None,6,2.3821652999904472,841.9301387000014,None,2.3821652999904472,844.3364845000033,None,844.8446547000203,None,844.8446547000203,None,r,0.13137529999949038,844.8446547000203,None,0.13137529999949038,,,29Aloud,001,2022_Aug_29_1101,ProdSingRedoBetween,2021.2.3,59.88888216553408,
,,,,56,0,56,0,,,,,,,,,,,,,,,,,,,,,,849.1824825000076,None,,,,,,,,,,,,,,,,,country,13,57,aloud,old,yellow,845.4961777999997,None,845.4961777999997,None,3,2.855961599998409,845.4961777999997,None,2.855961599998409,848.3829613999987,None,848.8904365000199,None,848.8904365000199,None,n,0.2696665999828838,848.8904365000199,None,0.2696665999828838,,,29Aloud,001,2022_Aug_29_1101,ProdSingRedoBetween,2021.2.3,59.88888216553408,
,,,,57,0,57,0,,,,,,,,,,,,,,,,,,,,,,854.7379313000129,None,,,,,,,,,,,,,,,,,payment,67,58,aloud,old,red,849.6911304000241,None,849.6911304000241,None,6,4.300980800006073,849.6911304000241,None,4.300980800006073,854.0216504000127,None,854.5238305000239,None,854.5238305000239,None,r,0.19620790000772104,854.5238305000239,None,0.19620790000772104,,,29Aloud,001,2022_Aug_29_1101,ProdSingRedoBetween,2021.2.3,59.88888216553408,
,,,,58,0,58,0,,,,,,,,,,,,,,,,,,,,,,863.2163794000226,None,,,,,,,,,,,,,,,,,write,155,59,aloud,new,null,855.2503541000187,None,855.2503541000187,None,4,7.2217049000028055,855.2503541000187,None,7.2217049000028055,862.4959162000159,None,863.0002163000172,None,863.0002163000172,None,r,0.19215120002627373,863.0002163000172,None,0.19215120002627373,,,29Aloud,001,2022_Aug_29_1101,ProdSingRedoBetween,2021.2.3,59.88888216553408,
,,,,59,0,59,0,,,,,,,,,,,,,,,,,,,,,,866.0525747000065,None,,,,,,,,,,,,,,,,,history,148,60,aloud,new,null,863.7413008000003,None,863.7413008000003,None,2,1.7387862000032328,863.7413008000003,None,1.7387862000032328,865.4999657000008,None,866.0040019000007,None,866.0040019000007,None,n,0.02018540000426583,866.0040019000007,None,0.02018540000426583,,,29Aloud,001,2022_Aug_29_1101,ProdSingRedoBetween,2021.2.3,59.88888216553408,
,,,,60,0,60,0,,,,,,,,,,,,,,,,,,,,,,870.3043022000056,None,,,,,,,,,,,,,,,,,rapid,98,61,aloud,new,null,866.5752680000151,None,866.5752680000151,None,1,2.368882600014331,866.5752680000151,None,2.368882600014331,868.9755349000043,None,869.4872141000233,None,869.4872141000233,None,n,0.7849965000059456,869.4872141000233,None,0.7849965000059456,,,29Aloud,001,2022_Aug_29_1101,ProdSingRedoBetween,2021.2.3,59.88888216553408,
,,,,61,0,61,0,,,,,,,,,,,,,,,,,,,,,,874.7243846000056,None,,,,,,,,,,,,,,,,,burden,88,62,aloud,old,red,870.8051676000177,None,870.8051676000177,None,5,3.170880399993621,870.8051676000177,None,3.170880399993621,874.0072556000086,None,874.5147647000267,None,874.5147647000267,None,r,0.18122939998283982,874.5147647000267,None,0.18122939998283982,,,29Aloud,001,2022_Aug_29_1101,ProdSingRedoBetween,2021.2.3,59.88888216553408,
,,,,62,0,62,0,,,,,,,,,,,,,,,,,,,,,,882.1653661000018,None,,,,,,,,,,,,,,,,,trail,27,63,aloud,old,yellow,875.224993300013,None,875.224993300013,None,4,5.719052100001136,875.224993300013,None,5.719052100001136,880.9661771000247,None,881.4818719000032,None,881.4818719000032,None,f,0.6622798999887891,881.4818719000032,None,0.6622798999887891,,,29Aloud,001,2022_Aug_29_1101,ProdSingRedoBetween,2021.2.3,59.88888216553408,
,,,,63,0,63,0,,,,,,,,,,,,,,,,,,,,,,885.2684447000211,None,,,,,,,,,,,,,,,,,business,161,64,aloud,new,null,882.6769953000185,None,882.6769953000185,None,6,1.7952850999718066,882.6769953000185,None,1.7952850999718066,884.5071906000085,None,885.0231448000122,None,885.0231448000122,None,r,0.21702109999023378,885.0231448000122,None,0.21702109999023378,,,29Aloud,001,2022_Aug_29_1101,ProdSingRedoBetween,2021.2.3,59.88888216553408,
,,,,64,0,64,0,,,,,,,,,,,,,,,,,,,,,,889.3723787000054,None,,,,,,,,,,,,,,,,,cousin,176,65,aloud,new,null,885.7814099000243,None,885.7814099000243,None,2,1.9065583999908995,885.7814099000243,None,1.9065583999908995,887.7095199000032,None,888.2215178000042,None,888.2215178000042,None,n,1.1305719999945723,888.2215178000042,None,1.1305719999945723,,,29Aloud,001,2022_Aug_29_1101,ProdSingRedoBetween,2021.2.3,59.88888216553408,
,,,,65,0,65,0,,,,,,,,,,,,,,,,,,,,,,899.1912364000164,None,,,,,,,,,,,,,,,,,beginning,66,66,aloud,old,red,889.887168700021,None,889.887168700021,None,4,6.3290865999879315,889.887168700021,None,6.3290865999879315,896.2524987000215,None,896.7650513000262,None,896.7650513000262,None,f,2.3953126999840606,896.7650513000262,None,2.3953126999840606,,,29Aloud,001,2022_Aug_29_1101,ProdSingRedoBetween,2021.2.3,59.88888216553408,
,,,,66,0,66,0,,,,,,,,,,,,,,,,,,,,,,904.7042152000067,None,,,,,,,,,,,,,,,,,smooth,96,67,aloud,new,null,899.7084547000122,None,899.7084547000122,None,2,3.979594799980987,899.7084547000122,None,3.979594799980987,903.7050478000019,None,904.2110922000138,None,904.2110922000138,None,f,0.4768798000004608,904.2110922000138,None,0.4768798000004608,,,29Aloud,001,2022_Aug_29_1101,ProdSingRedoBetween,2021.2.3,59.88888216553408,
,,,,67,0,67,0,,,,,,,,,,,,,,,,,,,,,,910.2934497000242,None,,,,,,,,,,,,,,,,,benefit,79,68,aloud,old,red,905.204968200007,None,905.204968200007,None,3,3.907138300011866,905.204968200007,None,3.907138300011866,909.1432450000138,None,909.64293490001,None,909.64293490001,None,r,0.6291206000023521,909.64293490001,None,0.6291206000023521,,,29Aloud,001,2022_Aug_29_1101,ProdSingRedoBetween,2021.2.3,59.88888216553408,
,,,,68,0,68,0,,,,,,,,,,,,,,,,,,,,,,922.240277600009,None,,,,,,,,,,,,,,,,,skill,25,69,aloud,old,yellow,910.8072069000045,None,910.8072069000045,None,5,10.408886399993207,910.8072069000045,None,10.408886399993207,921.2450481000124,None,921.755048400024,None,921.755048400024,None,r,0.46099240001058206,921.755048400024,None,0.46099240001058206,,,29Aloud,001,2022_Aug_29_1101,ProdSingRedoBetween,2021.2.3,59.88888216553408,
,,,,69,0,69,0,,,,,,,,,,,,,,,,,,,,,,929.478989300027,None,,,,,,,,,,,,,,,,,blind,90,70,aloud,new,null,922.7580005000054,None,922.7580005000054,None,5,4.682260599976871,922.7580005000054,None,4.682260599976871,927.4665289000259,None,927.9777866000077,None,927.9777866000077,None,r,1.4703784000012092,927.9777866000077,None,1.4703784000012092,,,29Aloud,001,2022_Aug_29_1101,ProdSingRedoBetween,2021.2.3,59.88888216553408,
,,,,70,0,70,0,,,,,,,,,,,,,,,,,,,,,,935.018074600026,None,,,,,,,,,,,,,,,,,signal,20,71,aloud,old,yellow,929.9834536999988,None,929.9834536999988,None,3,1.5129125000094064,929.9834536999988,None,1.5129125000094064,931.5231803000206,None,932.0358001000131,None,932.0358001000131,None,f,2.964142200013157,932.0358001000131,None,2.964142200013157,,,29Aloud,001,2022_Aug_29_1101,ProdSingRedoBetween,2021.2.3,59.88888216553408,
,,,,71,0,71,0,,,,,,,,,,,,,,,,,,,,,,940.0898662000254,None,,,,,,,,,,,,,,,,,tough,99,72,aloud,new,null,935.5186692000134,None,935.5186692000134,None,4,3.7055071000067983,935.5186692000134,None,3.7055071000067983,939.242370300024,None,939.7591704000079,None,939.7591704000079,None,r,0.312802800006466,939.7591704000079,None,0.312802800006466,,,29Aloud,001,2022_Aug_29_1101,ProdSingRedoBetween,2021.2.3,59.88888216553408,
,,,,72,0,72,0,,,,,,,,,,,,,,,,,,,,,,943.1595659000159,None,,,,,,,,,,,,,,,,,session,89,73,aloud,old,red,940.5990191000164,None,940.5990191000164,None,6,1.7211863000120502,940.5990191000164,None,1.7211863000120502,942.3463897000183,None,942.8594381000148,None,942.8594381000148,None,r,0.2685042999801226,942.8594381000148,None,0.2685042999801226,,,29Aloud,001,2022_Aug_29_1101,ProdSingRedoBetween,2021.2.3,59.88888216553408,
,,,,73,0,73,0,,,,,,,,,,,,,,,,,,,,,,946.7964496000204,None,,,,,,,,,,,,,,,,,account,2,74,aloud,old,yellow,943.6655674000212,None,943.6655674000212,None,6,2.1984588999766856,943.6655674000212,None,2.1984588999766856,945.8826196000155,None,946.4015861000225,None,946.4015861000225,None,r,0.36643029999686405,946.4015861000225,None,0.36643029999686405,,,29Aloud,001,2022_Aug_29_1101,ProdSingRedoBetween,2021.2.3,59.88888216553408,
,,,,74,0,74,0,,,,,,,,,,,,,,,,,,,,,,950.3333681000222,None,,,,,,,,,,,,,,,,,foundation,8,75,aloud,old,yellow,947.3115669000254,None,947.3115669000254,None,4,2.0882876999967266,947.3115669000254,None,2.0882876999967266,949.417174400005,None,949.9188926000206,None,949.9188926000206,None,f,0.3933428000018466,949.9188926000206,None,0.3933428000018466,,,29Aloud,001,2022_Aug_29_1101,ProdSingRedoBetween,2021.2.3,59.88888216553408,
,,,,75,0,75,0,,,,,,,,,,,,,,,,,,,,,,960.7438795000198,None,,,,,,,,,,,,,,,,,edition,64,76,aloud,old,red,950.8381984000152,None,950.8381984000152,None,2,8.881830199999968,950.8381984000152,None,8.881830199999968,959.7449546999997,None,960.2662666000251,None,960.2662666000251,None,f,0.4619146000186447,960.2662666000251,None,0.4619146000186447,,,29Aloud,001,2022_Aug_29_1101,ProdSingRedoBetween,2021.2.3,59.88888216553408,
,,,,76,0,76,0,,,,,,,,,,,,,,,,,,,,,,966.6185109000071,None,,,,,,,,,,,,,,,,,employment,48,77,aloud,old,blue,961.2508055000217,None,961.2508055000217,None,6,4.5891898999980185,961.2508055000217,None,4.5891898999980185,965.8689563000225,None,966.3883121000254,None,966.3883121000254,None,r,0.21190359999309294,966.3883121000254,None,0.21190359999309294,,,29Aloud,001,2022_Aug_29_1101,ProdSingRedoBetween,2021.2.3,59.88888216553408,
,,,,77,0,77,0,,,,,,,,,,,,,,,,,,,,,,972.5719975000247,None,,,,,,,,,,,,,,,,,weather,101,78,aloud,new,null,967.134146299999,None,967.134146299999,None,5,4.546047800016822,967.134146299999,None,4.546047800016822,971.7136784000031,None,972.2295851000235,None,972.2295851000235,None,r,0.3224024999944959,972.2295851000235,None,0.3224024999944959,,,29Aloud,001,2022_Aug_29_1101,ProdSingRedoBetween,2021.2.3,59.88888216553408,
,,,,78,0,78,0,,,,,,,,,,,,,,,,,,,,,,979.5625106000225,None,,,,,,,,,,,,,,,,,degree,115,79,aloud,new,null,973.0781842000142,None,973.0781842000142,None,1,5.42593999998644,973.0781842000142,None,5.42593999998644,978.5340576000162,None,979.0455022000242,None,979.0455022000242,None,r,0.4903936999908183,979.0455022000242,None,0.4903936999908183,,,29Aloud,001,2022_Aug_29_1101,ProdSingRedoBetween,2021.2.3,59.88888216553408,
,,,,79,0,79,0,,,,,,,,,,,,,,,,,,,,,,987.3219500000123,None,,,,,,,,,,,,,,,,,exchange,132,80,aloud,new,null,980.0690802000172,None,980.0690802000172,None,2,5.6989673000061885,980.0690802000172,None,5.6989673000061885,985.7888235000137,None,986.3053729000094,None,986.3053729000094,None,f,0.9987201999756508,986.3053729000094,None,0.9987201999756508,,,29Aloud,001,2022_Aug_29_1101,ProdSingRedoBetween,2021.2.3,59.88888216553408,
,,,,80,0,80,0,,,,,,,,,,,,,,,,,,,,,,993.3287223000079,None,,,,,,,,,,,,,,,,,general,36,81,aloud,old,blue,987.8395130000135,None,987.8395130000135,None,4,4.560479799984023,987.8395130000135,None,4.560479799984023,992.4264482000144,None,992.9271090000111,None,992.9271090000111,None,r,0.37709880000329576,992.9271090000111,None,0.37709880000329576,,,29Aloud,001,2022_Aug_29_1101,ProdSingRedoBetween,2021.2.3,59.88888216553408,
,,,,81,0,81,0,,,,,,,,,,,,,,,,,,,,,,1005.6219256000186,None,,,,,,,,,,,,,,,,,dispute,82,82,aloud,old,red,993.853978500003,None,993.853978500003,None,3,10.977984099998139,993.853978500003,None,10.977984099998139,1004.8559257000161,None,1005.3615475000115,None,1005.3615475000115,None,f,0.23050209999200888,1005.3615475000115,None,0.23050209999200888,,,29Aloud,001,2022_Aug_29_1101,ProdSingRedoBetween,2021.2.3,59.88888216553408,
,,,,82,0,82,0,,,,,,,,,,,,,,,,,,,,,,1009.209823400015,None,,,,,,,,,,,,,,,,,finance,104,83,aloud,new,null,1006.130404000025,None,1006.130404000025,None,1,2.277622900001006,1006.130404000025,None,2.277622900001006,1008.4258275000029,None,1008.9319827000145,None,1008.9319827000145,None,f,0.2520183000015095,1008.9319827000145,None,0.2520183000015095,,,29Aloud,001,2022_Aug_29_1101,ProdSingRedoBetween,2021.2.3,59.88888216553408,
,,,,83,0,83,0,,,,,,,,,,,,,,,,,,,,,,1011.9345794000255,None,,,,,,,,,,,,,,,,,century,144,84,aloud,new,null,1009.712780700007,None,1009.712780700007,None,1,1.3433751999982633,1009.712780700007,None,1.3433751999982633,1011.0817637,None,1011.5945817000174,None,1011.5945817000174,None,f,0.30962519999593496,1011.5945817000174,None,0.30962519999593496,,,29Aloud,001,2022_Aug_29_1101,ProdSingRedoBetween,2021.2.3,59.88888216553408,
,,,,84,0,84,0,,,,,,,,,,,,,,,,,,,,,,1021.5377819999994,None,,,,,,,,,,,,,,,,,guide,162,85,aloud,new,null,1012.4569055000029,None,1012.4569055000029,None,4,7.28709080000408,1012.4569055000029,None,7.28709080000408,1019.7738211000105,None,1020.2878880000208,None,1020.2878880000208,None,f,1.2241172000067309,1020.2878880000208,None,1.2241172000067309,,,29Aloud,001,2022_Aug_29_1101,ProdSingRedoBetween,2021.2.3,59.88888216553408,
,,,,85,0,85,0,,,,,,,,,,,,,,,,,,,,,,1027.877450800006,None,,,,,,,,,,,,,,,,,period,18,86,aloud,old,yellow,1022.0551391000045,None,1022.0551391000045,None,2,4.688811100000748,1022.0551391000045,None,4.688811100000748,1026.7603424000263,None,1027.2648597000225,None,1027.2648597000225,None,f,0.5910820999997668,1027.2648597000225,None,0.5910820999997668,,,29Aloud,001,2022_Aug_29_1101,ProdSingRedoBetween,2021.2.3,59.88888216553408,
,,,,86,0,86,0,,,,,,,,,,,,,,,,,,,,,,1030.5802063000156,None,,,,,,,,,,,,,,,,,majority,136,87,aloud,new,null,1028.3985257000022,None,1028.3985257000022,None,1,1.305386299995007,1028.3985257000022,None,1.305386299995007,1029.7299175000226,None,1030.2349451000046,None,1030.2349451000046,None,f,0.317017900000792,1030.2349451000046,None,0.317017900000792,,,29Aloud,001,2022_Aug_29_1101,ProdSingRedoBetween,2021.2.3,59.88888216553408,
,,,,87,0,87,0,,,,,,,,,,,,,,,,,,,,,,1033.5832056000072,None,,,,,,,,,,,,,,,,,instrument,57,88,aloud,old,blue,1031.087092700007,None,1031.087092700007,None,6,1.641031999984989,1031.087092700007,None,1.641031999984989,1032.7549753000203,None,1033.2673622000148,None,1033.2673622000148,None,r,0.28464279999025166,1033.2673622000148,None,0.28464279999025166,,,29Aloud,001,2022_Aug_29_1101,ProdSingRedoBetween,2021.2.3,59.88888216553408,
,,,,88,0,88,0,,,,,,,,,,,,,,,,,,,,,,1037.688281700015,None,,,,,,,,,,,,,,,,,answer,43,89,aloud,old,blue,1034.0920255000237,None,1034.0920255000237,None,6,2.6199493999884,1034.0920255000237,None,2.6199493999884,1036.738539700018,None,1037.2586366000178,None,1037.2586366000178,None,r,0.40538569999625906,1037.2586366000178,None,0.40538569999625906,,,29Aloud,001,2022_Aug_29_1101,ProdSingRedoBetween,2021.2.3,59.88888216553408,
,,,,89,0,89,0,,,,,,,,,,,,,,,,,,,,,,1046.2956340000092,None,,,,,,,,,,,,,,,,,atmosphere,145,90,aloud,new,null,1038.191527900024,None,1038.191527900024,None,4,6.888337500015041,1038.191527900024,None,6.888337500015041,1045.1122181000246,None,1045.6119250000047,None,1045.6119250000047,None,f,0.6680280000146013,1045.6119250000047,None,0.6680280000146013,,,29Aloud,001,2022_Aug_29_1101,ProdSingRedoBetween,2021.2.3,59.88888216553408,
,,,,90,0,90,0,,,,,,,,,,,,,,,,,,,,,,1049.2485334000085,None,,,,,,,,,,,,,,,,,education,173,91,aloud,new,null,1046.7991547000129,None,1046.7991547000129,None,6,1.608970400004182,1046.7991547000129,None,1.608970400004182,1048.4370396000159,None,1048.9486272000067,None,1048.9486272000067,None,r,0.27557600001455285,1048.9486272000067,None,0.27557600001455285,,,29Aloud,001,2022_Aug_29_1101,ProdSingRedoBetween,2021.2.3,59.88888216553408,
,,,,91,0,91,0,,,,,,,,,,,,,,,,,,,,,,1054.4287280999997,None,,,,,,,,,,,,,,,,,breath,5,92,aloud,old,yellow,1049.7656767000153,None,1049.7656767000153,None,3,3.5381507000129204,1049.7656767000153,None,3.5381507000129204,1053.3212141000258,None,1053.8367754000064,None,1053.8367754000064,None,f,0.5632406999939121,1053.8367754000064,None,0.5632406999939121,,,29Aloud,001,2022_Aug_29_1101,ProdSingRedoBetween,2021.2.3,59.88888216553408,
,,,,92,0,92,0,,,,,,,,,,,,,,,,,,,,,,1058.09067830001,None,,,,,,,,,,,,,,,,,expansion,172,93,aloud,new,null,1054.9425373000267,None,1054.9425373000267,None,1,2.4493756000010762,1054.9425373000267,None,2.4493756000010762,1057.4084047000215,None,1057.9107399000204,None,1057.9107399000204,None,f,0.1531371000164654,1057.9107399000204,None,0.1531371000164654,,,29Aloud,001,2022_Aug_29_1101,ProdSingRedoBetween,2021.2.3,59.88888216553408,
,,,,93,0,93,0,,,,,,,,,,,,,,,,,,,,,,1062.1783300000243,None,,,,,,,,,,,,,,,,,resistance,140,94,aloud,new,null,1058.5952251999988,None,1058.5952251999988,None,2,2.108915099990554,1058.5952251999988,None,2.108915099990554,1060.734428900003,None,1061.2508005000127,None,1061.2508005000127,None,f,0.9091326000052504,1061.2508005000127,None,0.9091326000052504,,,29Aloud,001,2022_Aug_29_1101,ProdSingRedoBetween,2021.2.3,59.88888216553408,
,,,,94,0,94,0,,,,,,,,,,,,,,,,,,,,,,1066.0822422000056,None,,,,,,,,,,,,,,,,,south,59,95,aloud,old,yellow,1062.6955014000123,None,1062.6955014000123,None,6,2.216391099995235,1062.6955014000123,None,2.216391099995235,1064.932219600014,None,1065.4316863999993,None,1065.4316863999993,None,r,0.624280699994415,1065.4316863999993,None,0.624280699994415,,,29Aloud,001,2022_Aug_29_1101,ProdSingRedoBetween,2021.2.3,59.88888216553408,
,,,,95,0,95,0,,,,,,,,,,,,,,,,,,,,,,1071.9388457000023,None,,,,,,,,,,,,,,,,,partner,178,96,aloud,new,null,1066.5911927999987,None,1066.5911927999987,None,6,4.408708100003423,1066.5911927999987,None,4.408708100003423,1071.0218761000142,None,1071.5250058000092,None,1071.5250058000092,None,r,0.3712173000094481,1071.5250058000092,None,0.3712173000094481,,,29Aloud,001,2022_Aug_29_1101,ProdSingRedoBetween,2021.2.3,59.88888216553408,
,,,,96,0,96,0,,,,,,,,,,,,,,,,,,,,,,1075.1095121000253,None,,,,,,,,,,,,,,,,,dream,123,97,aloud,new,null,1072.4495546000253,None,1072.4495546000253,None,5,1.8783058999979403,1072.4495546000253,None,1.8783058999979403,1074.3595181000128,None,1074.878179899999,None,1074.878179899999,None,f,0.2018734000157565,1074.878179899999,None,0.2018734000157565,,,29Aloud,001,2022_Aug_29_1101,ProdSingRedoBetween,2021.2.3,59.88888216553408,
,,,,97,0,97,0,,,,,,,,,,,,,,,,,,,,,,1079.2954155000043,None,,,,,,,,,,,,,,,,,health,53,98,aloud,old,blue,1075.6316335000156,None,1075.6316335000156,None,6,2.832315199979348,1075.6316335000156,None,2.832315199979348,1078.4989122000115,None,1079.0116770000022,None,1079.0116770000022,None,r,0.2682251000078395,1079.0116770000022,None,0.2682251000078395,,,29Aloud,001,2022_Aug_29_1101,ProdSingRedoBetween,2021.2.3,59.88888216553408,
,,,,98,0,98,0,,,,,,,,,,,,,,,,,,,,,,1081.931389800011,None,,,,,,,,,,,,,,,,,escape,127,99,aloud,new,null,1079.799569100025,None,1079.799569100025,None,6,1.3282962999946903,1079.799569100025,None,1.3282962999946903,1081.1509942000266,None,1081.669204500009,None,1081.669204500009,None,r,0.24272969999583438,1081.669204500009,None,0.24272969999583438,,,29Aloud,001,2022_Aug_29_1101,ProdSingRedoBetween,2021.2.3,59.88888216553408,
,,,,99,0,99,0,,,,,,,,,,,,,,,,,,,,,,1085.1843589000055,None,,,,,,,,,,,,,,,,,speech,108,100,aloud,new,null,1082.4340554000228,None,1082.4340554000228,None,3,1.2778856999939308,1082.4340554000228,None,1.2778856999939308,1083.737443400023,None,1084.2504939000064,None,1084.2504939000064,None,f,0.9092816000047605,1084.2504939000064,None,0.9092816000047605,,,29Aloud,001,2022_Aug_29_1101,ProdSingRedoBetween,2021.2.3,59.88888216553408,
,,,,100,0,100,0,,,,,,,,,,,,,,,,,,,,,,1088.9885933000187,None,,,,,,,,,,,,,,,,,height,129,101,aloud,new,null,1085.6973689000006,None,1085.6973689000006,None,4,2.1745320000045467,1085.6973689000006,None,2.1745320000045467,1087.8920021000085,None,1088.4046784000238,None,1088.4046784000238,None,r,0.5553279000159819,1088.4046784000238,None,0.5553279000159819,,,29Aloud,001,2022_Aug_29_1101,ProdSingRedoBetween,2021.2.3,59.88888216553408,
,,,,101,0,101,0,,,,,,,,,,,,,,,,,,,,,,1092.0414124000235,None,,,,,,,,,,,,,,,,,novel,157,102,aloud,new,null,1089.4968791000138,None,1089.4968791000138,None,1,1.4872549000137951,1089.4968791000138,None,1.4872549000137951,1091.015011200012,None,1091.5243538000213,None,1091.5243538000213,None,f,0.4995030000281986,1091.5243538000213,None,0.4995030000281986,,,29Aloud,001,2022_Aug_29_1101,ProdSingRedoBetween,2021.2.3,59.88888216553408,
,,,,102,0,102,0,,,,,,,,,,,,,,,,,,,,,,1095.2113233000273,None,,,,,,,,,,,,,,,,,marriage,113,103,aloud,new,null,1092.5513664000027,None,1092.5513664000027,None,6,1.8165147000108846,1092.5513664000027,None,1.8165147000108846,1094.3957923999988,None,1094.9111828000168,None,1094.9111828000168,None,r,0.2726628999807872,1094.9111828000168,None,0.2726628999807872,,,29Aloud,001,2022_Aug_29_1101,ProdSingRedoBetween,2021.2.3,59.88888216553408,
,,,,103,0,103,0,,,,,,,,,,,,,,,,,,,,,,1098.814875800017,None,,,,,,,,,,,,,,,,,quarter,138,104,aloud,new,null,1095.7117903000035,None,1095.7117903000035,None,1,2.1681661999900825,1095.7117903000035,None,2.1681661999900825,1097.8987895000027,None,1098.3980130000273,None,1098.3980130000273,None,r,0.3939396000059787,1098.3980130000273,None,0.3939396000059787,,,29Aloud,001,2022_Aug_29_1101,ProdSingRedoBetween,2021.2.3,59.88888216553408,
,,,,104,0,104,0,,,,,,,,,,,,,,,,,,,,,,1104.2051362000057,None,,,,,,,,,,,,,,,,,series,163,105,aloud,new,null,1099.3285133000172,None,1099.3285133000172,None,3,4.031321599992225,1099.3285133000172,None,4.031321599992225,1103.3874477000209,None,1103.89674690002,None,1103.89674690002,None,f,0.2790240000176709,1103.89674690002,None,0.2790240000176709,,,29Aloud,001,2022_Aug_29_1101,ProdSingRedoBetween,2021.2.3,59.88888216553408,
,,,,105,0,105,0,,,,,,,,,,,,,,,,,,,,,,1107.3119469000085,None,,,,,,,,,,,,,,,,,silence,103,106,aloud,new,null,1104.7226802000077,None,1104.7226802000077,None,3,1.5171999000012875,1104.7226802000077,None,1.5171999000012875,1106.2589004000183,None,1106.7743587000004,None,1106.7743587000004,None,f,0.5056124999828171,1106.7743587000004,None,0.5056124999828171,,,29Aloud,001,2022_Aug_29_1101,ProdSingRedoBetween,2021.2.3,59.88888216553408,
,,,,106,0,106,0,,,,,,,,,,,,,,,,,,,,,,1117.5669999000093,None,,,,,,,,,,,,,,,,,people,70,107,aloud,old,red,1107.827125700016,None,1107.827125700016,None,5,8.572886300011305,1107.827125700016,None,8.572886300011305,1116.4230503000144,None,1116.9372158000187,None,1116.9372158000187,None,f,0.6147725000046194,1116.9372158000187,None,0.6147725000046194,,,29Aloud,001,2022_Aug_29_1101,ProdSingRedoBetween,2021.2.3,59.88888216553408,
,,,,107,0,107,0,,,,,,,,,,,,,,,,,,,,,,1120.7078394000127,None,,,,,,,,,,,,,,,,,machinery,3,108,aloud,old,yellow,1118.071306000027,None,1118.071306000027,None,1,1.3205089000111911,1118.071306000027,None,1.3205089000111911,1119.419791500026,None,1119.9195112000161,None,1119.9195112000161,None,r,0.7605772000097204,1119.9195112000161,None,0.7605772000097204,,,29Aloud,001,2022_Aug_29_1101,ProdSingRedoBetween,2021.2.3,59.88888216553408,
,,,,108,0,108,0,,,,,,,,,,,,,,,,,,,,,,1123.3560386000026,None,,,,,,,,,,,,,,,,,fashion,154,109,aloud,new,null,1121.2323330000218,None,1121.2323330000218,None,1,1.2795073999732267,1121.2323330000218,None,1.2795073999732267,1122.5417020000168,None,1123.0574863000074,None,1123.0574863000074,None,f,0.2703906999959145,1123.0574863000074,None,0.2703906999959145,,,29Aloud,001,2022_Aug_29_1101,ProdSingRedoBetween,2021.2.3,59.88888216553408,
,,,,109,0,109,0,,,,,,,,,,,,,,,,,,,,,,1126.5090039000206,None,,,,,,,,,,,,,,,,,surface,167,110,aloud,new,null,1123.867380700016,None,1123.867380700016,None,3,1.7963468999951147,1123.867380700016,None,1.7963468999951147,1125.693882200023,None,1126.2146217000263,None,1126.2146217000263,None,r,0.2653151999984402,1126.2146217000263,None,0.2653151999984402,,,29Aloud,001,2022_Aug_29_1101,ProdSingRedoBetween,2021.2.3,59.88888216553408,
,,,,110,0,110,0,,,,,,,,,,,,,,,,,,,,,,1135.2013198000204,None,,,,,,,,,,,,,,,,,minor,109,111,aloud,new,null,1127.0199553999992,None,1127.0199553999992,None,6,4.788079999998445,1127.0199553999992,None,4.788079999998445,1131.8359979000234,None,1132.3520902000018,None,1132.3520902000018,None,f,2.831811400013976,1132.3520902000018,None,2.831811400013976,,,29Aloud,001,2022_Aug_29_1101,ProdSingRedoBetween,2021.2.3,59.88888216553408,
,,,,111,0,111,0,,,,,,,,,,,,,,,,,,,,,,1139.6077503999986,None,,,,,,,,,,,,,,,,,color,175,112,aloud,new,null,1135.7045654000249,None,1135.7045654000249,None,5,2.967713799997,1135.7045654000249,None,2.967713799997,1138.7092768000148,None,1139.2331135999993,None,1139.2331135999993,None,r,0.3428825000009965,1139.2331135999993,None,0.3428825000009965,,,29Aloud,001,2022_Aug_29_1101,ProdSingRedoBetween,2021.2.3,59.88888216553408,
,,,,112,0,112,0,,,,,,,,,,,,,,,,,,,,,,1142.2082351999998,None,,,,,,,,,,,,,,,,,straight,21,113,aloud,old,yellow,1140.1282846000104,None,1140.1282846000104,None,6,1.2795326999912504,1140.1282846000104,None,1.2795326999912504,1141.4290620000102,None,1141.9426508000179,None,1141.9426508000179,None,r,0.24137390000396408,1141.9426508000179,None,0.24137390000396408,,,29Aloud,001,2022_Aug_29_1101,ProdSingRedoBetween,2021.2.3,59.88888216553408,
,,,,113,0,113,0,,,,,,,,,,,,,,,,,,,,,,1144.8272089000093,None,,,,,,,,,,,,,,,,,goose,128,114,aloud,new,null,1142.712666700012,None,1142.712666700012,None,1,1.3512201000121422,1142.712666700012,None,1.3512201000121422,1144.0966382000188,None,1144.6298567000194,None,1144.6298567000194,None,f,0.17785430001094937,1144.6298567000194,None,0.17785430001094937,,,29Aloud,001,2022_Aug_29_1101,ProdSingRedoBetween,2021.2.3,59.88888216553408,
,,,,114,0,114,0,,,,,,,,,,,,,,,,,,,,,,1148.6813372000179,None,,,,,,,,,,,,,,,,,clear,58,115,aloud,old,blue,1145.3300438000006,None,1145.3300438000006,None,3,2.2620344999886584,1145.3300438000006,None,2.2620344999886584,1147.6217032000131,None,1148.1313277000154,None,1148.1313277000154,None,f,0.5324787000135984,1148.1313277000154,None,0.5324787000135984,,,29Aloud,001,2022_Aug_29_1101,ProdSingRedoBetween,2021.2.3,59.88888216553408,
,,,,115,0,115,0,,,,,,,,,,,,,,,,,,,,,,1153.1191179000016,None,,,,,,,,,,,,,,,,,force,31,116,aloud,old,blue,1149.1915505000215,None,1149.1915505000215,None,5,2.7362758000090253,1149.1915505000215,None,2.7362758000090253,1151.9513271000178,None,1152.4576107000175,None,1152.4576107000175,None,f,0.646322099986719,1152.4576107000175,None,0.646322099986719,,,29Aloud,001,2022_Aug_29_1101,ProdSingRedoBetween,2021.2.3,59.88888216553408,
,,,,116,0,116,0,,,,,,,,,,,,,,,,,,,,,,1155.9216862000176,None,,,,,,,,,,,,,,,,,whole,49,117,aloud,old,blue,1153.625594800018,None,1153.625594800018,None,6,1.4781978000246454,1153.625594800018,None,1.4781978000246454,1155.122446400026,None,1155.6290576000174,None,1155.6290576000174,None,r,0.2668005999876186,1155.6290576000174,None,0.2668005999876186,,,29Aloud,001,2022_Aug_29_1101,ProdSingRedoBetween,2021.2.3,59.88888216553408,
,,,,117,0,117,0,,,,,,,,,,,,,,,,,,,,,,1158.844957400026,None,,,,,,,,,,,,,,,,,design,56,118,aloud,old,blue,1156.4291243000189,None,1156.4291243000189,None,6,1.5149212999967858,1156.4291243000189,None,1.5149212999967858,1157.9808525000117,None,1158.4913161000004,None,1158.4913161000004,None,r,0.32465049999882467,1158.4913161000004,None,0.32465049999882467,,,29Aloud,001,2022_Aug_29_1101,ProdSingRedoBetween,2021.2.3,59.88888216553408,
,,,,118,0,118,0,,,,,,,,,,,,,,,,,,,,,,1163.5961588000064,None,,,,,,,,,,,,,,,,,scene,141,119,aloud,new,null,1159.3590779000078,None,1159.3590779000078,None,5,3.5608360999904107,1159.3590779000078,None,3.5608360999904107,1162.9530872000032,None,1163.4629053000244,None,1163.4629053000244,None,r,0.10492539999540895,1163.4629053000244,None,0.10492539999540895,,,29Aloud,001,2022_Aug_29_1101,ProdSingRedoBetween,2021.2.3,59.88888216553408,
,,,,119,0,119,0,,,,,,,,,,,,,,,,,,,,,,1168.1507247000118,None,,,,,,,,,,,,,,,,,level,34,120,aloud,old,blue,1164.110737400013,None,1164.110737400013,None,3,2.91317529999651,1164.110737400013,None,2.91317529999651,1167.0614798000024,None,1167.5669307000062,None,1167.5669307000062,None,f,0.5608902999956626,1167.5669307000062,None,0.5608902999956626,,,29Aloud,001,2022_Aug_29_1101,ProdSingRedoBetween,2021.2.3,59.88888216553408,
,,,,120,0,120,0,,,,,,,,,,,,,,,,,,,,,,1172.154737200006,None,,,,,,,,,,,,,,,,,material,35,121,aloud,old,blue,1168.6513363000122,None,1168.6513363000122,None,4,2.4125228000048082,1168.6513363000122,None,2.4125228000048082,1171.0900739000062,None,1171.6043454000028,None,1171.6043454000028,None,f,0.5234289999934845,1171.6043454000028,None,0.5234289999934845,,,29Aloud,001,2022_Aug_29_1101,ProdSingRedoBetween,2021.2.3,59.88888216553408,
,,,,121,0,121,0,,,,,,,,,,,,,,,,,,,,,,1181.3143101000169,None,,,,,,,,,,,,,,,,,portion,117,122,aloud,new,null,1172.6631657000107,None,1172.6631657000107,None,1,7.688725799991516,1172.6631657000107,None,7.688725799991516,1180.386869000009,None,1180.8981903000094,None,1180.8981903000094,None,f,0.3896303999936208,1180.8981903000094,None,0.3896303999936208,,,29Aloud,001,2022_Aug_29_1101,ProdSingRedoBetween,2021.2.3,59.88888216553408,
,,,,122,0,122,0,,,,,,,,,,,,,,,,,,,,,,1186.9526946000115,None,,,,,,,,,,,,,,,,,touch,10,123,aloud,old,yellow,1181.823629600025,None,1181.823629600025,None,2,4.440515999973286,1181.823629600025,None,4.440515999973286,1186.2867331000161,None,1186.7876134000253,None,1186.7876134000253,None,f,0.14819499998702668,1186.7876134000253,None,0.14819499998702668,,,29Aloud,001,2022_Aug_29_1101,ProdSingRedoBetween,2021.2.3,59.88888216553408,
,,,,123,0,123,0,,,,,,,,,,,,,,,,,,,,,,1190.7065077000007,None,,,,,,,,,,,,,,,,,bureau,63,124,aloud,old,red,1187.456410200015,None,1187.456410200015,None,1,1.6475115999928676,1187.456410200015,None,1.6475115999928676,1189.1221838000056,None,1189.6296097000013,None,1189.6296097000013,None,f,1.05019410001114,1189.6296097000013,None,1.05019410001114,,,29Aloud,001,2022_Aug_29_1101,ProdSingRedoBetween,2021.2.3,59.88888216553408,
,,,,124,0,124,0,,,,,,,,,,,,,,,,,,,,,,1193.642858600011,None,,,,,,,,,,,,,,,,,literature,28,125,aloud,old,yellow,1191.2219934000168,None,1191.2219934000168,None,6,1.6018602999974973,1191.2219934000168,None,1.6018602999974973,1192.8479066000145,None,1193.3594197000202,None,1193.3594197000202,None,r,0.25631609998526983,1193.3594197000202,None,0.25631609998526983,,,29Aloud,001,2022_Aug_29_1101,ProdSingRedoBetween,2021.2.3,59.88888216553408,
,,,,125,0,125,0,,,,,,,,,,,,,,,,,,,,,,1198.9147958000249,None,,,,,,,,,,,,,,,,,smell,83,126,aloud,old,red,1194.153248000017,None,1194.153248000017,None,3,3.2065356000093743,1194.153248000017,None,3.2065356000093743,1197.3810527000169,None,1197.885366500006,None,1197.885366500006,None,f,1.0023723999911454,1197.885366500006,None,1.0023723999911454,,,29Aloud,001,2022_Aug_29_1101,ProdSingRedoBetween,2021.2.3,59.88888216553408,
,,,,126,0,126,0,,,,,,,,,,,,,,,,,,,,,,1203.2691362000187,None,,,,,,,,,,,,,,,,,music,142,127,aloud,new,null,1199.4181740000204,None,1199.4181740000204,None,2,2.9816761999973096,1199.4181740000204,None,2.9816761999973096,1202.4227738000045,None,1202.9465214000084,None,1202.9465214000084,None,f,0.30127109997556545,1202.9465214000084,None,0.30127109997556545,,,29Aloud,001,2022_Aug_29_1101,ProdSingRedoBetween,2021.2.3,59.88888216553408,
,,,,127,0,127,0,,,,,,,,,,,,,,,,,,,,,,1205.7059942000196,None,,,,,,,,,,,,,,,,,bitter,151,128,aloud,new,null,1203.7799043000268,None,1203.7799043000268,None,1,1.1559026999748312,1203.7799043000268,None,1.1559026999748312,1204.955839800008,None,1205.4714857000217,None,1205.4714857000217,None,f,0.20856659999117255,1205.4714857000217,None,0.20856659999117255,,,29Aloud,001,2022_Aug_29_1101,ProdSingRedoBetween,2021.2.3,59.88888216553408,
,,,,128,0,128,0,,,,,,,,,,,,,,,,,,,,,,1211.6942645000236,None,,,,,,,,,,,,,,,,,solution,91,129,aloud,new,null,1206.2237953000003,None,1206.2237953000003,None,3,3.6080352000135463,1206.2237953000003,None,3.6080352000135463,1209.8658951000252,None,1210.3762322000111,None,1210.3762322000111,None,r,1.295574600022519,1210.3762322000111,None,1.295574600022519,,,29Aloud,001,2022_Aug_29_1101,ProdSingRedoBetween,2021.2.3,59.88888216553408,
,,,,129,0,129,0,,,,,,,,,,,,,,,,,,,,,,1214.765839300002,None,,,,,,,,,,,,,,,,,phrase,24,130,aloud,old,yellow,1212.2034283000103,None,1212.2034283000103,None,6,1.9883483999874443,1212.2034283000103,None,1.9883483999874443,1214.2136385000194,None,1214.7201889000135,None,1214.7201889000135,None,r,0.02381820001755841,1214.7201889000135,None,0.02381820001755841,,,29Aloud,001,2022_Aug_29_1101,ProdSingRedoBetween,2021.2.3,59.88888216553408,
,,,,130,0,130,0,,,,,,,,,,,,,,,,,,,,,,1220.402857500012,None,,,,,,,,,,,,,,,,,testimony,46,131,aloud,old,blue,1215.2881621000124,None,1215.2881621000124,None,1,1.3516928000026383,1215.2881621000124,None,1.3516928000026383,1216.67080610001,None,1217.1866778000258,None,1217.1866778000258,None,r,3.1972097999823745,1217.1866778000258,None,3.1972097999823745,,,29Aloud,001,2022_Aug_29_1101,ProdSingRedoBetween,2021.2.3,59.88888216553408,
,,,,131,0,131,0,,,,,,,,,,,,,,,,,,,,,,1224.0900123000029,None,,,,,,,,,,,,,,,,,staff,147,132,aloud,new,null,1220.9071108000062,None,1220.9071108000062,None,5,2.2045810999989044,1220.9071108000062,None,2.2045810999989044,1223.1405261000036,None,1223.6396380000224,None,1223.6396380000224,None,r,0.43201930000213906,1223.6396380000224,None,0.43201930000213906,,,29Aloud,001,2022_Aug_29_1101,ProdSingRedoBetween,2021.2.3,59.88888216553408,
,,,,132,0,132,0,,,,,,,,,,,,,,,,,,,,,,1226.842707200005,None,,,,,,,,,,,,,,,,,agency,73,133,aloud,old,red,1224.5939215000253,None,1224.5939215000253,None,6,1.5421543999982532,1224.5939215000253,None,1.5421543999982532,1226.1622470000002,None,1226.6760153000068,None,1226.6760153000068,None,r,0.13975229999050498,1226.6760153000068,None,0.13975229999050498,,,29Aloud,001,2022_Aug_29_1101,ProdSingRedoBetween,2021.2.3,59.88888216553408,
,,,,133,0,133,0,,,,,,,,,,,,,,,,,,,,,,1231.4473558000172,None,,,,,,,,,,,,,,,,,junior,86,134,aloud,old,red,1227.348676900001,None,1227.348676900001,None,3,2.8590268999978434,1227.348676900001,None,2.8590268999978434,1230.230585000012,None,1230.7300299000053,None,1230.7300299000053,None,f,0.7016954999999143,1230.7300299000053,None,0.7016954999999143,,,29Aloud,001,2022_Aug_29_1101,ProdSingRedoBetween,2021.2.3,59.88888216553408,
,,,,134,0,134,0,,,,,,,,,,,,,,,,,,,,,,1236.9861380000075,None,,,,,,,,,,,,,,,,,split,92,135,aloud,new,null,1231.9643360000046,None,1231.9643360000046,None,4,3.651527999987593,1231.9643360000046,None,3.651527999987593,1235.636074900016,None,1236.138826600014,None,1236.138826600014,None,f,0.8289246000058483,1236.138826600014,None,0.8289246000058483,,,29Aloud,001,2022_Aug_29_1101,ProdSingRedoBetween,2021.2.3,59.88888216553408,
,,,,135,0,135,0,,,,,,,,,,,,,,,,,,,,,,1241.0568849000265,None,,,,,,,,,,,,,,,,,bicycle,171,136,aloud,new,null,1237.4967713000078,None,1237.4967713000078,None,1,2.031029200006742,1237.4967713000078,None,2.031029200006742,1239.559328400006,None,1240.0849673000048,None,1240.0849673000048,None,f,0.9547978000191506,1240.0849673000048,None,0.9547978000191506,,,29Aloud,001,2022_Aug_29_1101,ProdSingRedoBetween,2021.2.3,59.88888216553408,
,,,,136,0,136,0,,,,,,,,,,,,,,,,,,,,,,1246.0117920000048,None,,,,,,,,,,,,,,,,,medicine,52,137,aloud,old,blue,1241.5636620000005,None,1241.5636620000005,None,4,2.812331199995242,1241.5636620000005,None,2.812331199995242,1244.400744100014,None,1244.9145294000045,None,1244.9145294000045,None,r,1.077203599998029,1244.9145294000045,None,1.077203599998029,,,29Aloud,001,2022_Aug_29_1101,ProdSingRedoBetween,2021.2.3,59.88888216553408,
,,,,137,0,137,0,,,,,,,,,,,,,,,,,,,,,,1250.0155781000212,None,,,,,,,,,,,,,,,,,grade,7,138,aloud,old,yellow,1246.5192533000081,None,1246.5192533000081,None,6,2.768587500002468,1246.5192533000081,None,2.768587500002468,1249.322752100008,None,1249.8365726000047,None,1249.8365726000047,None,r,0.15520890001789667,1249.8365726000047,None,0.15520890001789667,,,29Aloud,001,2022_Aug_29_1101,ProdSingRedoBetween,2021.2.3,59.88888216553408,
,,,,138,0,138,0,,,,,,,,,,,,,,,,,,,,,,1253.1690204000042,None,,,,,,,,,,,,,,,,,carry,15,139,aloud,old,yellow,1250.5344772000099,None,1250.5344772000099,None,3,1.8175073000020348,1250.5344772000099,None,1.8175073000020348,1252.3813785000239,None,1252.8913194000197,None,1252.8913194000197,None,f,0.25242989999242127,1252.8913194000197,None,0.25242989999242127,,,29Aloud,001,2022_Aug_29_1101,ProdSingRedoBetween,2021.2.3,59.88888216553408,
,,,,139,0,139,0,,,,,,,,,,,,,,,,,,,,,,1257.3777884000156,None,,,,,,,,,,,,,,,,,executive,78,140,aloud,old,red,1253.6786760000105,None,1253.6786760000105,None,1,2.0411522000213154,1253.6786760000105,None,2.0411522000213154,1255.7486964000273,None,1256.257879700017,None,1256.257879700017,None,r,1.0939362999924924,1256.257879700017,None,1.0939362999924924,,,29Aloud,001,2022_Aug_29_1101,ProdSingRedoBetween,2021.2.3,59.88888216553408,
,,,,140,0,140,0,,,,,,,,,,,,,,,,,,,,,,1264.6688055000268,None,,,,,,,,,,,,,,,,,guard,97,141,aloud,new,null,1257.8999015000009,None,1257.8999015000009,None,2,2.259733500017319,1257.8999015000009,None,2.259733500017319,1260.175710600015,None,1260.6765941000194,None,1260.6765941000194,None,f,3.971049600018887,1260.6765941000194,None,3.971049600018887,,,29Aloud,001,2022_Aug_29_1101,ProdSingRedoBetween,2021.2.3,59.88888216553408,
,,,,141,0,141,0,,,,,,,,,,,,,,,,,,,,,,1267.666787300026,None,,,,,,,,,,,,,,,,,committee,39,142,aloud,old,blue,1265.1809431000147,None,1265.1809431000147,None,6,1.7948068999976385,1265.1809431000147,None,1.7948068999976385,1267.0016875000147,None,1267.5175886000216,None,1267.5175886000216,None,r,0.12209329998586327,1267.5175886000216,None,0.12209329998586327,,,29Aloud,001,2022_Aug_29_1101,ProdSingRedoBetween,2021.2.3,59.88888216553408,
,,,,142,0,142,0,,,,,,,,,,,,,,,,,,,,,,1270.2719679000147,None,,,,,,,,,,,,,,,,,union,23,143,aloud,old,yellow,1268.1739732999995,None,1268.1739732999995,None,6,1.3219097999972291,1268.1739732999995,None,1.3219097999972291,1269.5187246999994,None,1270.0238323000085,None,1270.0238323000085,None,r,0.21591820000321604,1270.0238323000085,None,0.21591820000321604,,,29Aloud,001,2022_Aug_29_1101,ProdSingRedoBetween,2021.2.3,59.88888216553408,
,,,,143,0,143,0,,,,,,,,,,,,,,,,,,,,,,1273.4558677000168,None,,,,,,,,,,,,,,,,,service,16,144,aloud,old,yellow,1270.7910866000166,None,1270.7910866000166,None,6,1.8486304999969434,1270.7910866000166,None,1.8486304999969434,1272.6579657000257,None,1273.1779710000264,None,1273.1779710000264,None,f,0.261657600000035,1273.1779710000264,None,0.261657600000035,,,29Aloud,001,2022_Aug_29_1101,ProdSingRedoBetween,2021.2.3,59.88888216553408,
,,,,144,0,144,0,,,,,,,,,,,,,,,,,,,,,,1277.5264026000223,None,,,,,,,,,,,,,,,,,brief,114,145,aloud,new,null,1273.967290200002,None,1273.967290200002,None,3,1.8566241999797057,1273.967290200002,None,1.8566241999797057,1275.8542586000112,None,1276.3601031000144,None,1276.3601031000144,None,f,1.1356122000142932,1276.3601031000144,None,1.1356122000142932,,,29Aloud,001,2022_Aug_29_1101,ProdSingRedoBetween,2021.2.3,59.88888216553408,
,,,,145,0,145,0,,,,,,,,,,,,,,,,,,,,,,1280.2293098000227,None,,,,,,,,,,,,,,,,,narrow,159,146,aloud,new,null,1278.0313136000186,None,1278.0313136000186,None,1,1.3606056999997236,1278.0313136000186,None,1.3606056999997236,1279.4181937000249,None,1279.932506400015,None,1279.932506400015,None,f,0.26724749998538755,1279.932506400015,None,0.26724749998538755,,,29Aloud,001,2022_Aug_29_1101,ProdSingRedoBetween,2021.2.3,59.88888216553408,
,,,,146,0,146,0,,,,,,,,,,,,,,,,,,,,,,1283.3824671000184,None,,,,,,,,,,,,,,,,,oxygen,125,147,aloud,new,null,1280.7388556000078,None,1280.7388556000078,None,1,1.8608958999975584,1280.7388556000078,None,1.8608958999975584,1282.6246729000122,None,1283.132384000026,None,1283.132384000026,None,f,0.21930309999152087,1283.132384000026,None,0.21930309999152087,,,29Aloud,001,2022_Aug_29_1101,ProdSingRedoBetween,2021.2.3,59.88888216553408,
,,,,147,0,147,0,,,,,,,,,,,,,,,,,,,,,,1288.9547194000043,None,,,,,,,,,,,,,,,,,front,106,148,aloud,new,null,1283.8899657000147,None,1283.8899657000147,None,3,3.789778899983503,1283.8899657000147,None,3.789778899983503,1287.7034735000052,None,1288.207544600009,None,1288.207544600009,None,r,0.7282620999903884,1288.207544600009,None,0.7282620999903884,,,29Aloud,001,2022_Aug_29_1101,ProdSingRedoBetween,2021.2.3,59.88888216553408,
,,,,148,0,148,0,,,,,,,,,,,,,,,,,,,,,,1293.3277855000051,None,,,,,,,,,,,,,,,,,couch,76,149,aloud,old,red,1289.4694889000093,None,1289.4694889000093,None,6,3.090081900008954,1289.4694889000093,None,3.090081900008954,1292.577059000003,None,1293.1015307000198,None,1293.1015307000198,None,r,0.20227529999101534,1293.1015307000198,None,0.20227529999101534,,,29Aloud,001,2022_Aug_29_1101,ProdSingRedoBetween,2021.2.3,59.88888216553408,
,,,,149,0,149,0,,,,,,,,,,,,,,,,,,,,,,1296.1952591000008,None,,,,,,,,,,,,,,,,,department,69,150,aloud,old,red,1293.8562987000041,None,1293.8562987000041,None,3,1.5913475999841467,1293.8562987000041,None,1.5913475999841467,1295.4780922000064,None,1295.985494500026,None,1295.985494500026,None,f,0.18217270000604913,1295.985494500026,None,0.18217270000604913,,,29Aloud,001,2022_Aug_29_1101,ProdSingRedoBetween,2021.2.3,59.88888216553408,
,,,,150,0,150,0,,,,,,,,,,,,,,,,,,,,,,1300.583016300021,None,,,,,,,,,,,,,,,,,track,84,151,aloud,old,red,1296.6958906000073,None,1296.6958906000073,None,5,2.9438546000164934,1296.6958906000073,None,2.9438546000164934,1299.6666931000073,None,1300.1673126000096,None,1300.1673126000096,None,r,0.3843172999913804,1300.1673126000096,None,0.3843172999913804,,,29Aloud,001,2022_Aug_29_1101,ProdSingRedoBetween,2021.2.3,59.88888216553408,
,,,,151,0,151,0,,,,,,,,,,,,,,,,,,,,,,1303.5359563000093,None,,,,,,,,,,,,,,,,,symbol,29,152,aloud,old,blue,1301.1019883000117,None,1301.1019883000117,None,1,1.633637999999337,1301.1019883000117,None,1.633637999999337,1302.7541193000216,None,1303.276239400002,None,1303.276239400002,None,f,0.23543170001357794,1303.276239400002,None,0.23543170001357794,,,29Aloud,001,2022_Aug_29_1101,ProdSingRedoBetween,2021.2.3,59.88888216553408,
,,,,152,0,152,0,,,,,,,,,,,,,,,,,,,,,,1312.5113490000076,None,,,,,,,,,,,,,,,,,harmony,17,153,aloud,old,yellow,1304.0468947000045,None,1304.0468947000045,None,4,5.464945000014268,1304.0468947000045,None,5.464945000014268,1309.546241700009,None,1310.0617697999987,None,1310.0617697999987,None,f,2.4338623999792617,1310.0617697999987,None,2.4338623999792617,,,29Aloud,001,2022_Aug_29_1101,ProdSingRedoBetween,2021.2.3,59.88888216553408,
,,,,153,0,153,0,,,,,,,,,,,,,,,,,,,,,,1317.1494695000001,None,,,,,,,,,,,,,,,,,platform,68,154,aloud,old,red,1313.023551900027,None,1313.023551900027,None,2,3.000315799989039,1313.023551900027,None,3.000315799989039,1316.0517926000175,None,1316.5656809000066,None,1316.5656809000066,None,r,0.5620843999786302,1316.5656809000066,None,0.5620843999786302,,,29Aloud,001,2022_Aug_29_1101,ProdSingRedoBetween,2021.2.3,59.88888216553408,
,,,,154,0,154,0,,,,,,,,,,,,,,,,,,,,,,1322.7217444000125,None,,,,,,,,,,,,,,,,,little,44,155,aloud,old,blue,1317.6565463000152,None,1317.6565463000152,None,1,4.1031577000103425,1317.6565463000152,None,4.1031577000103425,1321.792221700016,None,1322.3088482000167,None,1322.3088482000167,None,r,0.38687210000352934,1322.3088482000167,None,0.38687210000352934,,,29Aloud,001,2022_Aug_29_1101,ProdSingRedoBetween,2021.2.3,59.88888216553408,
,,,,155,0,155,0,,,,,,,,,,,,,,,,,,,,,,1327.030312500021,None,,,,,,,,,,,,,,,,,household,80,156,aloud,old,red,1323.2315857000067,None,1323.2315857000067,None,1,2.736080900009256,1323.2315857000067,None,2.736080900009256,1325.9951259000227,None,1326.5201990000205,None,1326.5201990000205,None,f,0.487559200002579,1326.5201990000205,None,0.487559200002579,,,29Aloud,001,2022_Aug_29_1101,ProdSingRedoBetween,2021.2.3,59.88888216553408,
,,,,156,0,156,0,,,,,,,,,,,,,,,,,,,,,,1332.2479879000166,None,,,,,,,,,,,,,,,,,figure,11,157,aloud,old,yellow,1327.550001000025,None,1327.550001000025,None,4,3.809677700017346,1327.550001000025,None,3.809677700017346,1331.3844241000188,None,1331.8988880000252,None,1331.8988880000252,None,r,0.3248320000129752,1331.8988880000252,None,0.3248320000129752,,,29Aloud,001,2022_Aug_29_1101,ProdSingRedoBetween,2021.2.3,59.88888216553408,
,,,,157,0,157,0,,,,,,,,,,,,,,,,,,,,,,1336.518896100024,None,,,,,,,,,,,,,,,,,tragedy,105,158,aloud,new,null,1332.7632374000095,None,1332.7632374000095,None,1,2.98843629998737,1332.7632374000095,None,2.98843629998737,1335.7700353000255,None,1336.2901745000272,None,1336.2901745000272,None,f,0.2055220000038389,1336.2901745000272,None,0.2055220000038389,,,29Aloud,001,2022_Aug_29_1101,ProdSingRedoBetween,2021.2.3,59.88888216553408,
,,,,158,0,158,0,,,,,,,,,,,,,,,,,,,,,,1342.0243505000253,None,,,,,,,,,,,,,,,,,search,131,159,aloud,new,null,1337.0229305000103,None,1337.0229305000103,None,2,4.30483720000484,1337.0229305000103,None,4.30483720000484,1341.3672225000046,None,1341.8743038000248,None,1341.8743038000248,None,r,0.12530789998709224,1341.8743038000248,None,0.12530789998709224,,,29Aloud,001,2022_Aug_29_1101,ProdSingRedoBetween,2021.2.3,59.88888216553408,
,,,,159,0,159,0,,,,,,,,,,,,,,,,,,,,,,1347.5843096000026,None,,,,,,,,,,,,,,,,,group,133,160,aloud,new,null,1342.5346779000247,None,1342.5346779000247,None,3,3.0010185999854,1342.5346779000247,None,3.0010185999854,1345.5688387000118,None,1346.0783378000197,None,1346.0783378000197,None,f,1.4814183999842498,1346.0783378000197,None,1.4814183999842498,,,29Aloud,001,2022_Aug_29_1101,ProdSingRedoBetween,2021.2.3,59.88888216553408,
,,,,160,0,160,0,,,,,,,,,,,,,,,,,,,,,,1351.3845066000067,None,,,,,,,,,,,,,,,,,capital,143,161,aloud,new,null,1348.1003598000098,None,1348.1003598000098,None,1,2.4674524000147358,1348.1003598000098,None,2.4674524000147358,1350.5900693000003,None,1351.1115058000141,None,1351.1115058000141,None,f,0.25613979998161085,1351.1115058000141,None,0.25613979998161085,,,29Aloud,001,2022_Aug_29_1101,ProdSingRedoBetween,2021.2.3,59.88888216553408,
,,,,161,0,161,0,,,,,,,,,,,,,,,,,,,,,,1356.3907776999986,None,,,,,,,,,,,,,,,,,angle,149,162,aloud,new,null,1351.8941459000052,None,1351.8941459000052,None,1,3.297424399992451,1351.8941459000052,None,3.297424399992451,1355.223188200005,None,1355.7381702999992,None,1355.7381702999992,None,f,0.6216794999781996,1355.7381702999992,None,0.6216794999781996,,,29Aloud,001,2022_Aug_29_1101,ProdSingRedoBetween,2021.2.3,59.88888216553408,
,,,,162,0,162,0,,,,,,,,,,,,,,,,,,,,,,1367.9668794000172,None,,,,,,,,,,,,,,,,,drove,177,163,aloud,new,null,1356.910239800025,None,1356.910239800025,None,1,10.273416299984092,1356.910239800025,None,10.273416299984092,1367.2008853000007,None,1367.7050496000156,None,1367.7050496000156,None,f,0.24661740000010468,1367.7050496000156,None,0.24661740000010468,,,29Aloud,001,2022_Aug_29_1101,ProdSingRedoBetween,2021.2.3,59.88888216553408,
,,,,163,0,163,0,,,,,,,,,,,,,,,,,,,,,,1376.975865000015,None,,,,,,,,,,,,,,,,,patient,100,164,aloud,new,null,1368.4701049000141,None,1368.4701049000141,None,3,7.753583000012441,1368.4701049000141,None,7.753583000012441,1376.2509772000194,None,1376.7591486000165,None,1376.7591486000165,None,f,0.20053000000189058,1376.7591486000165,None,0.20053000000189058,,,29Aloud,001,2022_Aug_29_1101,ProdSingRedoBetween,2021.2.3,59.88888216553408,
,,,,164,0,164,0,,,,,,,,,,,,,,,,,,,,,,1381.2803740000236,None,,,,,,,,,,,,,,,,,quiet,65,165,aloud,old,red,1377.4839695000264,None,1377.4839695000264,None,4,2.3478542999946512,1377.4839695000264,None,2.3478542999946512,1379.866849300015,None,1380.3793737000087,None,1380.3793737000087,None,f,0.8763296000252012,1380.3793737000087,None,0.8763296000252012,,,29Aloud,001,2022_Aug_29_1101,ProdSingRedoBetween,2021.2.3,59.88888216553408,
,,,,165,0,165,0,,,,,,,,,,,,,,,,,,,,,,1384.3666150000063,None,,,,,,,,,,,,,,,,,comfort,95,166,aloud,new,null,1381.7843689000001,None,1381.7843689000001,None,6,1.2553208000026643,1381.7843689000001,None,1.2553208000026643,1383.0724578000081,None,1383.587314000004,None,1383.587314000004,None,r,0.7483200999849942,1383.587314000004,None,0.7483200999849942,,,29Aloud,001,2022_Aug_29_1101,ProdSingRedoBetween,2021.2.3,59.88888216553408,
,,,,166,0,166,0,,,,,,,,,,,,,,,,,,,,,,1387.8033607000252,None,,,,,,,,,,,,,,,,,travel,158,167,aloud,new,null,1384.8694997000275,None,1384.8694997000275,None,2,2.258243299991591,1384.8694997000275,None,2.258243299991591,1387.1588978000218,None,1387.6714167000027,None,1387.6714167000027,None,f,0.10421389999100938,1387.6714167000027,None,0.10421389999100938,,,29Aloud,001,2022_Aug_29_1101,ProdSingRedoBetween,2021.2.3,59.88888216553408,
,,,,167,0,167,0,,,,,,,,,,,,,,,,,,,,,,1391.6238035999995,None,,,,,,,,,,,,,,,,,provision,120,168,aloud,new,null,1388.3163999000099,None,1388.3163999000099,None,1,2.5072265000198968,1388.3163999000099,None,2.5072265000198968,1390.841436800023,None,1391.3664480000152,None,1391.3664480000152,None,r,0.24105139999301173,1391.3664480000152,None,0.24105139999301173,,,29Aloud,001,2022_Aug_29_1101,ProdSingRedoBetween,2021.2.3,59.88888216553408,
,,,,168,0,168,0,,,,,,,,,,,,,,,,,,,,,,1398.8488078000082,None,,,,,,,,,,,,,,,,,universal,87,169,aloud,old,red,1392.1338966000185,None,1392.1338966000185,None,2,5.64990509999916,1392.1338966000185,None,5.64990509999916,1397.823094100022,None,1398.331834200013,None,1398.331834200013,None,f,0.49977369999396615,1398.331834200013,None,0.49977369999396615,,,29Aloud,001,2022_Aug_29_1101,ProdSingRedoBetween,2021.2.3,59.88888216553408,
,,,,169,0,169,0,,,,,,,,,,,,,,,,,,,,,,1403.0349796000228,None,,,,,,,,,,,,,,,,,sleep,32,170,aloud,old,blue,1399.3536546000105,None,1399.3536546000105,None,1,2.645954499981599,1399.3536546000105,None,2.645954499981599,1402.0179505000124,None,1402.5187707000005,None,1402.5187707000005,None,f,0.49688869999954477,1402.5187707000005,None,0.49688869999954477,,,29Aloud,001,2022_Aug_29_1101,ProdSingRedoBetween,2021.2.3,59.88888216553408,
,,,,170,0,170,0,,,,,,,,,,,,,,,,,,,,,,1409.1246393000183,None,,,,,,,,,,,,,,,,,light,153,171,aloud,new,null,1403.5386037999997,None,1403.5386037999997,None,3,4.309091400005855,1403.5386037999997,None,4.309091400005855,1407.8792972000083,None,1408.3931672000035,None,1408.3931672000035,None,r,0.7106912999879569,1408.3931672000035,None,0.7106912999879569,,,29Aloud,001,2022_Aug_29_1101,ProdSingRedoBetween,2021.2.3,59.88888216553408,
,,,,171,0,171,0,,,,,,,,,,,,,,,,,,,,,,1412.5305328000104,None,,,,,,,,,,,,,,,,,still,50,172,aloud,old,blue,1409.635436600016,None,1409.635436600016,None,6,2.2043961999879684,1409.635436600016,None,2.2043961999879684,1411.8688987000205,None,1412.3817535999988,None,1412.3817535999988,None,r,0.11429659998975694,1412.3817535999988,None,0.11429659998975694,,,29Aloud,001,2022_Aug_29_1101,ProdSingRedoBetween,2021.2.3,59.88888216553408,
,,,,172,0,172,0,,,,,,,,,,,,,,,,,,,,,,1421.2533985000046,None,,,,,,,,,,,,,,,,,short,38,173,aloud,old,blue,1413.051752600004,None,1413.051752600004,None,3,6.555774200009182,1413.051752600004,None,6.555774200009182,1419.634920100012,None,1420.1404375000275,None,1420.1404375000275,None,f,1.0911516000051051,1420.1404375000275,None,1.0911516000051051,,,29Aloud,001,2022_Aug_29_1101,ProdSingRedoBetween,2021.2.3,59.88888216553408,
,,,,173,0,173,0,,,,,,,,,,,,,,,,,,,,,,1430.5126703999995,None,,,,,,,,,,,,,,,,,scale,54,174,aloud,old,blue,1421.7632925000216,None,1421.7632925000216,None,1,6.324385499989148,1421.7632925000216,None,6.324385499989148,1428.1147784000204,None,1428.6303591000033,None,1428.6303591000033,None,f,1.857263799989596,1428.6303591000033,None,1.857263799989596,,,29Aloud,001,2022_Aug_29_1101,ProdSingRedoBetween,2021.2.3,59.88888216553408,
,,,,174,0,174,0,,,,,,,,,,,,,,,,,,,,,,1433.5517168000224,None,,,,,,,,,,,,,,,,,pretty,134,175,aloud,new,null,1431.0200179000094,None,1431.0200179000094,None,1,1.7076110999914818,1431.0200179000094,None,1.7076110999914818,1432.7577792000084,None,1433.27392040001,None,1433.27392040001,None,f,0.2457709000154864,1433.27392040001,None,0.2457709000154864,,,29Aloud,001,2022_Aug_29_1101,ProdSingRedoBetween,2021.2.3,59.88888216553408,
,,,,175,0,175,0,,,,,,,,,,,,,,,,,,,,,,1438.887608900026,None,,,,,,,,,,,,,,,,,concern,71,176,aloud,old,red,1434.072758000024,None,1434.072758000024,None,4,3.4230715000012424,1434.072758000024,None,3.4230715000012424,1437.5335619000252,None,1438.0391543000005,None,1438.0391543000005,None,f,0.8245470999972895,1438.0391543000005,None,0.8245470999972895,,,29Aloud,001,2022_Aug_29_1101,ProdSingRedoBetween,2021.2.3,59.88888216553408,
,,,,176,0,176,0,,,,,,,,,,,,,,,,,,,,,,1442.0587143000157,None,,,,,,,,,,,,,,,,,emergency,60,177,aloud,old,red,1439.4000871000171,None,1439.4000871000171,None,6,1.6716246000141837,1439.4000871000171,None,1.6716246000141837,1441.0965970000252,None,1441.607274900016,None,1441.607274900016,None,r,0.4243979000020772,1441.607274900016,None,0.4243979000020772,,,29Aloud,001,2022_Aug_29_1101,ProdSingRedoBetween,2021.2.3,59.88888216553408,
