StudyLoop.thisRepN,StudyLoop.thisTrialN,StudyLoop.thisN,StudyLoop.thisIndex,TestLoop.thisRepN,TestLoop.thisTrialN,TestLoop.thisN,TestLoop.thisIndex,textCondition.started,textCondition.stopped,keyCondition.keys,keyCondition.rt,keyCondition.started,keyCondition.stopped,Condition,textWelcome.started,textWelcome.stopped,keyWelcome.keys,keyWelcome.rt,keyWelcome.started,keyWelcome.stopped,textAloud.started,textAloud.stopped,textSilent.started,textSilent.stopped,textSing.started,textSing.stopped,conditional_text.started,conditional_text.stopped,textBlank500.started,textBlank500.stopped,study_word,study_num,study_order,study_type,word_color,textStudy.started,textStudy.stopped,keyStudy.keys,keyStudy.started,keyStudy.stopped,textTestInstructions.started,textTestInstructions.stopped,key_resp_3.keys,key_resp_3.rt,key_resp_3.started,key_resp_3.stopped,test_word,test_num,test_order,test_condition,old_new_test,test_word_original_color,textConf.started,textConf.stopped,textConfScale.started,textConfScale.stopped,keyConf.keys,keyConf.rt,keyConf.started,keyConf.stopped,confidence response time,textTestBlank.started,textTestBlank.stopped,textRKN.started,textRKN.stopped,textRKNScale.started,textRKNScale.stopped,keyRKN.keys,keyRKN.rt,keyRKN.started,keyRKN.stopped,rkn response time,textEnd.started,textEnd.stopped,participant,session,date,expName,psychopyVersion,frameRate,
,,,,,,,,21.573667499993462,None,b,4.224543399992399,21.573667499993462,None,,,,,,,,,,,,,,,,,,,,,,,,,,,,,,,,,,,,,,,,,,,,,,,,,,,,,,,,,,,,,,2Aloud,001,2022_Jun_24_1332,ProdSingRedoBetween,2021.2.3,60.02941441341143,
,,,,,,,,,,,,,,AloudTest,25.857454799988773,None,space,165.65288049998344,25.857454799988773,None,,,,,,,,,,,,,,,,,,,,,,,,,,,,,,,,,,,,,,,,,,,,,,,,,,,,,,,2Aloud,001,2022_Jun_24_1332,ProdSingRedoBetween,2021.2.3,60.02941441341143,
0,0,0,0,,,,,,,,,,,,,,,,,,25.857454799988773,None,25.857454799988773,None,25.857454799988773,None,25.857454799988773,None,194.0618400000094,None,goose,84,1,aloud,red,192.05443019999075,None,None,192.05443019999075,None,,,,,,,,,,,,,,,,,,,,,,,,,,,,,,,,,,,2Aloud,001,2022_Jun_24_1332,ProdSingRedoBetween,2021.2.3,60.02941441341143,
1,0,1,0,,,,,,,,,,,,,,,,,,,,,,,,,,196.5810097999929,None,quick,47,2,aloud,blue,194.58273560000816,None,None,194.58273560000816,None,,,,,,,,,,,,,,,,,,,,,,,,,,,,,,,,,,,2Aloud,001,2022_Jun_24_1332,ProdSingRedoBetween,2021.2.3,60.02941441341143,
2,0,2,0,,,,,,,,,,,,,,,,,,,,,,,,,,199.10021929998766,None,symbol,55,3,aloud,blue,197.0897479999985,None,None,197.0897479999985,None,,,,,,,,,,,,,,,,,,,,,,,,,,,,,,,,,,,2Aloud,001,2022_Jun_24_1332,ProdSingRedoBetween,2021.2.3,60.02941441341143,
3,0,3,0,,,,,,,,,,,,,,,,,,,,,,,,,,201.6193987999868,None,service,22,4,aloud,yellow,199.61389939999208,None,None,199.61389939999208,None,,,,,,,,,,,,,,,,,,,,,,,,,,,,,,,,,,,2Aloud,001,2022_Jun_24_1332,ProdSingRedoBetween,2021.2.3,60.02941441341143,
4,0,4,0,,,,,,,,,,,,,,,,,,,,,,,,,,204.13860450001084,None,nation,20,5,aloud,yellow,202.12618439999642,None,None,202.12618439999642,None,,,,,,,,,,,,,,,,,,,,,,,,,,,,,,,,,,,2Aloud,001,2022_Jun_24_1332,ProdSingRedoBetween,2021.2.3,60.02941441341143,
5,0,5,0,,,,,,,,,,,,,,,,,,,,,,,,,,206.6577477999963,None,report,30,6,aloud,blue,204.64716230001068,None,None,204.64716230001068,None,,,,,,,,,,,,,,,,,,,,,,,,,,,,,,,,,,,2Aloud,001,2022_Jun_24_1332,ProdSingRedoBetween,2021.2.3,60.02941441341143,
6,0,6,0,,,,,,,,,,,,,,,,,,,,,,,,,,209.17692050000187,None,carry,19,7,aloud,yellow,207.17240569999558,None,None,207.17240569999558,None,,,,,,,,,,,,,,,,,,,,,,,,,,,,,,,,,,,2Aloud,001,2022_Jun_24_1332,ProdSingRedoBetween,2021.2.3,60.02941441341143,
7,0,7,0,,,,,,,,,,,,,,,,,,,,,,,,,,211.69586919998983,None,revolution,46,8,aloud,blue,209.6875926000066,None,None,209.6875926000066,None,,,,,,,,,,,,,,,,,,,,,,,,,,,,,,,,,,,2Aloud,001,2022_Jun_24_1332,ProdSingRedoBetween,2021.2.3,60.02941441341143,
8,0,8,0,,,,,,,,,,,,,,,,,,,,,,,,,,214.2152964999841,None,payment,29,9,aloud,blue,212.20662159999483,None,None,212.20662159999483,None,,,,,,,,,,,,,,,,,,,,,,,,,,,,,,,,,,,2Aloud,001,2022_Jun_24_1332,ProdSingRedoBetween,2021.2.3,60.02941441341143,
9,0,9,0,,,,,,,,,,,,,,,,,,,,,,,,,,216.73856989998603,None,cover,80,10,aloud,red,214.7245459999831,None,None,214.7245459999831,None,,,,,,,,,,,,,,,,,,,,,,,,,,,,,,,,,,,2Aloud,001,2022_Jun_24_1332,ProdSingRedoBetween,2021.2.3,60.02941441341143,
10,0,10,0,,,,,,,,,,,,,,,,,,,,,,,,,,219.23700459999964,None,little,57,11,aloud,blue,217.23464660000172,None,None,217.23464660000172,None,,,,,,,,,,,,,,,,,,,,,,,,,,,,,,,,,,,2Aloud,001,2022_Jun_24_1332,ProdSingRedoBetween,2021.2.3,60.02941441341143,
11,0,11,0,,,,,,,,,,,,,,,,,,,,,,,,,,221.73923730000388,None,story,48,12,aloud,blue,219.73712979999254,None,None,219.73712979999254,None,,,,,,,,,,,,,,,,,,,,,,,,,,,,,,,,,,,2Aloud,001,2022_Jun_24_1332,ProdSingRedoBetween,2021.2.3,60.02941441341143,
12,0,12,0,,,,,,,,,,,,,,,,,,,,,,,,,,224.24204799998552,None,cousin,43,13,aloud,blue,222.2399114999862,None,None,222.2399114999862,None,,,,,,,,,,,,,,,,,,,,,,,,,,,,,,,,,,,2Aloud,001,2022_Jun_24_1332,ProdSingRedoBetween,2021.2.3,60.02941441341143,
13,0,13,0,,,,,,,,,,,,,,,,,,,,,,,,,,226.7441572000098,None,speech,59,14,aloud,yellow,224.742299000005,None,None,224.742299000005,None,,,,,,,,,,,,,,,,,,,,,,,,,,,,,,,,,,,2Aloud,001,2022_Jun_24_1332,ProdSingRedoBetween,2021.2.3,60.02941441341143,
14,0,14,0,,,,,,,,,,,,,,,,,,,,,,,,,,229.24674509998295,None,quarter,85,15,aloud,red,227.24471050000284,None,None,227.24471050000284,None,,,,,,,,,,,,,,,,,,,,,,,,,,,,,,,,,,,2Aloud,001,2022_Jun_24_1332,ProdSingRedoBetween,2021.2.3,60.02941441341143,
15,0,15,0,,,,,,,,,,,,,,,,,,,,,,,,,,231.7493017000088,None,front,11,16,aloud,yellow,229.74715809998452,None,None,229.74715809998452,None,,,,,,,,,,,,,,,,,,,,,,,,,,,,,,,,,,,2Aloud,001,2022_Jun_24_1332,ProdSingRedoBetween,2021.2.3,60.02941441341143,
16,0,16,0,,,,,,,,,,,,,,,,,,,,,,,,,,234.2515776999935,None,center,0,17,aloud,yellow,232.249685399991,None,None,232.249685399991,None,,,,,,,,,,,,,,,,,,,,,,,,,,,,,,,,,,,2Aloud,001,2022_Jun_24_1332,ProdSingRedoBetween,2021.2.3,60.02941441341143,
17,0,17,0,,,,,,,,,,,,,,,,,,,,,,,,,,236.7541782000044,None,dispute,13,18,aloud,yellow,234.75213959999382,None,None,234.75213959999382,None,,,,,,,,,,,,,,,,,,,,,,,,,,,,,,,,,,,2Aloud,001,2022_Jun_24_1332,ProdSingRedoBetween,2021.2.3,60.02941441341143,
18,0,18,0,,,,,,,,,,,,,,,,,,,,,,,,,,239.2569136999955,None,weather,39,19,aloud,blue,237.2566766999953,None,None,237.2566766999953,None,,,,,,,,,,,,,,,,,,,,,,,,,,,,,,,,,,,2Aloud,001,2022_Jun_24_1332,ProdSingRedoBetween,2021.2.3,60.02941441341143,
19,0,19,0,,,,,,,,,,,,,,,,,,,,,,,,,,241.77611929998966,None,danger,86,20,aloud,red,239.76484200000414,None,None,239.76484200000414,None,,,,,,,,,,,,,,,,,,,,,,,,,,,,,,,,,,,2Aloud,001,2022_Jun_24_1332,ProdSingRedoBetween,2021.2.3,60.02941441341143,
20,0,20,0,,,,,,,,,,,,,,,,,,,,,,,,,,244.29531429999042,None,dream,8,21,aloud,yellow,242.2848920999968,None,None,242.2848920999968,None,,,,,,,,,,,,,,,,,,,,,,,,,,,,,,,,,,,2Aloud,001,2022_Jun_24_1332,ProdSingRedoBetween,2021.2.3,60.02941441341143,
21,0,21,0,,,,,,,,,,,,,,,,,,,,,,,,,,246.81922750000376,None,scene,66,22,aloud,red,244.80545220000204,None,None,244.80545220000204,None,,,,,,,,,,,,,,,,,,,,,,,,,,,,,,,,,,,2Aloud,001,2022_Jun_24_1332,ProdSingRedoBetween,2021.2.3,60.02941441341143,
22,0,22,0,,,,,,,,,,,,,,,,,,,,,,,,,,249.33366010000464,None,fight,27,23,aloud,yellow,247.3232619999908,None,None,247.3232619999908,None,,,,,,,,,,,,,,,,,,,,,,,,,,,,,,,,,,,2Aloud,001,2022_Jun_24_1332,ProdSingRedoBetween,2021.2.3,60.02941441341143,
23,0,23,0,,,,,,,,,,,,,,,,,,,,,,,,,,251.8528532999917,None,range,72,24,aloud,red,249.84078359999694,None,None,249.84078359999694,None,,,,,,,,,,,,,,,,,,,,,,,,,,,,,,,,,,,2Aloud,001,2022_Jun_24_1332,ProdSingRedoBetween,2021.2.3,60.02941441341143,
24,0,24,0,,,,,,,,,,,,,,,,,,,,,,,,,,254.37197999999626,None,territory,9,25,aloud,yellow,252.36149640000076,None,None,252.36149640000076,None,,,,,,,,,,,,,,,,,,,,,,,,,,,,,,,,,,,2Aloud,001,2022_Jun_24_1332,ProdSingRedoBetween,2021.2.3,60.02941441341143,
25,0,25,0,,,,,,,,,,,,,,,,,,,,,,,,,,256.8912113000115,None,sight,83,26,aloud,red,254.8810158999986,None,None,254.8810158999986,None,,,,,,,,,,,,,,,,,,,,,,,,,,,,,,,,,,,2Aloud,001,2022_Jun_24_1332,ProdSingRedoBetween,2021.2.3,60.02941441341143,
26,0,26,0,,,,,,,,,,,,,,,,,,,,,,,,,,259.4103629000019,None,series,26,27,aloud,yellow,257.4002932999865,None,None,257.4002932999865,None,,,,,,,,,,,,,,,,,,,,,,,,,,,,,,,,,,,2Aloud,001,2022_Jun_24_1332,ProdSingRedoBetween,2021.2.3,60.02941441341143,
27,0,27,0,,,,,,,,,,,,,,,,,,,,,,,,,,261.92945319999126,None,people,81,28,aloud,red,259.9195029999828,None,None,259.9195029999828,None,,,,,,,,,,,,,,,,,,,,,,,,,,,,,,,,,,,2Aloud,001,2022_Jun_24_1332,ProdSingRedoBetween,2021.2.3,60.02941441341143,
28,0,28,0,,,,,,,,,,,,,,,,,,,,,,,,,,264.448731499986,None,management,33,29,aloud,blue,262.437270800001,None,None,262.437270800001,None,,,,,,,,,,,,,,,,,,,,,,,,,,,,,,,,,,,2Aloud,001,2022_Jun_24_1332,ProdSingRedoBetween,2021.2.3,60.02941441341143,
29,0,29,0,,,,,,,,,,,,,,,,,,,,,,,,,,266.9512264000077,None,message,25,30,aloud,yellow,264.94908540000324,None,None,264.94908540000324,None,,,,,,,,,,,,,,,,,,,,,,,,,,,,,,,,,,,2Aloud,001,2022_Jun_24_1332,ProdSingRedoBetween,2021.2.3,60.02941441341143,
30,0,30,0,,,,,,,,,,,,,,,,,,,,,,,,,,269.4537672000006,None,express,12,31,aloud,yellow,267.4513669000007,None,None,267.4513669000007,None,,,,,,,,,,,,,,,,,,,,,,,,,,,,,,,,,,,2Aloud,001,2022_Jun_24_1332,ProdSingRedoBetween,2021.2.3,60.02941441341143,
31,0,31,0,,,,,,,,,,,,,,,,,,,,,,,,,,271.9729248000076,None,provision,64,32,aloud,red,269.96931439999025,None,None,269.96931439999025,None,,,,,,,,,,,,,,,,,,,,,,,,,,,,,,,,,,,2Aloud,001,2022_Jun_24_1332,ProdSingRedoBetween,2021.2.3,60.02941441341143,
32,0,32,0,,,,,,,,,,,,,,,,,,,,,,,,,,274.49211029999424,None,citizen,49,33,aloud,blue,272.4858716999879,None,None,272.4858716999879,None,,,,,,,,,,,,,,,,,,,,,,,,,,,,,,,,,,,2Aloud,001,2022_Jun_24_1332,ProdSingRedoBetween,2021.2.3,60.02941441341143,
33,0,33,0,,,,,,,,,,,,,,,,,,,,,,,,,,277.01082339999266,None,straight,15,34,aloud,yellow,275.0012803999998,None,None,275.0012803999998,None,,,,,,,,,,,,,,,,,,,,,,,,,,,,,,,,,,,2Aloud,001,2022_Jun_24_1332,ProdSingRedoBetween,2021.2.3,60.02941441341143,
34,0,34,0,,,,,,,,,,,,,,,,,,,,,,,,,,279.5135817999835,None,smooth,45,35,aloud,blue,277.5113565000065,None,None,277.5113565000065,None,,,,,,,,,,,,,,,,,,,,,,,,,,,,,,,,,,,2Aloud,001,2022_Jun_24_1332,ProdSingRedoBetween,2021.2.3,60.02941441341143,
35,0,35,0,,,,,,,,,,,,,,,,,,,,,,,,,,282.03266299999086,None,disease,58,36,aloud,blue,280.0169847999932,None,None,280.0169847999932,None,,,,,,,,,,,,,,,,,,,,,,,,,,,,,,,,,,,2Aloud,001,2022_Jun_24_1332,ProdSingRedoBetween,2021.2.3,60.02941441341143,
36,0,36,0,,,,,,,,,,,,,,,,,,,,,,,,,,284.5517169999948,None,light,76,37,aloud,red,282.54085089999717,None,None,282.54085089999717,None,,,,,,,,,,,,,,,,,,,,,,,,,,,,,,,,,,,2Aloud,001,2022_Jun_24_1332,ProdSingRedoBetween,2021.2.3,60.02941441341143,
37,0,37,0,,,,,,,,,,,,,,,,,,,,,,,,,,287.0541860999947,None,ground,23,38,aloud,yellow,285.05222969999886,None,None,285.05222969999886,None,,,,,,,,,,,,,,,,,,,,,,,,,,,,,,,,,,,2Aloud,001,2022_Jun_24_1332,ProdSingRedoBetween,2021.2.3,60.02941441341143,
38,0,38,0,,,,,,,,,,,,,,,,,,,,,,,,,,289.55691630000365,None,executive,77,39,aloud,red,287.5553428999847,None,None,287.5553428999847,None,,,,,,,,,,,,,,,,,,,,,,,,,,,,,,,,,,,2Aloud,001,2022_Jun_24_1332,ProdSingRedoBetween,2021.2.3,60.02941441341143,
39,0,39,0,,,,,,,,,,,,,,,,,,,,,,,,,,292.0592400000023,None,display,69,40,aloud,red,290.0574077999918,None,None,290.0574077999918,None,,,,,,,,,,,,,,,,,,,,,,,,,,,,,,,,,,,2Aloud,001,2022_Jun_24_1332,ProdSingRedoBetween,2021.2.3,60.02941441341143,
40,0,40,0,,,,,,,,,,,,,,,,,,,,,,,,,,294.56209419999504,None,pretty,21,41,aloud,yellow,292.5600917999982,None,None,292.5600917999982,None,,,,,,,,,,,,,,,,,,,,,,,,,,,,,,,,,,,2Aloud,001,2022_Jun_24_1332,ProdSingRedoBetween,2021.2.3,60.02941441341143,
41,0,41,0,,,,,,,,,,,,,,,,,,,,,,,,,,297.08107539999764,None,attack,16,42,aloud,yellow,295.0748126000108,None,None,295.0748126000108,None,,,,,,,,,,,,,,,,,,,,,,,,,,,,,,,,,,,2Aloud,001,2022_Jun_24_1332,ProdSingRedoBetween,2021.2.3,60.02941441341143,
42,0,42,0,,,,,,,,,,,,,,,,,,,,,,,,,,299.5834971999866,None,balance,50,43,aloud,blue,297.58156699998653,None,None,297.58156699998653,None,,,,,,,,,,,,,,,,,,,,,,,,,,,,,,,,,,,2Aloud,001,2022_Jun_24_1332,ProdSingRedoBetween,2021.2.3,60.02941441341143,
43,0,43,0,,,,,,,,,,,,,,,,,,,,,,,,,,302.085957400006,None,education,87,44,aloud,red,300.08418320000055,None,None,300.08418320000055,None,,,,,,,,,,,,,,,,,,,,,,,,,,,,,,,,,,,2Aloud,001,2022_Jun_24_1332,ProdSingRedoBetween,2021.2.3,60.02941441341143,
44,0,44,0,,,,,,,,,,,,,,,,,,,,,,,,,,304.58845579999615,None,marriage,53,45,aloud,blue,302.58667940000305,None,None,302.58667940000305,None,,,,,,,,,,,,,,,,,,,,,,,,,,,,,,,,,,,2Aloud,001,2022_Jun_24_1332,ProdSingRedoBetween,2021.2.3,60.02941441341143,
45,0,45,0,,,,,,,,,,,,,,,,,,,,,,,,,,307.09084749998874,None,captain,6,46,aloud,yellow,305.0888944999897,None,None,305.0888944999897,None,,,,,,,,,,,,,,,,,,,,,,,,,,,,,,,,,,,2Aloud,001,2022_Jun_24_1332,ProdSingRedoBetween,2021.2.3,60.02941441341143,
46,0,46,0,,,,,,,,,,,,,,,,,,,,,,,,,,309.5934481000004,None,candidate,40,47,aloud,blue,307.591502700001,None,None,307.591502700001,None,,,,,,,,,,,,,,,,,,,,,,,,,,,,,,,,,,,2Aloud,001,2022_Jun_24_1332,ProdSingRedoBetween,2021.2.3,60.02941441341143,
47,0,47,0,,,,,,,,,,,,,,,,,,,,,,,,,,312.0959687999857,None,surprise,38,48,aloud,blue,310.09404019999783,None,None,310.09404019999783,None,,,,,,,,,,,,,,,,,,,,,,,,,,,,,,,,,,,2Aloud,001,2022_Jun_24_1332,ProdSingRedoBetween,2021.2.3,60.02941441341143,
48,0,48,0,,,,,,,,,,,,,,,,,,,,,,,,,,314.5984724999871,None,contract,65,49,aloud,red,312.5964374000032,None,None,312.5964374000032,None,,,,,,,,,,,,,,,,,,,,,,,,,,,,,,,,,,,2Aloud,001,2022_Jun_24_1332,ProdSingRedoBetween,2021.2.3,60.02941441341143,
49,0,49,0,,,,,,,,,,,,,,,,,,,,,,,,,,317.1009586,None,guest,14,50,aloud,yellow,315.0991065999842,None,None,315.0991065999842,None,,,,,,,,,,,,,,,,,,,,,,,,,,,,,,,,,,,2Aloud,001,2022_Jun_24_1332,ProdSingRedoBetween,2021.2.3,60.02941441341143,
50,0,50,0,,,,,,,,,,,,,,,,,,,,,,,,,,319.6034432000015,None,appearance,2,51,aloud,yellow,317.6015058000048,None,None,317.6015058000048,None,,,,,,,,,,,,,,,,,,,,,,,,,,,,,,,,,,,2Aloud,001,2022_Jun_24_1332,ProdSingRedoBetween,2021.2.3,60.02941441341143,
51,0,51,0,,,,,,,,,,,,,,,,,,,,,,,,,,322.10617620000266,None,religion,56,52,aloud,blue,320.1041547000059,None,None,320.1041547000059,None,,,,,,,,,,,,,,,,,,,,,,,,,,,,,,,,,,,2Aloud,001,2022_Jun_24_1332,ProdSingRedoBetween,2021.2.3,60.02941441341143,
52,0,52,0,,,,,,,,,,,,,,,,,,,,,,,,,,324.6084894000087,None,track,41,53,aloud,blue,322.6064402000047,None,None,322.6064402000047,None,,,,,,,,,,,,,,,,,,,,,,,,,,,,,,,,,,,2Aloud,001,2022_Jun_24_1332,ProdSingRedoBetween,2021.2.3,60.02941441341143,
53,0,53,0,,,,,,,,,,,,,,,,,,,,,,,,,,327.11101749999216,None,trend,60,54,aloud,red,325.1090039999981,None,None,325.1090039999981,None,,,,,,,,,,,,,,,,,,,,,,,,,,,,,,,,,,,2Aloud,001,2022_Jun_24_1332,ProdSingRedoBetween,2021.2.3,60.02941441341143,
54,0,54,0,,,,,,,,,,,,,,,,,,,,,,,,,,329.6140535000013,None,stranger,5,55,aloud,yellow,327.6114860000089,None,None,327.6114860000089,None,,,,,,,,,,,,,,,,,,,,,,,,,,,,,,,,,,,2Aloud,001,2022_Jun_24_1332,ProdSingRedoBetween,2021.2.3,60.02941441341143,
55,0,55,0,,,,,,,,,,,,,,,,,,,,,,,,,,332.1158146999951,None,school,78,56,aloud,red,330.1140289999894,None,None,330.1140289999894,None,,,,,,,,,,,,,,,,,,,,,,,,,,,,,,,,,,,2Aloud,001,2022_Jun_24_1332,ProdSingRedoBetween,2021.2.3,60.02941441341143,
56,0,56,0,,,,,,,,,,,,,,,,,,,,,,,,,,334.61837310000556,None,sound,51,57,aloud,blue,332.61643220001133,None,None,332.61643220001133,None,,,,,,,,,,,,,,,,,,,,,,,,,,,,,,,,,,,2Aloud,001,2022_Jun_24_1332,ProdSingRedoBetween,2021.2.3,60.02941441341143,
57,0,57,0,,,,,,,,,,,,,,,,,,,,,,,,,,337.12101629999233,None,defeat,75,58,aloud,red,335.11887529998785,None,None,335.11887529998785,None,,,,,,,,,,,,,,,,,,,,,,,,,,,,,,,,,,,2Aloud,001,2022_Jun_24_1332,ProdSingRedoBetween,2021.2.3,60.02941441341143,
58,0,58,0,,,,,,,,,,,,,,,,,,,,,,,,,,339.62328890000936,None,owner,70,59,aloud,red,337.6214316000114,None,None,337.6214316000114,None,,,,,,,,,,,,,,,,,,,,,,,,,,,,,,,,,,,2Aloud,001,2022_Jun_24_1332,ProdSingRedoBetween,2021.2.3,60.02941441341143,
59,0,59,0,,,,,,,,,,,,,,,,,,,,,,,,,,342.1259991999832,None,pattern,74,60,aloud,red,340.1240767999843,None,None,340.1240767999843,None,,,,,,,,,,,,,,,,,,,,,,,,,,,,,,,,,,,2Aloud,001,2022_Jun_24_1332,ProdSingRedoBetween,2021.2.3,60.02941441341143,
60,0,60,0,,,,,,,,,,,,,,,,,,,,,,,,,,344.62830199999735,None,profession,37,61,aloud,blue,342.6264332999999,None,None,342.6264332999999,None,,,,,,,,,,,,,,,,,,,,,,,,,,,,,,,,,,,2Aloud,001,2022_Jun_24_1332,ProdSingRedoBetween,2021.2.3,60.02941441341143,
61,0,61,0,,,,,,,,,,,,,,,,,,,,,,,,,,347.13082409999333,None,figure,3,62,aloud,yellow,345.1288601999986,None,None,345.1288601999986,None,,,,,,,,,,,,,,,,,,,,,,,,,,,,,,,,,,,2Aloud,001,2022_Jun_24_1332,ProdSingRedoBetween,2021.2.3,60.02941441341143,
62,0,62,0,,,,,,,,,,,,,,,,,,,,,,,,,,349.63344760000473,None,capital,82,63,aloud,red,347.6314529000083,None,None,347.6314529000083,None,,,,,,,,,,,,,,,,,,,,,,,,,,,,,,,,,,,2Aloud,001,2022_Jun_24_1332,ProdSingRedoBetween,2021.2.3,60.02941441341143,
63,0,63,0,,,,,,,,,,,,,,,,,,,,,,,,,,352.136058700009,None,tennis,68,64,aloud,red,350.13400590000674,None,None,350.13400590000674,None,,,,,,,,,,,,,,,,,,,,,,,,,,,,,,,,,,,2Aloud,001,2022_Jun_24_1332,ProdSingRedoBetween,2021.2.3,60.02941441341143,
64,0,64,0,,,,,,,,,,,,,,,,,,,,,,,,,,354.6386566000001,None,medicine,52,65,aloud,blue,352.6365448999859,None,None,352.6365448999859,None,,,,,,,,,,,,,,,,,,,,,,,,,,,,,,,,,,,2Aloud,001,2022_Jun_24_1332,ProdSingRedoBetween,2021.2.3,60.02941441341143,
65,0,65,0,,,,,,,,,,,,,,,,,,,,,,,,,,357.15786899998784,None,force,62,66,aloud,red,355.1511746000033,None,None,355.1511746000033,None,,,,,,,,,,,,,,,,,,,,,,,,,,,,,,,,,,,2Aloud,001,2022_Jun_24_1332,ProdSingRedoBetween,2021.2.3,60.02941441341143,
66,0,66,0,,,,,,,,,,,,,,,,,,,,,,,,,,359.66028320000623,None,guide,36,67,aloud,blue,357.65827439998975,None,None,357.65827439998975,None,,,,,,,,,,,,,,,,,,,,,,,,,,,,,,,,,,,2Aloud,001,2022_Jun_24_1332,ProdSingRedoBetween,2021.2.3,60.02941441341143,
67,0,67,0,,,,,,,,,,,,,,,,,,,,,,,,,,362.17939790000673,None,write,4,68,aloud,yellow,360.17160679999506,None,None,360.17160679999506,None,,,,,,,,,,,,,,,,,,,,,,,,,,,,,,,,,,,2Aloud,001,2022_Jun_24_1332,ProdSingRedoBetween,2021.2.3,60.02941441341143,
68,0,68,0,,,,,,,,,,,,,,,,,,,,,,,,,,364.69873840000946,None,design,67,69,aloud,red,362.6890681000077,None,None,362.6890681000077,None,,,,,,,,,,,,,,,,,,,,,,,,,,,,,,,,,,,2Aloud,001,2022_Jun_24_1332,ProdSingRedoBetween,2021.2.3,60.02941441341143,
69,0,69,0,,,,,,,,,,,,,,,,,,,,,,,,,,367.2178897999984,None,incident,7,70,aloud,yellow,365.21185170000535,None,None,365.21185170000535,None,,,,,,,,,,,,,,,,,,,,,,,,,,,,,,,,,,,2Aloud,001,2022_Jun_24_1332,ProdSingRedoBetween,2021.2.3,60.02941441341143,
70,0,70,0,,,,,,,,,,,,,,,,,,,,,,,,,,369.7202164999908,None,question,89,71,aloud,red,367.7207020999922,None,None,367.7207020999922,None,,,,,,,,,,,,,,,,,,,,,,,,,,,,,,,,,,,2Aloud,001,2022_Jun_24_1332,ProdSingRedoBetween,2021.2.3,60.02941441341143,
71,0,71,0,,,,,,,,,,,,,,,,,,,,,,,,,,372.2444755999895,None,husband,54,72,aloud,blue,370.2327384999953,None,None,370.2327384999953,None,,,,,,,,,,,,,,,,,,,,,,,,,,,,,,,,,,,2Aloud,001,2022_Jun_24_1332,ProdSingRedoBetween,2021.2.3,60.02941441341143,
72,0,72,0,,,,,,,,,,,,,,,,,,,,,,,,,,374.7420836999954,None,government,32,73,aloud,blue,372.7401768999989,None,None,372.7401768999989,None,,,,,,,,,,,,,,,,,,,,,,,,,,,,,,,,,,,2Aloud,001,2022_Jun_24_1332,ProdSingRedoBetween,2021.2.3,60.02941441341143,
73,0,73,0,,,,,,,,,,,,,,,,,,,,,,,,,,377.261305299995,None,patient,71,74,aloud,red,375.2535168000031,None,None,375.2535168000031,None,,,,,,,,,,,,,,,,,,,,,,,,,,,,,,,,,,,2Aloud,001,2022_Jun_24_1332,ProdSingRedoBetween,2021.2.3,60.02941441341143,
74,0,74,0,,,,,,,,,,,,,,,,,,,,,,,,,,379.7804621999967,None,afternoon,61,75,aloud,red,377.7740238000115,None,None,377.7740238000115,None,,,,,,,,,,,,,,,,,,,,,,,,,,,,,,,,,,,2Aloud,001,2022_Jun_24_1332,ProdSingRedoBetween,2021.2.3,60.02941441341143,
75,0,75,0,,,,,,,,,,,,,,,,,,,,,,,,,,382.2829220999847,None,member,79,76,aloud,red,380.2816734999942,None,None,380.2816734999942,None,,,,,,,,,,,,,,,,,,,,,,,,,,,,,,,,,,,2Aloud,001,2022_Jun_24_1332,ProdSingRedoBetween,2021.2.3,60.02941441341143,
76,0,76,0,,,,,,,,,,,,,,,,,,,,,,,,,,384.8020350000006,None,discovery,88,77,aloud,red,382.80354920000536,None,None,382.80354920000536,None,,,,,,,,,,,,,,,,,,,,,,,,,,,,,,,,,,,2Aloud,001,2022_Jun_24_1332,ProdSingRedoBetween,2021.2.3,60.02941441341143,
77,0,77,0,,,,,,,,,,,,,,,,,,,,,,,,,,387.32093640000676,None,space,34,78,aloud,blue,385.3105791999842,None,None,385.3105791999842,None,,,,,,,,,,,,,,,,,,,,,,,,,,,,,,,,,,,2Aloud,001,2022_Jun_24_1332,ProdSingRedoBetween,2021.2.3,60.02941441341143,
78,0,78,0,,,,,,,,,,,,,,,,,,,,,,,,,,389.8237755000009,None,drove,42,79,aloud,blue,387.82156979999854,None,None,387.82156979999854,None,,,,,,,,,,,,,,,,,,,,,,,,,,,,,,,,,,,2Aloud,001,2022_Jun_24_1332,ProdSingRedoBetween,2021.2.3,60.02941441341143,
79,0,79,0,,,,,,,,,,,,,,,,,,,,,,,,,,392.34299979999196,None,victory,1,80,aloud,yellow,390.33612469999935,None,None,390.33612469999935,None,,,,,,,,,,,,,,,,,,,,,,,,,,,,,,,,,,,2Aloud,001,2022_Jun_24_1332,ProdSingRedoBetween,2021.2.3,60.02941441341143,
80,0,80,0,,,,,,,,,,,,,,,,,,,,,,,,,,394.8454434000014,None,crime,63,81,aloud,red,392.84324690001085,None,None,392.84324690001085,None,,,,,,,,,,,,,,,,,,,,,,,,,,,,,,,,,,,2Aloud,001,2022_Jun_24_1332,ProdSingRedoBetween,2021.2.3,60.02941441341143,
81,0,81,0,,,,,,,,,,,,,,,,,,,,,,,,,,397.36467589999666,None,foundation,35,82,aloud,blue,395.35549089999404,None,None,395.35549089999404,None,,,,,,,,,,,,,,,,,,,,,,,,,,,,,,,,,,,2Aloud,001,2022_Jun_24_1332,ProdSingRedoBetween,2021.2.3,60.02941441341143,
82,0,82,0,,,,,,,,,,,,,,,,,,,,,,,,,,399.88364369998453,None,month,17,83,aloud,yellow,397.8716465999896,None,None,397.8716465999896,None,,,,,,,,,,,,,,,,,,,,,,,,,,,,,,,,,,,2Aloud,001,2022_Jun_24_1332,ProdSingRedoBetween,2021.2.3,60.02941441341143,
83,0,83,0,,,,,,,,,,,,,,,,,,,,,,,,,,402.40298579999944,None,session,44,84,aloud,blue,400.39332519998425,None,None,400.39332519998425,None,,,,,,,,,,,,,,,,,,,,,,,,,,,,,,,,,,,2Aloud,001,2022_Jun_24_1332,ProdSingRedoBetween,2021.2.3,60.02941441341143,
84,0,84,0,,,,,,,,,,,,,,,,,,,,,,,,,,404.9221916999959,None,military,24,85,aloud,yellow,402.9128747000068,None,None,402.9128747000068,None,,,,,,,,,,,,,,,,,,,,,,,,,,,,,,,,,,,2Aloud,001,2022_Jun_24_1332,ProdSingRedoBetween,2021.2.3,60.02941441341143,
85,0,85,0,,,,,,,,,,,,,,,,,,,,,,,,,,407.4244252000062,None,taste,18,86,aloud,yellow,405.42271109999274,None,None,405.42271109999274,None,,,,,,,,,,,,,,,,,,,,,,,,,,,,,,,,,,,2Aloud,001,2022_Jun_24_1332,ProdSingRedoBetween,2021.2.3,60.02941441341143,
86,0,86,0,,,,,,,,,,,,,,,,,,,,,,,,,,409.92716039999505,None,guard,28,87,aloud,yellow,407.92479150000145,None,None,407.92479150000145,None,,,,,,,,,,,,,,,,,,,,,,,,,,,,,,,,,,,2Aloud,001,2022_Jun_24_1332,ProdSingRedoBetween,2021.2.3,60.02941441341143,
87,0,87,0,,,,,,,,,,,,,,,,,,,,,,,,,,412.44633279999834,None,trial,73,88,aloud,red,410.43610299998545,None,None,410.43610299998545,None,,,,,,,,,,,,,,,,,,,,,,,,,,,,,,,,,,,2Aloud,001,2022_Jun_24_1332,ProdSingRedoBetween,2021.2.3,60.02941441341143,
88,0,88,0,,,,,,,,,,,,,,,,,,,,,,,,,,414.96551839998574,None,throw,31,89,aloud,blue,412.95461250000517,None,None,412.95461250000517,None,,,,,,,,,,,,,,,,,,,,,,,,,,,,,,,,,,,2Aloud,001,2022_Jun_24_1332,ProdSingRedoBetween,2021.2.3,60.02941441341143,
89,0,89,0,,,,,,,,,,,,,,,,,,,,,,,,,,417.4843339000072,None,short,10,90,aloud,yellow,415.4731891999836,None,None,415.4731891999836,None,,,,,,,,,,,,,,,,,,,,,,,,,,,,,,,,,,,2Aloud,001,2022_Jun_24_1332,ProdSingRedoBetween,2021.2.3,60.02941441341143,
,,,,,,,,,,,,,,,,,,,,,,,,,,,,,,,,,,,,,,,,,417.98538959998405,None,k,99.68442629999481,417.98538959998405,None,,,,,,,,,,,,,,,,,,,,,,,,,,,,,2Aloud,001,2022_Jun_24_1332,ProdSingRedoBetween,2021.2.3,60.02941441341143,
,,,,0,0,0,0,,,,,,,,,,,,,,,,,,,,,,522.7757743999828,None,,,,,,,,,,,,,,,,,election,131,1,aloud,new,null,518.2076814000029,None,518.2076814000029,None,1,3.118033100006869,518.2076814000029,None,3.118033100006869,521.3730724999914,None,521.8846629000036,None,521.8846629000036,None,n,0.8569215999741573,521.8846629000036,None,0.8569215999741573,,,2Aloud,001,2022_Jun_24_1332,ProdSingRedoBetween,2021.2.3,60.02941441341143,
,,,,1,0,1,0,,,,,,,,,,,,,,,,,,,,,,525.6284998999909,None,,,,,,,,,,,,,,,,,frank,93,2,aloud,new,null,523.3045868999907,None,523.3045868999907,None,1,1.5170855000033043,523.3045868999907,None,1.5170855000033043,524.8599470999907,None,525.3674833000114,None,525.3674833000114,None,n,0.23811999999452382,525.3674833000114,None,0.23811999999452382,,,2Aloud,001,2022_Jun_24_1332,ProdSingRedoBetween,2021.2.3,60.02941441341143,
,,,,2,0,2,0,,,,,,,,,,,,,,,,,,,,,,530.6159871999989,None,,,,,,,,,,,,,,,,,straight,15,3,aloud,old,yellow,526.1430647000088,None,526.1430647000088,None,5,3.2786052000010386,526.1430647000088,None,3.2786052000010386,529.4625622000021,None,529.971157699998,None,529.971157699998,None,f,0.6185041999851819,529.971157699998,None,0.6185041999851819,,,2Aloud,001,2022_Jun_24_1332,ProdSingRedoBetween,2021.2.3,60.02941441341143,
,,,,3,0,3,0,,,,,,,,,,,,,,,,,,,,,,534.3343448000087,None,,,,,,,,,,,,,,,,,story,48,4,aloud,old,blue,531.1460710999963,None,531.1460710999963,None,5,2.0192429999879096,531.1460710999963,None,2.0192429999879096,533.1837133000081,None,533.6839727000042,None,533.6839727000042,None,f,0.6334321999747772,533.6839727000042,None,0.6334321999747772,,,2Aloud,001,2022_Jun_24_1332,ProdSingRedoBetween,2021.2.3,60.02941441341143,
,,,,4,0,4,0,,,,,,,,,,,,,,,,,,,,,,537.5378632000065,None,,,,,,,,,,,,,,,,,executive,77,5,aloud,old,red,534.8509537999926,None,534.8509537999926,None,6,2.026548699999694,534.8509537999926,None,2.026548699999694,536.9142781999835,None,537.4206762000103,None,537.4206762000103,None,r,0.09662240001489408,537.4206762000103,None,0.09662240001489408,,,2Aloud,001,2022_Jun_24_1332,ProdSingRedoBetween,2021.2.3,60.02941441341143,
,,,,5,0,5,0,,,,,,,,,,,,,,,,,,,,,,541.8533566999831,None,,,,,,,,,,,,,,,,,period,176,6,aloud,new,null,538.0414177000057,None,538.0414177000057,None,4,2.7559459000185598,538.0414177000057,None,2.7559459000185598,540.8243447999994,None,541.3411191999912,None,541.3411191999912,None,f,0.48058199998922646,541.3411191999912,None,0.48058199998922646,,,2Aloud,001,2022_Jun_24_1332,ProdSingRedoBetween,2021.2.3,60.02941441341143,
,,,,6,0,6,0,,,,,,,,,,,,,,,,,,,,,,546.471172599995,None,,,,,,,,,,,,,,,,,smell,120,7,aloud,new,null,542.3753067000071,None,542.3753067000071,None,3,2.74226220001583,542.3753067000071,None,2.74226220001583,545.1583588999929,None,545.6692927000113,None,545.6692927000113,None,f,0.7762485999846831,545.6692927000113,None,0.7762485999846831,,,2Aloud,001,2022_Jun_24_1332,ProdSingRedoBetween,2021.2.3,60.02941441341143,
,,,,7,0,7,0,,,,,,,,,,,,,,,,,,,,,,551.625283500005,None,,,,,,,,,,,,,,,,,guide,36,8,aloud,old,blue,546.991042300011,None,546.991042300011,None,5,2.9263835000165273,546.991042300011,None,2.9263835000165273,549.9402179000026,None,550.4573754000012,None,550.4573754000012,None,f,1.1322971000045072,550.4573754000012,None,1.1322971000045072,,,2Aloud,001,2022_Jun_24_1332,ProdSingRedoBetween,2021.2.3,60.02941441341143,
,,,,8,0,8,0,,,,,,,,,,,,,,,,,,,,,,556.645217399986,None,,,,,,,,,,,,,,,,,gesture,163,9,aloud,new,null,552.1480104000075,None,552.1480104000075,None,3,3.4175482999999076,552.1480104000075,None,3.4175482999999076,555.611458600004,None,556.1315334000101,None,556.1315334000101,None,f,0.4820363000035286,556.1315334000101,None,0.4820363000035286,,,2Aloud,001,2022_Jun_24_1332,ProdSingRedoBetween,2021.2.3,60.02941441341143,
,,,,9,0,9,0,,,,,,,,,,,,,,,,,,,,,,560.3474879999994,None,,,,,,,,,,,,,,,,,trial,73,10,aloud,old,red,557.1685002000013,None,557.1685002000013,None,6,1.7968842999835033,557.1685002000013,None,1.7968842999835033,559.0074164000107,None,559.5163795999833,None,559.5163795999833,None,r,0.809235599997919,559.5163795999833,None,0.809235599997919,,,2Aloud,001,2022_Jun_24_1332,ProdSingRedoBetween,2021.2.3,60.02941441341143,
,,,,10,0,10,0,,,,,,,,,,,,,,,,,,,,,,564.1879530999868,None,,,,,,,,,,,,,,,,,portion,165,11,aloud,new,null,560.8720017999876,None,560.8720017999876,None,6,2.485768199985614,560.8720017999876,None,2.485768199985614,563.3939189999946,None,563.9026060999895,None,563.9026060999895,None,r,0.2469981000176631,563.9026060999895,None,0.2469981000176631,,,2Aloud,001,2022_Jun_24_1332,ProdSingRedoBetween,2021.2.3,60.02941441341143,
,,,,11,0,11,0,,,,,,,,,,,,,,,,,,,,,,567.0312939999858,None,,,,,,,,,,,,,,,,,poetry,119,12,aloud,new,null,564.7109980999958,None,564.7109980999958,None,2,1.7105756999808364,564.7109980999958,None,1.7105756999808364,566.4670579000085,None,566.9757618999865,None,566.9757618999865,None,n,0.021844100003363565,566.9757618999865,None,0.021844100003363565,,,2Aloud,001,2022_Jun_24_1332,ProdSingRedoBetween,2021.2.3,60.02941441341143,
,,,,12,0,12,0,,,,,,,,,,,,,,,,,,,,,,572.2131425999978,None,,,,,,,,,,,,,,,,,history,100,13,aloud,new,null,567.5341002999921,None,567.5341002999921,None,3,2.2714922000013757,567.5341002999921,None,2.2714922000013757,569.8378054999921,None,570.3439617000113,None,570.3439617000113,None,f,1.83763349999208,570.3439617000113,None,1.83763349999208,,,2Aloud,001,2022_Jun_24_1332,ProdSingRedoBetween,2021.2.3,60.02941441341143,
,,,,13,0,13,0,,,,,,,,,,,,,,,,,,,,,,575.8271959999984,None,,,,,,,,,,,,,,,,,recall,142,14,aloud,new,null,572.7289749000047,None,572.7289749000047,None,2,2.508665100001963,572.7289749000047,None,2.508665100001963,575.2741835000052,None,575.7758765000035,None,575.7758765000035,None,n,0.02961729999515228,575.7758765000035,None,0.02961729999515228,,,2Aloud,001,2022_Jun_24_1332,ProdSingRedoBetween,2021.2.3,60.02941441341143,
,,,,14,0,14,0,,,,,,,,,,,,,,,,,,,,,,578.4130207999842,None,,,,,,,,,,,,,,,,,report,30,15,aloud,old,blue,576.3436416999903,None,576.3436416999903,None,6,1.133888799988199,576.3436416999903,None,1.133888799988199,577.5126343999873,None,578.0209444999928,None,578.0209444999928,None,r,0.36850630000117235,578.0209444999928,None,0.36850630000117235,,,2Aloud,001,2022_Jun_24_1332,ProdSingRedoBetween,2021.2.3,60.02941441341143,
,,,,15,0,15,0,,,,,,,,,,,,,,,,,,,,,,581.7397812999843,None,,,,,,,,,,,,,,,,,trail,135,16,aloud,new,null,578.9277100999898,None,578.9277100999898,None,4,1.965889100014465,578.9277100999898,None,1.965889100014465,580.9299963999947,None,581.4366594000021,None,581.4366594000021,None,f,0.27290179999545217,581.4366594000021,None,0.27290179999545217,,,2Aloud,001,2022_Jun_24_1332,ProdSingRedoBetween,2021.2.3,60.02941441341143,
,,,,16,0,16,0,,,,,,,,,,,,,,,,,,,,,,585.5199326000002,None,,,,,,,,,,,,,,,,,literature,161,17,aloud,new,null,582.2605128999858,None,582.2605128999858,None,3,2.5610345999884885,582.2605128999858,None,2.5610345999884885,584.8660716000013,None,585.3740514999954,None,585.3740514999954,None,f,0.11955010000383481,585.3740514999954,None,0.11955010000383481,,,2Aloud,001,2022_Jun_24_1332,ProdSingRedoBetween,2021.2.3,60.02941441341143,
,,,,17,0,17,0,,,,,,,,,,,,,,,,,,,,,,589.172982899996,None,,,,,,,,,,,,,,,,,grade,144,18,aloud,new,null,586.0349978999875,None,586.0349978999875,None,5,2.378538099990692,586.0349978999875,None,2.378538099990692,588.4487074000062,None,588.9610307999828,None,588.9610307999828,None,f,0.18853630000376143,588.9610307999828,None,0.18853630000376143,,,2Aloud,001,2022_Jun_24_1332,ProdSingRedoBetween,2021.2.3,60.02941441341143,
,,,,18,0,18,0,,,,,,,,,,,,,,,,,,,,,,592.4176586999965,None,,,,,,,,,,,,,,,,,leader,178,19,aloud,new,null,589.6890167999954,None,589.6890167999954,None,4,2.084426799992798,589.6890167999954,None,2.084426799992798,591.8101964000089,None,592.3140508999932,None,592.3140508999932,None,f,0.07551819999935105,592.3140508999932,None,0.07551819999935105,,,2Aloud,001,2022_Jun_24_1332,ProdSingRedoBetween,2021.2.3,60.02941441341143,
,,,,19,0,19,0,,,,,,,,,,,,,,,,,,,,,,596.3129997999931,None,,,,,,,,,,,,,,,,,smooth,45,20,aloud,old,blue,592.9402146000066,None,592.9402146000066,None,3,2.6890557000006083,592.9402146000066,None,2.6890557000006083,595.6523705,None,596.1790827999939,None,596.1790827999939,None,n,0.1142503000155557,596.1790827999939,None,0.1142503000155557,,,2Aloud,001,2022_Jun_24_1332,ProdSingRedoBetween,2021.2.3,60.02941441341143,
,,,,20,0,20,0,,,,,,,,,,,,,,,,,,,,,,601.2632359999989,None,,,,,,,,,,,,,,,,,broad,171,21,aloud,new,null,596.8134620999917,None,596.8134620999917,None,2,3.392185700009577,596.8134620999917,None,3.392185700009577,600.2493350000004,None,600.7562892999849,None,600.7562892999849,None,n,0.4732145000016317,600.7562892999849,None,0.4732145000016317,,,2Aloud,001,2022_Jun_24_1332,ProdSingRedoBetween,2021.2.3,60.02941441341143,
,,,,21,0,21,0,,,,,,,,,,,,,,,,,,,,,,604.6711923999828,None,,,,,,,,,,,,,,,,,season,149,22,aloud,new,null,601.7861095999833,None,601.7861095999833,None,4,1.8033738000085577,601.7861095999833,None,1.8033738000085577,603.6315805999911,None,604.1447757999995,None,604.1447757999995,None,f,0.5005317000031937,604.1447757999995,None,0.5005317000031937,,,2Aloud,001,2022_Jun_24_1332,ProdSingRedoBetween,2021.2.3,60.02941441341143,
,,,,22,0,22,0,,,,,,,,,,,,,,,,,,,,,,607.2597897000087,None,,,,,,,,,,,,,,,,,incident,7,23,aloud,old,yellow,605.1857427000068,None,605.1857427000068,None,6,1.2758360999869183,605.1857427000068,None,1.2758360999869183,606.5064148000092,None,607.0127699000004,None,607.0127699000004,None,r,0.22467379999579862,607.0127699000004,None,0.22467379999579862,,,2Aloud,001,2022_Jun_24_1332,ProdSingRedoBetween,2021.2.3,60.02941441341143,
,,,,23,0,23,0,,,,,,,,,,,,,,,,,,,,,,610.7640638999874,None,,,,,,,,,,,,,,,,,style,145,24,aloud,new,null,607.7900120999839,None,607.7900120999839,None,3,1.8794806000078097,607.7900120999839,None,1.8794806000078097,609.7093243999989,None,610.2194606999983,None,610.2194606999983,None,f,0.5219581999990623,610.2194606999983,None,0.5219581999990623,,,2Aloud,001,2022_Jun_24_1332,ProdSingRedoBetween,2021.2.3,60.02941441341143,
,,,,24,0,24,0,,,,,,,,,,,,,,,,,,,,,,613.7157106999948,None,,,,,,,,,,,,,,,,,murder,127,25,aloud,new,null,611.2894502999843,None,611.2894502999843,None,1,1.740017899981467,611.2894502999843,None,1.740017899981467,613.0646642000065,None,613.5875600999861,None,613.5875600999861,None,n,0.09787240001605824,613.5875600999861,None,0.09787240001605824,,,2Aloud,001,2022_Jun_24_1332,ProdSingRedoBetween,2021.2.3,60.02941441341143,
,,,,25,0,25,0,,,,,,,,,,,,,,,,,,,,,,616.617437799985,None,,,,,,,,,,,,,,,,,quarter,85,26,aloud,old,red,614.2429910000064,None,614.2429910000064,None,6,1.162404200003948,614.2429910000064,None,1.162404200003948,615.4431422000052,None,615.9542458000069,None,615.9542458000069,None,r,0.6350864999985788,615.9542458000069,None,0.6350864999985788,,,2Aloud,001,2022_Jun_24_1332,ProdSingRedoBetween,2021.2.3,60.02941441341143,
,,,,26,0,26,0,,,,,,,,,,,,,,,,,,,,,,619.8538947000052,None,,,,,,,,,,,,,,,,,payment,29,27,aloud,old,blue,617.1344813999895,None,617.1344813999895,None,3,2.1109738999803085,617.1344813999895,None,2.1109738999803085,619.2871681000106,None,619.7926434999972,None,619.7926434999972,None,n,0.036774400010472164,619.7926434999972,None,0.036774400010472164,,,2Aloud,001,2022_Jun_24_1332,ProdSingRedoBetween,2021.2.3,60.02941441341143,
,,,,27,0,27,0,,,,,,,,,,,,,,,,,,,,,,623.3145484999986,None,,,,,,,,,,,,,,,,,rough,147,28,aloud,new,null,620.3690272000094,None,620.3690272000094,None,3,2.2203658999933396,620.3690272000094,None,2.2203658999933396,622.6124504999898,None,623.1287442999892,None,623.1287442999892,None,f,0.14892380000674166,623.1287442999892,None,0.14892380000674166,,,2Aloud,001,2022_Jun_24_1332,ProdSingRedoBetween,2021.2.3,60.02941441341143,
,,,,28,0,28,0,,,,,,,,,,,,,,,,,,,,,,626.1632882999838,None,,,,,,,,,,,,,,,,,taste,18,29,aloud,old,yellow,623.8354880000115,None,623.8354880000115,None,5,1.2181100999878254,623.8354880000115,None,1.2181100999878254,625.0926581000094,None,625.6017777000088,None,625.6017777000088,None,f,0.5395203999942169,625.6017777000088,None,0.5395203999942169,,,2Aloud,001,2022_Jun_24_1332,ProdSingRedoBetween,2021.2.3,60.02941441341143,
,,,,29,0,29,0,,,,,,,,,,,,,,,,,,,,,,630.1007975999964,None,,,,,,,,,,,,,,,,,appearance,2,30,aloud,old,yellow,626.6919674999954,None,626.6919674999954,None,5,2.4895625000062864,626.6919674999954,None,2.4895625000062864,629.2304957000015,None,629.746203799994,None,629.746203799994,None,f,0.32321490001049824,629.746203799994,None,0.32321490001049824,,,2Aloud,001,2022_Jun_24_1332,ProdSingRedoBetween,2021.2.3,60.02941441341143,
,,,,30,0,30,0,,,,,,,,,,,,,,,,,,,,,,632.9994248999865,None,,,,,,,,,,,,,,,,,sunset,122,31,aloud,new,null,630.6301302000065,None,630.6301302000065,None,1,1.3512654000078328,630.6301302000065,None,1.3512654000078328,632.0107736999926,None,632.5246066999971,None,632.5246066999971,None,n,0.4484938000096008,632.5246066999971,None,0.4484938000096008,,,2Aloud,001,2022_Jun_24_1332,ProdSingRedoBetween,2021.2.3,60.02941441341143,
,,,,31,0,31,0,,,,,,,,,,,,,,,,,,,,,,635.2193193999992,None,,,,,,,,,,,,,,,,,drama,90,32,aloud,new,null,633.5150399999984,None,633.5150399999984,None,1,1.0825050999992527,633.5150399999984,None,1.0825050999992527,634.6345055999991,None,635.1422732000065,None,635.1422732000065,None,n,0.055014000012306497,635.1422732000065,None,0.055014000012306497,,,2Aloud,001,2022_Jun_24_1332,ProdSingRedoBetween,2021.2.3,60.02941441341143,
,,,,32,0,32,0,,,,,,,,,,,,,,,,,,,,,,637.7172636000032,None,,,,,,,,,,,,,,,,,contract,65,33,aloud,old,red,635.7332346999901,None,635.7332346999901,None,5,1.1923210000095423,635.7332346999901,None,1.1923210000095423,636.9635510999942,None,637.4754586000054,None,637.4754586000054,None,f,0.21010739999474026,637.4754586000054,None,0.21010739999474026,,,2Aloud,001,2022_Jun_24_1332,ProdSingRedoBetween,2021.2.3,60.02941441341143,
,,,,33,0,33,0,,,,,,,,,,,,,,,,,,,,,,641.8273886000097,None,,,,,,,,,,,,,,,,,scene,66,34,aloud,old,red,638.2379091999901,None,638.2379091999901,None,3,2.6475145000149496,638.2379091999901,None,2.6475145000149496,640.9194621999923,None,641.4319728999981,None,641.4319728999981,None,n,0.3735071999835782,641.4319728999981,None,0.3735071999835782,,,2Aloud,001,2022_Jun_24_1332,ProdSingRedoBetween,2021.2.3,60.02941441341143,
,,,,34,0,34,0,,,,,,,,,,,,,,,,,,,,,,644.5471484999871,None,,,,,,,,,,,,,,,,,medicine,52,35,aloud,old,blue,642.3517218999914,None,642.3517218999914,None,6,1.5657819999905769,642.3517218999914,None,1.5657819999905769,643.9548819999909,None,644.4673481000063,None,644.4673481000063,None,r,0.058015799993881956,644.4673481000063,None,0.058015799993881956,,,2Aloud,001,2022_Jun_24_1332,ProdSingRedoBetween,2021.2.3,60.02941441341143,
,,,,35,0,35,0,,,,,,,,,,,,,,,,,,,,,,647.3985344000102,None,,,,,,,,,,,,,,,,,article,101,36,aloud,new,null,645.0649551000097,None,645.0649551000097,None,3,1.6606337999983225,645.0649551000097,None,1.6606337999983225,646.7633895000035,None,647.2707018000074,None,647.2707018000074,None,f,0.0946121999877505,647.2707018000074,None,0.0946121999877505,,,2Aloud,001,2022_Jun_24_1332,ProdSingRedoBetween,2021.2.3,60.02941441341143,
,,,,36,0,36,0,,,,,,,,,,,,,,,,,,,,,,650.8872530999943,None,,,,,,,,,,,,,,,,,color,97,37,aloud,new,null,647.9122027999838,None,647.9122027999838,None,3,1.82923919998575,647.9122027999838,None,1.82923919998575,649.7875032000011,None,650.3038795999892,None,650.3038795999892,None,n,0.5575904000143055,650.3038795999892,None,0.5575904000143055,,,2Aloud,001,2022_Jun_24_1332,ProdSingRedoBetween,2021.2.3,60.02941441341143,
,,,,37,0,37,0,,,,,,,,,,,,,,,,,,,,,,653.6067227000021,None,,,,,,,,,,,,,,,,,commercial,129,38,aloud,new,null,651.41392240001,None,651.41392240001,None,5,1.5675213000213262,651.41392240001,None,1.5675213000213262,653.0195059000107,None,653.5277604000003,None,653.5277604000003,None,f,0.05355360000976361,653.5277604000003,None,0.05355360000976361,,,2Aloud,001,2022_Jun_24_1332,ProdSingRedoBetween,2021.2.3,60.02941441341143,
,,,,38,0,38,0,,,,,,,,,,,,,,,,,,,,,,657.1331896999909,None,,,,,,,,,,,,,,,,,principal,117,39,aloud,new,null,654.1359050000028,None,654.1359050000028,None,4,2.2775535999971908,654.1359050000028,None,2.2775535999971908,656.4550838999858,None,656.9656209000095,None,656.9656209000095,None,f,0.13588329998310655,656.9656209000095,None,0.13588329998310655,,,2Aloud,001,2022_Jun_24_1332,ProdSingRedoBetween,2021.2.3,60.02941441341143,
,,,,39,0,39,0,,,,,,,,,,,,,,,,,,,,,,661.5637196000025,None,,,,,,,,,,,,,,,,,majority,170,40,aloud,new,null,657.6508244999859,None,657.6508244999859,None,3,2.9386102000134997,657.6508244999859,None,2.9386102000134997,660.6344078000111,None,661.1566986000107,None,661.1566986000107,None,n,0.3765630000270903,661.1566986000107,None,0.3765630000270903,,,2Aloud,001,2022_Jun_24_1332,ProdSingRedoBetween,2021.2.3,60.02941441341143,
,,,,40,0,40,0,,,,,,,,,,,,,,,,,,,,,,664.6163186999911,None,,,,,,,,,,,,,,,,,design,67,41,aloud,old,red,662.0921580999857,None,662.0921580999857,None,1,1.6892989999905694,662.0921580999857,None,1.6892989999905694,663.8089122000092,None,664.3220570999838,None,664.3220570999838,None,n,0.267362199985655,664.3220570999838,None,0.267362199985655,,,2Aloud,001,2022_Jun_24_1332,ProdSingRedoBetween,2021.2.3,60.02941441341143,
,,,,41,0,41,0,,,,,,,,,,,,,,,,,,,,,,668.8390786999953,None,,,,,,,,,,,,,,,,,charter,112,42,aloud,new,null,665.1451515000081,None,665.1451515000081,None,4,2.700089100020705,665.1451515000081,None,2.700089100020705,667.8706828999857,None,668.390759300004,None,668.390759300004,None,f,0.4226168999739457,668.390759300004,None,0.4226168999739457,,,2Aloud,001,2022_Jun_24_1332,ProdSingRedoBetween,2021.2.3,60.02941441341143,
,,,,42,0,42,0,,,,,,,,,,,,,,,,,,,,,,671.5970265000069,None,,,,,,,,,,,,,,,,,impact,174,43,aloud,new,null,669.3679461999855,None,669.3679461999855,None,1,1.2853017000015825,669.3679461999855,None,1.2853017000015825,670.6799190999882,None,671.1974043000082,None,671.1974043000082,None,n,0.3598673999949824,671.1974043000082,None,0.3598673999949824,,,2Aloud,001,2022_Jun_24_1332,ProdSingRedoBetween,2021.2.3,60.02941441341143,
,,,,43,0,43,0,,,,,,,,,,,,,,,,,,,,,,676.083802100009,None,,,,,,,,,,,,,,,,,population,152,44,aloud,new,null,672.1234295000031,None,672.1234295000031,None,1,2.9458836000121664,672.1234295000031,None,2.9458836000121664,675.1106612999865,None,675.6220364999899,None,675.6220364999899,None,n,0.42340540001168847,675.6220364999899,None,0.42340540001168847,,,2Aloud,001,2022_Jun_24_1332,ProdSingRedoBetween,2021.2.3,60.02941441341143,
,,,,44,0,44,0,,,,,,,,,,,,,,,,,,,,,,679.5709614999942,None,,,,,,,,,,,,,,,,,character,173,45,aloud,new,null,676.6046955999918,None,676.6046955999918,None,5,2.3526944000041112,676.6046955999918,None,2.3526944000041112,678.9943711000087,None,679.5010122999956,None,679.5010122999956,None,f,0.04050869998172857,679.5010122999956,None,0.04050869998172857,,,2Aloud,001,2022_Jun_24_1332,ProdSingRedoBetween,2021.2.3,60.02941441341143,
,,,,45,0,45,0,,,,,,,,,,,,,,,,,,,,,,682.5750120999874,None,,,,,,,,,,,,,,,,,message,25,46,aloud,old,yellow,680.0928229999845,None,680.0928229999845,None,1,1.5764862000069115,680.0928229999845,None,1.5764862000069115,681.7138076999981,None,682.2246598000056,None,682.2246598000056,None,n,0.3247269999992568,682.2246598000056,None,0.3247269999992568,,,2Aloud,001,2022_Jun_24_1332,ProdSingRedoBetween,2021.2.3,60.02941441341143,
,,,,46,0,46,0,,,,,,,,,,,,,,,,,,,,,,684.6966832999897,None,,,,,,,,,,,,,,,,,citizen,49,47,aloud,old,blue,683.0978558000061,None,683.0978558000061,None,6,0.9875884000211954,683.0978558000061,None,0.9875884000211954,684.1151000999962,None,684.6268003000005,None,684.6268003000005,None,r,0.034790200006682426,684.6268003000005,None,0.034790200006682426,,,2Aloud,001,2022_Jun_24_1332,ProdSingRedoBetween,2021.2.3,60.02941441341143,
,,,,47,0,47,0,,,,,,,,,,,,,,,,,,,,,,687.2516767999914,None,,,,,,,,,,,,,,,,,hearing,116,48,aloud,new,null,685.2168021000107,None,685.2168021000107,None,3,1.412440299987793,685.2168021000107,None,1.412440299987793,686.65997410001,None,687.1775995999924,None,687.1775995999924,None,n,0.04358729999512434,687.1775995999924,None,0.04358729999512434,,,2Aloud,001,2022_Jun_24_1332,ProdSingRedoBetween,2021.2.3,60.02941441341143,
,,,,48,0,48,0,,,,,,,,,,,,,,,,,,,,,,689.8261082000099,None,,,,,,,,,,,,,,,,,symbol,55,49,aloud,old,blue,687.7546034000115,None,687.7546034000115,None,5,1.154864499985706,687.7546034000115,None,1.154864499985706,688.9573604000034,None,689.4812429999874,None,689.4812429999874,None,f,0.3161121000011917,689.4812429999874,None,0.3161121000011917,,,2Aloud,001,2022_Jun_24_1332,ProdSingRedoBetween,2021.2.3,60.02941441341143,
,,,,49,0,49,0,,,,,,,,,,,,,,,,,,,,,,693.8667118999874,None,,,,,,,,,,,,,,,,,blind,162,50,aloud,new,null,690.3512136999925,None,690.3512136999925,None,3,2.654199900018284,690.3512136999925,None,2.654199900018284,693.0416661000054,None,693.5485134999908,None,693.5485134999908,None,f,0.2970264999894425,693.5485134999908,None,0.2970264999894425,,,2Aloud,001,2022_Jun_24_1332,ProdSingRedoBetween,2021.2.3,60.02941441341143,
,,,,50,0,50,0,,,,,,,,,,,,,,,,,,,,,,696.9722581999958,None,,,,,,,,,,,,,,,,,title,118,51,aloud,new,null,694.3880152000056,None,694.3880152000056,None,1,1.7133073000004515,694.3880152000056,None,1.7133073000004515,696.1441369999957,None,696.6527313999832,None,696.6527313999832,None,n,0.2806077999994159,696.6527313999832,None,0.2806077999994159,,,2Aloud,001,2022_Jun_24_1332,ProdSingRedoBetween,2021.2.3,60.02941441341143,
,,,,51,0,51,0,,,,,,,,,,,,,,,,,,,,,,699.5050391000113,None,,,,,,,,,,,,,,,,,cover,80,52,aloud,old,red,697.4865590999834,None,697.4865590999834,None,4,1.286812700011069,697.4865590999834,None,1.286812700011069,698.8128905000049,None,699.3228416999918,None,699.3228416999918,None,f,0.14645209998707287,699.3228416999918,None,0.14645209998707287,,,2Aloud,001,2022_Jun_24_1332,ProdSingRedoBetween,2021.2.3,60.02941441341143,
,,,,52,0,52,0,,,,,,,,,,,,,,,,,,,,,,702.5607476999867,None,,,,,,,,,,,,,,,,,under,148,53,aloud,new,null,700.0219975000073,None,700.0219975000073,None,2,1.671365699992748,700.0219975000073,None,1.671365699992748,701.7282729999861,None,702.2426433000073,None,702.2426433000073,None,n,0.29083800001535565,702.2426433000073,None,0.29083800001535565,,,2Aloud,001,2022_Jun_24_1332,ProdSingRedoBetween,2021.2.3,60.02941441341143,
,,,,53,0,53,0,,,,,,,,,,,,,,,,,,,,,,705.1583017999947,None,,,,,,,,,,,,,,,,,match,91,54,aloud,new,null,703.0787496999837,None,703.0787496999837,None,2,1.1586254000139888,703.0787496999837,None,1.1586254000139888,704.2708638999902,None,704.7796531000058,None,704.7796531000058,None,n,0.35363040000083856,704.7796531000058,None,0.35363040000083856,,,2Aloud,001,2022_Jun_24_1332,ProdSingRedoBetween,2021.2.3,60.02941441341143,
,,,,54,0,54,0,,,,,,,,,,,,,,,,,,,,,,708.5167481999961,None,,,,,,,,,,,,,,,,,strain,166,55,aloud,new,null,705.6873267999908,None,705.6873267999908,None,1,1.79823449999094,705.6873267999908,None,1.79823449999094,707.5178742999851,None,708.0329625000013,None,708.0329625000013,None,n,0.4444022999959998,708.0329625000013,None,0.4444022999959998,,,2Aloud,001,2022_Jun_24_1332,ProdSingRedoBetween,2021.2.3,60.02941441341143,
,,,,55,0,55,0,,,,,,,,,,,,,,,,,,,,,,710.7962416000082,None,,,,,,,,,,,,,,,,,government,32,56,aloud,old,blue,709.0396878999891,None,709.0396878999891,None,6,1.077579999982845,709.0396878999891,None,1.077579999982845,710.153874199983,None,710.6666725999967,None,710.6666725999967,None,r,0.09857859998010099,710.6666725999967,None,0.09857859998010099,,,2Aloud,001,2022_Jun_24_1332,ProdSingRedoBetween,2021.2.3,60.02941441341143,
,,,,56,0,56,0,,,,,,,,,,,,,,,,,,,,,,713.2222150999878,None,,,,,,,,,,,,,,,,,series,26,57,aloud,old,yellow,711.3266342999996,None,711.3266342999996,None,3,1.2707209000072908,711.3266342999996,None,1.2707209000072908,712.6310095000081,None,713.1560833999829,None,713.1560833999829,None,f,0.025556999986292794,713.1560833999829,None,0.025556999986292794,,,2Aloud,001,2022_Jun_24_1332,ProdSingRedoBetween,2021.2.3,60.02941441341143,
,,,,57,0,57,0,,,,,,,,,,,,,,,,,,,,,,715.9579282999912,None,,,,,,,,,,,,,,,,,member,79,58,aloud,old,red,713.7446612000058,None,713.7446612000058,None,4,1.244620399986161,713.7446612000058,None,1.244620399986161,715.0299101999844,None,715.5381214999943,None,715.5381214999943,None,f,0.3951505000004545,715.5381214999943,None,0.3951505000004545,,,2Aloud,001,2022_Jun_24_1332,ProdSingRedoBetween,2021.2.3,60.02941441341143,
,,,,58,0,58,0,,,,,,,,,,,,,,,,,,,,,,718.2852291000017,None,,,,,,,,,,,,,,,,,household,130,59,aloud,new,null,716.4785604999925,None,716.4785604999925,None,1,1.1984452000178862,716.4785604999925,None,1.1984452000178862,717.7008496999915,None,718.2071477999853,None,718.2071477999853,None,n,0.062170199991669506,718.2071477999853,None,0.062170199991669506,,,2Aloud,001,2022_Jun_24_1332,ProdSingRedoBetween,2021.2.3,60.02941441341143,
,,,,59,0,59,0,,,,,,,,,,,,,,,,,,,,,,721.3207929999917,None,,,,,,,,,,,,,,,,,display,69,60,aloud,old,red,718.7979399999895,None,718.7979399999895,None,5,1.5750737999915145,718.7979399999895,None,1.5750737999915145,720.4107059999951,None,720.9303445999976,None,720.9303445999976,None,f,0.36271940000006,720.9303445999976,None,0.36271940000006,,,2Aloud,001,2022_Jun_24_1332,ProdSingRedoBetween,2021.2.3,60.02941441341143,
,,,,60,0,60,0,,,,,,,,,,,,,,,,,,,,,,723.9305850999954,None,,,,,,,,,,,,,,,,,short,10,61,aloud,old,yellow,721.8215103999828,None,721.8215103999828,None,2,1.0555853999976534,721.8215103999828,None,1.0555853999976534,722.9064326999942,None,723.4162975999934,None,723.4162975999934,None,n,0.477093599998625,723.4162975999934,None,0.477093599998625,,,2Aloud,001,2022_Jun_24_1332,ProdSingRedoBetween,2021.2.3,60.02941441341143,
,,,,61,0,61,0,,,,,,,,,,,,,,,,,,,,,,726.9197041000007,None,,,,,,,,,,,,,,,,,audience,158,62,aloud,new,null,724.4536110000045,None,724.4536110000045,None,2,1.4956872999900952,724.4536110000045,None,1.4956872999900952,725.9909918000048,None,726.500734900008,None,726.500734900008,None,n,0.3926101000106428,726.500734900008,None,0.3926101000106428,,,2Aloud,001,2022_Jun_24_1332,ProdSingRedoBetween,2021.2.3,60.02941441341143,
,,,,62,0,62,0,,,,,,,,,,,,,,,,,,,,,,729.8482132999925,None,,,,,,,,,,,,,,,,,business,95,63,aloud,new,null,727.4433564000065,None,727.4433564000065,None,5,1.6019539999833796,727.4433564000065,None,1.6019539999833796,729.0802726999973,None,729.5886701999989,None,729.5886701999989,None,f,0.2404926000162959,729.5886701999989,None,0.2404926000162959,,,2Aloud,001,2022_Jun_24_1332,ProdSingRedoBetween,2021.2.3,60.02941441341143,
,,,,63,0,63,0,,,,,,,,,,,,,,,,,,,,,,733.7521956999844,None,,,,,,,,,,,,,,,,,danger,86,64,aloud,old,red,730.3738247999863,None,730.3738247999863,None,5,2.7513764000032097,730.3738247999863,None,2.7513764000032097,733.1576184000005,None,733.6721839999955,None,733.6721839999955,None,f,0.06108510002377443,733.6721839999955,None,0.06108510002377443,,,2Aloud,001,2022_Jun_24_1332,ProdSingRedoBetween,2021.2.3,60.02941441341143,
,,,,64,0,64,0,,,,,,,,,,,,,,,,,,,,,,735.9689920000092,None,,,,,,,,,,,,,,,,,figure,3,65,aloud,old,yellow,734.2834941000037,None,734.2834941000037,None,6,1.0660498999932315,734.2834941000037,None,1.0660498999932315,735.3873028999951,None,735.8926269999938,None,735.8926269999938,None,r,0.048400200001196936,735.8926269999938,None,0.048400200001196936,,,2Aloud,001,2022_Jun_24_1332,ProdSingRedoBetween,2021.2.3,60.02941441341143,
,,,,65,0,65,0,,,,,,,,,,,,,,,,,,,,,,738.9492644999991,None,,,,,,,,,,,,,,,,,month,17,66,aloud,old,yellow,736.4843262000068,None,736.4843262000068,None,2,1.4809851999743842,736.4843262000068,None,1.4809851999743842,737.9991862000024,None,738.5179024999961,None,738.5179024999961,None,n,0.39929549998487346,738.5179024999961,None,0.39929549998487346,,,2Aloud,001,2022_Jun_24_1332,ProdSingRedoBetween,2021.2.3,60.02941441341143,
,,,,66,0,66,0,,,,,,,,,,,,,,,,,,,,,,741.4241234000074,None,,,,,,,,,,,,,,,,,agency,151,67,aloud,new,null,739.4716790000093,None,739.4716790000093,None,2,0.9574499999871477,739.4716790000093,None,0.9574499999871477,740.4646969999885,None,740.9826179000083,None,740.9826179000083,None,n,0.4225199999928009,740.9826179000083,None,0.4225199999928009,,,2Aloud,001,2022_Jun_24_1332,ProdSingRedoBetween,2021.2.3,60.02941441341143,
,,,,67,0,67,0,,,,,,,,,,,,,,,,,,,,,,744.9200452000077,None,,,,,,,,,,,,,,,,,express,12,68,aloud,old,yellow,741.9450765000074,None,741.9450765000074,None,3,2.292091600014828,741.9450765000074,None,2.292091600014828,744.2680809999874,None,744.7777023999952,None,744.7777023999952,None,f,0.10792470001615584,744.7777023999952,None,0.10792470001615584,,,2Aloud,001,2022_Jun_24_1332,ProdSingRedoBetween,2021.2.3,60.02941441341143,
,,,,68,0,68,0,,,,,,,,,,,,,,,,,,,,,,747.4800702999928,None,,,,,,,,,,,,,,,,,range,72,69,aloud,old,red,745.4429911999905,None,745.4429911999905,None,1,1.194411600008607,745.4429911999905,None,1.194411600008607,746.6726567999867,None,747.1873836999875,None,747.1873836999875,None,n,0.2735603000037372,747.1873836999875,None,0.2735603000037372,,,2Aloud,001,2022_Jun_24_1332,ProdSingRedoBetween,2021.2.3,60.02941441341143,
,,,,69,0,69,0,,,,,,,,,,,,,,,,,,,,,,749.5184765000013,None,,,,,,,,,,,,,,,,,speech,59,70,aloud,old,yellow,747.9810676999914,None,747.9810676999914,None,1,0.9202258999866899,747.9810676999914,None,0.9202258999866899,748.9499448999995,None,749.4575386999932,None,749.4575386999932,None,n,0.027819299983093515,749.4575386999932,None,0.027819299983093515,,,2Aloud,001,2022_Jun_24_1332,ProdSingRedoBetween,2021.2.3,60.02941441341143,
,,,,70,0,70,0,,,,,,,,,,,,,,,,,,,,,,752.1198512999981,None,,,,,,,,,,,,,,,,,measure,128,71,aloud,new,null,750.046794599999,None,750.046794599999,None,6,1.1346352999971714,750.046794599999,None,1.1346352999971714,751.2202697999892,None,751.744742299983,None,751.744742299983,None,r,0.3563729000161402,751.744742299983,None,0.3563729000161402,,,2Aloud,001,2022_Jun_24_1332,ProdSingRedoBetween,2021.2.3,60.02941441341143,
,,,,71,0,71,0,,,,,,,,,,,,,,,,,,,,,,754.840268800006,None,,,,,,,,,,,,,,,,,review,157,72,aloud,new,null,752.6377729999949,None,752.6377729999949,None,3,1.2954336999973748,752.6377729999949,None,1.2954336999973748,753.9647783999972,None,754.4792264999996,None,754.4792264999996,None,f,0.3420201000117231,754.4792264999996,None,0.3420201000117231,,,2Aloud,001,2022_Jun_24_1332,ProdSingRedoBetween,2021.2.3,60.02941441341143,
,,,,72,0,72,0,,,,,,,,,,,,,,,,,,,,,,757.3423427999951,None,,,,,,,,,,,,,,,,,space,34,73,aloud,old,blue,755.3702355999849,None,755.3702355999849,None,1,1.0830746999999974,755.3702355999849,None,1.0830746999999974,756.4833087000006,None,756.9982403999893,None,756.9982403999893,None,n,0.31094719999236986,756.9982403999893,None,0.31094719999236986,,,2Aloud,001,2022_Jun_24_1332,ProdSingRedoBetween,2021.2.3,60.02941441341143,
,,,,73,0,73,0,,,,,,,,,,,,,,,,,,,,,,763.003826900007,None,,,,,,,,,,,,,,,,,cousin,43,74,aloud,old,blue,757.8721918000083,None,757.8721918000083,None,1,3.82901220000349,757.8721918000083,None,3.82901220000349,761.744598099991,None,762.2528672000044,None,762.2528672000044,None,n,0.7124514000024647,762.2528672000044,None,0.7124514000024647,,,2Aloud,001,2022_Jun_24_1332,ProdSingRedoBetween,2021.2.3,60.02941441341143,
,,,,74,0,74,0,,,,,,,,,,,,,,,,,,,,,,767.6903926999948,None,,,,,,,,,,,,,,,,,threat,143,75,aloud,new,null,763.5217645000084,None,763.5217645000084,None,3,3.5473942999960855,763.5217645000084,None,3.5473942999960855,767.1052611999912,None,767.6222166999942,None,767.6222166999942,None,f,0.023018499981844798,767.6222166999942,None,0.023018499981844798,,,2Aloud,001,2022_Jun_24_1332,ProdSingRedoBetween,2021.2.3,60.02941441341143,
,,,,75,0,75,0,,,,,,,,,,,,,,,,,,,,,,770.5439430999977,None,,,,,,,,,,,,,,,,,tennis,68,76,aloud,old,red,768.2170652000059,None,768.2170652000059,None,1,1.3002291999873705,768.2170652000059,None,1.3002291999873705,769.5509992000007,None,770.0601207999862,None,770.0601207999862,None,n,0.45715180001570843,770.0601207999862,None,0.45715180001570843,,,2Aloud,001,2022_Jun_24_1332,ProdSingRedoBetween,2021.2.3,60.02941441341143,
,,,,76,0,76,0,,,,,,,,,,,,,,,,,,,,,,772.7567491999944,None,,,,,,,,,,,,,,,,,candidate,40,77,aloud,old,blue,771.0646146000072,None,771.0646146000072,None,4,1.0848376999783795,771.0646146000072,None,1.0848376999783795,772.1865925999882,None,772.6968365999928,None,772.6968365999928,None,f,0.03628709999611601,772.6968365999928,None,0.03628709999611601,,,2Aloud,001,2022_Jun_24_1332,ProdSingRedoBetween,2021.2.3,60.02941441341143,
,,,,77,0,77,0,,,,,,,,,,,,,,,,,,,,,,777.5267128999985,None,,,,,,,,,,,,,,,,,people,81,78,aloud,old,red,773.2716925999848,None,773.2716925999848,None,3,3.6696775000018533,773.2716925999848,None,3.6696775000018533,776.9729699000018,None,777.4769936999946,None,777.4769936999946,None,n,0.023916499980259687,777.4769936999946,None,0.023916499980259687,,,2Aloud,001,2022_Jun_24_1332,ProdSingRedoBetween,2021.2.3,60.02941441341143,
,,,,78,0,78,0,,,,,,,,,,,,,,,,,,,,,,782.7398158999858,None,,,,,,,,,,,,,,,,,instrument,141,79,aloud,new,null,778.029646799987,None,778.029646799987,None,4,3.6958354999951553,778.029646799987,None,3.6958354999951553,781.7652289000107,None,782.2663637000078,None,782.2663637000078,None,f,0.4509974999818951,782.2663637000078,None,0.4509974999818951,,,2Aloud,001,2022_Jun_24_1332,ProdSingRedoBetween,2021.2.3,60.02941441341143,
,,,,79,0,79,0,,,,,,,,,,,,,,,,,,,,,,785.651678299997,None,,,,,,,,,,,,,,,,,alert,125,80,aloud,new,null,783.2543513999844,None,783.2543513999844,None,2,1.6626725000096485,783.2543513999844,None,1.6626725000096485,784.9350198000029,None,785.4350932000089,None,785.4350932000089,None,n,0.1859091000223998,785.4350932000089,None,0.1859091000223998,,,2Aloud,001,2022_Jun_24_1332,ProdSingRedoBetween,2021.2.3,60.02941441341143,
,,,,80,0,80,0,,,,,,,,,,,,,,,,,,,,,,788.3710685999831,None,,,,,,,,,,,,,,,,,pretty,21,81,aloud,old,yellow,786.1640580999956,None,786.1640580999956,None,6,1.417232999985572,786.1640580999956,None,1.417232999985572,787.619309200003,None,788.1340721999877,None,788.1340721999877,None,r,0.20699920001788996,788.1340721999877,None,0.20699920001788996,,,2Aloud,001,2022_Jun_24_1332,ProdSingRedoBetween,2021.2.3,60.02941441341143,
,,,,81,0,81,0,,,,,,,,,,,,,,,,,,,,,,790.9912010999979,None,,,,,,,,,,,,,,,,,search,134,82,aloud,new,null,788.8925086999952,None,788.8925086999952,None,3,1.4246412999927998,788.8925086999952,None,1.4246412999927998,790.3496879999875,None,790.8642733999877,None,790.8642733999877,None,f,0.10089420000440441,790.8642733999877,None,0.10089420000440441,,,2Aloud,001,2022_Jun_24_1332,ProdSingRedoBetween,2021.2.3,60.02941441341143,
,,,,82,0,82,0,,,,,,,,,,,,,,,,,,,,,,793.1678511000064,None,,,,,,,,,,,,,,,,,employment,111,83,aloud,new,null,791.5103346999967,None,791.5103346999967,None,6,1.038749800005462,791.5103346999967,None,1.038749800005462,792.5846643999976,None,793.1014320999966,None,793.1014320999966,None,r,0.031864299991866574,793.1014320999966,None,0.031864299991866574,,,2Aloud,001,2022_Jun_24_1332,ProdSingRedoBetween,2021.2.3,60.02941441341143,
,,,,83,0,83,0,,,,,,,,,,,,,,,,,,,,,,795.646232900006,None,,,,,,,,,,,,,,,,,bright,155,84,aloud,new,null,793.6914688000106,None,793.6914688000106,None,2,1.3535119000007398,793.6914688000106,None,1.3535119000007398,795.0656700000109,None,795.5858602999942,None,795.5858602999942,None,n,0.03517930000089109,795.5858602999942,None,0.03517930000089109,,,2Aloud,001,2022_Jun_24_1332,ProdSingRedoBetween,2021.2.3,60.02941441341143,
,,,,84,0,84,0,,,,,,,,,,,,,,,,,,,,,,797.9165580999979,None,,,,,,,,,,,,,,,,,profession,37,85,aloud,old,blue,796.1630858999852,None,796.1630858999852,None,5,1.0819070999859832,796.1630858999852,None,1.0819070999859832,797.2702934999834,None,797.7877286000003,None,797.7877286000003,None,f,0.10537169998860918,797.7877286000003,None,0.10537169998860918,,,2Aloud,001,2022_Jun_24_1332,ProdSingRedoBetween,2021.2.3,60.02941441341143,
,,,,85,0,85,0,,,,,,,,,,,,,,,,,,,,,,801.0169299999834,None,,,,,,,,,,,,,,,,,narrow,154,86,aloud,new,null,798.4524528000038,None,798.4524528000038,None,3,1.5610489000100642,798.4524528000038,None,1.5610489000100642,800.0506251000043,None,800.5567397999985,None,800.5567397999985,None,n,0.4322409000014886,800.5567397999985,None,0.4322409000014886,,,2Aloud,001,2022_Jun_24_1332,ProdSingRedoBetween,2021.2.3,60.02941441341143,
,,,,86,0,86,0,,,,,,,,,,,,,,,,,,,,,,804.2200205999834,None,,,,,,,,,,,,,,,,,marriage,53,87,aloud,old,blue,801.5315272999869,None,801.5315272999869,None,6,1.3216262999922037,801.5315272999869,None,1.3216262999922037,802.8769502000068,None,803.3909249999851,None,803.3909249999851,None,r,0.813962399988668,803.3909249999851,None,0.813962399988668,,,2Aloud,001,2022_Jun_24_1332,ProdSingRedoBetween,2021.2.3,60.02941441341143,
,,,,87,0,87,0,,,,,,,,,,,,,,,,,,,,,,807.2004244999844,None,,,,,,,,,,,,,,,,,degree,160,88,aloud,new,null,804.7354886000103,None,804.7354886000103,None,2,1.6616869999852497,804.7354886000103,None,1.6616869999852497,806.4412297999952,None,806.9623876999831,None,806.9623876999831,None,n,0.21103219999349676,806.9623876999831,None,0.21103219999349676,,,2Aloud,001,2022_Jun_24_1332,ProdSingRedoBetween,2021.2.3,60.02941441341143,
,,,,88,0,88,0,,,,,,,,,,,,,,,,,,,,,,810.1593830999918,None,,,,,,,,,,,,,,,,,expansion,132,89,aloud,new,null,807.7092332000029,None,807.7092332000029,None,4,1.8319332000100985,807.7092332000029,None,1.8319332000100985,809.5806687999866,None,810.0928940000013,None,810.0928940000013,None,f,0.048118699982296675,810.0928940000013,None,0.048118699982296675,,,2Aloud,001,2022_Jun_24_1332,ProdSingRedoBetween,2021.2.3,60.02941441341143,
,,,,89,0,89,0,,,,,,,,,,,,,,,,,,,,,,814.013168400008,None,,,,,,,,,,,,,,,,,machinery,175,90,aloud,new,null,810.6804651999846,None,810.6804651999846,None,1,2.748685700003989,810.6804651999846,None,2.748685700003989,813.4654103000066,None,813.971171799989,None,813.971171799989,None,n,0.025891299999784678,813.971171799989,None,0.025891299999784678,,,2Aloud,001,2022_Jun_24_1332,ProdSingRedoBetween,2021.2.3,60.02941441341143,
,,,,90,0,90,0,,,,,,,,,,,,,,,,,,,,,,818.0754982999933,None,,,,,,,,,,,,,,,,,question,89,91,aloud,old,red,814.5298966999981,None,814.5298966999981,None,3,2.5711439000151586,814.5298966999981,None,2.5711439000151586,817.1330534000008,None,817.641252100002,None,817.641252100002,None,f,0.3959000999748241,817.641252100002,None,0.3959000999748241,,,2Aloud,001,2022_Jun_24_1332,ProdSingRedoBetween,2021.2.3,60.02941441341143,
,,,,91,0,91,0,,,,,,,,,,,,,,,,,,,,,,820.8564803999907,None,,,,,,,,,,,,,,,,,force,62,92,aloud,old,red,818.5963250999921,None,818.5963250999921,None,3,1.4409300000115763,818.5963250999921,None,1.4409300000115763,820.0693546999828,None,820.5779073000012,None,820.5779073000012,None,f,0.2593359000165947,820.5779073000012,None,0.2593359000165947,,,2Aloud,001,2022_Jun_24_1332,ProdSingRedoBetween,2021.2.3,60.02941441341143,
,,,,92,0,92,0,,,,,,,,,,,,,,,,,,,,,,824.3148905999842,None,,,,,,,,,,,,,,,,,edition,99,93,aloud,new,null,821.3866187999956,None,821.3866187999956,None,5,2.1945476999972016,821.3866187999956,None,2.1945476999972016,823.617184200004,None,824.1290288000018,None,824.1290288000018,None,f,0.14816939999582246,824.1290288000018,None,0.14816939999582246,,,2Aloud,001,2022_Jun_24_1332,ProdSingRedoBetween,2021.2.3,60.02941441341143,
,,,,93,0,93,0,,,,,,,,,,,,,,,,,,,,,,827.4113765000075,None,,,,,,,,,,,,,,,,,military,24,94,aloud,old,yellow,824.8378874000045,None,824.8378874000045,None,6,1.687057500006631,824.8378874000045,None,1.687057500006631,826.5471978999849,None,827.0643689999997,None,827.0643689999997,None,r,0.3168987999961246,827.0643689999997,None,0.3168987999961246,,,2Aloud,001,2022_Jun_24_1332,ProdSingRedoBetween,2021.2.3,60.02941441341143,
,,,,94,0,94,0,,,,,,,,,,,,,,,,,,,,,,830.9556893999979,None,,,,,,,,,,,,,,,,,balance,50,95,aloud,old,blue,827.9243906000047,None,827.9243906000047,None,3,2.1688207000261173,827.9243906000047,None,2.1688207000261173,830.1262278000067,None,830.6355569000007,None,830.6355569000007,None,n,0.2895789999747649,830.6355569000007,None,0.2895789999747649,,,2Aloud,001,2022_Jun_24_1332,ProdSingRedoBetween,2021.2.3,60.02941441341143,
,,,,95,0,95,0,,,,,,,,,,,,,,,,,,,,,,834.7990802999993,None,,,,,,,,,,,,,,,,,defeat,75,96,aloud,old,red,831.4775095999939,None,831.4775095999939,None,6,2.7196331000013743,831.4775095999939,None,2.7196331000013743,834.2374399999972,None,834.7587593999924,None,834.7587593999924,None,r,0.014535399997839704,834.7587593999924,None,0.014535399997839704,,,2Aloud,001,2022_Jun_24_1332,ProdSingRedoBetween,2021.2.3,60.02941441341143,
,,,,96,0,96,0,,,,,,,,,,,,,,,,,,,,,,837.6202688000049,None,,,,,,,,,,,,,,,,,quick,47,97,aloud,old,blue,835.3141371000092,None,835.3141371000092,None,2,1.275070700008655,835.3141371000092,None,1.275070700008655,836.6337361999904,None,837.1426784000068,None,837.1426784000068,None,n,0.4542453999747522,837.1426784000068,None,0.4542453999747522,,,2Aloud,001,2022_Jun_24_1332,ProdSingRedoBetween,2021.2.3,60.02941441341143,
,,,,97,0,97,0,,,,,,,,,,,,,,,,,,,,,,840.2651456999884,None,,,,,,,,,,,,,,,,,entrance,159,98,aloud,new,null,838.1326312999881,None,838.1326312999881,None,6,1.3125048000074457,838.1326312999881,None,1.3125048000074457,839.4865798999963,None,839.9953427999862,None,839.9953427999862,None,r,0.24192300002323464,839.9953427999862,None,0.24192300002323464,,,2Aloud,001,2022_Jun_24_1332,ProdSingRedoBetween,2021.2.3,60.02941441341143,
,,,,98,0,98,0,,,,,,,,,,,,,,,,,,,,,,845.4692513000045,None,,,,,,,,,,,,,,,,,touch,126,99,aloud,new,null,840.781755700009,None,840.781755700009,None,2,3.807400099991355,840.781755700009,None,3.807400099991355,844.6272103000083,None,845.1346239999984,None,845.1346239999984,None,n,0.31057530001271516,845.1346239999984,None,0.31057530001271516,,,2Aloud,001,2022_Jun_24_1332,ProdSingRedoBetween,2021.2.3,60.02941441341143,
,,,,99,0,99,0,,,,,,,,,,,,,,,,,,,,,,848.0099227000028,None,,,,,,,,,,,,,,,,,captain,6,100,aloud,old,yellow,845.990771199984,None,845.990771199984,None,1,1.3024216999765486,845.990771199984,None,1.3024216999765486,847.3250352999894,None,847.8326512000058,None,847.8326512000058,None,n,0.14040179998846725,847.8326512000058,None,0.14040179998846725,,,2Aloud,001,2022_Jun_24_1332,ProdSingRedoBetween,2021.2.3,60.02941441341143,
,,,,100,0,100,0,,,,,,,,,,,,,,,,,,,,,,850.9352120999829,None,,,,,,,,,,,,,,,,,session,44,101,aloud,old,blue,848.5143738999905,None,848.5143738999905,None,4,1.6588259999989532,848.5143738999905,None,1.6588259999989532,850.218524099997,None,850.7435077000118,None,850.7435077000118,None,f,0.1654426000022795,850.7435077000118,None,0.1654426000022795,,,2Aloud,001,2022_Jun_24_1332,ProdSingRedoBetween,2021.2.3,60.02941441341143,
,,,,101,0,101,0,,,,,,,,,,,,,,,,,,,,,,853.4614718999946,None,,,,,,,,,,,,,,,,,trend,60,102,aloud,old,red,851.463353500003,None,851.463353500003,None,2,1.2858540999877732,851.463353500003,None,1.2858540999877732,852.7887539000076,None,853.3107772000076,None,853.3107772000076,None,f,0.11844620000920258,853.3107772000076,None,0.11844620000920258,,,2Aloud,001,2022_Jun_24_1332,ProdSingRedoBetween,2021.2.3,60.02941441341143,
,,,,102,0,102,0,,,,,,,,,,,,,,,,,,,,,,857.245709299983,None,,,,,,,,,,,,,,,,,surprise,38,103,aloud,old,blue,853.9801806999894,None,853.9801806999894,None,3,2.464970600005472,853.9801806999894,None,2.464970600005472,856.4902103999921,None,856.9974559000111,None,856.9974559000111,None,n,0.22382630000356585,856.9974559000111,None,0.22382630000356585,,,2Aloud,001,2022_Jun_24_1332,ProdSingRedoBetween,2021.2.3,60.02941441341143,
,,,,103,0,103,0,,,,,,,,,,,,,,,,,,,,,,863.1360540000023,None,,,,,,,,,,,,,,,,,attack,16,104,aloud,old,yellow,857.7718473999994,None,857.7718473999994,None,5,4.577068700018572,857.7718473999994,None,4.577068700018572,862.3811364999856,None,862.9046816999908,None,862.9046816999908,None,f,0.19644540001172572,862.9046816999908,None,0.19644540001172572,,,2Aloud,001,2022_Jun_24_1332,ProdSingRedoBetween,2021.2.3,60.02941441341143,
,,,,104,0,104,0,,,,,,,,,,,,,,,,,,,,,,866.4835837999999,None,,,,,,,,,,,,,,,,,number,102,105,aloud,new,null,863.6570735999849,None,863.6570735999849,None,4,2.0280497999920044,863.6570735999849,None,2.0280497999920044,865.7299266000045,None,866.239414599986,None,866.239414599986,None,f,0.221567899978254,866.239414599986,None,0.221567899978254,,,2Aloud,001,2022_Jun_24_1332,ProdSingRedoBetween,2021.2.3,60.02941441341143,
,,,,105,0,105,0,,,,,,,,,,,,,,,,,,,,,,869.0219863000093,None,,,,,,,,,,,,,,,,,guest,14,106,aloud,old,yellow,866.9997716000071,None,866.9997716000071,None,1,1.18140949998633,866.9997716000071,None,1.18140949998633,868.2135038999841,None,868.7274749999924,None,868.7274749999924,None,n,0.2695599000144284,868.7274749999924,None,0.2695599000144284,,,2Aloud,001,2022_Jun_24_1332,ProdSingRedoBetween,2021.2.3,60.02941441341143,
,,,,106,0,106,0,,,,,,,,,,,,,,,,,,,,,,871.1712676000025,None,,,,,,,,,,,,,,,,,shock,172,107,aloud,new,null,869.5517110000073,None,869.5517110000073,None,1,0.9172646999941207,869.5517110000073,None,0.9172646999941207,870.4988675999921,None,871.0122862999851,None,871.0122862999851,None,n,0.1287247000145726,871.0122862999851,None,0.1287247000145726,,,2Aloud,001,2022_Jun_24_1332,ProdSingRedoBetween,2021.2.3,60.02941441341143,
,,,,107,0,107,0,,,,,,,,,,,,,,,,,,,,,,873.7228169000009,None,,,,,,,,,,,,,,,,,beauty,104,108,aloud,new,null,871.6873435000016,None,871.6873435000016,None,1,1.0615375000052154,871.6873435000016,None,1.0615375000052154,872.781570399995,None,873.29470269999,None,873.29470269999,None,n,0.38251289998879656,873.29470269999,None,0.38251289998879656,,,2Aloud,001,2022_Jun_24_1332,ProdSingRedoBetween,2021.2.3,60.02941441341143,
,,,,108,0,108,0,,,,,,,,,,,,,,,,,,,,,,876.3845683000109,None,,,,,,,,,,,,,,,,,management,33,109,aloud,old,blue,874.2440447999979,None,874.2440447999979,None,6,1.1452160999760963,874.2440447999979,None,1.1452160999760963,875.4246826999879,None,875.9314845000044,None,875.9314845000044,None,r,0.41760870002326556,875.9314845000044,None,0.41760870002326556,,,2Aloud,001,2022_Jun_24_1332,ProdSingRedoBetween,2021.2.3,60.02941441341143,
,,,,109,0,109,0,,,,,,,,,,,,,,,,,,,,,,880.103203799983,None,,,,,,,,,,,,,,,,,track,41,110,aloud,old,blue,876.9023769999912,None,876.9023769999912,None,3,2.4866971999872476,876.9023769999912,None,2.4866971999872476,879.4306413999875,None,879.9382670999912,None,879.9382670999912,None,f,0.13081850000889972,879.9382670999912,None,0.13081850000889972,,,2Aloud,001,2022_Jun_24_1332,ProdSingRedoBetween,2021.2.3,60.02941441341143,
,,,,110,0,110,0,,,,,,,,,,,,,,,,,,,,,,885.4092551000067,None,,,,,,,,,,,,,,,,,revolution,46,111,aloud,old,blue,880.6286898000108,None,880.6286898000108,None,5,3.7849623000074644,880.6286898000108,None,3.7849623000074644,884.4508500999946,None,884.9578293999948,None,884.9578293999948,None,f,0.415270600002259,884.9578293999948,None,0.415270600002259,,,2Aloud,001,2022_Jun_24_1332,ProdSingRedoBetween,2021.2.3,60.02941441341143,
,,,,111,0,111,0,,,,,,,,,,,,,,,,,,,,,,887.6939579999889,None,,,,,,,,,,,,,,,,,owner,70,112,aloud,old,red,885.9364964999841,None,885.9364964999841,None,1,0.988420200010296,885.9364964999841,None,0.988420200010296,886.9619590000075,None,887.477037900011,None,887.477037900011,None,n,0.19198600001982413,887.477037900011,None,0.19198600001982413,,,2Aloud,001,2022_Jun_24_1332,ProdSingRedoBetween,2021.2.3,60.02941441341143,
,,,,112,0,112,0,,,,,,,,,,,,,,,,,,,,,,890.3084503999853,None,,,,,,,,,,,,,,,,,sound,51,113,aloud,old,blue,888.2168642999895,None,888.2168642999895,None,1,1.27629639999941,888.2168642999895,None,1.27629639999941,889.5388323999941,None,890.0452096000081,None,890.0452096000081,None,n,0.2397245999891311,890.0452096000081,None,0.2397245999891311,,,2Aloud,001,2022_Jun_24_1332,ProdSingRedoBetween,2021.2.3,60.02941441341143,
,,,,113,0,113,0,,,,,,,,,,,,,,,,,,,,,,893.2951241999981,None,,,,,,,,,,,,,,,,,society,136,114,aloud,new,null,890.8375748000108,None,890.8375748000108,None,2,1.2634753000165801,890.8375748000108,None,1.2634753000165801,892.1370055000007,None,892.6501582000055,None,892.6501582000055,None,n,0.6267854000034276,892.6501582000055,None,0.6267854000034276,,,2Aloud,001,2022_Jun_24_1332,ProdSingRedoBetween,2021.2.3,60.02941441341143,
,,,,114,0,114,0,,,,,,,,,,,,,,,,,,,,,,896.8710069000081,None,,,,,,,,,,,,,,,,,afternoon,61,115,aloud,old,red,893.8213423999841,None,893.8213423999841,None,3,1.7996608999965247,893.8213423999841,None,1.7996608999965247,895.6627233999898,None,896.1703625000082,None,896.1703625000082,None,f,0.6666383999981917,896.1703625000082,None,0.6666383999981917,,,2Aloud,001,2022_Jun_24_1332,ProdSingRedoBetween,2021.2.3,60.02941441341143,
,,,,115,0,115,0,,,,,,,,,,,,,,,,,,,,,,901.0540649000031,None,,,,,,,,,,,,,,,,,clear,108,116,aloud,new,null,897.3797177000088,None,897.3797177000088,None,3,2.3374028999824077,897.3797177000088,None,2.3374028999824077,899.7590810999973,None,900.2808666999917,None,900.2808666999917,None,n,0.7480972000048496,900.2808666999917,None,0.7480972000048496,,,2Aloud,001,2022_Jun_24_1332,ProdSingRedoBetween,2021.2.3,60.02941441341143,
,,,,116,0,116,0,,,,,,,,,,,,,,,,,,,,,,903.8931305999868,None,,,,,,,,,,,,,,,,,testimony,150,117,aloud,new,null,901.5800748000038,None,901.5800748000038,None,5,1.5530289000016637,901.5800748000038,None,1.5530289000016637,903.1716220999951,None,903.6793186999857,None,903.6793186999857,None,f,0.18172180000692606,903.6793186999857,None,0.18172180000692606,,,2Aloud,001,2022_Jun_24_1332,ProdSingRedoBetween,2021.2.3,60.02941441341143,
,,,,117,0,117,0,,,,,,,,,,,,,,,,,,,,,,906.7903368999832,None,,,,,,,,,,,,,,,,,victory,1,118,aloud,old,yellow,904.4217848999833,None,904.4217848999833,None,6,1.5192592999956105,904.4217848999833,None,1.5192592999956105,905.9912449000112,None,906.516618499998,None,906.516618499998,None,r,0.24831019999692217,906.516618499998,None,0.24831019999692217,,,2Aloud,001,2022_Jun_24_1332,ProdSingRedoBetween,2021.2.3,60.02941441341143,
,,,,118,0,118,0,,,,,,,,,,,,,,,,,,,,,,909.9421994999866,None,,,,,,,,,,,,,,,,,stranger,5,119,aloud,old,yellow,907.3040116000047,None,907.3040116000047,None,2,1.661019600025611,907.3040116000047,None,1.661019600025611,909.0131527000049,None,909.5341107999848,None,909.5341107999848,None,f,0.39060720000998117,909.5341107999848,None,0.39060720000998117,,,2Aloud,001,2022_Jun_24_1332,ProdSingRedoBetween,2021.2.3,60.02941441341143,
,,,,119,0,119,0,,,,,,,,,,,,,,,,,,,,,,913.3854177999892,None,,,,,,,,,,,,,,,,,school,78,120,aloud,old,red,910.464226000011,None,910.464226000011,None,1,2.316709099977743,910.464226000011,None,2.316709099977743,912.8251760999847,None,913.3411250000063,None,913.3411250000063,None,n,0.023711899993941188,913.3411250000063,None,0.023711899993941188,,,2Aloud,001,2022_Jun_24_1332,ProdSingRedoBetween,2021.2.3,60.02941441341143,
,,,,120,0,120,0,,,,,,,,,,,,,,,,,,,,,,915.3665876000014,None,,,,,,,,,,,,,,,,,nation,20,121,aloud,old,yellow,913.9097872999846,None,913.9097872999846,None,1,0.8154739000019617,913.9097872999846,None,0.8154739000019617,914.759819400002,None,915.2726685999951,None,915.2726685999951,None,n,0.06039150001015514,915.2726685999951,None,0.06039150001015514,,,2Aloud,001,2022_Jun_24_1332,ProdSingRedoBetween,2021.2.3,60.02941441341143,
,,,,121,0,121,0,,,,,,,,,,,,,,,,,,,,,,917.9693063999875,None,,,,,,,,,,,,,,,,,reach,168,122,aloud,new,null,915.8853357000044,None,915.8853357000044,None,1,1.2557467000151519,915.8853357000044,None,1.2557467000151519,917.1758965000045,None,917.6906663000118,None,917.6906663000118,None,n,0.2581977999943774,917.6906663000118,None,0.2581977999943774,,,2Aloud,001,2022_Jun_24_1332,ProdSingRedoBetween,2021.2.3,60.02941441341143,
,,,,122,0,122,0,,,,,,,,,,,,,,,,,,,,,,920.5061240000068,None,,,,,,,,,,,,,,,,,working,92,123,aloud,new,null,918.5009644000093,None,918.5009644000093,None,4,1.2879386999993585,918.5009644000093,None,1.2879386999993585,919.8259175999847,None,920.3472952999873,None,920.3472952999873,None,f,0.12958929999149404,920.3472952999873,None,0.12958929999149404,,,2Aloud,001,2022_Jun_24_1332,ProdSingRedoBetween,2021.2.3,60.02941441341143,
,,,,123,0,123,0,,,,,,,,,,,,,,,,,,,,,,924.9071823999984,None,,,,,,,,,,,,,,,,,enemy,138,124,aloud,new,null,921.03116340001,None,921.03116340001,None,3,3.2058432000048924,921.03116340001,None,3.2058432000048924,924.2729602000036,None,924.7773090999981,None,924.7773090999981,None,f,0.10748439998133108,924.7773090999981,None,0.10748439998133108,,,2Aloud,001,2022_Jun_24_1332,ProdSingRedoBetween,2021.2.3,60.02941441341143,
,,,,124,0,124,0,,,,,,,,,,,,,,,,,,,,,,927.6100000999868,None,,,,,,,,,,,,,,,,,goose,84,125,aloud,old,red,925.424148399994,None,925.424148399994,None,6,1.2608403000049293,925.424148399994,None,1.2608403000049293,926.7229305999936,None,927.2423927999916,None,927.2423927999916,None,r,0.346319800009951,927.2423927999916,None,0.346319800009951,,,2Aloud,001,2022_Jun_24_1332,ProdSingRedoBetween,2021.2.3,60.02941441341143,
,,,,125,0,125,0,,,,,,,,,,,,,,,,,,,,,,930.879686500004,None,,,,,,,,,,,,,,,,,little,57,126,aloud,old,blue,928.1217179000087,None,928.1217179000087,None,4,1.8593039000115823,928.1217179000087,None,1.8593039000115823,930.0118439999933,None,930.5210684000049,None,930.5210684000049,None,f,0.3316595000214875,930.5210684000049,None,0.3316595000214875,,,2Aloud,001,2022_Jun_24_1332,ProdSingRedoBetween,2021.2.3,60.02941441341143,
,,,,126,0,126,0,,,,,,,,,,,,,,,,,,,,,,933.1531506000028,None,,,,,,,,,,,,,,,,,territory,9,127,aloud,old,yellow,931.3973225000082,None,931.3973225000082,None,5,0.9036570999887772,931.3973225000082,None,0.9036570999887772,932.3493109999981,None,932.8582935000013,None,932.8582935000013,None,r,0.26652760000433773,932.8582935000013,None,0.26652760000433773,,,2Aloud,001,2022_Jun_24_1332,ProdSingRedoBetween,2021.2.3,60.02941441341143,
,,,,127,0,127,0,,,,,,,,,,,,,,,,,,,,,,937.8800698999839,None,,,,,,,,,,,,,,,,,guard,28,128,aloud,old,yellow,933.6785241999896,None,933.6785241999896,None,3,3.39839759998722,933.6785241999896,None,3.39839759998722,937.1054901999887,None,937.6261204000039,None,937.6261204000039,None,f,0.22694530000444502,937.6261204000039,None,0.22694530000444502,,,2Aloud,001,2022_Jun_24_1332,ProdSingRedoBetween,2021.2.3,60.02941441341143,
,,,,128,0,128,0,,,,,,,,,,,,,,,,,,,,,,941.314893200004,None,,,,,,,,,,,,,,,,,column,110,129,aloud,new,null,938.4021205999888,None,938.4021205999888,None,5,2.2106394000002183,938.4021205999888,None,2.2106394000002183,940.644525199983,None,941.1629810000013,None,941.1629810000013,None,f,0.122034200001508,941.1629810000013,None,0.122034200001508,,,2Aloud,001,2022_Jun_24_1332,ProdSingRedoBetween,2021.2.3,60.02941441341143,
,,,,129,0,129,0,,,,,,,,,,,,,,,,,,,,,,945.0462695999886,None,,,,,,,,,,,,,,,,,front,11,130,aloud,old,yellow,941.8377476999885,None,941.8377476999885,None,5,1.5912193999974988,941.8377476999885,None,1.5912193999974988,943.4715853999951,None,943.9891339000023,None,943.9891339000023,None,f,1.0317524999845773,943.9891339000023,None,1.0317524999845773,,,2Aloud,001,2022_Jun_24_1332,ProdSingRedoBetween,2021.2.3,60.02941441341143,
,,,,130,0,130,0,,,,,,,,,,,,,,,,,,,,,,948.7896672000061,None,,,,,,,,,,,,,,,,,weather,39,131,aloud,old,blue,945.573570699984,None,945.573570699984,None,6,2.5194042999937665,945.573570699984,None,2.5194042999937665,948.134311700007,None,948.6386957000068,None,948.6386957000068,None,r,0.12637059998814948,948.6386957000068,None,0.12637059998814948,,,2Aloud,001,2022_Jun_24_1332,ProdSingRedoBetween,2021.2.3,60.02941441341143,
,,,,131,0,131,0,,,,,,,,,,,,,,,,,,,,,,951.4585005000117,None,,,,,,,,,,,,,,,,,fight,27,132,aloud,old,yellow,949.3117575999931,None,949.3117575999931,None,3,1.1413103000086267,949.3117575999931,None,1.1413103000086267,950.4996371000016,None,951.0071158999926,None,951.0071158999926,None,n,0.4218262000067625,951.0071158999926,None,0.4218262000067625,,,2Aloud,001,2022_Jun_24_1332,ProdSingRedoBetween,2021.2.3,60.02941441341143,
,,,,132,0,132,0,,,,,,,,,,,,,,,,,,,,,,955.1786093999981,None,,,,,,,,,,,,,,,,,produce,96,133,aloud,new,null,951.9809635999845,None,951.9809635999845,None,5,2.3759675000037532,951.9809635999845,None,2.3759675000037532,954.4109464999929,None,954.9255653999862,None,954.9255653999862,None,f,0.21522559999721125,954.9255653999862,None,0.21522559999721125,,,2Aloud,001,2022_Jun_24_1332,ProdSingRedoBetween,2021.2.3,60.02941441341143,
,,,,133,0,133,0,,,,,,,,,,,,,,,,,,,,,,959.2747914000065,None,,,,,,,,,,,,,,,,,write,4,134,aloud,old,yellow,955.6898373999866,None,955.6898373999866,None,2,2.9630738999985624,955.6898373999866,None,2.9630738999985624,958.685544500011,None,959.1915647999849,None,959.1915647999849,None,n,0.06122289999620989,959.1915647999849,None,0.06122289999620989,,,2Aloud,001,2022_Jun_24_1332,ProdSingRedoBetween,2021.2.3,60.02941441341143,
,,,,134,0,134,0,,,,,,,,,,,,,,,,,,,,,,963.4161122000078,None,,,,,,,,,,,,,,,,,staff,98,135,aloud,new,null,959.7933462999936,None,959.7933462999936,None,3,2.531652999983635,959.7933462999936,None,2.531652999983635,962.3614634000114,None,962.8710457999841,None,962.8710457999841,None,f,0.5258111000002827,962.8710457999841,None,0.5258111000002827,,,2Aloud,001,2022_Jun_24_1332,ProdSingRedoBetween,2021.2.3,60.02941441341143,
,,,,135,0,135,0,,,,,,,,,,,,,,,,,,,,,,967.690357399988,None,,,,,,,,,,,,,,,,,education,87,136,aloud,old,red,963.9431617000082,None,963.9431617000082,None,5,3.1257150000019465,963.9431617000082,None,3.1257150000019465,967.1093623999914,None,967.621986299986,None,967.621986299986,None,f,0.030974699999205768,967.621986299986,None,0.030974699999205768,,,2Aloud,001,2022_Jun_24_1332,ProdSingRedoBetween,2021.2.3,60.02941441341143,
,,,,136,0,136,0,,,,,,,,,,,,,,,,,,,,,,971.2756574999948,None,,,,,,,,,,,,,,,,,brilliant,123,137,aloud,new,null,968.2121445999946,None,968.2121445999946,None,4,1.11263190000318,968.2121445999946,None,1.11263190000318,969.3587198999885,None,969.875252400001,None,969.875252400001,None,f,1.3776759000029415,969.875252400001,None,1.3776759000029415,,,2Aloud,001,2022_Jun_24_1332,ProdSingRedoBetween,2021.2.3,60.02941441341143,
,,,,137,0,137,0,,,,,,,,,,,,,,,,,,,,,,974.5437360999931,None,,,,,,,,,,,,,,,,,religion,56,138,aloud,old,blue,971.7974744999956,None,971.7974744999956,None,1,1.7913390999892727,971.7974744999956,None,1.7913390999892727,973.6156331000093,None,974.1452067999926,None,974.1452067999926,None,n,0.37936489999992773,974.1452067999926,None,0.37936489999992773,,,2Aloud,001,2022_Jun_24_1332,ProdSingRedoBetween,2021.2.3,60.02941441341143,
,,,,138,0,138,0,,,,,,,,,,,,,,,,,,,,,,977.1282202999864,None,,,,,,,,,,,,,,,,,carry,19,139,aloud,old,yellow,975.0574492999876,None,975.0574492999876,None,1,1.099451499991119,975.0574492999876,None,1.099451499991119,976.1934719999845,None,976.7204966999998,None,976.7204966999998,None,n,0.3802269999869168,976.7204966999998,None,0.3802269999869168,,,2Aloud,001,2022_Jun_24_1332,ProdSingRedoBetween,2021.2.3,60.02941441341143,
,,,,139,0,139,0,,,,,,,,,,,,,,,,,,,,,,980.2050088999968,None,,,,,,,,,,,,,,,,,estate,146,140,aloud,new,null,977.6580015000072,None,977.6580015000072,None,4,1.6188383999979123,977.6580015000072,None,1.6188383999979123,979.3033077,None,979.8201780999952,None,979.8201780999952,None,f,0.36079889998654835,979.8201780999952,None,0.36079889998654835,,,2Aloud,001,2022_Jun_24_1332,ProdSingRedoBetween,2021.2.3,60.02941441341143,
,,,,140,0,140,0,,,,,,,,,,,,,,,,,,,,,,983.0912294999871,None,,,,,,,,,,,,,,,,,conference,156,141,aloud,new,null,980.728487299988,None,980.728487299988,None,1,1.3724286000069696,980.728487299988,None,1.3724286000069696,982.141899899987,None,982.6579466999974,None,982.6579466999974,None,n,0.4029123999935109,982.6579466999974,None,0.4029123999935109,,,2Aloud,001,2022_Jun_24_1332,ProdSingRedoBetween,2021.2.3,60.02941441341143,
,,,,141,0,141,0,,,,,,,,,,,,,,,,,,,,,,985.5926056999888,None,,,,,,,,,,,,,,,,,ground,23,142,aloud,old,yellow,983.6129527000012,None,983.6129527000012,None,4,1.0319737999816425,983.6129527000012,None,1.0319737999816425,984.6826632999873,None,985.1898428999993,None,985.1898428999993,None,f,0.367124899988994,985.1898428999993,None,0.367124899988994,,,2Aloud,001,2022_Jun_24_1332,ProdSingRedoBetween,2021.2.3,60.02941441341143,
,,,,142,0,142,0,,,,,,,,,,,,,,,,,,,,,,988.6125510999991,None,,,,,,,,,,,,,,,,,capital,82,143,aloud,old,red,986.1159931999864,None,986.1159931999864,None,6,1.6885772999958135,986.1159931999864,None,1.6885772999958135,987.8208078999887,None,988.3313561000105,None,988.3313561000105,None,r,0.24953109998023137,988.3313561000105,None,0.24953109998023137,,,2Aloud,001,2022_Jun_24_1332,ProdSingRedoBetween,2021.2.3,60.02941441341143,
,,,,143,0,143,0,,,,,,,,,,,,,,,,,,,,,,991.6842666000011,None,,,,,,,,,,,,,,,,,career,107,144,aloud,new,null,989.1366860999842,None,989.1366860999842,None,6,1.6441201000125147,989.1366860999842,None,1.6441201000125147,990.8210892000061,None,991.3236279999837,None,991.3236279999837,None,r,0.3292340000043623,991.3236279999837,None,0.3292340000043623,,,2Aloud,001,2022_Jun_24_1332,ProdSingRedoBetween,2021.2.3,60.02941441341143,
,,,,144,0,144,0,,,,,,,,,,,,,,,,,,,,,,994.5933580999845,None,,,,,,,,,,,,,,,,,center,0,145,aloud,old,yellow,992.2054445999966,None,992.2054445999966,None,6,1.191389799991157,992.2054445999966,None,1.191389799991157,993.4410548000014,None,993.951059199986,None,993.951059199986,None,f,0.62159409999731,993.951059199986,None,0.62159409999731,,,2Aloud,001,2022_Jun_24_1332,ProdSingRedoBetween,2021.2.3,60.02941441341143,
,,,,145,0,145,0,,,,,,,,,,,,,,,,,,,,,,1000.4213696999941,None,,,,,,,,,,,,,,,,,discovery,88,146,aloud,old,red,995.1140980999917,None,995.1140980999917,None,4,4.570799899986014,995.1140980999917,None,4.570799899986014,999.734813099989,None,1000.2414721999958,None,1000.2414721999958,None,f,0.13141990001895465,1000.2414721999958,None,0.13141990001895465,,,2Aloud,001,2022_Jun_24_1332,ProdSingRedoBetween,2021.2.3,60.02941441341143,
,,,,146,0,146,0,,,,,,,,,,,,,,,,,,,,,,1002.6763714000117,None,,,,,,,,,,,,,,,,,vision,105,147,aloud,new,null,1000.9397387999925,None,1000.9397387999925,None,5,1.073128899995936,1000.9397387999925,None,1.073128899995936,1002.0508514000103,None,1002.5608075000055,None,1002.5608075000055,None,f,0.09207929999683984,1002.5608075000055,None,0.09207929999683984,,,2Aloud,001,2022_Jun_24_1332,ProdSingRedoBetween,2021.2.3,60.02941441341143,
,,,,147,0,147,0,,,,,,,,,,,,,,,,,,,,,,1006.3784653999901,None,,,,,,,,,,,,,,,,,dispute,13,148,aloud,old,yellow,1003.197690800007,None,1003.197690800007,None,5,2.487186699989252,1003.197690800007,None,2.487186699989252,1005.7185222999833,None,1006.2296091000026,None,1006.2296091000026,None,f,0.11146400001598522,1006.2296091000026,None,0.11146400001598522,,,2Aloud,001,2022_Jun_24_1332,ProdSingRedoBetween,2021.2.3,60.02941441341143,
,,,,148,0,148,0,,,,,,,,,,,,,,,,,,,,,,1009.8447804999887,None,,,,,,,,,,,,,,,,,light,76,149,aloud,old,red,1006.9044009000063,None,1006.9044009000063,None,3,2.2685971000173595,1006.9044009000063,None,2.2685971000173595,1009.2070578999992,None,1009.716184799996,None,1009.716184799996,None,f,0.10458130002371036,1009.716184799996,None,0.10458130002371036,,,2Aloud,001,2022_Jun_24_1332,ProdSingRedoBetween,2021.2.3,60.02941441341143,
,,,,149,0,149,0,,,,,,,,,,,,,,,,,,,,,,1012.6326312999881,None,,,,,,,,,,,,,,,,,master,114,150,aloud,new,null,1010.3700499999977,None,1010.3700499999977,None,1,1.418697199987946,1010.3700499999977,None,1.418697199987946,1011.8285555999901,None,1012.3296046000032,None,1012.3296046000032,None,n,0.2753276999865193,1012.3296046000032,None,0.2753276999865193,,,2Aloud,001,2022_Jun_24_1332,ProdSingRedoBetween,2021.2.3,60.02941441341143,
,,,,150,0,150,0,,,,,,,,,,,,,,,,,,,,,,1014.6483527999953,None,,,,,,,,,,,,,,,,,second,164,151,aloud,new,null,1013.1653790999844,None,1013.1653790999844,None,1,0.8555658000113908,1013.1653790999844,None,0.8555658000113908,1014.0593793999869,None,1014.5756441999984,None,1014.5756441999984,None,n,0.05303540002205409,1014.5756441999984,None,0.05303540002205409,,,2Aloud,001,2022_Jun_24_1332,ProdSingRedoBetween,2021.2.3,60.02941441341143,
,,,,151,0,151,0,,,,,,,,,,,,,,,,,,,,,,1016.8155877999961,None,,,,,,,,,,,,,,,,,disease,58,152,aloud,old,blue,1015.1627129999979,None,1015.1627129999979,None,6,1.0661824999842793,1015.1627129999979,None,1.0661824999842793,1016.2695454999921,None,1016.7723182000045,None,1016.7723182000045,None,r,0.016372700018109754,1016.7723182000045,None,0.016372700018109754,,,2Aloud,001,2022_Jun_24_1332,ProdSingRedoBetween,2021.2.3,60.02941441341143,
,,,,152,0,152,0,,,,,,,,,,,,,,,,,,,,,,1019.9870025999844,None,,,,,,,,,,,,,,,,,safety,106,153,aloud,new,null,1017.3234152999939,None,1017.3234152999939,None,3,2.0096308999927714,1017.3234152999939,None,2.0096308999927714,1019.3676250999852,None,1019.8777163999912,None,1019.8777163999912,None,f,0.08696539999800734,1019.8777163999912,None,0.08696539999800734,,,2Aloud,001,2022_Jun_24_1332,ProdSingRedoBetween,2021.2.3,60.02941441341143,
,,,,153,0,153,0,,,,,,,,,,,,,,,,,,,,,,1022.9618648999895,None,,,,,,,,,,,,,,,,,pancakes,94,154,aloud,new,null,1020.5038016999897,None,1020.5038016999897,None,1,1.4850376000104006,1020.5038016999897,None,1.4850376000104006,1022.0249882999924,None,1022.5460528999974,None,1022.5460528999974,None,n,0.3788429999840446,1022.5460528999974,None,0.3788429999840446,,,2Aloud,001,2022_Jun_24_1332,ProdSingRedoBetween,2021.2.3,60.02941441341143,
,,,,154,0,154,0,,,,,,,,,,,,,,,,,,,,,,1025.327782599983,None,,,,,,,,,,,,,,,,,dream,8,155,aloud,old,yellow,1023.4788057999976,None,1023.4788057999976,None,6,1.2138692000007723,1023.4788057999976,None,1.2138692000007723,1024.7300400999957,None,1025.2459483999992,None,1025.2459483999992,None,r,0.05480769998393953,1025.2459483999992,None,0.05480769998393953,,,2Aloud,001,2022_Jun_24_1332,ProdSingRedoBetween,2021.2.3,60.02941441341143,
,,,,155,0,155,0,,,,,,,,,,,,,,,,,,,,,,1028.3445163999859,None,,,,,,,,,,,,,,,,,comedy,153,156,aloud,new,null,1025.8581371000037,None,1025.8581371000037,None,3,1.8424991999927443,1025.8581371000037,None,1.8424991999927443,1027.7337639000034,None,1028.245070600009,None,1028.245070600009,None,f,0.07962239999324083,1028.245070600009,None,0.07962239999324083,,,2Aloud,001,2022_Jun_24_1332,ProdSingRedoBetween,2021.2.3,60.02941441341143,
,,,,156,0,156,0,,,,,,,,,,,,,,,,,,,,,,1030.8870841999887,None,,,,,,,,,,,,,,,,,clean,169,157,aloud,new,null,1028.8573223999992,None,1028.8573223999992,None,4,1.2275159999844618,1028.8573223999992,None,1.2275159999844618,1030.1215707999945,None,1030.6366787999868,None,1030.6366787999868,None,f,0.22433019999880344,1030.6366787999868,None,0.22433019999880344,,,2Aloud,001,2022_Jun_24_1332,ProdSingRedoBetween,2021.2.3,60.02941441341143,
,,,,157,0,157,0,,,,,,,,,,,,,,,,,,,,,,1034.2413867999858,None,,,,,,,,,,,,,,,,,listen,115,158,aloud,new,null,1031.4010602000053,None,1031.4010602000053,None,2,2.1715556000126526,1031.4010602000053,None,2.1715556000126526,1033.604652399983,None,1034.1251913000015,None,1034.1251913000015,None,n,0.08768660001805983,1034.1251913000015,None,0.08768660001805983,,,2Aloud,001,2022_Jun_24_1332,ProdSingRedoBetween,2021.2.3,60.02941441341143,
,,,,158,0,158,0,,,,,,,,,,,,,,,,,,,,,,1037.4694122000074,None,,,,,,,,,,,,,,,,,drove,42,159,aloud,old,blue,1034.7651867000095,None,1034.7651867000095,None,2,1.8233574999903794,1034.7651867000095,None,1.8233574999903794,1036.6197190000094,None,1037.119087500003,None,1037.119087500003,None,n,0.3334669999894686,1037.119087500003,None,0.3334669999894686,,,2Aloud,001,2022_Jun_24_1332,ProdSingRedoBetween,2021.2.3,60.02941441341143,
,,,,159,0,159,0,,,,,,,,,,,,,,,,,,,,,,1039.67527040001,None,,,,,,,,,,,,,,,,,benefit,133,160,aloud,new,null,1037.9700183999958,None,1037.9700183999958,None,5,1.0908500000077765,1037.9700183999958,None,1.0908500000077765,1039.1056936999958,None,1039.6143533999857,None,1039.6143533999857,None,f,0.038354999996954575,1039.6143533999857,None,0.038354999996954575,,,2Aloud,001,2022_Jun_24_1332,ProdSingRedoBetween,2021.2.3,60.02941441341143,
,,,,160,0,160,0,,,,,,,,,,,,,,,,,,,,,,1042.1942718999926,None,,,,,,,,,,,,,,,,,weight,113,161,aloud,new,null,1040.2094627000042,None,1040.2094627000042,None,2,1.2912409999989904,1040.2094627000042,None,1.2912409999989904,1041.53344259999,None,1042.046586499986,None,1042.046586499986,None,f,0.12603260000469163,1042.046586499986,None,0.12603260000469163,,,2Aloud,001,2022_Jun_24_1332,ProdSingRedoBetween,2021.2.3,60.02941441341143,
,,,,161,0,161,0,,,,,,,,,,,,,,,,,,,,,,1044.7210858000035,None,,,,,,,,,,,,,,,,,patient,71,162,aloud,old,red,1042.7194674999919,None,1042.7194674999919,None,6,1.4052243999904022,1042.7194674999919,None,1.4052243999904022,1044.1607567000028,None,1044.668362299999,None,1044.668362299999,None,r,0.024434199993265793,1044.668362299999,None,0.024434199993265793,,,2Aloud,001,2022_Jun_24_1332,ProdSingRedoBetween,2021.2.3,60.02941441341143,
,,,,162,0,162,0,,,,,,,,,,,,,,,,,,,,,,1047.3958636999887,None,,,,,,,,,,,,,,,,,emergency,124,163,aloud,new,null,1045.2438446999877,None,1045.2438446999877,None,6,1.529119000013452,1045.2438446999877,None,1.529119000013452,1046.8137919,None,1047.3292605000024,None,1047.3292605000024,None,r,0.043211700016399845,1047.3292605000024,None,0.043211700016399845,,,2Aloud,001,2022_Jun_24_1332,ProdSingRedoBetween,2021.2.3,60.02941441341143,
,,,,163,0,163,0,,,,,,,,,,,,,,,,,,,,,,1049.8897652000014,None,,,,,,,,,,,,,,,,,crime,63,164,aloud,old,red,1047.8965263999999,None,1047.8965263999999,None,3,1.3883443000086118,1047.8965263999999,None,1.3883443000086118,1049.3347350000113,None,1049.8562248999951,None,1049.8562248999951,None,n,0.012390200019581243,1049.8562248999951,None,0.012390200019581243,,,2Aloud,001,2022_Jun_24_1332,ProdSingRedoBetween,2021.2.3,60.02941441341143,
,,,,164,0,164,0,,,,,,,,,,,,,,,,,,,,,,1052.0698488999915,None,,,,,,,,,,,,,,,,,throw,31,165,aloud,old,blue,1050.4146342999884,None,1050.4146342999884,None,6,1.005839699995704,1050.4146342999884,None,1.005839699995704,1051.45012329999,None,1051.9605430999945,None,1051.9605430999945,None,r,0.08409330001450144,1051.9605430999945,None,0.08409330001450144,,,2Aloud,001,2022_Jun_24_1332,ProdSingRedoBetween,2021.2.3,60.02941441341143,
,,,,165,0,165,0,,,,,,,,,,,,,,,,,,,,,,1054.7234558000055,None,,,,,,,,,,,,,,,,,device,103,166,aloud,new,null,1052.6000277999847,None,1052.6000277999847,None,3,1.4686464999977034,1052.6000277999847,None,1.4686464999977034,1054.0985764999932,None,1054.6067922000075,None,1054.6067922000075,None,f,0.09403949999250472,1054.6067922000075,None,0.09403949999250472,,,2Aloud,001,2022_Jun_24_1332,ProdSingRedoBetween,2021.2.3,60.02941441341143,
,,,,166,0,166,0,,,,,,,,,,,,,,,,,,,,,,1057.8080828000093,None,,,,,,,,,,,,,,,,,husband,54,167,aloud,old,blue,1055.2493900999834,None,1055.2493900999834,None,6,1.971520299994154,1055.2493900999834,None,1.971520299994154,1057.2550309000071,None,1057.7621716999856,None,1057.7621716999856,None,r,0.026547100016614422,1057.7621716999856,None,0.026547100016614422,,,2Aloud,001,2022_Jun_24_1332,ProdSingRedoBetween,2021.2.3,60.02941441341143,
,,,,167,0,167,0,,,,,,,,,,,,,,,,,,,,,,1060.0121728999948,None,,,,,,,,,,,,,,,,,growth,139,168,aloud,new,null,1058.321495000011,None,1058.321495000011,None,6,1.0591496000124607,1058.321495000011,None,1.0591496000124607,1059.4190571999934,None,1059.9352923000115,None,1059.9352923000115,None,r,0.05335100000957027,1059.9352923000115,None,0.05335100000957027,,,2Aloud,001,2022_Jun_24_1332,ProdSingRedoBetween,2021.2.3,60.02941441341143,
,,,,168,0,168,0,,,,,,,,,,,,,,,,,,,,,,1062.6576384000073,None,,,,,,,,,,,,,,,,,debate,167,169,aloud,new,null,1060.532151099993,None,1060.532151099993,None,4,1.5287252999842167,1060.532151099993,None,1.5287252999842167,1062.0885416000092,None,1062.604068399989,None,1062.604068399989,None,f,0.024746100010816008,1062.604068399989,None,0.024746100010816008,,,2Aloud,001,2022_Jun_24_1332,ProdSingRedoBetween,2021.2.3,60.02941441341143,
,,,,169,0,169,0,,,,,,,,,,,,,,,,,,,,,,1065.3244622999919,None,,,,,,,,,,,,,,,,,music,137,170,aloud,new,null,1063.1802744999877,None,1063.1802744999877,None,5,0.9523553000180982,1063.1802744999877,None,0.9523553000180982,1064.170584300009,None,1064.6940610999882,None,1064.6940610999882,None,f,0.598658400005661,1064.6940610999882,None,0.598658400005661,,,2Aloud,001,2022_Jun_24_1332,ProdSingRedoBetween,2021.2.3,60.02941441341143,
,,,,170,0,170,0,,,,,,,,,,,,,,,,,,,,,,1069.1355858999887,None,,,,,,,,,,,,,,,,,travel,140,171,aloud,new,null,1065.846887199994,None,1065.846887199994,None,4,2.3898875000013504,1065.846887199994,None,2.3898875000013504,1068.2850182999973,None,1068.791026299994,None,1068.791026299994,None,f,0.31754150000051595,1068.791026299994,None,0.31754150000051595,,,2Aloud,001,2022_Jun_24_1332,ProdSingRedoBetween,2021.2.3,60.02941441341143,
,,,,171,0,171,0,,,,,,,,,,,,,,,,,,,,,,1071.9642369000067,None,,,,,,,,,,,,,,,,,accident,121,172,aloud,new,null,1069.6490868999972,None,1069.6490868999972,None,6,1.5715339000162203,1069.6490868999972,None,1.5715339000162203,1071.2531859999872,None,1071.7598354000074,None,1071.7598354000074,None,r,0.1729258999985177,1071.7598354000074,None,0.1729258999985177,,,2Aloud,001,2022_Jun_24_1332,ProdSingRedoBetween,2021.2.3,60.02941441341143,
,,,,172,0,172,0,,,,,,,,,,,,,,,,,,,,,,1076.4987259999907,None,,,,,,,,,,,,,,,,,individual,179,173,aloud,new,null,1072.4855228000088,None,1072.4855228000088,None,3,2.6950677999993786,1072.4855228000088,None,2.6950677999993786,1075.215587499988,None,1075.7321343999938,None,1075.7321343999938,None,n,0.7287280000164174,1075.7321343999938,None,0.7287280000164174,,,2Aloud,001,2022_Jun_24_1332,ProdSingRedoBetween,2021.2.3,60.02941441341143,
,,,,173,0,173,0,,,,,,,,,,,,,,,,,,,,,,1079.4228539000032,None,,,,,,,,,,,,,,,,,build,177,174,aloud,new,null,1077.0200557000062,None,1077.0200557000062,None,3,1.4485584999783896,1077.0200557000062,None,1.4485584999783896,1078.5031962000066,None,1079.0198566000035,None,1079.0198566000035,None,n,0.3691693999862764,1079.0198566000035,None,0.3691693999862764,,,2Aloud,001,2022_Jun_24_1332,ProdSingRedoBetween,2021.2.3,60.02941441341143,
,,,,174,0,174,0,,,,,,,,,,,,,,,,,,,,,,1082.4888219999848,None,,,,,,,,,,,,,,,,,service,22,175,aloud,old,yellow,1079.9492643999984,None,1079.9492643999984,None,2,1.519406200008234,1079.9492643999984,None,1.519406200008234,1081.5072176000103,None,1082.0251925000048,None,1082.0251925000048,None,n,0.4355426999973133,1082.0251925000048,None,0.4355426999973133,,,2Aloud,001,2022_Jun_24_1332,ProdSingRedoBetween,2021.2.3,60.02941441341143,
,,,,175,0,175,0,,,,,,,,,,,,,,,,,,,,,,1085.2909875999903,None,,,,,,,,,,,,,,,,,foundation,35,176,aloud,old,blue,1083.0141040000017,None,1083.0141040000017,None,5,1.102577099984046,1083.0141040000017,None,1.102577099984046,1084.1515970999899,None,1084.6744409000094,None,1084.6744409000094,None,f,0.5864109999965876,1084.6744409000094,None,0.5864109999965876,,,2Aloud,001,2022_Jun_24_1332,ProdSingRedoBetween,2021.2.3,60.02941441341143,
,,,,176,0,176,0,,,,,,,,,,,,,,,,,,,,,,1088.1887911999947,None,,,,,,,,,,,,,,,,,pattern,74,177,aloud,old,red,1085.8120442999934,None,1085.8120442999934,None,3,1.7846426999894902,1085.8120442999934,None,1.7846426999894902,1087.6364592000027,None,1088.1531044000003,None,1088.1531044000003,None,n,0.01946959999622777,1088.1531044000003,None,0.01946959999622777,,,2Aloud,001,2022_Jun_24_1332,ProdSingRedoBetween,2021.2.3,60.02941441341143,
,,,,177,0,177,0,,,,,,,,,,,,,,,,,,,,,,1090.6996900000086,None,,,,,,,,,,,,,,,,,provision,64,178,aloud,old,red,1088.7207911000005,None,1088.7207911000005,None,6,1.0682622999884188,1088.7207911000005,None,1.0682622999884188,1089.8266431000084,None,1090.3328438999888,None,1090.3328438999888,None,r,0.3358627000125125,1090.3328438999888,None,0.3358627000125125,,,2Aloud,001,2022_Jun_24_1332,ProdSingRedoBetween,2021.2.3,60.02941441341143,
