StudyLoop.thisRepN,StudyLoop.thisTrialN,StudyLoop.thisN,StudyLoop.thisIndex,TestLoop.thisRepN,TestLoop.thisTrialN,TestLoop.thisN,TestLoop.thisIndex,textCondition.started,textCondition.stopped,keyCondition.keys,keyCondition.rt,keyCondition.started,keyCondition.stopped,Condition,textWelcome.started,textWelcome.stopped,keyWelcome.keys,keyWelcome.rt,keyWelcome.started,keyWelcome.stopped,textAloud.started,textAloud.stopped,textSilent.started,textSilent.stopped,textSing.started,textSing.stopped,conditional_text.started,conditional_text.stopped,textBlank500.started,textBlank500.stopped,study_word,study_num,study_order,study_type,word_color,textStudy.started,textStudy.stopped,keyStudy.keys,keyStudy.started,keyStudy.stopped,textTestInstructions.started,textTestInstructions.stopped,key_resp_3.keys,key_resp_3.rt,key_resp_3.started,key_resp_3.stopped,test_word,test_num,test_order,test_condition,old_new_test,test_word_original_color,textConf.started,textConf.stopped,textConfScale.started,textConfScale.stopped,keyConf.keys,keyConf.rt,keyConf.started,keyConf.stopped,confidence response time,textTestBlank.started,textTestBlank.stopped,textRKN.started,textRKN.stopped,textRKNScale.started,textRKNScale.stopped,keyRKN.keys,keyRKN.rt,keyRKN.started,keyRKN.stopped,rkn response time,textEnd.started,textEnd.stopped,participant,session,date,expName,psychopyVersion,frameRate,
,,,,,,,,27.119386999984272,None,c,1.3516455000499263,27.119386999984272,None,,,,,,,,,,,,,,,,,,,,,,,,,,,,,,,,,,,,,,,,,,,,,,,,,,,,,,,,,,,,,,30Sing,001,2022_Aug_29_1143,ProdSingRedoBetween,2021.2.3,59.9799067109208,
,,,,,,,,,,,,,,SingTest,28.506916699989233,None,space,1053.0589757999987,28.506916699989233,None,,,,,,,,,,,,,,,,,,,,,,,,,,,,,,,,,,,,,,,,,,,,,,,,,,,,,,,30Sing,001,2022_Aug_29_1143,ProdSingRedoBetween,2021.2.3,59.9799067109208,
0,0,0,0,,,,,,,,,,,,,,,,,,28.506916699989233,None,28.506916699989233,None,28.506916699989233,None,28.506916699989233,None,1084.111692800012,None,finance,61,1,sing,red,1082.1019506999874,None,None,1082.1019506999874,None,,,,,,,,,,,,,,,,,,,,,,,,,,,,,,,,,,,30Sing,001,2022_Aug_29_1143,ProdSingRedoBetween,2021.2.3,59.9799067109208,
1,0,1,0,,,,,,,,,,,,,,,,,,,,,,,,,,1086.6308056999696,None,listen,69,2,sing,red,1084.618032599974,None,None,1084.618032599974,None,,,,,,,,,,,,,,,,,,,,,,,,,,,,,,,,,,,30Sing,001,2022_Aug_29_1143,ProdSingRedoBetween,2021.2.3,59.9799067109208,
2,0,2,0,,,,,,,,,,,,,,,,,,,,,,,,,,1089.133549799968,None,contract,0,3,sing,yellow,1087.1315230000182,None,None,1087.1315230000182,None,,,,,,,,,,,,,,,,,,,,,,,,,,,,,,,,,,,30Sing,001,2022_Aug_29_1143,ProdSingRedoBetween,2021.2.3,59.9799067109208,
3,0,3,0,,,,,,,,,,,,,,,,,,,,,,,,,,1091.6357353999629,None,cousin,31,4,sing,blue,1089.6340532000177,None,None,1089.6340532000177,None,,,,,,,,,,,,,,,,,,,,,,,,,,,,,,,,,,,30Sing,001,2022_Aug_29_1143,ProdSingRedoBetween,2021.2.3,59.9799067109208,
4,0,4,0,,,,,,,,,,,,,,,,,,,,,,,,,,1094.1385672999895,None,pretty,7,5,sing,yellow,1092.1370693999925,None,None,1092.1370693999925,None,,,,,,,,,,,,,,,,,,,,,,,,,,,,,,,,,,,30Sing,001,2022_Aug_29_1143,ProdSingRedoBetween,2021.2.3,59.9799067109208,
5,0,5,0,,,,,,,,,,,,,,,,,,,,,,,,,,1096.657915399992,None,member,85,6,sing,red,1094.6426847999683,None,None,1094.6426847999683,None,,,,,,,,,,,,,,,,,,,,,,,,,,,,,,,,,,,30Sing,001,2022_Aug_29_1143,ProdSingRedoBetween,2021.2.3,59.9799067109208,
6,0,6,0,,,,,,,,,,,,,,,,,,,,,,,,,,1099.1767884999863,None,engineer,21,7,sing,yellow,1097.161288000003,None,None,1097.161288000003,None,,,,,,,,,,,,,,,,,,,,,,,,,,,,,,,,,,,30Sing,001,2022_Aug_29_1143,ProdSingRedoBetween,2021.2.3,59.9799067109208,
7,0,7,0,,,,,,,,,,,,,,,,,,,,,,,,,,1101.6961510999827,None,carry,45,8,sing,blue,1099.6880356000038,None,None,1099.6880356000038,None,,,,,,,,,,,,,,,,,,,,,,,,,,,,,,,,,,,30Sing,001,2022_Aug_29_1143,ProdSingRedoBetween,2021.2.3,59.9799067109208,
8,0,8,0,,,,,,,,,,,,,,,,,,,,,,,,,,1104.2153356999625,None,track,20,9,sing,yellow,1102.2070227999939,None,None,1102.2070227999939,None,,,,,,,,,,,,,,,,,,,,,,,,,,,,,,,,,,,30Sing,001,2022_Aug_29_1143,ProdSingRedoBetween,2021.2.3,59.9799067109208,
9,0,9,0,,,,,,,,,,,,,,,,,,,,,,,,,,1106.734435499995,None,congress,43,10,sing,blue,1104.7196495999815,None,None,1104.7196495999815,None,,,,,,,,,,,,,,,,,,,,,,,,,,,,,,,,,,,30Sing,001,2022_Aug_29_1143,ProdSingRedoBetween,2021.2.3,59.9799067109208,
10,0,10,0,,,,,,,,,,,,,,,,,,,,,,,,,,1109.2537975999876,None,match,10,11,sing,yellow,1107.239574200008,None,None,1107.239574200008,None,,,,,,,,,,,,,,,,,,,,,,,,,,,,,,,,,,,30Sing,001,2022_Aug_29_1143,ProdSingRedoBetween,2021.2.3,59.9799067109208,
11,0,11,0,,,,,,,,,,,,,,,,,,,,,,,,,,1111.756241199968,None,salary,84,12,sing,red,1109.7542431000038,None,None,1109.7542431000038,None,,,,,,,,,,,,,,,,,,,,,,,,,,,,,,,,,,,30Sing,001,2022_Aug_29_1143,ProdSingRedoBetween,2021.2.3,59.9799067109208,
12,0,12,0,,,,,,,,,,,,,,,,,,,,,,,,,,1114.2754066999769,None,private,5,13,sing,yellow,1112.2687251999741,None,None,1112.2687251999741,None,,,,,,,,,,,,,,,,,,,,,,,,,,,,,,,,,,,30Sing,001,2022_Aug_29_1143,ProdSingRedoBetween,2021.2.3,59.9799067109208,
13,0,13,0,,,,,,,,,,,,,,,,,,,,,,,,,,1116.7778738000197,None,grade,47,14,sing,blue,1114.7758707000175,None,None,1114.7758707000175,None,,,,,,,,,,,,,,,,,,,,,,,,,,,,,,,,,,,30Sing,001,2022_Aug_29_1143,ProdSingRedoBetween,2021.2.3,59.9799067109208,
14,0,14,0,,,,,,,,,,,,,,,,,,,,,,,,,,1119.2803882000153,None,power,32,15,sing,blue,1117.2783845000085,None,None,1117.2783845000085,None,,,,,,,,,,,,,,,,,,,,,,,,,,,,,,,,,,,30Sing,001,2022_Aug_29_1143,ProdSingRedoBetween,2021.2.3,59.9799067109208,
15,0,15,0,,,,,,,,,,,,,,,,,,,,,,,,,,1121.7829106000136,None,place,28,16,sing,yellow,1119.7831009000074,None,None,1119.7831009000074,None,,,,,,,,,,,,,,,,,,,,,,,,,,,,,,,,,,,30Sing,001,2022_Aug_29_1143,ProdSingRedoBetween,2021.2.3,59.9799067109208,
16,0,16,0,,,,,,,,,,,,,,,,,,,,,,,,,,1124.3021416999982,None,husband,11,17,sing,yellow,1122.2909652999952,None,None,1122.2909652999952,None,,,,,,,,,,,,,,,,,,,,,,,,,,,,,,,,,,,30Sing,001,2022_Aug_29_1143,ProdSingRedoBetween,2021.2.3,59.9799067109208,
17,0,17,0,,,,,,,,,,,,,,,,,,,,,,,,,,1126.8046551999869,None,count,33,18,sing,blue,1124.80474469997,None,None,1124.80474469997,None,,,,,,,,,,,,,,,,,,,,,,,,,,,,,,,,,,,30Sing,001,2022_Aug_29_1143,ProdSingRedoBetween,2021.2.3,59.9799067109208,
18,0,18,0,,,,,,,,,,,,,,,,,,,,,,,,,,1129.3070626999834,None,dispute,41,19,sing,blue,1127.306166299968,None,None,1127.306166299968,None,,,,,,,,,,,,,,,,,,,,,,,,,,,,,,,,,,,30Sing,001,2022_Aug_29_1143,ProdSingRedoBetween,2021.2.3,59.9799067109208,
19,0,19,0,,,,,,,,,,,,,,,,,,,,,,,,,,1131.8096028,None,balance,60,20,sing,red,1129.807534499967,None,None,1129.807534499967,None,,,,,,,,,,,,,,,,,,,,,,,,,,,,,,,,,,,30Sing,001,2022_Aug_29_1143,ProdSingRedoBetween,2021.2.3,59.9799067109208,
20,0,20,0,,,,,,,,,,,,,,,,,,,,,,,,,,1134.31203739997,None,permit,87,21,sing,red,1132.3126506999834,None,None,1132.3126506999834,None,,,,,,,,,,,,,,,,,,,,,,,,,,,,,,,,,,,30Sing,001,2022_Aug_29_1143,ProdSingRedoBetween,2021.2.3,59.9799067109208,
21,0,21,0,,,,,,,,,,,,,,,,,,,,,,,,,,1136.8144399999874,None,device,86,22,sing,red,1134.815163399966,None,None,1134.815163399966,None,,,,,,,,,,,,,,,,,,,,,,,,,,,,,,,,,,,30Sing,001,2022_Aug_29_1143,ProdSingRedoBetween,2021.2.3,59.9799067109208,
22,0,22,0,,,,,,,,,,,,,,,,,,,,,,,,,,1139.317091999983,None,state,68,23,sing,red,1137.315082599991,None,None,1137.315082599991,None,,,,,,,,,,,,,,,,,,,,,,,,,,,,,,,,,,,30Sing,001,2022_Aug_29_1143,ProdSingRedoBetween,2021.2.3,59.9799067109208,
23,0,23,0,,,,,,,,,,,,,,,,,,,,,,,,,,1141.8362208000035,None,signal,39,24,sing,blue,1139.8206973000197,None,None,1139.8206973000197,None,,,,,,,,,,,,,,,,,,,,,,,,,,,,,,,,,,,30Sing,001,2022_Aug_29_1143,ProdSingRedoBetween,2021.2.3,59.9799067109208,
24,0,24,0,,,,,,,,,,,,,,,,,,,,,,,,,,1144.3386753000086,None,military,82,25,sing,red,1142.3367530999822,None,None,1142.3367530999822,None,,,,,,,,,,,,,,,,,,,,,,,,,,,,,,,,,,,30Sing,001,2022_Aug_29_1143,ProdSingRedoBetween,2021.2.3,59.9799067109208,
25,0,25,0,,,,,,,,,,,,,,,,,,,,,,,,,,1146.8413759999676,None,staff,1,26,sing,yellow,1144.8409517999971,None,None,1144.8409517999971,None,,,,,,,,,,,,,,,,,,,,,,,,,,,,,,,,,,,30Sing,001,2022_Aug_29_1143,ProdSingRedoBetween,2021.2.3,59.9799067109208,
26,0,26,0,,,,,,,,,,,,,,,,,,,,,,,,,,1149.3437251999858,None,expansion,65,27,sing,red,1147.3413584000082,None,None,1147.3413584000082,None,,,,,,,,,,,,,,,,,,,,,,,,,,,,,,,,,,,30Sing,001,2022_Aug_29_1143,ProdSingRedoBetween,2021.2.3,59.9799067109208,
27,0,27,0,,,,,,,,,,,,,,,,,,,,,,,,,,1151.8629872999736,None,victory,80,28,sing,red,1149.848748999997,None,None,1149.848748999997,None,,,,,,,,,,,,,,,,,,,,,,,,,,,,,,,,,,,30Sing,001,2022_Aug_29_1143,ProdSingRedoBetween,2021.2.3,59.9799067109208,
28,0,28,0,,,,,,,,,,,,,,,,,,,,,,,,,,1154.3653335999697,None,business,22,29,sing,yellow,1152.3655484999763,None,None,1152.3655484999763,None,,,,,,,,,,,,,,,,,,,,,,,,,,,,,,,,,,,30Sing,001,2022_Aug_29_1143,ProdSingRedoBetween,2021.2.3,59.9799067109208,
29,0,29,0,,,,,,,,,,,,,,,,,,,,,,,,,,1156.8679016999668,None,still,25,30,sing,yellow,1154.8659619999817,None,None,1154.8659619999817,None,,,,,,,,,,,,,,,,,,,,,,,,,,,,,,,,,,,30Sing,001,2022_Aug_29_1143,ProdSingRedoBetween,2021.2.3,59.9799067109208,
30,0,30,0,,,,,,,,,,,,,,,,,,,,,,,,,,1159.370373199985,None,touch,67,31,sing,red,1157.3695235999767,None,None,1157.3695235999767,None,,,,,,,,,,,,,,,,,,,,,,,,,,,,,,,,,,,30Sing,001,2022_Aug_29_1143,ProdSingRedoBetween,2021.2.3,59.9799067109208,
31,0,31,0,,,,,,,,,,,,,,,,,,,,,,,,,,1161.8729368000058,None,quiet,17,32,sing,yellow,1159.8725481000147,None,None,1159.8725481000147,None,,,,,,,,,,,,,,,,,,,,,,,,,,,,,,,,,,,30Sing,001,2022_Aug_29_1143,ProdSingRedoBetween,2021.2.3,59.9799067109208,
32,0,32,0,,,,,,,,,,,,,,,,,,,,,,,,,,1164.375401999976,None,novel,2,33,sing,yellow,1162.3737524999888,None,None,1162.3737524999888,None,,,,,,,,,,,,,,,,,,,,,,,,,,,,,,,,,,,30Sing,001,2022_Aug_29_1143,ProdSingRedoBetween,2021.2.3,59.9799067109208,
33,0,33,0,,,,,,,,,,,,,,,,,,,,,,,,,,1166.8945611999952,None,production,76,34,sing,red,1164.8794089999865,None,None,1164.8794089999865,None,,,,,,,,,,,,,,,,,,,,,,,,,,,,,,,,,,,30Sing,001,2022_Aug_29_1143,ProdSingRedoBetween,2021.2.3,59.9799067109208,
34,0,34,0,,,,,,,,,,,,,,,,,,,,,,,,,,1169.3970731999725,None,payment,56,35,sing,blue,1167.3975382999633,None,None,1167.3975382999633,None,,,,,,,,,,,,,,,,,,,,,,,,,,,,,,,,,,,30Sing,001,2022_Aug_29_1143,ProdSingRedoBetween,2021.2.3,59.9799067109208,
35,0,35,0,,,,,,,,,,,,,,,,,,,,,,,,,,1171.9162760999752,None,region,9,36,sing,yellow,1169.9019471000065,None,None,1169.9019471000065,None,,,,,,,,,,,,,,,,,,,,,,,,,,,,,,,,,,,30Sing,001,2022_Aug_29_1143,ProdSingRedoBetween,2021.2.3,59.9799067109208,
36,0,36,0,,,,,,,,,,,,,,,,,,,,,,,,,,1174.4187044000137,None,threat,6,37,sing,yellow,1172.416781899985,None,None,1172.416781899985,None,,,,,,,,,,,,,,,,,,,,,,,,,,,,,,,,,,,30Sing,001,2022_Aug_29_1143,ProdSingRedoBetween,2021.2.3,59.9799067109208,
37,0,37,0,,,,,,,,,,,,,,,,,,,,,,,,,,1176.9208594000083,None,history,77,38,sing,red,1174.9211990999756,None,None,1174.9211990999756,None,,,,,,,,,,,,,,,,,,,,,,,,,,,,,,,,,,,30Sing,001,2022_Aug_29_1143,ProdSingRedoBetween,2021.2.3,59.9799067109208,
38,0,38,0,,,,,,,,,,,,,,,,,,,,,,,,,,1179.4237925999914,None,throw,81,39,sing,red,1177.4217506999848,None,None,1177.4217506999848,None,,,,,,,,,,,,,,,,,,,,,,,,,,,,,,,,,,,30Sing,001,2022_Aug_29_1143,ProdSingRedoBetween,2021.2.3,59.9799067109208,
39,0,39,0,,,,,,,,,,,,,,,,,,,,,,,,,,1181.942960400018,None,management,4,40,sing,yellow,1179.9285896999645,None,None,1179.9285896999645,None,,,,,,,,,,,,,,,,,,,,,,,,,,,,,,,,,,,30Sing,001,2022_Aug_29_1143,ProdSingRedoBetween,2021.2.3,59.9799067109208,
40,0,40,0,,,,,,,,,,,,,,,,,,,,,,,,,,1184.4454206000082,None,prime,53,41,sing,blue,1182.44479400001,None,None,1182.44479400001,None,,,,,,,,,,,,,,,,,,,,,,,,,,,,,,,,,,,30Sing,001,2022_Aug_29_1143,ProdSingRedoBetween,2021.2.3,59.9799067109208,
41,0,41,0,,,,,,,,,,,,,,,,,,,,,,,,,,1186.9478377999621,None,clear,16,42,sing,yellow,1184.9479570999974,None,None,1184.9479570999974,None,,,,,,,,,,,,,,,,,,,,,,,,,,,,,,,,,,,30Sing,001,2022_Aug_29_1143,ProdSingRedoBetween,2021.2.3,59.9799067109208,
42,0,42,0,,,,,,,,,,,,,,,,,,,,,,,,,,1189.467072999978,None,sight,88,43,sing,red,1187.4533552000066,None,None,1187.4533552000066,None,,,,,,,,,,,,,,,,,,,,,,,,,,,,,,,,,,,30Sing,001,2022_Aug_29_1143,ProdSingRedoBetween,2021.2.3,59.9799067109208,
43,0,43,0,,,,,,,,,,,,,,,,,,,,,,,,,,1191.9695418999763,None,career,66,44,sing,red,1189.9676158999791,None,None,1189.9676158999791,None,,,,,,,,,,,,,,,,,,,,,,,,,,,,,,,,,,,30Sing,001,2022_Aug_29_1143,ProdSingRedoBetween,2021.2.3,59.9799067109208,
44,0,44,0,,,,,,,,,,,,,,,,,,,,,,,,,,1194.4721290000016,None,waste,13,45,sing,yellow,1192.4727984999772,None,None,1192.4727984999772,None,,,,,,,,,,,,,,,,,,,,,,,,,,,,,,,,,,,30Sing,001,2022_Aug_29_1143,ProdSingRedoBetween,2021.2.3,59.9799067109208,
45,0,45,0,,,,,,,,,,,,,,,,,,,,,,,,,,1196.974531600019,None,council,35,46,sing,blue,1194.9732600999996,None,None,1194.9732600999996,None,,,,,,,,,,,,,,,,,,,,,,,,,,,,,,,,,,,30Sing,001,2022_Aug_29_1143,ProdSingRedoBetween,2021.2.3,59.9799067109208,
46,0,46,0,,,,,,,,,,,,,,,,,,,,,,,,,,1199.477129100007,None,drink,29,47,sing,blue,1197.4749889000086,None,None,1197.4749889000086,None,,,,,,,,,,,,,,,,,,,,,,,,,,,,,,,,,,,30Sing,001,2022_Aug_29_1143,ProdSingRedoBetween,2021.2.3,59.9799067109208,
47,0,47,0,,,,,,,,,,,,,,,,,,,,,,,,,,1201.9795882999897,None,generation,49,48,sing,blue,1199.9775370999705,None,None,1199.9775370999705,None,,,,,,,,,,,,,,,,,,,,,,,,,,,,,,,,,,,30Sing,001,2022_Aug_29_1143,ProdSingRedoBetween,2021.2.3,59.9799067109208,
48,0,48,0,,,,,,,,,,,,,,,,,,,,,,,,,,1204.482058499998,None,emergency,70,49,sing,red,1202.4818247999647,None,None,1202.4818247999647,None,,,,,,,,,,,,,,,,,,,,,,,,,,,,,,,,,,,30Sing,001,2022_Aug_29_1143,ProdSingRedoBetween,2021.2.3,59.9799067109208,
49,0,49,0,,,,,,,,,,,,,,,,,,,,,,,,,,1206.9843671999988,None,sleep,52,50,sing,blue,1204.9826846999931,None,None,1204.9826846999931,None,,,,,,,,,,,,,,,,,,,,,,,,,,,,,,,,,,,30Sing,001,2022_Aug_29_1143,ProdSingRedoBetween,2021.2.3,59.9799067109208,
50,0,50,0,,,,,,,,,,,,,,,,,,,,,,,,,,1209.4870807999978,None,rural,38,51,sing,blue,1207.4851822999772,None,None,1207.4851822999772,None,,,,,,,,,,,,,,,,,,,,,,,,,,,,,,,,,,,30Sing,001,2022_Aug_29_1143,ProdSingRedoBetween,2021.2.3,59.9799067109208,
51,0,51,0,,,,,,,,,,,,,,,,,,,,,,,,,,1212.0061970999814,None,provision,48,52,sing,blue,1209.991156300006,None,None,1209.991156300006,None,,,,,,,,,,,,,,,,,,,,,,,,,,,,,,,,,,,30Sing,001,2022_Aug_29_1143,ProdSingRedoBetween,2021.2.3,59.9799067109208,
52,0,52,0,,,,,,,,,,,,,,,,,,,,,,,,,,1214.5255601999816,None,break,89,53,sing,red,1212.5107639000053,None,None,1212.5107639000053,None,,,,,,,,,,,,,,,,,,,,,,,,,,,,,,,,,,,30Sing,001,2022_Aug_29_1143,ProdSingRedoBetween,2021.2.3,59.9799067109208,
53,0,53,0,,,,,,,,,,,,,,,,,,,,,,,,,,1217.0281350999721,None,article,50,54,sing,blue,1215.0274427999975,None,None,1215.0274427999975,None,,,,,,,,,,,,,,,,,,,,,,,,,,,,,,,,,,,30Sing,001,2022_Aug_29_1143,ProdSingRedoBetween,2021.2.3,59.9799067109208,
54,0,54,0,,,,,,,,,,,,,,,,,,,,,,,,,,1219.5304148999858,None,incident,27,55,sing,yellow,1217.5294517999864,None,None,1217.5294517999864,None,,,,,,,,,,,,,,,,,,,,,,,,,,,,,,,,,,,30Sing,001,2022_Aug_29_1143,ProdSingRedoBetween,2021.2.3,59.9799067109208,
55,0,55,0,,,,,,,,,,,,,,,,,,,,,,,,,,1222.0347349999938,None,health,44,56,sing,blue,1220.0341188000166,None,None,1220.0341188000166,None,,,,,,,,,,,,,,,,,,,,,,,,,,,,,,,,,,,30Sing,001,2022_Aug_29_1143,ProdSingRedoBetween,2021.2.3,59.9799067109208,
56,0,56,0,,,,,,,,,,,,,,,,,,,,,,,,,,1224.568811199977,None,junior,78,57,sing,red,1222.5546633999911,None,None,1222.5546633999911,None,,,,,,,,,,,,,,,,,,,,,,,,,,,,,,,,,,,30Sing,001,2022_Aug_29_1143,ProdSingRedoBetween,2021.2.3,59.9799067109208,
57,0,57,0,,,,,,,,,,,,,,,,,,,,,,,,,,1227.087988400017,None,atmosphere,19,58,sing,yellow,1225.0726994000142,None,None,1225.0726994000142,None,,,,,,,,,,,,,,,,,,,,,,,,,,,,,,,,,,,30Sing,001,2022_Aug_29_1143,ProdSingRedoBetween,2021.2.3,59.9799067109208,
58,0,58,0,,,,,,,,,,,,,,,,,,,,,,,,,,1229.6070943999803,None,crisis,51,59,sing,blue,1227.5915961000137,None,None,1227.5915961000137,None,,,,,,,,,,,,,,,,,,,,,,,,,,,,,,,,,,,30Sing,001,2022_Aug_29_1143,ProdSingRedoBetween,2021.2.3,59.9799067109208,
59,0,59,0,,,,,,,,,,,,,,,,,,,,,,,,,,1232.1263492999715,None,impact,37,60,sing,blue,1230.1118102999753,None,None,1230.1118102999753,None,,,,,,,,,,,,,,,,,,,,,,,,,,,,,,,,,,,30Sing,001,2022_Aug_29_1143,ProdSingRedoBetween,2021.2.3,59.9799067109208,
60,0,60,0,,,,,,,,,,,,,,,,,,,,,,,,,,1234.6288253999664,None,universal,15,61,sing,yellow,1232.6264948999742,None,None,1232.6264948999742,None,,,,,,,,,,,,,,,,,,,,,,,,,,,,,,,,,,,30Sing,001,2022_Aug_29_1143,ProdSingRedoBetween,2021.2.3,59.9799067109208,
61,0,61,0,,,,,,,,,,,,,,,,,,,,,,,,,,1237.1311363999848,None,master,8,62,sing,yellow,1235.1310759999906,None,None,1235.1310759999906,None,,,,,,,,,,,,,,,,,,,,,,,,,,,,,,,,,,,30Sing,001,2022_Aug_29_1143,ProdSingRedoBetween,2021.2.3,59.9799067109208,
62,0,62,0,,,,,,,,,,,,,,,,,,,,,,,,,,1239.6338615000132,None,goose,73,63,sing,red,1237.6316252999823,None,None,1237.6316252999823,None,,,,,,,,,,,,,,,,,,,,,,,,,,,,,,,,,,,30Sing,001,2022_Aug_29_1143,ProdSingRedoBetween,2021.2.3,59.9799067109208,
63,0,63,0,,,,,,,,,,,,,,,,,,,,,,,,,,1242.1529403000022,None,interview,71,64,sing,red,1240.138035800017,None,None,1240.138035800017,None,,,,,,,,,,,,,,,,,,,,,,,,,,,,,,,,,,,30Sing,001,2022_Aug_29_1143,ProdSingRedoBetween,2021.2.3,59.9799067109208,
64,0,64,0,,,,,,,,,,,,,,,,,,,,,,,,,,1244.6555489000166,None,nation,74,65,sing,red,1242.6535328999744,None,None,1242.6535328999744,None,,,,,,,,,,,,,,,,,,,,,,,,,,,,,,,,,,,30Sing,001,2022_Aug_29_1143,ProdSingRedoBetween,2021.2.3,59.9799067109208,
65,0,65,0,,,,,,,,,,,,,,,,,,,,,,,,,,1247.1579370999825,None,nature,3,66,sing,yellow,1245.158134599973,None,None,1245.158134599973,None,,,,,,,,,,,,,,,,,,,,,,,,,,,,,,,,,,,30Sing,001,2022_Aug_29_1143,ProdSingRedoBetween,2021.2.3,59.9799067109208,
66,0,66,0,,,,,,,,,,,,,,,,,,,,,,,,,,1249.6772055000183,None,brief,63,67,sing,red,1247.6620811999892,None,None,1247.6620811999892,None,,,,,,,,,,,,,,,,,,,,,,,,,,,,,,,,,,,30Sing,001,2022_Aug_29_1143,ProdSingRedoBetween,2021.2.3,59.9799067109208,
67,0,67,0,,,,,,,,,,,,,,,,,,,,,,,,,,1252.1797464999836,None,poetry,72,68,sing,red,1250.1774624999962,None,None,1250.1774624999962,None,,,,,,,,,,,,,,,,,,,,,,,,,,,,,,,,,,,30Sing,001,2022_Aug_29_1143,ProdSingRedoBetween,2021.2.3,59.9799067109208,
68,0,68,0,,,,,,,,,,,,,,,,,,,,,,,,,,1254.6988319999655,None,education,79,69,sing,red,1252.6849995999946,None,None,1252.6849995999946,None,,,,,,,,,,,,,,,,,,,,,,,,,,,,,,,,,,,30Sing,001,2022_Aug_29_1143,ProdSingRedoBetween,2021.2.3,59.9799067109208,
69,0,69,0,,,,,,,,,,,,,,,,,,,,,,,,,,1257.218161900004,None,raise,57,70,sing,blue,1255.2030333000002,None,None,1255.2030333000002,None,,,,,,,,,,,,,,,,,,,,,,,,,,,,,,,,,,,30Sing,001,2022_Aug_29_1143,ProdSingRedoBetween,2021.2.3,59.9799067109208,
70,0,70,0,,,,,,,,,,,,,,,,,,,,,,,,,,1259.7202850999893,None,force,58,71,sing,blue,1257.7186875999905,None,None,1257.7186875999905,None,,,,,,,,,,,,,,,,,,,,,,,,,,,,,,,,,,,30Sing,001,2022_Aug_29_1143,ProdSingRedoBetween,2021.2.3,59.9799067109208,
71,0,71,0,,,,,,,,,,,,,,,,,,,,,,,,,,1262.2230709000141,None,broad,34,72,sing,blue,1260.222581500013,None,None,1260.222581500013,None,,,,,,,,,,,,,,,,,,,,,,,,,,,,,,,,,,,30Sing,001,2022_Aug_29_1143,ProdSingRedoBetween,2021.2.3,59.9799067109208,
72,0,72,0,,,,,,,,,,,,,,,,,,,,,,,,,,1264.7256177999661,None,straight,12,73,sing,yellow,1262.723642900004,None,None,1262.723642900004,None,,,,,,,,,,,,,,,,,,,,,,,,,,,,,,,,,,,30Sing,001,2022_Aug_29_1143,ProdSingRedoBetween,2021.2.3,59.9799067109208,
73,0,73,0,,,,,,,,,,,,,,,,,,,,,,,,,,1267.2277144999825,None,agency,14,74,sing,yellow,1265.2287053000182,None,None,1265.2287053000182,None,,,,,,,,,,,,,,,,,,,,,,,,,,,,,,,,,,,30Sing,001,2022_Aug_29_1143,ProdSingRedoBetween,2021.2.3,59.9799067109208,
74,0,74,0,,,,,,,,,,,,,,,,,,,,,,,,,,1269.7305238000117,None,travel,75,75,sing,red,1267.728980600019,None,None,1267.728980600019,None,,,,,,,,,,,,,,,,,,,,,,,,,,,,,,,,,,,30Sing,001,2022_Aug_29_1143,ProdSingRedoBetween,2021.2.3,59.9799067109208,
75,0,75,0,,,,,,,,,,,,,,,,,,,,,,,,,,1272.233214500011,None,danger,55,76,sing,blue,1270.2339128999738,None,None,1270.2339128999738,None,,,,,,,,,,,,,,,,,,,,,,,,,,,,,,,,,,,30Sing,001,2022_Aug_29_1143,ProdSingRedoBetween,2021.2.3,59.9799067109208,
76,0,76,0,,,,,,,,,,,,,,,,,,,,,,,,,,1274.7522242999985,None,vision,40,77,sing,blue,1272.7424073999864,None,None,1272.7424073999864,None,,,,,,,,,,,,,,,,,,,,,,,,,,,,,,,,,,,30Sing,001,2022_Aug_29_1143,ProdSingRedoBetween,2021.2.3,59.9799067109208,
77,0,77,0,,,,,,,,,,,,,,,,,,,,,,,,,,1277.2547438999754,None,society,46,78,sing,blue,1275.2548169000074,None,None,1275.2548169000074,None,,,,,,,,,,,,,,,,,,,,,,,,,,,,,,,,,,,30Sing,001,2022_Aug_29_1143,ProdSingRedoBetween,2021.2.3,59.9799067109208,
78,0,78,0,,,,,,,,,,,,,,,,,,,,,,,,,,1279.7738766999682,None,appearance,23,79,sing,yellow,1277.77045359998,None,None,1277.77045359998,None,,,,,,,,,,,,,,,,,,,,,,,,,,,,,,,,,,,30Sing,001,2022_Aug_29_1143,ProdSingRedoBetween,2021.2.3,59.9799067109208,
79,0,79,0,,,,,,,,,,,,,,,,,,,,,,,,,,1282.276361199969,None,command,59,80,sing,yellow,1280.274425600015,None,None,1280.274425600015,None,,,,,,,,,,,,,,,,,,,,,,,,,,,,,,,,,,,30Sing,001,2022_Aug_29_1143,ProdSingRedoBetween,2021.2.3,59.9799067109208,
80,0,80,0,,,,,,,,,,,,,,,,,,,,,,,,,,1284.7956276999903,None,pancakes,18,81,sing,yellow,1282.7887070999714,None,None,1282.7887070999714,None,,,,,,,,,,,,,,,,,,,,,,,,,,,,,,,,,,,30Sing,001,2022_Aug_29_1143,ProdSingRedoBetween,2021.2.3,59.9799067109208,
81,0,81,0,,,,,,,,,,,,,,,,,,,,,,,,,,1287.2981289000018,None,rough,64,82,sing,red,1285.2983422999969,None,None,1285.2983422999969,None,,,,,,,,,,,,,,,,,,,,,,,,,,,,,,,,,,,30Sing,001,2022_Aug_29_1143,ProdSingRedoBetween,2021.2.3,59.9799067109208,
82,0,82,0,,,,,,,,,,,,,,,,,,,,,,,,,,1289.8173172000097,None,review,24,83,sing,yellow,1287.8163400000194,None,None,1287.8163400000194,None,,,,,,,,,,,,,,,,,,,,,,,,,,,,,,,,,,,30Sing,001,2022_Aug_29_1143,ProdSingRedoBetween,2021.2.3,59.9799067109208,
83,0,83,0,,,,,,,,,,,,,,,,,,,,,,,,,,1292.3198409000179,None,beauty,54,84,sing,blue,1290.3187403999618,None,None,1290.3187403999618,None,,,,,,,,,,,,,,,,,,,,,,,,,,,,,,,,,,,30Sing,001,2022_Aug_29_1143,ProdSingRedoBetween,2021.2.3,59.9799067109208,
84,0,84,0,,,,,,,,,,,,,,,,,,,,,,,,,,1294.838657699991,None,brilliant,83,85,sing,red,1292.825404000003,None,None,1292.825404000003,None,,,,,,,,,,,,,,,,,,,,,,,,,,,,,,,,,,,30Sing,001,2022_Aug_29_1143,ProdSingRedoBetween,2021.2.3,59.9799067109208,
85,0,85,0,,,,,,,,,,,,,,,,,,,,,,,,,,1297.3581074000103,None,close,42,86,sing,blue,1295.342618900002,None,None,1295.342618900002,None,,,,,,,,,,,,,,,,,,,,,,,,,,,,,,,,,,,30Sing,001,2022_Aug_29_1143,ProdSingRedoBetween,2021.2.3,59.9799067109208,
86,0,86,0,,,,,,,,,,,,,,,,,,,,,,,,,,1299.860668600013,None,alert,62,87,sing,red,1297.8586336000008,None,None,1297.8586336000008,None,,,,,,,,,,,,,,,,,,,,,,,,,,,,,,,,,,,30Sing,001,2022_Aug_29_1143,ProdSingRedoBetween,2021.2.3,59.9799067109208,
87,0,87,0,,,,,,,,,,,,,,,,,,,,,,,,,,1302.3631324999733,None,agreement,26,88,sing,yellow,1300.363314200018,None,None,1300.363314200018,None,,,,,,,,,,,,,,,,,,,,,,,,,,,,,,,,,,,30Sing,001,2022_Aug_29_1143,ProdSingRedoBetween,2021.2.3,59.9799067109208,
88,0,88,0,,,,,,,,,,,,,,,,,,,,,,,,,,1304.8823002999998,None,angle,36,89,sing,blue,1302.8779226000188,None,None,1302.8779226000188,None,,,,,,,,,,,,,,,,,,,,,,,,,,,,,,,,,,,30Sing,001,2022_Aug_29_1143,ProdSingRedoBetween,2021.2.3,59.9799067109208,
89,0,89,0,,,,,,,,,,,,,,,,,,,,,,,,,,1307.3847562000155,None,degree,30,90,sing,blue,1305.3824822999886,None,None,1305.3824822999886,None,,,,,,,,,,,,,,,,,,,,,,,,,,,,,,,,,,,30Sing,001,2022_Aug_29_1143,ProdSingRedoBetween,2021.2.3,59.9799067109208,
,,,,,,,,,,,,,,,,,,,,,,,,,,,,,,,,,,,,,,,,,1307.8855752999661,None,k,109.80809370003408,1307.8855752999661,None,,,,,,,,,,,,,,,,,,,,,,,,,,,,,30Sing,001,2022_Aug_29_1143,ProdSingRedoBetween,2021.2.3,59.9799067109208,
,,,,0,0,0,0,,,,,,,,,,,,,,,,,,,,,,1427.8884345999686,None,,,,,,,,,,,,,,,,,store,169,1,sing,new,null,1418.224754899973,None,1418.224754899973,None,4,6.996880099992268,1418.224754899973,None,6.996880099992268,1425.2533781999955,None,1425.7528000000166,None,1425.7528000000166,None,f,2.108805100026075,1425.7528000000166,None,2.108805100026075,,,30Sing,001,2022_Aug_29_1143,ProdSingRedoBetween,2021.2.3,59.9799067109208,
,,,,1,0,1,0,,,,,,,,,,,,,,,,,,,,,,1433.3771317999926,None,,,,,,,,,,,,,,,,,article,50,2,sing,old,blue,1428.395497099962,None,1428.395497099962,None,6,2.8661853999947198,1428.395497099962,None,2.8661853999947198,1431.2939332000096,None,1431.8091385000153,None,1431.8091385000153,None,r,1.540455300011672,1431.8091385000153,None,1.540455300011672,,,30Sing,001,2022_Aug_29_1143,ProdSingRedoBetween,2021.2.3,59.9799067109208,
,,,,2,0,2,0,,,,,,,,,,,,,,,,,,,,,,1438.0163138000062,None,,,,,,,,,,,,,,,,,member,85,3,sing,old,red,1433.879241799994,None,1433.879241799994,None,6,1.5505314999609254,1433.879241799994,None,1.5505314999609254,1435.4517424000078,None,1435.9630586999701,None,1435.9630586999701,None,f,2.026778600004036,1435.9630586999701,None,2.026778600004036,,,30Sing,001,2022_Aug_29_1143,ProdSingRedoBetween,2021.2.3,59.9799067109208,
,,,,3,0,3,0,,,,,,,,,,,,,,,,,,,,,,1447.5910928999656,None,,,,,,,,,,,,,,,,,suspect,98,4,sing,new,null,1438.5220466000028,None,1438.5220466000028,None,2,4.451597100007348,1438.5220466000028,None,4.451597100007348,1443.011544900015,None,1443.5207596999826,None,1443.5207596999826,None,n,4.044822299969383,1443.5207596999826,None,4.044822299969383,,,30Sing,001,2022_Aug_29_1143,ProdSingRedoBetween,2021.2.3,59.9799067109208,
,,,,4,0,4,0,,,,,,,,,,,,,,,,,,,,,,1451.728812599962,None,,,,,,,,,,,,,,,,,dispute,41,5,sing,old,blue,1448.093486799975,None,1448.093486799975,None,6,2.1601843999815173,1448.093486799975,None,2.1601843999815173,1450.2783382000052,None,1450.7855572999688,None,1450.7855572999688,None,f,0.915996499999892,1450.7855572999688,None,0.915996499999892,,,30Sing,001,2022_Aug_29_1143,ProdSingRedoBetween,2021.2.3,59.9799067109208,
,,,,5,0,5,0,,,,,,,,,,,,,,,,,,,,,,1455.0654487999855,None,,,,,,,,,,,,,,,,,crisis,51,6,sing,old,blue,1452.239823699987,None,1452.239823699987,None,6,1.6540492000058293,1452.239823699987,None,1.6540492000058293,1453.9231924000196,None,1454.4347641000059,None,1454.4347641000059,None,f,0.6028098000097089,1454.4347641000059,None,0.6028098000097089,,,30Sing,001,2022_Aug_29_1143,ProdSingRedoBetween,2021.2.3,59.9799067109208,
,,,,6,0,6,0,,,,,,,,,,,,,,,,,,,,,,1458.9027004999807,None,,,,,,,,,,,,,,,,,business,22,7,sing,old,yellow,1455.5783277999726,None,1455.5783277999726,None,6,1.9553040000027977,1455.5783277999726,None,1.9553040000027977,1457.5575261000195,None,1458.08111129998,None,1458.08111129998,None,f,0.7964989999891259,1458.08111129998,None,0.7964989999891259,,,30Sing,001,2022_Aug_29_1143,ProdSingRedoBetween,2021.2.3,59.9799067109208,
,,,,7,0,7,0,,,,,,,,,,,,,,,,,,,,,,1462.6080842000083,None,,,,,,,,,,,,,,,,,dance,166,8,sing,new,null,1459.4102726000128,None,1459.4102726000128,None,1,1.5314450000296347,1459.4102726000128,None,1.5314450000296347,1460.9756819999893,None,1461.491545099998,None,1461.491545099998,None,n,1.0901133999577723,1461.491545099998,None,1.0901133999577723,,,30Sing,001,2022_Aug_29_1143,ProdSingRedoBetween,2021.2.3,59.9799067109208,
,,,,8,0,8,0,,,,,,,,,,,,,,,,,,,,,,1466.9270521000144,None,,,,,,,,,,,,,,,,,captain,106,9,sing,new,null,1463.1427090999787,None,1463.1427090999787,None,1,1.8547643999918364,1463.1427090999787,None,1.8547643999918364,1465.0267067999812,None,1465.5426047999645,None,1465.5426047999645,None,n,1.3590287999832071,1465.5426047999645,None,1.3590287999832071,,,30Sing,001,2022_Aug_29_1143,ProdSingRedoBetween,2021.2.3,59.9799067109208,
,,,,9,0,9,0,,,,,,,,,,,,,,,,,,,,,,1471.7488075,None,,,,,,,,,,,,,,,,,hearing,176,10,sing,new,null,1467.4365321999649,None,1467.4365321999649,None,1,2.489039900014177,1467.4365321999649,None,2.489039900014177,1469.9479848999763,None,1470.4530671999673,None,1470.4530671999673,None,n,1.2646461999975145,1470.4530671999673,None,1.2646461999975145,,,30Sing,001,2022_Aug_29_1143,ProdSingRedoBetween,2021.2.3,59.9799067109208,
,,,,10,0,10,0,,,,,,,,,,,,,,,,,,,,,,1476.3699960999656,None,,,,,,,,,,,,,,,,,throw,81,11,sing,old,red,1472.2533033000072,None,1472.2533033000072,None,5,2.664532999973744,1472.2533033000072,None,2.664532999973744,1474.9426393000176,None,1475.4526425999939,None,1475.4526425999939,None,f,0.8889980000094511,1475.4526425999939,None,0.8889980000094511,,,30Sing,001,2022_Aug_29_1143,ProdSingRedoBetween,2021.2.3,59.9799067109208,
,,,,11,0,11,0,,,,,,,,,,,,,,,,,,,,,,1481.1081684000092,None,,,,,,,,,,,,,,,,,appearance,23,12,sing,old,yellow,1476.8835508999764,None,1476.8835508999764,None,6,3.314160100009758,1476.8835508999764,None,3.314160100009758,1480.2346466999734,None,1480.74336079997,None,1480.74336079997,None,f,0.3422327999724075,1480.74336079997,None,0.3422327999724075,,,30Sing,001,2022_Aug_29_1143,ProdSingRedoBetween,2021.2.3,59.9799067109208,
,,,,12,0,12,0,,,,,,,,,,,,,,,,,,,,,,1486.2485531999846,None,,,,,,,,,,,,,,,,,nation,74,13,sing,old,red,1481.6109744000132,None,1481.6109744000132,None,5,3.3548141000210308,1481.6109744000132,None,3.3548141000210308,1485.0044142999686,None,1485.51270989998,None,1485.51270989998,None,f,0.7169272000319324,1485.51270989998,None,0.7169272000319324,,,30Sing,001,2022_Aug_29_1143,ProdSingRedoBetween,2021.2.3,59.9799067109208,
,,,,13,0,13,0,,,,,,,,,,,,,,,,,,,,,,1489.899932499975,None,,,,,,,,,,,,,,,,,novel,2,14,sing,old,yellow,1486.7718384999898,None,1486.7718384999898,None,5,2.2097950000315905,1486.7718384999898,None,2.2097950000315905,1489.0035649999627,None,1489.5199774999637,None,1489.5199774999637,None,f,0.3576372000388801,1489.5199774999637,None,0.3576372000388801,,,30Sing,001,2022_Aug_29_1143,ProdSingRedoBetween,2021.2.3,59.9799067109208,
,,,,14,0,14,0,,,,,,,,,,,,,,,,,,,,,,1492.853215500014,None,,,,,,,,,,,,,,,,,impact,37,15,sing,old,blue,1490.4152792000095,None,1490.4152792000095,None,5,1.550372600031551,1490.4152792000095,None,1.550372600031551,1491.9913019000087,None,1492.5029343999922,None,1492.5029343999922,None,f,0.33470510004553944,1492.5029343999922,None,0.33470510004553944,,,30Sing,001,2022_Aug_29_1143,ProdSingRedoBetween,2021.2.3,59.9799067109208,
,,,,15,0,15,0,,,,,,,,,,,,,,,,,,,,,,1495.6893639999907,None,,,,,,,,,,,,,,,,,pretty,7,16,sing,old,yellow,1493.3623039000086,None,1493.3623039000086,None,6,1.4673130000010133,1493.3623039000086,None,1.4673130000010133,1494.8562375999754,None,1495.3603126999806,None,1495.3603126999806,None,f,0.3092723999870941,1495.3603126999806,None,0.3092723999870941,,,30Sing,001,2022_Aug_29_1143,ProdSingRedoBetween,2021.2.3,59.9799067109208,
,,,,16,0,16,0,,,,,,,,,,,,,,,,,,,,,,1499.559942199965,None,,,,,,,,,,,,,,,,,problem,130,17,sing,new,null,1496.1978190999944,None,1496.1978190999944,None,5,2.5117441000184044,1496.1978190999944,None,2.5117441000184044,1498.7308918999624,None,1499.2550255999668,None,1499.2550255999668,None,f,0.2786031999858096,1499.2550255999668,None,0.2786031999858096,,,30Sing,001,2022_Aug_29_1143,ProdSingRedoBetween,2021.2.3,59.9799067109208,
,,,,17,0,17,0,,,,,,,,,,,,,,,,,,,,,,1502.5812106999801,None,,,,,,,,,,,,,,,,,graduate,151,18,sing,new,null,1500.0651721999748,None,1500.0651721999748,None,1,1.6044149000081234,1500.0651721999748,None,1.6044149000081234,1501.6983686999884,None,1502.2128095999942,None,1502.2128095999942,None,n,0.33684840000933036,1502.2128095999942,None,0.33684840000933036,,,30Sing,001,2022_Aug_29_1143,ProdSingRedoBetween,2021.2.3,59.9799067109208,
,,,,18,0,18,0,,,,,,,,,,,,,,,,,,,,,,1506.7004021999892,None,,,,,,,,,,,,,,,,,device,86,19,sing,old,red,1503.0977886000182,None,1503.0977886000182,None,3,2.043797399965115,1503.0977886000182,None,2.043797399965115,1505.1668056999915,None,1505.6723234999808,None,1505.6723234999808,None,f,1.0052611000137404,1505.6723234999808,None,1.0052611000137404,,,30Sing,001,2022_Aug_29_1143,ProdSingRedoBetween,2021.2.3,59.9799067109208,
,,,,19,0,19,0,,,,,,,,,,,,,,,,,,,,,,1511.7242071999935,None,,,,,,,,,,,,,,,,,carry,45,20,sing,old,blue,1507.2006797000067,None,1507.2006797000067,None,4,3.605048600002192,1507.2006797000067,None,3.605048600002192,1510.8250374000054,None,1511.344900099968,None,1511.344900099968,None,f,0.35673669999232516,1511.344900099968,None,0.35673669999232516,,,30Sing,001,2022_Aug_29_1143,ProdSingRedoBetween,2021.2.3,59.9799067109208,
,,,,20,0,20,0,,,,,,,,,,,,,,,,,,,,,,1515.5425474999938,None,,,,,,,,,,,,,,,,,running,136,21,sing,new,null,1512.2393892999971,None,1512.2393892999971,None,2,2.078228799975477,1512.2393892999971,None,2.078228799975477,1514.3489463999867,None,1514.8586449999711,None,1514.8586449999711,None,n,0.6589434000197798,1514.8586449999711,None,0.6589434000197798,,,30Sing,001,2022_Aug_29_1143,ProdSingRedoBetween,2021.2.3,59.9799067109208,
,,,,21,0,21,0,,,,,,,,,,,,,,,,,,,,,,1524.0176285000052,None,,,,,,,,,,,,,,,,,public,148,22,sing,new,null,1516.0533350000042,None,1516.0533350000042,None,2,6.2082277000299655,1516.0533350000042,None,6.2082277000299655,1522.2838384999777,None,1522.7883095999714,None,1522.7883095999714,None,n,1.20126420003362,1522.7883095999714,None,1.20126420003362,,,30Sing,001,2022_Aug_29_1143,ProdSingRedoBetween,2021.2.3,59.9799067109208,
,,,,22,0,22,0,,,,,,,,,,,,,,,,,,,,,,1527.3208715000073,None,,,,,,,,,,,,,,,,,story,154,23,sing,new,null,1524.5261163999676,None,1524.5261163999676,None,5,2.159462400013581,1524.5261163999676,None,2.159462400013581,1526.7088151999633,None,1527.220807100006,None,1527.220807100006,None,f,0.08063939999556169,1527.220807100006,None,0.08063939999556169,,,30Sing,001,2022_Aug_29_1143,ProdSingRedoBetween,2021.2.3,59.9799067109208,
,,,,23,0,23,0,,,,,,,,,,,,,,,,,,,,,,1531.191355100018,None,,,,,,,,,,,,,,,,,military,82,24,sing,old,red,1527.821564599988,None,1527.821564599988,None,6,1.8079463999602012,1527.821564599988,None,1.8079463999602012,1529.6604988999898,None,1530.1776490999619,None,1530.1776490999619,None,r,0.9879108999739401,1530.1776490999619,None,0.9879108999739401,,,30Sing,001,2022_Aug_29_1143,ProdSingRedoBetween,2021.2.3,59.9799067109208,
,,,,24,0,24,0,,,,,,,,,,,,,,,,,,,,,,1534.6128350999788,None,,,,,,,,,,,,,,,,,grade,47,25,sing,old,blue,1531.6981237999862,None,1531.6981237999862,None,5,2.051427899976261,1531.6981237999862,None,2.051427899976261,1533.7797406999744,None,1534.3030190999852,None,1534.3030190999852,None,f,0.2867712999577634,1534.3030190999852,None,0.2867712999577634,,,30Sing,001,2022_Aug_29_1143,ProdSingRedoBetween,2021.2.3,59.9799067109208,
,,,,25,0,25,0,,,,,,,,,,,,,,,,,,,,,,1538.4987414999632,None,,,,,,,,,,,,,,,,,attack,144,26,sing,new,null,1535.1186629000003,None,1535.1186629000003,None,1,1.7749366000061855,1535.1186629000003,None,1.7749366000061855,1536.9360642000102,None,1537.4478400999797,None,1537.4478400999797,None,n,1.029754499963019,1537.4478400999797,None,1.029754499963019,,,30Sing,001,2022_Aug_29_1143,ProdSingRedoBetween,2021.2.3,59.9799067109208,
,,,,26,0,26,0,,,,,,,,,,,,,,,,,,,,,,1543.889699499996,None,,,,,,,,,,,,,,,,,brilliant,83,27,sing,old,red,1539.007838099962,None,1539.007838099962,None,6,3.445758300018497,1539.007838099962,None,3.445758300018497,1542.4748078999692,None,1542.9864287999808,None,1542.9864287999808,None,f,0.8831628999905661,1542.9864287999808,None,0.8831628999905661,,,30Sing,001,2022_Aug_29_1143,ProdSingRedoBetween,2021.2.3,59.9799067109208,
,,,,27,0,27,0,,,,,,,,,,,,,,,,,,,,,,1547.525583199982,None,,,,,,,,,,,,,,,,,bicycle,135,28,sing,new,null,1544.4059083000175,None,1544.4059083000175,None,1,1.5837252999772318,1544.4059083000175,None,1.5837252999772318,1546.0121829999844,None,1546.5254839999834,None,1546.5254839999834,None,n,0.9761016000411473,1546.5254839999834,None,0.9761016000411473,,,30Sing,001,2022_Aug_29_1143,ProdSingRedoBetween,2021.2.3,59.9799067109208,
,,,,28,0,28,0,,,,,,,,,,,,,,,,,,,,,,1551.0302931999904,None,,,,,,,,,,,,,,,,,primary,125,29,sing,new,null,1548.0341510999715,None,1548.0341510999715,None,2,2.1154344999813475,1548.0341510999715,None,2.1154344999813475,1550.1875688,None,1550.6956227999763,None,1550.6956227999763,None,n,0.31010439997771755,1550.6956227999763,None,0.31010439997771755,,,30Sing,001,2022_Aug_29_1143,ProdSingRedoBetween,2021.2.3,59.9799067109208,
,,,,29,0,29,0,,,,,,,,,,,,,,,,,,,,,,1556.5666294000112,None,,,,,,,,,,,,,,,,,sweet,91,30,sing,new,null,1551.5455810999847,None,1551.5455810999847,None,1,3.9080806999700144,1551.5455810999847,None,3.9080806999700144,1555.4906079999637,None,1555.9997033000109,None,1555.9997033000109,None,n,0.5497988000279292,1555.9997033000109,None,0.5497988000279292,,,30Sing,001,2022_Aug_29_1143,ProdSingRedoBetween,2021.2.3,59.9799067109208,
,,,,30,0,30,0,,,,,,,,,,,,,,,,,,,,,,1560.3714031999698,None,,,,,,,,,,,,,,,,,straight,12,31,sing,old,yellow,1557.076590600016,None,1557.076590600016,None,6,1.5769308999879286,1557.076590600016,None,1.5769308999879286,1558.6700749999727,None,1559.1695019999752,None,1559.1695019999752,None,r,1.1721512000076473,1559.1695019999752,None,1.1721512000076473,,,30Sing,001,2022_Aug_29_1143,ProdSingRedoBetween,2021.2.3,59.9799067109208,
,,,,31,0,31,0,,,,,,,,,,,,,,,,,,,,,,1566.5796073999954,None,,,,,,,,,,,,,,,,,atmosphere,19,32,sing,old,yellow,1560.8787739999825,None,1560.8787739999825,None,5,4.694777900003828,1560.8787739999825,None,4.694777900003828,1565.592668599973,None,1566.098865100008,None,1566.098865100008,None,f,0.4590374999679625,1566.098865100008,None,0.4590374999679625,,,30Sing,001,2022_Aug_29_1143,ProdSingRedoBetween,2021.2.3,59.9799067109208,
,,,,32,0,32,0,,,,,,,,,,,,,,,,,,,,,,1571.381578999979,None,,,,,,,,,,,,,,,,,vision,40,33,sing,old,blue,1567.0937893000082,None,1567.0937893000082,None,4,3.375931999995373,1567.0937893000082,None,3.375931999995373,1570.5065690999618,None,1571.019507799996,None,1571.019507799996,None,f,0.3459461000165902,1571.019507799996,None,0.3459461000165902,,,30Sing,001,2022_Aug_29_1143,ProdSingRedoBetween,2021.2.3,59.9799067109208,
,,,,33,0,33,0,,,,,,,,,,,,,,,,,,,,,,1575.395127900003,None,,,,,,,,,,,,,,,,,contract,0,34,sing,old,yellow,1571.8936997000128,None,1571.8936997000128,None,6,2.295821800013073,1571.8936997000128,None,2.295821800013073,1574.2203553,None,1574.738008300017,None,1574.738008300017,None,f,0.6278380999574438,1574.738008300017,None,0.6278380999574438,,,30Sing,001,2022_Aug_29_1143,ProdSingRedoBetween,2021.2.3,59.9799067109208,
,,,,34,0,34,0,,,,,,,,,,,,,,,,,,,,,,1581.6753421999747,None,,,,,,,,,,,,,,,,,close,42,35,sing,old,blue,1575.9058937999653,None,1575.9058937999653,None,6,4.571592300024349,1575.9058937999653,None,4.571592300024349,1580.5081703999895,None,1581.0147002000012,None,1581.0147002000012,None,f,0.6390185000491329,1581.0147002000012,None,0.6390185000491329,,,30Sing,001,2022_Aug_29_1143,ProdSingRedoBetween,2021.2.3,59.9799067109208,
,,,,35,0,35,0,,,,,,,,,,,,,,,,,,,,,,1587.2319182999781,None,,,,,,,,,,,,,,,,,space,174,36,sing,new,null,1582.185504699999,None,1582.185504699999,None,4,4.132050300016999,1582.185504699999,None,4.132050300016999,1586.3494591999915,None,1586.8638739999733,None,1586.8638739999733,None,f,0.3417265000171028,1586.8638739999733,None,0.3417265000171028,,,30Sing,001,2022_Aug_29_1143,ProdSingRedoBetween,2021.2.3,59.9799067109208,
,,,,36,0,36,0,,,,,,,,,,,,,,,,,,,,,,1591.1512806999963,None,,,,,,,,,,,,,,,,,management,4,37,sing,old,yellow,1587.7400913999882,None,1587.7400913999882,None,5,2.537296599999536,1587.7400913999882,None,2.537296599999536,1590.3005776999635,None,1590.801106399973,None,1590.801106399973,None,f,0.33240199997089803,1590.801106399973,None,0.33240199997089803,,,30Sing,001,2022_Aug_29_1143,ProdSingRedoBetween,2021.2.3,59.9799067109208,
,,,,37,0,37,0,,,,,,,,,,,,,,,,,,,,,,1595.4573968999903,None,,,,,,,,,,,,,,,,,industry,120,38,sing,new,null,1591.653767700016,None,1591.653767700016,None,5,2.1197493000072427,1591.653767700016,None,2.1197493000072427,1593.806692400016,None,1594.3250531000085,None,1594.3250531000085,None,f,1.1044573000399396,1594.3250531000085,None,1.1044573000399396,,,30Sing,001,2022_Aug_29_1143,ProdSingRedoBetween,2021.2.3,59.9799067109208,
,,,,38,0,38,0,,,,,,,,,,,,,,,,,,,,,,1600.6108275000006,None,,,,,,,,,,,,,,,,,waste,13,39,sing,old,yellow,1595.9740022000042,None,1595.9740022000042,None,3,3.1996457999921404,1595.9740022000042,None,3.1996457999921404,1599.194044200005,None,1599.6957160999882,None,1599.6957160999882,None,f,0.8937767000170425,1599.6957160999882,None,0.8937767000170425,,,30Sing,001,2022_Aug_29_1143,ProdSingRedoBetween,2021.2.3,59.9799067109208,
,,,,39,0,39,0,,,,,,,,,,,,,,,,,,,,,,1603.8639521999867,None,,,,,,,,,,,,,,,,,universal,15,40,sing,old,yellow,1601.121115899994,None,1601.121115899994,None,2,1.8123801000183448,1601.121115899994,None,1.8123801000183448,1602.9652573000058,None,1603.4803676999873,None,1603.4803676999873,None,n,0.3651772000011988,1603.4803676999873,None,0.3651772000011988,,,30Sing,001,2022_Aug_29_1143,ProdSingRedoBetween,2021.2.3,59.9799067109208,
,,,,40,0,40,0,,,,,,,,,,,,,,,,,,,,,,1608.8022231999785,None,,,,,,,,,,,,,,,,,junior,78,41,sing,old,red,1604.3751117999782,None,1604.3751117999782,None,2,3.55837539996719,1604.3751117999782,None,3.55837539996719,1607.9527369000134,None,1608.4570876999642,None,1608.4570876999642,None,n,0.3245247000013478,1608.4570876999642,None,0.3245247000013478,,,30Sing,001,2022_Aug_29_1143,ProdSingRedoBetween,2021.2.3,59.9799067109208,
,,,,41,0,41,0,,,,,,,,,,,,,,,,,,,,,,1611.6886443999829,None,,,,,,,,,,,,,,,,,working,173,42,sing,new,null,1609.3137722999672,None,1609.3137722999672,None,2,1.3797059000353329,1609.3137722999672,None,1.3797059000353329,1610.7264400999993,None,1611.2381988000125,None,1611.2381988000125,None,n,0.42325749999145046,1611.2381988000125,None,0.42325749999145046,,,30Sing,001,2022_Aug_29_1143,ProdSingRedoBetween,2021.2.3,59.9799067109208,
,,,,42,0,42,0,,,,,,,,,,,,,,,,,,,,,,1615.6091007000068,None,,,,,,,,,,,,,,,,,state,68,43,sing,old,red,1612.1898763999925,None,1612.1898763999925,None,2,1.6076051000272855,1612.1898763999925,None,1.6076051000272855,1613.8294211999746,None,1614.3412652999978,None,1614.3412652999978,None,n,1.2482949999975972,1614.3412652999978,None,1.2482949999975972,,,30Sing,001,2022_Aug_29_1143,ProdSingRedoBetween,2021.2.3,59.9799067109208,
,,,,43,0,43,0,,,,,,,,,,,,,,,,,,,,,,1620.032176000008,None,,,,,,,,,,,,,,,,,treatment,156,44,sing,new,null,1616.1124953000108,None,1616.1124953000108,None,5,2.9651848999783397,1616.1124953000108,None,2.9651848999783397,1619.1132913000183,None,1619.6207507000072,None,1619.6207507000072,None,f,0.3847671000403352,1619.6207507000072,None,0.3847671000403352,,,30Sing,001,2022_Aug_29_1143,ProdSingRedoBetween,2021.2.3,59.9799067109208,
,,,,44,0,44,0,,,,,,,,,,,,,,,,,,,,,,1623.6838071999955,None,,,,,,,,,,,,,,,,,tough,150,45,sing,new,null,1620.559868499986,None,1620.559868499986,None,1,2.253611699969042,1620.559868499986,None,2.253611699969042,1622.832699099963,None,1623.3387806999963,None,1623.3387806999963,None,n,0.32279689999995753,1623.3387806999963,None,0.32279689999995753,,,30Sing,001,2022_Aug_29_1143,ProdSingRedoBetween,2021.2.3,59.9799067109208,
,,,,45,0,45,0,,,,,,,,,,,,,,,,,,,,,,1626.1860215999768,None,,,,,,,,,,,,,,,,,travel,75,46,sing,old,red,1624.1847389999893,None,1624.1847389999893,None,1,1.204795900033787,1624.1847389999893,None,1.204795900033787,1625.4217995000072,None,1625.936017800006,None,1625.936017800006,None,n,0.22947080002631992,1625.936017800006,None,0.22947080002631992,,,30Sing,001,2022_Aug_29_1143,ProdSingRedoBetween,2021.2.3,59.9799067109208,
,,,,46,0,46,0,,,,,,,,,,,,,,,,,,,,,,1629.2392944999738,None,,,,,,,,,,,,,,,,,congress,43,47,sing,old,blue,1626.6903941999772,None,1626.6903941999772,None,6,1.571034700027667,1626.6903941999772,None,1.571034700027667,1628.2923600999638,None,1628.8057284000097,None,1628.8057284000097,None,r,0.41569389996584505,1628.8057284000097,None,0.41569389996584505,,,30Sing,001,2022_Aug_29_1143,ProdSingRedoBetween,2021.2.3,59.9799067109208,
,,,,47,0,47,0,,,,,,,,,,,,,,,,,,,,,,1632.609307000006,None,,,,,,,,,,,,,,,,,region,9,48,sing,old,yellow,1629.7472569000092,None,1629.7472569000092,None,5,2.1222733999602497,1629.7472569000092,None,2.1222733999602497,1631.8966449999716,None,1632.4090045000194,None,1632.4090045000194,None,f,0.17244100000243634,1632.4090045000194,None,0.17244100000243634,,,30Sing,001,2022_Aug_29_1143,ProdSingRedoBetween,2021.2.3,59.9799067109208,
,,,,48,0,48,0,,,,,,,,,,,,,,,,,,,,,,1636.4001295000198,None,,,,,,,,,,,,,,,,,clear,16,49,sing,old,yellow,1633.1201047999784,None,1633.1201047999784,None,6,2.429349900048692,1633.1201047999784,None,2.429349900048692,1635.578973900003,None,1636.0796308999998,None,1636.0796308999998,None,f,0.29406819998985156,1636.0796308999998,None,0.29406819998985156,,,30Sing,001,2022_Aug_29_1143,ProdSingRedoBetween,2021.2.3,59.9799067109208,
,,,,49,0,49,0,,,,,,,,,,,,,,,,,,,,,,1640.8357695000013,None,,,,,,,,,,,,,,,,,engineer,21,50,sing,old,yellow,1636.9191531999968,None,1636.9191531999968,None,4,3.070360800018534,1636.9191531999968,None,3.070360800018534,1640.021797799971,None,1640.541087599995,None,1640.541087599995,None,f,0.2725950999883935,1640.541087599995,None,0.2725950999883935,,,30Sing,001,2022_Aug_29_1143,ProdSingRedoBetween,2021.2.3,59.9799067109208,
,,,,50,0,50,0,,,,,,,,,,,,,,,,,,,,,,1646.7580134000164,None,,,,,,,,,,,,,,,,,angle,36,51,sing,old,blue,1641.3459970999975,None,1641.3459970999975,None,2,4.715543500031345,1641.3459970999975,None,4.715543500031345,1646.0929798000143,None,1646.606764599972,None,1646.606764599972,None,n,0.13470600004075095,1646.606764599972,None,0.13470600004075095,,,30Sing,001,2022_Aug_29_1143,ProdSingRedoBetween,2021.2.3,59.9799067109208,
,,,,51,0,51,0,,,,,,,,,,,,,,,,,,,,,,1650.5272317999625,None,,,,,,,,,,,,,,,,,colonel,164,52,sing,new,null,1647.260217699979,None,1647.260217699979,None,1,2.369116500020027,1647.260217699979,None,2.369116500020027,1649.6646972000017,None,1650.1793652999913,None,1650.1793652999913,None,n,0.3220984999788925,1650.1793652999913,None,0.3220984999788925,,,30Sing,001,2022_Aug_29_1143,ProdSingRedoBetween,2021.2.3,59.9799067109208,
,,,,52,0,52,0,,,,,,,,,,,,,,,,,,,,,,1654.2142648000154,None,,,,,,,,,,,,,,,,,course,146,53,sing,new,null,1651.0340961000184,None,1651.0340961000184,None,3,1.715466000023298,1651.0340961000184,None,1.715466000023298,1652.7885620999732,None,1653.296765099978,None,1653.296765099978,None,f,0.9007507999776863,1653.296765099978,None,0.9007507999776863,,,30Sing,001,2022_Aug_29_1143,ProdSingRedoBetween,2021.2.3,59.9799067109208,
,,,,53,0,53,0,,,,,,,,,,,,,,,,,,,,,,1657.4674623999745,None,,,,,,,,,,,,,,,,,balance,60,54,sing,old,red,1654.724424200016,None,1654.724424200016,None,5,2.0890971000189893,1654.724424200016,None,2.0890971000189893,1656.839346199995,None,1657.3509186999872,None,1657.3509186999872,None,f,0.08644129999447614,1657.3509186999872,None,0.08644129999447614,,,30Sing,001,2022_Aug_29_1143,ProdSingRedoBetween,2021.2.3,59.9799067109208,
,,,,54,0,54,0,,,,,,,,,,,,,,,,,,,,,,1661.004353599972,None,,,,,,,,,,,,,,,,,goose,73,55,sing,old,red,1657.968060299987,None,1657.968060299987,None,1,1.6294217999675311,1657.968060299987,None,1.6294217999675311,1659.6208760999725,None,1660.1242209000047,None,1660.1242209000047,None,n,0.849144299980253,1660.1242209000047,None,0.849144299980253,,,30Sing,001,2022_Aug_29_1143,ProdSingRedoBetween,2021.2.3,59.9799067109208,
,,,,55,0,55,0,,,,,,,,,,,,,,,,,,,,,,1663.9570112999645,None,,,,,,,,,,,,,,,,,split,115,56,sing,new,null,1661.5080635999911,None,1661.5080635999911,None,1,1.5374719999963418,1661.5080635999911,None,1.5374719999963418,1663.0770351999672,None,1663.5930584999733,None,1663.5930584999733,None,n,0.3404168000561185,1663.5930584999733,None,0.3404168000561185,,,30Sing,001,2022_Aug_29_1143,ProdSingRedoBetween,2021.2.3,59.9799067109208,
,,,,56,0,56,0,,,,,,,,,,,,,,,,,,,,,,1667.0604302000138,None,,,,,,,,,,,,,,,,,solution,117,57,sing,new,null,1664.471986599965,None,1664.471986599965,None,3,1.9176314999931492,1664.471986599965,None,1.9176314999931492,1666.4144668999943,None,1666.9307202000055,None,1666.9307202000055,None,f,0.09874990000389516,1666.9307202000055,None,0.09874990000389516,,,30Sing,001,2022_Aug_29_1143,ProdSingRedoBetween,2021.2.3,59.9799067109208,
,,,,57,0,57,0,,,,,,,,,,,,,,,,,,,,,,1671.0477698000032,None,,,,,,,,,,,,,,,,,revolution,121,58,sing,new,null,1667.5709412000142,None,1667.5709412000142,None,4,2.8906083999900147,1667.5709412000142,None,2.8906083999900147,1670.4846740000066,None,1671.0016842000186,None,1671.0016842000186,None,f,0.01973820000421256,1671.0016842000186,None,0.01973820000421256,,,30Sing,001,2022_Aug_29_1143,ProdSingRedoBetween,2021.2.3,59.9799067109208,
,,,,58,0,58,0,,,,,,,,,,,,,,,,,,,,,,1675.0516672999947,None,,,,,,,,,,,,,,,,,conference,110,59,sing,new,null,1671.5602502999827,None,1671.5602502999827,None,2,2.2451889000367373,1671.5602502999827,None,2.2451889000367373,1673.835696199967,None,1674.3511705999845,None,1674.3511705999845,None,n,0.6702970999758691,1674.3511705999845,None,0.6702970999758691,,,30Sing,001,2022_Aug_29_1143,ProdSingRedoBetween,2021.2.3,59.9799067109208,
,,,,59,0,59,0,,,,,,,,,,,,,,,,,,,,,,1679.6395800000173,None,,,,,,,,,,,,,,,,,review,24,60,sing,old,yellow,1675.5631272000028,None,1675.5631272000028,None,4,3.1542964999680407,1675.5631272000028,None,3.1542964999680407,1678.7433248999878,None,1679.2607592999702,None,1679.2607592999702,None,f,0.3526640000054613,1679.2607592999702,None,0.3526640000054613,,,30Sing,001,2022_Aug_29_1143,ProdSingRedoBetween,2021.2.3,59.9799067109208,
,,,,60,0,60,0,,,,,,,,,,,,,,,,,,,,,,1685.515246099967,None,,,,,,,,,,,,,,,,,interview,71,61,sing,old,red,1680.1496326000197,None,1680.1496326000197,None,4,3.9437902999925427,1680.1496326000197,None,3.9437902999925427,1684.1129827999976,None,1684.636615699972,None,1684.636615699972,None,f,0.8569614999578334,1684.636615699972,None,0.8569614999578334,,,30Sing,001,2022_Aug_29_1143,ProdSingRedoBetween,2021.2.3,59.9799067109208,
,,,,61,0,61,0,,,,,,,,,,,,,,,,,,,,,,1688.9989571999758,None,,,,,,,,,,,,,,,,,comedy,172,62,sing,new,null,1686.0303117000149,None,1686.0303117000149,None,1,1.4230575999827124,1686.0303117000149,None,1.4230575999827124,1687.4844397999696,None,1687.9980509000015,None,1687.9980509000015,None,n,0.9833654999965802,1687.9980509000015,None,0.9833654999965802,,,30Sing,001,2022_Aug_29_1143,ProdSingRedoBetween,2021.2.3,59.9799067109208,
,,,,62,0,62,0,,,,,,,,,,,,,,,,,,,,,,1692.3523778999806,None,,,,,,,,,,,,,,,,,fight,143,63,sing,new,null,1689.5056193000055,None,1689.5056193000055,None,2,2.027762599987909,1689.5056193000055,None,2.027762599987909,1691.5517866999726,None,1692.0556413999875,None,1692.0556413999875,None,n,0.2778175999992527,1692.0556413999875,None,0.2778175999992527,,,30Sing,001,2022_Aug_29_1143,ProdSingRedoBetween,2021.2.3,59.9799067109208,
,,,,63,0,63,0,,,,,,,,,,,,,,,,,,,,,,1695.1885084999958,None,,,,,,,,,,,,,,,,,history,77,64,sing,old,red,1692.8610268000048,None,1692.8610268000048,None,3,1.6403989000245929,1692.8610268000048,None,1.6403989000245929,1694.5225638999837,None,1695.023616099963,None,1695.023616099963,None,f,0.1499640999827534,1695.023616099963,None,0.1499640999827534,,,30Sing,001,2022_Aug_29_1143,ProdSingRedoBetween,2021.2.3,59.9799067109208,
,,,,64,0,64,0,,,,,,,,,,,,,,,,,,,,,,1697.9409132999717,None,,,,,,,,,,,,,,,,,minute,111,65,sing,new,null,1695.7047247000155,None,1695.7047247000155,None,1,1.1888970999862067,1695.7047247000155,None,1.1888970999862067,1696.9235725000035,None,1697.4272265000036,None,1697.4272265000036,None,n,0.4982907999656163,1697.4272265000036,None,0.4982907999656163,,,30Sing,001,2022_Aug_29_1143,ProdSingRedoBetween,2021.2.3,59.9799067109208,
,,,,65,0,65,0,,,,,,,,,,,,,,,,,,,,,,1703.3799202999799,None,,,,,,,,,,,,,,,,,power,32,66,sing,old,blue,1698.456319399993,None,1698.456319399993,None,6,2.8210988999926485,1698.456319399993,None,2.8210988999926485,1701.3009021999897,None,1701.811837300018,None,1701.811837300018,None,f,1.53761369996937,1701.811837300018,None,1.53761369996937,,,30Sing,001,2022_Aug_29_1143,ProdSingRedoBetween,2021.2.3,59.9799067109208,
,,,,66,0,66,0,,,,,,,,,,,,,,,,,,,,,,1706.2161709999782,None,,,,,,,,,,,,,,,,,quantity,139,67,sing,new,null,1703.8878520000144,None,1703.8878520000144,None,1,1.6135326999938115,1703.8878520000144,None,1.6135326999938115,1705.5353539999924,None,1706.0558215999627,None,1706.0558215999627,None,n,0.13352879998274148,1706.0558215999627,None,0.13352879998274148,,,30Sing,001,2022_Aug_29_1143,ProdSingRedoBetween,2021.2.3,59.9799067109208,
,,,,67,0,67,0,,,,,,,,,,,,,,,,,,,,,,1709.8875692000147,None,,,,,,,,,,,,,,,,,cousin,31,68,sing,old,blue,1706.7233504999895,None,1706.7233504999895,None,6,1.586094599973876,1706.7233504999895,None,1.586094599973876,1708.3431608999963,None,1708.8574679999729,None,1708.8574679999729,None,r,1.0119354000198655,1708.8574679999729,None,1.0119354000198655,,,30Sing,001,2022_Aug_29_1143,ProdSingRedoBetween,2021.2.3,59.9799067109208,
,,,,68,0,68,0,,,,,,,,,,,,,,,,,,,,,,1714.9081310000038,None,,,,,,,,,,,,,,,,,column,105,69,sing,new,null,1710.3886194999795,None,1710.3886194999795,None,2,3.8487132000154816,1710.3886194999795,None,3.8487132000154816,1714.2628819000092,None,1714.7747690000106,None,1714.7747690000106,None,n,0.11862560000736266,1714.7747690000106,None,0.11862560000736266,,,30Sing,001,2022_Aug_29_1143,ProdSingRedoBetween,2021.2.3,59.9799067109208,
,,,,69,0,69,0,,,,,,,,,,,,,,,,,,,,,,1717.8109637000016,None,,,,,,,,,,,,,,,,,capital,138,70,sing,new,null,1715.416872599977,None,1715.416872599977,None,1,1.6603727000183426,1715.416872599977,None,1.6603727000183426,1717.1008849999635,None,1717.6108414999908,None,1717.6108414999908,None,n,0.1787497999612242,1717.6108414999908,None,0.1787497999612242,,,30Sing,001,2022_Aug_29_1143,ProdSingRedoBetween,2021.2.3,59.9799067109208,
,,,,70,0,70,0,,,,,,,,,,,,,,,,,,,,,,1721.9167064999929,None,,,,,,,,,,,,,,,,,profession,103,71,sing,new,null,1718.3243990999763,None,1718.3243990999763,None,1,1.272980900015682,1718.3243990999763,None,1.272980900015682,1719.6156609000172,None,1720.1372379999957,None,1720.1372379999957,None,n,1.7563329999684356,1720.1372379999957,None,1.7563329999684356,,,30Sing,001,2022_Aug_29_1143,ProdSingRedoBetween,2021.2.3,59.9799067109208,
,,,,71,0,71,0,,,,,,,,,,,,,,,,,,,,,,1724.601242100005,None,,,,,,,,,,,,,,,,,smell,141,72,sing,new,null,1722.436269400001,None,1722.436269400001,None,1,1.2011900000507012,1722.436269400001,None,1.2011900000507012,1723.6717251999653,None,1724.1842442000052,None,1724.1842442000052,None,n,0.3890775000327267,1724.1842442000052,None,0.3890775000327267,,,30Sing,001,2022_Aug_29_1143,ProdSingRedoBetween,2021.2.3,59.9799067109208,
,,,,72,0,72,0,,,,,,,,,,,,,,,,,,,,,,1728.340669199999,None,,,,,,,,,,,,,,,,,birth,133,73,sing,new,null,1725.10368629999,None,1725.10368629999,None,1,2.541734099970199,1725.10368629999,None,2.541734099970199,1727.673750499962,None,1728.1882186000003,None,1728.1882186000003,None,n,0.12924710003426298,1728.1882186000003,None,0.12924710003426298,,,30Sing,001,2022_Aug_29_1143,ProdSingRedoBetween,2021.2.3,59.9799067109208,
,,,,73,0,73,0,,,,,,,,,,,,,,,,,,,,,,1732.6267287000082,None,,,,,,,,,,,,,,,,,owner,123,74,sing,new,null,1728.8631763000158,None,1728.8631763000158,None,2,2.3744647000567056,1728.8631763000158,None,2.3744647000567056,1731.2639800999896,None,1731.775170799985,None,1731.775170799985,None,n,0.822321199986618,1731.775170799985,None,0.822321199986618,,,30Sing,001,2022_Aug_29_1143,ProdSingRedoBetween,2021.2.3,59.9799067109208,
,,,,74,0,74,0,,,,,,,,,,,,,,,,,,,,,,1737.0802427000017,None,,,,,,,,,,,,,,,,,society,46,75,sing,old,blue,1733.1297302999883,None,1733.1297302999883,None,5,2.0036555000115186,1733.1297302999883,None,2.0036555000115186,1735.166631400003,None,1735.6840036999783,None,1735.6840036999783,None,f,1.3773777000023983,1735.6840036999783,None,1.3773777000023983,,,30Sing,001,2022_Aug_29_1143,ProdSingRedoBetween,2021.2.3,59.9799067109208,
,,,,75,0,75,0,,,,,,,,,,,,,,,,,,,,,,1741.8517620000057,None,,,,,,,,,,,,,,,,,bright,119,76,sing,new,null,1737.5897123999894,None,1737.5897123999894,None,5,3.5915625999914482,1737.5897123999894,None,3.5915625999914482,1741.2048149000038,None,1741.7226835999754,None,1741.7226835999754,None,f,0.10673790000146255,1741.7226835999754,None,0.10673790000146255,,,30Sing,001,2022_Aug_29_1143,ProdSingRedoBetween,2021.2.3,59.9799067109208,
,,,,76,0,76,0,,,,,,,,,,,,,,,,,,,,,,1745.9725200000103,None,,,,,,,,,,,,,,,,,listen,69,77,sing,old,red,1742.355871799984,None,1742.355871799984,None,5,2.529509500018321,1742.355871799984,None,2.529509500018321,1744.9056751999888,None,1745.4176058999728,None,1745.4176058999728,None,f,0.5238089000340551,1745.4176058999728,None,0.5238089000340551,,,30Sing,001,2022_Aug_29_1143,ProdSingRedoBetween,2021.2.3,59.9799067109208,
,,,,77,0,77,0,,,,,,,,,,,,,,,,,,,,,,1748.5418156000087,None,,,,,,,,,,,,,,,,,theme,93,78,sing,new,null,1746.4821910000173,None,1746.4821910000173,None,2,1.1950941999675706,1746.4821910000173,None,1.1950941999675706,1747.70809249999,None,1748.2122851000167,None,1748.2122851000167,None,n,0.31314099999144673,1748.2122851000167,None,0.31314099999144673,,,30Sing,001,2022_Aug_29_1143,ProdSingRedoBetween,2021.2.3,59.9799067109208,
,,,,78,0,78,0,,,,,,,,,,,,,,,,,,,,,,1751.277798999974,None,,,,,,,,,,,,,,,,,raise,57,79,sing,old,blue,1749.045192999998,None,1749.045192999998,None,3,1.3521799999871291,1749.045192999998,None,1.3521799999871291,1750.428069000016,None,1750.927486600005,None,1750.927486600005,None,f,0.3339945000479929,1750.927486600005,None,0.3339945000479929,,,30Sing,001,2022_Aug_29_1143,ProdSingRedoBetween,2021.2.3,59.9799067109208,
,,,,79,0,79,0,,,,,,,,,,,,,,,,,,,,,,1756.7552984000067,None,,,,,,,,,,,,,,,,,rural,38,80,sing,old,blue,1751.78023699997,None,1751.78023699997,None,6,3.281222500023432,1751.78023699997,None,3.281222500023432,1755.0815910999663,None,1755.5863654999994,None,1755.5863654999994,None,r,1.1390145000186749,1755.5863654999994,None,1.1390145000186749,,,30Sing,001,2022_Aug_29_1143,ProdSingRedoBetween,2021.2.3,59.9799067109208,
,,,,80,0,80,0,,,,,,,,,,,,,,,,,,,,,,1760.1232305999729,None,,,,,,,,,,,,,,,,,signal,39,81,sing,old,blue,1757.2800263999961,None,1757.2800263999961,None,5,1.9493840000359342,1757.2800263999961,None,1.9493840000359342,1759.2607553999987,None,1759.769738700008,None,1759.769738700008,None,f,0.33168870001100004,1759.769738700008,None,0.33168870001100004,,,30Sing,001,2022_Aug_29_1143,ProdSingRedoBetween,2021.2.3,59.9799067109208,
,,,,81,0,81,0,,,,,,,,,,,,,,,,,,,,,,1763.9959816000191,None,,,,,,,,,,,,,,,,,master,8,82,sing,old,yellow,1760.6418080999865,None,1760.6418080999865,None,6,2.443635399977211,1760.6418080999865,None,2.443635399977211,1763.1176743999822,None,1763.6235999999917,None,1763.6235999999917,None,r,0.34190030000172555,1763.6235999999917,None,0.34190030000172555,,,30Sing,001,2022_Aug_29_1143,ProdSingRedoBetween,2021.2.3,59.9799067109208,
,,,,82,0,82,0,,,,,,,,,,,,,,,,,,,,,,1769.1288647999754,None,,,,,,,,,,,,,,,,,force,58,83,sing,old,blue,1764.5099549000151,None,1764.5099549000151,None,6,2.055314199998975,1764.5099549000151,None,2.055314199998975,1766.5952987999772,None,1767.1109070999664,None,1767.1109070999664,None,f,1.998655500006862,1767.1109070999664,None,1.998655500006862,,,30Sing,001,2022_Aug_29_1143,ProdSingRedoBetween,2021.2.3,59.9799067109208,
,,,,83,0,83,0,,,,,,,,,,,,,,,,,,,,,,1777.4537850000197,None,,,,,,,,,,,,,,,,,appeal,167,84,sing,new,null,1769.6491775999893,None,1769.6491775999893,None,4,6.844059000024572,1769.6491775999893,None,6.844059000024572,1776.5204462999827,None,1777.021329500014,None,1777.021329500014,None,f,0.4160027999896556,1777.021329500014,None,0.4160027999896556,,,30Sing,001,2022_Aug_29_1143,ProdSingRedoBetween,2021.2.3,59.9799067109208,
,,,,84,0,84,0,,,,,,,,,,,,,,,,,,,,,,1781.3097501000157,None,,,,,,,,,,,,,,,,,silence,131,85,sing,new,null,1777.9577638999908,None,1777.9577638999908,None,5,2.4635041000437923,1777.9577638999908,None,2.4635041000437923,1780.4416433000006,None,1780.9607831999892,None,1780.9607831999892,None,f,0.3245833999826573,1780.9607831999892,None,0.3245833999826573,,,30Sing,001,2022_Aug_29_1143,ProdSingRedoBetween,2021.2.3,59.9799067109208,
,,,,85,0,85,0,,,,,,,,,,,,,,,,,,,,,,1784.9115219999803,None,,,,,,,,,,,,,,,,,threat,6,86,sing,old,yellow,1781.8431400000118,None,1781.8431400000118,None,6,2.186174300033599,1781.8431400000118,None,2.186174300033599,1784.064637399977,None,1784.5778065000195,None,1784.5778065000195,None,r,0.3155706000397913,1784.5778065000195,None,0.3155706000397913,,,30Sing,001,2022_Aug_29_1143,ProdSingRedoBetween,2021.2.3,59.9799067109208,
,,,,86,0,86,0,,,,,,,,,,,,,,,,,,,,,,1791.2677575999987,None,,,,,,,,,,,,,,,,,drink,29,87,sing,old,blue,1785.4153933000052,None,1785.4153933000052,None,3,4.941939399985131,1785.4153933000052,None,4.941939399985131,1790.388319199963,None,1790.9049771999707,None,1790.9049771999707,None,f,0.3322359000449069,1790.9049771999707,None,0.3322359000449069,,,30Sing,001,2022_Aug_29_1143,ProdSingRedoBetween,2021.2.3,59.9799067109208,
,,,,87,0,87,0,,,,,,,,,,,,,,,,,,,,,,1796.1225166000077,None,,,,,,,,,,,,,,,,,music,152,88,sing,new,null,1791.7698247999651,None,1791.7698247999651,None,2,3.635547799989581,1791.7698247999651,None,3.635547799989581,1795.4277769000037,None,1795.9395440999651,None,1795.9395440999651,None,n,0.15390119998482987,1795.9395440999651,None,0.15390119998482987,,,30Sing,001,2022_Aug_29_1143,ProdSingRedoBetween,2021.2.3,59.9799067109208,
,,,,88,0,88,0,,,,,,,,,,,,,,,,,,,,,,1802.211718400009,None,,,,,,,,,,,,,,,,,agreement,26,89,sing,old,yellow,1796.6308223999804,None,1796.6308223999804,None,6,4.302460499980953,1796.6308223999804,None,4.302460499980953,1800.961166299996,None,1801.4652686999761,None,1801.4652686999761,None,f,0.724109300004784,1801.4652686999761,None,0.724109300004784,,,30Sing,001,2022_Aug_29_1143,ProdSingRedoBetween,2021.2.3,59.9799067109208,
,,,,89,0,89,0,,,,,,,,,,,,,,,,,,,,,,1805.4671721999766,None,,,,,,,,,,,,,,,,,alert,62,90,sing,old,red,1802.7167839999893,None,1802.7167839999893,None,4,1.9127424999605864,1802.7167839999893,None,1.9127424999605864,1804.6574536999688,None,1805.167984700005,None,1805.167984700005,None,f,0.2775406999862753,1805.167984700005,None,0.2775406999862753,,,30Sing,001,2022_Aug_29_1143,ProdSingRedoBetween,2021.2.3,59.9799067109208,
,,,,90,0,90,0,,,,,,,,,,,,,,,,,,,,,,1808.35133949999,None,,,,,,,,,,,,,,,,,count,33,91,sing,old,blue,1805.9965454000048,None,1805.9965454000048,None,4,1.4886054000235163,1805.9965454000048,None,1.4886054000235163,1807.5028683000128,None,1808.0178069999674,None,1808.0178069999674,None,f,0.3154257999849506,1808.0178069999674,None,0.3154257999849506,,,30Sing,001,2022_Aug_29_1143,ProdSingRedoBetween,2021.2.3,59.9799067109208,
,,,,91,0,91,0,,,,,,,,,,,,,,,,,,,,,,1812.021738499985,None,,,,,,,,,,,,,,,,,sleep,52,92,sing,old,blue,1808.859298299998,None,1808.859298299998,None,4,2.2820693000103347,1808.859298299998,None,2.2820693000103347,1811.174172799976,None,1811.6881904000184,None,1811.6881904000184,None,f,0.3091784000280313,1811.6881904000184,None,0.3091784000280313,,,30Sing,001,2022_Aug_29_1143,ProdSingRedoBetween,2021.2.3,59.9799067109208,
,,,,92,0,92,0,,,,,,,,,,,,,,,,,,,,,,1816.5430593999918,None,,,,,,,,,,,,,,,,,figure,175,93,sing,new,null,1812.5252361000166,None,1812.5252361000166,None,5,3.0561072999844328,1812.5252361000166,None,3.0561072999844328,1815.6135350000113,None,1816.1259259000071,None,1816.1259259000071,None,f,0.39139459998114035,1816.1259259000071,None,0.39139459998114035,,,30Sing,001,2022_Aug_29_1143,ProdSingRedoBetween,2021.2.3,59.9799067109208,
,,,,93,0,93,0,,,,,,,,,,,,,,,,,,,,,,1819.2453778999625,None,,,,,,,,,,,,,,,,,broad,34,94,sing,old,blue,1817.0525994999916,None,1817.0525994999916,None,4,1.3927099999855272,1817.0525994999916,None,1.3927099999855272,1818.4615736000123,None,1818.969396999979,None,1818.969396999979,None,f,0.2599004000076093,1818.969396999979,None,0.2599004000076093,,,30Sing,001,2022_Aug_29_1143,ProdSingRedoBetween,2021.2.3,59.9799067109208,
,,,,94,0,94,0,,,,,,,,,,,,,,,,,,,,,,1822.3651571999653,None,,,,,,,,,,,,,,,,,motion,95,95,sing,new,null,1819.7559255000087,None,1819.7559255000087,None,2,1.6896544999908656,1819.7559255000087,None,1.6896544999908656,1821.4646277999855,None,1821.9674283000058,None,1821.9674283000058,None,n,0.3739007000112906,1821.9674283000058,None,0.3739007000112906,,,30Sing,001,2022_Aug_29_1143,ProdSingRedoBetween,2021.2.3,59.9799067109208,
,,,,95,0,95,0,,,,,,,,,,,,,,,,,,,,,,1824.9368117999984,None,,,,,,,,,,,,,,,,,danger,55,96,sing,old,blue,1822.875982699974,None,1822.875982699974,None,4,1.4733411999768578,1822.875982699974,None,1.4733411999768578,1824.369849700015,None,1824.8847761999932,None,1824.8847761999932,None,f,0.024635199981275946,1824.8847761999932,None,0.024635199981275946,,,30Sing,001,2022_Aug_29_1143,ProdSingRedoBetween,2021.2.3,59.9799067109208,
,,,,96,0,96,0,,,,,,,,,,,,,,,,,,,,,,1827.8557086999645,None,,,,,,,,,,,,,,,,,dozen,142,97,sing,new,null,1825.4653815999627,None,1825.4653815999627,None,1,1.5321462000138126,1825.4653815999627,None,1.5321462000138126,1827.0263050000067,None,1827.5374171999865,None,1827.5374171999865,None,n,0.2998862999957055,1827.5374171999865,None,0.2998862999957055,,,30Sing,001,2022_Aug_29_1143,ProdSingRedoBetween,2021.2.3,59.9799067109208,
,,,,97,0,97,0,,,,,,,,,,,,,,,,,,,,,,1832.4086442000116,None,,,,,,,,,,,,,,,,,staff,1,98,sing,old,yellow,1828.3617814999889,None,1828.3617814999889,None,3,3.1876516000484116,1828.3617814999889,None,3.1876516000484116,1831.5798011000152,None,1832.0940360999666,None,1832.0940360999666,None,f,0.295334099966567,1832.0940360999666,None,0.295334099966567,,,30Sing,001,2022_Aug_29_1143,ProdSingRedoBetween,2021.2.3,59.9799067109208,
,,,,98,0,98,0,,,,,,,,,,,,,,,,,,,,,,1836.3960390000138,None,,,,,,,,,,,,,,,,,length,179,99,sing,new,null,1832.915058500017,None,1832.915058500017,None,1,1.5943613999988884,1832.915058500017,None,1.5943613999988884,1834.5386316999793,None,1835.0449420000077,None,1835.0449420000077,None,n,1.3283415000187233,1835.0449420000077,None,1.3283415000187233,,,30Sing,001,2022_Aug_29_1143,ProdSingRedoBetween,2021.2.3,59.9799067109208,
,,,,99,0,99,0,,,,,,,,,,,,,,,,,,,,,,1840.4837104000035,None,,,,,,,,,,,,,,,,,author,178,100,sing,new,null,1836.9027926999843,None,1836.9027926999843,None,2,2.542544700030703,1836.9027926999843,None,2.542544700030703,1839.4658693000092,None,1839.9664920999785,None,1839.9664920999785,None,n,0.4867200999869965,1839.9664920999785,None,0.4867200999869965,,,30Sing,001,2022_Aug_29_1143,ProdSingRedoBetween,2021.2.3,59.9799067109208,
,,,,100,0,100,0,,,,,,,,,,,,,,,,,,,,,,1844.0203125000116,None,,,,,,,,,,,,,,,,,poetry,72,101,sing,old,red,1840.9853015000117,None,1840.9853015000117,None,6,1.7640237000305206,1840.9853015000117,None,1.7640237000305206,1842.7771886999835,None,1843.2864866000018,None,1843.2864866000018,None,f,0.7188523999648169,1843.2864866000018,None,0.7188523999648169,,,30Sing,001,2022_Aug_29_1143,ProdSingRedoBetween,2021.2.3,59.9799067109208,
,,,,101,0,101,0,,,,,,,,,,,,,,,,,,,,,,1846.923232399975,None,,,,,,,,,,,,,,,,,pancakes,18,102,sing,old,yellow,1844.541125299991,None,1844.541125299991,None,6,1.3682168999803253,1844.541125299991,None,1.3682168999803253,1845.9458362999721,None,1846.4588209000067,None,1846.4588209000067,None,r,0.44250010000541806,1846.4588209000067,None,0.44250010000541806,,,30Sing,001,2022_Aug_29_1143,ProdSingRedoBetween,2021.2.3,59.9799067109208,
,,,,102,0,102,0,,,,,,,,,,,,,,,,,,,,,,1850.1264588999911,None,,,,,,,,,,,,,,,,,education,79,103,sing,old,red,1847.4331572999945,None,1847.4331572999945,None,6,1.9001079999725334,1847.4331572999945,None,1.9001079999725334,1849.3609751000185,None,1849.8795622999896,None,1849.8795622999896,None,f,0.2297211000113748,1849.8795622999896,None,0.2297211000113748,,,30Sing,001,2022_Aug_29_1143,ProdSingRedoBetween,2021.2.3,59.9799067109208,
,,,,103,0,103,0,,,,,,,,,,,,,,,,,,,,,,1853.9825939000002,None,,,,,,,,,,,,,,,,,heavy,116,104,sing,new,null,1850.639565099962,None,1850.639565099962,None,4,1.4857028999831527,1850.639565099962,None,1.4857028999831527,1852.156382200017,None,1852.6625559999957,None,1852.6625559999957,None,f,1.302794899966102,1852.6625559999957,None,1.302794899966102,,,30Sing,001,2022_Aug_29_1143,ProdSingRedoBetween,2021.2.3,59.9799067109208,
,,,,104,0,104,0,,,,,,,,,,,,,,,,,,,,,,1857.3189395999652,None,,,,,,,,,,,,,,,,,production,76,105,sing,old,red,1854.4983549999888,None,1854.4983549999888,None,5,2.0109472000040114,1854.4983549999888,None,2.0109472000040114,1856.536108899978,None,1857.0500949000125,None,1857.0500949000125,None,f,0.24326910002855584,1857.0500949000125,None,0.24326910002855584,,,30Sing,001,2022_Aug_29_1143,ProdSingRedoBetween,2021.2.3,59.9799067109208,
,,,,105,0,105,0,,,,,,,,,,,,,,,,,,,,,,1860.64000449999,None,,,,,,,,,,,,,,,,,majority,159,106,sing,new,null,1857.8436647999915,None,1857.8436647999915,None,2,2.0095398999983445,1857.8436647999915,None,2.0095398999983445,1859.8719846999738,None,1860.3905643000035,None,1860.3905643000035,None,n,0.23087289999239147,1860.3905643000035,None,0.23087289999239147,,,30Sing,001,2022_Aug_29_1143,ProdSingRedoBetween,2021.2.3,59.9799067109208,
,,,,106,0,106,0,,,,,,,,,,,,,,,,,,,,,,1863.732821099984,None,,,,,,,,,,,,,,,,,strain,163,107,sing,new,null,1861.154296099965,None,1861.154296099965,None,1,1.0830707999994047,1861.154296099965,None,1.0830707999994047,1862.2597972999793,None,1862.7780217999825,None,1862.7780217999825,None,n,0.9153977999812923,1862.7780217999825,None,0.9153977999812923,,,30Sing,001,2022_Aug_29_1143,ProdSingRedoBetween,2021.2.3,59.9799067109208,
,,,,107,0,107,0,,,,,,,,,,,,,,,,,,,,,,1866.5596123000141,None,,,,,,,,,,,,,,,,,trial,127,108,sing,new,null,1864.240660600015,None,1864.240660600015,None,2,1.6128701000125147,1864.240660600015,None,1.6128701000125147,1865.888271600008,None,1866.3943501000176,None,1866.3943501000176,None,n,0.13911419996293262,1866.3943501000176,None,0.13911419996293262,,,30Sing,001,2022_Aug_29_1143,ProdSingRedoBetween,2021.2.3,59.9799067109208,
,,,,108,0,108,0,,,,,,,,,,,,,,,,,,,,,,1870.1297391999979,None,,,,,,,,,,,,,,,,,brief,63,109,sing,old,red,1867.0615851000184,None,1867.0615851000184,None,4,2.3196936000022106,1867.0615851000184,None,2.3196936000022106,1869.413363699976,None,1869.9152620999957,None,1869.9152620999957,None,f,0.19419000000925735,1869.9152620999957,None,0.19419000000925735,,,30Sing,001,2022_Aug_29_1143,ProdSingRedoBetween,2021.2.3,59.9799067109208,
,,,,109,0,109,0,,,,,,,,,,,,,,,,,,,,,,1874.984610399988,None,,,,,,,,,,,,,,,,,break,89,110,sing,old,red,1870.636195399973,None,1870.636195399973,None,4,3.0571085000410676,1870.636195399973,None,3.0571085000410676,1873.7249935999862,None,1874.2340123999747,None,1874.2340123999747,None,f,0.7231978999916464,1874.2340123999747,None,0.7231978999916464,,,30Sing,001,2022_Aug_29_1143,ProdSingRedoBetween,2021.2.3,59.9799067109208,
,,,,110,0,110,0,,,,,,,,,,,,,,,,,,,,,,1879.2054203000152,None,,,,,,,,,,,,,,,,,empty,102,111,sing,new,null,1875.4932591000106,None,1875.4932591000106,None,2,2.9360326000023633,1875.4932591000106,None,2.9360326000023633,1878.4633974999888,None,1878.9721163999639,None,1878.9721163999639,None,n,0.2091241999878548,1878.9721163999639,None,0.2091241999878548,,,30Sing,001,2022_Aug_29_1143,ProdSingRedoBetween,2021.2.3,59.9799067109208,
,,,,111,0,111,0,,,,,,,,,,,,,,,,,,,,,,1882.1084546999773,None,,,,,,,,,,,,,,,,,quiet,17,112,sing,old,yellow,1879.7139269000036,None,1879.7139269000036,None,3,1.7153163999901153,1879.7139269000036,None,1.7153163999901153,1881.458462300012,None,1881.9650400999817,None,1881.9650400999817,None,f,0.12824989994987845,1881.9650400999817,None,0.12824989994987845,,,30Sing,001,2022_Aug_29_1143,ProdSingRedoBetween,2021.2.3,59.9799067109208,
,,,,112,0,112,0,,,,,,,,,,,,,,,,,,,,,,1886.162246199965,None,,,,,,,,,,,,,,,,,testimony,177,113,sing,new,null,1882.6100110000116,None,1882.6100110000116,None,1,2.635296599997673,1882.6100110000116,None,2.635296599997673,1885.2681928999955,None,1885.789202600019,None,1885.789202600019,None,n,0.34419479995267466,1885.789202600019,None,0.34419479995267466,,,30Sing,001,2022_Aug_29_1143,ProdSingRedoBetween,2021.2.3,59.9799067109208,
,,,,113,0,113,0,,,,,,,,,,,,,,,,,,,,,,1893.3542744999868,None,,,,,,,,,,,,,,,,,union,108,114,sing,new,null,1886.6705007000128,None,1886.6705007000128,None,3,5.31893280002987,1886.6705007000128,None,5.31893280002987,1892.0247195999837,None,1892.5374961000052,None,1892.5374961000052,None,f,0.7958036999916658,1892.5374961000052,None,0.7958036999916658,,,30Sing,001,2022_Aug_29_1143,ProdSingRedoBetween,2021.2.3,59.9799067109208,
,,,,114,0,114,0,,,,,,,,,,,,,,,,,,,,,,1897.4400562999654,None,,,,,,,,,,,,,,,,,sight,88,115,sing,old,red,1893.8569688000134,None,1893.8569688000134,None,4,2.812497000035364,1893.8569688000134,None,2.812497000035364,1896.700131199963,None,1897.206960599986,None,1897.206960599986,None,f,0.21416840003803372,1897.206960599986,None,0.21416840003803372,,,30Sing,001,2022_Aug_29_1143,ProdSingRedoBetween,2021.2.3,59.9799067109208,
,,,,115,0,115,0,,,,,,,,,,,,,,,,,,,,,,1905.9822878999985,None,,,,,,,,,,,,,,,,,rapid,147,116,sing,new,null,1897.9416315999697,None,1897.9416315999697,None,2,6.959781899990048,1897.9416315999697,None,6.959781899990048,1904.934948500013,None,1905.4531967999646,None,1905.4531967999646,None,n,0.5040582999936305,1905.4531967999646,None,0.5040582999936305,,,30Sing,001,2022_Aug_29_1143,ProdSingRedoBetween,2021.2.3,59.9799067109208,
,,,,116,0,116,0,,,,,,,,,,,,,,,,,,,,,,1911.304246500018,None,,,,,,,,,,,,,,,,,commercial,168,117,sing,new,null,1906.488708799996,None,1906.488708799996,None,3,3.7565287999459542,1906.488708799996,None,3.7565287999459542,1910.272829399968,None,1910.7886436000117,None,1910.7886436000117,None,f,0.4966182999778539,1910.7886436000117,None,0.4966182999778539,,,30Sing,001,2022_Aug_29_1143,ProdSingRedoBetween,2021.2.3,59.9799067109208,
,,,,117,0,117,0,,,,,,,,,,,,,,,,,,,,,,1920.3799659999786,None,,,,,,,,,,,,,,,,,estate,90,118,sing,new,null,1911.8159868000075,None,1911.8159868000075,None,2,7.6691394000081345,1911.8159868000075,None,7.6691394000081345,1919.514226600004,None,1920.0295779000153,None,1920.0295779000153,None,n,0.3276946999831125,1920.0295779000153,None,0.3276946999831125,,,30Sing,001,2022_Aug_29_1143,ProdSingRedoBetween,2021.2.3,59.9799067109208,
,,,,118,0,118,0,,,,,,,,,,,,,,,,,,,,,,1927.2053565999959,None,,,,,,,,,,,,,,,,,thing,100,119,sing,new,null,1920.8894674999756,None,1920.8894674999756,None,4,5.387724199972581,1920.8894674999756,None,5.387724199972581,1926.3092119999928,None,1926.8217554999865,None,1926.8217554999865,None,f,0.35131790000014007,1926.8217554999865,None,0.35131790000014007,,,30Sing,001,2022_Aug_29_1143,ProdSingRedoBetween,2021.2.3,59.9799067109208,
,,,,119,0,119,0,,,,,,,,,,,,,,,,,,,,,,1930.256481999997,None,,,,,,,,,,,,,,,,,reach,97,120,sing,new,null,1927.7205049999757,None,1927.7205049999757,None,2,1.7487053999793716,1927.7205049999757,None,1.7487053999793716,1929.489061100001,None,1929.9937878999626,None,1929.9937878999626,None,n,0.24369149998528883,1929.9937878999626,None,0.24369149998528883,,,30Sing,001,2022_Aug_29_1143,ProdSingRedoBetween,2021.2.3,59.9799067109208,
,,,,120,0,120,0,,,,,,,,,,,,,,,,,,,,,,1934.2767862000037,None,,,,,,,,,,,,,,,,,husband,11,121,sing,old,yellow,1930.7611557999626,None,1930.7611557999626,None,6,2.460102899989579,1930.7611557999626,None,2.460102899989579,1933.253769700008,None,1933.7600920000114,None,1933.7600920000114,None,f,0.4932126000057906,1933.7600920000114,None,0.4932126000057906,,,30Sing,001,2022_Aug_29_1143,ProdSingRedoBetween,2021.2.3,59.9799067109208,
,,,,121,0,121,0,,,,,,,,,,,,,,,,,,,,,,1941.784674800001,None,,,,,,,,,,,,,,,,,detective,109,122,sing,new,null,1934.7868042999762,None,1934.7868042999762,None,1,6.058480400010012,1934.7868042999762,None,6.058480400010012,1940.8716863999725,None,1941.388506999996,None,1941.388506999996,None,n,0.36862740002106875,1941.388506999996,None,0.36862740002106875,,,30Sing,001,2022_Aug_29_1143,ProdSingRedoBetween,2021.2.3,59.9799067109208,
,,,,122,0,122,0,,,,,,,,,,,,,,,,,,,,,,1945.1670971999993,None,,,,,,,,,,,,,,,,,minor,112,123,sing,new,null,1942.2931190999807,None,1942.2931190999807,None,2,2.3042303000111133,1942.2931190999807,None,2.3042303000111133,1944.622343999974,None,1945.1276515999925,None,1945.1276515999925,None,n,0.01369750004960224,1945.1276515999925,None,0.01369750004960224,,,30Sing,001,2022_Aug_29_1143,ProdSingRedoBetween,2021.2.3,59.9799067109208,
,,,,123,0,123,0,,,,,,,,,,,,,,,,,,,,,,1948.7780134999775,None,,,,,,,,,,,,,,,,,generation,49,124,sing,old,blue,1945.674629599962,None,1945.674629599962,None,4,2.226563299947884,1945.674629599962,None,2.226563299947884,1947.925985799986,None,1948.4414367999998,None,1948.4414367999998,None,f,0.30785659997491166,1948.4414367999998,None,0.30785659997491166,,,30Sing,001,2022_Aug_29_1143,ProdSingRedoBetween,2021.2.3,59.9799067109208,
,,,,124,0,124,0,,,,,,,,,,,,,,,,,,,,,,1955.5483544999734,None,,,,,,,,,,,,,,,,,discussion,114,125,sing,new,null,1949.3045602999628,None,1949.3045602999628,None,4,5.228678299987223,1949.3045602999628,None,5.228678299987223,1954.5647813999676,None,1955.0647491000127,None,1955.0647491000127,None,f,0.460434400010854,1955.0647491000127,None,0.460434400010854,,,30Sing,001,2022_Aug_29_1143,ProdSingRedoBetween,2021.2.3,59.9799067109208,
,,,,125,0,125,0,,,,,,,,,,,,,,,,,,,,,,1959.3020429000026,None,,,,,,,,,,,,,,,,,scene,153,126,sing,new,null,1956.0580789999804,None,1956.0580789999804,None,4,2.2030906999716535,1956.0580789999804,None,2.2030906999716535,1958.287394999992,None,1958.8017182999756,None,1958.8017182999756,None,f,0.4834234999725595,1958.8017182999756,None,0.4834234999725595,,,30Sing,001,2022_Aug_29_1143,ProdSingRedoBetween,2021.2.3,59.9799067109208,
,,,,126,0,126,0,,,,,,,,,,,,,,,,,,,,,,1963.289409000019,None,,,,,,,,,,,,,,,,,period,113,127,sing,new,null,1959.8051608999958,None,1959.8051608999958,None,4,2.728006399993319,1959.8051608999958,None,2.728006399993319,1962.5584872000036,None,1963.0745477000019,None,1963.0745477000019,None,f,0.19463280000491068,1963.0745477000019,None,0.19463280000491068,,,30Sing,001,2022_Aug_29_1143,ProdSingRedoBetween,2021.2.3,59.9799067109208,
,,,,127,0,127,0,,,,,,,,,,,,,,,,,,,,,,1967.1612009999808,None,,,,,,,,,,,,,,,,,match,10,128,sing,old,yellow,1963.7899903999642,None,1963.7899903999642,None,5,2.511210399970878,1963.7899903999642,None,2.511210399970878,1966.3275586999953,None,1966.843050699972,None,1966.843050699972,None,f,0.2982661999994889,1966.843050699972,None,0.2982661999994889,,,30Sing,001,2022_Aug_29_1143,ProdSingRedoBetween,2021.2.3,59.9799067109208,
,,,,128,0,128,0,,,,,,,,,,,,,,,,,,,,,,1970.3297800999717,None,,,,,,,,,,,,,,,,,place,28,129,sing,old,yellow,1967.6633421999868,None,1967.6633421999868,None,5,2.0218580000218935,1967.6633421999868,None,2.0218580000218935,1969.7166483000037,None,1970.2324490000028,None,1970.2324490000028,None,f,0.07673029997386038,1970.2324490000028,None,0.07673029997386038,,,30Sing,001,2022_Aug_29_1143,ProdSingRedoBetween,2021.2.3,59.9799067109208,
,,,,129,0,129,0,,,,,,,,,,,,,,,,,,,,,,1974.4338581999764,None,,,,,,,,,,,,,,,,,damage,158,130,sing,new,null,1970.8363098999835,None,1970.8363098999835,None,3,1.9370880000060424,1970.8363098999835,None,1.9370880000060424,1972.8014320000075,None,1973.316273799981,None,1973.316273799981,None,f,1.096951599989552,1973.316273799981,None,1.096951599989552,,,30Sing,001,2022_Aug_29_1143,ProdSingRedoBetween,2021.2.3,59.9799067109208,
,,,,130,0,130,0,,,,,,,,,,,,,,,,,,,,,,1977.6229920000187,None,,,,,,,,,,,,,,,,,exchange,165,131,sing,new,null,1974.9436847000034,None,1974.9436847000034,None,2,1.725434900028631,1974.9436847000034,None,1.725434900028631,1976.6868143000174,None,1977.188381600019,None,1977.188381600019,None,n,0.40085080004064366,1977.188381600019,None,0.40085080004064366,,,30Sing,001,2022_Aug_29_1143,ProdSingRedoBetween,2021.2.3,59.9799067109208,
,,,,131,0,131,0,,,,,,,,,,,,,,,,,,,,,,1980.2493621999747,None,,,,,,,,,,,,,,,,,payment,56,132,sing,old,blue,1978.148323500005,None,1978.148323500005,None,5,1.2487019000109285,1978.148323500005,None,1.2487019000109285,1979.431720099994,None,1979.9394390999805,None,1979.9394390999805,None,f,0.2736859999713488,1979.9394390999805,None,0.2736859999713488,,,30Sing,001,2022_Aug_29_1143,ProdSingRedoBetween,2021.2.3,59.9799067109208,
,,,,132,0,132,0,,,,,,,,,,,,,,,,,,,,,,1982.6921543999924,None,,,,,,,,,,,,,,,,,rough,64,133,sing,old,red,1980.7608715000097,None,1980.7608715000097,None,4,1.2845041999826208,1980.7608715000097,None,1.2845041999826208,1982.0827275000047,None,1982.5931534999982,None,1982.5931534999982,None,f,0.07609609997598454,1982.5931534999982,None,0.07609609997598454,,,30Sing,001,2022_Aug_29_1143,ProdSingRedoBetween,2021.2.3,59.9799067109208,
,,,,133,0,133,0,,,,,,,,,,,,,,,,,,,,,,1985.834602799965,None,,,,,,,,,,,,,,,,,health,44,134,sing,old,blue,1983.1959351999685,None,1983.1959351999685,None,2,1.457274199987296,1983.1959351999685,None,1.457274199987296,1984.677294299996,None,1985.1780007999623,None,1985.1780007999623,None,n,0.6353936999803409,1985.1780007999623,None,0.6353936999803409,,,30Sing,001,2022_Aug_29_1143,ProdSingRedoBetween,2021.2.3,59.9799067109208,
,,,,134,0,134,0,,,,,,,,,,,,,,,,,,,,,,1988.3143661000067,None,,,,,,,,,,,,,,,,,edition,149,135,sing,new,null,1986.345823700016,None,1986.345823700016,None,2,1.171240099996794,1986.345823700016,None,1.171240099996794,1987.5467214999953,None,1988.0483901000116,None,1988.0483901000116,None,n,0.24476480000885203,1988.0483901000116,None,0.24476480000885203,,,30Sing,001,2022_Aug_29_1143,ProdSingRedoBetween,2021.2.3,59.9799067109208,
,,,,135,0,135,0,,,,,,,,,,,,,,,,,,,,,,1991.2839191000094,None,,,,,,,,,,,,,,,,,agency,14,136,sing,old,yellow,1988.8206849999842,None,1988.8206849999842,None,1,1.6404602999682538,1988.8206849999842,None,1.6404602999682538,1990.4845500999945,None,1990.9896764999721,None,1990.9896764999721,None,n,0.2794778000097722,1990.9896764999721,None,0.2794778000097722,,,30Sing,001,2022_Aug_29_1143,ProdSingRedoBetween,2021.2.3,59.9799067109208,
,,,,136,0,136,0,,,,,,,,,,,,,,,,,,,,,,1993.9376010000124,None,,,,,,,,,,,,,,,,,people,94,137,sing,new,null,1991.7928618000005,None,1991.7928618000005,None,4,1.3083226999733597,1991.7928618000005,None,1.3083226999733597,1993.125850500015,None,1993.6364824000048,None,1993.6364824000048,None,f,0.2727137000183575,1993.6364824000048,None,0.2727137000183575,,,30Sing,001,2022_Aug_29_1143,ProdSingRedoBetween,2021.2.3,59.9799067109208,
,,,,137,0,137,0,,,,,,,,,,,,,,,,,,,,,,1998.5077364000026,None,,,,,,,,,,,,,,,,,marriage,140,138,sing,new,null,1994.4494815999642,None,1994.4494815999642,None,4,3.275572700018529,1994.4494815999642,None,3.275572700018529,1997.7414601999917,None,1998.2410540999845,None,1998.2410540999845,None,f,0.24426589999347925,1998.2410540999845,None,0.24426589999347925,,,30Sing,001,2022_Aug_29_1143,ProdSingRedoBetween,2021.2.3,59.9799067109208,
,,,,138,0,138,0,,,,,,,,,,,,,,,,,,,,,,2002.8288674000069,None,,,,,,,,,,,,,,,,,finance,61,139,sing,old,red,1999.0115373000153,None,1999.0115373000153,None,6,1.5776044000522234,1999.0115373000153,None,1.5776044000522234,2000.6111260000034,None,2001.1160435999627,None,2001.1160435999627,None,f,1.6890905000036582,2001.1160435999627,None,1.6890905000036582,,,30Sing,001,2022_Aug_29_1143,ProdSingRedoBetween,2021.2.3,59.9799067109208,
,,,,139,0,139,0,,,,,,,,,,,,,,,,,,,,,,2010.9039028999978,None,,,,,,,,,,,,,,,,,comfort,104,140,sing,new,null,2003.3377897000173,None,2003.3377897000173,None,3,6.547432799998205,2003.3377897000173,None,6.547432799998205,2009.9086584000033,None,2010.419885899988,None,2010.419885899988,None,n,0.4573165000183508,2010.419885899988,None,0.4573165000183508,,,30Sing,001,2022_Aug_29_1143,ProdSingRedoBetween,2021.2.3,59.9799067109208,
,,,,140,0,140,0,,,,,,,,,,,,,,,,,,,,,,2013.689754299994,None,,,,,,,,,,,,,,,,,school,129,141,sing,new,null,2011.4135540999705,None,2011.4135540999705,None,2,1.4077020999975502,2011.4135540999705,None,1.4077020999975502,2012.843848199991,None,2013.3562299999758,None,2013.3562299999758,None,n,0.3130612999666482,2013.3562299999758,None,0.3130612999666482,,,30Sing,001,2022_Aug_29_1143,ProdSingRedoBetween,2021.2.3,59.9799067109208,
,,,,141,0,141,0,,,,,,,,,,,,,,,,,,,,,,2015.9920650999993,None,,,,,,,,,,,,,,,,,mayor,134,142,sing,new,null,2014.1984916999936,None,2014.1984916999936,None,2,0.9745526000042446,2014.1984916999936,None,0.9745526000042446,2015.1911671999842,None,2015.6917630999815,None,2015.6917630999815,None,n,0.2733025000197813,2015.6917630999815,None,0.2733025000197813,,,30Sing,001,2022_Aug_29_1143,ProdSingRedoBetween,2021.2.3,59.9799067109208,
,,,,142,0,142,0,,,,,,,,,,,,,,,,,,,,,,2019.5620600999682,None,,,,,,,,,,,,,,,,,council,35,143,sing,old,blue,2016.4980661000009,None,2016.4980661000009,None,3,2.2191198999644257,2016.4980661000009,None,2.2191198999644257,2018.750345700013,None,2019.2620769999921,None,2019.2620769999921,None,f,0.27113430004101247,2019.2620769999921,None,0.27113430004101247,,,30Sing,001,2022_Aug_29_1143,ProdSingRedoBetween,2021.2.3,59.9799067109208,
,,,,143,0,143,0,,,,,,,,,,,,,,,,,,,,,,2022.248208999983,None,,,,,,,,,,,,,,,,,second,171,144,sing,new,null,2020.0702487999806,None,2020.0702487999806,None,2,1.1751557000097819,2020.0702487999806,None,1.1751557000097819,2021.2729163999902,None,2021.7812771999743,None,2021.7812771999743,None,n,0.43980170000577345,2021.7812771999743,None,0.43980170000577345,,,30Sing,001,2022_Aug_29_1143,ProdSingRedoBetween,2021.2.3,59.9799067109208,
,,,,144,0,144,0,,,,,,,,,,,,,,,,,,,,,,2027.0864943999914,None,,,,,,,,,,,,,,,,,curve,155,145,sing,new,null,2022.762294300017,None,2022.762294300017,None,2,3.370942500012461,2022.762294300017,None,3.370942500012461,2026.1519507999765,None,2026.6527320999885,None,2026.6527320999885,None,n,0.40856809995602816,2026.6527320999885,None,0.40856809995602816,,,30Sing,001,2022_Aug_29_1143,ProdSingRedoBetween,2021.2.3,59.9799067109208,
,,,,145,0,145,0,,,,,,,,,,,,,,,,,,,,,,2034.1100959000178,None,,,,,,,,,,,,,,,,,nature,3,146,sing,old,yellow,2027.5867314999923,None,2027.5867314999923,None,5,5.706430699967314,2027.5867314999923,None,5.706430699967314,2033.31229729997,None,2033.8265720999916,None,2033.8265720999916,None,f,0.266526099992916,2033.8265720999916,None,0.266526099992916,,,30Sing,001,2022_Aug_29_1143,ProdSingRedoBetween,2021.2.3,59.9799067109208,
,,,,146,0,146,0,,,,,,,,,,,,,,,,,,,,,,2038.7480377000174,None,,,,,,,,,,,,,,,,,bureau,96,147,sing,new,null,2034.6123711999971,None,2034.6123711999971,None,1,3.2008031000150368,2034.6123711999971,None,3.2008031000150368,2037.8362579999957,None,2038.347570199985,None,2038.347570199985,None,n,0.3855716999969445,2038.347570199985,None,0.3855716999969445,,,30Sing,001,2022_Aug_29_1143,ProdSingRedoBetween,2021.2.3,59.9799067109208,
,,,,147,0,147,0,,,,,,,,,,,,,,,,,,,,,,2041.784482499992,None,,,,,,,,,,,,,,,,,harmony,101,148,sing,new,null,2039.2517774999724,None,2039.2517774999724,None,4,1.889286199992057,2039.2517774999724,None,1.889286199992057,2041.1684930999763,None,2041.6707416999852,None,2041.6707416999852,None,f,0.08636650000698864,2041.6707416999852,None,0.08636650000698864,,,30Sing,001,2022_Aug_29_1143,ProdSingRedoBetween,2021.2.3,59.9799067109208,
,,,,148,0,148,0,,,,,,,,,,,,,,,,,,,,,,2044.2869153000065,None,,,,,,,,,,,,,,,,,mechanical,145,149,sing,new,null,2042.2899366999627,None,2042.2899366999627,None,1,1.1231697999755852,2042.2899366999627,None,1.1231697999755852,2043.4365778999636,None,2043.9369633999886,None,2043.9369633999886,None,n,0.3241566000506282,2043.9369633999886,None,0.3241566000506282,,,30Sing,001,2022_Aug_29_1143,ProdSingRedoBetween,2021.2.3,59.9799067109208,
,,,,149,0,149,0,,,,,,,,,,,,,,,,,,,,,,2049.9091965999687,None,,,,,,,,,,,,,,,,,degree,30,150,sing,old,blue,2044.7904154999997,None,2044.7904154999997,None,5,4.350884400017094,2044.7904154999997,None,4.350884400017094,2049.1599126000074,None,2049.6591022000066,None,2049.6591022000066,None,f,0.2340383999980986,2049.6591022000066,None,0.2340383999980986,,,30Sing,001,2022_Aug_29_1143,ProdSingRedoBetween,2021.2.3,59.9799067109208,
,,,,150,0,150,0,,,,,,,,,,,,,,,,,,,,,,2053.4146297000116,None,,,,,,,,,,,,,,,,,report,137,151,sing,new,null,2050.4189092000015,None,2050.4189092000015,None,1,2.002107900043484,2050.4189092000015,None,2.002107900043484,2052.446526099986,None,2052.9495274999645,None,2052.9495274999645,None,n,0.43966530001489446,2052.9495274999645,None,0.43966530001489446,,,30Sing,001,2022_Aug_29_1143,ProdSingRedoBetween,2021.2.3,59.9799067109208,
,,,,151,0,151,0,,,,,,,,,,,,,,,,,,,,,,2058.1507806999725,None,,,,,,,,,,,,,,,,,touch,67,152,sing,old,red,2053.9343997999677,None,2053.9343997999677,None,4,3.4947004999849014,2053.9343997999677,None,3.4947004999849014,2057.4540391999763,None,2057.9691950000124,None,2057.9691950000124,None,f,0.16388230002485216,2057.9691950000124,None,0.16388230002485216,,,30Sing,001,2022_Aug_29_1143,ProdSingRedoBetween,2021.2.3,59.9799067109208,
,,,,152,0,152,0,,,,,,,,,,,,,,,,,,,,,,2062.1222447999753,None,,,,,,,,,,,,,,,,,prime,53,153,sing,old,blue,2058.6571444,None,2058.6571444,None,6,2.0599450999870896,2058.6571444,None,2.0599450999870896,2060.736579199962,None,2061.237328599964,None,2061.237328599964,None,r,0.855895499989856,2061.237328599964,None,0.855895499989856,,,30Sing,001,2022_Aug_29_1143,ProdSingRedoBetween,2021.2.3,59.9799067109208,
,,,,153,0,153,0,,,,,,,,,,,,,,,,,,,,,,2070.579851699993,None,,,,,,,,,,,,,,,,,interior,132,154,sing,new,null,2062.630343500001,None,2062.630343500001,None,5,7.094811999995727,2062.630343500001,None,7.094811999995727,2069.7515420999844,None,2070.2678541999776,None,2070.2678541999776,None,f,0.289252899994608,2070.2678541999776,None,0.289252899994608,,,30Sing,001,2022_Aug_29_1143,ProdSingRedoBetween,2021.2.3,59.9799067109208,
,,,,154,0,154,0,,,,,,,,,,,,,,,,,,,,,,2073.8225948999752,None,,,,,,,,,,,,,,,,,salary,84,155,sing,old,red,2071.0980082000024,None,2071.0980082000024,None,5,2.1230637000408024,2071.0980082000024,None,2.1230637000408024,2073.2501749999938,None,2073.753603000019,None,2073.753603000019,None,f,0.043640000047162175,2073.753603000019,None,0.043640000047162175,,,30Sing,001,2022_Aug_29_1143,ProdSingRedoBetween,2021.2.3,59.9799067109208,
,,,,155,0,155,0,,,,,,,,,,,,,,,,,,,,,,2076.01859599998,None,,,,,,,,,,,,,,,,,quick,118,156,sing,new,null,2074.3356778000016,None,2074.3356778000016,None,1,1.09358709998196,2074.3356778000016,None,1.09358709998196,2075.4589280000073,None,2075.9687248999835,None,2075.9687248999835,None,n,0.028409299964550883,2075.9687248999835,None,0.028409299964550883,,,30Sing,001,2022_Aug_29_1143,ProdSingRedoBetween,2021.2.3,59.9799067109208,
,,,,156,0,156,0,,,,,,,,,,,,,,,,,,,,,,2080.639849399973,None,,,,,,,,,,,,,,,,,debate,126,157,sing,new,null,2076.5275338999927,None,2076.5275338999927,None,3,3.029550300037954,2076.5275338999927,None,3.029550300037954,2079.573135100014,None,2080.0754762999713,None,2080.0754762999713,None,f,0.5457302000140771,2080.0754762999713,None,0.5457302000140771,,,30Sing,001,2022_Aug_29_1143,ProdSingRedoBetween,2021.2.3,59.9799067109208,
,,,,157,0,157,0,,,,,,,,,,,,,,,,,,,,,,2083.9809706999804,None,,,,,,,,,,,,,,,,,trail,92,158,sing,new,null,2081.148180399963,None,2081.148180399963,None,3,1.9770620000199415,2081.148180399963,None,1.9770620000199415,2083.1472334999708,None,2083.6668140999973,None,2083.6668140999973,None,f,0.2903630000073463,2083.6668140999973,None,0.2903630000073463,,,30Sing,001,2022_Aug_29_1143,ProdSingRedoBetween,2021.2.3,59.9799067109208,
,,,,158,0,158,0,,,,,,,,,,,,,,,,,,,,,,2086.5624602999887,None,,,,,,,,,,,,,,,,,still,25,159,sing,old,yellow,2084.4945538999746,None,2084.4945538999746,None,2,1.2465801000362262,2084.4945538999746,None,1.2465801000362262,2085.7679676999687,None,2086.2821293000015,None,2086.2821293000015,None,n,0.25097659998573363,2086.2821293000015,None,0.25097659998573363,,,30Sing,001,2022_Aug_29_1143,ProdSingRedoBetween,2021.2.3,59.9799067109208,
,,,,159,0,159,0,,,,,,,,,,,,,,,,,,,,,,2089.7655529999756,None,,,,,,,,,,,,,,,,,broke,157,160,sing,new,null,2087.069062399969,None,2087.069062399969,None,2,1.8639555999543518,2087.069062399969,None,1.8639555999543518,2088.9571238000062,None,2089.4655794000137,None,2089.4655794000137,None,n,0.2835251000360586,2089.4655794000137,None,0.2835251000360586,,,30Sing,001,2022_Aug_29_1143,ProdSingRedoBetween,2021.2.3,59.9799067109208,
,,,,160,0,160,0,,,,,,,,,,,,,,,,,,,,,,2096.2053691999754,None,,,,,,,,,,,,,,,,,beauty,54,161,sing,old,blue,2090.2741727000102,None,2090.2741727000102,None,4,5.106932900031097,2090.2741727000102,None,5.106932900031097,2095.4098355000024,None,2095.9218848000164,None,2095.9218848000164,None,f,0.2672471000114456,2095.9218848000164,None,0.2672471000114456,,,30Sing,001,2022_Aug_29_1143,ProdSingRedoBetween,2021.2.3,59.9799067109208,
,,,,161,0,161,0,,,,,,,,,,,,,,,,,,,,,,2101.6278431999963,None,,,,,,,,,,,,,,,,,platform,99,162,sing,new,null,2096.7069795000134,None,2096.7069795000134,None,2,4.114077500009444,2096.7069795000134,None,4.114077500009444,2100.8443614999996,None,2101.349765799998,None,2101.349765799998,None,n,0.2553077000193298,2101.349765799998,None,0.2553077000193298,,,30Sing,001,2022_Aug_29_1143,ProdSingRedoBetween,2021.2.3,59.9799067109208,
,,,,162,0,162,0,,,,,,,,,,,,,,,,,,,,,,2106.4357877,None,,,,,,,,,,,,,,,,,number,128,163,sing,new,null,2102.127872799989,None,2102.127872799989,None,2,3.469150900025852,2102.127872799989,None,3.469150900025852,2105.614725499996,None,2106.11941569997,None,2106.11941569997,None,n,0.28574100002879277,2106.11941569997,None,0.28574100002879277,,,30Sing,001,2022_Aug_29_1143,ProdSingRedoBetween,2021.2.3,59.9799067109208,
,,,,163,0,163,0,,,,,,,,,,,,,,,,,,,,,,2110.7865634000045,None,,,,,,,,,,,,,,,,,strength,124,164,sing,new,null,2106.9686355000013,None,2106.9686355000013,None,5,2.844449100026395,2106.9686355000013,None,2.844449100026395,2109.843494699977,None,2110.3534204000025,None,2110.3534204000025,None,f,0.4036807999946177,2110.3534204000025,None,0.4036807999946177,,,30Sing,001,2022_Aug_29_1143,ProdSingRedoBetween,2021.2.3,59.9799067109208,
,,,,164,0,164,0,,,,,,,,,,,,,,,,,,,,,,2114.5615948999766,None,,,,,,,,,,,,,,,,,career,66,165,sing,old,red,2111.2927497999626,None,2111.2927497999626,None,4,2.2962315999902785,2111.2927497999626,None,2.2962315999902785,2113.605884699966,None,2114.1067970999866,None,2114.1067970999866,None,f,0.42645560001255944,2114.1067970999866,None,0.42645560001255944,,,30Sing,001,2022_Aug_29_1143,ProdSingRedoBetween,2021.2.3,59.9799067109208,
,,,,165,0,165,0,,,,,,,,,,,,,,,,,,,,,,2117.9437421999755,None,,,,,,,,,,,,,,,,,bitter,122,166,sing,new,null,2115.07439059997,None,2115.07439059997,None,1,2.0506621999666095,2115.07439059997,None,2.0506621999666095,2117.146448899992,None,2117.660399299988,None,2117.660399299988,None,n,0.2566425999975763,2117.660399299988,None,0.2566425999975763,,,30Sing,001,2022_Aug_29_1143,ProdSingRedoBetween,2021.2.3,59.9799067109208,
,,,,166,0,166,0,,,,,,,,,,,,,,,,,,,,,,2120.7967566999723,None,,,,,,,,,,,,,,,,,private,5,167,sing,old,yellow,2118.456334199989,None,2118.456334199989,None,5,1.5006922000320628,2118.456334199989,None,1.5006922000320628,2119.9817904999945,None,2120.500103499973,None,2120.500103499973,None,f,0.27291959995636716,2120.500103499973,None,0.27291959995636716,,,30Sing,001,2022_Aug_29_1143,ProdSingRedoBetween,2021.2.3,59.9799067109208,
,,,,167,0,167,0,,,,,,,,,,,,,,,,,,,,,,2123.9497450999916,None,,,,,,,,,,,,,,,,,science,162,168,sing,new,null,2121.300540999975,None,2121.300540999975,None,4,1.8324094000272453,2121.300540999975,None,1.8324094000272453,2123.1512726999936,None,2123.666320899967,None,2123.666320899967,None,f,0.2666701999842189,2123.666320899967,None,0.2666701999842189,,,30Sing,001,2022_Aug_29_1143,ProdSingRedoBetween,2021.2.3,59.9799067109208,
,,,,168,0,168,0,,,,,,,,,,,,,,,,,,,,,,2126.869371399982,None,,,,,,,,,,,,,,,,,provision,48,169,sing,old,blue,2124.460526800016,None,2124.460526800016,None,1,1.5685270000249147,2124.460526800016,None,1.5685270000249147,2126.059494999994,None,2126.572512599989,None,2126.572512599989,None,n,0.272726800001692,2126.572512599989,None,0.272726800001692,,,30Sing,001,2022_Aug_29_1143,ProdSingRedoBetween,2021.2.3,59.9799067109208,
,,,,169,0,169,0,,,,,,,,,,,,,,,,,,,,,,2129.1121370000183,None,,,,,,,,,,,,,,,,,fashion,170,170,sing,new,null,2127.379128700006,None,2127.379128700006,None,1,0.8578876999672502,2127.379128700006,None,0.8578876999672502,2128.258756199968,None,2128.774662800017,None,2128.774662800017,None,n,0.3104747000033967,2128.774662800017,None,0.3104747000033967,,,30Sing,001,2022_Aug_29_1143,ProdSingRedoBetween,2021.2.3,59.9799067109208,
,,,,170,0,170,0,,,,,,,,,,,,,,,,,,,,,,2131.9577991999686,None,,,,,,,,,,,,,,,,,track,20,171,sing,old,yellow,2129.628409099998,None,2129.628409099998,None,4,1.5046990999835543,2129.628409099998,None,1.5046990999835543,2131.1628772999975,None,2131.674527299998,None,2131.674527299998,None,f,0.2665685000247322,2131.674527299998,None,0.2665685000247322,,,30Sing,001,2022_Aug_29_1143,ProdSingRedoBetween,2021.2.3,59.9799067109208,
,,,,171,0,171,0,,,,,,,,,,,,,,,,,,,,,,2135.462587899994,None,,,,,,,,,,,,,,,,,emergency,70,172,sing,old,red,2132.4703061999753,None,2132.4703061999753,None,4,2.158737000019755,2132.4703061999753,None,2.158737000019755,2134.6449594000005,None,2135.1445157999988,None,2135.1445157999988,None,f,0.29251079994719476,2135.1445157999988,None,0.29251079994719476,,,30Sing,001,2022_Aug_29_1143,ProdSingRedoBetween,2021.2.3,59.9799067109208,
,,,,172,0,172,0,,,,,,,,,,,,,,,,,,,,,,2137.9804180999636,None,,,,,,,,,,,,,,,,,incident,27,173,sing,old,yellow,2135.968429700006,None,2135.968429700006,None,5,1.2284599000122398,2135.968429700006,None,1.2284599000122398,2137.2145238000085,None,2137.730297399976,None,2137.730297399976,None,f,0.22690800001146272,2137.730297399976,None,0.22690800001146272,,,30Sing,001,2022_Aug_29_1143,ProdSingRedoBetween,2021.2.3,59.9799067109208,
,,,,173,0,173,0,,,,,,,,,,,,,,,,,,,,,,2141.6507565999636,None,,,,,,,,,,,,,,,,,command,59,174,sing,old,yellow,2138.4902968999813,None,2138.4902968999813,None,2,1.7787417999934405,2138.4902968999813,None,1.7787417999934405,2140.301671299967,None,2140.8202197999926,None,2140.8202197999926,None,n,0.8008307000272907,2140.8202197999926,None,0.8008307000272907,,,30Sing,001,2022_Aug_29_1143,ProdSingRedoBetween,2021.2.3,59.9799067109208,
,,,,174,0,174,0,,,,,,,,,,,,,,,,,,,,,,2146.6739094000077,None,,,,,,,,,,,,,,,,,light,107,175,sing,new,null,2142.155306199973,None,2142.155306199973,None,2,3.6818269999930635,2142.155306199973,None,3.6818269999930635,2145.8614905999857,None,2146.373455599998,None,2146.373455599998,None,n,0.27979210001649335,2146.373455599998,None,0.27979210001649335,,,30Sing,001,2022_Aug_29_1143,ProdSingRedoBetween,2021.2.3,59.9799067109208,
,,,,175,0,175,0,,,,,,,,,,,,,,,,,,,,,,2149.5424778999877,None,,,,,,,,,,,,,,,,,expansion,65,176,sing,old,red,2147.178421199962,None,2147.178421199962,None,4,1.5386516000144184,2147.178421199962,None,1.5386516000144184,2148.747118900006,None,2149.2585342999664,None,2149.2585342999664,None,f,0.25856170000042766,2149.2585342999664,None,0.25856170000042766,,,30Sing,001,2022_Aug_29_1143,ProdSingRedoBetween,2021.2.3,59.9799067109208,
,,,,176,0,176,0,,,,,,,,,,,,,,,,,,,,,,2152.1448183999746,None,,,,,,,,,,,,,,,,,income,160,177,sing,new,null,2150.0453759999946,None,2150.0453759999946,None,4,1.055548499978613,2150.0453759999946,None,1.055548499978613,2151.1269901000196,None,2151.6277383000124,None,2151.6277383000124,None,f,0.4973615999915637,2151.6277383000124,None,0.4973615999915637,,,30Sing,001,2022_Aug_29_1143,ProdSingRedoBetween,2021.2.3,59.9799067109208,
,,,,177,0,177,0,,,,,,,,,,,,,,,,,,,,,,2154.4467119000037,None,,,,,,,,,,,,,,,,,permit,87,178,sing,old,red,2152.6554227999877,None,2152.6554227999877,None,4,1.2375691999914125,2152.6554227999877,None,1.2375691999914125,2153.9142405000166,None,2154.41356299998,None,2154.41356299998,None,f,0.00740210001822561,2154.41356299998,None,0.00740210001822561,,,30Sing,001,2022_Aug_29_1143,ProdSingRedoBetween,2021.2.3,59.9799067109208,
