StudyLoop.thisRepN,StudyLoop.thisTrialN,StudyLoop.thisN,StudyLoop.thisIndex,TestLoop.thisRepN,TestLoop.thisTrialN,TestLoop.thisN,TestLoop.thisIndex,textCondition.started,textCondition.stopped,keyCondition.keys,keyCondition.rt,keyCondition.started,keyCondition.stopped,Condition,textWelcome.started,textWelcome.stopped,keyWelcome.keys,keyWelcome.rt,keyWelcome.started,keyWelcome.stopped,textAloud.started,textAloud.stopped,textSilent.started,textSilent.stopped,textSing.started,textSing.stopped,conditional_text.started,conditional_text.stopped,textBlank500.started,textBlank500.stopped,study_word,study_num,study_order,study_type,word_color,textStudy.started,textStudy.stopped,keyStudy.keys,keyStudy.started,keyStudy.stopped,textTestInstructions.started,textTestInstructions.stopped,key_resp_3.keys,key_resp_3.rt,key_resp_3.started,key_resp_3.stopped,test_word,test_num,test_order,test_condition,old_new_test,test_word_original_color,textConf.started,textConf.stopped,textConfScale.started,textConfScale.stopped,keyConf.keys,keyConf.rt,keyConf.started,keyConf.stopped,confidence response time,textTestBlank.started,textTestBlank.stopped,textRKN.started,textRKN.stopped,textRKNScale.started,textRKNScale.stopped,keyRKN.keys,keyRKN.rt,keyRKN.started,keyRKN.stopped,rkn response time,textEnd.started,textEnd.stopped,participant,session,date,expName,psychopyVersion,frameRate,
,,,,,,,,16.236155799997505,None,a,2.6433605999918655,16.236155799997505,None,,,,,,,,,,,,,,,,,,,,,,,,,,,,,,,,,,,,,,,,,,,,,,,,,,,,,,,,,,,,,,31Silent,001,2022_Aug_29_1220,ProdSingRedoBetween,2021.2.3,59.94574908874056,
,,,,,,,,,,,,,,SilentTest,18.91660260001663,None,space,496.55446100002155,18.91660260001663,None,,,,,,,,,,,,,,,,,,,,,,,,,,,,,,,,,,,,,,,,,,,,,,,,,,,,,,,31Silent,001,2022_Aug_29_1220,ProdSingRedoBetween,2021.2.3,59.94574908874056,
0,0,0,0,,,,,,,,,,,,,,,,,,18.91660260001663,None,18.91660260001663,None,18.91660260001663,None,18.91660260001663,None,518.0200855000294,None,nation,7,1,silent,yellow,516.0079450000194,None,None,516.0079450000194,None,,,,,,,,,,,,,,,,,,,,,,,,,,,,,,,,,,,31Silent,001,2022_Aug_29_1220,ProdSingRedoBetween,2021.2.3,59.94574908874056,
1,0,1,0,,,,,,,,,,,,,,,,,,,,,,,,,,520.5228393000434,None,emergency,47,2,silent,blue,518.5235006000148,None,None,518.5235006000148,None,,,,,,,,,,,,,,,,,,,,,,,,,,,,,,,,,,,31Silent,001,2022_Aug_29_1220,ProdSingRedoBetween,2021.2.3,59.94574908874056,
2,0,2,0,,,,,,,,,,,,,,,,,,,,,,,,,,523.0419359000516,None,department,39,3,silent,blue,521.0276964000077,None,None,521.0276964000077,None,,,,,,,,,,,,,,,,,,,,,,,,,,,,,,,,,,,31Silent,001,2022_Aug_29_1220,ProdSingRedoBetween,2021.2.3,59.94574908874056,
3,0,3,0,,,,,,,,,,,,,,,,,,,,,,,,,,525.5610924000503,None,position,57,4,silent,blue,523.5459505000035,None,None,523.5459505000035,None,,,,,,,,,,,,,,,,,,,,,,,,,,,,,,,,,,,31Silent,001,2022_Aug_29_1220,ProdSingRedoBetween,2021.2.3,59.94574908874056,
4,0,4,0,,,,,,,,,,,,,,,,,,,,,,,,,,528.0803460000316,None,judge,32,5,silent,blue,526.0699698000099,None,None,526.0699698000099,None,,,,,,,,,,,,,,,,,,,,,,,,,,,,,,,,,,,31Silent,001,2022_Aug_29_1220,ProdSingRedoBetween,2021.2.3,59.94574908874056,
5,0,5,0,,,,,,,,,,,,,,,,,,,,,,,,,,530.5825495000463,None,defeat,63,6,silent,red,528.5806068000384,None,None,528.5806068000384,None,,,,,,,,,,,,,,,,,,,,,,,,,,,,,,,,,,,31Silent,001,2022_Aug_29_1220,ProdSingRedoBetween,2021.2.3,59.94574908874056,
6,0,6,0,,,,,,,,,,,,,,,,,,,,,,,,,,533.0854475000524,None,straight,23,7,silent,yellow,531.0833738000365,None,None,531.0833738000365,None,,,,,,,,,,,,,,,,,,,,,,,,,,,,,,,,,,,31Silent,001,2022_Aug_29_1220,ProdSingRedoBetween,2021.2.3,59.94574908874056,
7,0,7,0,,,,,,,,,,,,,,,,,,,,,,,,,,535.5875622000312,None,message,4,8,silent,yellow,533.5879857999971,None,None,533.5879857999971,None,,,,,,,,,,,,,,,,,,,,,,,,,,,,,,,,,,,31Silent,001,2022_Aug_29_1220,ProdSingRedoBetween,2021.2.3,59.94574908874056,
8,0,8,0,,,,,,,,,,,,,,,,,,,,,,,,,,538.090294900001,None,worker,2,9,silent,yellow,536.08826030005,None,None,536.08826030005,None,,,,,,,,,,,,,,,,,,,,,,,,,,,,,,,,,,,31Silent,001,2022_Aug_29_1220,ProdSingRedoBetween,2021.2.3,59.94574908874056,
9,0,9,0,,,,,,,,,,,,,,,,,,,,,,,,,,540.6092974000494,None,travel,82,10,silent,red,538.6068739000475,None,None,538.6068739000475,None,,,,,,,,,,,,,,,,,,,,,,,,,,,,,,,,,,,31Silent,001,2022_Aug_29_1220,ProdSingRedoBetween,2021.2.3,59.94574908874056,
10,0,10,0,,,,,,,,,,,,,,,,,,,,,,,,,,543.112005700008,None,surprise,46,11,silent,blue,541.109796100005,None,None,541.109796100005,None,,,,,,,,,,,,,,,,,,,,,,,,,,,,,,,,,,,31Silent,001,2022_Aug_29_1220,ProdSingRedoBetween,2021.2.3,59.94574908874056,
11,0,11,0,,,,,,,,,,,,,,,,,,,,,,,,,,545.6310260000173,None,century,26,12,silent,yellow,543.6162144000409,None,None,543.6162144000409,None,,,,,,,,,,,,,,,,,,,,,,,,,,,,,,,,,,,31Silent,001,2022_Aug_29_1220,ProdSingRedoBetween,2021.2.3,59.94574908874056,
12,0,12,0,,,,,,,,,,,,,,,,,,,,,,,,,,548.1337776000146,None,shear,88,13,silent,red,546.132802200038,None,None,546.132802200038,None,,,,,,,,,,,,,,,,,,,,,,,,,,,,,,,,,,,31Silent,001,2022_Aug_29_1220,ProdSingRedoBetween,2021.2.3,59.94574908874056,
13,0,13,0,,,,,,,,,,,,,,,,,,,,,,,,,,550.6361349000363,None,motion,64,14,silent,red,548.6363934000256,None,None,548.6363934000256,None,,,,,,,,,,,,,,,,,,,,,,,,,,,,,,,,,,,31Silent,001,2022_Aug_29_1220,ProdSingRedoBetween,2021.2.3,59.94574908874056,
14,0,14,0,,,,,,,,,,,,,,,,,,,,,,,,,,553.138767299999,None,breath,50,15,silent,blue,551.1367267000023,None,None,551.1367267000023,None,,,,,,,,,,,,,,,,,,,,,,,,,,,,,,,,,,,31Silent,001,2022_Aug_29_1220,ProdSingRedoBetween,2021.2.3,59.94574908874056,
15,0,15,0,,,,,,,,,,,,,,,,,,,,,,,,,,555.657737200032,None,pressure,22,16,silent,yellow,553.6450105000404,None,None,553.6450105000404,None,,,,,,,,,,,,,,,,,,,,,,,,,,,,,,,,,,,31Silent,001,2022_Aug_29_1220,ProdSingRedoBetween,2021.2.3,59.94574908874056,
16,0,16,0,,,,,,,,,,,,,,,,,,,,,,,,,,558.1603860000032,None,business,27,17,silent,yellow,556.1609331000363,None,None,556.1609331000363,None,,,,,,,,,,,,,,,,,,,,,,,,,,,,,,,,,,,31Silent,001,2022_Aug_29_1220,ProdSingRedoBetween,2021.2.3,59.94574908874056,
17,0,17,0,,,,,,,,,,,,,,,,,,,,,,,,,,560.6629473000066,None,scene,33,18,silent,blue,558.6612162000383,None,None,558.6612162000383,None,,,,,,,,,,,,,,,,,,,,,,,,,,,,,,,,,,,31Silent,001,2022_Aug_29_1220,ProdSingRedoBetween,2021.2.3,59.94574908874056,
18,0,18,0,,,,,,,,,,,,,,,,,,,,,,,,,,563.1653069000458,None,science,66,19,silent,red,561.1631319000153,None,None,561.1631319000153,None,,,,,,,,,,,,,,,,,,,,,,,,,,,,,,,,,,,31Silent,001,2022_Aug_29_1220,ProdSingRedoBetween,2021.2.3,59.94574908874056,
19,0,19,0,,,,,,,,,,,,,,,,,,,,,,,,,,565.6678205000353,None,tough,67,20,silent,red,563.6655108000268,None,None,563.6655108000268,None,,,,,,,,,,,,,,,,,,,,,,,,,,,,,,,,,,,31Silent,001,2022_Aug_29_1220,ProdSingRedoBetween,2021.2.3,59.94574908874056,
20,0,20,0,,,,,,,,,,,,,,,,,,,,,,,,,,568.1704139000503,None,season,49,21,silent,blue,566.1683671000064,None,None,566.1683671000064,None,,,,,,,,,,,,,,,,,,,,,,,,,,,,,,,,,,,31Silent,001,2022_Aug_29_1220,ProdSingRedoBetween,2021.2.3,59.94574908874056,
21,0,21,0,,,,,,,,,,,,,,,,,,,,,,,,,,570.6895697000436,None,quarter,37,22,silent,blue,568.6764838999952,None,None,568.6764838999952,None,,,,,,,,,,,,,,,,,,,,,,,,,,,,,,,,,,,31Silent,001,2022_Aug_29_1220,ProdSingRedoBetween,2021.2.3,59.94574908874056,
22,0,22,0,,,,,,,,,,,,,,,,,,,,,,,,,,573.1920776000479,None,brief,30,23,silent,blue,571.1913467000122,None,None,571.1913467000122,None,,,,,,,,,,,,,,,,,,,,,,,,,,,,,,,,,,,31Silent,001,2022_Aug_29_1220,ProdSingRedoBetween,2021.2.3,59.94574908874056,
23,0,23,0,,,,,,,,,,,,,,,,,,,,,,,,,,575.710979400028,None,passage,48,24,silent,blue,573.6974519000505,None,None,573.6974519000505,None,,,,,,,,,,,,,,,,,,,,,,,,,,,,,,,,,,,31Silent,001,2022_Aug_29_1220,ProdSingRedoBetween,2021.2.3,59.94574908874056,
24,0,24,0,,,,,,,,,,,,,,,,,,,,,,,,,,578.2304029000225,None,review,10,25,silent,yellow,576.221105500008,None,None,576.221105500008,None,,,,,,,,,,,,,,,,,,,,,,,,,,,,,,,,,,,31Silent,001,2022_Aug_29_1220,ProdSingRedoBetween,2021.2.3,59.94574908874056,
25,0,25,0,,,,,,,,,,,,,,,,,,,,,,,,,,580.7328123000334,None,captain,84,26,silent,red,578.7304655000335,None,None,578.7304655000335,None,,,,,,,,,,,,,,,,,,,,,,,,,,,,,,,,,,,31Silent,001,2022_Aug_29_1220,ProdSingRedoBetween,2021.2.3,59.94574908874056,
26,0,26,0,,,,,,,,,,,,,,,,,,,,,,,,,,583.2518712000456,None,second,0,27,silent,yellow,581.2390101000201,None,None,581.2390101000201,None,,,,,,,,,,,,,,,,,,,,,,,,,,,,,,,,,,,31Silent,001,2022_Aug_29_1220,ProdSingRedoBetween,2021.2.3,59.94574908874056,
27,0,27,0,,,,,,,,,,,,,,,,,,,,,,,,,,585.7545579000143,None,agency,65,28,silent,red,583.7537962000351,None,None,583.7537962000351,None,,,,,,,,,,,,,,,,,,,,,,,,,,,,,,,,,,,31Silent,001,2022_Aug_29_1220,ProdSingRedoBetween,2021.2.3,59.94574908874056,
28,0,28,0,,,,,,,,,,,,,,,,,,,,,,,,,,588.2737953000469,None,citizen,85,29,silent,red,586.2621213000384,None,None,586.2621213000384,None,,,,,,,,,,,,,,,,,,,,,,,,,,,,,,,,,,,31Silent,001,2022_Aug_29_1220,ProdSingRedoBetween,2021.2.3,59.94574908874056,
29,0,29,0,,,,,,,,,,,,,,,,,,,,,,,,,,590.7761649000458,None,dispute,15,30,silent,yellow,588.7739553000429,None,None,588.7739553000429,None,,,,,,,,,,,,,,,,,,,,,,,,,,,,,,,,,,,31Silent,001,2022_Aug_29_1220,ProdSingRedoBetween,2021.2.3,59.94574908874056,
30,0,30,0,,,,,,,,,,,,,,,,,,,,,,,,,,593.2786837000167,None,beauty,1,31,silent,yellow,591.2764378000284,None,None,591.2764378000284,None,,,,,,,,,,,,,,,,,,,,,,,,,,,,,,,,,,,31Silent,001,2022_Aug_29_1220,ProdSingRedoBetween,2021.2.3,59.94574908874056,
31,0,31,0,,,,,,,,,,,,,,,,,,,,,,,,,,595.798101900029,None,running,71,32,silent,red,593.7849910000223,None,None,593.7849910000223,None,,,,,,,,,,,,,,,,,,,,,,,,,,,,,,,,,,,31Silent,001,2022_Aug_29_1220,ProdSingRedoBetween,2021.2.3,59.94574908874056,
32,0,32,0,,,,,,,,,,,,,,,,,,,,,,,,,,598.30030360003,None,government,43,33,silent,blue,596.3012513000285,None,None,596.3012513000285,None,,,,,,,,,,,,,,,,,,,,,,,,,,,,,,,,,,,31Silent,001,2022_Aug_29_1220,ProdSingRedoBetween,2021.2.3,59.94574908874056,
33,0,33,0,,,,,,,,,,,,,,,,,,,,,,,,,,600.8029184000334,None,incident,40,34,silent,blue,598.8008753000177,None,None,598.8008753000177,None,,,,,,,,,,,,,,,,,,,,,,,,,,,,,,,,,,,31Silent,001,2022_Aug_29_1220,ProdSingRedoBetween,2021.2.3,59.94574908874056,
34,0,34,0,,,,,,,,,,,,,,,,,,,,,,,,,,603.3221503000241,None,question,74,35,silent,red,601.3167736000032,None,None,601.3167736000032,None,,,,,,,,,,,,,,,,,,,,,,,,,,,,,,,,,,,31Silent,001,2022_Aug_29_1220,ProdSingRedoBetween,2021.2.3,59.94574908874056,
35,0,35,0,,,,,,,,,,,,,,,,,,,,,,,,,,605.8414064000244,None,tragedy,31,36,silent,blue,603.8276182000409,None,None,603.8276182000409,None,,,,,,,,,,,,,,,,,,,,,,,,,,,,,,,,,,,31Silent,001,2022_Aug_29_1220,ProdSingRedoBetween,2021.2.3,59.94574908874056,
36,0,36,0,,,,,,,,,,,,,,,,,,,,,,,,,,608.3438141000224,None,discovery,18,37,silent,yellow,606.3444890000392,None,None,606.3444890000392,None,,,,,,,,,,,,,,,,,,,,,,,,,,,,,,,,,,,31Silent,001,2022_Aug_29_1220,ProdSingRedoBetween,2021.2.3,59.94574908874056,
37,0,37,0,,,,,,,,,,,,,,,,,,,,,,,,,,610.8629759000032,None,staff,58,38,silent,blue,608.8554134000442,None,None,608.8554134000442,None,,,,,,,,,,,,,,,,,,,,,,,,,,,,,,,,,,,31Silent,001,2022_Aug_29_1220,ProdSingRedoBetween,2021.2.3,59.94574908874056,
38,0,38,0,,,,,,,,,,,,,,,,,,,,,,,,,,613.3655106000369,None,blind,3,39,silent,yellow,611.3644529000157,None,None,611.3644529000157,None,,,,,,,,,,,,,,,,,,,,,,,,,,,,,,,,,,,31Silent,001,2022_Aug_29_1220,ProdSingRedoBetween,2021.2.3,59.94574908874056,
39,0,39,0,,,,,,,,,,,,,,,,,,,,,,,,,,615.8845750000328,None,crowd,81,40,silent,red,613.8707672000164,None,None,613.8707672000164,None,,,,,,,,,,,,,,,,,,,,,,,,,,,,,,,,,,,31Silent,001,2022_Aug_29_1220,ProdSingRedoBetween,2021.2.3,59.94574908874056,
40,0,40,0,,,,,,,,,,,,,,,,,,,,,,,,,,618.3871537000523,None,quantity,38,41,silent,blue,616.3850862000254,None,None,616.3850862000254,None,,,,,,,,,,,,,,,,,,,,,,,,,,,,,,,,,,,31Silent,001,2022_Aug_29_1220,ProdSingRedoBetween,2021.2.3,59.94574908874056,
41,0,41,0,,,,,,,,,,,,,,,,,,,,,,,,,,620.8895732000237,None,colonel,89,42,silent,red,618.8874299000017,None,None,618.8874299000017,None,,,,,,,,,,,,,,,,,,,,,,,,,,,,,,,,,,,31Silent,001,2022_Aug_29_1220,ProdSingRedoBetween,2021.2.3,59.94574908874056,
42,0,42,0,,,,,,,,,,,,,,,,,,,,,,,,,,623.3920968000311,None,revolution,70,43,silent,red,621.3903868000489,None,None,621.3903868000489,None,,,,,,,,,,,,,,,,,,,,,,,,,,,,,,,,,,,31Silent,001,2022_Aug_29_1220,ProdSingRedoBetween,2021.2.3,59.94574908874056,
43,0,43,0,,,,,,,,,,,,,,,,,,,,,,,,,,625.8945929000038,None,capital,36,44,silent,blue,623.8926209000056,None,None,623.8926209000056,None,,,,,,,,,,,,,,,,,,,,,,,,,,,,,,,,,,,31Silent,001,2022_Aug_29_1220,ProdSingRedoBetween,2021.2.3,59.94574908874056,
44,0,44,0,,,,,,,,,,,,,,,,,,,,,,,,,,628.3970619000029,None,throw,83,45,silent,red,626.3951339000487,None,None,626.3951339000487,None,,,,,,,,,,,,,,,,,,,,,,,,,,,,,,,,,,,31Silent,001,2022_Aug_29_1220,ProdSingRedoBetween,2021.2.3,59.94574908874056,
45,0,45,0,,,,,,,,,,,,,,,,,,,,,,,,,,630.8996038000332,None,write,42,46,silent,blue,628.8975872000447,None,None,628.8975872000447,None,,,,,,,,,,,,,,,,,,,,,,,,,,,,,,,,,,,31Silent,001,2022_Aug_29_1220,ProdSingRedoBetween,2021.2.3,59.94574908874056,
46,0,46,0,,,,,,,,,,,,,,,,,,,,,,,,,,633.4020965000382,None,entrance,72,47,silent,red,631.4012010000297,None,None,631.4012010000297,None,,,,,,,,,,,,,,,,,,,,,,,,,,,,,,,,,,,31Silent,001,2022_Aug_29_1220,ProdSingRedoBetween,2021.2.3,59.94574908874056,
47,0,47,0,,,,,,,,,,,,,,,,,,,,,,,,,,635.9213563000085,None,territory,79,48,silent,red,633.9107976999949,None,None,633.9107976999949,None,,,,,,,,,,,,,,,,,,,,,,,,,,,,,,,,,,,31Silent,001,2022_Aug_29_1220,ProdSingRedoBetween,2021.2.3,59.94574908874056,
48,0,48,0,,,,,,,,,,,,,,,,,,,,,,,,,,638.4234984000213,None,appeal,73,49,silent,red,636.4228137000464,None,None,636.4228137000464,None,,,,,,,,,,,,,,,,,,,,,,,,,,,,,,,,,,,31Silent,001,2022_Aug_29_1220,ProdSingRedoBetween,2021.2.3,59.94574908874056,
49,0,49,0,,,,,,,,,,,,,,,,,,,,,,,,,,640.9430078000296,None,generation,34,50,silent,blue,638.9330153000192,None,None,638.9330153000192,None,,,,,,,,,,,,,,,,,,,,,,,,,,,,,,,,,,,31Silent,001,2022_Aug_29_1220,ProdSingRedoBetween,2021.2.3,59.94574908874056,
50,0,50,0,,,,,,,,,,,,,,,,,,,,,,,,,,643.445286000031,None,owner,13,51,silent,yellow,641.4450314000132,None,None,641.4450314000132,None,,,,,,,,,,,,,,,,,,,,,,,,,,,,,,,,,,,31Silent,001,2022_Aug_29_1220,ProdSingRedoBetween,2021.2.3,59.94574908874056,
51,0,51,0,,,,,,,,,,,,,,,,,,,,,,,,,,645.9648878000444,None,match,44,52,silent,blue,643.9493476000498,None,None,643.9493476000498,None,,,,,,,,,,,,,,,,,,,,,,,,,,,,,,,,,,,31Silent,001,2022_Aug_29_1220,ProdSingRedoBetween,2021.2.3,59.94574908874056,
52,0,52,0,,,,,,,,,,,,,,,,,,,,,,,,,,648.4836548000458,None,platform,75,53,silent,red,646.4739337000065,None,None,646.4739337000065,None,,,,,,,,,,,,,,,,,,,,,,,,,,,,,,,,,,,31Silent,001,2022_Aug_29_1220,ProdSingRedoBetween,2021.2.3,59.94574908874056,
53,0,53,0,,,,,,,,,,,,,,,,,,,,,,,,,,650.9863626000006,None,finish,51,54,silent,blue,648.9840881000273,None,None,648.9840881000273,None,,,,,,,,,,,,,,,,,,,,,,,,,,,,,,,,,,,31Silent,001,2022_Aug_29_1220,ProdSingRedoBetween,2021.2.3,59.94574908874056,
54,0,54,0,,,,,,,,,,,,,,,,,,,,,,,,,,653.4887517000316,None,accident,8,55,silent,yellow,651.4895249000401,None,None,651.4895249000401,None,,,,,,,,,,,,,,,,,,,,,,,,,,,,,,,,,,,31Silent,001,2022_Aug_29_1220,ProdSingRedoBetween,2021.2.3,59.94574908874056,
55,0,55,0,,,,,,,,,,,,,,,,,,,,,,,,,,656.008050400007,None,charter,68,56,silent,red,653.9935971000232,None,None,653.9935971000232,None,,,,,,,,,,,,,,,,,,,,,,,,,,,,,,,,,,,31Silent,001,2022_Aug_29_1220,ProdSingRedoBetween,2021.2.3,59.94574908874056,
56,0,56,0,,,,,,,,,,,,,,,,,,,,,,,,,,658.5271785000223,None,period,28,57,silent,yellow,656.5124766000081,None,None,656.5124766000081,None,,,,,,,,,,,,,,,,,,,,,,,,,,,,,,,,,,,31Silent,001,2022_Aug_29_1220,ProdSingRedoBetween,2021.2.3,59.94574908874056,
57,0,57,0,,,,,,,,,,,,,,,,,,,,,,,,,,661.0296378000057,None,theme,78,58,silent,red,659.0272957000416,None,None,659.0272957000416,None,,,,,,,,,,,,,,,,,,,,,,,,,,,,,,,,,,,31Silent,001,2022_Aug_29_1220,ProdSingRedoBetween,2021.2.3,59.94574908874056,
58,0,58,0,,,,,,,,,,,,,,,,,,,,,,,,,,663.5486217000289,None,poetry,5,59,silent,yellow,661.5382387000136,None,None,661.5382387000136,None,,,,,,,,,,,,,,,,,,,,,,,,,,,,,,,,,,,31Silent,001,2022_Aug_29_1220,ProdSingRedoBetween,2021.2.3,59.94574908874056,
59,0,59,0,,,,,,,,,,,,,,,,,,,,,,,,,,666.0512803000165,None,attack,45,60,silent,blue,664.0518947000382,None,None,664.0518947000382,None,,,,,,,,,,,,,,,,,,,,,,,,,,,,,,,,,,,31Silent,001,2022_Aug_29_1220,ProdSingRedoBetween,2021.2.3,59.94574908874056,
60,0,60,0,,,,,,,,,,,,,,,,,,,,,,,,,,668.5707484000013,None,short,20,61,silent,yellow,666.5573921000469,None,None,666.5573921000469,None,,,,,,,,,,,,,,,,,,,,,,,,,,,,,,,,,,,31Silent,001,2022_Aug_29_1220,ProdSingRedoBetween,2021.2.3,59.94574908874056,
61,0,61,0,,,,,,,,,,,,,,,,,,,,,,,,,,671.089736599999,None,service,35,62,silent,blue,669.0782236000523,None,None,669.0782236000523,None,,,,,,,,,,,,,,,,,,,,,,,,,,,,,,,,,,,31Silent,001,2022_Aug_29_1220,ProdSingRedoBetween,2021.2.3,59.94574908874056,
62,0,62,0,,,,,,,,,,,,,,,,,,,,,,,,,,673.6089939000085,None,express,76,63,silent,red,671.5944747000467,None,None,671.5944747000467,None,,,,,,,,,,,,,,,,,,,,,,,,,,,,,,,,,,,31Silent,001,2022_Aug_29_1220,ProdSingRedoBetween,2021.2.3,59.94574908874056,
63,0,63,0,,,,,,,,,,,,,,,,,,,,,,,,,,676.1113699999987,None,meeting,25,64,silent,yellow,674.1102134000394,None,None,674.1102134000394,None,,,,,,,,,,,,,,,,,,,,,,,,,,,,,,,,,,,31Silent,001,2022_Aug_29_1220,ProdSingRedoBetween,2021.2.3,59.94574908874056,
64,0,64,0,,,,,,,,,,,,,,,,,,,,,,,,,,678.6303672000067,None,background,6,65,silent,yellow,676.6162990000448,None,None,676.6162990000448,None,,,,,,,,,,,,,,,,,,,,,,,,,,,,,,,,,,,31Silent,001,2022_Aug_29_1220,ProdSingRedoBetween,2021.2.3,59.94574908874056,
65,0,65,0,,,,,,,,,,,,,,,,,,,,,,,,,,681.1328852000297,None,prime,19,66,silent,yellow,679.1308718000073,None,None,679.1308718000073,None,,,,,,,,,,,,,,,,,,,,,,,,,,,,,,,,,,,31Silent,001,2022_Aug_29_1220,ProdSingRedoBetween,2021.2.3,59.94574908874056,
66,0,66,0,,,,,,,,,,,,,,,,,,,,,,,,,,683.6355867999955,None,fashion,12,67,silent,yellow,681.6352838000166,None,None,681.6352838000166,None,,,,,,,,,,,,,,,,,,,,,,,,,,,,,,,,,,,31Silent,001,2022_Aug_29_1220,ProdSingRedoBetween,2021.2.3,59.94574908874056,
67,0,67,0,,,,,,,,,,,,,,,,,,,,,,,,,,686.1381337000057,None,balance,14,68,silent,yellow,684.1384136000415,None,None,684.1384136000415,None,,,,,,,,,,,,,,,,,,,,,,,,,,,,,,,,,,,31Silent,001,2022_Aug_29_1220,ProdSingRedoBetween,2021.2.3,59.94574908874056,
68,0,68,0,,,,,,,,,,,,,,,,,,,,,,,,,,688.640587300004,None,goose,9,69,silent,yellow,686.6406640000059,None,None,686.6406640000059,None,,,,,,,,,,,,,,,,,,,,,,,,,,,,,,,,,,,31Silent,001,2022_Aug_29_1220,ProdSingRedoBetween,2021.2.3,59.94574908874056,
69,0,69,0,,,,,,,,,,,,,,,,,,,,,,,,,,691.1596022000303,None,fellow,16,70,silent,yellow,689.144578300009,None,None,689.144578300009,None,,,,,,,,,,,,,,,,,,,,,,,,,,,,,,,,,,,31Silent,001,2022_Aug_29_1220,ProdSingRedoBetween,2021.2.3,59.94574908874056,
70,0,70,0,,,,,,,,,,,,,,,,,,,,,,,,,,693.6622971000033,None,drove,29,71,silent,blue,691.6614156000433,None,None,691.6614156000433,None,,,,,,,,,,,,,,,,,,,,,,,,,,,,,,,,,,,31Silent,001,2022_Aug_29_1220,ProdSingRedoBetween,2021.2.3,59.94574908874056,
71,0,71,0,,,,,,,,,,,,,,,,,,,,,,,,,,696.164516800025,None,empty,52,72,silent,blue,694.1636795000522,None,None,694.1636795000522,None,,,,,,,,,,,,,,,,,,,,,,,,,,,,,,,,,,,31Silent,001,2022_Aug_29_1220,ProdSingRedoBetween,2021.2.3,59.94574908874056,
72,0,72,0,,,,,,,,,,,,,,,,,,,,,,,,,,698.683765600028,None,committee,87,73,silent,red,696.6698521000217,None,None,696.6698521000217,None,,,,,,,,,,,,,,,,,,,,,,,,,,,,,,,,,,,31Silent,001,2022_Aug_29_1220,ProdSingRedoBetween,2021.2.3,59.94574908874056,
73,0,73,0,,,,,,,,,,,,,,,,,,,,,,,,,,701.2031069000368,None,strength,61,74,silent,red,699.1879453000147,None,None,699.1879453000147,None,,,,,,,,,,,,,,,,,,,,,,,,,,,,,,,,,,,31Silent,001,2022_Aug_29_1220,ProdSingRedoBetween,2021.2.3,59.94574908874056,
74,0,74,0,,,,,,,,,,,,,,,,,,,,,,,,,,703.722411499999,None,instrument,24,75,silent,yellow,701.707390800002,None,None,701.707390800002,None,,,,,,,,,,,,,,,,,,,,,,,,,,,,,,,,,,,31Silent,001,2022_Aug_29_1220,ProdSingRedoBetween,2021.2.3,59.94574908874056,
75,0,75,0,,,,,,,,,,,,,,,,,,,,,,,,,,706.2247833000147,None,danger,53,76,silent,blue,704.2228212000336,None,None,704.2228212000336,None,,,,,,,,,,,,,,,,,,,,,,,,,,,,,,,,,,,31Silent,001,2022_Aug_29_1220,ProdSingRedoBetween,2021.2.3,59.94574908874056,
76,0,76,0,,,,,,,,,,,,,,,,,,,,,,,,,,708.7272778000333,None,thing,80,77,silent,red,706.7253636000096,None,None,706.7253636000096,None,,,,,,,,,,,,,,,,,,,,,,,,,,,,,,,,,,,31Silent,001,2022_Aug_29_1220,ProdSingRedoBetween,2021.2.3,59.94574908874056,
77,0,77,0,,,,,,,,,,,,,,,,,,,,,,,,,,711.2297201000038,None,range,54,78,silent,blue,709.2280067999964,None,None,709.2280067999964,None,,,,,,,,,,,,,,,,,,,,,,,,,,,,,,,,,,,31Silent,001,2022_Aug_29_1220,ProdSingRedoBetween,2021.2.3,59.94574908874056,
78,0,78,0,,,,,,,,,,,,,,,,,,,,,,,,,,713.7489512000466,None,debate,17,79,silent,yellow,711.7345324000344,None,None,711.7345324000344,None,,,,,,,,,,,,,,,,,,,,,,,,,,,,,,,,,,,31Silent,001,2022_Aug_29_1220,ProdSingRedoBetween,2021.2.3,59.94574908874056,
79,0,79,0,,,,,,,,,,,,,,,,,,,,,,,,,,716.2677309000283,None,foundation,55,80,silent,blue,714.2541254000389,None,None,714.2541254000389,None,,,,,,,,,,,,,,,,,,,,,,,,,,,,,,,,,,,31Silent,001,2022_Aug_29_1220,ProdSingRedoBetween,2021.2.3,59.94574908874056,
80,0,80,0,,,,,,,,,,,,,,,,,,,,,,,,,,718.7706861000042,None,benefit,41,81,silent,blue,716.7684886000352,None,None,716.7684886000352,None,,,,,,,,,,,,,,,,,,,,,,,,,,,,,,,,,,,31Silent,001,2022_Aug_29_1220,ProdSingRedoBetween,2021.2.3,59.94574908874056,
81,0,81,0,,,,,,,,,,,,,,,,,,,,,,,,,,721.2728781000478,None,master,62,82,silent,red,719.2726966000046,None,None,719.2726966000046,None,,,,,,,,,,,,,,,,,,,,,,,,,,,,,,,,,,,31Silent,001,2022_Aug_29_1220,ProdSingRedoBetween,2021.2.3,59.94574908874056,
82,0,82,0,,,,,,,,,,,,,,,,,,,,,,,,,,723.7757775000064,None,household,59,83,silent,yellow,721.7733685999992,None,None,721.7733685999992,None,,,,,,,,,,,,,,,,,,,,,,,,,,,,,,,,,,,31Silent,001,2022_Aug_29_1220,ProdSingRedoBetween,2021.2.3,59.94574908874056,
83,0,83,0,,,,,,,,,,,,,,,,,,,,,,,,,,726.2948725000024,None,subject,56,84,silent,blue,724.2795123000396,None,None,724.2795123000396,None,,,,,,,,,,,,,,,,,,,,,,,,,,,,,,,,,,,31Silent,001,2022_Aug_29_1220,ProdSingRedoBetween,2021.2.3,59.94574908874056,
84,0,84,0,,,,,,,,,,,,,,,,,,,,,,,,,,728.7973999000387,None,school,21,85,silent,yellow,726.7964745000354,None,None,726.7964745000354,None,,,,,,,,,,,,,,,,,,,,,,,,,,,,,,,,,,,31Silent,001,2022_Aug_29_1220,ProdSingRedoBetween,2021.2.3,59.94574908874056,
85,0,85,0,,,,,,,,,,,,,,,,,,,,,,,,,,731.3165370000061,None,medicine,69,86,silent,red,729.3060245000524,None,None,729.3060245000524,None,,,,,,,,,,,,,,,,,,,,,,,,,,,,,,,,,,,31Silent,001,2022_Aug_29_1220,ProdSingRedoBetween,2021.2.3,59.94574908874056,
86,0,86,0,,,,,,,,,,,,,,,,,,,,,,,,,,733.8356664000312,None,machinery,86,87,silent,red,731.8200886000413,None,None,731.8200886000413,None,,,,,,,,,,,,,,,,,,,,,,,,,,,,,,,,,,,31Silent,001,2022_Aug_29_1220,ProdSingRedoBetween,2021.2.3,59.94574908874056,
87,0,87,0,,,,,,,,,,,,,,,,,,,,,,,,,,736.3547471000347,None,phrase,60,88,silent,red,734.3478747000336,None,None,734.3478747000336,None,,,,,,,,,,,,,,,,,,,,,,,,,,,,,,,,,,,31Silent,001,2022_Aug_29_1220,ProdSingRedoBetween,2021.2.3,59.94574908874056,
88,0,88,0,,,,,,,,,,,,,,,,,,,,,,,,,,738.8570736999973,None,store,77,89,silent,red,736.8566338000237,None,None,736.8566338000237,None,,,,,,,,,,,,,,,,,,,,,,,,,,,,,,,,,,,31Silent,001,2022_Aug_29_1220,ProdSingRedoBetween,2021.2.3,59.94574908874056,
89,0,89,0,,,,,,,,,,,,,,,,,,,,,,,,,,741.3596997000277,None,problem,11,90,silent,yellow,739.3576783000026,None,None,739.3576783000026,None,,,,,,,,,,,,,,,,,,,,,,,,,,,,,,,,,,,31Silent,001,2022_Aug_29_1220,ProdSingRedoBetween,2021.2.3,59.94574908874056,
,,,,,,,,,,,,,,,,,,,,,,,,,,,,,,,,,,,,,,,,,741.8604663000442,None,k,83.77827660000185,741.8604663000442,None,,,,,,,,,,,,,,,,,,,,,,,,,,,,,31Silent,001,2022_Aug_29_1220,ProdSingRedoBetween,2021.2.3,59.94574908874056,
,,,,0,0,0,0,,,,,,,,,,,,,,,,,,,,,,874.5440641000168,None,,,,,,,,,,,,,,,,,discovery,18,1,silent,old,yellow,826.1713824000326,None,826.1713824000326,None,2,38.555527699994855,826.1713824000326,None,38.555527699994855,864.7579386000289,None,865.2709922000067,None,865.2709922000067,None,f,9.255897999973968,865.2709922000067,None,9.255897999973968,,,31Silent,001,2022_Aug_29_1220,ProdSingRedoBetween,2021.2.3,59.94574908874056,
,,,,1,0,1,0,,,,,,,,,,,,,,,,,,,,,,898.7846242000232,None,,,,,,,,,,,,,,,,,review,10,2,silent,old,yellow,875.0506474000285,None,875.0506474000285,None,6,15.55616740003461,875.0506474000285,None,15.55616740003461,890.6274976000423,None,891.1505288000335,None,891.1505288000335,None,f,7.608284700021613,891.1505288000335,None,7.608284700021613,,,31Silent,001,2022_Aug_29_1220,ProdSingRedoBetween,2021.2.3,59.94574908874056,
,,,,2,0,2,0,,,,,,,,,,,,,,,,,,,,,,932.3529280000366,None,,,,,,,,,,,,,,,,,instrument,24,3,silent,old,yellow,899.2871049999958,None,899.2871049999958,None,3,2.919917399995029,899.2871049999958,None,2.919917399995029,902.2462406000122,None,902.7577304000151,None,902.7577304000151,None,r,29.57714529999066,902.7577304000151,None,29.57714529999066,,,31Silent,001,2022_Aug_29_1220,ProdSingRedoBetween,2021.2.3,59.94574908874056,
,,,,3,0,3,0,,,,,,,,,,,,,,,,,,,,,,944.462427200051,None,,,,,,,,,,,,,,,,,direction,139,4,silent,new,null,932.8675193000236,None,932.8675193000236,None,6,7.019508400000632,932.8675193000236,None,7.019508400000632,939.9148549000383,None,940.4286713000038,None,940.4286713000038,None,n,4.018092499987688,940.4286713000038,None,4.018092499987688,,,31Silent,001,2022_Aug_29_1220,ProdSingRedoBetween,2021.2.3,59.94574908874056,
,,,,4,0,4,0,,,,,,,,,,,,,,,,,,,,,,951.9041991000413,None,,,,,,,,,,,,,,,,,judge,32,5,silent,old,blue,944.9689165000455,None,944.9689165000455,None,6,3.7657352999667637,944.9689165000455,None,3.7657352999667637,948.7765781000489,None,949.2842566000181,None,949.2842566000181,None,r,2.602681400021538,949.2842566000181,None,2.602681400021538,,,31Silent,001,2022_Aug_29_1220,ProdSingRedoBetween,2021.2.3,59.94574908874056,
,,,,5,0,5,0,,,,,,,,,,,,,,,,,,,,,,958.7443912000163,None,,,,,,,,,,,,,,,,,track,104,6,silent,new,null,952.4072701000259,None,952.4072701000259,None,4,3.0394686000072397,952.4072701000259,None,3.0394686000072397,955.4736424000002,None,955.9761769000324,None,955.9761769000324,None,n,2.7426394000067376,955.9761769000324,None,2.7426394000067376,,,31Silent,001,2022_Aug_29_1220,ProdSingRedoBetween,2021.2.3,59.94574908874056,
,,,,6,0,6,0,,,,,,,,,,,,,,,,,,,,,,965.2165832000319,None,,,,,,,,,,,,,,,,,entrance,72,7,silent,old,red,959.2438642000197,None,959.2438642000197,None,5,3.595227999961935,959.2438642000197,None,3.595227999961935,962.8707235000329,None,963.383719000034,None,963.383719000034,None,f,1.8149979000445455,963.383719000034,None,1.8149979000445455,,,31Silent,001,2022_Aug_29_1220,ProdSingRedoBetween,2021.2.3,59.94574908874056,
,,,,7,0,7,0,,,,,,,,,,,,,,,,,,,,,,979.7309043999994,None,,,,,,,,,,,,,,,,,science,66,8,silent,old,red,965.7251954000094,None,965.7251954000094,None,2,12.2977587999776,965.7251954000094,None,12.2977587999776,978.053036199999,None,978.5633737000171,None,978.5633737000171,None,r,1.1474040999892168,978.5633737000171,None,1.1474040999892168,,,31Silent,001,2022_Aug_29_1220,ProdSingRedoBetween,2021.2.3,59.94574908874056,
,,,,8,0,8,0,,,,,,,,,,,,,,,,,,,,,,994.4958435000153,None,,,,,,,,,,,,,,,,,government,43,9,silent,old,blue,980.2451623000088,None,980.2451623000088,None,6,4.209533000015654,980.2451623000088,None,4.209533000015654,984.4886548000504,None,985.0032039000071,None,985.0032039000071,None,f,9.467550300003495,985.0032039000071,None,9.467550300003495,,,31Silent,001,2022_Aug_29_1220,ProdSingRedoBetween,2021.2.3,59.94574908874056,
,,,,9,0,9,0,,,,,,,,,,,,,,,,,,,,,,1006.7078192000045,None,,,,,,,,,,,,,,,,,travel,82,10,silent,old,red,995.0000743000419,None,995.0000743000419,None,2,9.830718800018076,995.0000743000419,None,9.830718800018076,1004.85754430003,None,1005.3603532999987,None,1005.3603532999987,None,r,1.3184798000147566,1005.3603532999987,None,1.3184798000147566,,,31Silent,001,2022_Aug_29_1220,ProdSingRedoBetween,2021.2.3,59.94574908874056,
,,,,10,0,10,0,,,,,,,,,,,,,,,,,,,,,,1014.3496192000457,None,,,,,,,,,,,,,,,,,smooth,163,11,silent,new,null,1007.2193636000156,None,1007.2193636000156,None,1,5.283251299988478,1007.2193636000156,None,5.283251299988478,1012.5321400000248,None,1013.0530969999963,None,1013.0530969999963,None,n,1.2658491999609396,1013.0530969999963,None,1.2658491999609396,,,31Silent,001,2022_Aug_29_1220,ProdSingRedoBetween,2021.2.3,59.94574908874056,
,,,,11,0,11,0,,,,,,,,,,,,,,,,,,,,,,1021.4080509000341,None,,,,,,,,,,,,,,,,,straight,23,12,silent,old,yellow,1014.8530163000105,None,1014.8530163000105,None,2,4.89789490000112,1014.8530163000105,None,4.89789490000112,1019.7783610000042,None,1020.2883421000442,None,1020.2883421000442,None,f,1.1025839000358246,1020.2883421000442,None,1.1025839000358246,,,31Silent,001,2022_Aug_29_1220,ProdSingRedoBetween,2021.2.3,59.94574908874056,
,,,,12,0,12,0,,,,,,,,,,,,,,,,,,,,,,1027.647648000042,None,,,,,,,,,,,,,,,,,scene,33,13,silent,old,blue,1021.9279963000445,None,1021.9279963000445,None,5,2.710718300018925,1021.9279963000445,None,2.710718300018925,1024.6598814000026,None,1025.1645521000028,None,1025.1645521000028,None,f,2.4503415999934077,1025.1645521000028,None,2.4503415999934077,,,31Silent,001,2022_Aug_29_1220,ProdSingRedoBetween,2021.2.3,59.94574908874056,
,,,,13,0,13,0,,,,,,,,,,,,,,,,,,,,,,1034.3856315000448,None,,,,,,,,,,,,,,,,,pattern,96,14,silent,new,null,1028.1694384000148,None,1028.1694384000148,None,6,3.861182499967981,1028.1694384000148,None,3.861182499967981,1032.0501124000293,None,1032.5503230000031,None,1032.5503230000031,None,r,1.8164071000064723,1032.5503230000031,None,1.8164071000064723,,,31Silent,001,2022_Aug_29_1220,ProdSingRedoBetween,2021.2.3,59.94574908874056,
,,,,14,0,14,0,,,,,,,,,,,,,,,,,,,,,,1039.057588900032,None,,,,,,,,,,,,,,,,,benefit,41,15,silent,old,blue,1034.894202399999,None,1034.894202399999,None,6,1.808530599984806,1034.894202399999,None,1.808530599984806,1036.7280247000162,None,1037.2384750000201,None,1037.2384750000201,None,f,1.8001488000154495,1037.2384750000201,None,1.8001488000154495,,,31Silent,001,2022_Aug_29_1220,ProdSingRedoBetween,2021.2.3,59.94574908874056,
,,,,15,0,15,0,,,,,,,,,,,,,,,,,,,,,,1043.7949988000328,None,,,,,,,,,,,,,,,,,expansion,95,16,silent,new,null,1039.5573165999958,None,1039.5573165999958,None,2,2.513393000001088,1039.5573165999958,None,2.513393000001088,1042.0955524000456,None,1042.6106818999979,None,1042.6106818999979,None,n,1.164105199975893,1042.6106818999979,None,1.164105199975893,,,31Silent,001,2022_Aug_29_1220,ProdSingRedoBetween,2021.2.3,59.94574908874056,
,,,,16,0,16,0,,,,,,,,,,,,,,,,,,,,,,1050.251461900014,None,,,,,,,,,,,,,,,,,accident,8,17,silent,old,yellow,1044.3021944000502,None,1044.3021944000502,None,6,4.63247130002128,1044.3021944000502,None,4.63247130002128,1048.950185100024,None,1049.4538601000095,None,1049.4538601000095,None,r,0.768868199957069,1049.4538601000095,None,0.768868199957069,,,31Silent,001,2022_Aug_29_1220,ProdSingRedoBetween,2021.2.3,59.94574908874056,
,,,,17,0,17,0,,,,,,,,,,,,,,,,,,,,,,1056.9762153000338,None,,,,,,,,,,,,,,,,,listen,113,18,silent,new,null,1050.756647900038,None,1050.756647900038,None,3,2.386040100012906,1050.756647900038,None,2.386040100012906,1053.1718737000483,None,1053.6759055000148,None,1053.6759055000148,None,n,3.2829422000213526,1053.6759055000148,None,3.2829422000213526,,,31Silent,001,2022_Aug_29_1220,ProdSingRedoBetween,2021.2.3,59.94574908874056,
,,,,18,0,18,0,,,,,,,,,,,,,,,,,,,,,,1060.695628400019,None,,,,,,,,,,,,,,,,,poetry,5,19,silent,old,yellow,1057.4808212000062,None,1057.4808212000062,None,6,2.3739236999535933,1057.4808212000062,None,2.3739236999535933,1059.882772800047,None,1060.3996360000456,None,1060.3996360000456,None,r,0.2711811999906786,1060.3996360000456,None,0.2711811999906786,,,31Silent,001,2022_Aug_29_1220,ProdSingRedoBetween,2021.2.3,59.94574908874056,
,,,,19,0,19,0,,,,,,,,,,,,,,,,,,,,,,1063.6494571000221,None,,,,,,,,,,,,,,,,,sleep,164,20,silent,new,null,1061.1989552000305,None,1061.1989552000305,None,6,1.4797856000368483,1061.1989552000305,None,1.4797856000368483,1062.7060772000114,None,1063.2193931000074,None,1063.2193931000074,None,r,0.41145910002524033,1063.2193931000074,None,0.41145910002524033,,,31Silent,001,2022_Aug_29_1220,ProdSingRedoBetween,2021.2.3,59.94574908874056,
,,,,20,0,20,0,,,,,,,,,,,,,,,,,,,,,,1068.3694235000294,None,,,,,,,,,,,,,,,,,dance,128,21,silent,new,null,1064.1636024000472,None,1064.1636024000472,None,2,2.3629202999873087,1064.1636024000472,None,2.3629202999873087,1066.5702623000252,None,1067.0859457000042,None,1067.0859457000042,None,f,1.256678199977614,1067.0859457000042,None,1.256678199977614,,,31Silent,001,2022_Aug_29_1220,ProdSingRedoBetween,2021.2.3,59.94574908874056,
,,,,21,0,21,0,,,,,,,,,,,,,,,,,,,,,,1072.3736385999946,None,,,,,,,,,,,,,,,,,cross,167,22,silent,new,null,1068.8717203999986,None,1068.8717203999986,None,1,2.0469470000243746,1068.8717203999986,None,2.0469470000243746,1070.9400476000155,None,1071.4393873000517,None,1071.4393873000517,None,n,0.9114683999796398,1071.4393873000517,None,0.9114683999796398,,,31Silent,001,2022_Aug_29_1220,ProdSingRedoBetween,2021.2.3,59.94574908874056,
,,,,22,0,22,0,,,,,,,,,,,,,,,,,,,,,,1076.377335600031,None,,,,,,,,,,,,,,,,,trail,98,23,silent,new,null,1072.9018645000178,None,1072.9018645000178,None,2,2.6251262999721803,1072.9018645000178,None,2.6251262999721803,1075.5461188000045,None,1076.0606695000315,None,1076.0606695000315,None,n,0.2980703999637626,1076.0606695000315,None,0.2980703999637626,,,31Silent,001,2022_Aug_29_1220,ProdSingRedoBetween,2021.2.3,59.94574908874056,
,,,,23,0,23,0,,,,,,,,,,,,,,,,,,,,,,1079.130081600044,None,,,,,,,,,,,,,,,,,majority,152,24,silent,new,null,1076.882348700019,None,1076.882348700019,None,2,1.4683190999785438,1076.882348700019,None,1.4683190999785438,1078.3809165999992,None,1078.897023700003,None,1078.897023700003,None,n,0.21361669996986166,1078.897023700003,None,0.21361669996986166,,,31Silent,001,2022_Aug_29_1220,ProdSingRedoBetween,2021.2.3,59.94574908874056,
,,,,24,0,24,0,,,,,,,,,,,,,,,,,,,,,,1082.405223800044,None,,,,,,,,,,,,,,,,,concern,106,25,silent,new,null,1079.6430491000065,None,1079.6430491000065,None,4,1.2197945000370964,1079.6430491000065,None,1.2197945000370964,1080.8912454000092,None,1081.3999770000228,None,1081.3999770000228,None,f,0.9748109999927692,1081.3999770000228,None,0.9748109999927692,,,31Silent,001,2022_Aug_29_1220,ProdSingRedoBetween,2021.2.3,59.94574908874056,
,,,,25,0,25,0,,,,,,,,,,,,,,,,,,,,,,1084.8885272000334,None,,,,,,,,,,,,,,,,,device,126,26,silent,new,null,1082.9209003000287,None,1082.9209003000287,None,4,1.1657099000294693,1082.9209003000287,None,1.1657099000294693,1084.1029978000442,None,1084.6064734000247,None,1084.6064734000247,None,f,0.2644925999920815,1084.6064734000247,None,0.2644925999920815,,,31Silent,001,2022_Aug_29_1220,ProdSingRedoBetween,2021.2.3,59.94574908874056,
,,,,26,0,26,0,,,,,,,,,,,,,,,,,,,,,,1088.8731555000413,None,,,,,,,,,,,,,,,,,volume,138,27,silent,new,null,1085.4107892000466,None,1085.4107892000466,None,2,2.1079012000118382,1085.4107892000466,None,2.1079012000118382,1087.5425890000188,None,1088.0557302000234,None,1088.0557302000234,None,n,0.7908758000121452,1088.0557302000234,None,0.7908758000121452,,,31Silent,001,2022_Aug_29_1220,ProdSingRedoBetween,2021.2.3,59.94574908874056,
,,,,27,0,27,0,,,,,,,,,,,,,,,,,,,,,,1092.293042000034,None,,,,,,,,,,,,,,,,,right,115,28,silent,new,null,1089.3810048000305,None,1089.3810048000305,None,2,1.4177663000300527,1089.3810048000305,None,1.4177663000300527,1090.8341171000502,None,1091.3426062000217,None,1091.3426062000217,None,n,0.9281074000173248,1091.3426062000217,None,0.9281074000173248,,,31Silent,001,2022_Aug_29_1220,ProdSingRedoBetween,2021.2.3,59.94574908874056,
,,,,28,0,28,0,,,,,,,,,,,,,,,,,,,,,,1098.4663136000163,None,,,,,,,,,,,,,,,,,finish,51,29,silent,old,blue,1092.7971117999987,None,1092.7971117999987,None,6,1.4095372000010684,1092.7971117999987,None,1.4095372000010684,1094.2310582000064,None,1094.7460535000428,None,1094.7460535000428,None,f,3.7006117000128143,1094.7460535000428,None,3.7006117000128143,,,31Silent,001,2022_Aug_29_1220,ProdSingRedoBetween,2021.2.3,59.94574908874056,
,,,,29,0,29,0,,,,,,,,,,,,,,,,,,,,,,1104.4738323000493,None,,,,,,,,,,,,,,,,,surprise,46,30,silent,old,blue,1098.9684600000037,None,1098.9684600000037,None,6,1.6863004000042565,1098.9684600000037,None,1.6863004000042565,1100.6859415000072,None,1101.1891474000295,None,1101.1891474000295,None,f,3.257499100000132,1101.1891474000295,None,3.257499100000132,,,31Silent,001,2022_Aug_29_1220,ProdSingRedoBetween,2021.2.3,59.94574908874056,
,,,,30,0,30,0,,,,,,,,,,,,,,,,,,,,,,1113.3328792999964,None,,,,,,,,,,,,,,,,,report,123,31,silent,new,null,1104.9807887000497,None,1104.9807887000497,None,4,6.889913399994839,1104.9807887000497,None,6.889913399994839,1111.9019819000387,None,1112.413429600012,None,1112.413429600012,None,f,0.8971795999677852,1112.413429600012,None,0.8971795999677852,,,31Silent,001,2022_Aug_29_1220,ProdSingRedoBetween,2021.2.3,59.94574908874056,
,,,,31,0,31,0,,,,,,,,,,,,,,,,,,,,,,1118.9700639000512,None,,,,,,,,,,,,,,,,,dispute,15,32,silent,old,yellow,1113.849450000038,None,1113.849450000038,None,5,2.925187300017569,1113.849450000038,None,2.925187300017569,1116.809806400037,None,1117.32358820003,None,1117.32358820003,None,r,1.6269007999799214,1117.32358820003,None,1.6269007999799214,,,31Silent,001,2022_Aug_29_1220,ProdSingRedoBetween,2021.2.3,59.94574908874056,
,,,,32,0,32,0,,,,,,,,,,,,,,,,,,,,,,1124.3254495,None,,,,,,,,,,,,,,,,,capital,36,33,silent,old,blue,1119.483515800035,None,1119.483515800035,None,5,3.875109800021164,1119.483515800035,None,3.875109800021164,1123.386698300019,None,1123.8917934000492,None,1123.8917934000492,None,n,0.4107077000080608,1123.8917934000492,None,0.4107077000080608,,,31Silent,001,2022_Aug_29_1220,ProdSingRedoBetween,2021.2.3,59.94574908874056,
,,,,33,0,33,0,,,,,,,,,,,,,,,,,,,,,,1137.1563589000143,None,,,,,,,,,,,,,,,,,people,175,34,silent,new,null,1124.8358450000524,None,1124.8358450000524,None,4,7.211128299997654,1124.8358450000524,None,7.211128299997654,1132.073919400049,None,1132.587795600004,None,1132.587795600004,None,f,4.538702599995304,1132.587795600004,None,4.538702599995304,,,31Silent,001,2022_Aug_29_1220,ProdSingRedoBetween,2021.2.3,59.94574908874056,
,,,,34,0,34,0,,,,,,,,,,,,,,,,,,,,,,1142.8102930000168,None,,,,,,,,,,,,,,,,,solution,97,35,silent,new,null,1137.6769117000513,None,1137.6769117000513,None,3,1.737673099967651,1137.6769117000513,None,1.737673099967651,1139.4428264000453,None,1139.9576099000406,None,1139.9576099000406,None,r,2.8332202999736182,1139.9576099000406,None,2.8332202999736182,,,31Silent,001,2022_Aug_29_1220,ProdSingRedoBetween,2021.2.3,59.94574908874056,
,,,,35,0,35,0,,,,,,,,,,,,,,,,,,,,,,1149.900631299999,None,,,,,,,,,,,,,,,,,damage,176,36,silent,new,null,1143.311045700044,None,1143.311045700044,None,5,2.951486299978569,1143.311045700044,None,2.951486299978569,1146.2863213000237,None,1146.7978530999972,None,1146.7978530999972,None,f,3.072608999966178,1146.7978530999972,None,3.072608999966178,,,31Silent,001,2022_Aug_29_1220,ProdSingRedoBetween,2021.2.3,59.94574908874056,
,,,,36,0,36,0,,,,,,,,,,,,,,,,,,,,,,1153.137501900026,None,,,,,,,,,,,,,,,,,bright,99,37,silent,new,null,1150.403864299995,None,1150.403864299995,None,2,1.81060189998243,1150.403864299995,None,1.81060189998243,1152.2387009999948,None,1152.7537497000303,None,1152.7537497000303,None,n,0.35675000003539026,1152.7537497000303,None,0.35675000003539026,,,31Silent,001,2022_Aug_29_1220,ProdSingRedoBetween,2021.2.3,59.94574908874056,
,,,,37,0,37,0,,,,,,,,,,,,,,,,,,,,,,1165.1328459000215,None,,,,,,,,,,,,,,,,,primary,149,38,silent,new,null,1153.6379230000312,None,1153.6379230000312,None,3,5.600534400029574,1153.6379230000312,None,5.600534400029574,1159.2692712999997,None,1159.7775490000495,None,1159.7775490000495,None,n,5.3330267000128515,1159.7775490000495,None,5.3330267000128515,,,31Silent,001,2022_Aug_29_1220,ProdSingRedoBetween,2021.2.3,59.94574908874056,
,,,,38,0,38,0,,,,,,,,,,,,,,,,,,,,,,1168.052337900037,None,,,,,,,,,,,,,,,,,gesture,103,39,silent,new,null,1165.6541729000164,None,1165.6541729000164,None,2,1.4963748000445776,1165.6541729000164,None,1.4963748000445776,1167.1714575000224,None,1167.686514800007,None,1167.686514800007,None,n,0.3440714000025764,1167.686514800007,None,0.3440714000025764,,,31Silent,001,2022_Aug_29_1220,ProdSingRedoBetween,2021.2.3,59.94574908874056,
,,,,39,0,39,0,,,,,,,,,,,,,,,,,,,,,,1172.4234827000182,None,,,,,,,,,,,,,,,,,corner,110,40,silent,new,null,1168.5613170000142,None,1168.5613170000142,None,4,2.1172048000153154,1168.5613170000142,None,2.1172048000153154,1170.7066529000294,None,1171.210017000034,None,1171.210017000034,None,r,1.1965501999948174,1171.210017000034,None,1.1965501999948174,,,31Silent,001,2022_Aug_29_1220,ProdSingRedoBetween,2021.2.3,59.94574908874056,
,,,,40,0,40,0,,,,,,,,,,,,,,,,,,,,,,1187.2879400000093,None,,,,,,,,,,,,,,,,,quick,161,41,silent,new,null,1172.9314214000478,None,1172.9314214000478,None,4,11.835315699980129,1172.9314214000478,None,11.835315699980129,1184.7932566000381,None,1185.3070552000427,None,1185.3070552000427,None,f,1.9554026999976486,1185.3070552000427,None,1.9554026999976486,,,31Silent,001,2022_Aug_29_1220,ProdSingRedoBetween,2021.2.3,59.94574908874056,
,,,,41,0,41,0,,,,,,,,,,,,,,,,,,,,,,1197.7653735000058,None,,,,,,,,,,,,,,,,,captain,84,42,silent,old,red,1187.7988644000143,None,1187.7988644000143,None,6,8.007693299965467,1187.7988644000143,None,8.007693299965467,1195.8323393000173,None,1196.3505300999968,None,1196.3505300999968,None,n,1.3841076999669895,1196.3505300999968,None,1.3841076999669895,,,31Silent,001,2022_Aug_29_1220,ProdSingRedoBetween,2021.2.3,59.94574908874056,
,,,,42,0,42,0,,,,,,,,,,,,,,,,,,,,,,1201.7206806000322,None,,,,,,,,,,,,,,,,,match,44,43,silent,old,blue,1198.274701700022,None,1198.274701700022,None,5,1.4757976999972016,1198.274701700022,None,1.4757976999972016,1199.768354300002,None,1200.2698830000008,None,1200.2698830000008,None,n,1.432968000008259,1200.2698830000008,None,1.432968000008259,,,31Silent,001,2022_Aug_29_1220,ProdSingRedoBetween,2021.2.3,59.94574908874056,
,,,,43,0,43,0,,,,,,,,,,,,,,,,,,,,,,1206.3403668000246,None,,,,,,,,,,,,,,,,,military,142,44,silent,new,null,1202.2293454000028,None,1202.2293454000028,None,6,1.8173679999890737,1202.2293454000028,None,1.8173679999890737,1204.0803124000086,None,1204.5889532000292,None,1204.5889532000292,None,f,1.7216798999579623,1204.5889532000292,None,1.7216798999579623,,,31Silent,001,2022_Aug_29_1220,ProdSingRedoBetween,2021.2.3,59.94574908874056,
,,,,44,0,44,0,,,,,,,,,,,,,,,,,,,,,,1215.2993324000272,None,,,,,,,,,,,,,,,,,blind,3,45,silent,old,yellow,1206.8441870000097,None,1206.8441870000097,None,6,6.970604999980424,1206.8441870000097,None,6.970604999980424,1213.835911400034,None,1214.3486085000332,None,1214.3486085000332,None,r,0.9220780999748968,1214.3486085000332,None,0.9220780999748968,,,31Silent,001,2022_Aug_29_1220,ProdSingRedoBetween,2021.2.3,59.94574908874056,
,,,,45,0,45,0,,,,,,,,,,,,,,,,,,,,,,1217.7851171000511,None,,,,,,,,,,,,,,,,,general,159,46,silent,new,null,1215.8042440999998,None,1215.8042440999998,None,6,1.1783571999985725,1215.8042440999998,None,1.1783571999985725,1217.0023232999956,None,1217.506472100038,None,1217.506472100038,None,r,0.2520751999691129,1217.506472100038,None,0.2520751999691129,,,31Silent,001,2022_Aug_29_1220,ProdSingRedoBetween,2021.2.3,59.94574908874056,
,,,,46,0,46,0,,,,,,,,,,,,,,,,,,,,,,1220.4714347000117,None,,,,,,,,,,,,,,,,,sight,116,47,silent,new,null,1218.2906908000004,None,1218.2906908000004,None,2,1.3798866999568418,1218.2906908000004,None,1.3798866999568418,1219.6885619999957,None,1220.187793500023,None,1220.187793500023,None,n,0.2668853999930434,1220.187793500023,None,0.2668853999930434,,,31Silent,001,2022_Aug_29_1220,ProdSingRedoBetween,2021.2.3,59.94574908874056,
,,,,47,0,47,0,,,,,,,,,,,,,,,,,,,,,,1224.8423271000502,None,,,,,,,,,,,,,,,,,citizen,85,48,silent,old,red,1220.9777918000473,None,1220.9777918000473,None,6,1.1967386999749579,1220.9777918000473,None,1.1967386999749579,1222.1910672000377,None,1222.6902959000436,None,1222.6902959000436,None,r,2.13223259994993,1222.6902959000436,None,2.13223259994993,,,31Silent,001,2022_Aug_29_1220,ProdSingRedoBetween,2021.2.3,59.94574908874056,
,,,,48,0,48,0,,,,,,,,,,,,,,,,,,,,,,1238.2081609000452,None,,,,,,,,,,,,,,,,,century,26,49,silent,old,yellow,1225.358941100014,None,1225.358941100014,None,3,8.951879100000951,1225.358941100014,None,8.951879100000951,1234.335333199997,None,1234.8392423000187,None,1234.8392423000187,None,n,3.3435342999873683,1234.8392423000187,None,3.3435342999873683,,,31Silent,001,2022_Aug_29_1220,ProdSingRedoBetween,2021.2.3,59.94574908874056,
,,,,49,0,49,0,,,,,,,,,,,,,,,,,,,,,,1244.3285074000014,None,,,,,,,,,,,,,,,,,period,28,50,silent,old,yellow,1238.7281052000471,None,1238.7281052000471,None,4,3.7504734999965876,1238.7281052000471,None,3.7504734999965876,1242.4995406000526,None,1243.0106503000134,None,1243.0106503000134,None,n,1.2919488999759778,1243.0106503000134,None,1.2919488999759778,,,31Silent,001,2022_Aug_29_1220,ProdSingRedoBetween,2021.2.3,59.94574908874056,
,,,,50,0,50,0,,,,,,,,,,,,,,,,,,,,,,1254.655494400009,None,,,,,,,,,,,,,,,,,second,0,51,silent,old,yellow,1244.8366105000023,None,1244.8366105000023,None,5,7.19390499999281,1244.8366105000023,None,7.19390499999281,1252.0561944000074,None,1252.5726620000205,None,1252.5726620000205,None,f,2.065862499992363,1252.5726620000205,None,2.065862499992363,,,31Silent,001,2022_Aug_29_1220,ProdSingRedoBetween,2021.2.3,59.94574908874056,
,,,,51,0,51,0,,,,,,,,,,,,,,,,,,,,,,1258.9096640000353,None,,,,,,,,,,,,,,,,,weight,154,52,silent,new,null,1255.1741730000358,None,1255.1741730000358,None,4,2.2805485000135377,1255.1741730000358,None,2.2805485000135377,1257.4864755000453,None,1257.997130200034,None,1257.997130200034,None,f,0.889416899997741,1257.997130200034,None,0.889416899997741,,,31Silent,001,2022_Aug_29_1220,ProdSingRedoBetween,2021.2.3,59.94574908874056,
,,,,52,0,52,0,,,,,,,,,,,,,,,,,,,,,,1261.7290783000062,None,,,,,,,,,,,,,,,,,command,108,53,silent,new,null,1259.4191845000023,None,1259.4191845000023,None,4,1.4195151000167243,1259.4191845000023,None,1.4195151000167243,1260.862001600035,None,1261.3720778000425,None,1261.3720778000425,None,f,0.3385497000417672,1261.3720778000425,None,0.3385497000417672,,,31Silent,001,2022_Aug_29_1220,ProdSingRedoBetween,2021.2.3,59.94574908874056,
,,,,53,0,53,0,,,,,,,,,,,,,,,,,,,,,,1267.936419500038,None,,,,,,,,,,,,,,,,,department,39,54,silent,old,blue,1262.2326627000002,None,1262.2326627000002,None,5,3.917929599992931,1262.2326627000002,None,3.917929599992931,1266.1703580000321,None,1266.6843342000502,None,1266.6843342000502,None,f,1.2342238000128418,1266.6843342000502,None,1.2342238000128418,,,31Silent,001,2022_Aug_29_1220,ProdSingRedoBetween,2021.2.3,59.94574908874056,
,,,,54,0,54,0,,,,,,,,,,,,,,,,,,,,,,1271.9075882000034,None,,,,,,,,,,,,,,,,,beauty,1,55,silent,old,yellow,1268.4403269000468,None,1268.4403269000468,None,6,1.4541370999650098,1268.4403269000468,None,1.4541370999650098,1269.9207056000014,None,1270.4233558000415,None,1270.4233558000415,None,r,1.4633724000304937,1270.4233558000415,None,1.4633724000304937,,,31Silent,001,2022_Aug_29_1220,ProdSingRedoBetween,2021.2.3,59.94574908874056,
,,,,55,0,55,0,,,,,,,,,,,,,,,,,,,,,,1274.5751266000443,None,,,,,,,,,,,,,,,,,story,119,56,silent,new,null,1272.4275682000443,None,1272.4275682000443,None,3,1.2589143000077456,1272.4275682000443,None,1.2589143000077456,1273.7090809000074,None,1274.214633900032,None,1274.214633900032,None,n,0.3359997000079602,1274.214633900032,None,0.3359997000079602,,,31Silent,001,2022_Aug_29_1220,ProdSingRedoBetween,2021.2.3,59.94574908874056,
,,,,56,0,56,0,,,,,,,,,,,,,,,,,,,,,,1277.3464908000315,None,,,,,,,,,,,,,,,,,theme,78,57,silent,old,red,1275.0775158000179,None,1275.0775158000179,None,4,1.3610153999761678,1275.0775158000179,None,1.3610153999761678,1276.4639368000207,None,1276.9778909000452,None,1276.9778909000452,None,n,0.3405656000250019,1276.9778909000452,None,0.3405656000250019,,,31Silent,001,2022_Aug_29_1220,ProdSingRedoBetween,2021.2.3,59.94574908874056,
,,,,57,0,57,0,,,,,,,,,,,,,,,,,,,,,,1280.2309132000082,None,,,,,,,,,,,,,,,,,appeal,73,58,silent,old,red,1277.871159100032,None,1277.871159100032,None,6,1.4872657000087202,1277.871159100032,None,1.4872657000087202,1279.380186400027,None,1279.8945677000447,None,1279.8945677000447,None,r,0.31991020002169535,1279.8945677000447,None,0.31991020002169535,,,31Silent,001,2022_Aug_29_1220,ProdSingRedoBetween,2021.2.3,59.94574908874056,
,,,,58,0,58,0,,,,,,,,,,,,,,,,,,,,,,1285.1860152000445,None,,,,,,,,,,,,,,,,,south,137,59,silent,new,null,1280.7370427999995,None,1280.7370427999995,None,2,3.453394300013315,1280.7370427999995,None,3.453394300013315,1284.219347300008,None,1284.7188784000464,None,1284.7188784000464,None,n,0.43960729998070747,1284.7188784000464,None,0.43960729998070747,,,31Silent,001,2022_Aug_29_1220,ProdSingRedoBetween,2021.2.3,59.94574908874056,
,,,,59,0,59,0,,,,,,,,,,,,,,,,,,,,,,1289.8083073000307,None,,,,,,,,,,,,,,,,,revolution,70,60,silent,old,red,1285.6895336000016,None,1285.6895336000016,None,5,2.4933649000013247,1285.6895336000016,None,2.4933649000013247,1288.2128128000186,None,1288.7230151999975,None,1288.7230151999975,None,f,1.06752649997361,1288.7230151999975,None,1.06752649997361,,,31Silent,001,2022_Aug_29_1220,ProdSingRedoBetween,2021.2.3,59.94574908874056,
,,,,60,0,60,0,,,,,,,,,,,,,,,,,,,,,,1293.96393300005,None,,,,,,,,,,,,,,,,,phrase,60,61,silent,old,red,1290.3108043000102,None,1290.3108043000102,None,3,1.3357733999728225,1290.3108043000102,None,1.3357733999728225,1291.6831895000068,None,1292.198240400001,None,1292.198240400001,None,n,1.7362431999645196,1292.198240400001,None,1.7362431999645196,,,31Silent,001,2022_Aug_29_1220,ProdSingRedoBetween,2021.2.3,59.94574908874056,
,,,,61,0,61,0,,,,,,,,,,,,,,,,,,,,,,1298.1987273000414,None,,,,,,,,,,,,,,,,,plane,136,62,silent,new,null,1294.4877222000505,None,1294.4877222000505,None,5,1.8709382000379264,1294.4877222000505,None,1.8709382000379264,1296.387379700027,None,1296.9018847999978,None,1296.9018847999978,None,n,1.2805945000145584,1296.9018847999978,None,1.2805945000145584,,,31Silent,001,2022_Aug_29_1220,ProdSingRedoBetween,2021.2.3,59.94574908874056,
,,,,62,0,62,0,,,,,,,,,,,,,,,,,,,,,,1301.5356434000423,None,,,,,,,,,,,,,,,,,character,100,63,silent,new,null,1298.707918400003,None,1298.707918400003,None,6,0.9865555000142194,1298.707918400003,None,0.9865555000142194,1299.7191046000225,None,1300.2383380000247,None,1300.2383380000247,None,r,1.280132699990645,1300.2383380000247,None,1.280132699990645,,,31Silent,001,2022_Aug_29_1220,ProdSingRedoBetween,2021.2.3,59.94574908874056,
,,,,63,0,63,0,,,,,,,,,,,,,,,,,,,,,,1304.2060114000342,None,,,,,,,,,,,,,,,,,brief,30,64,silent,old,blue,1302.04740770004,None,1302.04740770004,None,3,1.3990404999931343,1302.04740770004,None,1.3990404999931343,1303.4774005000363,None,1303.990013600036,None,1303.990013600036,None,n,0.19246699998620898,1303.990013600036,None,0.19246699998620898,,,31Silent,001,2022_Aug_29_1220,ProdSingRedoBetween,2021.2.3,59.94574908874056,
,,,,64,0,64,0,,,,,,,,,,,,,,,,,,,,,,1307.6422991,None,,,,,,,,,,,,,,,,,turkey,129,65,silent,new,null,1304.708441600029,None,1304.708441600029,None,1,1.682116300042253,1304.708441600029,None,1.682116300042253,1306.4127194000175,None,1306.9302746000467,None,1306.9302746000467,None,n,0.6840292999986559,1306.9302746000467,None,0.6840292999986559,,,31Silent,001,2022_Aug_29_1220,ProdSingRedoBetween,2021.2.3,59.94574908874056,
,,,,65,0,65,0,,,,,,,,,,,,,,,,,,,,,,1313.080459400022,None,,,,,,,,,,,,,,,,,salary,91,66,silent,new,null,1308.1581531999982,None,1308.1581531999982,None,3,1.3361747000017203,1308.1581531999982,None,1.3361747000017203,1309.5139807000523,None,1310.0308482000255,None,1310.0308482000255,None,f,3.031693800003268,1310.0308482000255,None,3.031693800003268,,,31Silent,001,2022_Aug_29_1220,ProdSingRedoBetween,2021.2.3,59.94574908874056,
,,,,66,0,66,0,,,,,,,,,,,,,,,,,,,,,,1316.4849352000165,None,,,,,,,,,,,,,,,,,meeting,25,67,silent,old,yellow,1313.5847639000276,None,1313.5847639000276,None,4,1.8536514000152238,1313.5847639000276,None,1.8536514000152238,1315.4709644000395,None,1315.987393700052,None,1315.987393700052,None,n,0.47513969999272376,1315.987393700052,None,0.47513969999272376,,,31Silent,001,2022_Aug_29_1220,ProdSingRedoBetween,2021.2.3,59.94574908874056,
,,,,67,0,67,0,,,,,,,,,,,,,,,,,,,,,,1319.136427599995,None,,,,,,,,,,,,,,,,,country,135,68,silent,new,null,1317.0033040000126,None,1317.0033040000126,None,6,1.2911927999812178,1317.0033040000126,None,1.2911927999812178,1318.3261498000356,None,1318.838715800026,None,1318.838715800026,None,r,0.2716692999820225,1318.838715800026,None,0.2716692999820225,,,31Silent,001,2022_Aug_29_1220,ProdSingRedoBetween,2021.2.3,59.94574908874056,
,,,,68,0,68,0,,,,,,,,,,,,,,,,,,,,,,1324.5445178000373,None,,,,,,,,,,,,,,,,,raise,92,69,silent,new,null,1319.6575657000067,None,1319.6575657000067,None,3,3.0849832000094466,1319.6575657000067,None,3.0849832000094466,1322.778443200048,None,1323.2908488000394,None,1323.2908488000394,None,f,1.227833400014788,1323.2908488000394,None,1.227833400014788,,,31Silent,001,2022_Aug_29_1220,ProdSingRedoBetween,2021.2.3,59.94574908874056,
,,,,69,0,69,0,,,,,,,,,,,,,,,,,,,,,,1333.450909200008,None,,,,,,,,,,,,,,,,,quarter,37,70,silent,old,blue,1325.0644737000111,None,1325.0644737000111,None,6,5.854150400031358,1325.0644737000111,None,5.854150400031358,1330.9566961000091,None,1331.4655474000028,None,1331.4655474000028,None,f,1.9568968000239693,1331.4655474000028,None,1.9568968000239693,,,31Silent,001,2022_Aug_29_1220,ProdSingRedoBetween,2021.2.3,59.94574908874056,
,,,,70,0,70,0,,,,,,,,,,,,,,,,,,,,,,1337.772132300015,None,,,,,,,,,,,,,,,,,running,71,71,silent,old,red,1333.9647758000065,None,1333.9647758000065,None,3,2.697626599983778,1333.9647758000065,None,2.697626599983778,1336.6934398000012,None,1337.2077530000242,None,1337.2077530000242,None,r,0.534821999957785,1337.2077530000242,None,0.534821999957785,,,31Silent,001,2022_Aug_29_1220,ProdSingRedoBetween,2021.2.3,59.94574908874056,
,,,,71,0,71,0,,,,,,,,,,,,,,,,,,,,,,1345.2292233000044,None,,,,,,,,,,,,,,,,,fellow,16,72,silent,old,yellow,1338.2796210000524,None,1338.2796210000524,None,2,5.006811200000811,1338.2796210000524,None,5.006811200000811,1343.313743900042,None,1343.8279936000472,None,1343.8279936000472,None,n,1.3785442999796942,1343.8279936000472,None,1.3785442999796942,,,31Silent,001,2022_Aug_29_1220,ProdSingRedoBetween,2021.2.3,59.94574908874056,
,,,,72,0,72,0,,,,,,,,,,,,,,,,,,,,,,1355.1391755000222,None,,,,,,,,,,,,,,,,,piece,178,73,silent,new,null,1345.7386387000442,None,1345.7386387000442,None,2,5.41181439999491,1345.7386387000442,None,5.41181439999491,1351.1776294000447,None,1351.690087200026,None,1351.690087200026,None,r,3.420338299998548,1351.690087200026,None,3.420338299998548,,,31Silent,001,2022_Aug_29_1220,ProdSingRedoBetween,2021.2.3,59.94574908874056,
,,,,73,0,73,0,,,,,,,,,,,,,,,,,,,,,,1365.51605070004,None,,,,,,,,,,,,,,,,,strength,61,74,silent,old,red,1355.6503154000384,None,1355.6503154000384,None,6,8.443967700004578,1355.6503154000384,None,8.443967700004578,1364.1158412000514,None,1364.6200214000419,None,1364.6200214000419,None,r,0.8744434000109322,1364.6200214000419,None,0.8744434000109322,,,31Silent,001,2022_Aug_29_1220,ProdSingRedoBetween,2021.2.3,59.94574908874056,
,,,,74,0,74,0,,,,,,,,,,,,,,,,,,,,,,1369.6869631000445,None,,,,,,,,,,,,,,,,,recall,109,75,silent,new,null,1366.0398232000298,None,1366.0398232000298,None,4,1.526585299987346,1366.0398232000298,None,1.526585299987346,1367.5899785000365,None,1368.1021985000116,None,1368.1021985000116,None,f,1.5682145999744534,1368.1021985000116,None,1.5682145999744534,,,31Silent,001,2022_Aug_29_1220,ProdSingRedoBetween,2021.2.3,59.94574908874056,
,,,,75,0,75,0,,,,,,,,,,,,,,,,,,,,,,1378.829676399997,None,,,,,,,,,,,,,,,,,history,162,76,silent,new,null,1370.1947098000092,None,1370.1947098000092,None,4,7.083857999998145,1370.1947098000092,None,7.083857999998145,1377.3002006000024,None,1377.8188543000142,None,1377.8188543000142,None,r,0.9876000999938697,1377.8188543000142,None,0.9876000999938697,,,31Silent,001,2022_Aug_29_1220,ProdSingRedoBetween,2021.2.3,59.94574908874056,
,,,,76,0,76,0,,,,,,,,,,,,,,,,,,,,,,1381.3664691000013,None,,,,,,,,,,,,,,,,,stranger,112,77,silent,new,null,1379.3350718000438,None,1379.3350718000438,None,6,1.3352756000240333,1379.3350718000438,None,1.3352756000240333,1380.7010241000098,None,1381.2162205000059,None,1381.2162205000059,None,r,0.12618839996866882,1381.2162205000059,None,0.12618839996866882,,,31Silent,001,2022_Aug_29_1220,ProdSingRedoBetween,2021.2.3,59.94574908874056,
,,,,77,0,77,0,,,,,,,,,,,,,,,,,,,,,,1384.9697653000476,None,,,,,,,,,,,,,,,,,burden,141,78,silent,new,null,1381.8774356000358,None,1381.8774356000358,None,3,2.0331182000227273,1381.8774356000358,None,2.0331182000227273,1383.9389200000442,None,1384.4552333000465,None,1384.4552333000465,None,f,0.4872200000099838,1384.4552333000465,None,0.4872200000099838,,,31Silent,001,2022_Aug_29_1220,ProdSingRedoBetween,2021.2.3,59.94574908874056,
,,,,78,0,78,0,,,,,,,,,,,,,,,,,,,,,,1388.4409575000172,None,,,,,,,,,,,,,,,,,attack,45,79,silent,old,blue,1385.4740385000478,None,1385.4740385000478,None,5,2.0763459999579936,1385.4740385000478,None,2.0763459999579936,1387.5742908000248,None,1388.088858300005,None,1388.088858300005,None,r,0.32550979999359697,1388.088858300005,None,0.32550979999359697,,,31Silent,001,2022_Aug_29_1220,ProdSingRedoBetween,2021.2.3,59.94574908874056,
,,,,79,0,79,0,,,,,,,,,,,,,,,,,,,,,,1392.8767587000038,None,,,,,,,,,,,,,,,,,medicine,69,80,silent,old,red,1388.962386100029,None,1388.962386100029,None,4,2.331898399977945,1388.962386100029,None,2.331898399977945,1391.3257448000368,None,1391.8295929000014,None,1391.8295929000014,None,f,1.0168337000068277,1391.8295929000014,None,1.0168337000068277,,,31Silent,001,2022_Aug_29_1220,ProdSingRedoBetween,2021.2.3,59.94574908874056,
,,,,80,0,80,0,,,,,,,,,,,,,,,,,,,,,,1397.5480826999992,None,,,,,,,,,,,,,,,,,order,105,81,silent,new,null,1393.3786916999961,None,1393.3786916999961,None,5,2.1317873999942094,1393.3786916999961,None,2.1317873999942094,1395.5303014999954,None,1396.0310878000455,None,1396.0310878000455,None,r,1.495473800052423,1396.0310878000455,None,1.495473800052423,,,31Silent,001,2022_Aug_29_1220,ProdSingRedoBetween,2021.2.3,59.94574908874056,
,,,,81,0,81,0,,,,,,,,,,,,,,,,,,,,,,1400.9859264999977,None,,,,,,,,,,,,,,,,,subject,56,82,silent,old,blue,1398.059747100051,None,1398.059747100051,None,4,1.9548032999737188,1398.059747100051,None,1.9548032999737188,1400.0402203000267,None,1400.5535964000155,None,1400.5535964000155,None,n,0.4127252000034787,1400.5535964000155,None,0.4127252000034787,,,31Silent,001,2022_Aug_29_1220,ProdSingRedoBetween,2021.2.3,59.94574908874056,
,,,,82,0,82,0,,,,,,,,,,,,,,,,,,,,,,1404.1241515000002,None,,,,,,,,,,,,,,,,,business,27,83,silent,old,yellow,1401.4980398000334,None,1401.4980398000334,None,6,1.1484890999854542,1401.4980398000334,None,1.1484890999854542,1402.6771603000234,None,1403.1930105000501,None,1403.1930105000501,None,r,0.9014054000144824,1403.1930105000501,None,0.9014054000144824,,,31Silent,001,2022_Aug_29_1220,ProdSingRedoBetween,2021.2.3,59.94574908874056,
,,,,83,0,83,0,,,,,,,,,,,,,,,,,,,,,,1407.3078284000512,None,,,,,,,,,,,,,,,,,express,76,84,silent,old,red,1404.6386790000251,None,1404.6386790000251,None,3,1.4075907000224106,1404.6386790000251,None,1.4075907000224106,1406.0768618000438,None,1406.590593300003,None,1406.590593300003,None,n,0.6877778000198305,1406.590593300003,None,0.6877778000198305,,,31Silent,001,2022_Aug_29_1220,ProdSingRedoBetween,2021.2.3,59.94574908874056,
,,,,84,0,84,0,,,,,,,,,,,,,,,,,,,,,,1415.7663116000476,None,,,,,,,,,,,,,,,,,incident,40,85,silent,old,blue,1407.8197674000403,None,1407.8197674000403,None,3,7.098599100019783,1407.8197674000403,None,7.098599100019783,1414.9515022000414,None,1415.4661104000406,None,1415.4661104000406,None,n,0.284318300022278,1415.4661104000406,None,0.284318300022278,,,31Silent,001,2022_Aug_29_1220,ProdSingRedoBetween,2021.2.3,59.94574908874056,
,,,,85,0,85,0,,,,,,,,,,,,,,,,,,,,,,1419.1195170000428,None,,,,,,,,,,,,,,,,,write,42,86,silent,old,blue,1416.2669596000342,None,1416.2669596000342,None,5,1.1715827999869362,1416.2669596000342,None,1.1715827999869362,1417.4766949000186,None,1417.99065230001,None,1417.99065230001,None,r,1.10371729999315,1417.99065230001,None,1.10371729999315,,,31Silent,001,2022_Aug_29_1220,ProdSingRedoBetween,2021.2.3,59.94574908874056,
,,,,86,0,86,0,,,,,,,,,,,,,,,,,,,,,,1422.6250537000014,None,,,,,,,,,,,,,,,,,colonel,89,87,silent,old,red,1419.6256430000067,None,1419.6256430000067,None,6,1.293057700037025,1419.6256430000067,None,1.293057700037025,1420.9378989000106,None,1421.440262500022,None,1421.440262500022,None,f,1.1580232999986038,1421.440262500022,None,1.1580232999986038,,,31Silent,001,2022_Aug_29_1220,ProdSingRedoBetween,2021.2.3,59.94574908874056,
,,,,87,0,87,0,,,,,,,,,,,,,,,,,,,,,,1427.7471734000137,None,,,,,,,,,,,,,,,,,measure,170,88,silent,new,null,1423.1404227000312,None,1423.1404227000312,None,3,1.2819306000019424,1423.1404227000312,None,1.2819306000019424,1424.442837300012,None,1424.9461834999966,None,1424.9461834999966,None,n,2.78017829998862,1424.9461834999966,None,2.78017829998862,,,31Silent,001,2022_Aug_29_1220,ProdSingRedoBetween,2021.2.3,59.94574908874056,
,,,,88,0,88,0,,,,,,,,,,,,,,,,,,,,,,1431.7857054000488,None,,,,,,,,,,,,,,,,,education,102,89,silent,new,null,1428.2619601000333,None,1428.2619601000333,None,6,1.9043340000207536,1428.2619601000333,None,1.9043340000207536,1430.1973833999946,None,1430.7002757000155,None,1430.7002757000155,None,r,1.0581923999707215,1430.7002757000155,None,1.0581923999707215,,,31Silent,001,2022_Aug_29_1220,ProdSingRedoBetween,2021.2.3,59.94574908874056,
,,,,89,0,89,0,,,,,,,,,,,,,,,,,,,,,,1435.685953600041,None,,,,,,,,,,,,,,,,,master,62,90,silent,old,red,1432.3041629000218,None,1432.3041629000218,None,6,2.6701887999661267,1432.3041629000218,None,2.6701887999661267,1435.0065943000372,None,1435.5195190000231,None,1435.5195190000231,None,r,0.1428723999997601,1435.5195190000231,None,0.1428723999997601,,,31Silent,001,2022_Aug_29_1220,ProdSingRedoBetween,2021.2.3,59.94574908874056,
,,,,90,0,90,0,,,,,,,,,,,,,,,,,,,,,,1438.0218342000153,None,,,,,,,,,,,,,,,,,motion,64,91,silent,old,red,1436.1879119000514,None,1436.1879119000514,None,3,1.2025707000284456,1436.1879119000514,None,1.2025707000284456,1437.431741300039,None,1437.9385257000104,None,1437.9385257000104,None,n,0.06781959999352694,1437.9385257000104,None,0.06781959999352694,,,31Silent,001,2022_Aug_29_1220,ProdSingRedoBetween,2021.2.3,59.94574908874056,
,,,,91,0,91,0,,,,,,,,,,,,,,,,,,,,,,1440.8247192000272,None,,,,,,,,,,,,,,,,,course,125,92,silent,new,null,1438.5293631000095,None,1438.5293631000095,None,3,1.533056000014767,1438.5293631000095,None,1.533056000014767,1440.0958800000371,None,1440.6078748000436,None,1440.6078748000436,None,n,0.19846119999419898,1440.6078748000436,None,0.19846119999419898,,,31Silent,001,2022_Aug_29_1220,ProdSingRedoBetween,2021.2.3,59.94574908874056,
,,,,92,0,92,0,,,,,,,,,,,,,,,,,,,,,,1443.193853100005,None,,,,,,,,,,,,,,,,,series,143,93,silent,new,null,1441.3258332000114,None,1441.3258332000114,None,2,1.1767456000088714,1441.3258332000114,None,1.1767456000088714,1442.5262293000123,None,1443.0269251000136,None,1443.0269251000136,None,n,0.13932580000255257,1443.0269251000136,None,0.13932580000255257,,,31Silent,001,2022_Aug_29_1220,ProdSingRedoBetween,2021.2.3,59.94574908874056,
,,,,93,0,93,0,,,,,,,,,,,,,,,,,,,,,,1445.8129134000046,None,,,,,,,,,,,,,,,,,empty,52,94,silent,old,blue,1443.7006051000208,None,1443.7006051000208,None,1,1.4898624999914318,1443.7006051000208,None,1.4898624999914318,1445.2161444000085,None,1445.7294629000244,None,1445.7294629000244,None,n,0.05291430000215769,1445.7294629000244,None,0.05291430000215769,,,31Silent,001,2022_Aug_29_1220,ProdSingRedoBetween,2021.2.3,59.94574908874056,
,,,,94,0,94,0,,,,,,,,,,,,,,,,,,,,,,1448.5823575000395,None,,,,,,,,,,,,,,,,,emergency,47,95,silent,old,blue,1446.3226135000004,None,1446.3226135000004,None,6,1.0677650999859907,1446.3226135000004,None,1.0677650999859907,1447.4158163000247,None,1447.9151340000099,None,1447.9151340000099,None,r,0.6511421999894083,1447.9151340000099,None,0.6511421999894083,,,31Silent,001,2022_Aug_29_1220,ProdSingRedoBetween,2021.2.3,59.94574908874056,
,,,,95,0,95,0,,,,,,,,,,,,,,,,,,,,,,1451.3685500000138,None,,,,,,,,,,,,,,,,,detective,130,96,silent,new,null,1449.0980505000334,None,1449.0980505000334,None,4,1.6203346999827772,1449.0980505000334,None,1.6203346999827772,1450.735321700049,None,1451.2405662999954,None,1451.2405662999954,None,r,0.10179109999444336,1451.2405662999954,None,0.10179109999444336,,,31Silent,001,2022_Aug_29_1220,ProdSingRedoBetween,2021.2.3,59.94574908874056,
,,,,96,0,96,0,,,,,,,,,,,,,,,,,,,,,,1457.609770900046,None,,,,,,,,,,,,,,,,,welcome,169,97,silent,new,null,1451.879057400045,None,1451.879057400045,None,3,1.111304400023073,1451.879057400045,None,1.111304400023073,1453.0250265000504,None,1453.5398239000351,None,1453.5398239000351,None,f,4.050554999965243,1453.5398239000351,None,4.050554999965243,,,31Silent,001,2022_Aug_29_1220,ProdSingRedoBetween,2021.2.3,59.94574908874056,
,,,,97,0,97,0,,,,,,,,,,,,,,,,,,,,,,1460.6942296000198,None,,,,,,,,,,,,,,,,,danger,53,98,silent,old,blue,1458.1286376000498,None,1458.1286376000498,None,6,1.0375776999862865,1458.1286376000498,None,1.0375776999862865,1459.195594000048,None,1459.7101793000475,None,1459.7101793000475,None,r,0.960389000014402,1459.7101793000475,None,0.960389000014402,,,31Silent,001,2022_Aug_29_1220,ProdSingRedoBetween,2021.2.3,59.94574908874056,
,,,,98,0,98,0,,,,,,,,,,,,,,,,,,,,,,1472.0558291000198,None,,,,,,,,,,,,,,,,,season,49,99,silent,old,blue,1461.2049654000439,None,1461.2049654000439,None,6,9.29733660002239,1461.2049654000439,None,9.29733660002239,1470.522228100046,None,1471.021629200026,None,1471.021629200026,None,r,1.0088133999961428,1471.021629200026,None,1.0088133999961428,,,31Silent,001,2022_Aug_29_1220,ProdSingRedoBetween,2021.2.3,59.94574908874056,
,,,,99,0,99,0,,,,,,,,,,,,,,,,,,,,,,1475.5759846,None,,,,,,,,,,,,,,,,,message,4,100,silent,old,yellow,1472.5645132000209,None,1472.5645132000209,None,4,1.1458737999782898,1472.5645132000209,None,1.1458737999782898,1473.7454175000312,None,1474.2626090000267,None,1474.2626090000267,None,f,1.2876946000033058,1474.2626090000267,None,1.2876946000033058,,,31Silent,001,2022_Aug_29_1220,ProdSingRedoBetween,2021.2.3,59.94574908874056,
,,,,100,0,100,0,,,,,,,,,,,,,,,,,,,,,,1481.8655822,None,,,,,,,,,,,,,,,,,school,21,101,silent,old,yellow,1476.094261899998,None,1476.094261899998,None,5,4.024026500002947,1476.094261899998,None,4.024026500002947,1480.1491402999964,None,1480.6652211000328,None,1480.6652211000328,None,r,1.1811505000223406,1480.6652211000328,None,1.1811505000223406,,,31Silent,001,2022_Aug_29_1220,ProdSingRedoBetween,2021.2.3,59.94574908874056,
,,,,101,0,101,0,,,,,,,,,,,,,,,,,,,,,,1484.9854412000277,None,,,,,,,,,,,,,,,,,degree,173,102,silent,new,null,1482.3690252000233,None,1482.3690252000233,None,6,1.8053247000207193,1482.3690252000233,None,1.8053247000207193,1484.205489200016,None,1484.722881600028,None,1484.722881600028,None,r,0.23535770003218204,1484.722881600028,None,0.23535770003218204,,,31Silent,001,2022_Aug_29_1220,ProdSingRedoBetween,2021.2.3,59.94574908874056,
,,,,102,0,102,0,,,,,,,,,,,,,,,,,,,,,,1487.254328800016,None,,,,,,,,,,,,,,,,,community,145,103,silent,new,null,1485.4956952000502,None,1485.4956952000502,None,6,1.19070749997627,1485.4956952000502,None,1.19070749997627,1486.706666300015,None,1487.2210366000072,None,1487.2210366000072,None,r,0.009251900017261505,1487.2210366000072,None,0.009251900017261505,,,31Silent,001,2022_Aug_29_1220,ProdSingRedoBetween,2021.2.3,59.94574908874056,
,,,,103,0,103,0,,,,,,,,,,,,,,,,,,,,,,1492.5429217000492,None,,,,,,,,,,,,,,,,,author,177,104,silent,new,null,1487.7671285000397,None,1487.7671285000397,None,2,3.791151900019031,1487.7671285000397,None,3.791151900019031,1491.5753520000144,None,1492.0759180000168,None,1492.0759180000168,None,r,0.4424310000031255,1492.0759180000168,None,0.4424310000031255,,,31Silent,001,2022_Aug_29_1220,ProdSingRedoBetween,2021.2.3,59.94574908874056,
,,,,104,0,104,0,,,,,,,,,,,,,,,,,,,,,,1499.904942699999,None,,,,,,,,,,,,,,,,,shear,88,105,silent,old,red,1493.0464867000119,None,1493.0464867000119,None,6,4.6318130000145175,1493.0464867000119,None,4.6318130000145175,1497.6993785999948,None,1498.204660300049,None,1498.204660300049,None,n,1.6738272999646142,1498.204660300049,None,1.6738272999646142,,,31Silent,001,2022_Aug_29_1220,ProdSingRedoBetween,2021.2.3,59.94574908874056,
,,,,105,0,105,0,,,,,,,,,,,,,,,,,,,,,,1507.7123872000375,None,,,,,,,,,,,,,,,,,couch,114,106,silent,new,null,1500.4247628000448,None,1500.4247628000448,None,5,6.3895147999865,1500.4247628000448,None,6.3895147999865,1506.8448453000165,None,1507.3578355000354,None,1507.3578355000354,None,r,0.32854229997610673,1507.3578355000354,None,0.32854229997610673,,,31Silent,001,2022_Aug_29_1220,ProdSingRedoBetween,2021.2.3,59.94574908874056,
,,,,106,0,106,0,,,,,,,,,,,,,,,,,,,,,,1512.4126198000158,None,,,,,,,,,,,,,,,,,payment,144,107,silent,new,null,1508.2338926999946,None,1508.2338926999946,None,4,2.036413599969819,1508.2338926999946,None,2.036413599969819,1510.3009370000218,None,1510.814832700009,None,1510.814832700009,None,n,1.567526100028772,1510.814832700009,None,1.567526100028772,,,31Silent,001,2022_Aug_29_1220,ProdSingRedoBetween,2021.2.3,59.94574908874056,
,,,,107,0,107,0,,,,,,,,,,,,,,,,,,,,,,1521.6551464000368,None,,,,,,,,,,,,,,,,,group,133,108,silent,new,null,1512.9214302000473,None,1512.9214302000473,None,3,5.1008372999494895,1512.9214302000473,None,5.1008372999494895,1518.0516899000504,None,1518.5556913000182,None,1518.5556913000182,None,f,3.082546299963724,1518.5556913000182,None,3.082546299963724,,,31Silent,001,2022_Aug_29_1220,ProdSingRedoBetween,2021.2.3,59.94574908874056,
,,,,108,0,108,0,,,,,,,,,,,,,,,,,,,,,,1529.8180849000346,None,,,,,,,,,,,,,,,,,nation,7,109,silent,old,yellow,1522.1580330000143,None,1522.1580330000143,None,6,5.576228599995375,1522.1580330000143,None,5.576228599995375,1527.766447000031,None,1528.285295700014,None,1528.285295700014,None,n,1.4968744000070728,1528.285295700014,None,1.4968744000070728,,,31Silent,001,2022_Aug_29_1220,ProdSingRedoBetween,2021.2.3,59.94574908874056,
,,,,109,0,109,0,,,,,,,,,,,,,,,,,,,,,,1532.3324270000448,None,,,,,,,,,,,,,,,,,fashion,12,110,silent,old,yellow,1530.3308165000053,None,1530.3308165000053,None,6,1.2354279000428505,1530.3308165000053,None,1.2354279000428505,1531.5843966000248,None,1532.098993200052,None,1532.098993200052,None,n,0.20330880000256002,1532.098993200052,None,0.20330880000256002,,,31Silent,001,2022_Aug_29_1220,ProdSingRedoBetween,2021.2.3,59.94574908874056,
,,,,110,0,110,0,,,,,,,,,,,,,,,,,,,,,,1536.7203553,None,,,,,,,,,,,,,,,,,problem,11,111,silent,old,yellow,1532.8362453000154,None,1532.8362453000154,None,5,2.7942422999767587,1532.8362453000154,None,2.7942422999767587,1535.66121510003,None,1536.1742092000204,None,1536.1742092000204,None,r,0.5200541000231169,1536.1742092000204,None,0.5200541000231169,,,31Silent,001,2022_Aug_29_1220,ProdSingRedoBetween,2021.2.3,59.94574908874056,
,,,,111,0,111,0,,,,,,,,,,,,,,,,,,,,,,1538.9559381,None,,,,,,,,,,,,,,,,,oxygen,107,112,silent,new,null,1537.2377059000428,None,1537.2377059000428,None,6,1.1206136000109836,1537.2377059000428,None,1.1206136000109836,1538.3894665000262,None,1538.8929175000521,None,1538.8929175000521,None,r,0.041393599996808916,1538.8929175000521,None,0.041393599996808916,,,31Silent,001,2022_Aug_29_1220,ProdSingRedoBetween,2021.2.3,59.94574908874056,
,,,,112,0,112,0,,,,,,,,,,,,,,,,,,,,,,1541.578712800052,None,,,,,,,,,,,,,,,,,quantity,38,113,silent,old,blue,1539.4575975000043,None,1539.4575975000043,None,2,1.22865839995211,1539.4575975000043,None,1.22865839995211,1540.7112417000462,None,1541.2249995000311,None,1541.2249995000311,None,n,0.32538520003436133,1541.2249995000311,None,0.32538520003436133,,,31Silent,001,2022_Aug_29_1220,ProdSingRedoBetween,2021.2.3,59.94574908874056,
,,,,113,0,113,0,,,,,,,,,,,,,,,,,,,,,,1544.6615865000058,None,,,,,,,,,,,,,,,,,position,57,114,silent,old,blue,1542.0997745000059,None,1542.0997745000059,None,6,1.1864815999870189,1542.0997745000059,None,1.1864815999870189,1543.3135448000394,None,1543.8333292000461,None,1543.8333292000461,None,f,0.8128339999821037,1543.8333292000461,None,0.8128339999821037,,,31Silent,001,2022_Aug_29_1220,ProdSingRedoBetween,2021.2.3,59.94574908874056,
,,,,114,0,114,0,,,,,,,,,,,,,,,,,,,,,,1548.5520644000499,None,,,,,,,,,,,,,,,,,question,74,115,silent,old,red,1545.1718891000492,None,1545.1718891000492,None,4,2.226453599985689,1545.1718891000492,None,2.226453599985689,1547.415601100016,None,1547.9150433000177,None,1547.9150433000177,None,f,0.6031021000235341,1547.9150433000177,None,0.6031021000235341,,,31Silent,001,2022_Aug_29_1220,ProdSingRedoBetween,2021.2.3,59.94574908874056,
,,,,115,0,115,0,,,,,,,,,,,,,,,,,,,,,,1551.5064324000268,None,,,,,,,,,,,,,,,,,height,147,116,silent,new,null,1549.0658779000514,None,1549.0658779000514,None,1,1.6203948999755085,1549.0658779000514,None,1.6203948999755085,1550.701822800038,None,1551.203633600031,None,1551.203633600031,None,n,0.2746692000073381,1551.203633600031,None,0.2746692000073381,,,31Silent,001,2022_Aug_29_1220,ProdSingRedoBetween,2021.2.3,59.94574908874056,
,,,,116,0,116,0,,,,,,,,,,,,,,,,,,,,,,1553.9375605999958,None,,,,,,,,,,,,,,,,,month,131,117,silent,new,null,1552.0254531000392,None,1552.0254531000392,None,2,1.1648677000193857,1552.0254531000392,None,1.1648677000193857,1553.2230608999962,None,1553.7375427000225,None,1553.7375427000225,None,n,0.18073080002795905,1553.7375427000225,None,0.18073080002795905,,,31Silent,001,2022_Aug_29_1220,ProdSingRedoBetween,2021.2.3,59.94574908874056,
,,,,117,0,117,0,,,,,,,,,,,,,,,,,,,,,,1556.5897675000015,None,,,,,,,,,,,,,,,,,opening,146,118,silent,new,null,1554.4570915000513,None,1554.4570915000513,None,4,1.0613262000260875,1554.4570915000513,None,1.0613262000260875,1555.5438455000403,None,1556.0582622000366,None,1556.0582622000366,None,n,0.5079657000023872,1556.0582622000366,None,0.5079657000023872,,,31Silent,001,2022_Aug_29_1220,ProdSingRedoBetween,2021.2.3,59.94574908874056,
,,,,118,0,118,0,,,,,,,,,,,,,,,,,,,,,,1566.183040300035,None,,,,,,,,,,,,,,,,,scale,132,119,silent,new,null,1557.1073865000508,None,1557.1073865000508,None,5,7.690832299995236,1557.1073865000508,None,7.690832299995236,1564.820943000028,None,1565.3364302000264,None,1565.3364302000264,None,f,0.8217793000512756,1565.3364302000264,None,0.8217793000512756,,,31Silent,001,2022_Aug_29_1220,ProdSingRedoBetween,2021.2.3,59.94574908874056,
,,,,119,0,119,0,,,,,,,,,,,,,,,,,,,,,,1568.6863601000514,None,,,,,,,,,,,,,,,,,strain,150,120,silent,new,null,1566.6937104000244,None,1566.6937104000244,None,4,1.400548700010404,1566.6937104000244,None,1.400548700010404,1568.1240127000492,None,1568.6356320000486,None,1568.6356320000486,None,f,0.01865949999773875,1568.6356320000486,None,0.01865949999773875,,,31Silent,001,2022_Aug_29_1220,ProdSingRedoBetween,2021.2.3,59.94574908874056,
,,,,120,0,120,0,,,,,,,,,,,,,,,,,,,,,,1572.2723140000016,None,,,,,,,,,,,,,,,,,council,172,121,silent,new,null,1569.19351870002,None,1569.19351870002,None,6,1.5249175999779254,1569.19351870002,None,1.5249175999779254,1570.7505535000237,None,1571.2614132000017,None,1571.2614132000017,None,f,0.9848284999607131,1571.2614132000017,None,0.9848284999607131,,,31Silent,001,2022_Aug_29_1220,ProdSingRedoBetween,2021.2.3,59.94574908874056,
,,,,121,0,121,0,,,,,,,,,,,,,,,,,,,,,,1576.393289300031,None,,,,,,,,,,,,,,,,,permit,124,122,silent,new,null,1572.7786315000267,None,1572.7786315000267,None,4,1.5236858999705873,1572.7786315000267,None,1.5236858999705873,1574.3303985000239,None,1574.8444664000417,None,1574.8444664000417,None,f,1.5298972000018694,1574.8444664000417,None,1.5298972000018694,,,31Silent,001,2022_Aug_29_1220,ProdSingRedoBetween,2021.2.3,59.94574908874056,
,,,,122,0,122,0,,,,,,,,,,,,,,,,,,,,,,1582.9665752000292,None,,,,,,,,,,,,,,,,,service,35,123,silent,old,blue,1576.9079559000093,None,1576.9079559000093,None,3,5.026254500029609,1576.9079559000093,None,5.026254500029609,1581.9732144000009,None,1582.482862200006,None,1582.482862200006,None,n,0.46737470000516623,1582.482862200006,None,0.46737470000516623,,,31Silent,001,2022_Aug_29_1220,ProdSingRedoBetween,2021.2.3,59.94574908874056,
,,,,123,0,123,0,,,,,,,,,,,,,,,,,,,,,,1585.2855076999986,None,,,,,,,,,,,,,,,,,agency,65,124,silent,old,red,1583.473038600001,None,1583.473038600001,None,2,1.2290941000101157,1583.473038600001,None,1.2290941000101157,1584.722010300029,None,1585.2384512000135,None,1585.2384512000135,None,n,0.01581150002311915,1585.2384512000135,None,0.01581150002311915,,,31Silent,001,2022_Aug_29_1220,ProdSingRedoBetween,2021.2.3,59.94574908874056,
,,,,124,0,124,0,,,,,,,,,,,,,,,,,,,,,,1590.0233119000331,None,,,,,,,,,,,,,,,,,crime,151,125,silent,new,null,1585.79378300003,None,1585.79378300003,None,6,2.948584400000982,1585.79378300003,None,2.948584400000982,1588.7785122000496,None,1589.2894933000207,None,1589.2894933000207,None,r,0.7168165000039153,1589.2894933000207,None,0.7168165000039153,,,31Silent,001,2022_Aug_29_1220,ProdSingRedoBetween,2021.2.3,59.94574908874056,
,,,,125,0,125,0,,,,,,,,,,,,,,,,,,,,,,1598.982213500014,None,,,,,,,,,,,,,,,,,balance,14,126,silent,old,yellow,1590.5354613999953,None,1590.5354613999953,None,3,6.678808299999218,1590.5354613999953,None,6.678808299999218,1597.231735700043,None,1597.737567800039,None,1597.737567800039,None,n,1.220784300006926,1597.737567800039,None,1.220784300006926,,,31Silent,001,2022_Aug_29_1220,ProdSingRedoBetween,2021.2.3,59.94574908874056,
,,,,126,0,126,0,,,,,,,,,,,,,,,,,,,,,,1607.724539500021,None,,,,,,,,,,,,,,,,,committee,87,127,silent,old,red,1599.4885601000278,None,1599.4885601000278,None,6,7.0936464999685995,1599.4885601000278,None,7.0936464999685995,1606.6077707000077,None,1607.1079307000036,None,1607.1079307000036,None,f,0.5943051999784075,1607.1079307000036,None,0.5943051999784075,,,31Silent,001,2022_Aug_29_1220,ProdSingRedoBetween,2021.2.3,59.94574908874056,
,,,,127,0,127,0,,,,,,,,,,,,,,,,,,,,,,1612.8961382000125,None,,,,,,,,,,,,,,,,,carry,153,128,silent,new,null,1608.2359615000314,None,1608.2359615000314,None,3,3.6901763000059873,1608.2359615000314,None,3.6901763000059873,1611.9461006000056,None,1612.4489502000506,None,1612.4489502000506,None,n,0.42919389996677637,1612.4489502000506,None,0.42919389996677637,,,31Silent,001,2022_Aug_29_1220,ProdSingRedoBetween,2021.2.3,59.94574908874056,
,,,,128,0,128,0,,,,,,,,,,,,,,,,,,,,,,1617.9178406000137,None,,,,,,,,,,,,,,,,,watch,120,129,silent,new,null,1613.403068500047,None,1613.403068500047,None,6,1.0110526999924332,1613.403068500047,None,1.0110526999924332,1614.4341986000072,None,1614.949158000003,None,1614.949158000003,None,r,2.9529740000143647,1614.949158000003,None,2.9529740000143647,,,31Silent,001,2022_Aug_29_1220,ProdSingRedoBetween,2021.2.3,59.94574908874056,
,,,,129,0,129,0,,,,,,,,,,,,,,,,,,,,,,1621.3547941000434,None,,,,,,,,,,,,,,,,,prime,19,130,silent,old,yellow,1618.4256416000426,None,1618.4256416000426,None,4,2.1885502000222914,1618.4256416000426,None,2.1885502000222914,1620.6386898000492,None,1621.1380247000488,None,1621.1380247000488,None,n,0.18817460001446307,1621.1380247000488,None,0.18817460001446307,,,31Silent,001,2022_Aug_29_1220,ProdSingRedoBetween,2021.2.3,59.94574908874056,
,,,,130,0,130,0,,,,,,,,,,,,,,,,,,,,,,1624.0748303,None,,,,,,,,,,,,,,,,,research,160,131,silent,new,null,1621.8573912000284,None,1621.8573912000284,None,5,1.4610464999568649,1621.8573912000284,None,1.4610464999568649,1623.347345600021,None,1623.8573491999996,None,1623.8573491999996,None,r,0.1970001999870874,1623.8573491999996,None,0.1970001999870874,,,31Silent,001,2022_Aug_29_1220,ProdSingRedoBetween,2021.2.3,59.94574908874056,
,,,,131,0,131,0,,,,,,,,,,,,,,,,,,,,,,1627.2107314000023,None,,,,,,,,,,,,,,,,,household,59,132,silent,old,yellow,1624.5788257000386,None,1624.5788257000386,None,3,1.4353475000243634,1624.5788257000386,None,1.4353475000243634,1626.043789200019,None,1626.5485870999983,None,1626.5485870999983,None,r,0.6336030999664217,1626.5485870999983,None,0.6336030999664217,,,31Silent,001,2022_Aug_29_1220,ProdSingRedoBetween,2021.2.3,59.94574908874056,
,,,,132,0,132,0,,,,,,,,,,,,,,,,,,,,,,1632.4325378000503,None,,,,,,,,,,,,,,,,,throw,83,133,silent,old,red,1627.7194608999998,None,1627.7194608999998,None,6,1.3266803000005893,1627.7194608999998,None,1.3266803000005893,1629.0637577000307,None,1629.5674727000296,None,1629.5674727000296,None,r,2.846795799967367,1629.5674727000296,None,2.846795799967367,,,31Silent,001,2022_Aug_29_1220,ProdSingRedoBetween,2021.2.3,59.94574908874056,
,,,,133,0,133,0,,,,,,,,,,,,,,,,,,,,,,1636.8703337000334,None,,,,,,,,,,,,,,,,,pressure,22,134,silent,old,yellow,1632.9403548000264,None,1632.9403548000264,None,6,3.225852599949576,1632.9403548000264,None,3.225852599949576,1636.1860820000293,None,1636.6869237000355,None,1636.6869237000355,None,r,0.16721210000105202,1636.6869237000355,None,0.16721210000105202,,,31Silent,001,2022_Aug_29_1220,ProdSingRedoBetween,2021.2.3,59.94574908874056,
,,,,134,0,134,0,,,,,,,,,,,,,,,,,,,,,,1639.906650400022,None,,,,,,,,,,,,,,,,,defeat,63,135,silent,old,red,1637.3763397000148,None,1637.3763397000148,None,6,1.3577627999475226,1637.3763397000148,None,1.3577627999475226,1638.7618307000375,None,1639.272802899999,None,1639.272802899999,None,r,0.6053674999857321,1639.272802899999,None,0.6053674999857321,,,31Silent,001,2022_Aug_29_1220,ProdSingRedoBetween,2021.2.3,59.94574908874056,
,,,,135,0,135,0,,,,,,,,,,,,,,,,,,,,,,1645.2951792000094,None,,,,,,,,,,,,,,,,,debate,17,136,silent,old,yellow,1640.4117155999993,None,1640.4117155999993,None,6,3.1144460000214167,1640.4117155999993,None,3.1144460000214167,1643.5432967000525,None,1644.0441046000342,None,1644.0441046000342,None,f,1.226202399993781,1644.0441046000342,None,1.226202399993781,,,31Silent,001,2022_Aug_29_1220,ProdSingRedoBetween,2021.2.3,59.94574908874056,
,,,,136,0,136,0,,,,,,,,,,,,,,,,,,,,,,1648.0481433999958,None,,,,,,,,,,,,,,,,,rough,117,137,silent,new,null,1645.7985904000234,None,1645.7985904000234,None,3,1.1996473000035621,1645.7985904000234,None,1.1996473000035621,1647.0170275000273,None,1647.5308507000445,None,1647.5308507000445,None,f,0.49149310000939295,1647.5308507000445,None,0.49149310000939295,,,31Silent,001,2022_Aug_29_1220,ProdSingRedoBetween,2021.2.3,59.94574908874056,
,,,,137,0,137,0,,,,,,,,,,,,,,,,,,,,,,1656.5065566000412,None,,,,,,,,,,,,,,,,,native,121,138,silent,new,null,1648.5576985000516,None,1648.5576985000516,None,4,6.376576500013471,1648.5576985000516,None,6.376576500013471,1654.957169500005,None,1655.4728015,None,1655.4728015,None,n,1.013337800046429,1655.4728015,None,1.013337800046429,,,31Silent,001,2022_Aug_29_1220,ProdSingRedoBetween,2021.2.3,59.94574908874056,
,,,,138,0,138,0,,,,,,,,,,,,,,,,,,,,,,1658.8086709000054,None,,,,,,,,,,,,,,,,,breath,50,139,silent,old,blue,1657.0101147000096,None,1657.0101147000096,None,5,1.1161227999837138,1657.0101147000096,None,1.1161227999837138,1658.1472750999965,None,1658.6606848000083,None,1658.6606848000083,None,n,0.12152440001955256,1658.6606848000083,None,0.12152440001955256,,,31Silent,001,2022_Aug_29_1220,ProdSingRedoBetween,2021.2.3,59.94574908874056,
,,,,139,0,139,0,,,,,,,,,,,,,,,,,,,,,,1661.6617196000298,None,,,,,,,,,,,,,,,,,music,158,140,silent,new,null,1659.309451100009,None,1659.309451100009,None,3,1.384757800027728,1659.309451100009,None,1.384757800027728,1660.7166827000328,None,1661.227960899996,None,1661.227960899996,None,r,0.4182085999636911,1661.227960899996,None,0.4182085999636911,,,31Silent,001,2022_Aug_29_1220,ProdSingRedoBetween,2021.2.3,59.94574908874056,
,,,,140,0,140,0,,,,,,,,,,,,,,,,,,,,,,1665.4155666000443,None,,,,,,,,,,,,,,,,,thing,80,141,silent,old,red,1662.163725899998,None,1662.163725899998,None,4,1.2345230999635532,1662.163725899998,None,1.2345230999635532,1663.418835700024,None,1663.9304811000475,None,1663.9304811000475,None,n,1.4597601999994367,1663.9304811000475,None,1.4597601999994367,,,31Silent,001,2022_Aug_29_1220,ProdSingRedoBetween,2021.2.3,59.94574908874056,
,,,,141,0,141,0,,,,,,,,,,,,,,,,,,,,,,1669.0688580000424,None,,,,,,,,,,,,,,,,,front,90,142,silent,new,null,1665.9179618000053,None,1665.9179618000053,None,5,1.568342800019309,1665.9179618000053,None,1.568342800019309,1667.5185777000152,None,1668.0182287000353,None,1668.0182287000353,None,n,1.0277990000322461,1668.0182287000353,None,1.0277990000322461,,,31Silent,001,2022_Aug_29_1220,ProdSingRedoBetween,2021.2.3,59.94574908874056,
,,,,142,0,142,0,,,,,,,,,,,,,,,,,,,,,,1675.8118917000247,None,,,,,,,,,,,,,,,,,short,20,143,silent,old,yellow,1669.5716881999979,None,1669.5716881999979,None,4,5.522364900039975,1669.5716881999979,None,5.522364900039975,1675.130407300021,None,1675.6468374000397,None,1675.6468374000397,None,n,0.13516340003116056,1675.6468374000397,None,0.13516340003116056,,,31Silent,001,2022_Aug_29_1220,ProdSingRedoBetween,2021.2.3,59.94574908874056,
,,,,143,0,143,0,,,,,,,,,,,,,,,,,,,,,,1685.0201672000112,None,,,,,,,,,,,,,,,,,union,156,144,silent,new,null,1676.3263916000142,None,1676.3263916000142,None,3,7.719815500022378,1676.3263916000142,None,7.719815500022378,1684.07195100002,None,1684.5878530000336,None,1684.5878530000336,None,n,0.40232380002271384,1684.5878530000336,None,0.40232380002271384,,,31Silent,001,2022_Aug_29_1220,ProdSingRedoBetween,2021.2.3,59.94574908874056,
,,,,144,0,144,0,,,,,,,,,,,,,,,,,,,,,,1696.9802416000166,None,,,,,,,,,,,,,,,,,range,54,145,silent,old,blue,1685.5455265000346,None,1685.5455265000346,None,3,9.732759799982887,1685.5455265000346,None,9.732759799982887,1695.3026159,None,1695.814004200045,None,1695.814004200045,None,n,1.1361453999998048,1695.814004200045,None,1.1361453999998048,,,31Silent,001,2022_Aug_29_1220,ProdSingRedoBetween,2021.2.3,59.94574908874056,
,,,,145,0,145,0,,,,,,,,,,,,,,,,,,,,,,1699.632821200008,None,,,,,,,,,,,,,,,,,passage,48,146,silent,old,blue,1697.4948795000091,None,1697.4948795000091,None,4,1.1992129000136629,1697.4948795000091,None,1.1992129000136629,1698.7165304000373,None,1699.215841200028,None,1699.215841200028,None,n,0.39019860001280904,1699.215841200028,None,0.39019860001280904,,,31Silent,001,2022_Aug_29_1220,ProdSingRedoBetween,2021.2.3,59.94574908874056,
,,,,146,0,146,0,,,,,,,,,,,,,,,,,,,,,,1702.0037564000231,None,,,,,,,,,,,,,,,,,audience,93,147,silent,new,null,1700.1400885000476,None,1700.1400885000476,None,6,1.066028700035531,1700.1400885000476,None,1.066028700035531,1701.235250800033,None,1701.7351793000125,None,1701.7351793000125,None,r,0.23896520002745092,1701.7351793000125,None,0.23896520002745092,,,31Silent,001,2022_Aug_29_1220,ProdSingRedoBetween,2021.2.3,59.94574908874056,
,,,,147,0,147,0,,,,,,,,,,,,,,,,,,,,,,1704.5878934000502,None,,,,,,,,,,,,,,,,,drove,29,148,silent,old,blue,1702.5213036000496,None,1702.5213036000496,None,3,1.2688446000101976,1702.5213036000496,None,1.2688446000101976,1703.8212769000093,None,1704.3253129000077,None,1704.3253129000077,None,n,0.23273249994963408,1704.3253129000077,None,0.23273249994963408,,,31Silent,001,2022_Aug_29_1220,ProdSingRedoBetween,2021.2.3,59.94574908874056,
,,,,148,0,148,0,,,,,,,,,,,,,,,,,,,,,,1707.9077441000263,None,,,,,,,,,,,,,,,,,notice,166,149,silent,new,null,1705.0973429000005,None,1705.0973429000005,None,3,1.5170113000203855,1705.0973429000005,None,1.5170113000203855,1706.6491218000301,None,1707.1610465000267,None,1707.1610465000267,None,n,0.7170908000553027,1707.1610465000267,None,0.7170908000553027,,,31Silent,001,2022_Aug_29_1220,ProdSingRedoBetween,2021.2.3,59.94574908874056,
,,,,149,0,149,0,,,,,,,,,,,,,,,,,,,,,,1711.5281110000215,None,,,,,,,,,,,,,,,,,profession,174,150,silent,new,null,1708.426933800045,None,1708.426933800045,None,6,1.915017399995122,1708.426933800045,None,1.915017399995122,1710.3615913999965,None,1710.8609452000237,None,1710.8609452000237,None,n,0.6491055999649689,1710.8609452000237,None,0.6491055999649689,,,31Silent,001,2022_Aug_29_1220,ProdSingRedoBetween,2021.2.3,59.94574908874056,
,,,,150,0,150,0,,,,,,,,,,,,,,,,,,,,,,1714.9665289000259,None,,,,,,,,,,,,,,,,,territory,79,151,silent,old,red,1712.036145900027,None,1712.036145900027,None,6,1.625975000031758,1712.036145900027,None,1.625975000031758,1713.6862953000236,None,1714.1976279000519,None,1714.1976279000519,None,r,0.744314800016582,1714.1976279000519,None,0.744314800016582,,,31Silent,001,2022_Aug_29_1220,ProdSingRedoBetween,2021.2.3,59.94574908874056,
,,,,151,0,151,0,,,,,,,,,,,,,,,,,,,,,,1718.9185984000214,None,,,,,,,,,,,,,,,,,background,6,152,silent,old,yellow,1715.482025400037,None,1715.482025400037,None,5,2.172184400027618,1715.482025400037,None,2.172184400027618,1717.685229099996,None,1718.1848184000119,None,1718.1848184000119,None,n,0.7173929000273347,1718.1848184000119,None,0.7173929000273347,,,31Silent,001,2022_Aug_29_1220,ProdSingRedoBetween,2021.2.3,59.94574908874056,
,,,,152,0,152,0,,,,,,,,,,,,,,,,,,,,,,1728.0622347000171,None,,,,,,,,,,,,,,,,,cousin,94,153,silent,new,null,1719.4271557000466,None,1719.4271557000466,None,3,7.306980900000781,1719.4271557000466,None,7.306980900000781,1726.7713770000264,None,1727.2771793000284,None,1727.2771793000284,None,n,0.7531600000220351,1727.2771793000284,None,0.7531600000220351,,,31Silent,001,2022_Aug_29_1220,ProdSingRedoBetween,2021.2.3,59.94574908874056,
,,,,153,0,153,0,,,,,,,,,,,,,,,,,,,,,,1732.2653521000175,None,,,,,,,,,,,,,,,,,goose,9,154,silent,old,yellow,1728.5670178,None,1728.5670178,None,6,1.359056299959775,1728.5670178,None,1.359056299959775,1729.9476361999987,None,1730.4467465000344,None,1730.4467465000344,None,f,1.7993261000374332,1730.4467465000344,None,1.7993261000374332,,,31Silent,001,2022_Aug_29_1220,ProdSingRedoBetween,2021.2.3,59.94574908874056,
,,,,154,0,154,0,,,,,,,,,,,,,,,,,,,,,,1738.137914800027,None,,,,,,,,,,,,,,,,,foundation,55,155,silent,old,blue,1732.7746530000004,None,1732.7746530000004,None,4,3.58335430000443,1732.7746530000004,None,3.58335430000443,1736.3869352000183,None,1736.8869738000212,None,1736.8869738000212,None,n,1.2230735999764875,1736.8869738000212,None,1.2230735999764875,,,31Silent,001,2022_Aug_29_1220,ProdSingRedoBetween,2021.2.3,59.94574908874056,
,,,,155,0,155,0,,,,,,,,,,,,,,,,,,,,,,1746.963293800014,None,,,,,,,,,,,,,,,,,rural,134,156,silent,new,null,1738.6425100000342,None,1738.6425100000342,None,4,6.915546500007622,1738.6425100000342,None,6.915546500007622,1745.5807310999953,None,1746.106762600015,None,1746.106762600015,None,n,0.8353277000132948,1746.106762600015,None,0.8353277000132948,,,31Silent,001,2022_Aug_29_1220,ProdSingRedoBetween,2021.2.3,59.94574908874056,
,,,,156,0,156,0,,,,,,,,,,,,,,,,,,,,,,1749.7327990000485,None,,,,,,,,,,,,,,,,,alert,111,157,silent,new,null,1747.4796245000325,None,1747.4796245000325,None,6,1.5185723999748006,1747.4796245000325,None,1.5185723999748006,1749.0200752000092,None,1749.5328529000399,None,1749.5328529000399,None,r,0.18522899999516085,1749.5328529000399,None,0.18522899999516085,,,31Silent,001,2022_Aug_29_1220,ProdSingRedoBetween,2021.2.3,59.94574908874056,
,,,,157,0,157,0,,,,,,,,,,,,,,,,,,,,,,1752.7378529999987,None,,,,,,,,,,,,,,,,,generation,34,158,silent,old,blue,1750.2409862000495,None,1750.2409862000495,None,6,1.4370647000032477,1750.2409862000495,None,1.4370647000032477,1751.7026458000182,None,1752.209879800037,None,1752.209879800037,None,r,0.508148799999617,1752.209879800037,None,0.508148799999617,,,31Silent,001,2022_Aug_29_1220,ProdSingRedoBetween,2021.2.3,59.94574908874056,
,,,,158,0,158,0,,,,,,,,,,,,,,,,,,,,,,1754.955134000047,None,,,,,,,,,,,,,,,,,worker,2,159,silent,old,yellow,1753.255432600039,None,1753.255432600039,None,6,1.030630499997642,1753.255432600039,None,1.030630499997642,1754.3139984000009,None,1754.821541100042,None,1754.821541100042,None,r,0.10442270000930876,1754.821541100042,None,0.10442270000930876,,,31Silent,001,2022_Aug_29_1220,ProdSingRedoBetween,2021.2.3,59.94574908874056,
,,,,159,0,159,0,,,,,,,,,,,,,,,,,,,,,,1757.707575700013,None,,,,,,,,,,,,,,,,,candidate,118,160,silent,new,null,1755.4617919000448,None,1755.4617919000448,None,5,1.2323420000029728,1755.4617919000448,None,1.2323420000029728,1756.7272655999986,None,1757.2405727000441,None,1757.2405727000441,None,f,0.4454699999769218,1757.2405727000441,None,0.4454699999769218,,,31Silent,001,2022_Aug_29_1220,ProdSingRedoBetween,2021.2.3,59.94574908874056,
,,,,160,0,160,0,,,,,,,,,,,,,,,,,,,,,,1760.3436086000293,None,,,,,,,,,,,,,,,,,broad,171,161,silent,new,null,1758.2082459999947,None,1758.2082459999947,None,2,1.3256930999923497,1758.2082459999947,None,1.3256930999923497,1759.5592241000268,None,1760.0620721000014,None,1760.0620721000014,None,n,0.2559772999957204,1760.0620721000014,None,0.2559772999957204,,,31Silent,001,2022_Aug_29_1220,ProdSingRedoBetween,2021.2.3,59.94574908874056,
,,,,161,0,161,0,,,,,,,,,,,,,,,,,,,,,,1763.0962845000322,None,,,,,,,,,,,,,,,,,health,122,162,silent,new,null,1760.8502025000053,None,1760.8502025000053,None,3,1.267858500010334,1760.8502025000053,None,1.267858500010334,1762.148422600003,None,1762.667207600025,None,1762.667207600025,None,n,0.41077810002025217,1762.667207600025,None,0.41077810002025217,,,31Silent,001,2022_Aug_29_1220,ProdSingRedoBetween,2021.2.3,59.94574908874056,
,,,,162,0,162,0,,,,,,,,,,,,,,,,,,,,,,1765.9991981000057,None,,,,,,,,,,,,,,,,,crowd,81,163,silent,old,red,1763.607798000041,None,1763.607798000041,None,3,1.438280800008215,1763.607798000041,None,1.438280800008215,1765.066030200047,None,1765.569475700031,None,1765.569475700031,None,n,0.4045778000145219,1765.569475700031,None,0.4045778000145219,,,31Silent,001,2022_Aug_29_1220,ProdSingRedoBetween,2021.2.3,59.94574908874056,
,,,,163,0,163,0,,,,,,,,,,,,,,,,,,,,,,1773.6566226000432,None,,,,,,,,,,,,,,,,,speech,155,164,silent,new,null,1766.5079243000364,None,1766.5079243000364,None,4,5.138171700004023,1766.5079243000364,None,5.138171700004023,1771.6787063000374,None,1772.1886616999982,None,1772.1886616999982,None,f,1.441238200000953,1772.1886616999982,None,1.441238200000953,,,31Silent,001,2022_Aug_29_1220,ProdSingRedoBetween,2021.2.3,59.94574908874056,
,,,,164,0,164,0,,,,,,,,,,,,,,,,,,,,,,1777.2324872000027,None,,,,,,,,,,,,,,,,,owner,13,165,silent,old,yellow,1774.1653366000392,None,1774.1653366000392,None,1,1.880757500010077,1774.1653366000392,None,1.880757500010077,1776.0829251999967,None,1776.5997524000122,None,1776.5997524000122,None,n,0.598209899966605,1776.5997524000122,None,0.598209899966605,,,31Silent,001,2022_Aug_29_1220,ProdSingRedoBetween,2021.2.3,59.94574908874056,
,,,,165,0,165,0,,,,,,,,,,,,,,,,,,,,,,1783.7334804999991,None,,,,,,,,,,,,,,,,,interior,157,166,silent,new,null,1777.7501076000044,None,1777.7501076000044,None,4,3.9119245000183582,1777.7501076000044,None,3.9119245000183582,1781.6813090000069,None,1782.1885066000395,None,1782.1885066000395,None,f,1.5135797000257298,1782.1885066000395,None,1.5135797000257298,,,31Silent,001,2022_Aug_29_1220,ProdSingRedoBetween,2021.2.3,59.94574908874056,
,,,,166,0,166,0,,,,,,,,,,,,,,,,,,,,,,1786.4195433999994,None,,,,,,,,,,,,,,,,,staff,58,167,silent,old,blue,1784.2441483000293,None,1784.2441483000293,None,3,1.3299372000037692,1784.2441483000293,None,1.3299372000037692,1785.6032712000306,None,1786.102711500018,None,1786.102711500018,None,n,0.2873039999976754,1786.102711500018,None,0.2873039999976754,,,31Silent,001,2022_Aug_29_1220,ProdSingRedoBetween,2021.2.3,59.94574908874056,
,,,,167,0,167,0,,,,,,,,,,,,,,,,,,,,,,1790.92405890004,None,,,,,,,,,,,,,,,,,universal,127,168,silent,new,null,1786.9220961999963,None,1786.9220961999963,None,4,1.7959650999982841,1786.9220961999963,None,1.7959650999982841,1788.7471296000294,None,1789.255734700011,None,1789.255734700011,None,n,1.6382841999875382,1789.255734700011,None,1.6382841999875382,,,31Silent,001,2022_Aug_29_1220,ProdSingRedoBetween,2021.2.3,59.94574908874056,
,,,,168,0,168,0,,,,,,,,,,,,,,,,,,,,,,1805.938834700035,None,,,,,,,,,,,,,,,,,clean,165,169,silent,new,null,1791.4260836000321,None,1791.4260836000321,None,4,12.835980299976654,1791.4260836000321,None,12.835980299976654,1804.2872905000113,None,1804.792878600012,None,1804.792878600012,None,f,1.1172560999984853,1804.792878600012,None,1.1172560999984853,,,31Silent,001,2022_Aug_29_1220,ProdSingRedoBetween,2021.2.3,59.94574908874056,
,,,,169,0,169,0,,,,,,,,,,,,,,,,,,,,,,1818.11997530004,None,,,,,,,,,,,,,,,,,machinery,86,170,silent,old,red,1806.4425226000021,None,1806.4425226000021,None,3,9.25948139996035,1806.4425226000021,None,9.25948139996035,1815.7332506999956,None,1816.238442700007,None,1816.238442700007,None,n,1.8556114000384696,1816.238442700007,None,1.8556114000384696,,,31Silent,001,2022_Aug_29_1220,ProdSingRedoBetween,2021.2.3,59.94574908874056,
,,,,170,0,170,0,,,,,,,,,,,,,,,,,,,,,,1823.2729940999998,None,,,,,,,,,,,,,,,,,store,77,171,silent,old,red,1818.646070000017,None,1818.646070000017,None,2,1.8639983999892138,1818.646070000017,None,1.8639983999892138,1820.5369730000384,None,1821.041607399995,None,1821.041607399995,None,f,2.2043517000274733,1821.041607399995,None,2.2043517000274733,,,31Silent,001,2022_Aug_29_1220,ProdSingRedoBetween,2021.2.3,59.94574908874056,
,,,,171,0,171,0,,,,,,,,,,,,,,,,,,,,,,1844.7662916000118,None,,,,,,,,,,,,,,,,,split,168,172,silent,new,null,1823.7806945000193,None,1823.7806945000193,None,4,18.77736340003321,1823.7806945000193,None,18.77736340003321,1842.5767886000103,None,1843.079836500052,None,1843.079836500052,None,n,1.6625079000368714,1843.079836500052,None,1.6625079000368714,,,31Silent,001,2022_Aug_29_1220,ProdSingRedoBetween,2021.2.3,59.94574908874056,
,,,,172,0,172,0,,,,,,,,,,,,,,,,,,,,,,1849.4823007000377,None,,,,,,,,,,,,,,,,,charter,68,173,silent,old,red,1845.2783825000515,None,1845.2783825000515,None,2,3.4875135999755003,1845.2783825000515,None,3.4875135999755003,1848.7876577000134,None,1849.2991101000225,None,1849.2991101000225,None,n,0.162722599983681,1849.2991101000225,None,0.162722599983681,,,31Silent,001,2022_Aug_29_1220,ProdSingRedoBetween,2021.2.3,59.94574908874056,
,,,,173,0,173,0,,,,,,,,,,,,,,,,,,,,,,1852.6714205000317,None,,,,,,,,,,,,,,,,,tough,67,174,silent,old,red,1849.997920599999,None,1849.997920599999,None,6,1.696266100043431,1849.997920599999,None,1.696266100043431,1851.72407940001,None,1852.2355519999983,None,1852.2355519999983,None,r,0.4027729000081308,1852.2355519999983,None,0.4027729000081308,,,31Silent,001,2022_Aug_29_1220,ProdSingRedoBetween,2021.2.3,59.94574908874056,
,,,,174,0,174,0,,,,,,,,,,,,,,,,,,,,,,1856.1559223000077,None,,,,,,,,,,,,,,,,,tragedy,31,175,silent,old,blue,1853.2003894000081,None,1853.2003894000081,None,2,2.1735892000142485,1853.2003894000081,None,2.1735892000142485,1855.406975699996,None,1855.922401500051,None,1855.922401500051,None,n,0.21156140003586188,1855.922401500051,None,0.21156140003586188,,,31Silent,001,2022_Aug_29_1220,ProdSingRedoBetween,2021.2.3,59.94574908874056,
