StudyLoop.thisRepN,StudyLoop.thisTrialN,StudyLoop.thisN,StudyLoop.thisIndex,TestLoop.thisRepN,TestLoop.thisTrialN,TestLoop.thisN,TestLoop.thisIndex,textCondition.started,textCondition.stopped,keyCondition.keys,keyCondition.rt,keyCondition.started,keyCondition.stopped,Condition,textWelcome.started,textWelcome.stopped,keyWelcome.keys,keyWelcome.rt,keyWelcome.started,keyWelcome.stopped,textAloud.started,textAloud.stopped,textSilent.started,textSilent.stopped,textSing.started,textSing.stopped,conditional_text.started,conditional_text.stopped,textBlank500.started,textBlank500.stopped,study_word,study_num,study_order,study_type,word_color,textStudy.started,textStudy.stopped,keyStudy.keys,keyStudy.started,keyStudy.stopped,textTestInstructions.started,textTestInstructions.stopped,key_resp_3.keys,key_resp_3.rt,key_resp_3.started,key_resp_3.stopped,test_word,test_num,test_order,test_condition,old_new_test,test_word_original_color,textConf.started,textConf.stopped,textConfScale.started,textConfScale.stopped,keyConf.keys,keyConf.rt,keyConf.started,keyConf.stopped,confidence response time,textTestBlank.started,textTestBlank.stopped,textRKN.started,textRKN.stopped,textRKNScale.started,textRKNScale.stopped,keyRKN.keys,keyRKN.rt,keyRKN.started,keyRKN.stopped,rkn response time,textEnd.started,textEnd.stopped,participant,session,date,expName,psychopyVersion,frameRate,
,,,,,,,,23.881534399988595,None,b,0.5022763999877498,23.881534399988595,None,,,,,,,,,,,,,,,,,,,,,,,,,,,,,,,,,,,,,,,,,,,,,,,,,,,,,,,,,,,,,,32Aloud,001,2022_Aug_29_1302,ProdSingRedoBetween,2021.2.3,59.91852278614595,
,,,,,,,,,,,,,,AloudTest,24.4242782999645,None,space,13.75941589998547,24.4242782999645,None,,,,,,,,,,,,,,,,,,,,,,,,,,,,,,,,,,,,,,,,,,,,,,,,,,,,,,,32Aloud,001,2022_Aug_29_1302,ProdSingRedoBetween,2021.2.3,59.91852278614595,
0,0,0,0,,,,,,,,,,,,,,,,,,24.4242782999645,None,24.4242782999645,None,24.4242782999645,None,24.4242782999645,None,40.71673279994866,None,bureau,43,1,aloud,blue,38.71499519998906,None,None,38.71499519998906,None,,,,,,,,,,,,,,,,,,,,,,,,,,,,,,,,,,,32Aloud,001,2022_Aug_29_1302,ProdSingRedoBetween,2021.2.3,59.91852278614595,
1,0,1,0,,,,,,,,,,,,,,,,,,,,,,,,,,43.23607709998032,None,agency,49,2,aloud,blue,41.22879309998825,None,None,41.22879309998825,None,,,,,,,,,,,,,,,,,,,,,,,,,,,,,,,,,,,32Aloud,001,2022_Aug_29_1302,ProdSingRedoBetween,2021.2.3,59.91852278614595,
2,0,2,0,,,,,,,,,,,,,,,,,,,,,,,,,,45.75537459994666,None,passage,4,3,aloud,yellow,43.74220189999323,None,None,43.74220189999323,None,,,,,,,,,,,,,,,,,,,,,,,,,,,,,,,,,,,32Aloud,001,2022_Aug_29_1302,ProdSingRedoBetween,2021.2.3,59.91852278614595,
3,0,3,0,,,,,,,,,,,,,,,,,,,,,,,,,,48.257906699960586,None,mechanical,52,4,aloud,blue,46.255632399988826,None,None,46.255632399988826,None,,,,,,,,,,,,,,,,,,,,,,,,,,,,,,,,,,,32Aloud,001,2022_Aug_29_1302,ProdSingRedoBetween,2021.2.3,59.91852278614595,
4,0,4,0,,,,,,,,,,,,,,,,,,,,,,,,,,50.77659439999843,None,brief,7,5,aloud,yellow,48.7619577999576,None,None,48.7619577999576,None,,,,,,,,,,,,,,,,,,,,,,,,,,,,,,,,,,,32Aloud,001,2022_Aug_29_1302,ProdSingRedoBetween,2021.2.3,59.91852278614595,
5,0,5,0,,,,,,,,,,,,,,,,,,,,,,,,,,53.2794934999547,None,production,24,6,aloud,yellow,51.27824999997392,None,None,51.27824999997392,None,,,,,,,,,,,,,,,,,,,,,,,,,,,,,,,,,,,32Aloud,001,2022_Aug_29_1302,ProdSingRedoBetween,2021.2.3,59.91852278614595,
6,0,6,0,,,,,,,,,,,,,,,,,,,,,,,,,,55.78195350000169,None,edition,88,7,aloud,red,53.7798401999753,None,None,53.7798401999753,None,,,,,,,,,,,,,,,,,,,,,,,,,,,,,,,,,,,32Aloud,001,2022_Aug_29_1302,ProdSingRedoBetween,2021.2.3,59.91852278614595,
7,0,7,0,,,,,,,,,,,,,,,,,,,,,,,,,,58.30114929995034,None,crisis,60,8,aloud,red,56.28722820000257,None,None,56.28722820000257,None,,,,,,,,,,,,,,,,,,,,,,,,,,,,,,,,,,,32Aloud,001,2022_Aug_29_1302,ProdSingRedoBetween,2021.2.3,59.91852278614595,
8,0,8,0,,,,,,,,,,,,,,,,,,,,,,,,,,60.80372239998542,None,general,41,9,aloud,blue,58.802605299977586,None,None,58.802605299977586,None,,,,,,,,,,,,,,,,,,,,,,,,,,,,,,,,,,,32Aloud,001,2022_Aug_29_1302,ProdSingRedoBetween,2021.2.3,59.91852278614595,
9,0,9,0,,,,,,,,,,,,,,,,,,,,,,,,,,63.30623549997108,None,rough,19,10,aloud,yellow,61.30492929997854,None,None,61.30492929997854,None,,,,,,,,,,,,,,,,,,,,,,,,,,,,,,,,,,,32Aloud,001,2022_Aug_29_1302,ProdSingRedoBetween,2021.2.3,59.91852278614595,
10,0,10,0,,,,,,,,,,,,,,,,,,,,,,,,,,65.80871929996647,None,committee,13,11,aloud,yellow,63.8092063999502,None,None,63.8092063999502,None,,,,,,,,,,,,,,,,,,,,,,,,,,,,,,,,,,,32Aloud,001,2022_Aug_29_1302,ProdSingRedoBetween,2021.2.3,59.91852278614595,
11,0,11,0,,,,,,,,,,,,,,,,,,,,,,,,,,68.31121089996304,None,stranger,71,12,aloud,red,66.31137779995333,None,None,66.31137779995333,None,,,,,,,,,,,,,,,,,,,,,,,,,,,,,,,,,,,32Aloud,001,2022_Aug_29_1302,ProdSingRedoBetween,2021.2.3,59.91852278614595,
12,0,12,0,,,,,,,,,,,,,,,,,,,,,,,,,,70.81380029994762,None,republic,46,13,aloud,blue,68.81149910000386,None,None,68.81149910000386,None,,,,,,,,,,,,,,,,,,,,,,,,,,,,,,,,,,,32Aloud,001,2022_Aug_29_1302,ProdSingRedoBetween,2021.2.3,59.91852278614595,
13,0,13,0,,,,,,,,,,,,,,,,,,,,,,,,,,73.31604259996675,None,shape,77,14,aloud,red,71.3161932999501,None,None,71.3161932999501,None,,,,,,,,,,,,,,,,,,,,,,,,,,,,,,,,,,,32Aloud,001,2022_Aug_29_1302,ProdSingRedoBetween,2021.2.3,59.91852278614595,
14,0,14,0,,,,,,,,,,,,,,,,,,,,,,,,,,75.81872639997164,None,testimony,83,15,aloud,red,73.81679559999611,None,None,73.81679559999611,None,,,,,,,,,,,,,,,,,,,,,,,,,,,,,,,,,,,32Aloud,001,2022_Aug_29_1302,ProdSingRedoBetween,2021.2.3,59.91852278614595,
15,0,15,0,,,,,,,,,,,,,,,,,,,,,,,,,,78.32117499999003,None,science,86,16,aloud,red,76.319281199947,None,None,76.319281199947,None,,,,,,,,,,,,,,,,,,,,,,,,,,,,,,,,,,,32Aloud,001,2022_Aug_29_1302,ProdSingRedoBetween,2021.2.3,59.91852278614595,
16,0,16,0,,,,,,,,,,,,,,,,,,,,,,,,,,80.82360629999312,None,election,42,17,aloud,blue,78.82462089997716,None,None,78.82462089997716,None,,,,,,,,,,,,,,,,,,,,,,,,,,,,,,,,,,,32Aloud,001,2022_Aug_29_1302,ProdSingRedoBetween,2021.2.3,59.91852278614595,
17,0,17,0,,,,,,,,,,,,,,,,,,,,,,,,,,83.32627369998954,None,listen,6,18,aloud,yellow,81.32462749996921,None,None,81.32462749996921,None,,,,,,,,,,,,,,,,,,,,,,,,,,,,,,,,,,,32Aloud,001,2022_Aug_29_1302,ProdSingRedoBetween,2021.2.3,59.91852278614595,
18,0,18,0,,,,,,,,,,,,,,,,,,,,,,,,,,85.84541650000028,None,attack,44,19,aloud,blue,83.83168989996193,None,None,83.83168989996193,None,,,,,,,,,,,,,,,,,,,,,,,,,,,,,,,,,,,32Aloud,001,2022_Aug_29_1302,ProdSingRedoBetween,2021.2.3,59.91852278614595,
19,0,19,0,,,,,,,,,,,,,,,,,,,,,,,,,,88.36459119996289,None,surface,61,20,aloud,red,86.35775229998399,None,None,86.35775229998399,None,,,,,,,,,,,,,,,,,,,,,,,,,,,,,,,,,,,32Aloud,001,2022_Aug_29_1302,ProdSingRedoBetween,2021.2.3,59.91852278614595,
20,0,20,0,,,,,,,,,,,,,,,,,,,,,,,,,,90.86714779998874,None,hunger,56,21,aloud,blue,88.86503549996996,None,None,88.86503549996996,None,,,,,,,,,,,,,,,,,,,,,,,,,,,,,,,,,,,32Aloud,001,2022_Aug_29_1302,ProdSingRedoBetween,2021.2.3,59.91852278614595,
21,0,21,0,,,,,,,,,,,,,,,,,,,,,,,,,,93.36955879995367,None,pancakes,40,22,aloud,blue,91.37005189998308,None,None,91.37005189998308,None,,,,,,,,,,,,,,,,,,,,,,,,,,,,,,,,,,,32Aloud,001,2022_Aug_29_1302,ProdSingRedoBetween,2021.2.3,59.91852278614595,
22,0,22,0,,,,,,,,,,,,,,,,,,,,,,,,,,95.88890299998457,None,budget,9,23,aloud,yellow,93.87697779998416,None,None,93.87697779998416,None,,,,,,,,,,,,,,,,,,,,,,,,,,,,,,,,,,,32Aloud,001,2022_Aug_29_1302,ProdSingRedoBetween,2021.2.3,59.91852278614595,
23,0,23,0,,,,,,,,,,,,,,,,,,,,,,,,,,98.3912875999813,None,quarter,11,24,aloud,yellow,96.39081879996229,None,None,96.39081879996229,None,,,,,,,,,,,,,,,,,,,,,,,,,,,,,,,,,,,32Aloud,001,2022_Aug_29_1302,ProdSingRedoBetween,2021.2.3,59.91852278614595,
24,0,24,0,,,,,,,,,,,,,,,,,,,,,,,,,,100.89481319999322,None,answer,63,25,aloud,red,98.892486799974,None,None,98.892486799974,None,,,,,,,,,,,,,,,,,,,,,,,,,,,,,,,,,,,32Aloud,001,2022_Aug_29_1302,ProdSingRedoBetween,2021.2.3,59.91852278614595,
25,0,25,0,,,,,,,,,,,,,,,,,,,,,,,,,,103.39624959998764,None,crime,8,26,aloud,yellow,101.39469149999786,None,None,101.39469149999786,None,,,,,,,,,,,,,,,,,,,,,,,,,,,,,,,,,,,32Aloud,001,2022_Aug_29_1302,ProdSingRedoBetween,2021.2.3,59.91852278614595,
26,0,26,0,,,,,,,,,,,,,,,,,,,,,,,,,,105.91542619996471,None,territory,78,27,aloud,red,103.90201759996125,None,None,103.90201759996125,None,,,,,,,,,,,,,,,,,,,,,,,,,,,,,,,,,,,32Aloud,001,2022_Aug_29_1302,ProdSingRedoBetween,2021.2.3,59.91852278614595,
27,0,27,0,,,,,,,,,,,,,,,,,,,,,,,,,,108.41797359997872,None,enemy,31,28,aloud,blue,106.41560509998817,None,None,106.41560509998817,None,,,,,,,,,,,,,,,,,,,,,,,,,,,,,,,,,,,32Aloud,001,2022_Aug_29_1302,ProdSingRedoBetween,2021.2.3,59.91852278614595,
28,0,28,0,,,,,,,,,,,,,,,,,,,,,,,,,,110.9371576999547,None,position,59,29,aloud,yellow,108.9219551999704,None,None,108.9219551999704,None,,,,,,,,,,,,,,,,,,,,,,,,,,,,,,,,,,,32Aloud,001,2022_Aug_29_1302,ProdSingRedoBetween,2021.2.3,59.91852278614595,
29,0,29,0,,,,,,,,,,,,,,,,,,,,,,,,,,113.43984009994892,None,agreement,47,30,aloud,blue,111.43730999995023,None,None,111.43730999995023,None,,,,,,,,,,,,,,,,,,,,,,,,,,,,,,,,,,,32Aloud,001,2022_Aug_29_1302,ProdSingRedoBetween,2021.2.3,59.91852278614595,
30,0,30,0,,,,,,,,,,,,,,,,,,,,,,,,,,115.9420867000008,None,working,22,31,aloud,yellow,113.94195279997075,None,None,113.94195279997075,None,,,,,,,,,,,,,,,,,,,,,,,,,,,,,,,,,,,32Aloud,001,2022_Aug_29_1302,ProdSingRedoBetween,2021.2.3,59.91852278614595,
31,0,31,0,,,,,,,,,,,,,,,,,,,,,,,,,,118.4445520999725,None,dispute,58,32,aloud,blue,116.44268189999275,None,None,116.44268189999275,None,,,,,,,,,,,,,,,,,,,,,,,,,,,,,,,,,,,32Aloud,001,2022_Aug_29_1302,ProdSingRedoBetween,2021.2.3,59.91852278614595,
32,0,32,0,,,,,,,,,,,,,,,,,,,,,,,,,,120.94721839996055,None,country,23,33,aloud,yellow,118.94509819999803,None,None,118.94509819999803,None,,,,,,,,,,,,,,,,,,,,,,,,,,,,,,,,,,,32Aloud,001,2022_Aug_29_1302,ProdSingRedoBetween,2021.2.3,59.91852278614595,
33,0,33,0,,,,,,,,,,,,,,,,,,,,,,,,,,123.46621969999978,None,expansion,38,34,aloud,blue,121.45225119998213,None,None,121.45225119998213,None,,,,,,,,,,,,,,,,,,,,,,,,,,,,,,,,,,,32Aloud,001,2022_Aug_29_1302,ProdSingRedoBetween,2021.2.3,59.91852278614595,
34,0,34,0,,,,,,,,,,,,,,,,,,,,,,,,,,125.98551889997907,None,conference,30,35,aloud,blue,123.97119169996586,None,None,123.97119169996586,None,,,,,,,,,,,,,,,,,,,,,,,,,,,,,,,,,,,32Aloud,001,2022_Aug_29_1302,ProdSingRedoBetween,2021.2.3,59.91852278614595,
35,0,35,0,,,,,,,,,,,,,,,,,,,,,,,,,,128.50461199996062,None,watch,87,36,aloud,red,126.48956499999622,None,None,126.48956499999622,None,,,,,,,,,,,,,,,,,,,,,,,,,,,,,,,,,,,32Aloud,001,2022_Aug_29_1302,ProdSingRedoBetween,2021.2.3,59.91852278614595,
36,0,36,0,,,,,,,,,,,,,,,,,,,,,,,,,,131.02361199998995,None,sound,48,37,aloud,blue,129.00913989997935,None,None,129.00913989997935,None,,,,,,,,,,,,,,,,,,,,,,,,,,,,,,,,,,,32Aloud,001,2022_Aug_29_1302,ProdSingRedoBetween,2021.2.3,59.91852278614595,
37,0,37,0,,,,,,,,,,,,,,,,,,,,,,,,,,133.52637149998918,None,guard,50,38,aloud,blue,131.52695430000313,None,None,131.52695430000313,None,,,,,,,,,,,,,,,,,,,,,,,,,,,,,,,,,,,32Aloud,001,2022_Aug_29_1302,ProdSingRedoBetween,2021.2.3,59.91852278614595,
38,0,38,0,,,,,,,,,,,,,,,,,,,,,,,,,,136.04511779994937,None,couch,0,39,aloud,yellow,134.0355114999693,None,None,134.0355114999693,None,,,,,,,,,,,,,,,,,,,,,,,,,,,,,,,,,,,32Aloud,001,2022_Aug_29_1302,ProdSingRedoBetween,2021.2.3,59.91852278614595,
39,0,39,0,,,,,,,,,,,,,,,,,,,,,,,,,,138.56473869999172,None,cover,76,40,aloud,red,136.55176109995227,None,None,136.55176109995227,None,,,,,,,,,,,,,,,,,,,,,,,,,,,,,,,,,,,32Aloud,001,2022_Aug_29_1302,ProdSingRedoBetween,2021.2.3,59.91852278614595,
40,0,40,0,,,,,,,,,,,,,,,,,,,,,,,,,,141.06724929995835,None,disease,36,41,aloud,blue,139.06662139995024,None,None,139.06662139995024,None,,,,,,,,,,,,,,,,,,,,,,,,,,,,,,,,,,,32Aloud,001,2022_Aug_29_1302,ProdSingRedoBetween,2021.2.3,59.91852278614595,
41,0,41,0,,,,,,,,,,,,,,,,,,,,,,,,,,143.5697266999632,None,article,55,42,aloud,blue,141.56773629999952,None,None,141.56773629999952,None,,,,,,,,,,,,,,,,,,,,,,,,,,,,,,,,,,,32Aloud,001,2022_Aug_29_1302,ProdSingRedoBetween,2021.2.3,59.91852278614595,
42,0,42,0,,,,,,,,,,,,,,,,,,,,,,,,,,146.07213529996807,None,oxygen,51,43,aloud,blue,144.07024659996387,None,None,144.07024659996387,None,,,,,,,,,,,,,,,,,,,,,,,,,,,,,,,,,,,32Aloud,001,2022_Aug_29_1302,ProdSingRedoBetween,2021.2.3,59.91852278614595,
43,0,43,0,,,,,,,,,,,,,,,,,,,,,,,,,,148.57471879996592,None,strength,35,44,aloud,blue,146.57279639999615,None,None,146.57279639999615,None,,,,,,,,,,,,,,,,,,,,,,,,,,,,,,,,,,,32Aloud,001,2022_Aug_29_1302,ProdSingRedoBetween,2021.2.3,59.91852278614595,
44,0,44,0,,,,,,,,,,,,,,,,,,,,,,,,,,151.07687089999672,None,poetry,73,45,aloud,red,149.07802259997698,None,None,149.07802259997698,None,,,,,,,,,,,,,,,,,,,,,,,,,,,,,,,,,,,32Aloud,001,2022_Aug_29_1302,ProdSingRedoBetween,2021.2.3,59.91852278614595,
45,0,45,0,,,,,,,,,,,,,,,,,,,,,,,,,,153.57976599998074,None,frank,65,46,aloud,red,151.58008169999812,None,None,151.58008169999812,None,,,,,,,,,,,,,,,,,,,,,,,,,,,,,,,,,,,32Aloud,001,2022_Aug_29_1302,ProdSingRedoBetween,2021.2.3,59.91852278614595,
46,0,46,0,,,,,,,,,,,,,,,,,,,,,,,,,,156.09893889998784,None,mankind,18,47,aloud,yellow,154.08436969999457,None,None,154.08436969999457,None,,,,,,,,,,,,,,,,,,,,,,,,,,,,,,,,,,,32Aloud,001,2022_Aug_29_1302,ProdSingRedoBetween,2021.2.3,59.91852278614595,
47,0,47,0,,,,,,,,,,,,,,,,,,,,,,,,,,158.61804969998775,None,thing,21,48,aloud,yellow,156.6088365999749,None,None,156.6088365999749,None,,,,,,,,,,,,,,,,,,,,,,,,,,,,,,,,,,,32Aloud,001,2022_Aug_29_1302,ProdSingRedoBetween,2021.2.3,59.91852278614595,
48,0,48,0,,,,,,,,,,,,,,,,,,,,,,,,,,161.12053519999608,None,under,85,49,aloud,red,159.11849809996784,None,None,159.11849809996784,None,,,,,,,,,,,,,,,,,,,,,,,,,,,,,,,,,,,32Aloud,001,2022_Aug_29_1302,ProdSingRedoBetween,2021.2.3,59.91852278614595,
49,0,49,0,,,,,,,,,,,,,,,,,,,,,,,,,,163.63970439997502,None,member,39,50,aloud,blue,161.62762980000116,None,None,161.62762980000116,None,,,,,,,,,,,,,,,,,,,,,,,,,,,,,,,,,,,32Aloud,001,2022_Aug_29_1302,ProdSingRedoBetween,2021.2.3,59.91852278614595,
50,0,50,0,,,,,,,,,,,,,,,,,,,,,,,,,,166.15877469995758,None,material,3,51,aloud,yellow,164.14360349997878,None,None,164.14360349997878,None,,,,,,,,,,,,,,,,,,,,,,,,,,,,,,,,,,,32Aloud,001,2022_Aug_29_1302,ProdSingRedoBetween,2021.2.3,59.91852278614595,
51,0,51,0,,,,,,,,,,,,,,,,,,,,,,,,,,168.66135869995924,None,produce,70,52,aloud,red,166.65908579999814,None,None,166.65908579999814,None,,,,,,,,,,,,,,,,,,,,,,,,,,,,,,,,,,,32Aloud,001,2022_Aug_29_1302,ProdSingRedoBetween,2021.2.3,59.91852278614595,
52,0,52,0,,,,,,,,,,,,,,,,,,,,,,,,,,171.16387789999135,None,marriage,25,53,aloud,yellow,169.16202829999384,None,None,169.16202829999384,None,,,,,,,,,,,,,,,,,,,,,,,,,,,,,,,,,,,32Aloud,001,2022_Aug_29_1302,ProdSingRedoBetween,2021.2.3,59.91852278614595,
53,0,53,0,,,,,,,,,,,,,,,,,,,,,,,,,,173.68293159996392,None,bucket,1,54,aloud,yellow,171.66778909997083,None,None,171.66778909997083,None,,,,,,,,,,,,,,,,,,,,,,,,,,,,,,,,,,,32Aloud,001,2022_Aug_29_1302,ProdSingRedoBetween,2021.2.3,59.91852278614595,
54,0,54,0,,,,,,,,,,,,,,,,,,,,,,,,,,176.2022856999538,None,track,84,55,aloud,red,174.1869033999974,None,None,174.1869033999974,None,,,,,,,,,,,,,,,,,,,,,,,,,,,,,,,,,,,32Aloud,001,2022_Aug_29_1302,ProdSingRedoBetween,2021.2.3,59.91852278614595,
55,0,55,0,,,,,,,,,,,,,,,,,,,,,,,,,,178.70474389998708,None,straight,81,56,aloud,red,176.70281029999023,None,None,176.70281029999023,None,,,,,,,,,,,,,,,,,,,,,,,,,,,,,,,,,,,32Aloud,001,2022_Aug_29_1302,ProdSingRedoBetween,2021.2.3,59.91852278614595,
56,0,56,0,,,,,,,,,,,,,,,,,,,,,,,,,,181.22388249996584,None,employment,72,57,aloud,red,179.20857979997527,None,None,179.20857979997527,None,,,,,,,,,,,,,,,,,,,,,,,,,,,,,,,,,,,32Aloud,001,2022_Aug_29_1302,ProdSingRedoBetween,2021.2.3,59.91852278614595,
57,0,57,0,,,,,,,,,,,,,,,,,,,,,,,,,,183.7263386999839,None,place,26,58,aloud,yellow,181.72440099995583,None,None,181.72440099995583,None,,,,,,,,,,,,,,,,,,,,,,,,,,,,,,,,,,,32Aloud,001,2022_Aug_29_1302,ProdSingRedoBetween,2021.2.3,59.91852278614595,
58,0,58,0,,,,,,,,,,,,,,,,,,,,,,,,,,186.24553329998162,None,community,12,59,aloud,yellow,184.23095060000196,None,None,184.23095060000196,None,,,,,,,,,,,,,,,,,,,,,,,,,,,,,,,,,,,32Aloud,001,2022_Aug_29_1302,ProdSingRedoBetween,2021.2.3,59.91852278614595,
59,0,59,0,,,,,,,,,,,,,,,,,,,,,,,,,,188.7648241999559,None,debate,45,60,aloud,blue,186.74997139995685,None,None,186.74997139995685,None,,,,,,,,,,,,,,,,,,,,,,,,,,,,,,,,,,,32Aloud,001,2022_Aug_29_1302,ProdSingRedoBetween,2021.2.3,59.91852278614595,
60,0,60,0,,,,,,,,,,,,,,,,,,,,,,,,,,191.26729359995807,None,rural,82,61,aloud,red,189.26522879995173,None,None,189.26522879995173,None,,,,,,,,,,,,,,,,,,,,,,,,,,,,,,,,,,,32Aloud,001,2022_Aug_29_1302,ProdSingRedoBetween,2021.2.3,59.91852278614595,
61,0,61,0,,,,,,,,,,,,,,,,,,,,,,,,,,193.76974049996352,None,appearance,16,62,aloud,yellow,191.76748409995344,None,None,191.76748409995344,None,,,,,,,,,,,,,,,,,,,,,,,,,,,,,,,,,,,32Aloud,001,2022_Aug_29_1302,ProdSingRedoBetween,2021.2.3,59.91852278614595,
62,0,62,0,,,,,,,,,,,,,,,,,,,,,,,,,,196.2889638999477,None,scene,75,63,aloud,red,194.27809719997458,None,None,194.27809719997458,None,,,,,,,,,,,,,,,,,,,,,,,,,,,,,,,,,,,32Aloud,001,2022_Aug_29_1302,ProdSingRedoBetween,2021.2.3,59.91852278614595,
63,0,63,0,,,,,,,,,,,,,,,,,,,,,,,,,,198.79138189996593,None,partner,53,64,aloud,blue,196.79050219996134,None,None,196.79050219996134,None,,,,,,,,,,,,,,,,,,,,,,,,,,,,,,,,,,,32Aloud,001,2022_Aug_29_1302,ProdSingRedoBetween,2021.2.3,59.91852278614595,
64,0,64,0,,,,,,,,,,,,,,,,,,,,,,,,,,201.29391329997452,None,scale,89,65,aloud,red,199.29198209999595,None,None,199.29198209999595,None,,,,,,,,,,,,,,,,,,,,,,,,,,,,,,,,,,,32Aloud,001,2022_Aug_29_1302,ProdSingRedoBetween,2021.2.3,59.91852278614595,
65,0,65,0,,,,,,,,,,,,,,,,,,,,,,,,,,203.81313969998155,None,order,57,66,aloud,blue,201.8037340999581,None,None,201.8037340999581,None,,,,,,,,,,,,,,,,,,,,,,,,,,,,,,,,,,,32Aloud,001,2022_Aug_29_1302,ProdSingRedoBetween,2021.2.3,59.91852278614595,
66,0,66,0,,,,,,,,,,,,,,,,,,,,,,,,,,206.31571759999497,None,close,20,67,aloud,yellow,204.31518489995506,None,None,204.31518489995506,None,,,,,,,,,,,,,,,,,,,,,,,,,,,,,,,,,,,32Aloud,001,2022_Aug_29_1302,ProdSingRedoBetween,2021.2.3,59.91852278614595,
67,0,67,0,,,,,,,,,,,,,,,,,,,,,,,,,,208.81808429997182,None,weight,79,68,aloud,red,206.81602779997047,None,None,206.81602779997047,None,,,,,,,,,,,,,,,,,,,,,,,,,,,,,,,,,,,32Aloud,001,2022_Aug_29_1302,ProdSingRedoBetween,2021.2.3,59.91852278614595,
68,0,68,0,,,,,,,,,,,,,,,,,,,,,,,,,,211.33726609998848,None,number,32,69,aloud,blue,209.3232898999704,None,None,209.3232898999704,None,,,,,,,,,,,,,,,,,,,,,,,,,,,,,,,,,,,32Aloud,001,2022_Aug_29_1302,ProdSingRedoBetween,2021.2.3,59.91852278614595,
69,0,69,0,,,,,,,,,,,,,,,,,,,,,,,,,,213.8565316000022,None,background,17,70,aloud,yellow,211.84996419999516,None,None,211.84996419999516,None,,,,,,,,,,,,,,,,,,,,,,,,,,,,,,,,,,,32Aloud,001,2022_Aug_29_1302,ProdSingRedoBetween,2021.2.3,59.91852278614595,
70,0,70,0,,,,,,,,,,,,,,,,,,,,,,,,,,216.3756532999687,None,welcome,69,71,aloud,red,214.3636902999715,None,None,214.3636902999715,None,,,,,,,,,,,,,,,,,,,,,,,,,,,,,,,,,,,32Aloud,001,2022_Aug_29_1302,ProdSingRedoBetween,2021.2.3,59.91852278614595,
71,0,71,0,,,,,,,,,,,,,,,,,,,,,,,,,,218.87815609999234,None,interview,64,72,aloud,red,216.87733829999343,None,None,216.87733829999343,None,,,,,,,,,,,,,,,,,,,,,,,,,,,,,,,,,,,32Aloud,001,2022_Aug_29_1302,ProdSingRedoBetween,2021.2.3,59.91852278614595,
72,0,72,0,,,,,,,,,,,,,,,,,,,,,,,,,,221.3807907999726,None,strain,10,73,aloud,yellow,219.380748399999,None,None,219.380748399999,None,,,,,,,,,,,,,,,,,,,,,,,,,,,,,,,,,,,32Aloud,001,2022_Aug_29_1302,ProdSingRedoBetween,2021.2.3,59.91852278614595,
73,0,73,0,,,,,,,,,,,,,,,,,,,,,,,,,,223.88299630000256,None,meeting,29,74,aloud,blue,221.88099109998439,None,None,221.88099109998439,None,,,,,,,,,,,,,,,,,,,,,,,,,,,,,,,,,,,32Aloud,001,2022_Aug_29_1302,ProdSingRedoBetween,2021.2.3,59.91852278614595,
74,0,74,0,,,,,,,,,,,,,,,,,,,,,,,,,,226.4023178999778,None,group,37,75,aloud,blue,224.39183549996233,None,None,224.39183549996233,None,,,,,,,,,,,,,,,,,,,,,,,,,,,,,,,,,,,32Aloud,001,2022_Aug_29_1302,ProdSingRedoBetween,2021.2.3,59.91852278614595,
75,0,75,0,,,,,,,,,,,,,,,,,,,,,,,,,,228.90484299999662,None,grade,68,76,aloud,red,226.9027333999984,None,None,226.9027333999984,None,,,,,,,,,,,,,,,,,,,,,,,,,,,,,,,,,,,32Aloud,001,2022_Aug_29_1302,ProdSingRedoBetween,2021.2.3,59.91852278614595,
76,0,76,0,,,,,,,,,,,,,,,,,,,,,,,,,,231.40736369998194,None,thick,14,77,aloud,yellow,229.4074281999492,None,None,229.4074281999492,None,,,,,,,,,,,,,,,,,,,,,,,,,,,,,,,,,,,32Aloud,001,2022_Aug_29_1302,ProdSingRedoBetween,2021.2.3,59.91852278614595,
77,0,77,0,,,,,,,,,,,,,,,,,,,,,,,,,,233.90981579996878,None,bright,2,78,aloud,yellow,231.90781989996321,None,None,231.90781989996321,None,,,,,,,,,,,,,,,,,,,,,,,,,,,,,,,,,,,32Aloud,001,2022_Aug_29_1302,ProdSingRedoBetween,2021.2.3,59.91852278614595,
78,0,78,0,,,,,,,,,,,,,,,,,,,,,,,,,,236.41227949998574,None,little,33,79,aloud,blue,234.41032719996292,None,None,234.41032719996292,None,,,,,,,,,,,,,,,,,,,,,,,,,,,,,,,,,,,32Aloud,001,2022_Aug_29_1302,ProdSingRedoBetween,2021.2.3,59.91852278614595,
79,0,79,0,,,,,,,,,,,,,,,,,,,,,,,,,,238.91485619999003,None,benefit,27,80,aloud,yellow,236.91281939996406,None,None,236.91281939996406,None,,,,,,,,,,,,,,,,,,,,,,,,,,,,,,,,,,,32Aloud,001,2022_Aug_29_1302,ProdSingRedoBetween,2021.2.3,59.91852278614595,
80,0,80,0,,,,,,,,,,,,,,,,,,,,,,,,,,241.43408759997692,None,heavy,74,81,aloud,red,239.42065789998742,None,None,239.42065789998742,None,,,,,,,,,,,,,,,,,,,,,,,,,,,,,,,,,,,32Aloud,001,2022_Aug_29_1302,ProdSingRedoBetween,2021.2.3,59.91852278614595,
81,0,81,0,,,,,,,,,,,,,,,,,,,,,,,,,,243.93661159998737,None,quick,5,82,aloud,yellow,241.93641399999615,None,None,241.93641399999615,None,,,,,,,,,,,,,,,,,,,,,,,,,,,,,,,,,,,32Aloud,001,2022_Aug_29_1302,ProdSingRedoBetween,2021.2.3,59.91852278614595,
82,0,82,0,,,,,,,,,,,,,,,,,,,,,,,,,,246.45569739997154,None,private,62,83,aloud,red,244.44178779999493,None,None,244.44178779999493,None,,,,,,,,,,,,,,,,,,,,,,,,,,,,,,,,,,,32Aloud,001,2022_Aug_29_1302,ProdSingRedoBetween,2021.2.3,59.91852278614595,
83,0,83,0,,,,,,,,,,,,,,,,,,,,,,,,,,248.9581548999995,None,height,66,84,aloud,red,246.9561988999485,None,None,246.9561988999485,None,,,,,,,,,,,,,,,,,,,,,,,,,,,,,,,,,,,32Aloud,001,2022_Aug_29_1302,ProdSingRedoBetween,2021.2.3,59.91852278614595,
84,0,84,0,,,,,,,,,,,,,,,,,,,,,,,,,,251.4773450999637,None,volume,67,85,aloud,red,249.46999069995945,None,None,249.46999069995945,None,,,,,,,,,,,,,,,,,,,,,,,,,,,,,,,,,,,32Aloud,001,2022_Aug_29_1302,ProdSingRedoBetween,2021.2.3,59.91852278614595,
85,0,85,0,,,,,,,,,,,,,,,,,,,,,,,,,,253.9798271000036,None,tennis,80,86,aloud,red,251.97754140000325,None,None,251.97754140000325,None,,,,,,,,,,,,,,,,,,,,,,,,,,,,,,,,,,,32Aloud,001,2022_Aug_29_1302,ProdSingRedoBetween,2021.2.3,59.91852278614595,
86,0,86,0,,,,,,,,,,,,,,,,,,,,,,,,,,256.4991489999811,None,bitter,15,87,aloud,yellow,254.48772879998432,None,None,254.48772879998432,None,,,,,,,,,,,,,,,,,,,,,,,,,,,,,,,,,,,32Aloud,001,2022_Aug_29_1302,ProdSingRedoBetween,2021.2.3,59.91852278614595,
87,0,87,0,,,,,,,,,,,,,,,,,,,,,,,,,,259.00158579996787,None,throw,34,88,aloud,blue,256.99956649995875,None,None,256.99956649995875,None,,,,,,,,,,,,,,,,,,,,,,,,,,,,,,,,,,,32Aloud,001,2022_Aug_29_1302,ProdSingRedoBetween,2021.2.3,59.91852278614595,
88,0,88,0,,,,,,,,,,,,,,,,,,,,,,,,,,261.5040683999541,None,congress,28,89,aloud,yellow,259.50208209996345,None,None,259.50208209996345,None,,,,,,,,,,,,,,,,,,,,,,,,,,,,,,,,,,,32Aloud,001,2022_Aug_29_1302,ProdSingRedoBetween,2021.2.3,59.91852278614595,
89,0,89,0,,,,,,,,,,,,,,,,,,,,,,,,,,264.0065726999892,None,goose,54,90,aloud,blue,262.0045858999947,None,None,262.0045858999947,None,,,,,,,,,,,,,,,,,,,,,,,,,,,,,,,,,,,32Aloud,001,2022_Aug_29_1302,ProdSingRedoBetween,2021.2.3,59.91852278614595,
,,,,,,,,,,,,,,,,,,,,,,,,,,,,,,,,,,,,,,,,,264.5072264999617,None,k,80.50019180000527,264.5072264999617,None,,,,,,,,,,,,,,,,,,,,,,,,,,,,,32Aloud,001,2022_Aug_29_1302,ProdSingRedoBetween,2021.2.3,59.91852278614595,
,,,,0,0,0,0,,,,,,,,,,,,,,,,,,,,,,352.96189619996585,None,,,,,,,,,,,,,,,,,agreement,47,1,aloud,old,blue,345.5546209999593,None,345.5546209999593,None,6,4.428791600046679,345.5546209999593,None,4.428791600046679,350.0104545999784,None,350.51147440000204,None,350.51147440000204,None,r,2.4318469999707304,350.51147440000204,None,2.4318469999707304,,,32Aloud,001,2022_Aug_29_1302,ProdSingRedoBetween,2021.2.3,59.91852278614595,
,,,,1,0,1,0,,,,,,,,,,,,,,,,,,,,,,363.45587119995616,None,,,,,,,,,,,,,,,,,beginning,179,2,aloud,new,null,353.47210169996833,None,353.47210169996833,None,1,7.67941060004523,353.47210169996833,None,7.67941060004523,361.17575840000063,None,361.6890380999539,None,361.6890380999539,None,n,1.7504486000398174,361.6890380999539,None,1.7504486000398174,,,32Aloud,001,2022_Aug_29_1302,ProdSingRedoBetween,2021.2.3,59.91852278614595,
,,,,2,0,2,0,,,,,,,,,,,,,,,,,,,,,,368.41070999996737,None,,,,,,,,,,,,,,,,,community,12,3,aloud,old,yellow,363.96172909997404,None,363.96172909997404,None,6,2.7417399000260048,363.96172909997404,None,2.7417399000260048,366.73136399994837,None,367.24299769999925,None,367.24299769999925,None,r,1.1404230000334792,367.24299769999925,None,1.1404230000334792,,,32Aloud,001,2022_Aug_29_1302,ProdSingRedoBetween,2021.2.3,59.91852278614595,
,,,,3,0,3,0,,,,,,,,,,,,,,,,,,,,,,373.4991797999828,None,,,,,,,,,,,,,,,,,production,24,4,aloud,old,yellow,368.9114128999645,None,368.9114128999645,None,6,2.207939699990675,368.9114128999645,None,2.207939699990675,371.1497721999767,None,371.6729067999986,None,371.6729067999986,None,r,1.798413799959235,371.6729067999986,None,1.798413799959235,,,32Aloud,001,2022_Aug_29_1302,ProdSingRedoBetween,2021.2.3,59.91852278614595,
,,,,4,0,4,0,,,,,,,,,,,,,,,,,,,,,,379.4050947999931,None,,,,,,,,,,,,,,,,,finish,156,5,aloud,new,null,373.9995132999611,None,373.9995132999611,None,3,2.879969500005245,373.9995132999611,None,2.879969500005245,376.9027265999466,None,377.40313509997213,None,377.40313509997213,None,f,1.9803117999690585,377.40313509997213,None,1.9803117999690585,,,32Aloud,001,2022_Aug_29_1302,ProdSingRedoBetween,2021.2.3,59.91852278614595,
,,,,5,0,5,0,,,,,,,,,,,,,,,,,,,,,,383.66033379995497,None,,,,,,,,,,,,,,,,,chief,108,6,aloud,new,null,379.9077236999874,None,379.9077236999874,None,1,2.3397334999754094,379.9077236999874,None,2.3397334999754094,382.2855145999929,None,382.7925751999719,None,382.7925751999719,None,n,0.8388887000037357,382.7925751999719,None,0.8388887000037357,,,32Aloud,001,2022_Aug_29_1302,ProdSingRedoBetween,2021.2.3,59.91852278614595,
,,,,6,0,6,0,,,,,,,,,,,,,,,,,,,,,,387.22954369999934,None,,,,,,,,,,,,,,,,,little,33,7,aloud,old,blue,384.1745833999594,None,384.1745833999594,None,6,2.20878200000152,384.1745833999594,None,2.20878200000152,386.41229239996755,None,386.91649569995934,None,386.91649569995934,None,r,0.29093970003305003,386.91649569995934,None,0.29093970003305003,,,32Aloud,001,2022_Aug_29_1302,ProdSingRedoBetween,2021.2.3,59.91852278614595,
,,,,7,0,7,0,,,,,,,,,,,,,,,,,,,,,,391.283398999949,None,,,,,,,,,,,,,,,,,comedy,105,8,aloud,new,null,387.7421765999752,None,387.7421765999752,None,1,1.7773732999921776,387.7421765999752,None,1.7773732999921776,389.5491414999706,None,390.04918349999934,None,390.04918349999934,None,n,1.2142020000028424,390.04918349999934,None,1.2142020000028424,,,32Aloud,001,2022_Aug_29_1302,ProdSingRedoBetween,2021.2.3,59.91852278614595,
,,,,8,0,8,0,,,,,,,,,,,,,,,,,,,,,,394.54204749997007,None,,,,,,,,,,,,,,,,,alert,161,9,aloud,new,null,391.7948785999906,None,391.7948785999906,None,1,1.556534500035923,391.7948785999906,None,1.556534500035923,393.3743908999604,None,393.8908888999722,None,393.8908888999722,None,n,0.620739699981641,393.8908888999722,None,0.620739699981641,,,32Aloud,001,2022_Aug_29_1302,ProdSingRedoBetween,2021.2.3,59.91852278614595,
,,,,9,0,9,0,,,,,,,,,,,,,,,,,,,,,,398.57414049998624,None,,,,,,,,,,,,,,,,,throw,34,10,aloud,old,blue,395.0538804999669,None,395.0538804999669,None,6,2.01754729996901,395.0538804999669,None,2.01754729996901,397.09573479997925,None,397.6067429999821,None,397.6067429999821,None,r,0.9366097000311129,397.6067429999821,None,0.9366097000311129,,,32Aloud,001,2022_Aug_29_1302,ProdSingRedoBetween,2021.2.3,59.91852278614595,
,,,,10,0,10,0,,,,,,,,,,,,,,,,,,,,,,403.3288856999716,None,,,,,,,,,,,,,,,,,whole,174,11,aloud,new,null,399.0868171000038,None,399.0868171000038,None,1,2.200599600037094,399.0868171000038,None,2.200599600037094,401.31139379995875,None,401.81068329996197,None,401.81068329996197,None,n,1.5006675000186078,401.81068329996197,None,1.5006675000186078,,,32Aloud,001,2022_Aug_29_1302,ProdSingRedoBetween,2021.2.3,59.91852278614595,
,,,,11,0,11,0,,,,,,,,,,,,,,,,,,,,,,408.50147799996193,None,,,,,,,,,,,,,,,,,institute,129,12,aloud,new,null,403.8373319999664,None,403.8373319999664,None,4,3.713908799982164,403.8373319999664,None,3.713908799982164,407.57731659995625,None,408.08374799997546,None,408.08374799997546,None,f,0.38765290001174435,408.08374799997546,None,0.38765290001174435,,,32Aloud,001,2022_Aug_29_1302,ProdSingRedoBetween,2021.2.3,59.91852278614595,
,,,,12,0,12,0,,,,,,,,,,,,,,,,,,,,,,412.0044308999786,None,,,,,,,,,,,,,,,,,cover,76,13,aloud,old,red,409.00341449998086,None,409.00341449998086,None,3,2.1799494000151753,409.00341449998086,None,2.1799494000151753,411.2065835999674,None,411.72175549995154,None,411.72175549995154,None,f,0.2537103000213392,411.72175549995154,None,0.2537103000213392,,,32Aloud,001,2022_Aug_29_1302,ProdSingRedoBetween,2021.2.3,59.91852278614595,
,,,,13,0,13,0,,,,,,,,,,,,,,,,,,,,,,417.59292839997215,None,,,,,,,,,,,,,,,,,broad,153,14,aloud,new,null,412.5076970999944,None,412.5076970999944,None,1,4.227721700037364,412.5076970999944,None,4.227721700037364,416.75997949996963,None,417.25958459998947,None,417.25958459998947,None,n,0.30778040003497154,417.25958459998947,None,0.30778040003497154,,,32Aloud,001,2022_Aug_29_1302,ProdSingRedoBetween,2021.2.3,59.91852278614595,
,,,,14,0,14,0,,,,,,,,,,,,,,,,,,,,,,420.2648945999681,None,,,,,,,,,,,,,,,,,command,170,15,aloud,new,null,418.1029870999628,None,418.1029870999628,None,1,1.352689100021962,418.1029870999628,None,1.352689100021962,419.4828895999817,None,419.9996982999728,None,419.9996982999728,None,n,0.2397245999891311,419.9996982999728,None,0.2397245999891311,,,32Aloud,001,2022_Aug_29_1302,ProdSingRedoBetween,2021.2.3,59.91852278614595,
,,,,15,0,15,0,,,,,,,,,,,,,,,,,,,,,,424.61680159997195,None,,,,,,,,,,,,,,,,,scene,75,16,aloud,old,red,420.78301099996315,None,420.78301099996315,None,6,1.7122302000061609,420.78301099996315,None,1.7122302000061609,422.52251109998906,None,423.0320970999892,None,423.0320970999892,None,r,1.559274600003846,423.0320970999892,None,1.559274600003846,,,32Aloud,001,2022_Aug_29_1302,ProdSingRedoBetween,2021.2.3,59.91852278614595,
,,,,16,0,16,0,,,,,,,,,,,,,,,,,,,,,,429.2380895999959,None,,,,,,,,,,,,,,,,,owner,139,17,aloud,new,null,425.12756559997797,None,425.12756559997797,None,3,2.8478701999993064,425.12756559997797,None,2.8478701999993064,428.01108339999337,None,428.5205715999473,None,428.5205715999473,None,f,0.6948141000466421,428.5205715999473,None,0.6948141000466421,,,32Aloud,001,2022_Aug_29_1302,ProdSingRedoBetween,2021.2.3,59.91852278614595,
,,,,17,0,17,0,,,,,,,,,,,,,,,,,,,,,,434.511538599967,None,,,,,,,,,,,,,,,,,escape,120,18,aloud,new,null,429.7518834999646,None,429.7518834999646,None,6,3.207410999981221,429.7518834999646,None,3.207410999981221,432.9760638999869,None,433.4839834999875,None,433.4839834999875,None,r,1.0034437000285834,433.4839834999875,None,1.0034437000285834,,,32Aloud,001,2022_Aug_29_1302,ProdSingRedoBetween,2021.2.3,59.91852278614595,
,,,,18,0,18,0,,,,,,,,,,,,,,,,,,,,,,437.24811449996196,None,,,,,,,,,,,,,,,,,season,106,19,aloud,new,null,435.0204559999984,None,435.0204559999984,None,6,1.3789734999882057,435.0204559999984,None,1.3789734999882057,436.4295849999762,None,436.93423319997964,None,436.93423319997964,None,r,0.28127999999560416,436.93423319997964,None,0.28127999999560416,,,32Aloud,001,2022_Aug_29_1302,ProdSingRedoBetween,2021.2.3,59.91852278614595,
,,,,19,0,19,0,,,,,,,,,,,,,,,,,,,,,,440.34923849999905,None,,,,,,,,,,,,,,,,,interior,154,20,aloud,new,null,437.77218410000205,None,437.77218410000205,None,6,1.659119300020393,437.77218410000205,None,1.659119300020393,439.4483715999522,None,439.953239399998,None,439.953239399998,None,r,0.3660424000117928,439.953239399998,None,0.3660424000117928,,,32Aloud,001,2022_Aug_29_1302,ProdSingRedoBetween,2021.2.3,59.91852278614595,
,,,,20,0,20,0,,,,,,,,,,,,,,,,,,,,,,445.62101829994936,None,,,,,,,,,,,,,,,,,debate,45,21,aloud,old,blue,440.84976679994725,None,440.84976679994725,None,6,4.005566700012423,440.84976679994725,None,4.005566700012423,444.8712980999844,None,445.37917359999847,None,445.37917359999847,None,r,0.21219370001927018,445.37917359999847,None,0.21219370001927018,,,32Aloud,001,2022_Aug_29_1302,ProdSingRedoBetween,2021.2.3,59.91852278614595,
,,,,21,0,21,0,,,,,,,,,,,,,,,,,,,,,,448.9251760999905,None,,,,,,,,,,,,,,,,,suggestion,112,22,aloud,new,null,446.130862799997,None,446.130862799997,None,3,1.9245225999620743,446.130862799997,None,1.9245225999620743,448.07802449999144,None,448.5939339000033,None,448.5939339000033,None,f,0.3015699000097811,448.5939339000033,None,0.3015699000097811,,,32Aloud,001,2022_Aug_29_1302,ProdSingRedoBetween,2021.2.3,59.91852278614595,
,,,,22,0,22,0,,,,,,,,,,,,,,,,,,,,,,452.06067379994784,None,,,,,,,,,,,,,,,,,under,85,23,aloud,old,red,449.4282382999663,None,449.4282382999663,None,3,2.0191185000003316,449.4282382999663,None,2.0191185000003316,451.4768017999595,None,451.9801941999467,None,451.9801941999467,None,f,0.05916990002151579,451.9801941999467,None,0.05916990002151579,,,32Aloud,001,2022_Aug_29_1302,ProdSingRedoBetween,2021.2.3,59.91852278614595,
,,,,23,0,23,0,,,,,,,,,,,,,,,,,,,,,,455.0638709999621,None,,,,,,,,,,,,,,,,,track,84,24,aloud,old,red,452.56324499996845,None,452.56324499996845,None,6,1.676079299999401,452.56324499996845,None,1.676079299999401,454.2643395999912,None,454.7700463999645,None,454.7700463999645,None,r,0.2772138000000268,454.7700463999645,None,0.2772138000000268,,,32Aloud,001,2022_Aug_29_1302,ProdSingRedoBetween,2021.2.3,59.91852278614595,
,,,,24,0,24,0,,,,,,,,,,,,,,,,,,,,,,459.1846511999611,None,,,,,,,,,,,,,,,,,pancakes,40,25,aloud,old,blue,455.57734319998417,None,455.57734319998417,None,6,2.710000300023239,455.57734319998417,None,2.710000300023239,458.31825109996134,None,458.82203519996256,None,458.82203519996256,None,r,0.33730389998527244,458.82203519996256,None,0.33730389998527244,,,32Aloud,001,2022_Aug_29_1302,ProdSingRedoBetween,2021.2.3,59.91852278614595,
,,,,25,0,25,0,,,,,,,,,,,,,,,,,,,,,,463.4723229999654,None,,,,,,,,,,,,,,,,,platform,136,26,aloud,new,null,459.6977736999979,None,459.6977736999979,None,2,2.901457700005267,459.6977736999979,None,2.901457700005267,462.6251756999991,None,463.13857449998613,None,463.13857449998613,None,f,0.316738500026986,463.13857449998613,None,0.316738500026986,,,32Aloud,001,2022_Aug_29_1302,ProdSingRedoBetween,2021.2.3,59.91852278614595,
,,,,26,0,26,0,,,,,,,,,,,,,,,,,,,,,,466.6252917999518,None,,,,,,,,,,,,,,,,,height,66,27,aloud,old,red,463.9746890999959,None,463.9746890999959,None,6,1.7769439999829046,463.9746890999959,None,1.7769439999829046,465.77853189996677,None,466.293792499986,None,466.293792499986,None,r,0.305563899979461,466.293792499986,None,0.305563899979461,,,32Aloud,001,2022_Aug_29_1302,ProdSingRedoBetween,2021.2.3,59.91852278614595,
,,,,27,0,27,0,,,,,,,,,,,,,,,,,,,,,,469.29788079997525,None,,,,,,,,,,,,,,,,,property,135,28,aloud,new,null,467.1317897999543,None,467.1317897999543,None,6,1.2514553000219166,467.1317897999543,None,1.2514553000219166,468.41341119998833,None,468.93113989999983,None,468.93113989999983,None,r,0.3484148000134155,468.93113989999983,None,0.3484148000134155,,,32Aloud,001,2022_Aug_29_1302,ProdSingRedoBetween,2021.2.3,59.91852278614595,
,,,,28,0,28,0,,,,,,,,,,,,,,,,,,,,,,475.5510539999814,None,,,,,,,,,,,,,,,,,quick,5,29,aloud,old,yellow,469.8221615999937,None,469.8221615999937,None,3,4.865318299969658,469.8221615999937,None,4.865318299969658,474.72049269999843,None,475.2376511999755,None,475.2376511999755,None,f,0.2898212000145577,475.2376511999755,None,0.2898212000145577,,,32Aloud,001,2022_Aug_29_1302,ProdSingRedoBetween,2021.2.3,59.91852278614595,
,,,,29,0,29,0,,,,,,,,,,,,,,,,,,,,,,478.4205906999996,None,,,,,,,,,,,,,,,,,entrance,113,30,aloud,new,null,476.0574421999627,None,476.0574421999627,None,6,1.6299505000351928,476.0574421999627,None,1.6299505000351928,477.7102171999868,None,478.2221115999855,None,478.2221115999855,None,r,0.16922179999528453,478.2221115999855,None,0.16922179999528453,,,32Aloud,001,2022_Aug_29_1302,ProdSingRedoBetween,2021.2.3,59.91852278614595,
,,,,30,0,30,0,,,,,,,,,,,,,,,,,,,,,,481.823699200002,None,,,,,,,,,,,,,,,,,fashion,171,31,aloud,new,null,478.92399669997394,None,478.92399669997394,None,4,2.1071681000175886,478.92399669997394,None,2.1071681000175886,481.0569303999655,None,481.5636709999526,None,481.5636709999526,None,f,0.24364180001430213,481.5636709999526,None,0.24364180001430213,,,32Aloud,001,2022_Aug_29_1302,ProdSingRedoBetween,2021.2.3,59.91852278614595,
,,,,31,0,31,0,,,,,,,,,,,,,,,,,,,,,,488.88091229996644,None,,,,,,,,,,,,,,,,,shape,77,32,aloud,old,red,482.3428242999944,None,482.3428242999944,None,2,5.744412700005341,482.3428242999944,None,5.744412700005341,488.1139375999919,None,488.61419199995,None,488.61419199995,None,f,0.24906090000877157,488.61419199995,None,0.24906090000877157,,,32Aloud,001,2022_Aug_29_1302,ProdSingRedoBetween,2021.2.3,59.91852278614595,
,,,,32,0,32,0,,,,,,,,,,,,,,,,,,,,,,492.55129799997667,None,,,,,,,,,,,,,,,,,number,32,33,aloud,old,blue,489.39339609997114,None,489.39339609997114,None,6,2.357750099967234,489.39339609997114,None,2.357750099967234,491.7694959999644,None,492.28457599994726,None,492.28457599994726,None,r,0.24280130001716316,492.28457599994726,None,0.24280130001716316,,,32Aloud,001,2022_Aug_29_1302,ProdSingRedoBetween,2021.2.3,59.91852278614595,
,,,,33,0,33,0,,,,,,,,,,,,,,,,,,,,,,495.87309929996263,None,,,,,,,,,,,,,,,,,member,39,34,aloud,old,blue,493.0576425999752,None,493.0576425999752,None,6,2.0855985999805853,493.0576425999752,None,2.0855985999805853,495.1710157999769,None,495.6710713999928,None,495.6710713999928,None,r,0.17637130001094192,495.6710713999928,None,0.17637130001094192,,,32Aloud,001,2022_Aug_29_1302,ProdSingRedoBetween,2021.2.3,59.91852278614595,
,,,,34,0,34,0,,,,,,,,,,,,,,,,,,,,,,499.758195399947,None,,,,,,,,,,,,,,,,,material,3,35,aloud,old,yellow,496.39216609997675,None,496.39216609997675,None,3,2.6071474999771453,496.39216609997675,None,2.6071474999771453,499.0259954999783,None,499.52506009995705,None,499.52506009995705,None,f,0.20231970003806055,499.52506009995705,None,0.20231970003806055,,,32Aloud,001,2022_Aug_29_1302,ProdSingRedoBetween,2021.2.3,59.91852278614595,
,,,,35,0,35,0,,,,,,,,,,,,,,,,,,,,,,502.61109049996594,None,,,,,,,,,,,,,,,,,marriage,25,36,aloud,old,yellow,500.2617049999535,None,500.2617049999535,None,6,1.5694757999735884,500.2617049999535,None,1.5694757999735884,501.86221229995135,None,502.377957699995,None,502.377957699995,None,r,0.2133750999928452,502.377957699995,None,0.2133750999928452,,,32Aloud,001,2022_Aug_29_1302,ProdSingRedoBetween,2021.2.3,59.91852278614595,
,,,,36,0,36,0,,,,,,,,,,,,,,,,,,,,,,505.5142802000046,None,,,,,,,,,,,,,,,,,employment,72,37,aloud,old,red,503.1149010999943,None,503.1149010999943,None,6,1.6203842000104487,503.1149010999943,None,1.6203842000104487,504.7636588999885,None,505.26919839996845,None,505.26919839996845,None,r,0.21810820000246167,505.26919839996845,None,0.21810820000246167,,,32Aloud,001,2022_Aug_29_1302,ProdSingRedoBetween,2021.2.3,59.91852278614595,
,,,,37,0,37,0,,,,,,,,,,,,,,,,,,,,,,508.2002696999698,None,,,,,,,,,,,,,,,,,shear,149,38,aloud,new,null,506.017851099954,None,506.017851099954,None,1,1.2054639999987558,506.017851099954,None,1.2054639999987558,507.25067639996996,None,507.7498840999906,None,507.7498840999906,None,n,0.4333189000026323,507.7498840999906,None,0.4333189000026323,,,32Aloud,001,2022_Aug_29_1302,ProdSingRedoBetween,2021.2.3,59.91852278614595,
,,,,38,0,38,0,,,,,,,,,,,,,,,,,,,,,,512.4878390999511,None,,,,,,,,,,,,,,,,,guest,146,39,aloud,new,null,508.70926629996393,None,508.70926629996393,None,3,3.049964900012128,508.70926629996393,None,3.049964900012128,511.7878890999709,None,512.2878669999773,None,512.2878669999773,None,f,0.18345399998361245,512.2878669999773,None,0.18345399998361245,,,32Aloud,001,2022_Aug_29_1302,ProdSingRedoBetween,2021.2.3,59.91852278614595,
,,,,39,0,39,0,,,,,,,,,,,,,,,,,,,,,,515.4241161999526,None,,,,,,,,,,,,,,,,,bitter,15,40,aloud,old,yellow,512.9969981999602,None,512.9969981999602,None,6,1.6902703000232577,512.9969981999602,None,1.6902703000232577,514.7116741999635,None,515.2256825999939,None,515.2256825999939,None,r,0.18159499997273088,515.2256825999939,None,0.18159499997273088,,,32Aloud,001,2022_Aug_29_1302,ProdSingRedoBetween,2021.2.3,59.91852278614595,
,,,,40,0,40,0,,,,,,,,,,,,,,,,,,,,,,517.9264980999869,None,,,,,,,,,,,,,,,,,plane,99,41,aloud,new,null,515.9318644999876,None,515.9318644999876,None,1,1.2754546000505798,515.9318644999876,None,1.2754546000505798,517.2301992999855,None,517.7430046999943,None,517.7430046999943,None,n,0.168157699983567,517.7430046999943,None,0.168157699983567,,,32Aloud,001,2022_Aug_29_1302,ProdSingRedoBetween,2021.2.3,59.91852278614595,
,,,,41,0,41,0,,,,,,,,,,,,,,,,,,,,,,520.2121679999982,None,,,,,,,,,,,,,,,,,school,92,42,aloud,new,null,518.4440539999632,None,518.4440539999632,None,1,1.059256499982439,518.4440539999632,None,1.059256499982439,519.5354312999989,None,520.0486080999835,None,520.0486080999835,None,n,0.1347027999581769,520.0486080999835,None,0.1347027999581769,,,32Aloud,001,2022_Aug_29_1302,ProdSingRedoBetween,2021.2.3,59.91852278614595,
,,,,42,0,42,0,,,,,,,,,,,,,,,,,,,,,,522.8495343999821,None,,,,,,,,,,,,,,,,,guard,50,43,aloud,old,blue,520.7190199999604,None,520.7190199999604,None,2,1.4161037000012584,520.7190199999604,None,1.4161037000012584,522.1660095999832,None,522.6820228999713,None,522.6820228999713,None,f,0.14127469999948516,522.6820228999713,None,0.14127469999948516,,,32Aloud,001,2022_Aug_29_1302,ProdSingRedoBetween,2021.2.3,59.91852278614595,
,,,,43,0,43,0,,,,,,,,,,,,,,,,,,,,,,525.7010989999981,None,,,,,,,,,,,,,,,,,force,168,44,aloud,new,null,523.3526754999766,None,523.3526754999766,None,1,1.6148007999872789,523.3526754999766,None,1.6148007999872789,524.9901704999502,None,525.5010175999487,None,525.5010175999487,None,n,0.17826199997216463,525.5010175999487,None,0.17826199997216463,,,32Aloud,001,2022_Aug_29_1302,ProdSingRedoBetween,2021.2.3,59.91852278614595,
,,,,44,0,44,0,,,,,,,,,,,,,,,,,,,,,,528.6045840999577,None,,,,,,,,,,,,,,,,,mankind,18,45,aloud,old,yellow,526.2041733999504,None,526.2041733999504,None,6,1.675120199972298,526.2041733999504,None,1.675120199972298,527.9062854999793,None,528.4205378999468,None,528.4205378999468,None,r,0.16290660004597157,528.4205378999468,None,0.16290660004597157,,,32Aloud,001,2022_Aug_29_1302,ProdSingRedoBetween,2021.2.3,59.91852278614595,
,,,,45,0,45,0,,,,,,,,,,,,,,,,,,,,,,531.0229916999815,None,,,,,,,,,,,,,,,,,bright,2,46,aloud,old,yellow,529.1072823999566,None,529.1072823999566,None,6,1.1720768000232056,529.1072823999566,None,1.1720768000232056,530.3119393999805,None,530.8227758999565,None,530.8227758999565,None,r,0.18444889999227598,530.8227758999565,None,0.18444889999227598,,,32Aloud,001,2022_Aug_29_1302,ProdSingRedoBetween,2021.2.3,59.91852278614595,
,,,,46,0,46,0,,,,,,,,,,,,,,,,,,,,,,534.0593563999864,None,,,,,,,,,,,,,,,,,express,160,47,aloud,new,null,531.5337484999909,None,531.5337484999909,None,3,1.8175587000441737,531.5337484999909,None,1.8175587000441737,533.3803405999788,None,533.8924883999862,None,533.8924883999862,None,f,0.14680919999955222,533.8924883999862,None,0.14680919999955222,,,32Aloud,001,2022_Aug_29_1302,ProdSingRedoBetween,2021.2.3,59.91852278614595,
,,,,47,0,47,0,,,,,,,,,,,,,,,,,,,,,,536.8954637999996,None,,,,,,,,,,,,,,,,,waste,166,48,aloud,new,null,534.5723086999496,None,534.5723086999496,None,1,1.5388677000300959,534.5723086999496,None,1.5388677000300959,536.1294503999525,None,536.6315298999543,None,536.6315298999543,None,n,0.23970739997457713,536.6315298999543,None,0.23970739997457713,,,32Aloud,001,2022_Aug_29_1302,ProdSingRedoBetween,2021.2.3,59.91852278614595,
,,,,48,0,48,0,,,,,,,,,,,,,,,,,,,,,,539.3159878999577,None,,,,,,,,,,,,,,,,,passage,4,49,aloud,old,yellow,537.4190704999492,None,537.4190704999492,None,6,1.2042088000453077,537.4190704999492,None,1.2042088000453077,538.6522944999742,None,539.1679203999811,None,539.1679203999811,None,r,0.12738320004427806,539.1679203999811,None,0.12738320004427806,,,32Aloud,001,2022_Aug_29_1302,ProdSingRedoBetween,2021.2.3,59.91852278614595,
,,,,49,0,49,0,,,,,,,,,,,,,,,,,,,,,,541.7335504999501,None,,,,,,,,,,,,,,,,,bureau,43,50,aloud,old,blue,539.8191588000045,None,539.8191588000045,None,6,1.228088200034108,539.8191588000045,None,1.228088200034108,541.0822143999976,None,541.5916693999898,None,541.5916693999898,None,r,0.11944370000855997,541.5916693999898,None,0.11944370000855997,,,32Aloud,001,2022_Aug_29_1302,ProdSingRedoBetween,2021.2.3,59.91852278614595,
,,,,50,0,50,0,,,,,,,,,,,,,,,,,,,,,,544.6036650000024,None,,,,,,,,,,,,,,,,,fellow,134,51,aloud,new,null,542.2359169999836,None,542.2359169999836,None,2,1.6753306000027806,542.2359169999836,None,1.6753306000027806,543.9367636999814,None,544.4395543999854,None,544.4395543999854,None,f,0.13572439999552444,544.4395543999854,None,0.13572439999552444,,,32Aloud,001,2022_Aug_29_1302,ProdSingRedoBetween,2021.2.3,59.91852278614595,
,,,,51,0,51,0,,,,,,,,,,,,,,,,,,,,,,547.7731734999688,None,,,,,,,,,,,,,,,,,weather,104,52,aloud,new,null,545.1072555999854,None,545.1072555999854,None,3,1.9239070999901742,545.1072555999854,None,1.9239070999901742,547.0648522999836,None,547.5729608999682,None,547.5729608999682,None,f,0.1784637999953702,547.5729608999682,None,0.1784637999953702,,,32Aloud,001,2022_Aug_29_1302,ProdSingRedoBetween,2021.2.3,59.91852278614595,
,,,,52,0,52,0,,,,,,,,,,,,,,,,,,,,,,552.4441859999788,None,,,,,,,,,,,,,,,,,error,121,53,aloud,new,null,548.280800199951,None,548.280800199951,None,1,3.5023484000121243,548.280800199951,None,3.5023484000121243,551.8101273999782,None,552.3106526999618,None,552.3106526999618,None,n,0.10451699997065589,552.3106526999618,None,0.10451699997065589,,,32Aloud,001,2022_Aug_29_1302,ProdSingRedoBetween,2021.2.3,59.91852278614595,
,,,,53,0,53,0,,,,,,,,,,,,,,,,,,,,,,555.0467635999667,None,,,,,,,,,,,,,,,,,benefit,27,54,aloud,old,yellow,552.9559074999997,None,552.9559074999997,None,6,1.4357101999921724,552.9559074999997,None,1.4357101999921724,554.4212069999776,None,554.9348500999622,None,554.9348500999622,None,r,0.08852109999861568,554.9348500999622,None,0.08852109999861568,,,32Aloud,001,2022_Aug_29_1302,ProdSingRedoBetween,2021.2.3,59.91852278614595,
,,,,54,0,54,0,,,,,,,,,,,,,,,,,,,,,,557.5161230999511,None,,,,,,,,,,,,,,,,,interview,64,55,aloud,old,red,555.5574849999975,None,555.5574849999975,None,6,1.3379713000031188,555.5574849999975,None,1.3379713000031188,556.9215605999925,None,557.4328314999584,None,557.4328314999584,None,r,0.05447889998322353,557.4328314999584,None,0.05447889998322353,,,32Aloud,001,2022_Aug_29_1302,ProdSingRedoBetween,2021.2.3,59.91852278614595,
,,,,55,0,55,0,,,,,,,,,,,,,,,,,,,,,,560.1020636999747,None,,,,,,,,,,,,,,,,,turkey,165,56,aloud,new,null,558.0264343000017,None,558.0264343000017,None,1,1.4688335999962874,558.0264343000017,None,1.4688335999962874,559.5188446999528,None,560.0186878999812,None,560.0186878999812,None,n,0.05252999998629093,560.0186878999812,None,0.05252999998629093,,,32Aloud,001,2022_Aug_29_1302,ProdSingRedoBetween,2021.2.3,59.91852278614595,
,,,,56,0,56,0,,,,,,,,,,,,,,,,,,,,,,562.8399463999667,None,,,,,,,,,,,,,,,,,stranger,71,57,aloud,old,red,560.6229970999993,None,560.6229970999993,None,6,1.5041561999823898,560.6229970999993,None,1.5041561999823898,562.1569586999831,None,562.6775491999579,None,562.6775491999579,None,r,0.13789299997733906,562.6775491999579,None,0.13789299997733906,,,32Aloud,001,2022_Aug_29_1302,ProdSingRedoBetween,2021.2.3,59.91852278614595,
,,,,57,0,57,0,,,,,,,,,,,,,,,,,,,,,,567.6596331999754,None,,,,,,,,,,,,,,,,,heavy,74,58,aloud,old,red,563.3578862999566,None,563.3578862999566,None,3,3.6892183999880217,563.3578862999566,None,3.6892183999880217,567.0766815999523,None,567.5774204999907,None,567.5774204999907,None,f,0.06190329999662936,567.5774204999907,None,0.06190329999662936,,,32Aloud,001,2022_Aug_29_1302,ProdSingRedoBetween,2021.2.3,59.91852278614595,
,,,,58,0,58,0,,,,,,,,,,,,,,,,,,,,,,572.6979909999645,None,,,,,,,,,,,,,,,,,display,150,59,aloud,new,null,568.1664069999824,None,568.1664069999824,None,3,3.8570844000205398,568.1664069999824,None,3.8570844000205398,572.06420969998,None,572.5651306999498,None,572.5651306999498,None,f,0.1141786000225693,572.5651306999498,None,0.1141786000225693,,,32Aloud,001,2022_Aug_29_1302,ProdSingRedoBetween,2021.2.3,59.91852278614595,
,,,,59,0,59,0,,,,,,,,,,,,,,,,,,,,,,575.2505606999621,None,,,,,,,,,,,,,,,,,dispute,58,60,aloud,old,blue,573.2071682999958,None,573.2071682999958,None,6,1.3200418999767862,573.2071682999958,None,1.3200418999767862,574.5522318999865,None,575.0685412999592,None,575.0685412999592,None,r,0.15467049996368587,575.0685412999592,None,0.15467049996368587,,,32Aloud,001,2022_Aug_29_1302,ProdSingRedoBetween,2021.2.3,59.91852278614595,
,,,,60,0,60,0,,,,,,,,,,,,,,,,,,,,,,577.7696765000001,None,,,,,,,,,,,,,,,,,vision,130,61,aloud,new,null,575.7554940999835,None,575.7554940999835,None,3,1.3876289000036195,575.7554940999835,None,1.3876289000036195,577.1689715999528,None,577.6778175999643,None,577.6778175999643,None,f,0.07334319996880367,577.6778175999643,None,0.07334319996880367,,,32Aloud,001,2022_Aug_29_1302,ProdSingRedoBetween,2021.2.3,59.91852278614595,
,,,,61,0,61,0,,,,,,,,,,,,,,,,,,,,,,581.2899174999911,None,,,,,,,,,,,,,,,,,agency,49,62,aloud,old,blue,578.2730804999592,None,578.2730804999592,None,6,1.7181629999540746,578.2730804999592,None,1.7181629999540746,580.0227321999846,None,580.5225945999846,None,580.5225945999846,None,r,0.7405770000186749,580.5225945999846,None,0.7405770000186749,,,32Aloud,001,2022_Aug_29_1302,ProdSingRedoBetween,2021.2.3,59.91852278614595,
,,,,62,0,62,0,,,,,,,,,,,,,,,,,,,,,,585.8277628999786,None,,,,,,,,,,,,,,,,,budget,9,63,aloud,old,yellow,581.8074326999485,None,581.8074326999485,None,6,3.2480193999945186,581.8074326999485,None,3.2480193999945186,585.0838016999769,None,585.5968708999571,None,585.5968708999571,None,r,0.2023485000245273,585.5968708999571,None,0.2023485000245273,,,32Aloud,001,2022_Aug_29_1302,ProdSingRedoBetween,2021.2.3,59.91852278614595,
,,,,63,0,63,0,,,,,,,,,,,,,,,,,,,,,,588.6470343999681,None,,,,,,,,,,,,,,,,,device,127,64,aloud,new,null,586.3375292999553,None,586.3375292999553,None,1,1.5416774999466725,586.3375292999553,None,1.5416774999466725,587.9003070999752,None,588.4134628999745,None,588.4134628999745,None,n,0.20979370002169162,588.4134628999745,None,0.20979370002169162,,,32Aloud,001,2022_Aug_29_1302,ProdSingRedoBetween,2021.2.3,59.91852278614595,
,,,,64,0,64,0,,,,,,,,,,,,,,,,,,,,,,591.5167863999959,None,,,,,,,,,,,,,,,,,science,86,65,aloud,old,red,589.1671078999643,None,589.1671078999643,None,6,1.59998880000785,589.1671078999643,None,1.59998880000785,590.7853312999941,None,591.303327200003,None,591.303327200003,None,r,0.1918976999586448,591.303327200003,None,0.1918976999586448,,,32Aloud,001,2022_Aug_29_1302,ProdSingRedoBetween,2021.2.3,59.91852278614595,
,,,,65,0,65,0,,,,,,,,,,,,,,,,,,,,,,594.8534228999633,None,,,,,,,,,,,,,,,,,group,37,66,aloud,old,blue,592.0272600000026,None,592.0272600000026,None,6,2.1161392999929376,592.0272600000026,None,2.1161392999929376,594.173055399966,None,594.6885113999597,None,594.6885113999597,None,r,0.14272489998256788,594.6885113999597,None,0.14272489998256788,,,32Aloud,001,2022_Aug_29_1302,ProdSingRedoBetween,2021.2.3,59.91852278614595,
,,,,66,0,66,0,,,,,,,,,,,,,,,,,,,,,,597.241129299975,None,,,,,,,,,,,,,,,,,straight,81,67,aloud,old,red,595.3720658999518,None,595.3720658999518,None,6,1.2111822000006214,595.3720658999518,None,1.2111822000006214,596.6095973000047,None,597.1257958999486,None,597.1257958999486,None,r,0.0974798999959603,597.1257958999486,None,0.0974798999959603,,,32Aloud,001,2022_Aug_29_1302,ProdSingRedoBetween,2021.2.3,59.91852278614595,
,,,,67,0,67,0,,,,,,,,,,,,,,,,,,,,,,602.5796482999576,None,,,,,,,,,,,,,,,,,search,164,68,aloud,new,null,597.7644499999587,None,597.7644499999587,None,2,4.114959699974861,597.7644499999587,None,4.114959699974861,601.9187342999503,None,602.4348661999684,None,602.4348661999684,None,n,0.11647749994881451,602.4348661999684,None,0.11647749994881451,,,32Aloud,001,2022_Aug_29_1302,ProdSingRedoBetween,2021.2.3,59.91852278614595,
,,,,68,0,68,0,,,,,,,,,,,,,,,,,,,,,,611.1530528999865,None,,,,,,,,,,,,,,,,,article,55,69,aloud,old,blue,603.09514759999,None,603.09514759999,None,6,7.248114300018642,603.09514759999,None,7.248114300018642,610.3743695999729,None,610.8862086999579,None,610.8862086999579,None,r,0.24893239996163175,610.8862086999579,None,0.24893239996163175,,,32Aloud,001,2022_Aug_29_1302,ProdSingRedoBetween,2021.2.3,59.91852278614595,
,,,,69,0,69,0,,,,,,,,,,,,,,,,,,,,,,615.8949697999633,None,,,,,,,,,,,,,,,,,attack,44,70,aloud,old,blue,611.6629215999856,None,611.6629215999856,None,6,3.512231200002134,611.6629215999856,None,3.512231200002134,615.2002677999553,None,615.718252199993,None,615.718252199993,None,r,0.1449698000214994,615.718252199993,None,0.1449698000214994,,,32Aloud,001,2022_Aug_29_1302,ProdSingRedoBetween,2021.2.3,59.91852278614595,
,,,,70,0,70,0,,,,,,,,,,,,,,,,,,,,,,618.8988276000018,None,,,,,,,,,,,,,,,,,problem,102,71,aloud,new,null,616.4108522000024,None,616.4108522000024,None,3,1.7482987000257708,616.4108522000024,None,1.7482987000257708,618.1800534999929,None,618.6979795999941,None,618.6979795999941,None,f,0.17328730004373938,618.6979795999941,None,0.17328730004373938,,,32Aloud,001,2022_Aug_29_1302,ProdSingRedoBetween,2021.2.3,59.91852278614595,
,,,,71,0,71,0,,,,,,,,,,,,,,,,,,,,,,621.9807993999566,None,,,,,,,,,,,,,,,,,quarter,11,72,aloud,old,yellow,619.4230849999585,None,619.4230849999585,None,6,1.8160806000232697,619.4230849999585,None,1.8160806000232697,621.267376499949,None,621.7804463999928,None,621.7804463999928,None,r,0.17079020000528544,621.7804463999928,None,0.17079020000528544,,,32Aloud,001,2022_Aug_29_1302,ProdSingRedoBetween,2021.2.3,59.91852278614595,
,,,,72,0,72,0,,,,,,,,,,,,,,,,,,,,,,626.6852411999716,None,,,,,,,,,,,,,,,,,surface,61,73,aloud,old,red,622.4909755999688,None,622.4909755999688,None,6,3.5081844000378624,622.4909755999688,None,3.5081844000378624,626.0189187999931,None,626.5227133999579,None,626.5227133999579,None,r,0.1324157000053674,626.5227133999579,None,0.1324157000053674,,,32Aloud,001,2022_Aug_29_1302,ProdSingRedoBetween,2021.2.3,59.91852278614595,
,,,,73,0,73,0,,,,,,,,,,,,,,,,,,,,,,629.5380079000024,None,,,,,,,,,,,,,,,,,testimony,83,74,aloud,old,red,627.1991509999498,None,627.1991509999498,None,6,1.623997499991674,627.1991509999498,None,1.623997499991674,628.8611400999944,None,629.3719030999928,None,629.3719030999928,None,r,0.13922670000465587,629.3719030999928,None,0.13922670000465587,,,32Aloud,001,2022_Aug_29_1302,ProdSingRedoBetween,2021.2.3,59.91852278614595,
,,,,74,0,74,0,,,,,,,,,,,,,,,,,,,,,,632.542007699958,None,,,,,,,,,,,,,,,,,place,26,75,aloud,old,yellow,630.0477029999602,None,630.0477029999602,None,6,1.8555047999834642,630.0477029999602,None,1.8555047999834642,631.9305155999609,None,632.4433988999808,None,632.4433988999808,None,r,0.07579790003364906,632.4433988999808,None,0.07579790003364906,,,32Aloud,001,2022_Aug_29_1302,ProdSingRedoBetween,2021.2.3,59.91852278614595,
,,,,75,0,75,0,,,,,,,,,,,,,,,,,,,,,,635.8941717999987,None,,,,,,,,,,,,,,,,,growth,178,76,aloud,new,null,633.0447836999665,None,633.0447836999665,None,4,2.1224062999826856,633.0447836999665,None,2.1224062999826856,635.1992601999664,None,635.7107585999765,None,635.7107585999765,None,f,0.1605864000157453,635.7107585999765,None,0.1605864000157453,,,32Aloud,001,2022_Aug_29_1302,ProdSingRedoBetween,2021.2.3,59.91852278614595,
,,,,76,0,76,0,,,,,,,,,,,,,,,,,,,,,,638.713832199981,None,,,,,,,,,,,,,,,,,revolution,126,77,aloud,new,null,636.4023230999592,None,636.4023230999592,None,1,1.6848743000300601,636.4023230999592,None,1.6848743000300601,638.1184679999715,None,638.6305938999867,None,638.6305938999867,None,n,0.05652729998109862,638.6305938999867,None,0.05652729998109862,,,32Aloud,001,2022_Aug_29_1302,ProdSingRedoBetween,2021.2.3,59.91852278614595,
,,,,77,0,77,0,,,,,,,,,,,,,,,,,,,,,,641.4165615999955,None,,,,,,,,,,,,,,,,,welcome,69,78,aloud,old,red,639.2142455999856,None,639.2142455999856,None,6,1.5371744000003673,639.2142455999856,None,1.5371744000003673,640.7961243999889,None,641.2998345999513,None,641.2998345999513,None,r,0.09134560002712533,641.2998345999513,None,0.09134560002712533,,,32Aloud,001,2022_Aug_29_1302,ProdSingRedoBetween,2021.2.3,59.91852278614595,
,,,,78,0,78,0,,,,,,,,,,,,,,,,,,,,,,645.1369287999696,None,,,,,,,,,,,,,,,,,grade,68,79,aloud,old,red,641.9168763999478,None,641.9168763999478,None,2,2.5865215999656357,641.9168763999478,None,2.5865215999656357,644.520654699998,None,645.0228154999786,None,645.0228154999786,None,f,0.0963200000114739,645.0228154999786,None,0.0963200000114739,,,32Aloud,001,2022_Aug_29_1302,ProdSingRedoBetween,2021.2.3,59.91852278614595,
,,,,79,0,79,0,,,,,,,,,,,,,,,,,,,,,,650.8791611999623,None,,,,,,,,,,,,,,,,,generation,176,80,aloud,new,null,645.6372392999474,None,645.6372392999474,None,5,4.498071700043511,645.6372392999474,None,4.498071700043511,650.1642469999497,None,650.6759701999836,None,650.6759701999836,None,f,0.17937159998109564,650.6759701999836,None,0.17937159998109564,,,32Aloud,001,2022_Aug_29_1302,ProdSingRedoBetween,2021.2.3,59.91852278614595,
,,,,80,0,80,0,,,,,,,,,,,,,,,,,,,,,,654.2148841999588,None,,,,,,,,,,,,,,,,,produce,70,81,aloud,old,red,651.395979199966,None,651.395979199966,None,6,2.2193046999746002,651.395979199966,None,2.2193046999746002,653.6485209999955,None,654.1750391999958,None,654.1750391999958,None,r,0.00838900002418086,654.1750391999958,None,0.00838900002418086,,,32Aloud,001,2022_Aug_29_1302,ProdSingRedoBetween,2021.2.3,59.91852278614595,
,,,,81,0,81,0,,,,,,,,,,,,,,,,,,,,,,657.4329772999627,None,,,,,,,,,,,,,,,,,listen,6,82,aloud,old,yellow,654.7405822000001,None,654.7405822000001,None,4,2.0986249999841675,654.7405822000001,None,2.0986249999841675,656.8722079999861,None,657.3869602999766,None,657.3869602999766,None,f,0.012225200014654547,657.3869602999766,None,0.012225200014654547,,,32Aloud,001,2022_Aug_29_1302,ProdSingRedoBetween,2021.2.3,59.91852278614595,
,,,,82,0,82,0,,,,,,,,,,,,,,,,,,,,,,660.8693141999538,None,,,,,,,,,,,,,,,,,tennis,80,83,aloud,old,red,657.9499683000031,None,657.9499683000031,None,1,2.2653643999947235,657.9499683000031,None,2.2653643999947235,660.2423612999846,None,660.7572944999556,None,660.7572944999556,None,n,0.0898466000217013,660.7572944999556,None,0.0898466000217013,,,32Aloud,001,2022_Aug_29_1302,ProdSingRedoBetween,2021.2.3,59.91852278614595,
,,,,83,0,83,0,,,,,,,,,,,,,,,,,,,,,,663.9890623999527,None,,,,,,,,,,,,,,,,,conference,30,84,aloud,old,blue,661.3806081999792,None,661.3806081999792,None,6,2.034754400025122,661.3806081999792,None,2.034754400025122,663.448743099987,None,663.9577615999733,None,663.9577615999733,None,r,0.009335000009741634,663.9577615999733,None,0.009335000009741634,,,32Aloud,001,2022_Aug_29_1302,ProdSingRedoBetween,2021.2.3,59.91852278614595,
,,,,84,0,84,0,,,,,,,,,,,,,,,,,,,,,,667.2588688999531,None,,,,,,,,,,,,,,,,,pressure,96,85,aloud,new,null,664.4982118999469,None,664.4982118999469,None,4,2.156933600024786,664.4982118999469,None,2.156933600024786,666.6777358999825,None,667.1921955999569,None,667.1921955999569,None,f,0.04696720000356436,667.1921955999569,None,0.04696720000356436,,,32Aloud,001,2022_Aug_29_1302,ProdSingRedoBetween,2021.2.3,59.91852278614595,
,,,,85,0,85,0,,,,,,,,,,,,,,,,,,,,,,671.2959720999934,None,,,,,,,,,,,,,,,,,bucket,1,86,aloud,old,yellow,667.7595834999811,None,667.7595834999811,None,4,2.9514937000349164,667.7595834999811,None,2.9514937000349164,670.7296086999704,None,671.2297732000006,None,671.2297732000006,None,f,0.0413029000046663,671.2297732000006,None,0.0413029000046663,,,32Aloud,001,2022_Aug_29_1302,ProdSingRedoBetween,2021.2.3,59.91852278614595,
,,,,86,0,86,0,,,,,,,,,,,,,,,,,,,,,,675.8507037999807,None,,,,,,,,,,,,,,,,,broke,90,87,aloud,new,null,671.8015646999702,None,671.8015646999702,None,5,3.429948900011368,671.8015646999702,None,3.429948900011368,675.2534398999996,None,675.7674091999652,None,675.7674091999652,None,f,0.05571620003320277,675.7674091999652,None,0.05571620003320277,,,32Aloud,001,2022_Aug_29_1302,ProdSingRedoBetween,2021.2.3,59.91852278614595,
,,,,87,0,87,0,,,,,,,,,,,,,,,,,,,,,,681.1393369999714,None,,,,,,,,,,,,,,,,,empty,109,88,aloud,new,null,676.3577525999863,None,676.3577525999863,None,3,4.153447000018787,676.3577525999863,None,4.153447000018787,680.5483502999996,None,681.0562277999707,None,681.0562277999707,None,f,0.05499709997093305,681.0562277999707,None,0.05499709997093305,,,32Aloud,001,2022_Aug_29_1302,ProdSingRedoBetween,2021.2.3,59.91852278614595,
,,,,88,0,88,0,,,,,,,,,,,,,,,,,,,,,,683.6587563999929,None,,,,,,,,,,,,,,,,,fight,173,89,aloud,new,null,681.6443096000003,None,681.6443096000003,None,6,1.4188319999957457,681.6443096000003,None,1.4188319999957457,683.0924902999541,None,683.5985919999657,None,683.5985919999657,None,r,0.04054369998630136,683.5985919999657,None,0.04054369998630136,,,32Aloud,001,2022_Aug_29_1302,ProdSingRedoBetween,2021.2.3,59.91852278614595,
,,,,89,0,89,0,,,,,,,,,,,,,,,,,,,,,,686.1609842999605,None,,,,,,,,,,,,,,,,,goose,54,90,aloud,old,blue,684.1686291999649,None,684.1686291999649,None,6,1.4384899999713525,684.1686291999649,None,1.4384899999713525,685.6285399000044,None,686.1277320999652,None,686.1277320999652,None,r,0.015391999972052872,686.1277320999652,None,0.015391999972052872,,,32Aloud,001,2022_Aug_29_1302,ProdSingRedoBetween,2021.2.3,59.91852278614595,
,,,,90,0,90,0,,,,,,,,,,,,,,,,,,,,,,689.4811906999676,None,,,,,,,,,,,,,,,,,public,159,91,aloud,new,null,686.6731589999981,None,686.6731589999981,None,6,1.390174100000877,686.6731589999981,None,1.390174100000877,688.0794883999624,None,688.5849803999881,None,688.5849803999881,None,r,0.8781488999957219,688.5849803999881,None,0.8781488999957219,,,32Aloud,001,2022_Aug_29_1302,ProdSingRedoBetween,2021.2.3,59.91852278614595,
,,,,91,0,91,0,,,,,,,,,,,,,,,,,,,,,,696.2757433999795,None,,,,,,,,,,,,,,,,,executive,117,92,aloud,new,null,689.9857338999864,None,689.9857338999864,None,4,5.245440100028645,689.9857338999864,None,5.245440100028645,695.2613103999756,None,695.7708757999935,None,695.7708757999935,None,f,0.484337100002449,695.7708757999935,None,0.484337100002449,,,32Aloud,001,2022_Aug_29_1302,ProdSingRedoBetween,2021.2.3,59.91852278614595,
,,,,92,0,92,0,,,,,,,,,,,,,,,,,,,,,,698.8090610999498,None,,,,,,,,,,,,,,,,,thing,21,93,aloud,old,yellow,696.7882885999861,None,696.7882885999861,None,6,1.3549993999768049,696.7882885999861,None,1.3549993999768049,698.1783004999743,None,698.6933535999851,None,698.6933535999851,None,r,0.08978590002516285,698.6933535999851,None,0.08978590002516285,,,32Aloud,001,2022_Aug_29_1302,ProdSingRedoBetween,2021.2.3,59.91852278614595,
,,,,93,0,93,0,,,,,,,,,,,,,,,,,,,,,,702.344008199987,None,,,,,,,,,,,,,,,,,pretty,124,94,aloud,new,null,699.3264157999656,None,699.3264157999656,None,5,2.2566934999777004,699.3264157999656,None,2.2566934999777004,701.6143031999818,None,702.1269393999828,None,702.1269393999828,None,f,0.20004009996773675,702.1269393999828,None,0.20004009996773675,,,32Aloud,001,2022_Aug_29_1302,ProdSingRedoBetween,2021.2.3,59.91852278614595,
,,,,94,0,94,0,,,,,,,,,,,,,,,,,,,,,,705.8658514999552,None,,,,,,,,,,,,,,,,,education,116,95,aloud,new,null,702.8505048999796,None,702.8505048999796,None,6,2.180543199996464,702.8505048999796,None,2.180543199996464,705.0473860999919,None,705.553144299949,None,705.553144299949,None,r,0.28592319996096194,705.553144299949,None,0.28592319996096194,,,32Aloud,001,2022_Aug_29_1302,ProdSingRedoBetween,2021.2.3,59.91852278614595,
,,,,95,0,95,0,,,,,,,,,,,,,,,,,,,,,,709.304062399955,None,,,,,,,,,,,,,,,,,weight,79,96,aloud,old,red,706.388865099987,None,706.388865099987,None,6,2.066247000009753,706.388865099987,None,2.066247000009753,708.4843996999552,None,708.9884171999875,None,708.9884171999875,None,r,0.2829047000268474,708.9884171999875,None,0.2829047000268474,,,32Aloud,001,2022_Aug_29_1302,ProdSingRedoBetween,2021.2.3,59.91852278614595,
,,,,96,0,96,0,,,,,,,,,,,,,,,,,,,,,,712.654289499973,None,,,,,,,,,,,,,,,,,concern,128,97,aloud,new,null,709.8305991999805,None,709.8305991999805,None,6,1.968569699965883,709.8305991999805,None,1.968569699965883,711.8244596999721,None,712.337686999992,None,712.337686999992,None,r,0.29359189997194335,712.337686999992,None,0.29359189997194335,,,32Aloud,001,2022_Aug_29_1302,ProdSingRedoBetween,2021.2.3,59.91852278614595,
,,,,97,0,97,0,,,,,,,,,,,,,,,,,,,,,,715.6906529999687,None,,,,,,,,,,,,,,,,,defeat,111,98,aloud,new,null,713.1577278999612,None,713.1577278999612,None,4,1.7373251999961212,713.1577278999612,None,1.7373251999961212,714.923959399981,None,715.4337423999677,None,715.4337423999677,None,f,0.23734739999054,715.4337423999677,None,0.23734739999054,,,32Aloud,001,2022_Aug_29_1302,ProdSingRedoBetween,2021.2.3,59.91852278614595,
,,,,98,0,98,0,,,,,,,,,,,,,,,,,,,,,,719.3943638999481,None,,,,,,,,,,,,,,,,,edition,88,99,aloud,old,red,716.2034817999811,None,716.2034817999811,None,5,2.363672800012864,716.2034817999811,None,2.363672800012864,718.6006163999555,None,719.1110506999539,None,719.1110506999539,None,f,0.2639859999762848,719.1110506999539,None,0.2639859999762848,,,32Aloud,001,2022_Aug_29_1302,ProdSingRedoBetween,2021.2.3,59.91852278614595,
,,,,99,0,99,0,,,,,,,,,,,,,,,,,,,,,,722.6141416999744,None,,,,,,,,,,,,,,,,,course,148,100,aloud,new,null,719.9036393999704,None,719.9036393999704,None,4,1.9273776999907568,719.9036393999704,None,1.9273776999907568,721.8476438999642,None,722.3471872999799,None,722.3471872999799,None,f,0.24396059999708086,722.3471872999799,None,0.24396059999708086,,,32Aloud,001,2022_Aug_29_1302,ProdSingRedoBetween,2021.2.3,59.91852278614595,
,,,,100,0,100,0,,,,,,,,,,,,,,,,,,,,,,726.8183372999774,None,,,,,,,,,,,,,,,,,working,22,101,aloud,old,yellow,723.120742500003,None,723.120742500003,None,1,2.926338199991733,723.120742500003,None,2.926338199991733,726.0690555999754,None,726.5850590999471,None,726.5850590999471,None,n,0.20590609998907894,726.5850590999471,None,0.20590609998907894,,,32Aloud,001,2022_Aug_29_1302,ProdSingRedoBetween,2021.2.3,59.91852278614595,
,,,,101,0,101,0,,,,,,,,,,,,,,,,,,,,,,729.1374036999769,None,,,,,,,,,,,,,,,,,range,114,102,aloud,new,null,727.3377165999846,None,727.3377165999846,None,1,1.0774557999684475,727.3377165999846,None,1.0774557999684475,728.4443819999578,None,728.9564418999944,None,728.9564418999944,None,n,0.15468729997519404,728.9564418999944,None,0.15468729997519404,,,32Aloud,001,2022_Aug_29_1302,ProdSingRedoBetween,2021.2.3,59.91852278614595,
,,,,102,0,102,0,,,,,,,,,,,,,,,,,,,,,,731.759051400004,None,,,,,,,,,,,,,,,,,background,17,103,aloud,old,yellow,729.6410854999558,None,729.6410854999558,None,6,1.3899945000302978,729.6410854999558,None,1.3899945000302978,731.0571114999475,None,731.5565556999645,None,731.5565556999645,None,r,0.17040310002630576,731.5565556999645,None,0.17040310002630576,,,32Aloud,001,2022_Aug_29_1302,ProdSingRedoBetween,2021.2.3,59.91852278614595,
,,,,103,0,103,0,,,,,,,,,,,,,,,,,,,,,,735.4270321999793,None,,,,,,,,,,,,,,,,,appearance,16,104,aloud,old,yellow,732.2738826999557,None,732.2738826999557,None,2,1.9891018000198528,732.2738826999557,None,1.9891018000198528,734.2992364999955,None,734.8097246999969,None,734.8097246999969,None,f,0.5973484999849461,734.8097246999969,None,0.5973484999849461,,,32Aloud,001,2022_Aug_29_1302,ProdSingRedoBetween,2021.2.3,59.91852278614595,
,,,,104,0,104,0,,,,,,,,,,,,,,,,,,,,,,738.6969662999618,None,,,,,,,,,,,,,,,,,scale,89,105,aloud,old,red,735.9379850999685,None,735.9379850999685,None,6,1.9491307999705896,735.9379850999685,None,1.9491307999705896,737.9185836999677,None,738.4301852999488,None,738.4301852999488,None,r,0.24883900000713766,738.4301852999488,None,0.24883900000713766,,,32Aloud,001,2022_Aug_29_1302,ProdSingRedoBetween,2021.2.3,59.91852278614595,
,,,,105,0,105,0,,,,,,,,,,,,,,,,,,,,,,741.6165342999739,None,,,,,,,,,,,,,,,,,country,23,106,aloud,old,yellow,739.205138499965,None,739.205138499965,None,6,1.602185100025963,739.205138499965,None,1.602185100025963,740.8379480000003,None,741.3539907999802,None,741.3539907999802,None,r,0.23706810001749545,741.3539907999802,None,0.23706810001749545,,,32Aloud,001,2022_Aug_29_1302,ProdSingRedoBetween,2021.2.3,59.91852278614595,
,,,,106,0,106,0,,,,,,,,,,,,,,,,,,,,,,744.2191744999727,None,,,,,,,,,,,,,,,,,principal,163,107,aloud,new,null,742.1357798999525,None,742.1357798999525,None,1,1.3832248999970034,742.1357798999525,None,1.3832248999970034,743.5363990999758,None,744.0509566999972,None,744.0509566999972,None,n,0.14809920004336163,744.0509566999972,None,0.14809920004336163,,,32Aloud,001,2022_Aug_29_1302,ProdSingRedoBetween,2021.2.3,59.91852278614595,
,,,,107,0,107,0,,,,,,,,,,,,,,,,,,,,,,746.6297446999815,None,,,,,,,,,,,,,,,,,dream,172,108,aloud,new,null,744.7238544999855,None,744.7238544999855,None,1,1.0832032000180334,744.7238544999855,None,1.0832032000180334,745.8414625999867,None,746.3567229000037,None,746.3567229000037,None,n,0.2426219999906607,746.3567229000037,None,0.2426219999906607,,,32Aloud,001,2022_Aug_29_1302,ProdSingRedoBetween,2021.2.3,59.91852278614595,
,,,,108,0,108,0,,,,,,,,,,,,,,,,,,,,,,751.909992299974,None,,,,,,,,,,,,,,,,,committee,13,109,aloud,old,yellow,747.1454102999996,None,747.1454102999996,None,6,3.30164550000336,747.1454102999996,None,3.30164550000336,750.4760986999609,None,750.9763220999739,None,750.9763220999739,None,r,0.9027823000214994,750.9763220999739,None,0.9027823000214994,,,32Aloud,001,2022_Aug_29_1302,ProdSingRedoBetween,2021.2.3,59.91852278614595,
,,,,109,0,109,0,,,,,,,,,,,,,,,,,,,,,,757.1159592999611,None,,,,,,,,,,,,,,,,,stand,152,110,aloud,new,null,752.4177328999504,None,752.4177328999504,None,5,4.013313100032974,752.4177328999504,None,4.013313100032974,756.4537596000009,None,756.9653806999559,None,756.9653806999559,None,f,0.12972460000310093,756.9653806999559,None,0.12972460000310093,,,32Aloud,001,2022_Aug_29_1302,ProdSingRedoBetween,2021.2.3,59.91852278614595,
,,,,110,0,110,0,,,,,,,,,,,,,,,,,,,,,,760.1353774999734,None,,,,,,,,,,,,,,,,,order,57,111,aloud,old,blue,757.6219358999515,None,757.6219358999515,None,4,1.8413552000420168,757.6219358999515,None,1.8413552000420168,759.4852849000017,None,759.985016199993,None,759.985016199993,None,f,0.13406350003788248,759.985016199993,None,0.13406350003788248,,,32Aloud,001,2022_Aug_29_1302,ProdSingRedoBetween,2021.2.3,59.91852278614595,
,,,,111,0,111,0,,,,,,,,,,,,,,,,,,,,,,762.4539025999838,None,,,,,,,,,,,,,,,,,brief,7,112,aloud,old,yellow,760.6448058999958,None,760.6448058999958,None,4,1.21810999995796,760.6448058999958,None,1.21810999995796,761.8922758999979,None,762.4039884999511,None,762.4039884999511,None,f,0.027067799994256347,762.4039884999511,None,0.027067799994256347,,,32Aloud,001,2022_Aug_29_1302,ProdSingRedoBetween,2021.2.3,59.91852278614595,
,,,,112,0,112,0,,,,,,,,,,,,,,,,,,,,,,766.1768097999739,None,,,,,,,,,,,,,,,,,captain,157,113,aloud,new,null,762.9640791999991,None,762.9640791999991,None,2,2.371020500024315,762.9640791999991,None,2.371020500024315,765.3631380999577,None,765.8853826999548,None,765.8853826999548,None,f,0.2577166000264697,765.8853826999548,None,0.2577166000264697,,,32Aloud,001,2022_Aug_29_1302,ProdSingRedoBetween,2021.2.3,59.91852278614595,
,,,,113,0,113,0,,,,,,,,,,,,,,,,,,,,,,772.1538918999722,None,,,,,,,,,,,,,,,,,republic,46,114,aloud,old,blue,766.7022096999572,None,766.7022096999572,None,2,4.768832600035239,766.7022096999572,None,4.768832600035239,771.497278099996,None,772.0021533999825,None,772.0021533999825,None,f,0.12516940000932664,772.0021533999825,None,0.12516940000932664,,,32Aloud,001,2022_Aug_29_1302,ProdSingRedoBetween,2021.2.3,59.91852278614595,
,,,,114,0,114,0,,,,,,,,,,,,,,,,,,,,,,777.1685236999765,None,,,,,,,,,,,,,,,,,partner,53,115,aloud,old,blue,772.6703620000044,None,772.6703620000044,None,3,3.4645710000186227,772.6703620000044,None,3.4645710000186227,776.1521592999925,None,776.6567385999952,None,776.6567385999952,None,f,0.4863331000087783,776.6567385999952,None,0.4863331000087783,,,32Aloud,001,2022_Aug_29_1302,ProdSingRedoBetween,2021.2.3,59.91852278614595,
,,,,115,0,115,0,,,,,,,,,,,,,,,,,,,,,,779.7917259999667,None,,,,,,,,,,,,,,,,,piece,162,116,aloud,new,null,777.6759113000007,None,777.6759113000007,None,3,1.3153821000014432,777.6759113000007,None,1.3153821000014432,779.028512799996,None,779.540776699956,None,779.540776699956,None,f,0.21845380001468584,779.540776699956,None,0.21845380001468584,,,32Aloud,001,2022_Aug_29_1302,ProdSingRedoBetween,2021.2.3,59.91852278614595,
,,,,116,0,116,0,,,,,,,,,,,,,,,,,,,,,,783.75841879996,None,,,,,,,,,,,,,,,,,portion,143,117,aloud,new,null,780.315896599961,None,780.315896599961,None,4,2.8271251000114717,780.315896599961,None,2.8271251000114717,783.1775461999932,None,783.6918103999924,None,783.6918103999924,None,f,0.043235199991613626,783.6918103999924,None,0.043235199991613626,,,32Aloud,001,2022_Aug_29_1302,ProdSingRedoBetween,2021.2.3,59.91852278614595,
,,,,117,0,117,0,,,,,,,,,,,,,,,,,,,,,,786.7115627999883,None,,,,,,,,,,,,,,,,,pattern,132,118,aloud,new,null,784.270383599971,None,784.270383599971,None,6,1.680687099986244,784.270383599971,None,1.680687099986244,785.9828166999505,None,786.4978169999667,None,786.4978169999667,None,r,0.18926250003278255,786.4978169999667,None,0.18926250003278255,,,32Aloud,001,2022_Aug_29_1302,ProdSingRedoBetween,2021.2.3,59.91852278614595,
,,,,118,0,118,0,,,,,,,,,,,,,,,,,,,,,,790.7518598999595,None,,,,,,,,,,,,,,,,,still,167,119,aloud,new,null,787.2221709999721,None,787.2221709999721,None,3,2.8248714999645017,787.2221709999721,None,2.8248714999645017,790.0736951999716,None,790.5895020999596,None,790.5895020999596,None,f,0.12963300000410527,790.5895020999596,None,0.12963300000410527,,,32Aloud,001,2022_Aug_29_1302,ProdSingRedoBetween,2021.2.3,59.91852278614595,
,,,,119,0,119,0,,,,,,,,,,,,,,,,,,,,,,796.8421065000002,None,,,,,,,,,,,,,,,,,poetry,73,120,aloud,old,red,791.2741114999517,None,791.2741114999517,None,3,4.95690479996847,791.2741114999517,None,4.95690479996847,796.2562175999628,None,796.7718431999674,None,796.7718431999674,None,f,0.035334100015461445,796.7718431999674,None,0.035334100015461445,,,32Aloud,001,2022_Aug_29_1302,ProdSingRedoBetween,2021.2.3,59.91852278614595,
,,,,120,0,120,0,,,,,,,,,,,,,,,,,,,,,,799.3925616999622,None,,,,,,,,,,,,,,,,,voice,140,121,aloud,new,null,797.3670313999755,None,797.3670313999755,None,6,1.471928300044965,797.3670313999755,None,1.471928300044965,798.8578821999836,None,799.3621366999578,None,799.3621366999578,None,r,0.013439100002869964,799.3621366999578,None,0.013439100002869964,,,32Aloud,001,2022_Aug_29_1302,ProdSingRedoBetween,2021.2.3,59.91852278614595,
,,,,121,0,121,0,,,,,,,,,,,,,,,,,,,,,,801.8961754000047,None,,,,,,,,,,,,,,,,,build,118,122,aloud,new,null,799.9219900000026,None,799.9219900000026,None,4,1.332999899983406,799.9219900000026,None,1.332999899983406,801.2798280999996,None,801.7951507999678,None,801.7951507999678,None,f,0.07612489996245131,801.7951507999678,None,0.07612489996245131,,,32Aloud,001,2022_Aug_29_1302,ProdSingRedoBetween,2021.2.3,59.91852278614595,
,,,,122,0,122,0,,,,,,,,,,,,,,,,,,,,,,807.5185750999954,None,,,,,,,,,,,,,,,,,minute,138,123,aloud,new,null,802.4203232,None,802.4203232,None,3,4.018601800024044,802.4203232,None,4.018601800024044,806.4664367999649,None,806.9846211999538,None,806.9846211999538,None,f,0.5104611000278965,806.9846211999538,None,0.5104611000278965,,,32Aloud,001,2022_Aug_29_1302,ProdSingRedoBetween,2021.2.3,59.91852278614595,
,,,,123,0,123,0,,,,,,,,,,,,,,,,,,,,,,812.6041208999814,None,,,,,,,,,,,,,,,,,sound,48,124,aloud,old,blue,808.0333195999847,None,808.0333195999847,None,3,3.789747599978,808.0333195999847,None,3.789747599978,811.8540665999753,None,812.3539099999471,None,812.3539099999471,None,f,0.22115319996373728,812.3539099999471,None,0.22115319996373728,,,32Aloud,001,2022_Aug_29_1302,ProdSingRedoBetween,2021.2.3,59.91852278614595,
,,,,124,0,124,0,,,,,,,,,,,,,,,,,,,,,,815.4400789999636,None,,,,,,,,,,,,,,,,,crisis,60,125,aloud,old,red,813.1123308999813,None,813.1123308999813,None,6,1.6067271999781951,813.1123308999813,None,1.6067271999781951,814.7444420999964,None,815.2681042999611,None,815.2681042999611,None,r,0.1469789000111632,815.2681042999611,None,0.1469789000111632,,,32Aloud,001,2022_Aug_29_1302,ProdSingRedoBetween,2021.2.3,59.91852278614595,
,,,,125,0,125,0,,,,,,,,,,,,,,,,,,,,,,818.1761457999819,None,,,,,,,,,,,,,,,,,collection,122,126,aloud,new,null,815.9494250999996,None,815.9494250999996,None,6,1.5136419999762438,815.9494250999996,None,1.5136419999762438,817.4964468999533,None,818.0120098999469,None,818.0120098999469,None,r,0.14694429998053238,818.0120098999469,None,0.14694429998053238,,,32Aloud,001,2022_Aug_29_1302,ProdSingRedoBetween,2021.2.3,59.91852278614595,
,,,,126,0,126,0,,,,,,,,,,,,,,,,,,,,,,820.5284540999564,None,,,,,,,,,,,,,,,,,atmosphere,169,127,aloud,new,null,818.6940257999813,None,818.6940257999813,None,1,1.224934600002598,818.6940257999813,None,1.224934600002598,819.9459845999954,None,820.4476417999831,None,820.4476417999831,None,n,0.06329750001896173,820.4476417999831,None,0.06329750001896173,,,32Aloud,001,2022_Aug_29_1302,ProdSingRedoBetween,2021.2.3,59.91852278614595,
,,,,127,0,127,0,,,,,,,,,,,,,,,,,,,,,,823.0643021999858,None,,,,,,,,,,,,,,,,,commercial,100,128,aloud,new,null,821.040293500002,None,821.040293500002,None,6,1.4466292999568395,821.040293500002,None,1.4466292999568395,822.5152903999551,None,823.0172456,None,823.0172456,None,r,0.02184170001419261,823.0172456,None,0.02184170001419261,,,32Aloud,001,2022_Aug_29_1302,ProdSingRedoBetween,2021.2.3,59.91852278614595,
,,,,128,0,128,0,,,,,,,,,,,,,,,,,,,,,,826.9429577999981,None,,,,,,,,,,,,,,,,,region,115,129,aloud,new,null,823.5738251999719,None,823.5738251999719,None,5,2.657335800002329,823.5738251999719,None,2.657335800002329,826.2557751999702,None,826.7690732000046,None,826.7690732000046,None,f,0.14193639997392893,826.7690732000046,None,0.14193639997392893,,,32Aloud,001,2022_Aug_29_1302,ProdSingRedoBetween,2021.2.3,59.91852278614595,
,,,,129,0,129,0,,,,,,,,,,,,,,,,,,,,,,830.538614399964,None,,,,,,,,,,,,,,,,,frank,65,130,aloud,old,red,827.4620648999698,None,827.4620648999698,None,4,2.400916100014001,827.4620648999698,None,2.400916100014001,829.8916811999516,None,830.412768899987,None,830.412768899987,None,f,0.09838529996341094,830.412768899987,None,0.09838529996341094,,,32Aloud,001,2022_Aug_29_1302,ProdSingRedoBetween,2021.2.3,59.91852278614595,
,,,,130,0,130,0,,,,,,,,,,,,,,,,,,,,,,833.6248749999795,None,,,,,,,,,,,,,,,,,discovery,142,131,aloud,new,null,831.046250299958,None,831.046250299958,None,2,1.984692299971357,831.046250299958,None,1.984692299971357,833.0596216999693,None,833.5772786999587,None,833.5772786999587,None,f,0.02966050000395626,833.5772786999587,None,0.02966050000395626,,,32Aloud,001,2022_Aug_29_1302,ProdSingRedoBetween,2021.2.3,59.91852278614595,
,,,,131,0,131,0,,,,,,,,,,,,,,,,,,,,,,839.1472330999677,None,,,,,,,,,,,,,,,,,mechanical,52,132,aloud,old,blue,834.1312695999513,None,834.1312695999513,None,6,4.203791600011755,834.1312695999513,None,4.203791600011755,838.3704287,None,838.8837662999867,None,838.8837662999867,None,r,0.24325890000909567,838.8837662999867,None,0.24325890000909567,,,32Aloud,001,2022_Aug_29_1302,ProdSingRedoBetween,2021.2.3,59.91852278614595,
,,,,132,0,132,0,,,,,,,,,,,,,,,,,,,,,,846.5211291000014,None,,,,,,,,,,,,,,,,,mayor,155,133,aloud,new,null,839.6474907999509,None,839.6474907999509,None,4,6.191550099989399,839.6474907999509,None,6.191550099989399,845.8583210999495,None,846.3751912000007,None,846.3751912000007,None,f,0.1198249000008218,846.3751912000007,None,0.1198249000008218,,,32Aloud,001,2022_Aug_29_1302,ProdSingRedoBetween,2021.2.3,59.91852278614595,
,,,,133,0,133,0,,,,,,,,,,,,,,,,,,,,,,849.0300578000024,None,,,,,,,,,,,,,,,,,general,41,134,aloud,old,blue,847.026621899975,None,847.026621899975,None,6,1.3964070999645628,847.026621899975,None,1.3964070999645628,848.4451513999957,None,848.9594731999678,None,848.9594731999678,None,r,0.03979599999729544,848.9594731999678,None,0.03979599999729544,,,32Aloud,001,2022_Aug_29_1302,ProdSingRedoBetween,2021.2.3,59.91852278614595,
,,,,134,0,134,0,,,,,,,,,,,,,,,,,,,,,,851.5928451999789,None,,,,,,,,,,,,,,,,,rough,19,135,aloud,old,yellow,849.549532199977,None,849.549532199977,None,6,1.2813526000245474,849.549532199977,None,1.2813526000245474,850.8589096999494,None,851.3682246999815,None,851.3682246999815,None,r,0.19871069997316226,851.3682246999815,None,0.19871069997316226,,,32Aloud,001,2022_Aug_29_1302,ProdSingRedoBetween,2021.2.3,59.91852278614595,
,,,,135,0,135,0,,,,,,,,,,,,,,,,,,,,,,854.2454207999981,None,,,,,,,,,,,,,,,,,travel,91,136,aloud,new,null,852.0934457999538,None,852.0934457999538,None,4,1.4495602999813855,852.0934457999538,None,1.4495602999813855,853.5625959999743,None,854.0681888999534,None,854.0681888999534,None,f,0.15497839997988194,854.0681888999534,None,0.15497839997988194,,,32Aloud,001,2022_Aug_29_1302,ProdSingRedoBetween,2021.2.3,59.91852278614595,
,,,,136,0,136,0,,,,,,,,,,,,,,,,,,,,,,856.6981482999981,None,,,,,,,,,,,,,,,,,private,62,137,aloud,old,red,854.7554840999655,None,854.7554840999655,None,6,1.211513299960643,854.7554840999655,None,1.211513299960643,855.9988779999549,None,856.5019772999804,None,856.5019772999804,None,r,0.16893179999897256,856.5019772999804,None,0.16893179999897256,,,32Aloud,001,2022_Aug_29_1302,ProdSingRedoBetween,2021.2.3,59.91852278614595,
,,,,137,0,137,0,,,,,,,,,,,,,,,,,,,,,,859.2337107999483,None,,,,,,,,,,,,,,,,,enemy,31,138,aloud,old,blue,857.2053289999603,None,857.2053289999603,None,6,1.3296799000236206,857.2053289999603,None,1.3296799000236206,858.5522769999807,None,859.0670607999782,None,859.0670607999782,None,r,0.14802600000984967,859.0670607999782,None,0.14802600000984967,,,32Aloud,001,2022_Aug_29_1302,ProdSingRedoBetween,2021.2.3,59.91852278614595,
,,,,138,0,138,0,,,,,,,,,,,,,,,,,,,,,,861.9212843999849,None,,,,,,,,,,,,,,,,,surprise,119,139,aloud,new,null,859.7370886999997,None,859.7370886999997,None,5,1.4539997999672778,859.7370886999997,None,1.4539997999672778,861.2229937999509,None,861.7378699999535,None,861.7378699999535,None,f,0.157296999997925,861.7378699999535,None,0.157296999997925,,,32Aloud,001,2022_Aug_29_1302,ProdSingRedoBetween,2021.2.3,59.91852278614595,
,,,,139,0,139,0,,,,,,,,,,,,,,,,,,,,,,864.305653999967,None,,,,,,,,,,,,,,,,,hunger,56,140,aloud,old,blue,862.4239622000023,None,862.4239622000023,None,6,1.143314899993129,862.4239622000023,None,1.143314899993129,863.5930137999821,None,864.1056364999968,None,864.1056364999968,None,r,0.18142259999876842,864.1056364999968,None,0.18142259999876842,,,32Aloud,001,2022_Aug_29_1302,ProdSingRedoBetween,2021.2.3,59.91852278614595,
,,,,140,0,140,0,,,,,,,,,,,,,,,,,,,,,,866.9583214999875,None,,,,,,,,,,,,,,,,,personnel,94,141,aloud,new,null,864.8127006999566,None,864.8127006999566,None,4,1.434178499970585,864.8127006999566,None,1.434178499970585,866.275324599992,None,866.7749707999756,None,866.7749707999756,None,f,0.1600777999847196,866.7749707999756,None,0.1600777999847196,,,32Aloud,001,2022_Aug_29_1302,ProdSingRedoBetween,2021.2.3,59.91852278614595,
,,,,141,0,141,0,,,,,,,,,,,,,,,,,,,,,,871.195894000004,None,,,,,,,,,,,,,,,,,substance,144,142,aloud,new,null,867.4661666000029,None,867.4661666000029,None,3,2.940774400020018,867.4661666000029,None,2.940774400020018,870.4327022999641,None,870.9473103999626,None,870.9473103999626,None,f,0.22764549998100847,870.9473103999626,None,0.22764549998100847,,,32Aloud,001,2022_Aug_29_1302,ProdSingRedoBetween,2021.2.3,59.91852278614595,
,,,,142,0,142,0,,,,,,,,,,,,,,,,,,,,,,873.731742199976,None,,,,,,,,,,,,,,,,,answer,63,143,aloud,old,red,871.6981307999813,None,871.6981307999813,None,6,1.324817400018219,871.6981307999813,None,1.324817400018219,873.0536203999654,None,873.5675675999955,None,873.5675675999955,None,r,0.1434171000146307,873.5675675999955,None,0.1434171000146307,,,32Aloud,001,2022_Aug_29_1302,ProdSingRedoBetween,2021.2.3,59.91852278614595,
,,,,143,0,143,0,,,,,,,,,,,,,,,,,,,,,,877.4687984999618,None,,,,,,,,,,,,,,,,,people,137,144,aloud,new,null,874.2439397999551,None,874.2439397999551,None,1,2.5149777000187896,874.2439397999551,None,2.5149777000187896,876.7852160999901,None,877.2942932999576,None,877.2942932999576,None,n,0.15267229999881238,877.2942932999576,None,0.15267229999881238,,,32Aloud,001,2022_Aug_29_1302,ProdSingRedoBetween,2021.2.3,59.91852278614595,
,,,,144,0,144,0,,,,,,,,,,,,,,,,,,,,,,880.139329699974,None,,,,,,,,,,,,,,,,,meeting,29,145,aloud,old,blue,877.9721426999895,None,877.9721426999895,None,3,1.4908092999830842,877.9721426999895,None,1.4908092999830842,879.4873557999963,None,879.9907343999948,None,879.9907343999948,None,f,0.12040389998583123,879.9907343999948,None,0.12040389998583123,,,32Aloud,001,2022_Aug_29_1302,ProdSingRedoBetween,2021.2.3,59.91852278614595,
,,,,145,0,145,0,,,,,,,,,,,,,,,,,,,,,,883.0409270999953,None,,,,,,,,,,,,,,,,,direction,141,146,aloud,new,null,880.6473877999815,None,880.6473877999815,None,2,1.5514261999633163,880.6473877999815,None,1.5514261999633163,882.2269809999852,None,882.740908399981,None,882.740908399981,None,f,0.274070399987977,882.740908399981,None,0.274070399987977,,,32Aloud,001,2022_Aug_29_1302,ProdSingRedoBetween,2021.2.3,59.91852278614595,
,,,,146,0,146,0,,,,,,,,,,,,,,,,,,,,,,886.1775046999683,None,,,,,,,,,,,,,,,,,message,98,147,aloud,new,null,883.5447524999618,None,883.5447524999618,None,6,1.9422029000124894,883.5447524999618,None,1.9422029000124894,885.5122467000037,None,886.0328412999515,None,886.0328412999515,None,r,0.11797520000254735,886.0328412999515,None,0.11797520000254735,,,32Aloud,001,2022_Aug_29_1302,ProdSingRedoBetween,2021.2.3,59.91852278614595,
,,,,147,0,147,0,,,,,,,,,,,,,,,,,,,,,,891.1991646999959,None,,,,,,,,,,,,,,,,,watch,87,148,aloud,old,red,886.6877798999776,None,886.6877798999776,None,2,3.8153765999595635,886.6877798999776,None,3.8153765999595635,890.5403520999826,None,891.0492250999669,None,891.0492250999669,None,f,0.1257395999855362,891.0492250999669,None,0.1257395999855362,,,32Aloud,001,2022_Aug_29_1302,ProdSingRedoBetween,2021.2.3,59.91852278614595,
,,,,148,0,148,0,,,,,,,,,,,,,,,,,,,,,,894.2523166000028,None,,,,,,,,,,,,,,,,,election,42,149,aloud,old,blue,891.7025007999619,None,891.7025007999619,None,6,1.8564194000209682,891.7025007999619,None,1.8564194000209682,893.5888497999986,None,894.104132199951,None,894.104132199951,None,r,0.1269538999767974,894.104132199951,None,0.1269538999767974,,,32Aloud,001,2022_Aug_29_1302,ProdSingRedoBetween,2021.2.3,59.91852278614595,
,,,,149,0,149,0,,,,,,,,,,,,,,,,,,,,,,897.5886865999782,None,,,,,,,,,,,,,,,,,report,93,150,aloud,new,null,894.7605691999779,None,894.7605691999779,None,4,2.102484699978959,894.7605691999779,None,2.102484699978959,896.8943173000007,None,897.4163924999884,None,897.4163924999884,None,f,0.14244070003041998,897.4163924999884,None,0.14244070003041998,,,32Aloud,001,2022_Aug_29_1302,ProdSingRedoBetween,2021.2.3,59.91852278614595,
,,,,150,0,150,0,,,,,,,,,,,,,,,,,,,,,,902.4437318999553,None,,,,,,,,,,,,,,,,,victory,125,151,aloud,new,null,898.0921013999614,None,898.0921013999614,None,6,3.6588115000049584,898.0921013999614,None,3.6588115000049584,901.7788391999784,None,902.2937533999793,None,902.2937533999793,None,r,0.12120980001054704,902.2937533999793,None,0.12120980001054704,,,32Aloud,001,2022_Aug_29_1302,ProdSingRedoBetween,2021.2.3,59.91852278614595,
,,,,151,0,151,0,,,,,,,,,,,,,,,,,,,,,,905.0410246999818,None,,,,,,,,,,,,,,,,,congress,28,152,aloud,old,yellow,902.9490474999766,None,902.9490474999766,None,6,1.3779559000395238,902.9490474999766,None,1.3779559000395238,904.3464357999619,None,904.8555259999703,None,904.8555259999703,None,r,0.1516762999817729,904.8555259999703,None,0.1516762999817729,,,32Aloud,001,2022_Aug_29_1302,ProdSingRedoBetween,2021.2.3,59.91852278614595,
,,,,152,0,152,0,,,,,,,,,,,,,,,,,,,,,,907.5689637999749,None,,,,,,,,,,,,,,,,,oxygen,51,153,aloud,old,blue,905.5518342999858,None,905.5518342999858,None,6,1.3032706000376493,905.5518342999858,None,1.3032706000376493,906.8850711999694,None,907.3987990999594,None,907.3987990999594,None,r,0.13619109999854118,907.3987990999594,None,0.13619109999854118,,,32Aloud,001,2022_Aug_29_1302,ProdSingRedoBetween,2021.2.3,59.91852278614595,
,,,,153,0,153,0,,,,,,,,,,,,,,,,,,,,,,910.7519087999826,None,,,,,,,,,,,,,,,,,block,110,154,aloud,new,null,908.0869121999713,None,908.0869121999713,None,1,1.9760181999881752,908.0869121999713,None,1.9760181999881752,910.084719299979,None,910.5928777999943,None,910.5928777999943,None,n,0.1342136000166647,910.5928777999943,None,0.1342136000166647,,,32Aloud,001,2022_Aug_29_1302,ProdSingRedoBetween,2021.2.3,59.91852278614595,
,,,,154,0,154,0,,,,,,,,,,,,,,,,,,,,,,913.4378452999517,None,,,,,,,,,,,,,,,,,crime,8,155,aloud,old,yellow,911.2591297999606,None,911.2591297999606,None,6,1.50768949999474,911.2591297999606,None,1.50768949999474,912.7890337999561,None,913.3074097999488,None,913.3074097999488,None,r,0.11549779999768361,913.3074097999488,None,0.11549779999768361,,,32Aloud,001,2022_Aug_29_1302,ProdSingRedoBetween,2021.2.3,59.91852278614595,
,,,,155,0,155,0,,,,,,,,,,,,,,,,,,,,,,918.3595816000015,None,,,,,,,,,,,,,,,,,solution,131,156,aloud,new,null,913.9444712999975,None,913.9444712999975,None,6,3.670477600011509,913.9444712999975,None,3.670477600011509,917.6498442000011,None,918.1594170999597,None,918.1594170999597,None,r,0.18363019998650998,918.1594170999597,None,0.18363019998650998,,,32Aloud,001,2022_Aug_29_1302,ProdSingRedoBetween,2021.2.3,59.91852278614595,
,,,,156,0,156,0,,,,,,,,,,,,,,,,,,,,,,921.3624825999723,None,,,,,,,,,,,,,,,,,split,107,157,aloud,new,null,918.86489659996,None,918.86489659996,None,2,1.8219968000194058,918.86489659996,None,1.8219968000194058,920.7133800999727,None,921.2288305999828,None,921.2288305999828,None,f,0.1059499999973923,921.2288305999828,None,0.1059499999973923,,,32Aloud,001,2022_Aug_29_1302,ProdSingRedoBetween,2021.2.3,59.91852278614595,
,,,,157,0,157,0,,,,,,,,,,,,,,,,,,,,,,923.7816573999589,None,,,,,,,,,,,,,,,,,strain,10,158,aloud,old,yellow,921.8703702999628,None,921.8703702999628,None,6,1.2565867000375874,921.8703702999628,None,1.2565867000375874,923.1555209999788,None,923.6664140999783,None,923.6664140999783,None,r,0.10050339996814728,923.6664140999783,None,0.10050339996814728,,,32Aloud,001,2022_Aug_29_1302,ProdSingRedoBetween,2021.2.3,59.91852278614595,
,,,,158,0,158,0,,,,,,,,,,,,,,,,,,,,,,926.6859044999583,None,,,,,,,,,,,,,,,,,reading,97,159,aloud,new,null,924.28942679998,None,924.28942679998,None,1,1.7015439000097103,924.28942679998,None,1.7015439000097103,926.0223685999517,None,926.5402042999631,None,926.5402042999631,None,n,0.12275929999304935,926.5402042999631,None,0.12275929999304935,,,32Aloud,001,2022_Aug_29_1302,ProdSingRedoBetween,2021.2.3,59.91852278614595,
,,,,159,0,159,0,,,,,,,,,,,,,,,,,,,,,,928.9933335999958,None,,,,,,,,,,,,,,,,,couch,0,160,aloud,old,yellow,927.1883440999663,None,927.1883440999663,None,1,1.066665499994997,927.1883440999663,None,1.066665499994997,928.2927068999852,None,928.804339299968,None,928.804339299968,None,n,0.1546970999916084,928.804339299968,None,0.1546970999916084,,,32Aloud,001,2022_Aug_29_1302,ProdSingRedoBetween,2021.2.3,59.91852278614595,
,,,,160,0,160,0,,,,,,,,,,,,,,,,,,,,,,932.1898737999727,None,,,,,,,,,,,,,,,,,drama,175,161,aloud,new,null,929.5098395999521,None,929.5098395999521,None,5,2.0010518000344746,929.5098395999521,None,2.0010518000344746,931.5394830000005,None,932.0453393999487,None,932.0453393999487,None,f,0.12958790000993758,932.0453393999487,None,0.12958790000993758,,,32Aloud,001,2022_Aug_29_1302,ProdSingRedoBetween,2021.2.3,59.91852278614595,
,,,,161,0,161,0,,,,,,,,,,,,,,,,,,,,,,936.9448493999662,None,,,,,,,,,,,,,,,,,sight,95,162,aloud,new,null,932.702668199956,None,932.702668199956,None,3,3.5442238999530673,932.702668199956,None,3.5442238999530673,936.2789007999818,None,936.7864268999547,None,936.7864268999547,None,f,0.13243529997998849,936.7864268999547,None,0.13243529997998849,,,32Aloud,001,2022_Aug_29_1302,ProdSingRedoBetween,2021.2.3,59.91852278614595,
,,,,162,0,162,0,,,,,,,,,,,,,,,,,,,,,,939.4306962999981,None,,,,,,,,,,,,,,,,,expansion,38,163,aloud,old,blue,937.4475645999773,None,937.4475645999773,None,6,1.3433866000268608,937.4475645999773,None,1.3433866000268608,938.8186191999703,None,939.3310479999636,None,939.3310479999636,None,r,0.08381569996709004,939.3310479999636,None,0.08381569996709004,,,32Aloud,001,2022_Aug_29_1302,ProdSingRedoBetween,2021.2.3,59.91852278614595,
,,,,163,0,163,0,,,,,,,,,,,,,,,,,,,,,,942.43336309999,None,,,,,,,,,,,,,,,,,thick,14,164,aloud,old,yellow,939.9404435000033,None,939.9404435000033,None,6,1.7864326999988407,939.9404435000033,None,1.7864326999988407,941.7553154999623,None,942.2668212999706,None,942.2668212999706,None,r,0.13996790000237525,942.2668212999706,None,0.13996790000237525,,,32Aloud,001,2022_Aug_29_1302,ProdSingRedoBetween,2021.2.3,59.91852278614595,
,,,,164,0,164,0,,,,,,,,,,,,,,,,,,,,,,946.6226985999965,None,,,,,,,,,,,,,,,,,motion,123,165,aloud,new,null,942.9357277999516,None,942.9357277999516,None,2,2.2552012000232935,942.9357277999516,None,2.2552012000232935,945.2266829999862,None,945.7370464999694,None,945.7370464999694,None,f,0.8540037999628112,945.7370464999694,None,0.8540037999628112,,,32Aloud,001,2022_Aug_29_1302,ProdSingRedoBetween,2021.2.3,59.91852278614595,
,,,,165,0,165,0,,,,,,,,,,,,,,,,,,,,,,950.0078571999911,None,,,,,,,,,,,,,,,,,close,20,166,aloud,old,yellow,947.1448957999819,None,947.1448957999819,None,6,2.190139200014528,947.1448957999819,None,2.190139200014528,949.3621960000019,None,949.8740790999727,None,949.8740790999727,None,r,0.1087915999814868,949.8740790999727,None,0.1087915999814868,,,32Aloud,001,2022_Aug_29_1302,ProdSingRedoBetween,2021.2.3,59.91852278614595,
,,,,166,0,166,0,,,,,,,,,,,,,,,,,,,,,,952.3269444999751,None,,,,,,,,,,,,,,,,,rural,82,167,aloud,old,red,950.5168963999604,None,950.5168963999604,None,6,1.1539902000222355,950.5168963999604,None,1.1539902000222355,951.6926535999519,None,952.1980490999995,None,952.1980490999995,None,r,0.10499799996614456,952.1980490999995,None,0.10499799996614456,,,32Aloud,001,2022_Aug_29_1302,ProdSingRedoBetween,2021.2.3,59.91852278614595,
,,,,167,0,167,0,,,,,,,,,,,,,,,,,,,,,,954.629194899986,None,,,,,,,,,,,,,,,,,territory,78,168,aloud,old,red,952.8481229000026,None,952.8481229000026,None,6,1.1347437999793328,952.8481229000026,None,1.1347437999793328,954.0141440999578,None,954.5292217999813,None,954.5292217999813,None,r,0.06967590004205704,954.5292217999813,None,0.06967590004205704,,,32Aloud,001,2022_Aug_29_1302,ProdSingRedoBetween,2021.2.3,59.91852278614595,
,,,,168,0,168,0,,,,,,,,,,,,,,,,,,,,,,956.7813419000013,None,,,,,,,,,,,,,,,,,strength,35,169,aloud,old,blue,955.1391943999915,None,955.1391943999915,None,6,0.9875989999854937,955.1391943999915,None,0.9875989999854937,956.1544542999472,None,956.6652043999638,None,956.6652043999638,None,r,0.08576149999862537,956.6652043999638,None,0.08576149999862537,,,32Aloud,001,2022_Aug_29_1302,ProdSingRedoBetween,2021.2.3,59.91852278614595,
,,,,169,0,169,0,,,,,,,,,,,,,,,,,,,,,,960.9688818999566,None,,,,,,,,,,,,,,,,,trial,145,170,aloud,new,null,957.2900463999831,None,957.2900463999831,None,4,2.9568519000313245,957.2900463999831,None,2.9568519000313245,960.2701606999617,None,960.7854225999909,None,960.7854225999909,None,f,0.16543599998112768,960.7854225999909,None,0.16543599998112768,,,32Aloud,001,2022_Aug_29_1302,ProdSingRedoBetween,2021.2.3,59.91852278614595,
,,,,170,0,170,0,,,,,,,,,,,,,,,,,,,,,,965.4065532999812,None,,,,,,,,,,,,,,,,,running,151,171,aloud,new,null,961.4797784999828,None,961.4797784999828,None,2,3.319095999991987,961.4797784999828,None,3.319095999991987,964.8244315999909,None,965.3400118999998,None,965.3400118999998,None,f,0.050896800006739795,965.3400118999998,None,0.050896800006739795,,,32Aloud,001,2022_Aug_29_1302,ProdSingRedoBetween,2021.2.3,59.91852278614595,
,,,,171,0,171,0,,,,,,,,,,,,,,,,,,,,,,968.9768104999675,None,,,,,,,,,,,,,,,,,volume,67,172,aloud,old,red,965.9131993000046,None,965.9131993000046,None,6,2.4217273999820463,965.9131993000046,None,2.4217273999820463,968.366752300004,None,968.8768864999874,None,968.8768864999874,None,r,0.08197200001450256,968.8768864999874,None,0.08197200001450256,,,32Aloud,001,2022_Aug_29_1302,ProdSingRedoBetween,2021.2.3,59.91852278614595,
,,,,172,0,172,0,,,,,,,,,,,,,,,,,,,,,,971.6295191999525,None,,,,,,,,,,,,,,,,,disease,36,173,aloud,old,blue,969.4817227000021,None,969.4817227000021,None,6,1.0134128000354394,969.4817227000021,None,1.0134128000354394,970.518621700001,None,971.0292983999825,None,971.0292983999825,None,r,0.5775584999937564,971.0292983999825,None,0.5775584999937564,,,32Aloud,001,2022_Aug_29_1302,ProdSingRedoBetween,2021.2.3,59.91852278614595,
,,,,173,0,173,0,,,,,,,,,,,,,,,,,,,,,,974.4656811999739,None,,,,,,,,,,,,,,,,,position,59,174,aloud,old,yellow,972.1309203999699,None,972.1309203999699,None,5,1.651998299988918,972.1309203999699,None,1.651998299988918,973.8052274999791,None,974.3154711999814,None,974.3154711999814,None,f,0.12332879996392876,974.3154711999814,None,0.12332879996392876,,,32Aloud,001,2022_Aug_29_1302,ProdSingRedoBetween,2021.2.3,59.91852278614595,
,,,,174,0,174,0,,,,,,,,,,,,,,,,,,,,,,977.451968599984,None,,,,,,,,,,,,,,,,,character,177,175,aloud,new,null,974.9730580999749,None,974.9730580999749,None,5,1.7620922999922186,974.9730580999749,None,1.7620922999922186,976.76065989997,None,977.2686170999659,None,977.2686170999659,None,f,0.1542967000277713,977.2686170999659,None,0.1542967000277713,,,32Aloud,001,2022_Aug_29_1302,ProdSingRedoBetween,2021.2.3,59.91852278614595,
,,,,175,0,175,0,,,,,,,,,,,,,,,,,,,,,,980.4072523999494,None,,,,,,,,,,,,,,,,,color,147,176,aloud,new,null,977.9644104999606,None,977.9644104999606,None,4,1.6906312999781221,977.9644104999606,None,1.6906312999781221,979.6778692999505,None,980.1880952999927,None,980.1880952999927,None,f,0.18698260001838207,980.1880952999927,None,0.18698260001838207,,,32Aloud,001,2022_Aug_29_1302,ProdSingRedoBetween,2021.2.3,59.91852278614595,
,,,,176,0,176,0,,,,,,,,,,,,,,,,,,,,,,983.0405521999928,None,,,,,,,,,,,,,,,,,angle,133,177,aloud,new,null,980.9220226999605,None,980.9220226999605,None,1,1.3492580999736674,980.9220226999605,None,1.3492580999736674,982.2897580999997,None,982.7998061999679,None,982.7998061999679,None,n,0.21511039999313653,982.7998061999679,None,0.21511039999313653,,,32Aloud,001,2022_Aug_29_1302,ProdSingRedoBetween,2021.2.3,59.91852278614595,
,,,,177,0,177,0,,,,,,,,,,,,,,,,,,,,,,986.1937231000047,None,,,,,,,,,,,,,,,,,military,101,178,aloud,new,null,983.5452573999646,None,983.5452573999646,None,1,1.9656879000249319,983.5452573999646,None,1.9656879000249319,985.5312169999816,None,986.0493590999977,None,986.0493590999977,None,n,0.11763389996485785,986.0493590999977,None,0.11763389996485785,,,32Aloud,001,2022_Aug_29_1302,ProdSingRedoBetween,2021.2.3,59.91852278614595,
