StudyLoop.thisRepN,StudyLoop.thisTrialN,StudyLoop.thisN,StudyLoop.thisIndex,TestLoop.thisRepN,TestLoop.thisTrialN,TestLoop.thisN,TestLoop.thisIndex,textCondition.started,textCondition.stopped,keyCondition.keys,keyCondition.rt,keyCondition.started,keyCondition.stopped,Condition,textWelcome.started,textWelcome.stopped,keyWelcome.keys,keyWelcome.rt,keyWelcome.started,keyWelcome.stopped,textAloud.started,textAloud.stopped,textSilent.started,textSilent.stopped,textSing.started,textSing.stopped,conditional_text.started,conditional_text.stopped,textBlank500.started,textBlank500.stopped,study_word,study_num,study_order,study_type,word_color,textStudy.started,textStudy.stopped,keyStudy.keys,keyStudy.started,keyStudy.stopped,textTestInstructions.started,textTestInstructions.stopped,key_resp_3.keys,key_resp_3.rt,key_resp_3.started,key_resp_3.stopped,test_word,test_num,test_order,test_condition,old_new_test,test_word_original_color,textConf.started,textConf.stopped,textConfScale.started,textConfScale.stopped,keyConf.keys,keyConf.rt,keyConf.started,keyConf.stopped,confidence response time,textTestBlank.started,textTestBlank.stopped,textRKN.started,textRKN.stopped,textRKNScale.started,textRKNScale.stopped,keyRKN.keys,keyRKN.rt,keyRKN.started,keyRKN.stopped,rkn response time,textEnd.started,textEnd.stopped,participant,session,date,expName,psychopyVersion,frameRate,
,,,,,,,,83.23936589999357,None,c,3.554396799998358,83.23936589999357,None,,,,,,,,,,,,,,,,,,,,,,,,,,,,,,,,,,,,,,,,,,,,,,,,,,,,,,,,,,,,,,33Sing,001,2022_Aug_29_1415,ProdSingRedoBetween,2021.2.3,59.95904797948804,
,,,,,,,,,,,,,,SingTest,86.83335349999834,None,space,4118.340546199994,86.83335349999834,None,,,,,,,,,,,,,,,,,,,,,,,,,,,,,,,,,,,,,,,,,,,,,,,,,,,,,,,33Sing,001,2022_Aug_29_1415,ProdSingRedoBetween,2021.2.3,59.95904797948804,
0,0,0,0,,,,,,,,,,,,,,,,,,86.83335349999834,None,86.83335349999834,None,86.83335349999834,None,86.83335349999834,None,4207.692054199986,None,clear,51,1,sing,blue,4205.69034869998,None,None,4205.69034869998,None,,,,,,,,,,,,,,,,,,,,,,,,,,,,,,,,,,,33Sing,001,2022_Aug_29_1415,ProdSingRedoBetween,2021.2.3,59.95904797948804,
1,0,1,0,,,,,,,,,,,,,,,,,,,,,,,,,,4210.194653099985,None,height,5,2,sing,yellow,4208.192329199985,None,None,4208.192329199985,None,,,,,,,,,,,,,,,,,,,,,,,,,,,,,,,,,,,33Sing,001,2022_Aug_29_1415,ProdSingRedoBetween,2021.2.3,59.95904797948804,
2,0,2,0,,,,,,,,,,,,,,,,,,,,,,,,,,4212.697040899948,None,crisis,75,3,sing,red,4210.695278299972,None,None,4210.695278299972,None,,,,,,,,,,,,,,,,,,,,,,,,,,,,,,,,,,,33Sing,001,2022_Aug_29_1415,ProdSingRedoBetween,2021.2.3,59.95904797948804,
3,0,3,0,,,,,,,,,,,,,,,,,,,,,,,,,,4215.216304000001,None,engineer,27,4,sing,yellow,4213.2025166999665,None,None,4213.2025166999665,None,,,,,,,,,,,,,,,,,,,,,,,,,,,,,,,,,,,33Sing,001,2022_Aug_29_1415,ProdSingRedoBetween,2021.2.3,59.95904797948804,
4,0,4,0,,,,,,,,,,,,,,,,,,,,,,,,,,4217.718730199966,None,century,80,5,sing,red,4215.716909399955,None,None,4215.716909399955,None,,,,,,,,,,,,,,,,,,,,,,,,,,,,,,,,,,,33Sing,001,2022_Aug_29_1415,ProdSingRedoBetween,2021.2.3,59.95904797948804,
5,0,5,0,,,,,,,,,,,,,,,,,,,,,,,,,,4220.237838599947,None,shape,14,6,sing,yellow,4218.227595899953,None,None,4218.227595899953,None,,,,,,,,,,,,,,,,,,,,,,,,,,,,,,,,,,,33Sing,001,2022_Aug_29_1415,ProdSingRedoBetween,2021.2.3,59.95904797948804,
6,0,6,0,,,,,,,,,,,,,,,,,,,,,,,,,,4222.740485299961,None,research,42,7,sing,blue,4220.7384877,None,None,4220.7384877,None,,,,,,,,,,,,,,,,,,,,,,,,,,,,,,,,,,,33Sing,001,2022_Aug_29_1415,ProdSingRedoBetween,2021.2.3,59.95904797948804,
7,0,7,0,,,,,,,,,,,,,,,,,,,,,,,,,,4225.259475399973,None,junior,83,8,sing,red,4223.245084399998,None,None,4223.245084399998,None,,,,,,,,,,,,,,,,,,,,,,,,,,,,,,,,,,,33Sing,001,2022_Aug_29_1415,ProdSingRedoBetween,2021.2.3,59.95904797948804,
8,0,8,0,,,,,,,,,,,,,,,,,,,,,,,,,,4227.762011799961,None,trash,73,9,sing,red,4225.760076799954,None,None,4225.760076799954,None,,,,,,,,,,,,,,,,,,,,,,,,,,,,,,,,,,,33Sing,001,2022_Aug_29_1415,ProdSingRedoBetween,2021.2.3,59.95904797948804,
9,0,9,0,,,,,,,,,,,,,,,,,,,,,,,,,,4230.264734399971,None,trail,35,10,sing,blue,4228.262750299997,None,None,4228.262750299997,None,,,,,,,,,,,,,,,,,,,,,,,,,,,,,,,,,,,33Sing,001,2022_Aug_29_1415,ProdSingRedoBetween,2021.2.3,59.95904797948804,
10,0,10,0,,,,,,,,,,,,,,,,,,,,,,,,,,4232.767171799962,None,strain,18,11,sing,yellow,4230.767214399995,None,None,4230.767214399995,None,,,,,,,,,,,,,,,,,,,,,,,,,,,,,,,,,,,33Sing,001,2022_Aug_29_1415,ProdSingRedoBetween,2021.2.3,59.95904797948804,
11,0,11,0,,,,,,,,,,,,,,,,,,,,,,,,,,4235.286415799987,None,quantity,22,12,sing,yellow,4233.27643509995,None,None,4233.27643509995,None,,,,,,,,,,,,,,,,,,,,,,,,,,,,,,,,,,,33Sing,001,2022_Aug_29_1415,ProdSingRedoBetween,2021.2.3,59.95904797948804,
12,0,12,0,,,,,,,,,,,,,,,,,,,,,,,,,,4237.788909099996,None,orchestra,45,13,sing,blue,4235.78907889995,None,None,4235.78907889995,None,,,,,,,,,,,,,,,,,,,,,,,,,,,,,,,,,,,33Sing,001,2022_Aug_29_1415,ProdSingRedoBetween,2021.2.3,59.95904797948804,
13,0,13,0,,,,,,,,,,,,,,,,,,,,,,,,,,4240.2913711,None,union,70,14,sing,red,4238.290261699993,None,None,4238.290261699993,None,,,,,,,,,,,,,,,,,,,,,,,,,,,,,,,,,,,33Sing,001,2022_Aug_29_1415,ProdSingRedoBetween,2021.2.3,59.95904797948804,
14,0,14,0,,,,,,,,,,,,,,,,,,,,,,,,,,4242.793888199958,None,military,38,15,sing,blue,4240.794079799962,None,None,4240.794079799962,None,,,,,,,,,,,,,,,,,,,,,,,,,,,,,,,,,,,33Sing,001,2022_Aug_29_1415,ProdSingRedoBetween,2021.2.3,59.95904797948804,
15,0,15,0,,,,,,,,,,,,,,,,,,,,,,,,,,4245.295899599965,None,substance,62,16,sing,red,4243.294241599971,None,None,4243.294241599971,None,,,,,,,,,,,,,,,,,,,,,,,,,,,,,,,,,,,33Sing,001,2022_Aug_29_1415,ProdSingRedoBetween,2021.2.3,59.95904797948804,
16,0,16,0,,,,,,,,,,,,,,,,,,,,,,,,,,4247.798962000001,None,suspect,17,17,sing,yellow,4245.798221299949,None,None,4245.798221299949,None,,,,,,,,,,,,,,,,,,,,,,,,,,,,,,,,,,,33Sing,001,2022_Aug_29_1415,ProdSingRedoBetween,2021.2.3,59.95904797948804,
17,0,17,0,,,,,,,,,,,,,,,,,,,,,,,,,,4250.317994699988,None,incident,81,18,sing,red,4248.303030799958,None,None,4248.303030799958,None,,,,,,,,,,,,,,,,,,,,,,,,,,,,,,,,,,,33Sing,001,2022_Aug_29_1415,ProdSingRedoBetween,2021.2.3,59.95904797948804,
18,0,18,0,,,,,,,,,,,,,,,,,,,,,,,,,,4252.8204104999895,None,little,48,19,sing,blue,4250.818538599997,None,None,4250.818538599997,None,,,,,,,,,,,,,,,,,,,,,,,,,,,,,,,,,,,33Sing,001,2022_Aug_29_1415,ProdSingRedoBetween,2021.2.3,59.95904797948804,
19,0,19,0,,,,,,,,,,,,,,,,,,,,,,,,,,4255.322895899997,None,drama,8,20,sing,yellow,4253.321977299987,None,None,4253.321977299987,None,,,,,,,,,,,,,,,,,,,,,,,,,,,,,,,,,,,33Sing,001,2022_Aug_29_1415,ProdSingRedoBetween,2021.2.3,59.95904797948804,
20,0,20,0,,,,,,,,,,,,,,,,,,,,,,,,,,4257.842213799944,None,position,37,21,sing,blue,4255.833970099979,None,None,4255.833970099979,None,,,,,,,,,,,,,,,,,,,,,,,,,,,,,,,,,,,33Sing,001,2022_Aug_29_1415,ProdSingRedoBetween,2021.2.3,59.95904797948804,
21,0,21,0,,,,,,,,,,,,,,,,,,,,,,,,,,4260.34448749997,None,route,59,22,sing,yellow,4258.342716999992,None,None,4258.342716999992,None,,,,,,,,,,,,,,,,,,,,,,,,,,,,,,,,,,,33Sing,001,2022_Aug_29_1415,ProdSingRedoBetween,2021.2.3,59.95904797948804,
22,0,22,0,,,,,,,,,,,,,,,,,,,,,,,,,,4262.863832099945,None,majority,44,23,sing,blue,4260.852349599998,None,None,4260.852349599998,None,,,,,,,,,,,,,,,,,,,,,,,,,,,,,,,,,,,33Sing,001,2022_Aug_29_1415,ProdSingRedoBetween,2021.2.3,59.95904797948804,
23,0,23,0,,,,,,,,,,,,,,,,,,,,,,,,,,4265.383012099948,None,season,31,24,sing,blue,4263.368511699955,None,None,4263.368511699955,None,,,,,,,,,,,,,,,,,,,,,,,,,,,,,,,,,,,33Sing,001,2022_Aug_29_1415,ProdSingRedoBetween,2021.2.3,59.95904797948804,
24,0,24,0,,,,,,,,,,,,,,,,,,,,,,,,,,4267.885642199952,None,industry,57,25,sing,blue,4265.8865632999805,None,None,4265.8865632999805,None,,,,,,,,,,,,,,,,,,,,,,,,,,,,,,,,,,,33Sing,001,2022_Aug_29_1415,ProdSingRedoBetween,2021.2.3,59.95904797948804,
25,0,25,0,,,,,,,,,,,,,,,,,,,,,,,,,,4270.387941399997,None,business,85,26,sing,red,4268.385937299987,None,None,4268.385937299987,None,,,,,,,,,,,,,,,,,,,,,,,,,,,,,,,,,,,33Sing,001,2022_Aug_29_1415,ProdSingRedoBetween,2021.2.3,59.95904797948804,
26,0,26,0,,,,,,,,,,,,,,,,,,,,,,,,,,4272.907309799979,None,shock,36,27,sing,blue,4270.893169399991,None,None,4270.893169399991,None,,,,,,,,,,,,,,,,,,,,,,,,,,,,,,,,,,,33Sing,001,2022_Aug_29_1415,ProdSingRedoBetween,2021.2.3,59.95904797948804,
27,0,27,0,,,,,,,,,,,,,,,,,,,,,,,,,,4275.409754499968,None,whole,33,28,sing,blue,4273.40779659996,None,None,4273.40779659996,None,,,,,,,,,,,,,,,,,,,,,,,,,,,,,,,,,,,33Sing,001,2022_Aug_29_1415,ProdSingRedoBetween,2021.2.3,59.95904797948804,
28,0,28,0,,,,,,,,,,,,,,,,,,,,,,,,,,4277.928734499961,None,blind,77,29,sing,red,4275.922102799988,None,None,4275.922102799988,None,,,,,,,,,,,,,,,,,,,,,,,,,,,,,,,,,,,33Sing,001,2022_Aug_29_1415,ProdSingRedoBetween,2021.2.3,59.95904797948804,
29,0,29,0,,,,,,,,,,,,,,,,,,,,,,,,,,4280.4480883999495,None,silence,61,30,sing,red,4278.441320599988,None,None,4278.441320599988,None,,,,,,,,,,,,,,,,,,,,,,,,,,,,,,,,,,,33Sing,001,2022_Aug_29_1415,ProdSingRedoBetween,2021.2.3,59.95904797948804,
30,0,30,0,,,,,,,,,,,,,,,,,,,,,,,,,,4282.967343199998,None,music,68,31,sing,red,4280.952381299983,None,None,4280.952381299983,None,,,,,,,,,,,,,,,,,,,,,,,,,,,,,,,,,,,33Sing,001,2022_Aug_29_1415,ProdSingRedoBetween,2021.2.3,59.95904797948804,
31,0,31,0,,,,,,,,,,,,,,,,,,,,,,,,,,4285.486358999973,None,heavy,50,32,sing,blue,4283.475708599959,None,None,4283.475708599959,None,,,,,,,,,,,,,,,,,,,,,,,,,,,,,,,,,,,33Sing,001,2022_Aug_29_1415,ProdSingRedoBetween,2021.2.3,59.95904797948804,
32,0,32,0,,,,,,,,,,,,,,,,,,,,,,,,,,4288.005647699989,None,drove,87,33,sing,red,4285.990892499976,None,None,4285.990892499976,None,,,,,,,,,,,,,,,,,,,,,,,,,,,,,,,,,,,33Sing,001,2022_Aug_29_1415,ProdSingRedoBetween,2021.2.3,59.95904797948804,
33,0,33,0,,,,,,,,,,,,,,,,,,,,,,,,,,4290.5079883,None,range,71,34,sing,red,4288.505967199977,None,None,4288.505967199977,None,,,,,,,,,,,,,,,,,,,,,,,,,,,,,,,,,,,33Sing,001,2022_Aug_29_1415,ProdSingRedoBetween,2021.2.3,59.95904797948804,
34,0,34,0,,,,,,,,,,,,,,,,,,,,,,,,,,4293.010577999987,None,message,12,35,sing,yellow,4291.010611899954,None,None,4291.010611899954,None,,,,,,,,,,,,,,,,,,,,,,,,,,,,,,,,,,,33Sing,001,2022_Aug_29_1415,ProdSingRedoBetween,2021.2.3,59.95904797948804,
35,0,35,0,,,,,,,,,,,,,,,,,,,,,,,,,,4295.529622699949,None,ground,0,36,sing,yellow,4293.519954599964,None,None,4293.519954599964,None,,,,,,,,,,,,,,,,,,,,,,,,,,,,,,,,,,,33Sing,001,2022_Aug_29_1415,ProdSingRedoBetween,2021.2.3,59.95904797948804,
36,0,36,0,,,,,,,,,,,,,,,,,,,,,,,,,,4298.032319699996,None,member,29,37,sing,blue,4296.030385399994,None,None,4296.030385399994,None,,,,,,,,,,,,,,,,,,,,,,,,,,,,,,,,,,,33Sing,001,2022_Aug_29_1415,ProdSingRedoBetween,2021.2.3,59.95904797948804,
37,0,37,0,,,,,,,,,,,,,,,,,,,,,,,,,,4300.551576999947,None,government,30,38,sing,blue,4298.550387899973,None,None,4298.550387899973,None,,,,,,,,,,,,,,,,,,,,,,,,,,,,,,,,,,,33Sing,001,2022_Aug_29_1415,ProdSingRedoBetween,2021.2.3,59.95904797948804,
38,0,38,0,,,,,,,,,,,,,,,,,,,,,,,,,,4303.054034699977,None,state,64,39,sing,red,4301.0520859999815,None,None,4301.0520859999815,None,,,,,,,,,,,,,,,,,,,,,,,,,,,,,,,,,,,33Sing,001,2022_Aug_29_1415,ProdSingRedoBetween,2021.2.3,59.95904797948804,
39,0,39,0,,,,,,,,,,,,,,,,,,,,,,,,,,4305.572982599959,None,finish,89,40,sing,red,4303.561741199985,None,None,4303.561741199985,None,,,,,,,,,,,,,,,,,,,,,,,,,,,,,,,,,,,33Sing,001,2022_Aug_29_1415,ProdSingRedoBetween,2021.2.3,59.95904797948804,
40,0,40,0,,,,,,,,,,,,,,,,,,,,,,,,,,4308.092237999954,None,interview,25,41,sing,yellow,4306.078025399998,None,None,4306.078025399998,None,,,,,,,,,,,,,,,,,,,,,,,,,,,,,,,,,,,33Sing,001,2022_Aug_29_1415,ProdSingRedoBetween,2021.2.3,59.95904797948804,
41,0,41,0,,,,,,,,,,,,,,,,,,,,,,,,,,4310.594919700001,None,object,26,42,sing,yellow,4308.592778799997,None,None,4308.592778799997,None,,,,,,,,,,,,,,,,,,,,,,,,,,,,,,,,,,,33Sing,001,2022_Aug_29_1415,ProdSingRedoBetween,2021.2.3,59.95904797948804,
42,0,42,0,,,,,,,,,,,,,,,,,,,,,,,,,,4313.114074099984,None,report,66,43,sing,red,4311.098814799974,None,None,4311.098814799974,None,,,,,,,,,,,,,,,,,,,,,,,,,,,,,,,,,,,33Sing,001,2022_Aug_29_1415,ProdSingRedoBetween,2021.2.3,59.95904797948804,
43,0,43,0,,,,,,,,,,,,,,,,,,,,,,,,,,4315.616722199949,None,meeting,1,44,sing,yellow,4313.615584299958,None,None,4313.615584299958,None,,,,,,,,,,,,,,,,,,,,,,,,,,,,,,,,,,,33Sing,001,2022_Aug_29_1415,ProdSingRedoBetween,2021.2.3,59.95904797948804,
44,0,44,0,,,,,,,,,,,,,,,,,,,,,,,,,,4318.135764699953,None,community,56,45,sing,blue,4316.123667599983,None,None,4316.123667599983,None,,,,,,,,,,,,,,,,,,,,,,,,,,,,,,,,,,,33Sing,001,2022_Aug_29_1415,ProdSingRedoBetween,2021.2.3,59.95904797948804,
45,0,45,0,,,,,,,,,,,,,,,,,,,,,,,,,,4320.654782199999,None,cover,65,46,sing,red,4318.640197299945,None,None,4318.640197299945,None,,,,,,,,,,,,,,,,,,,,,,,,,,,,,,,,,,,33Sing,001,2022_Aug_29_1415,ProdSingRedoBetween,2021.2.3,59.95904797948804,
46,0,46,0,,,,,,,,,,,,,,,,,,,,,,,,,,4323.15746919997,None,machinery,46,47,sing,blue,4321.156511899957,None,None,4321.156511899957,None,,,,,,,,,,,,,,,,,,,,,,,,,,,,,,,,,,,33Sing,001,2022_Aug_29_1415,ProdSingRedoBetween,2021.2.3,59.95904797948804,
47,0,47,0,,,,,,,,,,,,,,,,,,,,,,,,,,4325.676576400001,None,tennis,24,48,sing,yellow,4323.6621228999575,None,None,4323.6621228999575,None,,,,,,,,,,,,,,,,,,,,,,,,,,,,,,,,,,,33Sing,001,2022_Aug_29_1415,ProdSingRedoBetween,2021.2.3,59.95904797948804,
48,0,48,0,,,,,,,,,,,,,,,,,,,,,,,,,,4328.179114099999,None,cross,13,49,sing,yellow,4326.1771294999635,None,None,4326.1771294999635,None,,,,,,,,,,,,,,,,,,,,,,,,,,,,,,,,,,,33Sing,001,2022_Aug_29_1415,ProdSingRedoBetween,2021.2.3,59.95904797948804,
49,0,49,0,,,,,,,,,,,,,,,,,,,,,,,,,,4330.681380199967,None,grade,10,50,sing,yellow,4328.681522499945,None,None,4328.681522499945,None,,,,,,,,,,,,,,,,,,,,,,,,,,,,,,,,,,,33Sing,001,2022_Aug_29_1415,ProdSingRedoBetween,2021.2.3,59.95904797948804,
50,0,50,0,,,,,,,,,,,,,,,,,,,,,,,,,,4333.184240799979,None,gesture,58,51,sing,blue,4331.18504859996,None,None,4331.18504859996,None,,,,,,,,,,,,,,,,,,,,,,,,,,,,,,,,,,,33Sing,001,2022_Aug_29_1415,ProdSingRedoBetween,2021.2.3,59.95904797948804,
51,0,51,0,,,,,,,,,,,,,,,,,,,,,,,,,,4335.703115699987,None,leader,53,52,sing,blue,4333.691603999992,None,None,4333.691603999992,None,,,,,,,,,,,,,,,,,,,,,,,,,,,,,,,,,,,33Sing,001,2022_Aug_29_1415,ProdSingRedoBetween,2021.2.3,59.95904797948804,
52,0,52,0,,,,,,,,,,,,,,,,,,,,,,,,,,4338.205609500001,None,split,4,53,sing,yellow,4336.203597899992,None,None,4336.203597899992,None,,,,,,,,,,,,,,,,,,,,,,,,,,,,,,,,,,,33Sing,001,2022_Aug_29_1415,ProdSingRedoBetween,2021.2.3,59.95904797948804,
53,0,53,0,,,,,,,,,,,,,,,,,,,,,,,,,,4340.708314399992,None,husband,34,54,sing,blue,4338.709304899967,None,None,4338.709304899967,None,,,,,,,,,,,,,,,,,,,,,,,,,,,,,,,,,,,33Sing,001,2022_Aug_29_1415,ProdSingRedoBetween,2021.2.3,59.95904797948804,
54,0,54,0,,,,,,,,,,,,,,,,,,,,,,,,,,4343.227551999968,None,platform,49,55,sing,blue,4341.211996699974,None,None,4341.211996699974,None,,,,,,,,,,,,,,,,,,,,,,,,,,,,,,,,,,,33Sing,001,2022_Aug_29_1415,ProdSingRedoBetween,2021.2.3,59.95904797948804,
55,0,55,0,,,,,,,,,,,,,,,,,,,,,,,,,,4345.729627599998,None,quick,9,56,sing,yellow,4343.7279156,None,None,4343.7279156,None,,,,,,,,,,,,,,,,,,,,,,,,,,,,,,,,,,,33Sing,001,2022_Aug_29_1415,ProdSingRedoBetween,2021.2.3,59.95904797948804,
56,0,56,0,,,,,,,,,,,,,,,,,,,,,,,,,,4348.249165099987,None,quarter,43,57,sing,blue,4346.244566099951,None,None,4346.244566099951,None,,,,,,,,,,,,,,,,,,,,,,,,,,,,,,,,,,,33Sing,001,2022_Aug_29_1415,ProdSingRedoBetween,2021.2.3,59.95904797948804,
57,0,57,0,,,,,,,,,,,,,,,,,,,,,,,,,,4350.768402799964,None,prime,2,58,sing,yellow,4348.75325389998,None,None,4348.75325389998,None,,,,,,,,,,,,,,,,,,,,,,,,,,,,,,,,,,,33Sing,001,2022_Aug_29_1415,ProdSingRedoBetween,2021.2.3,59.95904797948804,
58,0,58,0,,,,,,,,,,,,,,,,,,,,,,,,,,4353.2708400999545,None,estate,82,59,sing,red,4351.26878579997,None,None,4351.26878579997,None,,,,,,,,,,,,,,,,,,,,,,,,,,,,,,,,,,,33Sing,001,2022_Aug_29_1415,ProdSingRedoBetween,2021.2.3,59.95904797948804,
59,0,59,0,,,,,,,,,,,,,,,,,,,,,,,,,,4355.773336699989,None,judge,69,60,sing,red,4353.77184479998,None,None,4353.77184479998,None,,,,,,,,,,,,,,,,,,,,,,,,,,,,,,,,,,,33Sing,001,2022_Aug_29_1415,ProdSingRedoBetween,2021.2.3,59.95904797948804,
60,0,60,0,,,,,,,,,,,,,,,,,,,,,,,,,,4358.275576199987,None,error,88,61,sing,red,4356.274704499985,None,None,4356.274704499985,None,,,,,,,,,,,,,,,,,,,,,,,,,,,,,,,,,,,33Sing,001,2022_Aug_29_1415,ProdSingRedoBetween,2021.2.3,59.95904797948804,
61,0,61,0,,,,,,,,,,,,,,,,,,,,,,,,,,4360.778418199974,None,tough,11,62,sing,yellow,4358.776704199961,None,None,4358.776704199961,None,,,,,,,,,,,,,,,,,,,,,,,,,,,,,,,,,,,33Sing,001,2022_Aug_29_1415,ProdSingRedoBetween,2021.2.3,59.95904797948804,
62,0,62,0,,,,,,,,,,,,,,,,,,,,,,,,,,4363.280783999944,None,suggestion,74,63,sing,red,4361.279015699984,None,None,4361.279015699984,None,,,,,,,,,,,,,,,,,,,,,,,,,,,,,,,,,,,33Sing,001,2022_Aug_29_1415,ProdSingRedoBetween,2021.2.3,59.95904797948804,
63,0,63,0,,,,,,,,,,,,,,,,,,,,,,,,,,4365.799931599991,None,institute,54,64,sing,blue,4363.788137700001,None,None,4363.788137700001,None,,,,,,,,,,,,,,,,,,,,,,,,,,,,,,,,,,,33Sing,001,2022_Aug_29_1415,ProdSingRedoBetween,2021.2.3,59.95904797948804,
64,0,64,0,,,,,,,,,,,,,,,,,,,,,,,,,,4368.302519599965,None,medicine,6,65,sing,yellow,4366.301444299985,None,None,4366.301444299985,None,,,,,,,,,,,,,,,,,,,,,,,,,,,,,,,,,,,33Sing,001,2022_Aug_29_1415,ProdSingRedoBetween,2021.2.3,59.95904797948804,
65,0,65,0,,,,,,,,,,,,,,,,,,,,,,,,,,4370.804584599973,None,material,52,66,sing,blue,4368.805123300001,None,None,4368.805123300001,None,,,,,,,,,,,,,,,,,,,,,,,,,,,,,,,,,,,33Sing,001,2022_Aug_29_1415,ProdSingRedoBetween,2021.2.3,59.95904797948804,
66,0,66,0,,,,,,,,,,,,,,,,,,,,,,,,,,4373.3075052999775,None,rapid,41,67,sing,blue,4371.305431699962,None,None,4371.305431699962,None,,,,,,,,,,,,,,,,,,,,,,,,,,,,,,,,,,,33Sing,001,2022_Aug_29_1415,ProdSingRedoBetween,2021.2.3,59.95904797948804,
67,0,67,0,,,,,,,,,,,,,,,,,,,,,,,,,,4375.809941899963,None,track,78,68,sing,red,4373.810534499993,None,None,4373.810534499993,None,,,,,,,,,,,,,,,,,,,,,,,,,,,,,,,,,,,33Sing,001,2022_Aug_29_1415,ProdSingRedoBetween,2021.2.3,59.95904797948804,
68,0,68,0,,,,,,,,,,,,,,,,,,,,,,,,,,4378.329198599968,None,republic,20,69,sing,yellow,4376.313972799981,None,None,4376.313972799981,None,,,,,,,,,,,,,,,,,,,,,,,,,,,,,,,,,,,33Sing,001,2022_Aug_29_1415,ProdSingRedoBetween,2021.2.3,59.95904797948804,
69,0,69,0,,,,,,,,,,,,,,,,,,,,,,,,,,4380.8317026,None,country,7,70,sing,yellow,4378.830914099992,None,None,4378.830914099992,None,,,,,,,,,,,,,,,,,,,,,,,,,,,,,,,,,,,33Sing,001,2022_Aug_29_1415,ProdSingRedoBetween,2021.2.3,59.95904797948804,
70,0,70,0,,,,,,,,,,,,,,,,,,,,,,,,,,4383.3508207999985,None,month,3,71,sing,yellow,4381.33909959998,None,None,4381.33909959998,None,,,,,,,,,,,,,,,,,,,,,,,,,,,,,,,,,,,33Sing,001,2022_Aug_29_1415,ProdSingRedoBetween,2021.2.3,59.95904797948804,
71,0,71,0,,,,,,,,,,,,,,,,,,,,,,,,,,4385.853247399966,None,population,76,72,sing,red,4383.851366399962,None,None,4383.851366399962,None,,,,,,,,,,,,,,,,,,,,,,,,,,,,,,,,,,,33Sing,001,2022_Aug_29_1415,ProdSingRedoBetween,2021.2.3,59.95904797948804,
72,0,72,0,,,,,,,,,,,,,,,,,,,,,,,,,,4388.355794099974,None,skill,21,73,sing,yellow,4386.356193999993,None,None,4386.356193999993,None,,,,,,,,,,,,,,,,,,,,,,,,,,,,,,,,,,,33Sing,001,2022_Aug_29_1415,ProdSingRedoBetween,2021.2.3,59.95904797948804,
73,0,73,0,,,,,,,,,,,,,,,,,,,,,,,,,,4390.858534300001,None,mechanical,32,74,sing,blue,4388.856358199962,None,None,4388.856358199962,None,,,,,,,,,,,,,,,,,,,,,,,,,,,,,,,,,,,33Sing,001,2022_Aug_29_1415,ProdSingRedoBetween,2021.2.3,59.95904797948804,
74,0,74,0,,,,,,,,,,,,,,,,,,,,,,,,,,4393.377571499965,None,straight,84,75,sing,red,4391.363602999947,None,None,4391.363602999947,None,,,,,,,,,,,,,,,,,,,,,,,,,,,,,,,,,,,33Sing,001,2022_Aug_29_1415,ProdSingRedoBetween,2021.2.3,59.95904797948804,
75,0,75,0,,,,,,,,,,,,,,,,,,,,,,,,,,4395.880143599992,None,concern,55,76,sing,blue,4393.878029199957,None,None,4393.878029199957,None,,,,,,,,,,,,,,,,,,,,,,,,,,,,,,,,,,,33Sing,001,2022_Aug_29_1415,ProdSingRedoBetween,2021.2.3,59.95904797948804,
76,0,76,0,,,,,,,,,,,,,,,,,,,,,,,,,,4398.3991561,None,measure,63,77,sing,red,4396.3842726,None,None,4396.3842726,None,,,,,,,,,,,,,,,,,,,,,,,,,,,,,,,,,,,33Sing,001,2022_Aug_29_1415,ProdSingRedoBetween,2021.2.3,59.95904797948804,
77,0,77,0,,,,,,,,,,,,,,,,,,,,,,,,,,4400.9017219999805,None,portion,79,78,sing,red,4398.899799899955,None,None,4398.899799899955,None,,,,,,,,,,,,,,,,,,,,,,,,,,,,,,,,,,,33Sing,001,2022_Aug_29_1415,ProdSingRedoBetween,2021.2.3,59.95904797948804,
78,0,78,0,,,,,,,,,,,,,,,,,,,,,,,,,,4403.403920099954,None,danger,23,79,sing,yellow,4401.402987299953,None,None,4401.402987299953,None,,,,,,,,,,,,,,,,,,,,,,,,,,,,,,,,,,,33Sing,001,2022_Aug_29_1415,ProdSingRedoBetween,2021.2.3,59.95904797948804,
79,0,79,0,,,,,,,,,,,,,,,,,,,,,,,,,,4405.90673529997,None,turkey,67,80,sing,red,4403.906592899992,None,None,4403.906592899992,None,,,,,,,,,,,,,,,,,,,,,,,,,,,,,,,,,,,33Sing,001,2022_Aug_29_1415,ProdSingRedoBetween,2021.2.3,59.95904797948804,
80,0,80,0,,,,,,,,,,,,,,,,,,,,,,,,,,4408.409168699989,None,scale,16,81,sing,yellow,4406.407189299993,None,None,4406.407189299993,None,,,,,,,,,,,,,,,,,,,,,,,,,,,,,,,,,,,33Sing,001,2022_Aug_29_1415,ProdSingRedoBetween,2021.2.3,59.95904797948804,
81,0,81,0,,,,,,,,,,,,,,,,,,,,,,,,,,4410.92841199995,None,display,28,82,sing,yellow,4408.91888469999,None,None,4408.91888469999,None,,,,,,,,,,,,,,,,,,,,,,,,,,,,,,,,,,,33Sing,001,2022_Aug_29_1415,ProdSingRedoBetween,2021.2.3,59.95904797948804,
82,0,82,0,,,,,,,,,,,,,,,,,,,,,,,,,,4413.430862499983,None,place,72,83,sing,red,4411.431856099982,None,None,4411.431856099982,None,,,,,,,,,,,,,,,,,,,,,,,,,,,,,,,,,,,33Sing,001,2022_Aug_29_1415,ProdSingRedoBetween,2021.2.3,59.95904797948804,
83,0,83,0,,,,,,,,,,,,,,,,,,,,,,,,,,4415.950213899952,None,beauty,86,84,sing,red,4413.942028199963,None,None,4413.942028199963,None,,,,,,,,,,,,,,,,,,,,,,,,,,,,,,,,,,,33Sing,001,2022_Aug_29_1415,ProdSingRedoBetween,2021.2.3,59.95904797948804,
84,0,84,0,,,,,,,,,,,,,,,,,,,,,,,,,,4418.452434599982,None,speech,15,85,sing,yellow,4416.452495699981,None,None,4416.452495699981,None,,,,,,,,,,,,,,,,,,,,,,,,,,,,,,,,,,,33Sing,001,2022_Aug_29_1415,ProdSingRedoBetween,2021.2.3,59.95904797948804,
85,0,85,0,,,,,,,,,,,,,,,,,,,,,,,,,,4420.955077499966,None,empty,39,86,sing,blue,4418.953394299955,None,None,4418.953394299955,None,,,,,,,,,,,,,,,,,,,,,,,,,,,,,,,,,,,33Sing,001,2022_Aug_29_1415,ProdSingRedoBetween,2021.2.3,59.95904797948804,
86,0,86,0,,,,,,,,,,,,,,,,,,,,,,,,,,4423.457526499988,None,clean,40,87,sing,blue,4421.457465399988,None,None,4421.457465399988,None,,,,,,,,,,,,,,,,,,,,,,,,,,,,,,,,,,,33Sing,001,2022_Aug_29_1415,ProdSingRedoBetween,2021.2.3,59.95904797948804,
87,0,87,0,,,,,,,,,,,,,,,,,,,,,,,,,,4425.976732499956,None,alert,47,88,sing,blue,4423.962260299944,None,None,4423.962260299944,None,,,,,,,,,,,,,,,,,,,,,,,,,,,,,,,,,,,33Sing,001,2022_Aug_29_1415,ProdSingRedoBetween,2021.2.3,59.95904797948804,
88,0,88,0,,,,,,,,,,,,,,,,,,,,,,,,,,4428.479273899982,None,series,60,89,sing,red,4426.4787991999765,None,None,4426.4787991999765,None,,,,,,,,,,,,,,,,,,,,,,,,,,,,,,,,,,,33Sing,001,2022_Aug_29_1415,ProdSingRedoBetween,2021.2.3,59.95904797948804,
89,0,89,0,,,,,,,,,,,,,,,,,,,,,,,,,,4430.981682199985,None,chief,19,90,sing,yellow,4428.979794199986,None,None,4428.979794199986,None,,,,,,,,,,,,,,,,,,,,,,,,,,,,,,,,,,,33Sing,001,2022_Aug_29_1415,ProdSingRedoBetween,2021.2.3,59.95904797948804,
,,,,,,,,,,,,,,,,,,,,,,,,,,,,,,,,,,,,,,,,,4431.482541099947,None,k,61.13927520002471,4431.482541099947,None,,,,,,,,,,,,,,,,,,,,,,,,,,,,,33Sing,001,2022_Aug_29_1415,ProdSingRedoBetween,2021.2.3,59.95904797948804,
,,,,0,0,0,0,,,,,,,,,,,,,,,,,,,,,,4514.6017246999545,None,,,,,,,,,,,,,,,,,period,136,1,sing,new,null,4493.152154899959,None,4493.152154899959,None,3,18.10148010001285,4493.152154899959,None,18.10148010001285,4511.285932499974,None,4511.797434399952,None,4511.797434399952,None,f,2.776302000042051,4511.797434399952,None,2.776302000042051,,,33Sing,001,2022_Aug_29_1415,ProdSingRedoBetween,2021.2.3,59.95904797948804,
,,,,1,0,1,0,,,,,,,,,,,,,,,,,,,,,,4525.075507899979,None,,,,,,,,,,,,,,,,,season,31,2,sing,old,blue,4515.119655099988,None,4515.119655099988,None,4,8.438136199954897,4515.119655099988,None,8.438136199954897,4523.579466999974,None,4524.0925422,None,4524.0925422,None,f,0.961096599989105,4524.0925422,None,0.961096599989105,,,33Sing,001,2022_Aug_29_1415,ProdSingRedoBetween,2021.2.3,59.95904797948804,
,,,,2,0,2,0,,,,,,,,,,,,,,,,,,,,,,4540.307453799993,None,,,,,,,,,,,,,,,,,music,68,3,sing,old,red,4525.586564500001,None,4525.586564500001,None,2,13.187007100030314,4525.586564500001,None,13.187007100030314,4538.789368400001,None,4539.298125599977,None,4539.298125599977,None,f,0.9794383999542333,4539.298125599977,None,0.9794383999542333,,,33Sing,001,2022_Aug_29_1415,ProdSingRedoBetween,2021.2.3,59.95904797948804,
,,,,3,0,3,0,,,,,,,,,,,,,,,,,,,,,,4549.650120699953,None,,,,,,,,,,,,,,,,,length,103,4,sing,new,null,4540.812237199978,None,4540.812237199978,None,1,3.67324589996133,4540.812237199978,None,3.67324589996133,4544.512349799974,None,4545.011987999955,None,4545.011987999955,None,n,4.609539499972016,4545.011987999955,None,4.609539499972016,,,33Sing,001,2022_Aug_29_1415,ProdSingRedoBetween,2021.2.3,59.95904797948804,
,,,,4,0,4,0,,,,,,,,,,,,,,,,,,,,,,4557.008029599965,None,,,,,,,,,,,,,,,,,candidate,99,5,sing,new,null,4550.150689299975,None,4550.150689299975,None,1,5.278821699961554,4550.150689299975,None,5.278821699961554,4555.458862299973,None,4555.9816714999615,None,4555.9816714999615,None,n,0.9998280999716371,4555.9816714999615,None,0.9998280999716371,,,33Sing,001,2022_Aug_29_1415,ProdSingRedoBetween,2021.2.3,59.95904797948804,
,,,,5,0,5,0,,,,,,,,,,,,,,,,,,,,,,4562.047020899947,None,,,,,,,,,,,,,,,,,fellow,107,6,sing,new,null,4557.508090699965,None,4557.508090699965,None,1,2.913551399949938,4557.508090699965,None,2.913551399949938,4560.445623699983,None,4560.9509507999755,None,4560.9509507999755,None,n,1.0707768999855034,4560.9509507999755,None,1.0707768999855034,,,33Sing,001,2022_Aug_29_1415,ProdSingRedoBetween,2021.2.3,59.95904797948804,
,,,,6,0,6,0,,,,,,,,,,,,,,,,,,,,,,4575.9764577999595,None,,,,,,,,,,,,,,,,,primary,140,7,sing,new,null,4562.555299899948,None,4562.555299899948,None,2,5.810610799991991,4562.555299899948,None,5.810610799991991,4568.3951988999615,None,4568.902914699982,None,4568.902914699982,None,f,7.054775200027507,4568.902914699982,None,7.054775200027507,,,33Sing,001,2022_Aug_29_1415,ProdSingRedoBetween,2021.2.3,59.95904797948804,
,,,,7,0,7,0,,,,,,,,,,,,,,,,,,,,,,4582.052259699965,None,,,,,,,,,,,,,,,,,science,146,8,sing,new,null,4576.487123499974,None,4576.487123499974,None,1,3.1104625999578275,4576.487123499974,None,3.1104625999578275,4579.616604999988,None,4580.130815099983,None,4580.130815099983,None,n,1.898955000040587,4580.130815099983,None,1.898955000040587,,,33Sing,001,2022_Aug_29_1415,ProdSingRedoBetween,2021.2.3,59.95904797948804,
,,,,8,0,8,0,,,,,,,,,,,,,,,,,,,,,,4589.643219599966,None,,,,,,,,,,,,,,,,,alert,47,9,sing,old,blue,4582.568266499962,None,4582.568266499962,None,6,5.141380500048399,4582.568266499962,None,5.141380500048399,4587.743257299997,None,4588.25549729995,None,4588.25549729995,None,r,1.366096200013999,4588.25549729995,None,1.366096200013999,,,33Sing,001,2022_Aug_29_1415,ProdSingRedoBetween,2021.2.3,59.95904797948804,
,,,,9,0,9,0,,,,,,,,,,,,,,,,,,,,,,4598.19847589999,None,,,,,,,,,,,,,,,,,trail,35,10,sing,old,blue,4590.159401099954,None,4590.159401099954,None,6,5.8463492000009865,4590.159401099954,None,5.8463492000009865,4596.032622399973,None,4596.55178509996,None,4596.55178509996,None,r,1.6296671999734826,4596.55178509996,None,1.6296671999734826,,,33Sing,001,2022_Aug_29_1415,ProdSingRedoBetween,2021.2.3,59.95904797948804,
,,,,10,0,10,0,,,,,,,,,,,,,,,,,,,,,,4609.529521799996,None,,,,,,,,,,,,,,,,,quick,9,11,sing,old,yellow,4598.709342999966,None,4598.709342999966,None,1,9.096221200015862,4598.709342999966,None,9.096221200015862,4607.825966499979,None,4608.328003099945,None,4608.328003099945,None,n,1.1736468999879435,4608.328003099945,None,1.1736468999879435,,,33Sing,001,2022_Aug_29_1415,ProdSingRedoBetween,2021.2.3,59.95904797948804,
,,,,11,0,11,0,,,,,,,,,,,,,,,,,,,,,,4615.817430399999,None,,,,,,,,,,,,,,,,,close,177,12,sing,new,null,4610.045952799963,None,4610.045952799963,None,1,4.303744400036521,4610.045952799963,None,4.303744400036521,4614.371419399977,None,4614.882026099949,None,4614.882026099949,None,n,0.9075020999880508,4614.882026099949,None,0.9075020999880508,,,33Sing,001,2022_Aug_29_1415,ProdSingRedoBetween,2021.2.3,59.95904797948804,
,,,,12,0,12,0,,,,,,,,,,,,,,,,,,,,,,4640.340608099999,None,,,,,,,,,,,,,,,,,passage,117,13,sing,new,null,4616.316941799945,None,4616.316941799945,None,1,22.448771499970462,4616.316941799945,None,22.448771499970462,4638.799070399953,None,4639.3085468999925,None,4639.3085468999925,None,n,1.0009762999834493,4639.3085468999925,None,1.0009762999834493,,,33Sing,001,2022_Aug_29_1415,ProdSingRedoBetween,2021.2.3,59.95904797948804,
,,,,13,0,13,0,,,,,,,,,,,,,,,,,,,,,,4645.078726399981,None,,,,,,,,,,,,,,,,,cross,13,14,sing,old,yellow,4640.848116999958,None,4640.848116999958,None,6,2.5013468000106514,4640.848116999958,None,2.5013468000106514,4643.383800499956,None,4643.894150299951,None,4643.894150299951,None,r,1.1673295999644324,4643.894150299951,None,1.1673295999644324,,,33Sing,001,2022_Aug_29_1415,ProdSingRedoBetween,2021.2.3,59.95904797948804,
,,,,14,0,14,0,,,,,,,,,,,,,,,,,,,,,,4652.586236099945,None,,,,,,,,,,,,,,,,,crisis,75,15,sing,old,red,4645.589061499981,None,4645.589061499981,None,6,5.312750599987339,4645.589061499981,None,5.312750599987339,4650.924432999978,None,4651.436986799992,None,4651.436986799992,None,r,1.1204973999992944,4651.436986799992,None,1.1204973999992944,,,33Sing,001,2022_Aug_29_1415,ProdSingRedoBetween,2021.2.3,59.95904797948804,
,,,,15,0,15,0,,,,,,,,,,,,,,,,,,,,,,4657.0073351999745,None,,,,,,,,,,,,,,,,,series,60,16,sing,old,red,4653.094290799985,None,4653.094290799985,None,6,2.40723169996636,4653.094290799985,None,2.40723169996636,4655.523784499965,None,4656.023848699988,None,4656.023848699988,None,r,0.9656183000188321,4656.023848699988,None,0.9656183000188321,,,33Sing,001,2022_Aug_29_1415,ProdSingRedoBetween,2021.2.3,59.95904797948804,
,,,,16,0,16,0,,,,,,,,,,,,,,,,,,,,,,4669.203904599999,None,,,,,,,,,,,,,,,,,profession,132,17,sing,new,null,4657.519007799972,None,4657.519007799972,None,1,10.174498699954711,4657.519007799972,None,10.174498699954711,4667.718927299953,None,4668.224535999994,None,4668.224535999994,None,n,0.956972100015264,4668.224535999994,None,0.956972100015264,,,33Sing,001,2022_Aug_29_1415,ProdSingRedoBetween,2021.2.3,59.95904797948804,
,,,,17,0,17,0,,,,,,,,,,,,,,,,,,,,,,4676.980001299991,None,,,,,,,,,,,,,,,,,grade,10,18,sing,old,yellow,4669.704082699958,None,4669.704082699958,None,6,2.6375533000100404,4669.704082699958,None,2.6375533000100404,4672.3775951999705,None,4672.894197999965,None,4672.894197999965,None,r,4.055428299994674,4672.894197999965,None,4.055428299994674,,,33Sing,001,2022_Aug_29_1415,ProdSingRedoBetween,2021.2.3,59.95904797948804,
,,,,18,0,18,0,,,,,,,,,,,,,,,,,,,,,,4684.701531399973,None,,,,,,,,,,,,,,,,,interview,25,19,sing,old,yellow,4677.506313999998,None,4677.506313999998,None,6,2.7951618999941275,4677.506313999998,None,2.7951618999941275,4680.342343099997,None,4680.847720299964,None,4680.847720299964,None,r,3.8297749999910593,4680.847720299964,None,3.8297749999910593,,,33Sing,001,2022_Aug_29_1415,ProdSingRedoBetween,2021.2.3,59.95904797948804,
,,,,19,0,19,0,,,,,,,,,,,,,,,,,,,,,,4689.1410996999475,None,,,,,,,,,,,,,,,,,symbol,113,20,sing,new,null,4685.21376959997,None,4685.21376959997,None,1,2.199771099956706,4685.21376959997,None,2.199771099956706,4687.442253299989,None,4687.955102899985,None,4687.955102899985,None,n,1.154435199976433,4687.955102899985,None,1.154435199976433,,,33Sing,001,2022_Aug_29_1415,ProdSingRedoBetween,2021.2.3,59.95904797948804,
,,,,20,0,20,0,,,,,,,,,,,,,,,,,,,,,,4705.672503199952,None,,,,,,,,,,,,,,,,,partner,170,21,sing,new,null,4689.658752999967,None,4689.658752999967,None,1,14.186672000039835,4689.658752999967,None,14.186672000039835,4703.875346199959,None,4704.387887399993,None,4704.387887399993,None,n,1.2657534999889322,4704.387887399993,None,1.2657534999889322,,,33Sing,001,2022_Aug_29_1415,ProdSingRedoBetween,2021.2.3,59.95904797948804,
,,,,21,0,21,0,,,,,,,,,,,,,,,,,,,,,,4709.910142699955,None,,,,,,,,,,,,,,,,,gesture,58,22,sing,old,blue,4706.183331799984,None,4706.183331799984,None,6,2.1820282000117004,4706.183331799984,None,2.1820282000117004,4708.393158399966,None,4708.900256499997,None,4708.900256499997,None,r,0.9851618999964558,4708.900256499997,None,0.9851618999964558,,,33Sing,001,2022_Aug_29_1415,ProdSingRedoBetween,2021.2.3,59.95904797948804,
,,,,22,0,22,0,,,,,,,,,,,,,,,,,,,,,,4721.721942599979,None,,,,,,,,,,,,,,,,,whole,33,23,sing,old,blue,4710.410729199997,None,4710.410729199997,None,6,9.434734800015576,4710.410729199997,None,9.434734800015576,4719.871294999961,None,4720.374808499997,None,4720.374808499997,None,r,1.3266407000483014,4720.374808499997,None,1.3266407000483014,,,33Sing,001,2022_Aug_29_1415,ProdSingRedoBetween,2021.2.3,59.95904797948804,
,,,,23,0,23,0,,,,,,,,,,,,,,,,,,,,,,4731.052470099996,None,,,,,,,,,,,,,,,,,empty,39,24,sing,old,blue,4722.233564099995,None,4722.233564099995,None,6,6.516065300034825,4722.233564099995,None,6.516065300034825,4728.782932099944,None,4729.300223499944,None,4729.300223499944,None,r,1.7213286999613047,4729.300223499944,None,1.7213286999613047,,,33Sing,001,2022_Aug_29_1415,ProdSingRedoBetween,2021.2.3,59.95904797948804,
,,,,24,0,24,0,,,,,,,,,,,,,,,,,,,,,,4756.056134499959,None,,,,,,,,,,,,,,,,,report,66,25,sing,old,red,4731.570989899978,None,4731.570989899978,None,1,23.57833920000121,4731.570989899978,None,23.57833920000121,4755.172104500001,None,4755.672697299975,None,4755.672697299975,None,n,0.36487039999337867,4755.672697299975,None,0.36487039999337867,,,33Sing,001,2022_Aug_29_1415,ProdSingRedoBetween,2021.2.3,59.95904797948804,
,,,,25,0,25,0,,,,,,,,,,,,,,,,,,,,,,4778.395091299957,None,,,,,,,,,,,,,,,,,instrument,139,26,sing,new,null,4756.570598699967,None,4756.570598699967,None,3,20.450806199980434,4756.570598699967,None,20.450806199980434,4777.046993899974,None,4777.561114099983,None,4777.561114099983,None,f,0.8043473000288941,4777.561114099983,None,0.8043473000288941,,,33Sing,001,2022_Aug_29_1415,ProdSingRedoBetween,2021.2.3,59.95904797948804,
,,,,26,0,26,0,,,,,,,,,,,,,,,,,,,,,,4785.8357996999985,None,,,,,,,,,,,,,,,,,council,111,27,sing,new,null,4778.908568799961,None,4778.908568799961,None,1,5.089157599955797,4778.908568799961,None,5.089157599955797,4784.01827629999,None,4784.517956299998,None,4784.517956299998,None,n,1.295441300026141,4784.517956299998,None,1.295441300026141,,,33Sing,001,2022_Aug_29_1415,ProdSingRedoBetween,2021.2.3,59.95904797948804,
,,,,27,0,27,0,,,,,,,,,,,,,,,,,,,,,,4794.478072499973,None,,,,,,,,,,,,,,,,,clean,40,28,sing,old,blue,4786.343755899987,None,4786.343755899987,None,6,4.773678499972448,4786.343755899987,None,4.773678499972448,4791.146530199971,None,4791.658274599991,None,4791.658274599991,None,r,2.795152299979236,4791.658274599991,None,2.795152299979236,,,33Sing,001,2022_Aug_29_1415,ProdSingRedoBetween,2021.2.3,59.95904797948804,
,,,,28,0,28,0,,,,,,,,,,,,,,,,,,,,,,4804.020661699993,None,,,,,,,,,,,,,,,,,detective,157,29,sing,new,null,4794.983286099974,None,4794.983286099974,None,1,6.750145499943756,4794.983286099974,None,6.750145499943756,4801.75307409995,None,4802.257609499968,None,4802.257609499968,None,n,1.731843400048092,4802.257609499968,None,1.731843400048092,,,33Sing,001,2022_Aug_29_1415,ProdSingRedoBetween,2021.2.3,59.95904797948804,
,,,,29,0,29,0,,,,,,,,,,,,,,,,,,,,,,4831.2978976999875,None,,,,,,,,,,,,,,,,,present,162,30,sing,new,null,4804.525362999993,None,4804.525362999993,None,2,25.90396059997147,4804.525362999993,None,25.90396059997147,4830.449710799963,None,4830.967187099974,None,4830.967187099974,None,f,0.3101650000317022,4830.967187099974,None,0.3101650000317022,,,33Sing,001,2022_Aug_29_1415,ProdSingRedoBetween,2021.2.3,59.95904797948804,
,,,,30,0,30,0,,,,,,,,,,,,,,,,,,,,,,4835.084819799988,None,,,,,,,,,,,,,,,,,month,3,31,sing,old,yellow,4831.804220199992,None,4831.804220199992,None,6,2.065157199976966,4831.804220199992,None,2.065157199976966,4833.904307299992,None,4834.4192607,None,4834.4192607,None,r,0.6501489999936894,4834.4192607,None,0.6501489999936894,,,33Sing,001,2022_Aug_29_1415,ProdSingRedoBetween,2021.2.3,59.95904797948804,
,,,,31,0,31,0,,,,,,,,,,,,,,,,,,,,,,4865.983285199967,None,,,,,,,,,,,,,,,,,concern,55,32,sing,old,blue,4835.591434199945,None,4835.591434199945,None,5,29.542021300003398,4835.591434199945,None,29.542021300003398,4865.17803369998,None,4865.687178299995,None,4865.687178299995,None,f,0.2781727000256069,4865.687178299995,None,0.2781727000256069,,,33Sing,001,2022_Aug_29_1415,ProdSingRedoBetween,2021.2.3,59.95904797948804,
,,,,32,0,32,0,,,,,,,,,,,,,,,,,,,,,,4888.821798799967,None,,,,,,,,,,,,,,,,,track,78,33,sing,old,red,4866.492132199986,None,4866.492132199986,None,1,20.01720280002337,4866.492132199986,None,20.01720280002337,4886.543093099957,None,4887.056142799964,None,4887.056142799964,None,n,1.7412420000182465,4887.056142799964,None,1.7412420000182465,,,33Sing,001,2022_Aug_29_1415,ProdSingRedoBetween,2021.2.3,59.95904797948804,
,,,,33,0,33,0,,,,,,,,,,,,,,,,,,,,,,4894.595692199946,None,,,,,,,,,,,,,,,,,estate,82,34,sing,old,red,4889.332358999993,None,4889.332358999993,None,6,4.089458999980707,4889.332358999993,None,4.089458999980707,4893.464397999982,None,4893.979761399969,None,4893.979761399969,None,r,0.5855999999912456,4893.979761399969,None,0.5855999999912456,,,33Sing,001,2022_Aug_29_1415,ProdSingRedoBetween,2021.2.3,59.95904797948804,
,,,,34,0,34,0,,,,,,,,,,,,,,,,,,,,,,4901.085168699967,None,,,,,,,,,,,,,,,,,charter,142,35,sing,new,null,4895.0966474000015,None,4895.0966474000015,None,1,4.508676199999172,4895.0966474000015,None,4.508676199999172,4899.638038699981,None,4900.150099199964,None,4900.150099199964,None,n,0.9031779000069946,4900.150099199964,None,0.9031779000069946,,,33Sing,001,2022_Aug_29_1415,ProdSingRedoBetween,2021.2.3,59.95904797948804,
,,,,35,0,35,0,,,,,,,,,,,,,,,,,,,,,,4905.471987399971,None,,,,,,,,,,,,,,,,,drove,87,36,sing,old,red,4901.589305599977,None,4901.589305599977,None,6,3.0159536999999546,4901.589305599977,None,3.0159536999999546,4904.624176699959,None,4905.1381046999595,None,4905.1381046999595,None,r,0.31509200000436977,4905.1381046999595,None,0.31509200000436977,,,33Sing,001,2022_Aug_29_1415,ProdSingRedoBetween,2021.2.3,59.95904797948804,
,,,,36,0,36,0,,,,,,,,,,,,,,,,,,,,,,4913.263922599959,None,,,,,,,,,,,,,,,,,title,129,37,sing,new,null,4905.972353899968,None,4905.972353899968,None,1,6.440957900020294,4905.972353899968,None,6.440957900020294,4912.428629599977,None,4912.929589899955,None,4912.929589899955,None,n,0.30780150002101436,4912.929589899955,None,0.30780150002101436,,,33Sing,001,2022_Aug_29_1415,ProdSingRedoBetween,2021.2.3,59.95904797948804,
,,,,37,0,37,0,,,,,,,,,,,,,,,,,,,,,,4928.979554599966,None,,,,,,,,,,,,,,,,,republic,20,38,sing,old,yellow,4913.775595199957,None,4913.775595199957,None,4,14.429700799984857,4913.775595199957,None,14.429700799984857,4928.229812199948,None,4928.75121909997,None,4928.75121909997,None,f,0.19809039996471256,4928.75121909997,None,0.19809039996471256,,,33Sing,001,2022_Aug_29_1415,ProdSingRedoBetween,2021.2.3,59.95904797948804,
,,,,38,0,38,0,,,,,,,,,,,,,,,,,,,,,,4959.158764599997,None,,,,,,,,,,,,,,,,,place,72,39,sing,old,red,4929.482490699971,None,4929.482490699971,None,1,28.682698599994183,4929.482490699971,None,28.682698599994183,4958.192284199991,None,4958.699499099981,None,4958.699499099981,None,n,0.44162459997460246,4958.699499099981,None,0.44162459997460246,,,33Sing,001,2022_Aug_29_1415,ProdSingRedoBetween,2021.2.3,59.95904797948804,
,,,,39,0,39,0,,,,,,,,,,,,,,,,,,,,,,4965.614949599956,None,,,,,,,,,,,,,,,,,store,96,40,sing,new,null,4959.660485,None,4959.660485,None,1,5.22461639996618,4959.660485,None,5.22461639996618,4964.914464499976,None,4965.415396199969,None,4965.415396199969,None,n,0.18181070004357025,4965.415396199969,None,0.18181070004357025,,,33Sing,001,2022_Aug_29_1415,ProdSingRedoBetween,2021.2.3,59.95904797948804,
,,,,40,0,40,0,,,,,,,,,,,,,,,,,,,,,,4978.644861199951,None,,,,,,,,,,,,,,,,,reach,166,41,sing,new,null,4966.129058499995,None,4966.129058499995,None,1,11.788149800035171,4966.129058499995,None,11.788149800035171,4977.947170999949,None,4978.4615746999625,None,4978.4615746999625,None,n,0.16762359999120235,4978.4615746999625,None,0.16762359999120235,,,33Sing,001,2022_Aug_29_1415,ProdSingRedoBetween,2021.2.3,59.95904797948804,
,,,,41,0,41,0,,,,,,,,,,,,,,,,,,,,,,4983.967033599969,None,,,,,,,,,,,,,,,,,split,4,42,sing,old,yellow,4979.156680599961,None,4979.156680599961,None,1,4.016526199993677,4979.156680599961,None,4.016526199993677,4983.1995796999545,None,4983.700121499947,None,4983.700121499947,None,n,0.24910179997095838,4983.700121499947,None,0.24910179997095838,,,33Sing,001,2022_Aug_29_1415,ProdSingRedoBetween,2021.2.3,59.95904797948804,
,,,,42,0,42,0,,,,,,,,,,,,,,,,,,,,,,5007.5071204999695,None,,,,,,,,,,,,,,,,,position,37,43,sing,old,blue,4984.477863599954,None,4984.477863599954,None,3,22.151385199977085,4984.477863599954,None,22.151385199977085,5006.6629542999435,None,5007.17835339997,None,5007.17835339997,None,f,0.3068479999783449,5007.17835339997,None,0.3068479999783449,,,33Sing,001,2022_Aug_29_1415,ProdSingRedoBetween,2021.2.3,59.95904797948804,
,,,,43,0,43,0,,,,,,,,,,,,,,,,,,,,,,5013.729936699965,None,,,,,,,,,,,,,,,,,little,48,44,sing,old,blue,5008.007987999998,None,5008.007987999998,None,6,2.3012344000162557,5008.007987999998,None,2.3012344000162557,5010.326379699982,None,5010.828027699958,None,5010.828027699958,None,r,2.8731213999562897,5010.828027699958,None,2.8731213999562897,,,33Sing,001,2022_Aug_29_1415,ProdSingRedoBetween,2021.2.3,59.95904797948804,
,,,,44,0,44,0,,,,,,,,,,,,,,,,,,,,,,5037.670338899945,None,,,,,,,,,,,,,,,,,order,105,45,sing,new,null,5014.233673599956,None,5014.233673599956,None,2,20.355478999961633,5014.233673599956,None,20.355478999961633,5034.617915699957,None,5035.1208134999615,None,5035.1208134999615,None,f,2.5324007000308484,5035.1208134999615,None,2.5324007000308484,,,33Sing,001,2022_Aug_29_1415,ProdSingRedoBetween,2021.2.3,59.95904797948804,
,,,,45,0,45,0,,,,,,,,,,,,,,,,,,,,,,5049.135660699976,None,,,,,,,,,,,,,,,,,tough,11,46,sing,old,yellow,5038.177196799952,None,5038.177196799952,None,1,10.148031299991999,5038.177196799952,None,10.148031299991999,5048.351314599975,None,5048.8672725999495,None,5048.8672725999495,None,n,0.2421324999886565,5048.8672725999495,None,0.2421324999886565,,,33Sing,001,2022_Aug_29_1415,ProdSingRedoBetween,2021.2.3,59.95904797948804,
,,,,46,0,46,0,,,,,,,,,,,,,,,,,,,,,,5053.903411799984,None,,,,,,,,,,,,,,,,,voice,102,47,sing,new,null,5049.657305199944,None,5049.657305199944,None,1,2.8758892999612726,5049.657305199944,None,2.8758892999612726,5052.551848999981,None,5053.0569738999475,None,5053.0569738999475,None,n,0.8201384000130929,5053.0569738999475,None,0.8201384000130929,,,33Sing,001,2022_Aug_29_1415,ProdSingRedoBetween,2021.2.3,59.95904797948804,
,,,,47,0,47,0,,,,,,,,,,,,,,,,,,,,,,5057.840499999991,None,,,,,,,,,,,,,,,,,straight,84,48,sing,old,red,5054.415871999983,None,5054.415871999983,None,6,2.005210499977693,5054.415871999983,None,2.005210499977693,5056.44456579996,None,5056.9592461999855,None,5056.9592461999855,None,r,0.8538394999923185,5056.9592461999855,None,0.8538394999923185,,,33Sing,001,2022_Aug_29_1415,ProdSingRedoBetween,2021.2.3,59.95904797948804,
,,,,48,0,48,0,,,,,,,,,,,,,,,,,,,,,,5102.969102199946,None,,,,,,,,,,,,,,,,,private,121,49,sing,new,null,5058.350048699998,None,5058.350048699998,None,2,43.89514840004267,5058.350048699998,None,43.89514840004267,5102.277421999956,None,5102.7857314999565,None,5102.7857314999565,None,f,0.15526510000927374,5102.7857314999565,None,0.15526510000927374,,,33Sing,001,2022_Aug_29_1415,ProdSingRedoBetween,2021.2.3,59.95904797948804,
,,,,49,0,49,0,,,,,,,,,,,,,,,,,,,,,,5107.156429299968,None,,,,,,,,,,,,,,,,,income,138,50,sing,new,null,5103.477298499958,None,5103.477298499958,None,1,2.631870999990497,5103.477298499958,None,2.631870999990497,5106.140190099948,None,5106.647130999947,None,5106.647130999947,None,n,0.4862098000012338,5106.647130999947,None,0.4862098000012338,,,33Sing,001,2022_Aug_29_1415,ProdSingRedoBetween,2021.2.3,59.95904797948804,
,,,,50,0,50,0,,,,,,,,,,,,,,,,,,,,,,5115.164283699996,None,,,,,,,,,,,,,,,,,crowd,174,51,sing,new,null,5107.667096099991,None,5107.667096099991,None,3,6.658042999973986,5107.667096099991,None,6.658042999973986,5114.353197999997,None,5114.880988399964,None,5114.880988399964,None,f,0.25204370002029464,5114.880988399964,None,0.25204370002029464,,,33Sing,001,2022_Aug_29_1415,ProdSingRedoBetween,2021.2.3,59.95904797948804,
,,,,51,0,51,0,,,,,,,,,,,,,,,,,,,,,,5123.356034299999,None,,,,,,,,,,,,,,,,,story,127,52,sing,new,null,5115.665064299945,None,5115.665064299945,None,1,6.204141800000798,5115.665064299945,None,6.204141800000798,5121.893870499975,None,5122.40719259996,None,5122.40719259996,None,n,0.9178814999759197,5122.40719259996,None,0.9178814999759197,,,33Sing,001,2022_Aug_29_1415,ProdSingRedoBetween,2021.2.3,59.95904797948804,
,,,,52,0,52,0,,,,,,,,,,,,,,,,,,,,,,5132.631821599964,None,,,,,,,,,,,,,,,,,drama,8,53,sing,old,yellow,5123.856738499948,None,5123.856738499948,None,6,7.940427299996372,5123.856738499948,None,7.940427299996372,5131.821281899989,None,5132.332384599955,None,5132.332384599955,None,r,0.27265939995413646,5132.332384599955,None,0.27265939995413646,,,33Sing,001,2022_Aug_29_1415,ProdSingRedoBetween,2021.2.3,59.95904797948804,
,,,,53,0,53,0,,,,,,,,,,,,,,,,,,,,,,5136.235380499973,None,,,,,,,,,,,,,,,,,government,30,54,sing,old,blue,5133.134175399959,None,5133.134175399959,None,6,2.04696500004502,5133.134175399959,None,2.04696500004502,5135.211137799954,None,5135.722062499961,None,5135.722062499961,None,r,0.48302179999882355,5135.722062499961,None,0.48302179999882355,,,33Sing,001,2022_Aug_29_1415,ProdSingRedoBetween,2021.2.3,59.95904797948804,
,,,,54,0,54,0,,,,,,,,,,,,,,,,,,,,,,5142.074621899985,None,,,,,,,,,,,,,,,,,trash,73,55,sing,old,red,5136.747811799985,None,5136.747811799985,None,6,3.9852784000104293,5136.747811799985,None,3.9852784000104293,5140.760110599978,None,5141.275086599984,None,5141.275086599984,None,r,0.7780041000223719,5141.275086599984,None,0.7780041000223719,,,33Sing,001,2022_Aug_29_1415,ProdSingRedoBetween,2021.2.3,59.95904797948804,
,,,,55,0,55,0,,,,,,,,,,,,,,,,,,,,,,5159.443589399976,None,,,,,,,,,,,,,,,,,quiet,110,56,sing,new,null,5142.580534199951,None,5142.580534199951,None,4,16.104590200004168,5142.580534199951,None,16.104590200004168,5158.713976999978,None,5159.225334999966,None,5159.225334999966,None,f,0.19592789997113869,5159.225334999966,None,0.19592789997113869,,,33Sing,001,2022_Aug_29_1415,ProdSingRedoBetween,2021.2.3,59.95904797948804,
,,,,56,0,56,0,,,,,,,,,,,,,,,,,,,,,,5166.332348999975,None,,,,,,,,,,,,,,,,,listen,176,57,sing,new,null,5159.962564699992,None,5159.962564699992,None,1,5.40245120000327,5159.962564699992,None,5.40245120000327,5165.382449099969,None,5165.886753599974,None,5165.886753599974,None,n,0.43038430000888184,5165.886753599974,None,0.43038430000888184,,,33Sing,001,2022_Aug_29_1415,ProdSingRedoBetween,2021.2.3,59.95904797948804,
,,,,57,0,57,0,,,,,,,,,,,,,,,,,,,,,,5173.094650599989,None,,,,,,,,,,,,,,,,,match,141,58,sing,new,null,5166.836847699946,None,5166.836847699946,None,1,4.952272500027902,5166.836847699946,None,4.952272500027902,5171.8156820999575,None,5172.325148999982,None,5172.325148999982,None,n,0.7441525000031106,5172.325148999982,None,0.7441525000031106,,,33Sing,001,2022_Aug_29_1415,ProdSingRedoBetween,2021.2.3,59.95904797948804,
,,,,58,0,58,0,,,,,,,,,,,,,,,,,,,,,,5184.600411799969,None,,,,,,,,,,,,,,,,,election,100,59,sing,new,null,5173.619641799945,None,5173.619641799945,None,5,10.281334800005425,5173.619641799945,None,10.281334800005425,5183.91750109999,None,5184.4197883000015,None,5184.4197883000015,None,f,0.15327750000869855,5184.4197883000015,None,0.15327750000869855,,,33Sing,001,2022_Aug_29_1415,ProdSingRedoBetween,2021.2.3,59.95904797948804,
,,,,59,0,59,0,,,,,,,,,,,,,,,,,,,,,,5189.688978499966,None,,,,,,,,,,,,,,,,,tragedy,124,60,sing,new,null,5185.105000299984,None,5185.105000299984,None,1,3.339944100007415,5185.105000299984,None,3.339944100007415,5188.470819999988,None,5188.975875199947,None,5188.975875199947,None,n,0.6931849000393413,5188.975875199947,None,0.6931849000393413,,,33Sing,001,2022_Aug_29_1415,ProdSingRedoBetween,2021.2.3,59.95904797948804,
,,,,60,0,60,0,,,,,,,,,,,,,,,,,,,,,,5200.616324099945,None,,,,,,,,,,,,,,,,,group,149,61,sing,new,null,5190.196438399958,None,5190.196438399958,None,2,9.744457699998748,5190.196438399958,None,9.744457699998748,5199.967248299974,None,5200.46640559996,None,5200.46640559996,None,f,0.12262669997289777,5200.46640559996,None,0.12262669997289777,,,33Sing,001,2022_Aug_29_1415,ProdSingRedoBetween,2021.2.3,59.95904797948804,
,,,,61,0,61,0,,,,,,,,,,,,,,,,,,,,,,5210.329438199988,None,,,,,,,,,,,,,,,,,danger,23,62,sing,old,yellow,5201.118768999993,None,5201.118768999993,None,5,8.558387500001118,5201.118768999993,None,8.558387500001118,5209.694224899984,None,5210.209324099997,None,5210.209324099997,None,f,0.09184329997515306,5210.209324099997,None,0.09184329997515306,,,33Sing,001,2022_Aug_29_1415,ProdSingRedoBetween,2021.2.3,59.95904797948804,
,,,,62,0,62,0,,,,,,,,,,,,,,,,,,,,,,5226.442130899988,None,,,,,,,,,,,,,,,,,property,178,63,sing,new,null,5210.853375799954,None,5210.853375799954,None,3,14.927562199998647,5210.853375799954,None,14.927562199998647,5225.809177899966,None,5226.314805599977,None,5226.314805599977,None,f,0.10619269998278469,5226.314805599977,None,0.10619269998278469,,,33Sing,001,2022_Aug_29_1415,ProdSingRedoBetween,2021.2.3,59.95904797948804,
,,,,63,0,63,0,,,,,,,,,,,,,,,,,,,,,,5233.615989099955,None,,,,,,,,,,,,,,,,,state,64,64,sing,old,red,5226.953048399999,None,5226.953048399999,None,6,5.819959500047844,5226.953048399999,None,5.819959500047844,5232.7994075999595,None,5233.306644699944,None,5233.306644699944,None,r,0.28226120001636446,5233.306644699944,None,0.28226120001636446,,,33Sing,001,2022_Aug_29_1415,ProdSingRedoBetween,2021.2.3,59.95904797948804,
,,,,64,0,64,0,,,,,,,,,,,,,,,,,,,,,,5237.237743199978,None,,,,,,,,,,,,,,,,,pretty,175,65,sing,new,null,5234.126929799968,None,5234.126929799968,None,1,1.9503297999617644,5234.126929799968,None,1.9503297999617644,5236.1037639999995,None,5236.627161299984,None,5236.627161299984,None,n,0.5858971000416204,5236.627161299984,None,0.5858971000416204,,,33Sing,001,2022_Aug_29_1415,ProdSingRedoBetween,2021.2.3,59.95904797948804,
,,,,65,0,65,0,,,,,,,,,,,,,,,,,,,,,,5241.226997799997,None,,,,,,,,,,,,,,,,,rural,154,66,sing,new,null,5237.738764299953,None,5237.738764299953,None,1,2.0903860999969766,5237.738764299953,None,2.0903860999969766,5239.855554799957,None,5240.3615142999915,None,5240.3615142999915,None,n,0.8434331999742426,5240.3615142999915,None,0.8434331999742426,,,33Sing,001,2022_Aug_29_1415,ProdSingRedoBetween,2021.2.3,59.95904797948804,
,,,,66,0,66,0,,,,,,,,,,,,,,,,,,,,,,5246.662209299975,None,,,,,,,,,,,,,,,,,space,131,67,sing,new,null,5241.741063699999,None,5241.741063699999,None,1,4.104154200002085,5241.741063699999,None,4.104154200002085,5245.868029999954,None,5246.383629499993,None,5246.383629499993,None,n,0.26133910001954064,5246.383629499993,None,0.26133910001954064,,,33Sing,001,2022_Aug_29_1415,ProdSingRedoBetween,2021.2.3,59.95904797948804,
,,,,67,0,67,0,,,,,,,,,,,,,,,,,,,,,,5256.789010899956,None,,,,,,,,,,,,,,,,,generation,115,68,sing,new,null,5247.163350999996,None,5247.163350999996,None,1,8.897683600021992,5247.163350999996,None,8.897683600021992,5256.094145899988,None,5256.609616699978,None,5256.609616699978,None,n,0.1632668999955058,5256.609616699978,None,0.1632668999955058,,,33Sing,001,2022_Aug_29_1415,ProdSingRedoBetween,2021.2.3,59.95904797948804,
,,,,68,0,68,0,,,,,,,,,,,,,,,,,,,,,,5268.4009593999945,None,,,,,,,,,,,,,,,,,break,112,69,sing,new,null,5257.305386299966,None,5257.305386299966,None,1,10.315753099974245,5257.305386299966,None,10.315753099974245,5267.657684399979,None,5268.173411799944,None,5268.173411799944,None,n,0.20762629999080673,5268.173411799944,None,0.20762629999080673,,,33Sing,001,2022_Aug_29_1415,ProdSingRedoBetween,2021.2.3,59.95904797948804,
,,,,69,0,69,0,,,,,,,,,,,,,,,,,,,,,,5281.29707109998,None,,,,,,,,,,,,,,,,,captain,167,70,sing,new,null,5268.908726599999,None,5268.908726599999,None,5,11.688213599962182,5268.908726599999,None,11.688213599962182,5280.614512299944,None,5281.113731699996,None,5281.113731699996,None,f,0.16332170000532642,5281.113731699996,None,0.16332170000532642,,,33Sing,001,2022_Aug_29_1415,ProdSingRedoBetween,2021.2.3,59.95904797948804,
,,,,70,0,70,0,,,,,,,,,,,,,,,,,,,,,,5297.579970599967,None,,,,,,,,,,,,,,,,,member,29,71,sing,old,blue,5281.80335209996,None,5281.80335209996,None,2,15.057586999959312,5281.80335209996,None,15.057586999959312,5296.882299199991,None,5297.397334399982,None,5297.397334399982,None,f,0.15164850000292063,5297.397334399982,None,0.15164850000292063,,,33Sing,001,2022_Aug_29_1415,ProdSingRedoBetween,2021.2.3,59.95904797948804,
,,,,71,0,71,0,,,,,,,,,,,,,,,,,,,,,,5320.102456699999,None,,,,,,,,,,,,,,,,,escape,114,72,sing,new,null,5298.098897299962,None,5298.098897299962,None,2,21.290185099991504,5298.098897299962,None,21.290185099991504,5319.421165299951,None,5319.941727400001,None,5319.941727400001,None,f,0.13523049996001646,5319.941727400001,None,0.13523049996001646,,,33Sing,001,2022_Aug_29_1415,ProdSingRedoBetween,2021.2.3,59.95904797948804,
,,,,72,0,72,0,,,,,,,,,,,,,,,,,,,,,,5324.840306599974,None,,,,,,,,,,,,,,,,,platform,49,73,sing,old,blue,5320.615084899997,None,5320.615084899997,None,5,3.3818743999581784,5320.615084899997,None,3.3818743999581784,5324.029538299947,None,5324.546759299992,None,5324.546759299992,None,f,0.27415169996675104,5324.546759299992,None,0.27415169996675104,,,33Sing,001,2022_Aug_29_1415,ProdSingRedoBetween,2021.2.3,59.95904797948804,
,,,,73,0,73,0,,,,,,,,,,,,,,,,,,,,,,5336.90431209997,None,,,,,,,,,,,,,,,,,territory,168,74,sing,new,null,5325.345314299979,None,5325.345314299979,None,1,10.883634400030132,5325.345314299979,None,10.883634400030132,5336.256732899987,None,5336.769216599991,None,5336.769216599991,None,n,0.11572020000312477,5336.769216599991,None,0.11572020000312477,,,33Sing,001,2022_Aug_29_1415,ProdSingRedoBetween,2021.2.3,59.95904797948804,
,,,,74,0,74,0,,,,,,,,,,,,,,,,,,,,,,5359.608622799977,None,,,,,,,,,,,,,,,,,course,128,75,sing,new,null,5337.422327599954,None,5337.422327599954,None,1,21.17458250001073,5337.422327599954,None,21.17458250001073,5358.630053799949,None,5359.141579299991,None,5359.141579299991,None,n,0.43926690000807866,5359.141579299991,None,0.43926690000807866,,,33Sing,001,2022_Aug_29_1415,ProdSingRedoBetween,2021.2.3,59.95904797948804,
,,,,75,0,75,0,,,,,,,,,,,,,,,,,,,,,,5363.295560699946,None,,,,,,,,,,,,,,,,,prime,2,76,sing,old,yellow,5360.128605899983,None,5360.128605899983,None,6,1.7085220000008121,5360.128605899983,None,1.7085220000008121,5361.860870399978,None,5362.367485399998,None,5362.367485399998,None,r,0.9095098999678157,5362.367485399998,None,0.9095098999678157,,,33Sing,001,2022_Aug_29_1415,ProdSingRedoBetween,2021.2.3,59.95904797948804,
,,,,76,0,76,0,,,,,,,,,,,,,,,,,,,,,,5372.257127599965,None,,,,,,,,,,,,,,,,,orchestra,45,77,sing,old,blue,5363.80813749996,None,5363.80813749996,None,5,7.7167893999721855,5363.80813749996,None,7.7167893999721855,5371.5572636,None,5372.074386399996,None,5372.074386399996,None,f,0.15453529998194426,5372.074386399996,None,0.15453529998194426,,,33Sing,001,2022_Aug_29_1415,ProdSingRedoBetween,2021.2.3,59.95904797948804,
,,,,77,0,77,0,,,,,,,,,,,,,,,,,,,,,,5375.908666799951,None,,,,,,,,,,,,,,,,,harmony,160,78,sing,new,null,5372.773927499948,None,5372.773927499948,None,1,2.0389618999906816,5372.773927499948,None,2.0389618999906816,5374.847279999987,None,5375.362184899976,None,5375.362184899976,None,n,0.5228809000109322,5375.362184899976,None,0.5228809000109322,,,33Sing,001,2022_Aug_29_1415,ProdSingRedoBetween,2021.2.3,59.95904797948804,
,,,,78,0,78,0,,,,,,,,,,,,,,,,,,,,,,5381.930602299981,None,,,,,,,,,,,,,,,,,nature,143,79,sing,new,null,5376.411443899968,None,5376.411443899968,None,1,4.721614799986128,5376.411443899968,None,4.721614799986128,5381.167677199992,None,5381.683175499958,None,5381.683175499958,None,n,0.2177400000509806,5381.683175499958,None,0.2177400000509806,,,33Sing,001,2022_Aug_29_1415,ProdSingRedoBetween,2021.2.3,59.95904797948804,
,,,,79,0,79,0,,,,,,,,,,,,,,,,,,,,,,5386.635204199993,None,,,,,,,,,,,,,,,,,dozen,92,80,sing,new,null,5382.446728199953,None,5382.446728199953,None,1,2.877992399968207,5382.446728199953,None,2.877992399968207,5385.356348099944,None,5385.867909999972,None,5385.867909999972,None,n,0.7369948000414297,5385.867909999972,None,0.7369948000414297,,,33Sing,001,2022_Aug_29_1415,ProdSingRedoBetween,2021.2.3,59.95904797948804,
,,,,80,0,80,0,,,,,,,,,,,,,,,,,,,,,,5401.700406199961,None,,,,,,,,,,,,,,,,,public,122,81,sing,new,null,5387.136214400001,None,5387.136214400001,None,4,13.532902900013141,5387.136214400001,None,13.532902900013141,5400.70975499996,None,5401.221572599956,None,5401.221572599956,None,f,0.455314900027588,5401.221572599956,None,0.455314900027588,,,33Sing,001,2022_Aug_29_1415,ProdSingRedoBetween,2021.2.3,59.95904797948804,
,,,,81,0,81,0,,,,,,,,,,,,,,,,,,,,,,5405.555225099961,None,,,,,,,,,,,,,,,,,error,88,82,sing,old,red,5402.216386399989,None,5402.216386399989,None,6,2.3884198000305332,5402.216386399989,None,2.3884198000305332,5404.621713100001,None,5405.141931999999,None,5405.141931999999,None,r,0.39095900004031137,5405.141931999999,None,0.39095900004031137,,,33Sing,001,2022_Aug_29_1415,ProdSingRedoBetween,2021.2.3,59.95904797948804,
,,,,82,0,82,0,,,,,,,,,,,,,,,,,,,,,,5417.3661982999765,None,,,,,,,,,,,,,,,,,victory,108,83,sing,new,null,5406.059582399961,None,5406.059582399961,None,1,10.497268899984192,5406.059582399961,None,10.497268899984192,5416.585898899997,None,5417.099374499987,None,5417.099374499987,None,n,0.24945050000678748,5417.099374499987,None,0.24945050000678748,,,33Sing,001,2022_Aug_29_1415,ProdSingRedoBetween,2021.2.3,59.95904797948804,
,,,,83,0,83,0,,,,,,,,,,,,,,,,,,,,,,5421.370003399963,None,,,,,,,,,,,,,,,,,shape,14,84,sing,old,yellow,5417.878101399983,None,5417.878101399983,None,1,2.7347275000065565,5417.878101399983,None,2.7347275000065565,5420.638972299988,None,5421.153356299968,None,5421.153356299968,None,n,0.19548110000323504,5421.153356299968,None,0.19548110000323504,,,33Sing,001,2022_Aug_29_1415,ProdSingRedoBetween,2021.2.3,59.95904797948804,
,,,,84,0,84,0,,,,,,,,,,,,,,,,,,,,,,5440.973063599959,None,,,,,,,,,,,,,,,,,service,125,85,sing,new,null,5421.8797471,None,5421.8797471,None,1,18.33315690001473,5421.8797471,None,18.33315690001473,5440.245020799979,None,5440.75658809999,None,5440.75658809999,None,n,0.19232319999719039,5440.75658809999,None,0.19232319999719039,,,33Sing,001,2022_Aug_29_1415,ProdSingRedoBetween,2021.2.3,59.95904797948804,
,,,,85,0,85,0,,,,,,,,,,,,,,,,,,,,,,5448.497073599952,None,,,,,,,,,,,,,,,,,military,38,86,sing,old,blue,5441.480987699993,None,5441.480987699993,None,6,6.004068500013091,5441.480987699993,None,6.004068500013091,5447.528565899993,None,5448.030281299958,None,5448.030281299958,None,r,0.4386064999853261,5448.030281299958,None,0.4386064999853261,,,33Sing,001,2022_Aug_29_1415,ProdSingRedoBetween,2021.2.3,59.95904797948804,
,,,,86,0,86,0,,,,,,,,,,,,,,,,,,,,,,5451.733642799954,None,,,,,,,,,,,,,,,,,machinery,46,87,sing,old,blue,5449.014204599953,None,5449.014204599953,None,6,1.9186138999648392,5449.014204599953,None,1.9186138999648392,5450.957635599945,None,5451.470696099976,None,5451.470696099976,None,r,0.23800369998207316,5451.470696099976,None,0.23800369998207316,,,33Sing,001,2022_Aug_29_1415,ProdSingRedoBetween,2021.2.3,59.95904797948804,
,,,,87,0,87,0,,,,,,,,,,,,,,,,,,,,,,5457.205880799971,None,,,,,,,,,,,,,,,,,speech,15,88,sing,old,yellow,5452.241405599983,None,5452.241405599983,None,5,4.275349900010042,5452.241405599983,None,4.275349900010042,5456.541032299981,None,5457.055840199988,None,5457.055840199988,None,f,0.1329429000033997,5457.055840199988,None,0.1329429000033997,,,33Sing,001,2022_Aug_29_1415,ProdSingRedoBetween,2021.2.3,59.95904797948804,
,,,,88,0,88,0,,,,,,,,,,,,,,,,,,,,,,5465.998126799997,None,,,,,,,,,,,,,,,,,judge,69,89,sing,old,red,5457.718906899972,None,5457.718906899972,None,1,7.558121200010646,5457.718906899972,None,7.558121200010646,5465.303673099959,None,5465.817459299986,None,5465.817459299986,None,n,0.15536319999955595,5465.817459299986,None,0.15536319999955595,,,33Sing,001,2022_Aug_29_1415,ProdSingRedoBetween,2021.2.3,59.95904797948804,
,,,,89,0,89,0,,,,,,,,,,,,,,,,,,,,,,5471.3534012999735,None,,,,,,,,,,,,,,,,,court,153,90,sing,new,null,5466.500233999977,None,5466.500233999977,None,1,4.08055479999166,5466.500233999977,None,4.08055479999166,5470.604668799962,None,5471.122746099951,None,5471.122746099951,None,n,0.21006869996199384,5471.122746099951,None,0.21006869996199384,,,33Sing,001,2022_Aug_29_1415,ProdSingRedoBetween,2021.2.3,59.95904797948804,
,,,,90,0,90,0,,,,,,,,,,,,,,,,,,,,,,5478.647671599989,None,,,,,,,,,,,,,,,,,material,52,91,sing,old,blue,5471.859976499982,None,5471.859976499982,None,5,6.113058199989609,5471.859976499982,None,6.113058199989609,5478.001948599995,None,5478.510616399988,None,5478.510616399988,None,f,0.11834980000276119,5478.510616399988,None,0.11834980000276119,,,33Sing,001,2022_Aug_29_1415,ProdSingRedoBetween,2021.2.3,59.95904797948804,
,,,,91,0,91,0,,,,,,,,,,,,,,,,,,,,,,5490.956046899955,None,,,,,,,,,,,,,,,,,session,163,92,sing,new,null,5479.171285199991,None,5479.171285199991,None,5,11.097434199997224,5479.171285199991,None,11.097434199997224,5490.299827599956,None,5490.80616519996,None,5490.80616519996,None,f,0.13465540000470355,5490.80616519996,None,0.13465540000470355,,,33Sing,001,2022_Aug_29_1415,ProdSingRedoBetween,2021.2.3,59.95904797948804,
,,,,92,0,92,0,,,,,,,,,,,,,,,,,,,,,,5498.866320899979,None,,,,,,,,,,,,,,,,,department,126,93,sing,new,null,5491.456833299948,None,5491.456833299948,None,1,6.660117599996738,5491.456833299948,None,6.660117599996738,5498.152398999955,None,5498.6685468999785,None,5498.6685468999785,None,n,0.16825469996547326,5498.6685468999785,None,0.16825469996547326,,,33Sing,001,2022_Aug_29_1415,ProdSingRedoBetween,2021.2.3,59.95904797948804,
,,,,93,0,93,0,,,,,,,,,,,,,,,,,,,,,,5502.438701899955,None,,,,,,,,,,,,,,,,,husband,34,94,sing,old,blue,5499.387871999992,None,5499.387871999992,None,6,1.7848267999943346,5499.387871999992,None,1.7848267999943346,5501.2035018999595,None,5501.717837999982,None,5501.717837999982,None,r,0.6951165000209585,5501.717837999982,None,0.6951165000209585,,,33Sing,001,2022_Aug_29_1415,ProdSingRedoBetween,2021.2.3,59.95904797948804,
,,,,94,0,94,0,,,,,,,,,,,,,,,,,,,,,,5508.106807499949,None,,,,,,,,,,,,,,,,,medicine,6,95,sing,old,yellow,5502.955361199973,None,5502.955361199973,None,6,4.217484199965838,5502.955361199973,None,4.217484199965838,5507.189059699944,None,5507.689791099983,None,5507.689791099983,None,r,0.39506599999731407,5507.689791099983,None,0.39506599999731407,,,33Sing,001,2022_Aug_29_1415,ProdSingRedoBetween,2021.2.3,59.95904797948804,
,,,,95,0,95,0,,,,,,,,,,,,,,,,,,,,,,5512.46108639997,None,,,,,,,,,,,,,,,,,union,70,96,sing,old,red,5508.614736599964,None,5508.614736599964,None,6,3.0621090999920852,5508.614736599964,None,3.0621090999920852,5511.698453699995,None,5512.21229289996,None,5512.21229289996,None,r,0.23246040003141388,5512.21229289996,None,0.23246040003141388,,,33Sing,001,2022_Aug_29_1415,ProdSingRedoBetween,2021.2.3,59.95904797948804,
,,,,96,0,96,0,,,,,,,,,,,,,,,,,,,,,,5517.816280699975,None,,,,,,,,,,,,,,,,,career,91,97,sing,new,null,5512.964494999964,None,5512.964494999964,None,1,3.9923269000137225,5512.964494999964,None,3.9923269000137225,5516.9904165999615,None,5517.499456299993,None,5517.499456299993,None,n,0.2973033000016585,5517.499456299993,None,0.2973033000016585,,,33Sing,001,2022_Aug_29_1415,ProdSingRedoBetween,2021.2.3,59.95904797948804,
,,,,97,0,97,0,,,,,,,,,,,,,,,,,,,,,,5521.624730899988,None,,,,,,,,,,,,,,,,,route,59,98,sing,old,yellow,5518.324809499958,None,5518.324809499958,None,6,2.3998953999835066,5518.324809499958,None,2.3998953999835066,5520.754323399975,None,5521.277035499981,None,5521.277035499981,None,r,0.3199408000218682,5521.277035499981,None,0.3199408000218682,,,33Sing,001,2022_Aug_29_1415,ProdSingRedoBetween,2021.2.3,59.95904797948804,
,,,,98,0,98,0,,,,,,,,,,,,,,,,,,,,,,5525.942416699952,None,,,,,,,,,,,,,,,,,reading,134,99,sing,new,null,5522.138676099945,None,5522.138676099945,None,1,2.0901126000098884,5522.138676099945,None,2.0901126000098884,5524.2598203999805,None,5524.780847599963,None,5524.780847599963,None,n,1.1360638000187464,5524.780847599963,None,1.1360638000187464,,,33Sing,001,2022_Aug_29_1415,ProdSingRedoBetween,2021.2.3,59.95904797948804,
,,,,99,0,99,0,,,,,,,,,,,,,,,,,,,,,,5529.194385099981,None,,,,,,,,,,,,,,,,,mayor,145,100,sing,new,null,5526.445111299981,None,5526.445111299981,None,1,1.831612200010568,5526.445111299981,None,1.831612200010568,5528.294635099999,None,5528.794549599988,None,5528.794549599988,None,n,0.3783496000105515,5528.794549599988,None,0.3783496000105515,,,33Sing,001,2022_Aug_29_1415,ProdSingRedoBetween,2021.2.3,59.95904797948804,
,,,,100,0,100,0,,,,,,,,,,,,,,,,,,,,,,5545.39381899999,None,,,,,,,,,,,,,,,,,object,26,101,sing,old,yellow,5529.698124699993,None,5529.698124699993,None,1,14.914503299980424,5529.698124699993,None,14.914503299980424,5544.646642599953,None,5545.164019499964,None,5545.164019499964,None,n,0.20075780001934618,5545.164019499964,None,0.20075780001934618,,,33Sing,001,2022_Aug_29_1415,ProdSingRedoBetween,2021.2.3,59.95904797948804,
,,,,101,0,101,0,,,,,,,,,,,,,,,,,,,,,,5550.659912999952,None,,,,,,,,,,,,,,,,,guest,137,102,sing,new,null,5545.902834499953,None,5545.902834499953,None,1,4.093814399966504,5545.902834499953,None,4.093814399966504,5550.016094799968,None,5550.524927099992,None,5550.524927099992,None,n,0.0961576999980025,5550.524927099992,None,0.0961576999980025,,,33Sing,001,2022_Aug_29_1415,ProdSingRedoBetween,2021.2.3,59.95904797948804,
,,,,102,0,102,0,,,,,,,,,,,,,,,,,,,,,,5566.648592299956,None,,,,,,,,,,,,,,,,,business,85,103,sing,old,red,5551.170098499977,None,5551.170098499977,None,2,14.706663299992215,5551.170098499977,None,14.706663299992215,5565.899100299983,None,5566.405753399944,None,5566.405753399944,None,f,0.21486050001112744,5566.405753399944,None,0.21486050001112744,,,33Sing,001,2022_Aug_29_1415,ProdSingRedoBetween,2021.2.3,59.95904797948804,
,,,,103,0,103,0,,,,,,,,,,,,,,,,,,,,,,5574.039073499967,None,,,,,,,,,,,,,,,,,fight,95,104,sing,new,null,5567.158379299974,None,5567.158379299974,None,5,4.870513800007757,5567.158379299974,None,4.870513800007757,5572.05557929998,None,5572.5594528999645,None,5572.5594528999645,None,f,1.4532344000181183,5572.5594528999645,None,1.4532344000181183,,,33Sing,001,2022_Aug_29_1415,ProdSingRedoBetween,2021.2.3,59.95904797948804,
,,,,104,0,104,0,,,,,,,,,,,,,,,,,,,,,,5598.580399599974,None,,,,,,,,,,,,,,,,,shock,36,105,sing,old,blue,5574.542891899997,None,5574.542891899997,None,1,22.909718699986115,5574.542891899997,None,22.909718699986115,5597.483621999971,None,5597.996383299993,None,5597.996383299993,None,n,0.5603242000215687,5597.996383299993,None,0.5603242000215687,,,33Sing,001,2022_Aug_29_1415,ProdSingRedoBetween,2021.2.3,59.95904797948804,
,,,,105,0,105,0,,,,,,,,,,,,,,,,,,,,,,5625.6406122999615,None,,,,,,,,,,,,,,,,,century,80,106,sing,old,red,5599.0927997999825,None,5599.0927997999825,None,5,25.879824800009374,5599.0927997999825,None,25.879824800009374,5624.996245199989,None,5625.507321699988,None,5625.507321699988,None,f,0.11326130002271384,5625.507321699988,None,0.11326130002271384,,,33Sing,001,2022_Aug_29_1415,ProdSingRedoBetween,2021.2.3,59.95904797948804,
,,,,106,0,106,0,,,,,,,,,,,,,,,,,,,,,,5629.078455699957,None,,,,,,,,,,,,,,,,,number,116,107,sing,new,null,5626.148180599965,None,5626.148180599965,None,1,2.1448709999676794,5626.148180599965,None,2.1448709999676794,5628.319264399994,None,5628.836823399994,None,5628.836823399994,None,n,0.21587100002216175,5628.836823399994,None,0.21587100002216175,,,33Sing,001,2022_Aug_29_1415,ProdSingRedoBetween,2021.2.3,59.95904797948804,
,,,,107,0,107,0,,,,,,,,,,,,,,,,,,,,,,5632.4142454999965,None,,,,,,,,,,,,,,,,,narrow,164,108,sing,new,null,5629.581622599973,None,5629.581622599973,None,1,1.9910430000163615,5629.581622599973,None,1.9910430000163615,5631.598091499996,None,5632.097372599994,None,5632.097372599994,None,n,0.29140929999994114,5632.097372599994,None,0.29140929999994114,,,33Sing,001,2022_Aug_29_1415,ProdSingRedoBetween,2021.2.3,59.95904797948804,
,,,,108,0,108,0,,,,,,,,,,,,,,,,,,,,,,5635.8228616999695,None,,,,,,,,,,,,,,,,,light,165,109,sing,new,null,5632.920353299996,None,5632.920353299996,None,1,2.012266899982933,5632.920353299996,None,2.012266899982933,5634.950069999963,None,5635.450543399958,None,5635.450543399958,None,n,0.34618849999969825,5635.450543399958,None,0.34618849999969825,,,33Sing,001,2022_Aug_29_1415,ProdSingRedoBetween,2021.2.3,59.95904797948804,
,,,,109,0,109,0,,,,,,,,,,,,,,,,,,,,,,5640.822388499975,None,,,,,,,,,,,,,,,,,measure,63,110,sing,old,red,5636.3478816999705,None,5636.3478816999705,None,5,3.7366114999749698,5636.3478816999705,None,3.7366114999749698,5640.1107287999475,None,5640.622131099983,None,5640.622131099983,None,f,0.17454790003830567,5640.622131099983,None,0.17454790003830567,,,33Sing,001,2022_Aug_29_1415,ProdSingRedoBetween,2021.2.3,59.95904797948804,
,,,,110,0,110,0,,,,,,,,,,,,,,,,,,,,,,5645.447829099954,None,,,,,,,,,,,,,,,,,running,135,111,sing,new,null,5641.333658699994,None,5641.333658699994,None,1,2.16699240001617,5641.333658699994,None,2.16699240001617,5643.525716299948,None,5644.025671399955,None,5644.025671399955,None,n,1.387060199980624,5644.025671399955,None,1.387060199980624,,,33Sing,001,2022_Aug_29_1415,ProdSingRedoBetween,2021.2.3,59.95904797948804,
,,,,111,0,111,0,,,,,,,,,,,,,,,,,,,,,,5655.154001799994,None,,,,,,,,,,,,,,,,,mechanical,32,112,sing,old,blue,5645.963342399977,None,5645.963342399977,None,1,8.369159499998204,5645.963342399977,None,8.369159499998204,5654.353397899948,None,5654.853429699957,None,5654.853429699957,None,n,0.2790633999975398,5654.853429699957,None,0.2790633999975398,,,33Sing,001,2022_Aug_29_1415,ProdSingRedoBetween,2021.2.3,59.95904797948804,
,,,,112,0,112,0,,,,,,,,,,,,,,,,,,,,,,5658.156311599945,None,,,,,,,,,,,,,,,,,angle,147,113,sing,new,null,5655.654061299982,None,5655.654061299982,None,1,1.6945459000417031,5655.654061299982,None,1.6945459000417031,5657.373413899972,None,5657.879032699973,None,5657.879032699973,None,n,0.25364249997073784,5657.879032699973,None,0.25364249997073784,,,33Sing,001,2022_Aug_29_1415,ProdSingRedoBetween,2021.2.3,59.95904797948804,
,,,,113,0,113,0,,,,,,,,,,,,,,,,,,,,,,5662.911176399968,None,,,,,,,,,,,,,,,,,cover,65,114,sing,old,red,5658.660134999955,None,5658.660134999955,None,1,3.4564178000437096,5658.660134999955,None,3.4564178000437096,5662.14489549998,None,5662.650189599954,None,5662.650189599954,None,n,0.23437260003993288,5662.650189599954,None,0.23437260003993288,,,33Sing,001,2022_Aug_29_1415,ProdSingRedoBetween,2021.2.3,59.95904797948804,
,,,,114,0,114,0,,,,,,,,,,,,,,,,,,,,,,5668.853069199948,None,,,,,,,,,,,,,,,,,rapid,41,115,sing,old,blue,5663.4146540999645,None,5663.4146540999645,None,6,3.9019733000313863,5663.4146540999645,None,3.9019733000313863,5667.334395999962,None,5667.854896299948,None,5667.854896299948,None,r,0.9739747000276111,5667.854896299948,None,0.9739747000276111,,,33Sing,001,2022_Aug_29_1415,ProdSingRedoBetween,2021.2.3,59.95904797948804,
,,,,115,0,115,0,,,,,,,,,,,,,,,,,,,,,,5681.980318599963,None,,,,,,,,,,,,,,,,,community,56,116,sing,old,blue,5669.369248199975,None,5669.369248199975,None,4,11.795393400010653,5669.369248199975,None,11.795393400010653,5681.185736699961,None,5681.698909899977,None,5681.698909899977,None,f,0.2658477000077255,5681.698909899977,None,0.2658477000077255,,,33Sing,001,2022_Aug_29_1415,ProdSingRedoBetween,2021.2.3,59.95904797948804,
,,,,116,0,116,0,,,,,,,,,,,,,,,,,,,,,,5685.8508974,None,,,,,,,,,,,,,,,,,majority,44,117,sing,old,blue,5682.483737099974,None,5682.483737099974,None,6,2.44085020001512,5682.483737099974,None,2.44085020001512,5684.96857149998,None,5685.466842099966,None,5685.466842099966,None,r,0.361660499998834,5685.466842099966,None,0.361660499998834,,,33Sing,001,2022_Aug_29_1415,ProdSingRedoBetween,2021.2.3,59.95904797948804,
,,,,117,0,117,0,,,,,,,,,,,,,,,,,,,,,,5695.643872599991,None,,,,,,,,,,,,,,,,,management,150,118,sing,new,null,5686.35127069999,None,5686.35127069999,None,2,8.445355600037146,5686.35127069999,None,8.445355600037146,5694.8263291999465,None,5695.331104699988,None,5695.331104699988,None,f,0.28948929999023676,5695.331104699988,None,0.28948929999023676,,,33Sing,001,2022_Aug_29_1415,ProdSingRedoBetween,2021.2.3,59.95904797948804,
,,,,118,0,118,0,,,,,,,,,,,,,,,,,,,,,,5700.465257799951,None,,,,,,,,,,,,,,,,,clear,51,119,sing,old,blue,5696.156620799971,None,5696.156620799971,None,5,3.415996299998369,5696.156620799971,None,3.415996299998369,5699.602286399982,None,5700.117746899952,None,5700.117746899952,None,f,0.31887159997131675,5700.117746899952,None,0.31887159997131675,,,33Sing,001,2022_Aug_29_1415,ProdSingRedoBetween,2021.2.3,59.95904797948804,
,,,,119,0,119,0,,,,,,,,,,,,,,,,,,,,,,5704.435871999944,None,,,,,,,,,,,,,,,,,heavy,50,120,sing,old,blue,5700.9727427999605,None,5700.9727427999605,None,6,2.5118881999514997,5700.9727427999605,None,2.5118881999514997,5703.5031675999635,None,5704.010130099952,None,5704.010130099952,None,r,0.4029388999915682,5704.010130099952,None,0.4029388999915682,,,33Sing,001,2022_Aug_29_1415,ProdSingRedoBetween,2021.2.3,59.95904797948804,
,,,,120,0,120,0,,,,,,,,,,,,,,,,,,,,,,5709.575329399959,None,,,,,,,,,,,,,,,,,article,97,121,sing,new,null,5704.943855999969,None,5704.943855999969,None,1,2.6447652999777347,5704.943855999969,None,2.6447652999777347,5707.610180299962,None,5708.125651199953,None,5708.125651199953,None,n,1.422937999945134,5708.125651199953,None,1.422937999945134,,,33Sing,001,2022_Aug_29_1415,ProdSingRedoBetween,2021.2.3,59.95904797948804,
,,,,121,0,121,0,,,,,,,,,,,,,,,,,,,,,,5713.461529599968,None,,,,,,,,,,,,,,,,,pancakes,158,122,sing,new,null,5710.076336099999,None,5710.076336099999,None,1,2.200237000011839,5710.076336099999,None,2.200237000011839,5712.296521899989,None,5712.811257899972,None,5712.811257899972,None,n,0.6253680000081658,5712.811257899972,None,0.6253680000081658,,,33Sing,001,2022_Aug_29_1415,ProdSingRedoBetween,2021.2.3,59.95904797948804,
,,,,122,0,122,0,,,,,,,,,,,,,,,,,,,,,,5719.003858199983,None,,,,,,,,,,,,,,,,,division,159,123,sing,new,null,5713.974428999994,None,5713.974428999994,None,1,4.190131100011058,5713.974428999994,None,4.190131100011058,5718.183823899948,None,5718.688911099976,None,5718.688911099976,None,n,0.2836321999784559,5718.688911099976,None,0.2836321999784559,,,33Sing,001,2022_Aug_29_1415,ProdSingRedoBetween,2021.2.3,59.95904797948804,
,,,,123,0,123,0,,,,,,,,,,,,,,,,,,,,,,5725.373668099986,None,,,,,,,,,,,,,,,,,meeting,1,124,sing,old,yellow,5719.529292799998,None,5719.529292799998,None,3,5.13947570003802,5719.529292799998,None,5.13947570003802,5724.694018499984,None,5725.207659899956,None,5725.207659899956,None,f,0.14883730001747608,5725.207659899956,None,0.14883730001747608,,,33Sing,001,2022_Aug_29_1415,ProdSingRedoBetween,2021.2.3,59.95904797948804,
,,,,124,0,124,0,,,,,,,,,,,,,,,,,,,,,,5732.563918999978,None,,,,,,,,,,,,,,,,,strain,18,125,sing,old,yellow,5725.892653499963,None,5725.892653499963,None,4,5.92000939999707,5725.892653499963,None,5.92000939999707,5731.834151499963,None,5732.347503999947,None,5732.347503999947,None,f,0.1851678999955766,5732.347503999947,None,0.1851678999955766,,,33Sing,001,2022_Aug_29_1415,ProdSingRedoBetween,2021.2.3,59.95904797948804,
,,,,125,0,125,0,,,,,,,,,,,,,,,,,,,,,,5761.978561199969,None,,,,,,,,,,,,,,,,,collection,118,126,sing,new,null,5733.067396699975,None,5733.067396699975,None,1,28.11309249995975,5733.067396699975,None,28.11309249995975,5761.209778999968,None,5761.7128715,None,5761.7128715,None,n,0.2356792999780737,5761.7128715,None,0.2356792999780737,,,33Sing,001,2022_Aug_29_1415,ProdSingRedoBetween,2021.2.3,59.95904797948804,
,,,,126,0,126,0,,,,,,,,,,,,,,,,,,,,,,5765.815728999965,None,,,,,,,,,,,,,,,,,addition,120,127,sing,new,null,5762.501359499991,None,5762.501359499991,None,1,2.255208699963987,5762.501359499991,None,2.255208699963987,5764.782916799944,None,5765.29692459997,None,5765.29692459997,None,n,0.4996716000023298,5765.29692459997,None,0.4996716000023298,,,33Sing,001,2022_Aug_29_1415,ProdSingRedoBetween,2021.2.3,59.95904797948804,
,,,,127,0,127,0,,,,,,,,,,,,,,,,,,,,,,5772.253744299989,None,,,,,,,,,,,,,,,,,junior,83,128,sing,old,red,5766.331276199955,None,5766.331276199955,None,6,5.121275599987712,5766.331276199955,None,5.121275599987712,5771.474597799999,None,5771.993974799989,None,5771.993974799989,None,r,0.2425486000138335,5771.993974799989,None,0.2425486000138335,,,33Sing,001,2022_Aug_29_1415,ProdSingRedoBetween,2021.2.3,59.95904797948804,
,,,,128,0,128,0,,,,,,,,,,,,,,,,,,,,,,5775.823898599949,None,,,,,,,,,,,,,,,,,range,71,129,sing,old,red,5772.756927399954,None,5772.756927399954,None,1,2.375516400032211,5772.756927399954,None,2.375516400032211,5775.159149899962,None,5775.673834699963,None,5775.673834699963,None,n,0.1225677999900654,5775.673834699963,None,0.1225677999900654,,,33Sing,001,2022_Aug_29_1415,ProdSingRedoBetween,2021.2.3,59.95904797948804,
,,,,129,0,129,0,,,,,,,,,,,,,,,,,,,,,,5779.197187099955,None,,,,,,,,,,,,,,,,,height,5,130,sing,old,yellow,5776.335698899988,None,5776.335698899988,None,6,1.8288528000121005,5776.335698899988,None,1.8288528000121005,5778.198097499961,None,5778.710420499963,None,5778.710420499963,None,r,0.4540703999809921,5778.710420499963,None,0.4540703999809921,,,33Sing,001,2022_Aug_29_1415,ProdSingRedoBetween,2021.2.3,59.95904797948804,
,,,,130,0,130,0,,,,,,,,,,,,,,,,,,,,,,5802.834037499968,None,,,,,,,,,,,,,,,,,suggestion,74,131,sing,old,red,5779.715075999964,None,5779.715075999964,None,1,22.353275800007395,5779.715075999964,None,22.353275800007395,5802.100180199952,None,5802.600576699944,None,5802.600576699944,None,n,0.21184110001195222,5802.600576699944,None,0.21184110001195222,,,33Sing,001,2022_Aug_29_1415,ProdSingRedoBetween,2021.2.3,59.95904797948804,
,,,,131,0,131,0,,,,,,,,,,,,,,,,,,,,,,5808.056041999953,None,,,,,,,,,,,,,,,,,beauty,86,132,sing,old,red,5803.345682399988,None,5803.345682399988,None,5,3.994828100025188,5803.345682399988,None,3.994828100025188,5807.368281799951,None,5807.872705999995,None,5807.872705999995,None,f,0.1638206000206992,5807.872705999995,None,0.1638206000206992,,,33Sing,001,2022_Aug_29_1415,ProdSingRedoBetween,2021.2.3,59.95904797948804,
,,,,132,0,132,0,,,,,,,,,,,,,,,,,,,,,,5815.3650899999775,None,,,,,,,,,,,,,,,,,stand,119,133,sing,new,null,5808.5695288999705,None,5808.5695288999705,None,4,6.074971699970774,5808.5695288999705,None,6.074971699970774,5814.663661799976,None,5815.167562199989,None,5815.167562199989,None,f,0.1729670999920927,5815.167562199989,None,0.1729670999920927,,,33Sing,001,2022_Aug_29_1415,ProdSingRedoBetween,2021.2.3,59.95904797948804,
,,,,133,0,133,0,,,,,,,,,,,,,,,,,,,,,,5824.672776099993,None,,,,,,,,,,,,,,,,,quantity,22,134,sing,old,yellow,5815.885343499947,None,5815.885343499947,None,6,8.071152699994855,5815.885343499947,None,8.071152699994855,5823.977589799964,None,5824.489326499985,None,5824.489326499985,None,r,0.1631933000171557,5824.489326499985,None,0.1631933000171557,,,33Sing,001,2022_Aug_29_1415,ProdSingRedoBetween,2021.2.3,59.95904797948804,
,,,,134,0,134,0,,,,,,,,,,,,,,,,,,,,,,5831.948853199952,None,,,,,,,,,,,,,,,,,shear,169,135,sing,new,null,5825.183604999969,None,5825.183604999969,None,1,5.988861999998335,5825.183604999969,None,5.988861999998335,5831.196833199996,None,5831.699206699966,None,5831.699206699966,None,n,0.21749920002184808,5831.699206699966,None,0.21749920002184808,,,33Sing,001,2022_Aug_29_1415,ProdSingRedoBetween,2021.2.3,59.95904797948804,
,,,,135,0,135,0,,,,,,,,,,,,,,,,,,,,,,5839.571001199947,None,,,,,,,,,,,,,,,,,scale,16,136,sing,old,yellow,5832.474671099975,None,5832.474671099975,None,3,6.31377159996191,5832.474671099975,None,6.31377159996191,5838.803352699964,None,5839.3071678999695,None,5839.3071678999695,None,f,0.24129740003263578,5839.3071678999695,None,0.24129740003263578,,,33Sing,001,2022_Aug_29_1415,ProdSingRedoBetween,2021.2.3,59.95904797948804,
,,,,136,0,136,0,,,,,,,,,,,,,,,,,,,,,,5846.1942751999595,None,,,,,,,,,,,,,,,,,display,28,137,sing,old,yellow,5840.079104699951,None,5840.079104699951,None,5,5.397404499992263,5840.079104699951,None,5.397404499992263,5845.501330300001,None,5846.010831599997,None,5846.010831599997,None,f,0.16168660001130775,5846.010831599997,None,0.16168660001130775,,,33Sing,001,2022_Aug_29_1415,ProdSingRedoBetween,2021.2.3,59.95904797948804,
,,,,137,0,137,0,,,,,,,,,,,,,,,,,,,,,,5857.155169399979,None,,,,,,,,,,,,,,,,,capital,148,138,sing,new,null,5846.698957899993,None,5846.698957899993,None,1,9.721473399957176,5846.698957899993,None,9.721473399957176,5856.444168099959,None,5856.95490089996,None,5856.95490089996,None,n,0.16955809999490157,5856.95490089996,None,0.16955809999490157,,,33Sing,001,2022_Aug_29_1415,ProdSingRedoBetween,2021.2.3,59.95904797948804,
,,,,138,0,138,0,,,,,,,,,,,,,,,,,,,,,,5862.2432138999575,None,,,,,,,,,,,,,,,,,breath,90,139,sing,new,null,5857.65576949995,None,5857.65576949995,None,1,3.6926107999752276,5857.65576949995,None,3.6926107999752276,5861.37592099997,None,5861.879215599969,None,5861.879215599969,None,n,0.34928470000158995,5861.879215599969,None,0.34928470000158995,,,33Sing,001,2022_Aug_29_1415,ProdSingRedoBetween,2021.2.3,59.95904797948804,
,,,,139,0,139,0,,,,,,,,,,,,,,,,,,,,,,5865.680160399992,None,,,,,,,,,,,,,,,,,column,144,140,sing,new,null,5862.747866399994,None,5862.747866399994,None,1,2.1365455000195652,5862.747866399994,None,2.1365455000195652,5864.913161999953,None,5865.413426199986,None,5865.413426199986,None,n,0.2389192000264302,5865.413426199986,None,0.2389192000264302,,,33Sing,001,2022_Aug_29_1415,ProdSingRedoBetween,2021.2.3,59.95904797948804,
,,,,140,0,140,0,,,,,,,,,,,,,,,,,,,,,,5869.200640899944,None,,,,,,,,,,,,,,,,,working,155,141,sing,new,null,5866.188238299976,None,5866.188238299976,None,1,2.120310199970845,5866.188238299976,None,2.120310199970845,5868.343118999968,None,5868.852980499971,None,5868.852980499971,None,n,0.3274472000193782,5868.852980499971,None,0.3274472000193782,,,33Sing,001,2022_Aug_29_1415,ProdSingRedoBetween,2021.2.3,59.95904797948804,
,,,,141,0,141,0,,,,,,,,,,,,,,,,,,,,,,5875.575317599985,None,,,,,,,,,,,,,,,,,silence,61,142,sing,old,red,5869.710354699986,None,5869.710354699986,None,1,5.190070300013758,5869.710354699986,None,5.190070300013758,5874.9255631999695,None,5875.441264899971,None,5875.441264899971,None,n,0.10718160000396892,5875.441264899971,None,0.10718160000396892,,,33Sing,001,2022_Aug_29_1415,ProdSingRedoBetween,2021.2.3,59.95904797948804,
,,,,142,0,142,0,,,,,,,,,,,,,,,,,,,,,,5878.826698399964,None,,,,,,,,,,,,,,,,,force,104,143,sing,new,null,5876.097662899992,None,5876.097662899992,None,1,1.8747738999663852,5876.097662899992,None,1.8747738999663852,5877.994951299974,None,5878.510050599987,None,5878.510050599987,None,n,0.28651250002440065,5878.510050599987,None,0.28651250002440065,,,33Sing,001,2022_Aug_29_1415,ProdSingRedoBetween,2021.2.3,59.95904797948804,
,,,,143,0,143,0,,,,,,,,,,,,,,,,,,,,,,5886.517696099996,None,,,,,,,,,,,,,,,,,rough,94,144,sing,new,null,5879.336540999997,None,5879.336540999997,None,2,6.4437634000205435,5879.336540999997,None,6.4437634000205435,5885.802909799968,None,5886.317590599996,None,5886.317590599996,None,f,0.17472529999213293,5886.317590599996,None,0.17472529999213293,,,33Sing,001,2022_Aug_29_1415,ProdSingRedoBetween,2021.2.3,59.95904797948804,
,,,,144,0,144,0,,,,,,,,,,,,,,,,,,,,,,5895.010271099978,None,,,,,,,,,,,,,,,,,defeat,156,145,sing,new,null,5887.029011999955,None,5887.029011999955,None,1,7.055434699985199,5887.029011999955,None,7.055434699985199,5894.1087123999605,None,5894.616162499995,None,5894.616162499995,None,n,0.37214019999373704,5894.616162499995,None,0.37214019999373704,,,33Sing,001,2022_Aug_29_1415,ProdSingRedoBetween,2021.2.3,59.95904797948804,
,,,,145,0,145,0,,,,,,,,,,,,,,,,,,,,,,5899.16595429997,None,,,,,,,,,,,,,,,,,sound,172,146,sing,new,null,5895.514568099985,None,5895.514568099985,None,1,2.6817462000180967,5895.514568099985,None,2.6817462000180967,5898.213723099965,None,5898.719074599969,None,5898.719074599969,None,n,0.42936499998904765,5898.719074599969,None,0.42936499998904765,,,33Sing,001,2022_Aug_29_1415,ProdSingRedoBetween,2021.2.3,59.95904797948804,
,,,,146,0,146,0,,,,,,,,,,,,,,,,,,,,,,5908.659441799973,None,,,,,,,,,,,,,,,,,sight,123,147,sing,new,null,5899.689654099988,None,5899.689654099988,None,1,8.09869949996937,5899.689654099988,None,8.09869949996937,5907.807973999996,None,5908.3245676999795,None,5908.3245676999795,None,n,0.30386729998281226,5908.3245676999795,None,0.30386729998281226,,,33Sing,001,2022_Aug_29_1415,ProdSingRedoBetween,2021.2.3,59.95904797948804,
,,,,147,0,147,0,,,,,,,,,,,,,,,,,,,,,,5916.013915199961,None,,,,,,,,,,,,,,,,,industry,57,148,sing,old,blue,5909.17361399997,None,5909.17361399997,None,1,6.030831899959594,5909.17361399997,None,6.030831899959594,5915.239728499961,None,5915.7485519999755,None,5915.7485519999755,None,n,0.23986199998762459,5915.7485519999755,None,0.23986199998762459,,,33Sing,001,2022_Aug_29_1415,ProdSingRedoBetween,2021.2.3,59.95904797948804,
,,,,148,0,148,0,,,,,,,,,,,,,,,,,,,,,,5925.40672769997,None,,,,,,,,,,,,,,,,,foundation,101,149,sing,new,null,5916.524791999953,None,5916.524791999953,None,1,7.767795299994759,5916.524791999953,None,7.767795299994759,5924.3323569999775,None,5924.839392299997,None,5924.839392299997,None,n,0.5488565000123344,5924.839392299997,None,0.5488565000123344,,,33Sing,001,2022_Aug_29_1415,ProdSingRedoBetween,2021.2.3,59.95904797948804,
,,,,149,0,149,0,,,,,,,,,,,,,,,,,,,,,,5933.347641199944,None,,,,,,,,,,,,,,,,,device,93,150,sing,new,null,5925.909426899976,None,5925.909426899976,None,1,6.719229199981783,5925.909426899976,None,6.719229199981783,5932.652234399982,None,5933.168340599979,None,5933.168340599979,None,n,0.16406460001599044,5933.168340599979,None,0.16406460001599044,,,33Sing,001,2022_Aug_29_1415,ProdSingRedoBetween,2021.2.3,59.95904797948804,
,,,,150,0,150,0,,,,,,,,,,,,,,,,,,,,,,5936.717788199952,None,,,,,,,,,,,,,,,,,quarter,43,151,sing,old,blue,5933.868055799976,None,5933.868055799976,None,6,1.9683283000485972,5933.868055799976,None,1.9683283000485972,5935.867646999948,None,5936.372026599944,None,5936.372026599944,None,r,0.32833249995019287,5936.372026599944,None,0.32833249995019287,,,33Sing,001,2022_Aug_29_1415,ProdSingRedoBetween,2021.2.3,59.95904797948804,
,,,,151,0,151,0,,,,,,,,,,,,,,,,,,,,,,5941.189143999945,None,,,,,,,,,,,,,,,,,turkey,67,152,sing,old,red,5937.232154499972,None,5937.232154499972,None,6,2.612224899989087,5937.232154499972,None,2.612224899989087,5939.877610899974,None,5940.388371399953,None,5940.388371399953,None,r,0.7760438999976031,5940.388371399953,None,0.7760438999976031,,,33Sing,001,2022_Aug_29_1415,ProdSingRedoBetween,2021.2.3,59.95904797948804,
,,,,152,0,152,0,,,,,,,,,,,,,,,,,,,,,,5944.542392199975,None,,,,,,,,,,,,,,,,,engineer,27,153,sing,old,yellow,5941.697652399947,None,5941.697652399947,None,6,1.898712299996987,5941.697652399947,None,1.898712299996987,5943.626827699947,None,5944.141909699945,None,5944.141909699945,None,r,0.3746149999788031,5944.141909699945,None,0.3746149999788031,,,33Sing,001,2022_Aug_29_1415,ProdSingRedoBetween,2021.2.3,59.95904797948804,
,,,,153,0,153,0,,,,,,,,,,,,,,,,,,,,,,5947.499295699992,None,,,,,,,,,,,,,,,,,chief,19,154,sing,old,yellow,5945.045631899964,None,5945.045631899964,None,6,1.6068213999969885,5945.045631899964,None,1.6068213999969885,5946.688985099958,None,5947.1971661999705,None,5947.1971661999705,None,r,0.2712441000039689,5947.1971661999705,None,0.2712441000039689,,,33Sing,001,2022_Aug_29_1415,ProdSingRedoBetween,2021.2.3,59.95904797948804,
,,,,154,0,154,0,,,,,,,,,,,,,,,,,,,,,,5963.044178699958,None,,,,,,,,,,,,,,,,,message,12,155,sing,old,yellow,5948.013509299955,None,5948.013509299955,None,4,14.215000999975018,5948.013509299955,None,14.215000999975018,5962.252174599969,None,5962.7617986999685,None,5962.7617986999685,None,f,0.2664837999618612,5962.7617986999685,None,0.2664837999618612,,,33Sing,001,2022_Aug_29_1415,ProdSingRedoBetween,2021.2.3,59.95904797948804,
,,,,155,0,155,0,,,,,,,,,,,,,,,,,,,,,,5966.547705899982,None,,,,,,,,,,,,,,,,,testimony,161,156,sing,new,null,5963.561371499964,None,5963.561371499964,None,1,2.043101800023578,5963.561371499964,None,2.043101800023578,5965.641261099954,None,5966.14698249998,None,5966.14698249998,None,n,0.3854150000261143,5966.14698249998,None,0.3854150000261143,,,33Sing,001,2022_Aug_29_1415,ProdSingRedoBetween,2021.2.3,59.95904797948804,
,,,,156,0,156,0,,,,,,,,,,,,,,,,,,,,,,5970.53480829997,None,,,,,,,,,,,,,,,,,frank,173,157,sing,new,null,5967.056543399987,None,5967.056543399987,None,1,2.5238062999560498,5967.056543399987,None,2.5238062999560498,5969.601959099993,None,5970.11420489999,None,5970.11420489999,None,n,0.3940436000120826,5970.11420489999,None,0.3940436000120826,,,33Sing,001,2022_Aug_29_1415,ProdSingRedoBetween,2021.2.3,59.95904797948804,
,,,,157,0,157,0,,,,,,,,,,,,,,,,,,,,,,5977.458418999973,None,,,,,,,,,,,,,,,,,research,42,158,sing,old,blue,5971.043274799944,None,5971.043274799944,None,1,5.617052500019781,5971.043274799944,None,5.617052500019781,5976.698870199965,None,5977.20831019996,None,5977.20831019996,None,n,0.22005649999482557,5977.20831019996,None,0.22005649999482557,,,33Sing,001,2022_Aug_29_1415,ProdSingRedoBetween,2021.2.3,59.95904797948804,
,,,,158,0,158,0,,,,,,,,,,,,,,,,,,,,,,5981.128719499975,None,,,,,,,,,,,,,,,,,ground,0,159,sing,old,yellow,5977.978681299952,None,5977.978681299952,None,1,2.329851199989207,5977.978681299952,None,2.329851199989207,5980.333858999948,None,5980.84528759995,None,5980.84528759995,None,n,0.2550539000076242,5980.84528759995,None,0.2550539000076242,,,33Sing,001,2022_Aug_29_1415,ProdSingRedoBetween,2021.2.3,59.95904797948804,
,,,,159,0,159,0,,,,,,,,,,,,,,,,,,,,,,5986.067153199983,None,,,,,,,,,,,,,,,,,country,7,160,sing,old,yellow,5981.637566899997,None,5981.637566899997,None,6,3.6786799000110477,5981.637566899997,None,3.6786799000110477,5985.342100199952,None,5985.850321799982,None,5985.850321799982,None,r,0.18599430000176653,5985.850321799982,None,0.18599430000176653,,,33Sing,001,2022_Aug_29_1415,ProdSingRedoBetween,2021.2.3,59.95904797948804,
,,,,160,0,160,0,,,,,,,,,,,,,,,,,,,,,,5990.88853409997,None,,,,,,,,,,,,,,,,,comfort,130,161,sing,new,null,5986.578161299985,None,5986.578161299985,None,1,3.5703530000173487,5986.578161299985,None,3.5703530000173487,5990.178544999973,None,5990.688534199959,None,5990.688534199959,None,n,0.1797884000116028,5990.688534199959,None,0.1797884000116028,,,33Sing,001,2022_Aug_29_1415,ProdSingRedoBetween,2021.2.3,59.95904797948804,
,,,,161,0,161,0,,,,,,,,,,,,,,,,,,,,,,6006.1716688000015,None,,,,,,,,,,,,,,,,,leader,53,162,sing,old,blue,5991.398080099956,None,5991.398080099956,None,2,14.03822869999567,5991.398080099956,None,14.03822869999567,6005.4579546999885,None,6005.970686499961,None,6005.970686499961,None,f,0.17774289997760206,6005.970686499961,None,0.17774289997760206,,,33Sing,001,2022_Aug_29_1415,ProdSingRedoBetween,2021.2.3,59.95904797948804,
,,,,162,0,162,0,,,,,,,,,,,,,,,,,,,,,,6009.657471699989,None,,,,,,,,,,,,,,,,,household,106,163,sing,new,null,6006.675390999997,None,6006.675390999997,None,1,2.1529507000232115,6006.675390999997,None,2.1529507000232115,6008.860564699979,None,6009.380962999945,None,6009.380962999945,None,n,0.25551899999845773,6009.380962999945,None,0.25551899999845773,,,33Sing,001,2022_Aug_29_1415,ProdSingRedoBetween,2021.2.3,59.95904797948804,
,,,,163,0,163,0,,,,,,,,,,,,,,,,,,,,,,6031.979554099962,None,,,,,,,,,,,,,,,,,institute,54,164,sing,old,blue,6010.16085059999,None,6010.16085059999,None,2,20.90750469994964,6010.16085059999,None,20.90750469994964,6031.103440599982,None,6031.614691699971,None,6031.614691699971,None,f,0.3414894000161439,6031.614691699971,None,0.3414894000161439,,,33Sing,001,2022_Aug_29_1415,ProdSingRedoBetween,2021.2.3,59.95904797948804,
,,,,164,0,164,0,,,,,,,,,,,,,,,,,,,,,,6041.355575900001,None,,,,,,,,,,,,,,,,,population,76,165,sing,old,red,6032.487780999974,None,6032.487780999974,None,6,8.084425100008957,6032.487780999974,None,8.084425100008957,6040.589070999995,None,6041.088759499951,None,6041.088759499951,None,r,0.2515467000193894,6041.088759499951,None,0.2515467000193894,,,33Sing,001,2022_Aug_29_1415,ProdSingRedoBetween,2021.2.3,59.95904797948804,
,,,,165,0,165,0,,,,,,,,,,,,,,,,,,,,,,6047.588986199989,None,,,,,,,,,,,,,,,,,incident,81,166,sing,old,red,6041.8561322999885,None,6041.8561322999885,None,2,5.068134100001771,6041.8561322999885,None,5.068134100001771,6046.947400799952,None,6047.467255299969,None,6047.467255299969,None,f,0.08921970002120361,6047.467255299969,None,0.08921970002120361,,,33Sing,001,2022_Aug_29_1415,ProdSingRedoBetween,2021.2.3,59.95904797948804,
,,,,166,0,166,0,,,,,,,,,,,,,,,,,,,,,,6054.485032799945,None,,,,,,,,,,,,,,,,,problem,152,167,sing,new,null,6048.098294699972,None,6048.098294699972,None,3,5.642136100039352,6048.098294699972,None,5.642136100039352,6053.779677299957,None,6054.285178399994,None,6054.285178399994,None,f,0.18302689999109134,6054.285178399994,None,0.18302689999109134,,,33Sing,001,2022_Aug_29_1415,ProdSingRedoBetween,2021.2.3,59.95904797948804,
,,,,167,0,167,0,,,,,,,,,,,,,,,,,,,,,,6065.933457899955,None,,,,,,,,,,,,,,,,,blind,77,168,sing,old,red,6054.992073499947,None,6054.992073499947,None,2,10.25225690001389,6054.992073499947,None,10.25225690001389,6065.262678299972,None,6065.7665763999685,None,6065.7665763999685,None,f,0.14196779998019338,6065.7665763999685,None,0.14196779998019338,,,33Sing,001,2022_Aug_29_1415,ProdSingRedoBetween,2021.2.3,59.95904797948804,
,,,,168,0,168,0,,,,,,,,,,,,,,,,,,,,,,6069.416779499967,None,,,,,,,,,,,,,,,,,atmosphere,179,169,sing,new,null,6066.456456099986,None,6066.456456099986,None,1,2.12377629999537,6066.456456099986,None,2.12377629999537,6068.600403899967,None,6069.101521899982,None,6069.101521899982,None,n,0.2947302999673411,6069.101521899982,None,0.2947302999673411,,,33Sing,001,2022_Aug_29_1415,ProdSingRedoBetween,2021.2.3,59.95904797948804,
,,,,169,0,169,0,,,,,,,,,,,,,,,,,,,,,,6072.990288999979,None,,,,,,,,,,,,,,,,,waste,133,170,sing,new,null,6069.928183799959,None,6069.928183799959,None,1,2.4199340000050142,6069.928183799959,None,2.4199340000050142,6072.373643299972,None,6072.8928322999855,None,6072.8928322999855,None,n,0.07156049995683134,6072.8928322999855,None,0.07156049995683134,,,33Sing,001,2022_Aug_29_1415,ProdSingRedoBetween,2021.2.3,59.95904797948804,
,,,,170,0,170,0,,,,,,,,,,,,,,,,,,,,,,6077.108026499976,None,,,,,,,,,,,,,,,,,skill,21,171,sing,old,yellow,6073.504394999996,None,6073.504394999996,None,6,2.6597951999865472,6073.504394999996,None,2.6597951999865472,6076.192068299977,None,6076.707454699965,None,6076.707454699965,None,r,0.3848197999759577,6076.707454699965,None,0.3848197999759577,,,33Sing,001,2022_Aug_29_1415,ProdSingRedoBetween,2021.2.3,59.95904797948804,
,,,,171,0,171,0,,,,,,,,,,,,,,,,,,,,,,6082.880258499994,None,,,,,,,,,,,,,,,,,substance,62,172,sing,old,red,6077.621719899995,None,6077.621719899995,None,1,4.3664875000249594,6077.621719899995,None,4.3664875000249594,6082.018275199982,None,6082.530977599963,None,6082.530977599963,None,n,0.3293062000302598,6082.530977599963,None,0.3293062000302598,,,33Sing,001,2022_Aug_29_1415,ProdSingRedoBetween,2021.2.3,59.95904797948804,
,,,,172,0,172,0,,,,,,,,,,,,,,,,,,,,,,6098.078880899993,None,,,,,,,,,,,,,,,,,color,171,173,sing,new,null,6083.387348499964,None,6083.387348499964,None,1,13.912937699991744,6083.387348499964,None,13.912937699991744,6097.333386599959,None,6097.8453678999795,None,6097.8453678999795,None,n,0.21476539998548105,6097.8453678999795,None,0.21476539998548105,,,33Sing,001,2022_Aug_29_1415,ProdSingRedoBetween,2021.2.3,59.95904797948804,
,,,,173,0,173,0,,,,,,,,,,,,,,,,,,,,,,6101.532229299948,None,,,,,,,,,,,,,,,,,tennis,24,174,sing,old,yellow,6098.58237889997,None,6098.58237889997,None,1,1.7820542000117712,6098.58237889997,None,1.7820542000117712,6100.387030099984,None,6100.9117336999625,None,6100.9117336999625,None,n,0.6044344000401907,6100.9117336999625,None,0.6044344000401907,,,33Sing,001,2022_Aug_29_1415,ProdSingRedoBetween,2021.2.3,59.95904797948804,
,,,,174,0,174,0,,,,,,,,,,,,,,,,,,,,,,6104.485401199956,None,,,,,,,,,,,,,,,,,fashion,151,175,sing,new,null,6102.044299000001,None,6102.044299000001,None,1,1.7281159000121988,6102.044299000001,None,1.7281159000121988,6103.810958999966,None,6104.318617199955,None,6104.318617199955,None,n,0.14956940000411123,6104.318617199955,None,0.14956940000411123,,,33Sing,001,2022_Aug_29_1415,ProdSingRedoBetween,2021.2.3,59.95904797948804,
,,,,175,0,175,0,,,,,,,,,,,,,,,,,,,,,,6108.606141299999,None,,,,,,,,,,,,,,,,,equipment,98,176,sing,new,null,6105.012358799984,None,6105.012358799984,None,1,2.8078083000145853,6105.012358799984,None,2.8078083000145853,6107.841416999989,None,6108.3593684999505,None,6108.3593684999505,None,n,0.22082480002427474,6108.3593684999505,None,0.22082480002427474,,,33Sing,001,2022_Aug_29_1415,ProdSingRedoBetween,2021.2.3,59.95904797948804,
,,,,176,0,176,0,,,,,,,,,,,,,,,,,,,,,,6115.462972899957,None,,,,,,,,,,,,,,,,,portion,79,177,sing,old,red,6109.115869499976,None,6109.115869499976,None,1,5.280394100002013,6109.115869499976,None,5.280394100002013,6114.41487649997,None,6114.929220399994,None,6114.929220399994,None,n,0.515160700015258,6114.929220399994,None,0.515160700015258,,,33Sing,001,2022_Aug_29_1415,ProdSingRedoBetween,2021.2.3,59.95904797948804,
,,,,177,0,177,0,,,,,,,,,,,,,,,,,,,,,,6118.69918549998,None,,,,,,,,,,,,,,,,,finish,89,178,sing,old,red,6115.969319599972,None,6115.969319599972,None,6,1.906950600037817,6115.969319599972,None,1.906950600037817,6117.905093599984,None,6118.423388099996,None,6118.423388099996,None,r,0.26086969999596477,6118.423388099996,None,0.26086969999596477,,,33Sing,001,2022_Aug_29_1415,ProdSingRedoBetween,2021.2.3,59.95904797948804,
,,,,178,0,178,0,,,,,,,,,,,,,,,,,,,,,,6122.203047099989,None,,,,,,,,,,,,,,,,,trend,109,179,sing,new,null,6119.202773999947,None,6119.202773999947,None,1,2.201709499990102,6119.202773999947,None,2.201709499990102,6121.443347699998,None,6121.952723999973,None,6121.952723999973,None,n,0.21960399998351932,6121.952723999973,None,0.21960399998351932,,,33Sing,001,2022_Aug_29_1415,ProdSingRedoBetween,2021.2.3,59.95904797948804,
,,,,179,0,179,0,,,,,,,,,,,,,,,,,,,,,,6125.4758940999745,None,,,,,,,,,,,,,,,,,suspect,17,180,sing,old,yellow,6122.707708399976,None,6122.707708399976,None,6,1.8165179999778047,6122.707708399976,None,1.8165179999778047,6124.556549699977,None,6125.067695199978,None,6125.067695199978,None,r,0.37658729997929186,6125.067695199978,None,0.37658729997929186,,,33Sing,001,2022_Aug_29_1415,ProdSingRedoBetween,2021.2.3,59.95904797948804,
,,,,,,,,,,,,,,,,,,,,,,,,,,,,,,,,,,,,,,,,,,,,,,,,,,,,,,,,,,,,,,,,,,,,,,,,,6125.9905960999895,None,,,,,,,
