StudyLoop.thisRepN,StudyLoop.thisTrialN,StudyLoop.thisN,StudyLoop.thisIndex,TestLoop.thisRepN,TestLoop.thisTrialN,TestLoop.thisN,TestLoop.thisIndex,textCondition.started,textCondition.stopped,keyCondition.keys,keyCondition.rt,keyCondition.started,keyCondition.stopped,Condition,textWelcome.started,textWelcome.stopped,keyWelcome.keys,keyWelcome.rt,keyWelcome.started,keyWelcome.stopped,textAloud.started,textAloud.stopped,textSilent.started,textSilent.stopped,textSing.started,textSing.stopped,conditional_text.started,conditional_text.stopped,textBlank500.started,textBlank500.stopped,study_word,study_num,study_order,study_type,word_color,textStudy.started,textStudy.stopped,keyStudy.keys,keyStudy.started,keyStudy.stopped,textTestInstructions.started,textTestInstructions.stopped,key_resp_3.keys,key_resp_3.rt,key_resp_3.started,key_resp_3.stopped,test_word,test_num,test_order,test_condition,old_new_test,test_word_original_color,textConf.started,textConf.stopped,textConfScale.started,textConfScale.stopped,keyConf.keys,keyConf.rt,keyConf.started,keyConf.stopped,confidence response time,textTestBlank.started,textTestBlank.stopped,textRKN.started,textRKN.stopped,textRKNScale.started,textRKNScale.stopped,keyRKN.keys,keyRKN.rt,keyRKN.started,keyRKN.stopped,rkn response time,textEnd.started,textEnd.stopped,participant,session,date,expName,psychopyVersion,frameRate,
,,,,,,,,33.69939670001622,None,a,6.956263100029901,33.69939670001622,None,,,,,,,,,,,,,,,,,,,,,,,,,,,,,,,,,,,,,,,,,,,,,,,,,,,,,,,,,,,,,,34 silent,001,2022_Aug_30_1056,ProdSingRedoBetween,2021.2.3,59.99862002821635,
,,,,,,,,,,,,,,SilentTest,40.70595080003841,None,space,459.50134369998705,40.70595080003841,None,,,,,,,,,,,,,,,,,,,,,,,,,,,,,,,,,,,,,,,,,,,,,,,,,,,,,,,34 silent,001,2022_Aug_30_1056,ProdSingRedoBetween,2021.2.3,59.99862002821635,
0,0,0,0,,,,,,,,,,,,,,,,,,40.70595080003841,None,40.70595080003841,None,40.70595080003841,None,40.70595080003841,None,502.7493046000018,None,place,27,1,silent,yellow,500.73693650000496,None,None,500.73693650000496,None,,,,,,,,,,,,,,,,,,,,,,,,,,,,,,,,,,,34 silent,001,2022_Aug_30_1056,ProdSingRedoBetween,2021.2.3,59.99862002821635,
1,0,1,0,,,,,,,,,,,,,,,,,,,,,,,,,,505.26830140000675,None,course,66,2,silent,red,503.25712990004104,None,None,503.25712990004104,None,,,,,,,,,,,,,,,,,,,,,,,,,,,,,,,,,,,34 silent,001,2022_Aug_30_1056,ProdSingRedoBetween,2021.2.3,59.99862002821635,
2,0,2,0,,,,,,,,,,,,,,,,,,,,,,,,,,507.77080970001407,None,edition,44,3,silent,blue,505.7715812000097,None,None,505.7715812000097,None,,,,,,,,,,,,,,,,,,,,,,,,,,,,,,,,,,,34 silent,001,2022_Aug_30_1056,ProdSingRedoBetween,2021.2.3,59.99862002821635,
3,0,3,0,,,,,,,,,,,,,,,,,,,,,,,,,,510.2902418000158,None,sunset,78,4,silent,red,508.2798997000209,None,None,508.2798997000209,None,,,,,,,,,,,,,,,,,,,,,,,,,,,,,,,,,,,34 silent,001,2022_Aug_30_1056,ProdSingRedoBetween,2021.2.3,59.99862002821635,
4,0,4,0,,,,,,,,,,,,,,,,,,,,,,,,,,512.7928006000002,None,foundation,68,5,silent,red,510.7914621999953,None,None,510.7914621999953,None,,,,,,,,,,,,,,,,,,,,,,,,,,,,,,,,,,,34 silent,001,2022_Aug_30_1056,ProdSingRedoBetween,2021.2.3,59.99862002821635,
5,0,5,0,,,,,,,,,,,,,,,,,,,,,,,,,,515.2952974000364,None,group,19,6,silent,yellow,513.2940002999967,None,None,513.2940002999967,None,,,,,,,,,,,,,,,,,,,,,,,,,,,,,,,,,,,34 silent,001,2022_Aug_30_1056,ProdSingRedoBetween,2021.2.3,59.99862002821635,
6,0,6,0,,,,,,,,,,,,,,,,,,,,,,,,,,517.8141330000362,None,country,21,7,silent,yellow,515.802259100019,None,None,515.802259100019,None,,,,,,,,,,,,,,,,,,,,,,,,,,,,,,,,,,,34 silent,001,2022_Aug_30_1056,ProdSingRedoBetween,2021.2.3,59.99862002821635,
7,0,7,0,,,,,,,,,,,,,,,,,,,,,,,,,,520.3336724000401,None,review,86,8,silent,red,518.3262625000207,None,None,518.3262625000207,None,,,,,,,,,,,,,,,,,,,,,,,,,,,,,,,,,,,34 silent,001,2022_Aug_30_1056,ProdSingRedoBetween,2021.2.3,59.99862002821635,
8,0,8,0,,,,,,,,,,,,,,,,,,,,,,,,,,522.8361256000353,None,stranger,12,9,silent,yellow,520.8340966000105,None,None,520.8340966000105,None,,,,,,,,,,,,,,,,,,,,,,,,,,,,,,,,,,,34 silent,001,2022_Aug_30_1056,ProdSingRedoBetween,2021.2.3,59.99862002821635,
9,0,9,0,,,,,,,,,,,,,,,,,,,,,,,,,,525.3385190000408,None,death,40,10,silent,blue,523.3387139000115,None,None,523.3387139000115,None,,,,,,,,,,,,,,,,,,,,,,,,,,,,,,,,,,,34 silent,001,2022_Aug_30_1056,ProdSingRedoBetween,2021.2.3,59.99862002821635,
10,0,10,0,,,,,,,,,,,,,,,,,,,,,,,,,,527.8410789000336,None,pancakes,34,11,silent,blue,525.8390606000321,None,None,525.8390606000321,None,,,,,,,,,,,,,,,,,,,,,,,,,,,,,,,,,,,34 silent,001,2022_Aug_30_1056,ProdSingRedoBetween,2021.2.3,59.99862002821635,
11,0,11,0,,,,,,,,,,,,,,,,,,,,,,,,,,530.3602556000114,None,dance,26,12,silent,yellow,528.3472712000366,None,None,528.3472712000366,None,,,,,,,,,,,,,,,,,,,,,,,,,,,,,,,,,,,34 silent,001,2022_Aug_30_1056,ProdSingRedoBetween,2021.2.3,59.99862002821635,
12,0,12,0,,,,,,,,,,,,,,,,,,,,,,,,,,532.8627847000025,None,commercial,5,13,silent,yellow,530.8605028000311,None,None,530.8605028000311,None,,,,,,,,,,,,,,,,,,,,,,,,,,,,,,,,,,,34 silent,001,2022_Aug_30_1056,ProdSingRedoBetween,2021.2.3,59.99862002821635,
13,0,13,0,,,,,,,,,,,,,,,,,,,,,,,,,,535.3819690000382,None,solution,59,14,silent,yellow,533.3667508000508,None,None,533.3667508000508,None,,,,,,,,,,,,,,,,,,,,,,,,,,,,,,,,,,,34 silent,001,2022_Aug_30_1056,ProdSingRedoBetween,2021.2.3,59.99862002821635,
14,0,14,0,,,,,,,,,,,,,,,,,,,,,,,,,,537.8844189000083,None,trail,53,15,silent,blue,535.884351500019,None,None,535.884351500019,None,,,,,,,,,,,,,,,,,,,,,,,,,,,,,,,,,,,34 silent,001,2022_Aug_30_1056,ProdSingRedoBetween,2021.2.3,59.99862002821635,
15,0,15,0,,,,,,,,,,,,,,,,,,,,,,,,,,540.3869431000203,None,vision,41,16,silent,blue,538.3876571000437,None,None,538.3876571000437,None,,,,,,,,,,,,,,,,,,,,,,,,,,,,,,,,,,,34 silent,001,2022_Aug_30_1056,ProdSingRedoBetween,2021.2.3,59.99862002821635,
16,0,16,0,,,,,,,,,,,,,,,,,,,,,,,,,,542.8894829000346,None,enemy,2,17,silent,yellow,540.8879540000344,None,None,540.8879540000344,None,,,,,,,,,,,,,,,,,,,,,,,,,,,,,,,,,,,34 silent,001,2022_Aug_30_1056,ProdSingRedoBetween,2021.2.3,59.99862002821635,
17,0,17,0,,,,,,,,,,,,,,,,,,,,,,,,,,545.4085666000028,None,pattern,58,18,silent,blue,543.3931504000211,None,None,543.3931504000211,None,,,,,,,,,,,,,,,,,,,,,,,,,,,,,,,,,,,34 silent,001,2022_Aug_30_1056,ProdSingRedoBetween,2021.2.3,59.99862002821635,
18,0,18,0,,,,,,,,,,,,,,,,,,,,,,,,,,547.9112436000141,None,employment,48,19,silent,blue,545.909197800036,None,None,545.909197800036,None,,,,,,,,,,,,,,,,,,,,,,,,,,,,,,,,,,,34 silent,001,2022_Aug_30_1056,ProdSingRedoBetween,2021.2.3,59.99862002821635,
19,0,19,0,,,,,,,,,,,,,,,,,,,,,,,,,,550.4135195999988,None,management,17,20,silent,yellow,548.4134982000105,None,None,548.4134982000105,None,,,,,,,,,,,,,,,,,,,,,,,,,,,,,,,,,,,34 silent,001,2022_Aug_30_1056,ProdSingRedoBetween,2021.2.3,59.99862002821635,
20,0,20,0,,,,,,,,,,,,,,,,,,,,,,,,,,552.9325294000446,None,guide,71,21,silent,red,550.9223371000262,None,None,550.9223371000262,None,,,,,,,,,,,,,,,,,,,,,,,,,,,,,,,,,,,34 silent,001,2022_Aug_30_1056,ProdSingRedoBetween,2021.2.3,59.99862002821635,
21,0,21,0,,,,,,,,,,,,,,,,,,,,,,,,,,555.4353667999967,None,growth,54,22,silent,blue,553.4357335999957,None,None,553.4357335999957,None,,,,,,,,,,,,,,,,,,,,,,,,,,,,,,,,,,,34 silent,001,2022_Aug_30_1056,ProdSingRedoBetween,2021.2.3,59.99862002821635,
22,0,22,0,,,,,,,,,,,,,,,,,,,,,,,,,,557.9544576000189,None,passage,0,23,silent,yellow,555.9396427000174,None,None,555.9396427000174,None,,,,,,,,,,,,,,,,,,,,,,,,,,,,,,,,,,,34 silent,001,2022_Aug_30_1056,ProdSingRedoBetween,2021.2.3,59.99862002821635,
23,0,23,0,,,,,,,,,,,,,,,,,,,,,,,,,,560.4571224999963,None,chief,7,24,silent,yellow,558.455083000008,None,None,558.455083000008,None,,,,,,,,,,,,,,,,,,,,,,,,,,,,,,,,,,,34 silent,001,2022_Aug_30_1056,ProdSingRedoBetween,2021.2.3,59.99862002821635,
24,0,24,0,,,,,,,,,,,,,,,,,,,,,,,,,,562.9595865000156,None,patient,42,25,silent,blue,560.9574399000267,None,None,560.9574399000267,None,,,,,,,,,,,,,,,,,,,,,,,,,,,,,,,,,,,34 silent,001,2022_Aug_30_1056,ProdSingRedoBetween,2021.2.3,59.99862002821635,
25,0,25,0,,,,,,,,,,,,,,,,,,,,,,,,,,565.4619802000234,None,appeal,81,26,silent,red,563.4600058000069,None,None,563.4600058000069,None,,,,,,,,,,,,,,,,,,,,,,,,,,,,,,,,,,,34 silent,001,2022_Aug_30_1056,ProdSingRedoBetween,2021.2.3,59.99862002821635,
26,0,26,0,,,,,,,,,,,,,,,,,,,,,,,,,,567.9646935000201,None,primary,79,27,silent,red,565.9656518000411,None,None,565.9656518000411,None,,,,,,,,,,,,,,,,,,,,,,,,,,,,,,,,,,,34 silent,001,2022_Aug_30_1056,ProdSingRedoBetween,2021.2.3,59.99862002821635,
27,0,27,0,,,,,,,,,,,,,,,,,,,,,,,,,,570.4669883000315,None,burden,55,28,silent,blue,568.467082200048,None,None,568.467082200048,None,,,,,,,,,,,,,,,,,,,,,,,,,,,,,,,,,,,34 silent,001,2022_Aug_30_1056,ProdSingRedoBetween,2021.2.3,59.99862002821635,
28,0,28,0,,,,,,,,,,,,,,,,,,,,,,,,,,572.9860926000401,None,medicine,56,29,silent,blue,570.9724397000391,None,None,570.9724397000391,None,,,,,,,,,,,,,,,,,,,,,,,,,,,,,,,,,,,34 silent,001,2022_Aug_30_1056,ProdSingRedoBetween,2021.2.3,59.99862002821635,
29,0,29,0,,,,,,,,,,,,,,,,,,,,,,,,,,575.4887938000029,None,quarter,45,30,silent,blue,573.4871206000098,None,None,573.4871206000098,None,,,,,,,,,,,,,,,,,,,,,,,,,,,,,,,,,,,34 silent,001,2022_Aug_30_1056,ProdSingRedoBetween,2021.2.3,59.99862002821635,
30,0,30,0,,,,,,,,,,,,,,,,,,,,,,,,,,578.007883800019,None,bright,32,31,silent,blue,576.0031239000382,None,None,576.0031239000382,None,,,,,,,,,,,,,,,,,,,,,,,,,,,,,,,,,,,34 silent,001,2022_Aug_30_1056,ProdSingRedoBetween,2021.2.3,59.99862002821635,
31,0,31,0,,,,,,,,,,,,,,,,,,,,,,,,,,580.5102965999977,None,entrance,52,32,silent,blue,578.510565900011,None,None,578.510565900011,None,,,,,,,,,,,,,,,,,,,,,,,,,,,,,,,,,,,34 silent,001,2022_Aug_30_1056,ProdSingRedoBetween,2021.2.3,59.99862002821635,
32,0,32,0,,,,,,,,,,,,,,,,,,,,,,,,,,583.0127461000229,None,brilliant,64,33,silent,red,581.0107009000494,None,None,581.0107009000494,None,,,,,,,,,,,,,,,,,,,,,,,,,,,,,,,,,,,34 silent,001,2022_Aug_30_1056,ProdSingRedoBetween,2021.2.3,59.99862002821635,
33,0,33,0,,,,,,,,,,,,,,,,,,,,,,,,,,585.5319783000159,None,little,87,34,silent,red,583.5166639999952,None,None,583.5166639999952,None,,,,,,,,,,,,,,,,,,,,,,,,,,,,,,,,,,,34 silent,001,2022_Aug_30_1056,ProdSingRedoBetween,2021.2.3,59.99862002821635,
34,0,34,0,,,,,,,,,,,,,,,,,,,,,,,,,,588.0345443999977,None,curve,60,35,silent,red,586.0325283000129,None,None,586.0325283000129,None,,,,,,,,,,,,,,,,,,,,,,,,,,,,,,,,,,,34 silent,001,2022_Aug_30_1056,ProdSingRedoBetween,2021.2.3,59.99862002821635,
35,0,35,0,,,,,,,,,,,,,,,,,,,,,,,,,,590.5370626000222,None,school,15,36,silent,yellow,588.5354251000099,None,None,588.5354251000099,None,,,,,,,,,,,,,,,,,,,,,,,,,,,,,,,,,,,34 silent,001,2022_Aug_30_1056,ProdSingRedoBetween,2021.2.3,59.99862002821635,
36,0,36,0,,,,,,,,,,,,,,,,,,,,,,,,,,593.0561582000228,None,history,9,37,silent,yellow,591.0466237000073,None,None,591.0466237000073,None,,,,,,,,,,,,,,,,,,,,,,,,,,,,,,,,,,,34 silent,001,2022_Aug_30_1056,ProdSingRedoBetween,2021.2.3,59.99862002821635,
37,0,37,0,,,,,,,,,,,,,,,,,,,,,,,,,,595.558734500024,None,listen,16,38,silent,yellow,593.5567774000228,None,None,593.5567774000228,None,,,,,,,,,,,,,,,,,,,,,,,,,,,,,,,,,,,34 silent,001,2022_Aug_30_1056,ProdSingRedoBetween,2021.2.3,59.99862002821635,
38,0,38,0,,,,,,,,,,,,,,,,,,,,,,,,,,598.0778863000451,None,fellow,6,39,silent,yellow,596.0644436000148,None,None,596.0644436000148,None,,,,,,,,,,,,,,,,,,,,,,,,,,,,,,,,,,,34 silent,001,2022_Aug_30_1056,ProdSingRedoBetween,2021.2.3,59.99862002821635,
39,0,39,0,,,,,,,,,,,,,,,,,,,,,,,,,,600.5804712999961,None,individual,46,40,silent,blue,598.5784448000486,None,None,598.5784448000486,None,,,,,,,,,,,,,,,,,,,,,,,,,,,,,,,,,,,34 silent,001,2022_Aug_30_1056,ProdSingRedoBetween,2021.2.3,59.99862002821635,
40,0,40,0,,,,,,,,,,,,,,,,,,,,,,,,,,603.0829126000172,None,minor,20,41,silent,yellow,601.0808588000364,None,None,601.0808588000364,None,,,,,,,,,,,,,,,,,,,,,,,,,,,,,,,,,,,34 silent,001,2022_Aug_30_1056,ProdSingRedoBetween,2021.2.3,59.99862002821635,
41,0,41,0,,,,,,,,,,,,,,,,,,,,,,,,,,605.5854709999985,None,south,75,42,silent,red,603.5856406000094,None,None,603.5856406000094,None,,,,,,,,,,,,,,,,,,,,,,,,,,,,,,,,,,,34 silent,001,2022_Aug_30_1056,ProdSingRedoBetween,2021.2.3,59.99862002821635,
42,0,42,0,,,,,,,,,,,,,,,,,,,,,,,,,,608.0875169000356,None,budget,4,43,silent,yellow,606.0883347000345,None,None,606.0883347000345,None,,,,,,,,,,,,,,,,,,,,,,,,,,,,,,,,,,,34 silent,001,2022_Aug_30_1056,ProdSingRedoBetween,2021.2.3,59.99862002821635,
43,0,43,0,,,,,,,,,,,,,,,,,,,,,,,,,,610.5901432000101,None,distance,11,44,silent,yellow,608.5901308000321,None,None,608.5901308000321,None,,,,,,,,,,,,,,,,,,,,,,,,,,,,,,,,,,,34 silent,001,2022_Aug_30_1056,ProdSingRedoBetween,2021.2.3,59.99862002821635,
44,0,44,0,,,,,,,,,,,,,,,,,,,,,,,,,,613.0927815000177,None,express,69,45,silent,red,611.0906888000318,None,None,611.0906888000318,None,,,,,,,,,,,,,,,,,,,,,,,,,,,,,,,,,,,34 silent,001,2022_Aug_30_1056,ProdSingRedoBetween,2021.2.3,59.99862002821635,
45,0,45,0,,,,,,,,,,,,,,,,,,,,,,,,,,615.5950879000011,None,threat,57,46,silent,blue,613.5933043000405,None,None,613.5933043000405,None,,,,,,,,,,,,,,,,,,,,,,,,,,,,,,,,,,,34 silent,001,2022_Aug_30_1056,ProdSingRedoBetween,2021.2.3,59.99862002821635,
46,0,46,0,,,,,,,,,,,,,,,,,,,,,,,,,,618.1144646000466,None,error,88,47,silent,red,616.0998555000406,None,None,616.0998555000406,None,,,,,,,,,,,,,,,,,,,,,,,,,,,,,,,,,,,34 silent,001,2022_Aug_30_1056,ProdSingRedoBetween,2021.2.3,59.99862002821635,
47,0,47,0,,,,,,,,,,,,,,,,,,,,,,,,,,620.6170646999963,None,permit,89,48,silent,red,618.6179972999962,None,None,618.6179972999962,None,,,,,,,,,,,,,,,,,,,,,,,,,,,,,,,,,,,34 silent,001,2022_Aug_30_1056,ProdSingRedoBetween,2021.2.3,59.99862002821635,
48,0,48,0,,,,,,,,,,,,,,,,,,,,,,,,,,623.1193529000157,None,orchestra,51,49,silent,blue,621.1180121000507,None,None,621.1180121000507,None,,,,,,,,,,,,,,,,,,,,,,,,,,,,,,,,,,,34 silent,001,2022_Aug_30_1056,ProdSingRedoBetween,2021.2.3,59.99862002821635,
49,0,49,0,,,,,,,,,,,,,,,,,,,,,,,,,,625.6387272000429,None,personnel,85,50,silent,red,623.6248658000259,None,None,623.6248658000259,None,,,,,,,,,,,,,,,,,,,,,,,,,,,,,,,,,,,34 silent,001,2022_Aug_30_1056,ProdSingRedoBetween,2021.2.3,59.99862002821635,
50,0,50,0,,,,,,,,,,,,,,,,,,,,,,,,,,628.1412287999992,None,throw,50,51,silent,blue,626.1416441000183,None,None,626.1416441000183,None,,,,,,,,,,,,,,,,,,,,,,,,,,,,,,,,,,,34 silent,001,2022_Aug_30_1056,ProdSingRedoBetween,2021.2.3,59.99862002821635,
51,0,51,0,,,,,,,,,,,,,,,,,,,,,,,,,,630.6437305000145,None,treatment,63,52,silent,red,628.6443457000423,None,None,628.6443457000423,None,,,,,,,,,,,,,,,,,,,,,,,,,,,,,,,,,,,34 silent,001,2022_Aug_30_1056,ProdSingRedoBetween,2021.2.3,59.99862002821635,
52,0,52,0,,,,,,,,,,,,,,,,,,,,,,,,,,633.14622960001,None,trash,67,53,silent,red,631.1441873000003,None,None,631.1441873000003,None,,,,,,,,,,,,,,,,,,,,,,,,,,,,,,,,,,,34 silent,001,2022_Aug_30_1056,ProdSingRedoBetween,2021.2.3,59.99862002821635,
53,0,53,0,,,,,,,,,,,,,,,,,,,,,,,,,,635.6487566000433,None,blind,1,54,silent,yellow,633.6478716999991,None,None,633.6478716999991,None,,,,,,,,,,,,,,,,,,,,,,,,,,,,,,,,,,,34 silent,001,2022_Aug_30_1056,ProdSingRedoBetween,2021.2.3,59.99862002821635,
54,0,54,0,,,,,,,,,,,,,,,,,,,,,,,,,,638.1679130000412,None,break,23,55,silent,yellow,636.1537008000305,None,None,636.1537008000305,None,,,,,,,,,,,,,,,,,,,,,,,,,,,,,,,,,,,34 silent,001,2022_Aug_30_1056,ProdSingRedoBetween,2021.2.3,59.99862002821635,
55,0,55,0,,,,,,,,,,,,,,,,,,,,,,,,,,640.6705420000362,None,beauty,39,56,silent,blue,638.6683889999986,None,None,638.6683889999986,None,,,,,,,,,,,,,,,,,,,,,,,,,,,,,,,,,,,34 silent,001,2022_Aug_30_1056,ProdSingRedoBetween,2021.2.3,59.99862002821635,
56,0,56,0,,,,,,,,,,,,,,,,,,,,,,,,,,643.1729015000165,None,citizen,38,57,silent,blue,641.172608199995,None,None,641.172608199995,None,,,,,,,,,,,,,,,,,,,,,,,,,,,,,,,,,,,34 silent,001,2022_Aug_30_1056,ProdSingRedoBetween,2021.2.3,59.99862002821635,
57,0,57,0,,,,,,,,,,,,,,,,,,,,,,,,,,645.6763032000163,None,taste,37,58,silent,blue,643.6730709000258,None,None,643.6730709000258,None,,,,,,,,,,,,,,,,,,,,,,,,,,,,,,,,,,,34 silent,001,2022_Aug_30_1056,ProdSingRedoBetween,2021.2.3,59.99862002821635,
58,0,58,0,,,,,,,,,,,,,,,,,,,,,,,,,,648.1944997000392,None,research,83,59,silent,red,646.1804621000192,None,None,646.1804621000192,None,,,,,,,,,,,,,,,,,,,,,,,,,,,,,,,,,,,34 silent,001,2022_Aug_30_1056,ProdSingRedoBetween,2021.2.3,59.99862002821635,
59,0,59,0,,,,,,,,,,,,,,,,,,,,,,,,,,650.6970901000313,None,court,24,60,silent,yellow,648.6950611000066,None,None,648.6950611000066,None,,,,,,,,,,,,,,,,,,,,,,,,,,,,,,,,,,,34 silent,001,2022_Aug_30_1056,ProdSingRedoBetween,2021.2.3,59.99862002821635,
60,0,60,0,,,,,,,,,,,,,,,,,,,,,,,,,,653.1997253000154,None,accident,29,61,silent,blue,651.1976343000424,None,None,651.1976343000424,None,,,,,,,,,,,,,,,,,,,,,,,,,,,,,,,,,,,34 silent,001,2022_Aug_30_1056,ProdSingRedoBetween,2021.2.3,59.99862002821635,
61,0,61,0,,,,,,,,,,,,,,,,,,,,,,,,,,655.7187910000212,None,guest,84,62,silent,red,653.7037114000414,None,None,653.7037114000414,None,,,,,,,,,,,,,,,,,,,,,,,,,,,,,,,,,,,34 silent,001,2022_Aug_30_1056,ProdSingRedoBetween,2021.2.3,59.99862002821635,
62,0,62,0,,,,,,,,,,,,,,,,,,,,,,,,,,658.2212225000258,None,graduate,61,63,silent,red,656.2202896000235,None,None,656.2202896000235,None,,,,,,,,,,,,,,,,,,,,,,,,,,,,,,,,,,,34 silent,001,2022_Aug_30_1056,ProdSingRedoBetween,2021.2.3,59.99862002821635,
63,0,63,0,,,,,,,,,,,,,,,,,,,,,,,,,,660.7404443999985,None,business,73,64,silent,red,658.7261997000314,None,None,658.7261997000314,None,,,,,,,,,,,,,,,,,,,,,,,,,,,,,,,,,,,34 silent,001,2022_Aug_30_1056,ProdSingRedoBetween,2021.2.3,59.99862002821635,
64,0,64,0,,,,,,,,,,,,,,,,,,,,,,,,,,663.2595452000387,None,century,36,65,silent,blue,661.2523056000355,None,None,661.2523056000355,None,,,,,,,,,,,,,,,,,,,,,,,,,,,,,,,,,,,34 silent,001,2022_Aug_30_1056,ProdSingRedoBetween,2021.2.3,59.99862002821635,
65,0,65,0,,,,,,,,,,,,,,,,,,,,,,,,,,665.7621537999948,None,atmosphere,65,66,silent,red,663.7601201000507,None,None,663.7601201000507,None,,,,,,,,,,,,,,,,,,,,,,,,,,,,,,,,,,,34 silent,001,2022_Aug_30_1056,ProdSingRedoBetween,2021.2.3,59.99862002821635,
66,0,66,0,,,,,,,,,,,,,,,,,,,,,,,,,,668.2809754000045,None,discussion,82,67,silent,red,666.2696501000319,None,None,666.2696501000319,None,,,,,,,,,,,,,,,,,,,,,,,,,,,,,,,,,,,34 silent,001,2022_Aug_30_1056,ProdSingRedoBetween,2021.2.3,59.99862002821635,
67,0,67,0,,,,,,,,,,,,,,,,,,,,,,,,,,670.7837484000484,None,beginning,28,68,silent,yellow,668.7845643000328,None,None,668.7845643000328,None,,,,,,,,,,,,,,,,,,,,,,,,,,,,,,,,,,,34 silent,001,2022_Aug_30_1056,ProdSingRedoBetween,2021.2.3,59.99862002821635,
68,0,68,0,,,,,,,,,,,,,,,,,,,,,,,,,,673.286265600007,None,spoke,25,69,silent,yellow,671.2842431000317,None,None,671.2842431000317,None,,,,,,,,,,,,,,,,,,,,,,,,,,,,,,,,,,,34 silent,001,2022_Aug_30_1056,ProdSingRedoBetween,2021.2.3,59.99862002821635,
69,0,69,0,,,,,,,,,,,,,,,,,,,,,,,,,,675.7888656000141,None,concern,49,70,silent,blue,673.7875992000336,None,None,673.7875992000336,None,,,,,,,,,,,,,,,,,,,,,,,,,,,,,,,,,,,34 silent,001,2022_Aug_30_1056,ProdSingRedoBetween,2021.2.3,59.99862002821635,
70,0,70,0,,,,,,,,,,,,,,,,,,,,,,,,,,678.2912012000452,None,private,62,71,silent,red,676.2905911999987,None,None,676.2905911999987,None,,,,,,,,,,,,,,,,,,,,,,,,,,,,,,,,,,,34 silent,001,2022_Aug_30_1056,ProdSingRedoBetween,2021.2.3,59.99862002821635,
71,0,71,0,,,,,,,,,,,,,,,,,,,,,,,,,,680.8104083000217,None,substance,74,72,silent,red,678.7981442000018,None,None,678.7981442000018,None,,,,,,,,,,,,,,,,,,,,,,,,,,,,,,,,,,,34 silent,001,2022_Aug_30_1056,ProdSingRedoBetween,2021.2.3,59.99862002821635,
72,0,72,0,,,,,,,,,,,,,,,,,,,,,,,,,,683.3130305000232,None,narrow,8,73,silent,yellow,681.310969400045,None,None,681.310969400045,None,,,,,,,,,,,,,,,,,,,,,,,,,,,,,,,,,,,34 silent,001,2022_Aug_30_1056,ProdSingRedoBetween,2021.2.3,59.99862002821635,
73,0,73,0,,,,,,,,,,,,,,,,,,,,,,,,,,685.8320839999942,None,majority,35,74,silent,blue,683.8205287000164,None,None,683.8205287000164,None,,,,,,,,,,,,,,,,,,,,,,,,,,,,,,,,,,,34 silent,001,2022_Aug_30_1056,ProdSingRedoBetween,2021.2.3,59.99862002821635,
74,0,74,0,,,,,,,,,,,,,,,,,,,,,,,,,,688.33445080003,None,government,10,75,silent,yellow,686.3331638000091,None,None,686.3331638000091,None,,,,,,,,,,,,,,,,,,,,,,,,,,,,,,,,,,,34 silent,001,2022_Aug_30_1056,ProdSingRedoBetween,2021.2.3,59.99862002821635,
75,0,75,0,,,,,,,,,,,,,,,,,,,,,,,,,,690.8371880000341,None,addition,18,76,silent,yellow,688.8350550000323,None,None,688.8350550000323,None,,,,,,,,,,,,,,,,,,,,,,,,,,,,,,,,,,,34 silent,001,2022_Aug_30_1056,ProdSingRedoBetween,2021.2.3,59.99862002821635,
76,0,76,0,,,,,,,,,,,,,,,,,,,,,,,,,,693.3563027000055,None,count,14,77,silent,yellow,691.3409990000073,None,None,691.3409990000073,None,,,,,,,,,,,,,,,,,,,,,,,,,,,,,,,,,,,34 silent,001,2022_Aug_30_1056,ProdSingRedoBetween,2021.2.3,59.99862002821635,
77,0,77,0,,,,,,,,,,,,,,,,,,,,,,,,,,695.8589176000096,None,point,3,78,silent,yellow,693.8569123000489,None,None,693.8569123000489,None,,,,,,,,,,,,,,,,,,,,,,,,,,,,,,,,,,,34 silent,001,2022_Aug_30_1056,ProdSingRedoBetween,2021.2.3,59.99862002821635,
78,0,78,0,,,,,,,,,,,,,,,,,,,,,,,,,,698.3780821000109,None,industry,43,79,silent,blue,696.364686600049,None,None,696.364686600049,None,,,,,,,,,,,,,,,,,,,,,,,,,,,,,,,,,,,34 silent,001,2022_Aug_30_1056,ProdSingRedoBetween,2021.2.3,59.99862002821635,
79,0,79,0,,,,,,,,,,,,,,,,,,,,,,,,,,700.8804853000329,None,contract,47,80,silent,blue,698.880793999997,None,None,698.880793999997,None,,,,,,,,,,,,,,,,,,,,,,,,,,,,,,,,,,,34 silent,001,2022_Aug_30_1056,ProdSingRedoBetween,2021.2.3,59.99862002821635,
80,0,80,0,,,,,,,,,,,,,,,,,,,,,,,,,,703.3994063000428,None,profession,33,81,silent,blue,701.3970413000206,None,None,701.3970413000206,None,,,,,,,,,,,,,,,,,,,,,,,,,,,,,,,,,,,34 silent,001,2022_Aug_30_1056,ProdSingRedoBetween,2021.2.3,59.99862002821635,
81,0,81,0,,,,,,,,,,,,,,,,,,,,,,,,,,705.9019601000473,None,mechanical,72,82,silent,red,703.9000411000452,None,None,703.9000411000452,None,,,,,,,,,,,,,,,,,,,,,,,,,,,,,,,,,,,34 silent,001,2022_Aug_30_1056,ProdSingRedoBetween,2021.2.3,59.99862002821635,
82,0,82,0,,,,,,,,,,,,,,,,,,,,,,,,,,708.4047441000002,None,space,31,83,silent,blue,706.402805300022,None,None,706.402805300022,None,,,,,,,,,,,,,,,,,,,,,,,,,,,,,,,,,,,34 silent,001,2022_Aug_30_1056,ProdSingRedoBetween,2021.2.3,59.99862002821635,
83,0,83,0,,,,,,,,,,,,,,,,,,,,,,,,,,710.9238770999946,None,suspect,22,84,silent,yellow,708.9111009000335,None,None,708.9111009000335,None,,,,,,,,,,,,,,,,,,,,,,,,,,,,,,,,,,,34 silent,001,2022_Aug_30_1056,ProdSingRedoBetween,2021.2.3,59.99862002821635,
84,0,84,0,,,,,,,,,,,,,,,,,,,,,,,,,,713.4263227000483,None,phrase,70,85,silent,red,711.4263210000354,None,None,711.4263210000354,None,,,,,,,,,,,,,,,,,,,,,,,,,,,,,,,,,,,34 silent,001,2022_Aug_30_1056,ProdSingRedoBetween,2021.2.3,59.99862002821635,
85,0,85,0,,,,,,,,,,,,,,,,,,,,,,,,,,715.9287520000362,None,welcome,30,86,silent,blue,713.9266942000249,None,None,713.9266942000249,None,,,,,,,,,,,,,,,,,,,,,,,,,,,,,,,,,,,34 silent,001,2022_Aug_30_1056,ProdSingRedoBetween,2021.2.3,59.99862002821635,
86,0,86,0,,,,,,,,,,,,,,,,,,,,,,,,,,718.4313193000271,None,colonel,77,87,silent,red,716.4294025000418,None,None,716.4294025000418,None,,,,,,,,,,,,,,,,,,,,,,,,,,,,,,,,,,,34 silent,001,2022_Aug_30_1056,ProdSingRedoBetween,2021.2.3,59.99862002821635,
87,0,87,0,,,,,,,,,,,,,,,,,,,,,,,,,,720.9338986999937,None,religion,76,88,silent,red,718.931784800021,None,None,718.931784800021,None,,,,,,,,,,,,,,,,,,,,,,,,,,,,,,,,,,,34 silent,001,2022_Aug_30_1056,ProdSingRedoBetween,2021.2.3,59.99862002821635,
88,0,88,0,,,,,,,,,,,,,,,,,,,,,,,,,,723.4531474999967,None,cousin,80,89,silent,red,721.4432308000396,None,None,721.4432308000396,None,,,,,,,,,,,,,,,,,,,,,,,,,,,,,,,,,,,34 silent,001,2022_Aug_30_1056,ProdSingRedoBetween,2021.2.3,59.99862002821635,
89,0,89,0,,,,,,,,,,,,,,,,,,,,,,,,,,725.9721480000298,None,goose,13,90,silent,yellow,723.957871599996,None,None,723.957871599996,None,,,,,,,,,,,,,,,,,,,,,,,,,,,,,,,,,,,34 silent,001,2022_Aug_30_1056,ProdSingRedoBetween,2021.2.3,59.99862002821635,
,,,,,,,,,,,,,,,,,,,,,,,,,,,,,,,,,,,,,,,,,726.472865400021,None,k,69.30220989999361,726.472865400021,None,,,,,,,,,,,,,,,,,,,,,,,,,,,,,34 silent,001,2022_Aug_30_1056,ProdSingRedoBetween,2021.2.3,59.99862002821635,
,,,,0,0,0,0,,,,,,,,,,,,,,,,,,,,,,806.4858485000441,None,,,,,,,,,,,,,,,,,reach,178,1,silent,new,null,796.2933587000007,None,796.2933587000007,None,6,6.849713400006294,796.2933587000007,None,6.849713400006294,803.1668311000103,None,803.6716407000204,None,803.6716407000204,None,r,2.7914438999723643,803.6716407000204,None,2.7914438999723643,,,34 silent,001,2022_Aug_30_1056,ProdSingRedoBetween,2021.2.3,59.99862002821635,
,,,,1,0,1,0,,,,,,,,,,,,,,,,,,,,,,813.4928805000382,None,,,,,,,,,,,,,,,,,couch,169,2,silent,new,null,806.9935045000166,None,806.9935045000166,None,2,3.7176237999810837,806.9935045000166,None,3.7176237999810837,810.7398613000405,None,811.2406956000486,None,811.2406956000486,None,f,2.2303372000460513,811.2406956000486,None,2.2303372000460513,,,34 silent,001,2022_Aug_30_1056,ProdSingRedoBetween,2021.2.3,59.99862002821635,
,,,,2,0,2,0,,,,,,,,,,,,,,,,,,,,,,819.9325324000092,None,,,,,,,,,,,,,,,,,government,10,3,silent,old,yellow,814.0048814000329,None,814.0048814000329,None,6,3.2340778000070713,814.0048814000329,None,3.2340778000070713,817.2631159000448,None,817.7639525000122,None,817.7639525000122,None,r,2.1470912999939173,817.7639525000122,None,2.1470912999939173,,,34 silent,001,2022_Aug_30_1056,ProdSingRedoBetween,2021.2.3,59.99862002821635,
,,,,3,0,3,0,,,,,,,,,,,,,,,,,,,,,,825.2212498000008,None,,,,,,,,,,,,,,,,,public,164,4,silent,new,null,820.4412251000176,None,820.4412251000176,None,4,3.710072699992452,820.4412251000176,None,3.710072699992452,824.1760500000091,None,824.6911900000414,None,824.6911900000414,None,f,0.5000321999541484,824.6911900000414,None,0.5000321999541484,,,34 silent,001,2022_Aug_30_1056,ProdSingRedoBetween,2021.2.3,59.99862002821635,
,,,,4,0,4,0,,,,,,,,,,,,,,,,,,,,,,830.7767898000311,None,,,,,,,,,,,,,,,,,contract,47,5,silent,old,blue,825.7304853000096,None,825.7304853000096,None,6,2.924411499989219,825.7304853000096,None,2.924411499989219,828.6746416999958,None,829.1777841000003,None,829.1777841000003,None,r,1.5811646999791265,829.1777841000003,None,1.5811646999791265,,,34 silent,001,2022_Aug_30_1056,ProdSingRedoBetween,2021.2.3,59.99862002821635,
,,,,5,0,5,0,,,,,,,,,,,,,,,,,,,,,,835.0978822000325,None,,,,,,,,,,,,,,,,,disease,152,6,silent,new,null,831.2891215000418,None,831.2891215000418,None,2,2.814083099947311,831.2891215000418,None,2.814083099947311,834.1414221000159,None,834.6473360999953,None,834.6473360999953,None,f,0.42372069996781647,834.6473360999953,None,0.42372069996781647,,,34 silent,001,2022_Aug_30_1056,ProdSingRedoBetween,2021.2.3,59.99862002821635,
,,,,6,0,6,0,,,,,,,,,,,,,,,,,,,,,,843.5399109999998,None,,,,,,,,,,,,,,,,,defeat,158,7,silent,new,null,835.6021409000386,None,835.6021409000386,None,5,5.021052700001746,835.6021409000386,None,5.021052700001746,840.6530958000221,None,841.1538252000464,None,841.1538252000464,None,r,2.3651752999867313,841.1538252000464,None,2.3651752999867313,,,34 silent,001,2022_Aug_30_1056,ProdSingRedoBetween,2021.2.3,59.99862002821635,
,,,,7,0,7,0,,,,,,,,,,,,,,,,,,,,,,851.8311448000022,None,,,,,,,,,,,,,,,,,partner,123,8,silent,new,null,844.0489687000518,None,844.0489687000518,None,4,2.9820934999734163,844.0489687000518,None,2.9820934999734163,847.0624243000057,None,847.5817962000147,None,847.5817962000147,None,f,4.233289499999955,847.5817962000147,None,4.233289499999955,,,34 silent,001,2022_Aug_30_1056,ProdSingRedoBetween,2021.2.3,59.99862002821635,
,,,,8,0,8,0,,,,,,,,,,,,,,,,,,,,,,856.1354322000407,None,,,,,,,,,,,,,,,,,distance,11,9,silent,old,yellow,852.3384541000123,None,852.3384541000123,None,6,2.876441699976567,852.3384541000123,None,2.876441699976567,855.237995100033,None,855.7525884000352,None,855.7525884000352,None,r,0.36635369999567047,855.7525884000352,None,0.36635369999567047,,,34 silent,001,2022_Aug_30_1056,ProdSingRedoBetween,2021.2.3,59.99862002821635,
,,,,9,0,9,0,,,,,,,,,,,,,,,,,,,,,,860.1227155000088,None,,,,,,,,,,,,,,,,,country,21,10,silent,old,yellow,856.6426090000314,None,856.6426090000314,None,6,2.5323776999721304,856.6426090000314,None,2.5323776999721304,859.2078778000432,None,859.7268545000115,None,859.7268545000115,None,r,0.3761510999756865,859.7268545000115,None,0.3761510999756865,,,34 silent,001,2022_Aug_30_1056,ProdSingRedoBetween,2021.2.3,59.99862002821635,
,,,,10,0,10,0,,,,,,,,,,,,,,,,,,,,,,863.8598287000204,None,,,,,,,,,,,,,,,,,orchestra,51,11,silent,old,blue,860.6319447000278,None,860.6319447000278,None,6,2.4070614999509417,860.6319447000278,None,2.4070614999509417,863.0602075000061,None,863.5596154000377,None,863.5596154000377,None,r,0.2794051999808289,863.5596154000377,None,0.2794051999808289,,,34 silent,001,2022_Aug_30_1056,ProdSingRedoBetween,2021.2.3,59.99862002821635,
,,,,11,0,11,0,,,,,,,,,,,,,,,,,,,,,,866.846134499996,None,,,,,,,,,,,,,,,,,addition,18,12,silent,old,yellow,864.3611241000472,None,864.3611241000472,None,6,1.782014500000514,864.3611241000472,None,1.782014500000514,866.1647171000368,None,866.6800446000416,None,866.6800446000416,None,r,0.14302459999453276,866.6800446000416,None,0.14302459999453276,,,34 silent,001,2022_Aug_30_1056,ProdSingRedoBetween,2021.2.3,59.99862002821635,
,,,,12,0,12,0,,,,,,,,,,,,,,,,,,,,,,872.970804200042,None,,,,,,,,,,,,,,,,,trash,67,13,silent,old,red,867.3498281000066,None,867.3498281000066,None,1,2.233163599972613,867.3498281000066,None,2.233163599972613,869.6023444000166,None,870.1162358000292,None,870.1162358000292,None,n,2.834828999999445,870.1162358000292,None,2.834828999999445,,,34 silent,001,2022_Aug_30_1056,ProdSingRedoBetween,2021.2.3,59.99862002821635,
,,,,13,0,13,0,,,,,,,,,,,,,,,,,,,,,,877.840417200001,None,,,,,,,,,,,,,,,,,minor,20,14,silent,old,yellow,873.4917344000423,None,873.4917344000423,None,4,3.403219700034242,873.4917344000423,None,3.403219700034242,876.9229775000131,None,877.4307529000216,None,877.4307529000216,None,f,0.3922795999678783,877.4307529000216,None,0.3922795999678783,,,34 silent,001,2022_Aug_30_1056,ProdSingRedoBetween,2021.2.3,59.99862002821635,
,,,,14,0,14,0,,,,,,,,,,,,,,,,,,,,,,882.2287317000446,None,,,,,,,,,,,,,,,,,agency,101,15,silent,new,null,878.3510905000148,None,878.3510905000148,None,6,2.9679030000115745,878.3510905000148,None,2.9679030000115745,881.3482316000154,None,881.8611607000348,None,881.8611607000348,None,r,0.33775549998972565,881.8611607000348,None,0.33775549998972565,,,34 silent,001,2022_Aug_30_1056,ProdSingRedoBetween,2021.2.3,59.99862002821635,
,,,,15,0,15,0,,,,,,,,,,,,,,,,,,,,,,886.1485824999982,None,,,,,,,,,,,,,,,,,turkey,94,16,silent,new,null,882.738923900004,None,882.738923900004,None,2,2.412367999961134,882.738923900004,None,2.412367999961134,885.1824345000205,None,885.6894223000272,None,885.6894223000272,None,n,0.429479899990838,885.6894223000272,None,0.429479899990838,,,34 silent,001,2022_Aug_30_1056,ProdSingRedoBetween,2021.2.3,59.99862002821635,
,,,,16,0,16,0,,,,,,,,,,,,,,,,,,,,,,890.0267480000039,None,,,,,,,,,,,,,,,,,stranger,12,17,silent,old,yellow,886.649337400042,None,886.649337400042,None,6,2.5736602999968454,886.649337400042,None,2.5736602999968454,889.2557431000168,None,889.7734934000182,None,889.7734934000182,None,r,0.21768990001874045,889.7734934000182,None,0.21768990001874045,,,34 silent,001,2022_Aug_30_1056,ProdSingRedoBetween,2021.2.3,59.99862002821635,
,,,,17,0,17,0,,,,,,,,,,,,,,,,,,,,,,893.7079221000313,None,,,,,,,,,,,,,,,,,nature,136,18,silent,new,null,890.5430323000182,None,890.5430323000182,None,3,2.1919828000245616,890.5430323000182,None,2.1919828000245616,892.7605612000334,None,893.2726458000252,None,893.2726458000252,None,f,0.4143669999903068,893.2726458000252,None,0.4143669999903068,,,34 silent,001,2022_Aug_30_1056,ProdSingRedoBetween,2021.2.3,59.99862002821635,
,,,,18,0,18,0,,,,,,,,,,,,,,,,,,,,,,899.1295266000088,None,,,,,,,,,,,,,,,,,curve,60,19,silent,old,red,894.2236018000403,None,894.2236018000403,None,6,3.847414999967441,894.2236018000403,None,3.847414999967441,898.0967481000116,None,898.6130895999959,None,898.6130895999959,None,r,0.49800019996473566,898.6130895999959,None,0.49800019996473566,,,34 silent,001,2022_Aug_30_1056,ProdSingRedoBetween,2021.2.3,59.99862002821635,
,,,,19,0,19,0,,,,,,,,,,,,,,,,,,,,,,904.3501817000215,None,,,,,,,,,,,,,,,,,treatment,63,20,silent,old,red,899.6453329000506,None,899.6453329000506,None,2,2.4175916999811307,899.6453329000506,None,2.4175916999811307,902.0823159000138,None,902.5862908000126,None,902.5862908000126,None,n,1.7327333000139333,902.5862908000126,None,1.7327333000139333,,,34 silent,001,2022_Aug_30_1056,ProdSingRedoBetween,2021.2.3,59.99862002821635,
,,,,20,0,20,0,,,,,,,,,,,,,,,,,,,,,,907.7369422000484,None,,,,,,,,,,,,,,,,,light,92,21,silent,new,null,904.8585944999941,None,904.8585944999941,None,5,2.228311599988956,904.8585944999941,None,2.228311599988956,907.1047250000411,None,907.6202437000466,None,907.6202437000466,None,r,0.09877350000897422,907.6202437000466,None,0.09877350000897422,,,34 silent,001,2022_Aug_30_1056,ProdSingRedoBetween,2021.2.3,59.99862002821635,
,,,,21,0,21,0,,,,,,,,,,,,,,,,,,,,,,911.5466633000178,None,,,,,,,,,,,,,,,,,front,132,22,silent,new,null,908.2407330000424,None,908.2407330000424,None,3,2.4143914000014775,908.2407330000424,None,2.4143914000014775,910.6745583000011,None,911.1836279000272,None,911.1836279000272,None,f,0.33552680001594126,911.1836279000272,None,0.33552680001594126,,,34 silent,001,2022_Aug_30_1056,ProdSingRedoBetween,2021.2.3,59.99862002821635,
,,,,22,0,22,0,,,,,,,,,,,,,,,,,,,,,,915.6281038000016,None,,,,,,,,,,,,,,,,,discussion,82,23,silent,old,red,912.0623477000045,None,912.0623477000045,None,1,2.648694500036072,912.0623477000045,None,2.648694500036072,914.730186700006,None,915.2510129000293,None,915.2510129000293,None,n,0.34785689995624125,915.2510129000293,None,0.34785689995624125,,,34 silent,001,2022_Aug_30_1056,ProdSingRedoBetween,2021.2.3,59.99862002821635,
,,,,23,0,23,0,,,,,,,,,,,,,,,,,,,,,,920.7328870000201,None,,,,,,,,,,,,,,,,,enemy,2,24,silent,old,yellow,916.1374158000108,None,916.1374158000108,None,6,3.845658900041599,916.1374158000108,None,3.845658900041599,920.0007774000405,None,920.51637940004,None,920.51637940004,None,r,0.19465220003621653,920.51637940004,None,0.19465220003621653,,,34 silent,001,2022_Aug_30_1056,ProdSingRedoBetween,2021.2.3,59.99862002821635,
,,,,24,0,24,0,,,,,,,,,,,,,,,,,,,,,,924.4035743999993,None,,,,,,,,,,,,,,,,,colonel,77,25,silent,old,red,921.2384672000189,None,921.2384672000189,None,6,1.480529899999965,921.2384672000189,None,1.480529899999965,922.7352712000138,None,923.2358698000317,None,923.2358698000317,None,r,1.1391108999960124,923.2358698000317,None,1.1391108999960124,,,34 silent,001,2022_Aug_30_1056,ProdSingRedoBetween,2021.2.3,59.99862002821635,
,,,,25,0,25,0,,,,,,,,,,,,,,,,,,,,,,929.2783871000283,None,,,,,,,,,,,,,,,,,career,91,26,silent,new,null,924.9187769000418,None,924.9187769000418,None,2,2.928103399986867,924.9187769000418,None,2.928103399986867,927.8736553000053,None,928.3742483000387,None,928.3742483000387,None,n,0.8805869999923743,928.3742483000387,None,0.8805869999923743,,,34 silent,001,2022_Aug_30_1056,ProdSingRedoBetween,2021.2.3,59.99862002821635,
,,,,26,0,26,0,,,,,,,,,,,,,,,,,,,,,,932.8641857000184,None,,,,,,,,,,,,,,,,,count,14,27,silent,old,yellow,929.7925580000156,None,929.7925580000156,None,6,2.142543599999044,929.7925580000156,None,2.142543599999044,931.9611418000422,None,932.4614711000468,None,932.4614711000468,None,r,0.3776527000009082,932.4614711000468,None,0.3776527000009082,,,34 silent,001,2022_Aug_30_1056,ProdSingRedoBetween,2021.2.3,59.99862002821635,
,,,,27,0,27,0,,,,,,,,,,,,,,,,,,,,,,935.8817929000361,None,,,,,,,,,,,,,,,,,measure,114,28,silent,new,null,933.383264300006,None,933.383264300006,None,1,1.6796093000448309,933.383264300006,None,1.6796093000448309,935.0820885000285,None,935.581493500038,None,935.581493500038,None,n,0.27343120001023635,935.581493500038,None,0.27343120001023635,,,34 silent,001,2022_Aug_30_1056,ProdSingRedoBetween,2021.2.3,59.99862002821635,
,,,,28,0,28,0,,,,,,,,,,,,,,,,,,,,,,938.9013236000319,None,,,,,,,,,,,,,,,,,dance,26,29,silent,old,yellow,936.3825305000064,None,936.3825305000064,None,1,1.7924273000098765,936.3825305000064,None,1.7924273000098765,938.2016013000393,None,938.703133700008,None,938.703133700008,None,n,0.1757952999905683,938.703133700008,None,0.1757952999905683,,,34 silent,001,2022_Aug_30_1056,ProdSingRedoBetween,2021.2.3,59.99862002821635,
,,,,29,0,29,0,,,,,,,,,,,,,,,,,,,,,,943.3574556999956,None,,,,,,,,,,,,,,,,,graduate,61,30,silent,old,red,939.4085607000161,None,939.4085607000161,None,1,2.1823926999932155,939.4085607000161,None,2.1823926999932155,941.6233800000045,None,942.1380516000208,None,942.1380516000208,None,n,1.1970214000320993,942.1380516000208,None,1.1970214000320993,,,34 silent,001,2022_Aug_30_1056,ProdSingRedoBetween,2021.2.3,59.99862002821635,
,,,,30,0,30,0,,,,,,,,,,,,,,,,,,,,,,946.5756831000326,None,,,,,,,,,,,,,,,,,report,115,31,silent,new,null,943.8743770000292,None,943.8743770000292,None,6,2.044695699994918,943.8743770000292,None,2.044695699994918,945.9427781000268,None,946.4421940000029,None,946.4421940000029,None,r,0.11673670000163838,946.4421940000029,None,0.11673670000163838,,,34 silent,001,2022_Aug_30_1056,ProdSingRedoBetween,2021.2.3,59.99862002821635,
,,,,31,0,31,0,,,,,,,,,,,,,,,,,,,,,,950.0970522999996,None,,,,,,,,,,,,,,,,,threat,57,32,silent,old,blue,947.0820848000003,None,947.0820848000003,None,6,1.8208534000441432,947.0820848000003,None,1.8208534000441432,948.9289877000265,None,949.4332091000397,None,949.4332091000397,None,r,0.6377318999730051,949.4332091000397,None,0.6377318999730051,,,34 silent,001,2022_Aug_30_1056,ProdSingRedoBetween,2021.2.3,59.99862002821635,
,,,,32,0,32,0,,,,,,,,,,,,,,,,,,,,,,954.0996870000381,None,,,,,,,,,,,,,,,,,watch,160,33,silent,new,null,950.599671300035,None,950.599671300035,None,3,2.407252300006803,950.599671300035,None,2.407252300006803,953.0351883000112,None,953.5510724000051,None,953.5510724000051,None,f,0.5198609000071883,953.5510724000051,None,0.5198609000071883,,,34 silent,001,2022_Aug_30_1056,ProdSingRedoBetween,2021.2.3,59.99862002821635,
,,,,33,0,33,0,,,,,,,,,,,,,,,,,,,,,,957.4884927000385,None,,,,,,,,,,,,,,,,,cross,105,34,silent,new,null,954.610776400019,None,954.610776400019,None,3,2.020123199967202,954.610776400019,None,2.020123199967202,956.6553682000376,None,957.1738051000284,None,957.1738051000284,None,f,0.289120199973695,957.1738051000284,None,0.289120199973695,,,34 silent,001,2022_Aug_30_1056,ProdSingRedoBetween,2021.2.3,59.99862002821635,
,,,,34,0,34,0,,,,,,,,,,,,,,,,,,,,,,961.5239556000452,None,,,,,,,,,,,,,,,,,native,124,35,silent,new,null,958.0060397000052,None,958.0060397000052,None,3,1.496766900003422,958.0060397000052,None,1.496766900003422,959.5218191000167,None,960.0225839000195,None,960.0225839000195,None,f,1.4803149999934249,960.0225839000195,None,1.4803149999934249,,,34 silent,001,2022_Aug_30_1056,ProdSingRedoBetween,2021.2.3,59.99862002821635,
,,,,35,0,35,0,,,,,,,,,,,,,,,,,,,,,,965.8949712000322,None,,,,,,,,,,,,,,,,,trial,118,36,silent,new,null,962.0298197999946,None,962.0298197999946,None,5,2.3370556000154465,962.0298197999946,None,2.3370556000154465,964.3958699000068,None,964.9122270999942,None,964.9122270999942,None,r,0.9666379999835044,964.9122270999942,None,0.9666379999835044,,,34 silent,001,2022_Aug_30_1056,ProdSingRedoBetween,2021.2.3,59.99862002821635,
,,,,36,0,36,0,,,,,,,,,,,,,,,,,,,,,,968.9980160000268,None,,,,,,,,,,,,,,,,,write,151,37,silent,new,null,966.4033058000496,None,966.4033058000496,None,2,1.8676454999949783,966.4033058000496,None,1.8676454999949783,968.3001130000339,None,968.8168264999986,None,968.8168264999986,None,n,0.15020609996281564,968.8168264999986,None,0.15020609996281564,,,34 silent,001,2022_Aug_30_1056,ProdSingRedoBetween,2021.2.3,59.99862002821635,
,,,,37,0,37,0,,,,,,,,,,,,,,,,,,,,,,972.1679751000484,None,,,,,,,,,,,,,,,,,primary,79,38,silent,old,red,969.5035747000366,None,969.5035747000366,None,2,2.0632717999978922,969.5035747000366,None,2.0632717999978922,971.5842403999995,None,972.0889467000379,None,972.0889467000379,None,n,0.05398399999830872,972.0889467000379,None,0.05398399999830872,,,34 silent,001,2022_Aug_30_1056,ProdSingRedoBetween,2021.2.3,59.99862002821635,
,,,,38,0,38,0,,,,,,,,,,,,,,,,,,,,,,975.1560562000377,None,,,,,,,,,,,,,,,,,block,139,39,silent,new,null,972.6719658999937,None,972.6719658999937,None,2,1.4069215999916196,972.6719658999937,None,1.4069215999916196,974.1052889000275,None,974.6231188999955,None,974.6231188999955,None,n,0.5118159999838099,974.6231188999955,None,0.5118159999838099,,,34 silent,001,2022_Aug_30_1056,ProdSingRedoBetween,2021.2.3,59.99862002821635,
,,,,39,0,39,0,,,,,,,,,,,,,,,,,,,,,,978.6076842000475,None,,,,,,,,,,,,,,,,,pattern,58,40,silent,old,blue,975.6802242000122,None,975.6802242000122,None,3,1.9506970000220463,975.6802242000122,None,1.9506970000220463,977.6578299000394,None,978.1630382000003,None,978.1630382000003,None,f,0.4277619000058621,978.1630382000003,None,0.4277619000058621,,,34 silent,001,2022_Aug_30_1056,ProdSingRedoBetween,2021.2.3,59.99862002821635,
,,,,40,0,40,0,,,,,,,,,,,,,,,,,,,,,,982.7305311000091,None,,,,,,,,,,,,,,,,,religion,76,41,silent,old,red,979.1170753000188,None,979.1170753000188,None,6,2.145974599989131,979.1170753000188,None,2.145974599989131,981.29890600004,None,981.8109438000247,None,981.8109438000247,None,r,0.8999021999770775,981.8109438000247,None,0.8999021999770775,,,34 silent,001,2022_Aug_30_1056,ProdSingRedoBetween,2021.2.3,59.99862002821635,
,,,,41,0,41,0,,,,,,,,,,,,,,,,,,,,,,985.6479627000517,None,,,,,,,,,,,,,,,,,color,97,42,silent,new,null,983.2454169000266,None,983.2454169000266,None,2,1.8254350999486633,983.2454169000266,None,1.8254350999486633,985.0981202000403,None,985.6004933000077,None,985.6004933000077,None,n,0.022358399990480393,985.6004933000077,None,0.022358399990480393,,,34 silent,001,2022_Aug_30_1056,ProdSingRedoBetween,2021.2.3,59.99862002821635,
,,,,42,0,42,0,,,,,,,,,,,,,,,,,,,,,,988.7848616000265,None,,,,,,,,,,,,,,,,,thing,137,43,silent,new,null,986.1610423999955,None,986.1610423999955,None,2,1.9498232000041753,986.1610423999955,None,1.9498232000041753,988.1364856000291,None,988.6527518000221,None,988.6527518000221,None,n,0.11405130004277453,988.6527518000221,None,0.11405130004277453,,,34 silent,001,2022_Aug_30_1056,ProdSingRedoBetween,2021.2.3,59.99862002821635,
,,,,43,0,43,0,,,,,,,,,,,,,,,,,,,,,,991.6561270999955,None,,,,,,,,,,,,,,,,,school,15,44,silent,old,yellow,989.2899442000198,None,989.2899442000198,None,2,1.7569326999946497,989.2899442000198,None,1.7569326999946497,991.0711681999965,None,991.5803347000037,None,991.5803347000037,None,n,0.04266029997961596,991.5803347000037,None,0.04266029997961596,,,34 silent,001,2022_Aug_30_1056,ProdSingRedoBetween,2021.2.3,59.99862002821635,
,,,,44,0,44,0,,,,,,,,,,,,,,,,,,,,,,994.3085237000487,None,,,,,,,,,,,,,,,,,degree,157,45,silent,new,null,992.1796050000121,None,992.1796050000121,None,2,1.5394706000224687,992.1796050000121,None,1.5394706000224687,993.7422789999982,None,994.2567812000052,None,994.2567812000052,None,n,0.030273300013504922,994.2567812000052,None,0.030273300013504922,,,34 silent,001,2022_Aug_30_1056,ProdSingRedoBetween,2021.2.3,59.99862002821635,
,,,,45,0,45,0,,,,,,,,,,,,,,,,,,,,,,997.9101486,None,,,,,,,,,,,,,,,,,force,153,46,silent,new,null,994.8237770000123,None,994.8237770000123,None,4,1.951123800012283,994.8237770000123,None,1.951123800012283,996.7936944999965,None,997.2929996000021,None,997.2929996000021,None,f,0.5938978999620304,997.2929996000021,None,0.5938978999620304,,,34 silent,001,2022_Aug_30_1056,ProdSingRedoBetween,2021.2.3,59.99862002821635,
,,,,46,0,46,0,,,,,,,,,,,,,,,,,,,,,,1000.9801237000502,None,,,,,,,,,,,,,,,,,comfort,162,47,silent,new,null,998.4136216000188,None,998.4136216000188,None,2,1.641260800010059,998.4136216000188,None,1.641260800010059,1000.0801984000136,None,1000.5799908000045,None,1000.5799908000045,None,n,0.3708026999956928,1000.5799908000045,None,0.3708026999956928,,,34 silent,001,2022_Aug_30_1056,ProdSingRedoBetween,2021.2.3,59.99862002821635,
,,,,47,0,47,0,,,,,,,,,,,,,,,,,,,,,,1003.7671338000218,None,,,,,,,,,,,,,,,,,chief,7,48,silent,old,yellow,1001.4872341000009,None,1001.4872341000009,None,2,1.3275886000483297,1001.4872341000009,None,1.3275886000483297,1002.8316216000239,None,1003.3397573000402,None,1003.3397573000402,None,n,0.41128329996718094,1003.3397573000402,None,0.41128329996718094,,,34 silent,001,2022_Aug_30_1056,ProdSingRedoBetween,2021.2.3,59.99862002821635,
,,,,48,0,48,0,,,,,,,,,,,,,,,,,,,,,,1006.885685300047,None,,,,,,,,,,,,,,,,,industry,43,49,silent,old,blue,1004.2702652000007,None,1004.2702652000007,None,6,1.8726209999877028,1004.2702652000007,None,1.8726209999877028,1006.1695629000315,None,1006.6772015000461,None,1006.6772015000461,None,r,0.18585210002493113,1006.6772015000461,None,0.18585210002493113,,,34 silent,001,2022_Aug_30_1056,ProdSingRedoBetween,2021.2.3,59.99862002821635,
,,,,49,0,49,0,,,,,,,,,,,,,,,,,,,,,,1009.7885819000076,None,,,,,,,,,,,,,,,,,research,83,50,silent,old,red,1007.3912772000185,None,1007.3912772000185,None,6,1.4395839999779128,1007.3912772000185,None,1.4395839999779128,1008.8587357000215,None,1009.3745883000083,None,1009.3745883000083,None,r,0.39231230004224926,1009.3745883000083,None,0.39231230004224926,,,34 silent,001,2022_Aug_30_1056,ProdSingRedoBetween,2021.2.3,59.99862002821635,
,,,,50,0,50,0,,,,,,,,,,,,,,,,,,,,,,1012.7782167000114,None,,,,,,,,,,,,,,,,,series,146,51,silent,new,null,1010.2984751000185,None,1010.2984751000185,None,3,1.8443937000120059,1010.2984751000185,None,1.8443937000120059,1012.1589609000366,None,1012.665378900012,None,1012.665378900012,None,f,0.08548399998107925,1012.665378900012,None,0.08548399998107925,,,34 silent,001,2022_Aug_30_1056,ProdSingRedoBetween,2021.2.3,59.99862002821635,
,,,,51,0,51,0,,,,,,,,,,,,,,,,,,,,,,1016.2451642000233,None,,,,,,,,,,,,,,,,,community,109,52,silent,new,null,1013.2930659000413,None,1013.2930659000413,None,6,1.5696695999940857,1013.2930659000413,None,1.5696695999940857,1014.8953315000399,None,1015.3947464000084,None,1015.3947464000084,None,r,0.8280511999619193,1015.3947464000084,None,0.8280511999619193,,,34 silent,001,2022_Aug_30_1056,ProdSingRedoBetween,2021.2.3,59.99862002821635,
,,,,52,0,52,0,,,,,,,,,,,,,,,,,,,,,,1020.3659405000508,None,,,,,,,,,,,,,,,,,frank,172,53,silent,new,null,1016.7591471000342,None,1016.7591471000342,None,1,2.343755299982149,1016.7591471000342,None,2.343755299982149,1019.1344014000497,None,1019.6485751,None,1019.6485751,None,n,0.702385000011418,1019.6485751,None,0.702385000011418,,,34 silent,001,2022_Aug_30_1056,ProdSingRedoBetween,2021.2.3,59.99862002821635,
,,,,53,0,53,0,,,,,,,,,,,,,,,,,,,,,,1023.4190153999953,None,,,,,,,,,,,,,,,,,goose,13,54,silent,old,yellow,1020.87673920003,None,1020.87673920003,None,6,1.794082599983085,1020.87673920003,None,1.794082599983085,1022.7043400999974,None,1023.2189412000007,None,1023.2189412000007,None,r,0.17194229998858646,1023.2189412000007,None,0.17194229998858646,,,34 silent,001,2022_Aug_30_1056,ProdSingRedoBetween,2021.2.3,59.99862002821635,
,,,,54,0,54,0,,,,,,,,,,,,,,,,,,,,,,1026.3387267000508,None,,,,,,,,,,,,,,,,,century,36,55,silent,old,blue,1023.9238191000186,None,1023.9238191000186,None,2,1.8430555000086315,1023.9238191000186,None,1.8430555000086315,1025.7951567000127,None,1026.3053914000047,None,1026.3053914000047,None,n,0.005545600026380271,1026.3053914000047,None,0.005545600026380271,,,34 silent,001,2022_Aug_30_1056,ProdSingRedoBetween,2021.2.3,59.99862002821635,
,,,,55,0,55,0,,,,,,,,,,,,,,,,,,,,,,1030.459270100051,None,,,,,,,,,,,,,,,,,express,69,56,silent,old,red,1026.8423397000297,None,1026.8423397000297,None,2,3.044766700011678,1026.8423397000297,None,3.044766700011678,1029.9196235000272,None,1030.4319238000317,None,1030.4319238000317,None,n,0.006864599999971688,1030.4319238000317,None,0.006864599999971688,,,34 silent,001,2022_Aug_30_1056,ProdSingRedoBetween,2021.2.3,59.99862002821635,
,,,,56,0,56,0,,,,,,,,,,,,,,,,,,,,,,1033.2194909999962,None,,,,,,,,,,,,,,,,,burden,55,57,silent,old,blue,1030.9614981000195,None,1030.9614981000195,None,2,1.5494213000056334,1030.9614981000195,None,1.5494213000056334,1032.528141000017,None,1033.0406999000115,None,1033.0406999000115,None,n,0.14207870000973344,1033.0406999000115,None,0.14207870000973344,,,34 silent,001,2022_Aug_30_1056,ProdSingRedoBetween,2021.2.3,59.99862002821635,
,,,,57,0,57,0,,,,,,,,,,,,,,,,,,,,,,1036.7324059000239,None,,,,,,,,,,,,,,,,,guide,71,58,silent,old,red,1033.735061000043,None,1033.735061000043,None,5,2.3518353999825194,1033.735061000043,None,2.3518353999825194,1036.1170099000446,None,1036.6323865000159,None,1036.6323865000159,None,r,0.07045290002133697,1036.6323865000159,None,0.07045290002133697,,,34 silent,001,2022_Aug_30_1056,ProdSingRedoBetween,2021.2.3,59.99862002821635,
,,,,58,0,58,0,,,,,,,,,,,,,,,,,,,,,,1041.253489500028,None,,,,,,,,,,,,,,,,,season,148,59,silent,new,null,1037.2340396000072,None,1037.2340396000072,None,3,2.9728482000064105,1037.2340396000072,None,2.9728482000064105,1040.2385363000212,None,1040.7586860000156,None,1040.7586860000156,None,f,0.4641597000299953,1040.7586860000156,None,0.4641597000299953,,,34 silent,001,2022_Aug_30_1056,ProdSingRedoBetween,2021.2.3,59.99862002821635,
,,,,59,0,59,0,,,,,,,,,,,,,,,,,,,,,,1045.7746361000463,None,,,,,,,,,,,,,,,,,trail,53,60,silent,old,blue,1041.7697490000282,None,1041.7697490000282,None,2,3.357078699977137,1041.7697490000282,None,3.357078699977137,1045.1601083000423,None,1045.6747111000004,None,1045.6747111000004,None,n,0.08412059996044263,1045.6747111000004,None,0.08412059996044263,,,34 silent,001,2022_Aug_30_1056,ProdSingRedoBetween,2021.2.3,59.99862002821635,
,,,,60,0,60,0,,,,,,,,,,,,,,,,,,,,,,1050.4125973000191,None,,,,,,,,,,,,,,,,,citizen,38,61,silent,old,blue,1046.2842895000358,None,1046.2842895000358,None,6,3.1784214000217617,1046.2842895000358,None,3.1784214000217617,1049.4793729000376,None,1049.9791105000186,None,1049.9791105000186,None,r,0.4036748000071384,1049.9791105000186,None,0.4036748000071384,,,34 silent,001,2022_Aug_30_1056,ProdSingRedoBetween,2021.2.3,59.99862002821635,
,,,,61,0,61,0,,,,,,,,,,,,,,,,,,,,,,1053.4489700000267,None,,,,,,,,,,,,,,,,,committee,170,62,silent,new,null,1050.923183100007,None,1050.923183100007,None,2,1.8758376000332646,1050.923183100007,None,1.8758376000332646,1052.8254818000132,None,1053.332441000035,None,1053.332441000035,None,n,0.09833849995629862,1053.332441000035,None,0.09833849995629862,,,34 silent,001,2022_Aug_30_1056,ProdSingRedoBetween,2021.2.3,59.99862002821635,
,,,,62,0,62,0,,,,,,,,,,,,,,,,,,,,,,1056.2685340000317,None,,,,,,,,,,,,,,,,,error,88,63,silent,old,red,1053.9595154999988,None,1053.9595154999988,None,6,1.7433007000363432,1053.9595154999988,None,1.7433007000363432,1055.7190472999937,None,1056.2185296000098,None,1056.2185296000098,None,r,0.028308100008871406,1056.2185296000098,None,0.028308100008871406,,,34 silent,001,2022_Aug_30_1056,ProdSingRedoBetween,2021.2.3,59.99862002821635,
,,,,63,0,63,0,,,,,,,,,,,,,,,,,,,,,,1060.5227853000397,None,,,,,,,,,,,,,,,,,welcome,30,64,silent,old,blue,1056.7759944000281,None,1056.7759944000281,None,2,3.1428697000374086,1056.7759944000281,None,3.1428697000374086,1059.9423864000128,None,1060.4604354000185,None,1060.4604354000185,None,n,0.04255130002275109,1060.4604354000185,None,0.04255130002275109,,,34 silent,001,2022_Aug_30_1056,ProdSingRedoBetween,2021.2.3,59.99862002821635,
,,,,64,0,64,0,,,,,,,,,,,,,,,,,,,,,,1063.6089638000121,None,,,,,,,,,,,,,,,,,quick,107,65,silent,new,null,1061.0321777000208,None,1061.0321777000208,None,3,1.798618400003761,1061.0321777000208,None,1.798618400003761,1062.8611622000462,None,1063.3754591000034,None,1063.3754591000034,None,f,0.20731800002977252,1063.3754591000034,None,0.20731800002977252,,,34 silent,001,2022_Aug_30_1056,ProdSingRedoBetween,2021.2.3,59.99862002821635,
,,,,65,0,65,0,,,,,,,,,,,,,,,,,,,,,,1067.1793654000503,None,,,,,,,,,,,,,,,,,range,145,66,silent,new,null,1064.1178574000369,None,1064.1178574000369,None,3,1.8969381999922916,1064.1178574000369,None,1.8969381999922916,1066.0449699000455,None,1066.5454574000323,None,1066.5454574000323,None,f,0.6133813000051305,1066.5454574000323,None,0.6133813000051305,,,34 silent,001,2022_Aug_30_1056,ProdSingRedoBetween,2021.2.3,59.99862002821635,
,,,,66,0,66,0,,,,,,,,,,,,,,,,,,,,,,1070.1822982000303,None,,,,,,,,,,,,,,,,,machinery,166,67,silent,new,null,1067.687649300031,None,1067.687649300031,None,6,1.5351773999864236,1067.687649300031,None,1.5351773999864236,1069.2492595000076,None,1069.7486171000055,None,1069.7486171000055,None,r,0.41022640001028776,1069.7486171000055,None,0.41022640001028776,,,34 silent,001,2022_Aug_30_1056,ProdSingRedoBetween,2021.2.3,59.99862002821635,
,,,,67,0,67,0,,,,,,,,,,,,,,,,,,,,,,1072.9018000000506,None,,,,,,,,,,,,,,,,,personnel,85,68,silent,old,red,1070.6928604000132,None,1070.6928604000132,None,3,1.5699618000071496,1070.6928604000132,None,1.5699618000071496,1072.2887958000065,None,1072.8047752000275,None,1072.8047752000275,None,f,0.06605170003604144,1072.8047752000275,None,0.06605170003604144,,,34 silent,001,2022_Aug_30_1056,ProdSingRedoBetween,2021.2.3,59.99862002821635,
,,,,68,0,68,0,,,,,,,,,,,,,,,,,,,,,,1076.0389311000472,None,,,,,,,,,,,,,,,,,discovery,133,69,silent,new,null,1073.419089300034,None,1073.419089300034,None,2,1.923645899980329,1073.419089300034,None,1.923645899980329,1075.3746552999946,None,1075.8892588000163,None,1075.8892588000163,None,n,0.1337751999963075,1075.8892588000163,None,0.1337751999963075,,,34 silent,001,2022_Aug_30_1056,ProdSingRedoBetween,2021.2.3,59.99862002821635,
,,,,69,0,69,0,,,,,,,,,,,,,,,,,,,,,,1079.5249345000484,None,,,,,,,,,,,,,,,,,portion,116,70,silent,new,null,1076.5485148000298,None,1076.5485148000298,None,2,1.6504109000088647,1076.5485148000298,None,1.6504109000088647,1078.2280174000189,None,1078.747007100028,None,1078.747007100028,None,n,0.7556715999962762,1078.747007100028,None,0.7556715999962762,,,34 silent,001,2022_Aug_30_1056,ProdSingRedoBetween,2021.2.3,59.99862002821635,
,,,,70,0,70,0,,,,,,,,,,,,,,,,,,,,,,1089.0345517999958,None,,,,,,,,,,,,,,,,,quiet,95,71,silent,new,null,1080.0282590000425,None,1080.0282590000425,None,2,8.018553800007794,1080.0282590000425,None,8.018553800007794,1088.0681117000058,None,1088.5674996000016,None,1088.5674996000016,None,n,0.43930140003794804,1088.5674996000016,None,0.43930140003794804,,,34 silent,001,2022_Aug_30_1056,ProdSingRedoBetween,2021.2.3,59.99862002821635,
,,,,71,0,71,0,,,,,,,,,,,,,,,,,,,,,,1091.9707737000426,None,,,,,,,,,,,,,,,,,death,40,72,silent,old,blue,1089.5393704000162,None,1089.5393704000162,None,2,1.8434517999994569,1089.5393704000162,None,1.8434517999994569,1091.4033152000047,None,1091.9041276000207,None,1091.9041276000207,None,n,0.03866560000460595,1091.9041276000207,None,0.03866560000460595,,,34 silent,001,2022_Aug_30_1056,ProdSingRedoBetween,2021.2.3,59.99862002821635,
,,,,72,0,72,0,,,,,,,,,,,,,,,,,,,,,,1094.9737923000357,None,,,,,,,,,,,,,,,,,phrase,70,73,silent,old,red,1092.4817579000373,None,1092.4817579000373,None,3,1.7891878000227734,1092.4817579000373,None,1.7891878000227734,1094.294386500027,None,1094.8070838000276,None,1094.8070838000276,None,f,0.15175330004421994,1094.8070838000276,None,0.15175330004421994,,,34 silent,001,2022_Aug_30_1056,ProdSingRedoBetween,2021.2.3,59.99862002821635,
,,,,73,0,73,0,,,,,,,,,,,,,,,,,,,,,,1098.1436132999952,None,,,,,,,,,,,,,,,,,blind,1,74,silent,old,yellow,1095.4813916000421,None,1095.4813916000421,None,3,2.0854026000015438,1095.4813916000421,None,2.0854026000015438,1097.5957264000317,None,1098.1135328999953,None,1098.1135328999953,None,f,0.013390999985858798,1098.1135328999953,None,0.013390999985858798,,,34 silent,001,2022_Aug_30_1056,ProdSingRedoBetween,2021.2.3,59.99862002821635,
,,,,74,0,74,0,,,,,,,,,,,,,,,,,,,,,,1101.3467810000293,None,,,,,,,,,,,,,,,,,state,112,75,silent,new,null,1098.6441964000114,None,1098.6441964000114,None,2,1.8904988000285812,1098.6441964000114,None,1.8904988000285812,1100.5654143000138,None,1101.0818076000432,None,1101.0818076000432,None,n,0.24498610000591725,1101.0818076000432,None,0.24498610000591725,,,34 silent,001,2022_Aug_30_1056,ProdSingRedoBetween,2021.2.3,59.99862002821635,
,,,,75,0,75,0,,,,,,,,,,,,,,,,,,,,,,1103.9691170000006,None,,,,,,,,,,,,,,,,,length,176,76,silent,new,null,1101.847341900051,None,1101.847341900051,None,3,1.423469399975147,1101.847341900051,None,1.423469399975147,1103.3016725000343,None,1103.8188721000333,None,1103.8188721000333,None,f,0.12413070001639426,1103.8188721000333,None,0.12413070001639426,,,34 silent,001,2022_Aug_30_1056,ProdSingRedoBetween,2021.2.3,59.99862002821635,
,,,,76,0,76,0,,,,,,,,,,,,,,,,,,,,,,1106.6856201000046,None,,,,,,,,,,,,,,,,,generation,150,77,silent,new,null,1104.483380300051,None,1104.483380300051,None,2,1.587370799970813,1104.483380300051,None,1.587370799970813,1106.1099948000046,None,1106.6188422000268,None,1106.6188422000268,None,n,0.043970500002615154,1106.6188422000268,None,0.043970500002615154,,,34 silent,001,2022_Aug_30_1056,ProdSingRedoBetween,2021.2.3,59.99862002821635,
,,,,77,0,77,0,,,,,,,,,,,,,,,,,,,,,,1109.921944600006,None,,,,,,,,,,,,,,,,,history,9,78,silent,old,yellow,1107.1859489000053,None,1107.1859489000053,None,2,1.7568436000146903,1107.1859489000053,None,1.7568436000146903,1108.9738747000229,None,1109.4881043000496,None,1109.4881043000496,None,n,0.41461690003052354,1109.4881043000496,None,0.41461690003052354,,,34 silent,001,2022_Aug_30_1056,ProdSingRedoBetween,2021.2.3,59.99862002821635,
,,,,78,0,78,0,,,,,,,,,,,,,,,,,,,,,,1112.8612310000462,None,,,,,,,,,,,,,,,,,broad,121,79,silent,new,null,1110.430986100051,None,1110.430986100051,None,3,1.8479276999714784,1110.430986100051,None,1.8479276999714784,1112.3139401000226,None,1112.8250697000185,None,1112.8250697000185,None,f,0.013889199995901436,1112.8250697000185,None,0.013889199995901436,,,34 silent,001,2022_Aug_30_1056,ProdSingRedoBetween,2021.2.3,59.99862002821635,
,,,,79,0,79,0,,,,,,,,,,,,,,,,,,,,,,1115.9113142000278,None,,,,,,,,,,,,,,,,,object,102,80,silent,new,null,1113.3782445000252,None,1113.3782445000252,None,4,1.9005395999993198,1113.3782445000252,None,1.9005395999993198,1115.2953553000116,None,1115.7996587000089,None,1115.7996587000089,None,f,0.09505760000320151,1115.7996587000089,None,0.09505760000320151,,,34 silent,001,2022_Aug_30_1056,ProdSingRedoBetween,2021.2.3,59.99862002821635,
,,,,80,0,80,0,,,,,,,,,,,,,,,,,,,,,,1118.8476469000452,None,,,,,,,,,,,,,,,,,engineer,174,81,silent,new,null,1116.4189978000359,None,1116.4189978000359,None,2,1.81178380001802,1116.4189978000359,None,1.81178380001802,1118.2489243000164,None,1118.7674823999987,None,1118.7674823999987,None,n,0.06333500001346692,1118.7674823999987,None,0.06333500001346692,,,34 silent,001,2022_Aug_30_1056,ProdSingRedoBetween,2021.2.3,59.99862002821635,
,,,,81,0,81,0,,,,,,,,,,,,,,,,,,,,,,1122.0675334000262,None,,,,,,,,,,,,,,,,,sunset,78,82,silent,old,red,1119.3546184000443,None,1119.3546184000443,None,6,1.6841218000045046,1119.3546184000443,None,1.6841218000045046,1121.0692495999974,None,1121.5900147000211,None,1121.5900147000211,None,r,0.44879940000828356,1121.5900147000211,None,0.44879940000828356,,,34 silent,001,2022_Aug_30_1056,ProdSingRedoBetween,2021.2.3,59.99862002821635,
,,,,82,0,82,0,,,,,,,,,,,,,,,,,,,,,,1124.970585300005,None,,,,,,,,,,,,,,,,,business,73,83,silent,old,red,1122.5779649000033,None,1122.5779649000033,None,5,1.8127038999809884,1122.5779649000033,None,1.8127038999809884,1124.419833299995,None,1124.920334400027,None,1124.920334400027,None,r,0.02232630003709346,1124.920334400027,None,0.02232630003709346,,,34 silent,001,2022_Aug_30_1056,ProdSingRedoBetween,2021.2.3,59.99862002821635,
,,,,83,0,83,0,,,,,,,,,,,,,,,,,,,,,,1127.9899918000447,None,,,,,,,,,,,,,,,,,narrow,8,84,silent,old,yellow,1125.484261900012,None,1125.484261900012,None,2,1.530454899999313,1125.484261900012,None,1.530454899999313,1127.0465577000286,None,1127.5583606000291,None,1127.5583606000291,None,n,0.40044950001174584,1127.5583606000291,None,0.40044950001174584,,,34 silent,001,2022_Aug_30_1056,ProdSingRedoBetween,2021.2.3,59.99862002821635,
,,,,84,0,84,0,,,,,,,,,,,,,,,,,,,,,,1131.1294186000014,None,,,,,,,,,,,,,,,,,appeal,81,85,silent,old,red,1128.49810050003,None,1128.49810050003,None,6,1.9087869999930263,1128.49810050003,None,1.9087869999930263,1130.4287656000233,None,1130.9489505999954,None,1130.9489505999954,None,r,0.1618410999653861,1130.9489505999954,None,0.1618410999653861,,,34 silent,001,2022_Aug_30_1056,ProdSingRedoBetween,2021.2.3,59.99862002821635,
,,,,85,0,85,0,,,,,,,,,,,,,,,,,,,,,,1133.5697109000175,None,,,,,,,,,,,,,,,,,signal,135,86,silent,new,null,1131.6439116999973,None,1131.6439116999973,None,6,1.3390033999457955,1131.6439116999973,None,1.3390033999457955,1133.0161092000199,None,1133.5335955000482,None,1133.5335955000482,None,r,0.009319100005086511,1133.5335955000482,None,0.009319100005086511,,,34 silent,001,2022_Aug_30_1056,ProdSingRedoBetween,2021.2.3,59.99862002821635,
,,,,86,0,86,0,,,,,,,,,,,,,,,,,,,,,,1136.7653551000403,None,,,,,,,,,,,,,,,,,accident,29,87,silent,old,blue,1134.0796183000202,None,1134.0796183000202,None,2,1.6392720000003465,1134.0796183000202,None,1.6392720000003465,1135.7501829999965,None,1136.2710071000038,None,1136.2710071000038,None,n,0.4797236999729648,1136.2710071000038,None,0.4797236999729648,,,34 silent,001,2022_Aug_30_1056,ProdSingRedoBetween,2021.2.3,59.99862002821635,
,,,,87,0,87,0,,,,,,,,,,,,,,,,,,,,,,1140.1354150000261,None,,,,,,,,,,,,,,,,,taste,37,88,silent,old,blue,1137.2722328000236,None,1137.2722328000236,None,3,1.4065067000337876,1137.2722328000236,None,1.4065067000337876,1138.7037696000189,None,1139.2185464000213,None,1139.2185464000213,None,f,0.8921992999967188,1139.2185464000213,None,0.8921992999967188,,,34 silent,001,2022_Aug_30_1056,ProdSingRedoBetween,2021.2.3,59.99862002821635,
,,,,88,0,88,0,,,,,,,,,,,,,,,,,,,,,,1142.989018000022,None,,,,,,,,,,,,,,,,,management,17,89,silent,old,yellow,1140.6432866000105,None,1140.6432866000105,None,2,1.6755200999905355,1140.6432866000105,None,1.6755200999905355,1142.3384984000004,None,1142.842503199994,None,1142.842503199994,None,n,0.11628659995039925,1142.842503199994,None,0.11628659995039925,,,34 silent,001,2022_Aug_30_1056,ProdSingRedoBetween,2021.2.3,59.99862002821635,
,,,,89,0,89,0,,,,,,,,,,,,,,,,,,,,,,1145.9080183000187,None,,,,,,,,,,,,,,,,,court,24,90,silent,old,yellow,1143.5008888000157,None,1143.5008888000157,None,3,1.673933699959889,1143.5008888000157,None,1.673933699959889,1145.1923397000064,None,1145.7079104000004,None,1145.7079104000004,None,f,0.17887349997181445,1145.7079104000004,None,0.17887349997181445,,,34 silent,001,2022_Aug_30_1056,ProdSingRedoBetween,2021.2.3,59.99862002821635,
,,,,90,0,90,0,,,,,,,,,,,,,,,,,,,,,,1148.4436016000109,None,,,,,,,,,,,,,,,,,cover,175,91,silent,new,null,1146.4156685000053,None,1146.4156685000053,None,2,1.4230561000294983,1146.4156685000053,None,1.4230561000294983,1147.8684361000196,None,1148.3772736000246,None,1148.3772736000246,None,n,0.04566780000459403,1148.3772736000246,None,0.04566780000459403,,,34 silent,001,2022_Aug_30_1056,ProdSingRedoBetween,2021.2.3,59.99862002821635,
,,,,91,0,91,0,,,,,,,,,,,,,,,,,,,,,,1151.046452300041,None,,,,,,,,,,,,,,,,,pretty,93,92,silent,new,null,1148.9473218000494,None,1148.9473218000494,None,1,1.5153958999435417,1148.9473218000494,None,1.5153958999435417,1150.4806300000055,None,1150.9838664000272,None,1150.9838664000272,None,n,0.04686010000295937,1150.9838664000272,None,0.04686010000295937,,,34 silent,001,2022_Aug_30_1056,ProdSingRedoBetween,2021.2.3,59.99862002821635,
,,,,92,0,92,0,,,,,,,,,,,,,,,,,,,,,,1154.3386302000144,None,,,,,,,,,,,,,,,,,beginning,28,93,silent,old,yellow,1151.5533175000455,None,1151.5533175000455,None,5,1.9974104999564588,1151.5533175000455,None,1.9974104999564588,1153.5665542000206,None,1154.0702214000048,None,1154.0702214000048,None,r,0.2407596000120975,1154.0702214000048,None,0.2407596000120975,,,34 silent,001,2022_Aug_30_1056,ProdSingRedoBetween,2021.2.3,59.99862002821635,
,,,,93,0,93,0,,,,,,,,,,,,,,,,,,,,,,1157.5708314000512,None,,,,,,,,,,,,,,,,,stand,149,94,silent,new,null,1154.850297100027,None,1154.850297100027,None,3,1.3164098000270315,1154.850297100027,None,1.3164098000270315,1156.1861919000512,None,1156.68968390004,None,1156.68968390004,None,f,0.8611194999539293,1156.68968390004,None,0.8611194999539293,,,34 silent,001,2022_Aug_30_1056,ProdSingRedoBetween,2021.2.3,59.99862002821635,
,,,,94,0,94,0,,,,,,,,,,,,,,,,,,,,,,1160.9081018000143,None,,,,,,,,,,,,,,,,,entrance,52,95,silent,old,blue,1158.0861906000064,None,1158.0861906000064,None,2,1.7925269000115804,1158.0861906000064,None,1.7925269000115804,1159.9056708000135,None,1160.411807299999,None,1160.411807299999,None,n,0.47496040002442896,1160.411807299999,None,0.47496040002442896,,,34 silent,001,2022_Aug_30_1056,ProdSingRedoBetween,2021.2.3,59.99862002821635,
,,,,95,0,95,0,,,,,,,,,,,,,,,,,,,,,,1164.6600126000121,None,,,,,,,,,,,,,,,,,crime,108,96,silent,new,null,1161.4276510000345,None,1161.4276510000345,None,2,2.4350774999475107,1161.4276510000345,None,2.4350774999475107,1163.8940668000141,None,1164.3966220000293,None,1164.3966220000293,None,n,0.23414199997205287,1164.3966220000293,None,0.23414199997205287,,,34 silent,001,2022_Aug_30_1056,ProdSingRedoBetween,2021.2.3,59.99862002821635,
,,,,96,0,96,0,,,,,,,,,,,,,,,,,,,,,,1168.3655229000142,None,,,,,,,,,,,,,,,,,strength,100,97,silent,new,null,1165.168499900028,None,1165.168499900028,None,2,1.542143099999521,1165.168499900028,None,1.542143099999521,1166.7345494000474,None,1167.2460134000285,None,1167.2460134000285,None,n,1.0886564000393264,1167.2460134000285,None,1.0886564000393264,,,34 silent,001,2022_Aug_30_1056,ProdSingRedoBetween,2021.2.3,59.99862002821635,
,,,,97,0,97,0,,,,,,,,,,,,,,,,,,,,,,1172.100869100017,None,,,,,,,,,,,,,,,,,bitter,126,98,silent,new,null,1168.880912600027,None,1168.880912600027,None,2,2.2377087000058964,1168.880912600027,None,2.2377087000058964,1171.1498979000025,None,1171.6507907000487,None,1171.6507907000487,None,n,0.4201155000482686,1171.6507907000487,None,0.4201155000482686,,,34 silent,001,2022_Aug_30_1056,ProdSingRedoBetween,2021.2.3,59.99862002821635,
,,,,98,0,98,0,,,,,,,,,,,,,,,,,,,,,,1175.0203275000094,None,,,,,,,,,,,,,,,,,atmosphere,65,99,silent,old,red,1172.6109183999943,None,1172.6109183999943,None,5,1.6198042000178248,1172.6109183999943,None,1.6198042000178248,1174.2576118000434,None,1174.7701927000307,None,1174.7701927000307,None,r,0.22853229998145252,1174.7701927000307,None,0.22853229998145252,,,34 silent,001,2022_Aug_30_1056,ProdSingRedoBetween,2021.2.3,59.99862002821635,
,,,,99,0,99,0,,,,,,,,,,,,,,,,,,,,,,1177.37272330001,None,,,,,,,,,,,,,,,,,nation,154,100,silent,new,null,1175.527140100021,None,1175.527140100021,None,5,1.2155616999953054,1175.527140100021,None,1.2155616999953054,1176.7731077000499,None,1177.2768918999936,None,1177.2768918999936,None,r,0.06573130004107952,1177.2768918999936,None,0.06573130004107952,,,34 silent,001,2022_Aug_30_1056,ProdSingRedoBetween,2021.2.3,59.99862002821635,
,,,,100,0,100,0,,,,,,,,,,,,,,,,,,,,,,1180.2422113000066,None,,,,,,,,,,,,,,,,,voice,120,101,silent,new,null,1177.8735366000328,None,1177.8735366000328,None,3,1.709197900025174,1177.8735366000328,None,1.709197900025174,1179.6094063000055,None,1180.1089219000423,None,1180.1089219000423,None,f,0.10580979997757822,1180.1089219000423,None,0.10580979997757822,,,34 silent,001,2022_Aug_30_1056,ProdSingRedoBetween,2021.2.3,59.99862002821635,
,,,,101,0,101,0,,,,,,,,,,,,,,,,,,,,,,1183.545484900009,None,,,,,,,,,,,,,,,,,employment,48,102,silent,old,blue,1180.762628299999,None,1180.762628299999,None,6,1.6680997000075877,1180.762628299999,None,1.6680997000075877,1182.464018300001,None,1182.9784055000055,None,1182.9784055000055,None,r,0.5483596000121906,1182.9784055000055,None,0.5483596000121906,,,34 silent,001,2022_Aug_30_1056,ProdSingRedoBetween,2021.2.3,59.99862002821635,
,,,,102,0,102,0,,,,,,,,,,,,,,,,,,,,,,1186.4983996000374,None,,,,,,,,,,,,,,,,,running,171,103,silent,new,null,1184.0473251000512,None,1184.0473251000512,None,2,1.56744080001954,1184.0473251000512,None,1.56744080001954,1185.6318660000106,None,1186.1315982000087,None,1186.1315982000087,None,n,0.339057499950286,1186.1315982000087,None,0.339057499950286,,,34 silent,001,2022_Aug_30_1056,ProdSingRedoBetween,2021.2.3,59.99862002821635,
,,,,103,0,103,0,,,,,,,,,,,,,,,,,,,,,,1190.2687782000285,None,,,,,,,,,,,,,,,,,listen,16,104,silent,old,yellow,1187.0055644999957,None,1187.0055644999957,None,3,2.5852007000357844,1187.0055644999957,None,2.5852007000357844,1189.6238523000502,None,1190.1355476000463,None,1190.1355476000463,None,f,0.1032384000136517,1190.1355476000463,None,0.1032384000136517,,,34 silent,001,2022_Aug_30_1056,ProdSingRedoBetween,2021.2.3,59.99862002821635,
,,,,104,0,104,0,,,,,,,,,,,,,,,,,,,,,,1193.8057600000175,None,,,,,,,,,,,,,,,,,drama,117,105,silent,new,null,1190.7724506999948,None,1190.7724506999948,None,3,1.5623055000323802,1190.7724506999948,None,1.5623055000323802,1192.357704300026,None,1192.876282500045,None,1192.876282500045,None,f,0.9064733000122942,1192.876282500045,None,0.9064733000122942,,,34 silent,001,2022_Aug_30_1056,ProdSingRedoBetween,2021.2.3,59.99862002821635,
,,,,105,0,105,0,,,,,,,,,,,,,,,,,,,,,,1197.1923131000367,None,,,,,,,,,,,,,,,,,individual,46,106,silent,old,blue,1194.3120865999954,None,1194.3120865999954,None,2,1.8865359000046737,1194.3120865999954,None,1.8865359000046737,1196.2310480000451,None,1196.7469718000502,None,1196.7469718000502,None,n,0.41974879999179393,1196.7469718000502,None,0.41974879999179393,,,34 silent,001,2022_Aug_30_1056,ProdSingRedoBetween,2021.2.3,59.99862002821635,
,,,,106,0,106,0,,,,,,,,,,,,,,,,,,,,,,1200.3787760999985,None,,,,,,,,,,,,,,,,,throw,50,107,silent,old,blue,1197.6931891000131,None,1197.6931891000131,None,2,1.9294169999775477,1197.6931891000131,None,1.9294169999775477,1199.657357899996,None,1200.1619328000234,None,1200.1619328000234,None,n,0.18878279998898506,1200.1619328000234,None,0.18878279998898506,,,34 silent,001,2022_Aug_30_1056,ProdSingRedoBetween,2021.2.3,59.99862002821635,
,,,,107,0,107,0,,,,,,,,,,,,,,,,,,,,,,1203.1005316000083,None,,,,,,,,,,,,,,,,,majority,35,108,silent,old,blue,1200.8800963000394,None,1200.8800963000394,None,3,1.5905348000233062,1200.8800963000394,None,1.5905348000233062,1202.502075300028,None,1203.0151388000231,None,1203.0151388000231,None,f,0.0639835000038147,1203.0151388000231,None,0.0639835000038147,,,34 silent,001,2022_Aug_30_1056,ProdSingRedoBetween,2021.2.3,59.99862002821635,
,,,,108,0,108,0,,,,,,,,,,,,,,,,,,,,,,1206.7520536000375,None,,,,,,,,,,,,,,,,,permit,89,109,silent,old,red,1203.6222991000395,None,1203.6222991000395,None,2,2.06436079996638,1203.6222991000395,None,2.06436079996638,1205.7213689000346,None,1206.2364038000233,None,1206.2364038000233,None,n,0.49027419998310506,1206.2364038000233,None,0.49027419998310506,,,34 silent,001,2022_Aug_30_1056,ProdSingRedoBetween,2021.2.3,59.99862002821635,
,,,,109,0,109,0,,,,,,,,,,,,,,,,,,,,,,1209.810188100033,None,,,,,,,,,,,,,,,,,medicine,56,110,silent,old,blue,1207.2636140999966,None,1207.2636140999966,None,3,1.455039200023748,1207.2636140999966,None,1.455039200023748,1208.7386024000007,None,1209.2378642000258,None,1209.2378642000258,None,f,0.5369535000063479,1209.2378642000258,None,0.5369535000063479,,,34 silent,001,2022_Aug_30_1056,ProdSingRedoBetween,2021.2.3,59.99862002821635,
,,,,110,0,110,0,,,,,,,,,,,,,,,,,,,,,,1212.7247163000284,None,,,,,,,,,,,,,,,,,build,111,111,silent,new,null,1210.3293356000213,None,1210.3293356000213,None,3,1.34948939998867,1210.3293356000213,None,1.34948939998867,1211.7113052000059,None,1212.2242451000493,None,1212.2242451000493,None,f,0.47045239998260513,1212.2242451000493,None,0.47045239998260513,,,34 silent,001,2022_Aug_30_1056,ProdSingRedoBetween,2021.2.3,59.99862002821635,
,,,,111,0,111,0,,,,,,,,,,,,,,,,,,,,,,1216.3449904000154,None,,,,,,,,,,,,,,,,,surprise,177,112,silent,new,null,1213.2280706000165,None,1213.2280706000165,None,2,2.2746114000328816,1213.2280706000165,None,2.2746114000328816,1215.5316992000444,None,1216.0465922000003,None,1216.0465922000003,None,n,0.27217599999858066,1216.0465922000003,None,0.27217599999858066,,,34 silent,001,2022_Aug_30_1056,ProdSingRedoBetween,2021.2.3,59.99862002821635,
,,,,112,0,112,0,,,,,,,,,,,,,,,,,,,,,,1219.648255600012,None,,,,,,,,,,,,,,,,,course,66,113,silent,old,red,1216.846168100019,None,1216.846168100019,None,4,1.7446541999815963,1216.846168100019,None,1.7446541999815963,1218.6167873000377,None,1219.1311822000425,None,1219.1311822000425,None,f,0.4995026999968104,1219.1311822000425,None,0.4995026999968104,,,34 silent,001,2022_Aug_30_1056,ProdSingRedoBetween,2021.2.3,59.99862002821635,
,,,,113,0,113,0,,,,,,,,,,,,,,,,,,,,,,1222.751337099995,None,,,,,,,,,,,,,,,,,foundation,68,114,silent,old,red,1220.1604322000057,None,1220.1604322000057,None,5,1.5741794999921694,1220.1604322000057,None,1.5741794999921694,1221.75158500002,None,1222.2556244000443,None,1222.2556244000443,None,r,0.479082899983041,1222.2556244000443,None,0.479082899983041,,,34 silent,001,2022_Aug_30_1056,ProdSingRedoBetween,2021.2.3,59.99862002821635,
,,,,114,0,114,0,,,,,,,,,,,,,,,,,,,,,,1225.2537977000466,None,,,,,,,,,,,,,,,,,smooth,167,115,silent,new,null,1223.2640816000057,None,1223.2640816000057,None,3,1.3507597999996506,1223.2640816000057,None,1.3507597999996506,1224.6441768000368,None,1225.1537190999952,None,1225.1537190999952,None,f,0.08495449996553361,1225.1537190999952,None,0.08495449996553361,,,34 silent,001,2022_Aug_30_1056,ProdSingRedoBetween,2021.2.3,59.99862002821635,
,,,,115,0,115,0,,,,,,,,,,,,,,,,,,,,,,1227.4933930000407,None,,,,,,,,,,,,,,,,,patient,42,116,silent,old,blue,1225.7617548000417,None,1225.7617548000417,None,4,1.1409770000027493,1225.7617548000417,None,1.1409770000027493,1226.923322000017,None,1227.4271217000205,None,1227.4271217000205,None,f,0.04368980001891032,1227.4271217000205,None,0.04368980001891032,,,34 silent,001,2022_Aug_30_1056,ProdSingRedoBetween,2021.2.3,59.99862002821635,
,,,,116,0,116,0,,,,,,,,,,,,,,,,,,,,,,1233.1283086000476,None,,,,,,,,,,,,,,,,,interior,179,117,silent,new,null,1228.0134010000038,None,1228.0134010000038,None,3,4.417141900048591,1228.0134010000038,None,4.417141900048591,1232.4614628000418,None,1232.961591600033,None,1232.961591600033,None,f,0.14108850003685802,1232.961591600033,None,0.14108850003685802,,,34 silent,001,2022_Aug_30_1056,ProdSingRedoBetween,2021.2.3,59.99862002821635,
,,,,117,0,117,0,,,,,,,,,,,,,,,,,,,,,,1237.0156218000338,None,,,,,,,,,,,,,,,,,finance,163,118,silent,new,null,1233.6290003000177,None,1233.6290003000177,None,2,2.77000889996998,1233.6290003000177,None,2.77000889996998,1236.4254492000327,None,1236.9342909000115,None,1236.9342909000115,None,n,0.06429869995918125,1236.9342909000115,None,0.06429869995918125,,,34 silent,001,2022_Aug_30_1056,ProdSingRedoBetween,2021.2.3,59.99862002821635,
,,,,118,0,118,0,,,,,,,,,,,,,,,,,,,,,,1240.5052935000276,None,,,,,,,,,,,,,,,,,cousin,80,119,silent,old,red,1237.524456300016,None,1237.524456300016,None,6,1.8261781000182964,1237.524456300016,None,1.8261781000182964,1239.3710217000335,None,1239.8900737000513,None,1239.8900737000513,None,r,0.5966748000355437,1239.8900737000513,None,0.5966748000355437,,,34 silent,001,2022_Aug_30_1056,ProdSingRedoBetween,2021.2.3,59.99862002821635,
,,,,119,0,119,0,,,,,,,,,,,,,,,,,,,,,,1243.505131700018,None,,,,,,,,,,,,,,,,,sound,96,120,silent,new,null,1241.0218498000177,None,1241.0218498000177,None,3,1.4809163000318222,1241.0218498000177,None,1.4809163000318222,1242.5314709999948,None,1243.044825100049,None,1243.044825100049,None,f,0.43385359999956563,1243.044825100049,None,0.43385359999956563,,,34 silent,001,2022_Aug_30_1056,ProdSingRedoBetween,2021.2.3,59.99862002821635,
,,,,120,0,120,0,,,,,,,,,,,,,,,,,,,,,,1246.7419726999942,None,,,,,,,,,,,,,,,,,guest,84,121,silent,old,red,1244.0088880000403,None,1244.0088880000403,None,6,1.813787599967327,1244.0088880000403,None,1.813787599967327,1245.8420894000446,None,1246.3416640000069,None,1246.3416640000069,None,r,0.36911239998880774,1246.3416640000069,None,0.36911239998880774,,,34 silent,001,2022_Aug_30_1056,ProdSingRedoBetween,2021.2.3,59.99862002821635,
,,,,121,0,121,0,,,,,,,,,,,,,,,,,,,,,,1250.3813632000238,None,,,,,,,,,,,,,,,,,waste,110,122,silent,new,null,1247.2490483000292,None,1247.2490483000292,None,5,2.253500899998471,1247.2490483000292,None,2.253500899998471,1249.5281488000182,None,1250.0337913000258,None,1250.0337913000258,None,r,0.31711290002567694,1250.0337913000258,None,0.31711290002567694,,,34 silent,001,2022_Aug_30_1056,ProdSingRedoBetween,2021.2.3,59.99862002821635,
,,,,122,0,122,0,,,,,,,,,,,,,,,,,,,,,,1254.5663745000493,None,,,,,,,,,,,,,,,,,short,99,123,silent,new,null,1250.896269000019,None,1250.896269000019,None,3,2.6224021000089124,1250.896269000019,None,2.6224021000089124,1253.5497281000135,None,1254.0520157000283,None,1254.0520157000283,None,f,0.4907367000123486,1254.0520157000283,None,0.4907367000123486,,,34 silent,001,2022_Aug_30_1056,ProdSingRedoBetween,2021.2.3,59.99862002821635,
,,,,123,0,123,0,,,,,,,,,,,,,,,,,,,,,,1257.8067211000016,None,,,,,,,,,,,,,,,,,substance,74,124,silent,old,red,1255.0755380000337,None,1255.0755380000337,None,3,1.90710750001017,1255.0755380000337,None,1.90710750001017,1257.0065733999945,None,1257.5226511000074,None,1257.5226511000074,None,f,0.2520821000216529,1257.5226511000074,None,0.2520821000216529,,,34 silent,001,2022_Aug_30_1056,ProdSingRedoBetween,2021.2.3,59.99862002821635,
,,,,124,0,124,0,,,,,,,,,,,,,,,,,,,,,,1260.839099200035,None,,,,,,,,,,,,,,,,,review,86,125,silent,old,red,1258.3267186000012,None,1258.3267186000012,None,3,1.3837976999930106,1258.3267186000012,None,1.3837976999930106,1259.7447557999985,None,1260.2555941000464,None,1260.2555941000464,None,f,0.559064099972602,1260.2555941000464,None,0.559064099972602,,,34 silent,001,2022_Aug_30_1056,ProdSingRedoBetween,2021.2.3,59.99862002821635,
,,,,125,0,125,0,,,,,,,,,,,,,,,,,,,,,,1263.9281587000005,None,,,,,,,,,,,,,,,,,beauty,39,126,silent,old,blue,1261.3423890999984,None,1261.3423890999984,None,3,1.4963129999814555,1261.3423890999984,None,1.4963129999814555,1262.861623600009,None,1263.375303500041,None,1263.375303500041,None,f,0.5353691999916919,1263.375303500041,None,0.5353691999916919,,,34 silent,001,2022_Aug_30_1056,ProdSingRedoBetween,2021.2.3,59.99862002821635,
,,,,126,0,126,0,,,,,,,,,,,,,,,,,,,,,,1268.9473893000395,None,,,,,,,,,,,,,,,,,equipment,128,127,silent,new,null,1264.444262700039,None,1264.444262700039,None,4,3.3706095999805257,1264.444262700039,None,3.3706095999805257,1267.8415157000418,None,1268.347101500025,None,1268.347101500025,None,f,0.5795842999941669,1268.347101500025,None,0.5795842999941669,,,34 silent,001,2022_Aug_30_1056,ProdSingRedoBetween,2021.2.3,59.99862002821635,
,,,,127,0,127,0,,,,,,,,,,,,,,,,,,,,,,1272.3508555000299,None,,,,,,,,,,,,,,,,,point,3,128,silent,old,yellow,1269.4497735000332,None,1269.4497735000332,None,5,1.900987399974838,1269.4497735000332,None,1.900987399974838,1271.367708500009,None,1271.867174300016,None,1271.867174300016,None,r,0.46747899998445064,1271.867174300016,None,0.46747899998445064,,,34 silent,001,2022_Aug_30_1056,ProdSingRedoBetween,2021.2.3,59.99862002821635,
,,,,128,0,128,0,,,,,,,,,,,,,,,,,,,,,,1274.9034464000142,None,,,,,,,,,,,,,,,,,production,122,129,silent,new,null,1272.8587531000376,None,1272.8587531000376,None,4,1.4198930999846198,1272.8587531000376,None,1.4198930999846198,1274.3040258000256,None,1274.8072144000325,None,1274.8072144000325,None,f,0.07157819997519255,1274.8072144000325,None,0.07157819997519255,,,34 silent,001,2022_Aug_30_1056,ProdSingRedoBetween,2021.2.3,59.99862002821635,
,,,,129,0,129,0,,,,,,,,,,,,,,,,,,,,,,1279.1576219000272,None,,,,,,,,,,,,,,,,,executive,131,130,silent,new,null,1275.411671800015,None,1275.411671800015,None,2,2.98696910002036,1275.411671800015,None,2.98696910002036,1278.4298910000362,None,1278.9408732000156,None,1278.9408732000156,None,n,0.20191959996009246,1278.9408732000156,None,0.20191959996009246,,,34 silent,001,2022_Aug_30_1056,ProdSingRedoBetween,2021.2.3,59.99862002821635,
,,,,130,0,130,0,,,,,,,,,,,,,,,,,,,,,,1281.8603099000175,None,,,,,,,,,,,,,,,,,passage,0,131,silent,old,yellow,1279.6720991000184,None,1279.6720991000184,None,3,1.190518899995368,1279.6720991000184,None,1.190518899995368,1280.8944504000247,None,1281.4099220000207,None,1281.4099220000207,None,f,0.4287184000131674,1281.4099220000207,None,0.4287184000131674,,,34 silent,001,2022_Aug_30_1056,ProdSingRedoBetween,2021.2.3,59.99862002821635,
,,,,131,0,131,0,,,,,,,,,,,,,,,,,,,,,,1285.0467892000452,None,,,,,,,,,,,,,,,,,bright,32,132,silent,old,blue,1282.3686783000012,None,1282.3686783000012,None,6,1.7499059999827296,1282.3686783000012,None,1.7499059999827296,1284.147367700003,None,1284.6466947000008,None,1284.6466947000008,None,r,0.38382230000570416,1284.6466947000008,None,0.38382230000570416,,,34 silent,001,2022_Aug_30_1056,ProdSingRedoBetween,2021.2.3,59.99862002821635,
,,,,132,0,132,0,,,,,,,,,,,,,,,,,,,,,,1287.9012493000482,None,,,,,,,,,,,,,,,,,drove,168,133,silent,new,null,1285.5586724000168,None,1285.5586724000168,None,2,1.5039348999853246,1285.5586724000168,None,1.5039348999853246,1287.0833445000462,None,1287.5876988000236,None,1287.5876988000236,None,n,0.28305609995732084,1287.5876988000236,None,0.28305609995732084,,,34 silent,001,2022_Aug_30_1056,ProdSingRedoBetween,2021.2.3,59.99862002821635,
,,,,133,0,133,0,,,,,,,,,,,,,,,,,,,,,,1293.455247200036,None,,,,,,,,,,,,,,,,,fellow,6,134,silent,old,yellow,1288.4204479000182,None,1288.4204479000182,None,2,4.394156099995598,1288.4204479000182,None,4.394156099995598,1292.8424108000472,None,1293.3552797000157,None,1293.3552797000157,None,n,0.08334409998496994,1293.3552797000157,None,0.08334409998496994,,,34 silent,001,2022_Aug_30_1056,ProdSingRedoBetween,2021.2.3,59.99862002821635,
,,,,134,0,134,0,,,,,,,,,,,,,,,,,,,,,,1296.0752728000516,None,,,,,,,,,,,,,,,,,solution,59,135,silent,old,yellow,1293.9556366000324,None,1293.9556366000324,None,4,1.34701640001731,1293.9556366000324,None,1.34701640001731,1295.3347598999972,None,1295.8410473000258,None,1295.8410473000258,None,f,0.2135491999797523,1295.8410473000258,None,0.2135491999797523,,,34 silent,001,2022_Aug_30_1056,ProdSingRedoBetween,2021.2.3,59.99862002821635,
,,,,135,0,135,0,,,,,,,,,,,,,,,,,,,,,,1300.1954026000458,None,,,,,,,,,,,,,,,,,group,19,136,silent,old,yellow,1296.5831443000352,None,1296.5831443000352,None,3,2.959455300006084,1296.5831443000352,None,2.959455300006084,1299.5626761000021,None,1300.0694594000233,None,1300.0694594000233,None,f,0.09719920001225546,1300.0694594000233,None,0.09719920001225546,,,34 silent,001,2022_Aug_30_1056,ProdSingRedoBetween,2021.2.3,59.99862002821635,
,,,,136,0,136,0,,,,,,,,,,,,,,,,,,,,,,1304.249404400005,None,,,,,,,,,,,,,,,,,mayor,140,137,silent,new,null,1300.705205300008,None,1300.705205300008,None,2,2.9575545000261627,1300.705205300008,None,2.9575545000261627,1303.6877698000171,None,1304.1994012000505,None,1304.1994012000505,None,n,0.031213900016155094,1304.1994012000505,None,0.031213900016155094,,,34 silent,001,2022_Aug_30_1056,ProdSingRedoBetween,2021.2.3,59.99862002821635,
,,,,137,0,137,0,,,,,,,,,,,,,,,,,,,,,,1307.3857556000003,None,,,,,,,,,,,,,,,,,novel,165,138,silent,new,null,1304.7572258000146,None,1304.7572258000146,None,3,1.7055133000249043,1304.7572258000146,None,1.7055133000249043,1306.485987699998,None,1306.9912507000263,None,1306.9912507000263,None,f,0.3753441000008024,1306.9912507000263,None,0.3753441000008024,,,34 silent,001,2022_Aug_30_1056,ProdSingRedoBetween,2021.2.3,59.99862002821635,
,,,,138,0,138,0,,,,,,,,,,,,,,,,,,,,,,1310.4054749000352,None,,,,,,,,,,,,,,,,,hunger,119,139,silent,new,null,1307.8954151000362,None,1307.8954151000362,None,2,1.4951679999940097,1307.8954151000362,None,1.4951679999940097,1309.4209548000363,None,1309.9326575000305,None,1309.9326575000305,None,n,0.44192240003030747,1309.9326575000305,None,0.44192240003030747,,,34 silent,001,2022_Aug_30_1056,ProdSingRedoBetween,2021.2.3,59.99862002821635,
,,,,139,0,139,0,,,,,,,,,,,,,,,,,,,,,,1313.3437760000234,None,,,,,,,,,,,,,,,,,match,127,140,silent,new,null,1310.9086441000109,None,1310.9086441000109,None,2,1.4181072000064887,1310.9086441000109,None,1.4181072000064887,1312.3580616000108,None,1312.8586524000275,None,1312.8586524000275,None,n,0.4601781999808736,1312.8586524000275,None,0.4601781999808736,,,34 silent,001,2022_Aug_30_1056,ProdSingRedoBetween,2021.2.3,59.99862002821635,
,,,,140,0,140,0,,,,,,,,,,,,,,,,,,,,,,1316.7146653000382,None,,,,,,,,,,,,,,,,,principal,155,141,silent,new,null,1313.8710964000202,None,1313.8710964000202,None,6,1.8875291000003926,1313.8710964000202,None,1.8875291000003926,1315.7788562000496,None,1316.2859787000343,None,1316.2859787000343,None,r,0.40062810003291816,1316.2859787000343,None,0.40062810003291816,,,34 silent,001,2022_Aug_30_1056,ProdSingRedoBetween,2021.2.3,59.99862002821635,
,,,,141,0,141,0,,,,,,,,,,,,,,,,,,,,,,1319.7164156000363,None,,,,,,,,,,,,,,,,,vision,41,142,silent,old,blue,1317.2345104000415,None,1317.2345104000415,None,4,1.5722010000026785,1317.2345104000415,None,1.5722010000026785,1318.838462100015,None,1319.3486872000503,None,1319.3486872000503,None,f,0.34578630002215505,1319.3486872000503,None,0.34578630002215505,,,34 silent,001,2022_Aug_30_1056,ProdSingRedoBetween,2021.2.3,59.99862002821635,
,,,,142,0,142,0,,,,,,,,,,,,,,,,,,,,,,1322.717775600031,None,,,,,,,,,,,,,,,,,crowd,143,143,silent,new,null,1320.2341200000374,None,1320.2341200000374,None,4,1.636474700004328,1320.2341200000374,None,1.636474700004328,1321.901273800002,None,1322.4069973000442,None,1322.4069973000442,None,f,0.2875777999870479,1322.4069973000442,None,0.2875777999870479,,,34 silent,001,2022_Aug_30_1056,ProdSingRedoBetween,2021.2.3,59.99862002821635,
,,,,143,0,143,0,,,,,,,,,,,,,,,,,,,,,,1325.5205721000093,None,,,,,,,,,,,,,,,,,space,31,144,silent,old,blue,1323.221170200035,None,1323.221170200035,None,6,1.601425900007598,1323.221170200035,None,1.601425900007598,1324.8560122000054,None,1325.3741640000371,None,1325.3741640000371,None,r,0.12835779995657504,1325.3741640000371,None,0.12835779995657504,,,34 silent,001,2022_Aug_30_1056,ProdSingRedoBetween,2021.2.3,59.99862002821635,
,,,,144,0,144,0,,,,,,,,,,,,,,,,,,,,,,1328.3125279000378,None,,,,,,,,,,,,,,,,,subject,130,145,silent,new,null,1326.0293987000478,None,1326.0293987000478,None,6,1.3932172999484465,1326.0293987000478,None,1.3932172999484465,1327.4453837000183,None,1327.9596894000424,None,1327.9596894000424,None,r,0.3270429000258446,1327.9596894000424,None,0.3270429000258446,,,34 silent,001,2022_Aug_30_1056,ProdSingRedoBetween,2021.2.3,59.99862002821635,
,,,,145,0,145,0,,,,,,,,,,,,,,,,,,,,,,1331.1762094000005,None,,,,,,,,,,,,,,,,,alert,129,146,silent,new,null,1328.8239719000412,None,1328.8239719000412,None,4,1.5827276000054553,1328.8239719000412,None,1.5827276000054553,1330.4335625999956,None,1330.9424773000064,None,1330.9424773000064,None,f,0.20811879995744675,1330.9424773000064,None,0.20811879995744675,,,34 silent,001,2022_Aug_30_1056,ProdSingRedoBetween,2021.2.3,59.99862002821635,
,,,,146,0,146,0,,,,,,,,,,,,,,,,,,,,,,1334.4809392000316,None,,,,,,,,,,,,,,,,,suspect,22,147,silent,old,yellow,1331.6930682000238,None,1331.6930682000238,None,6,1.9054596000351012,1331.6930682000238,None,1.9054596000351012,1333.6286878000246,None,1334.1293816000107,None,1334.1293816000107,None,r,0.32540530001278967,1334.1293816000107,None,0.32540530001278967,,,34 silent,001,2022_Aug_30_1056,ProdSingRedoBetween,2021.2.3,59.99862002821635,
,,,,147,0,147,0,,,,,,,,,,,,,,,,,,,,,,1337.0987707000459,None,,,,,,,,,,,,,,,,,motion,90,148,silent,new,null,1334.9863736000261,None,1334.9863736000261,None,3,1.5324089999776334,1334.9863736000261,None,1.5324089999776334,1336.555879499996,None,1337.0670433000196,None,1337.0670433000196,None,f,0.01167209999402985,1337.0670433000196,None,0.01167209999402985,,,34 silent,001,2022_Aug_30_1056,ProdSingRedoBetween,2021.2.3,59.99862002821635,
,,,,148,0,148,0,,,,,,,,,,,,,,,,,,,,,,1340.3684821000206,None,,,,,,,,,,,,,,,,,mechanical,72,149,silent,old,red,1337.6078757000505,None,1337.6078757000505,None,6,1.582729899964761,1337.6078757000505,None,1.582729899964761,1339.2203042000183,None,1339.7348635999952,None,1339.7348635999952,None,r,0.6157602000166662,1339.7348635999952,None,0.6157602000166662,,,34 silent,001,2022_Aug_30_1056,ProdSingRedoBetween,2021.2.3,59.99862002821635,
,,,,149,0,149,0,,,,,,,,,,,,,,,,,,,,,,1343.4717949000187,None,,,,,,,,,,,,,,,,,skill,134,150,silent,new,null,1340.8786722000223,None,1340.8786722000223,None,4,1.8478619999950752,1340.8786722000223,None,1.8478619999950752,1342.7556483999942,None,1343.2551240000175,None,1343.2551240000175,None,f,0.19944799999939278,1343.2551240000175,None,0.19944799999939278,,,34 silent,001,2022_Aug_30_1056,ProdSingRedoBetween,2021.2.3,59.99862002821635,
,,,,150,0,150,0,,,,,,,,,,,,,,,,,,,,,,1346.4414694000152,None,,,,,,,,,,,,,,,,,dozen,147,151,silent,new,null,1343.9814747000346,None,1343.9814747000346,None,3,1.7690916000283323,1343.9814747000346,None,1.7690916000283323,1345.776274200005,None,1346.291353800043,None,1346.291353800043,None,f,0.12318609998328611,1346.291353800043,None,0.12318609998328611,,,34 silent,001,2022_Aug_30_1056,ProdSingRedoBetween,2021.2.3,59.99862002821635,
,,,,151,0,151,0,,,,,,,,,,,,,,,,,,,,,,1349.4441653999966,None,,,,,,,,,,,,,,,,,commercial,5,152,silent,old,yellow,1346.9512345000403,None,1346.9512345000403,None,6,1.4793173000216484,1346.9512345000403,None,1.4793173000216484,1348.4607864000136,None,1348.9642817000276,None,1348.9642817000276,None,r,0.45019000000320375,1348.9642817000276,None,0.45019000000320375,,,34 silent,001,2022_Aug_30_1056,ProdSingRedoBetween,2021.2.3,59.99862002821635,
,,,,152,0,152,0,,,,,,,,,,,,,,,,,,,,,,1352.7310124000069,None,,,,,,,,,,,,,,,,,profession,33,153,silent,old,blue,1349.949391400034,None,1349.949391400034,None,6,1.817185799998697,1349.949391400034,None,1.817185799998697,1351.7986206000205,None,1352.3169173000497,None,1352.3169173000497,None,r,0.3936793999746442,1352.3169173000497,None,0.3936793999746442,,,34 silent,001,2022_Aug_30_1056,ProdSingRedoBetween,2021.2.3,59.99862002821635,
,,,,153,0,153,0,,,,,,,,,,,,,,,,,,,,,,1355.3336281999946,None,,,,,,,,,,,,,,,,,private,62,154,silent,old,red,1353.2464847000083,None,1353.2464847000083,None,6,1.424168199999258,1353.2464847000083,None,1.424168199999258,1354.7059111000272,None,1355.2197263000417,None,1355.2197263000417,None,r,0.09885870001744479,1355.2197263000417,None,0.09885870001744479,,,34 silent,001,2022_Aug_30_1056,ProdSingRedoBetween,2021.2.3,59.99862002821635,
,,,,154,0,154,0,,,,,,,,,,,,,,,,,,,,,,1358.2061424000422,None,,,,,,,,,,,,,,,,,month,141,155,silent,new,null,1355.8340676000225,None,1355.8340676000225,None,2,1.7565205999999307,1355.8340676000225,None,1.7565205999999307,1357.63258710003,None,1358.13653290004,None,1358.13653290004,None,n,0.038054400007240474,1358.13653290004,None,0.038054400007240474,,,34 silent,001,2022_Aug_30_1056,ProdSingRedoBetween,2021.2.3,59.99862002821635,
,,,,155,0,155,0,,,,,,,,,,,,,,,,,,,,,,1361.2229667000356,None,,,,,,,,,,,,,,,,,grade,103,156,silent,new,null,1358.7259523000102,None,1358.7259523000102,None,2,1.9125225000316277,1358.7259523000102,None,1.9125225000316277,1360.655682600045,None,1361.1599557000445,None,1361.1599557000445,None,n,0.03873239998938516,1361.1599557000445,None,0.03873239998938516,,,34 silent,001,2022_Aug_30_1056,ProdSingRedoBetween,2021.2.3,59.99862002821635,
,,,,156,0,156,0,,,,,,,,,,,,,,,,,,,,,,1365.260224800033,None,,,,,,,,,,,,,,,,,sleep,98,157,silent,new,null,1361.7247564000427,None,1361.7247564000427,None,2,2.465835499984678,1361.7247564000427,None,2.465835499984678,1364.2115198000101,None,1364.7265984000405,None,1364.7265984000405,None,n,0.5121003999956883,1364.7265984000405,None,0.5121003999956883,,,34 silent,001,2022_Aug_30_1056,ProdSingRedoBetween,2021.2.3,59.99862002821635,
,,,,157,0,157,0,,,,,,,,,,,,,,,,,,,,,,1367.6626789000002,None,,,,,,,,,,,,,,,,,damage,161,158,silent,new,null,1365.7665783000411,None,1365.7665783000411,None,3,1.303962700010743,1365.7665783000411,None,1.303962700010743,1367.0972003000206,None,1367.6181804999942,None,1367.6181804999942,None,f,0.028649099986068904,1367.6181804999942,None,0.028649099986068904,,,34 silent,001,2022_Aug_30_1056,ProdSingRedoBetween,2021.2.3,59.99862002821635,
,,,,158,0,158,0,,,,,,,,,,,,,,,,,,,,,,1370.4320212000166,None,,,,,,,,,,,,,,,,,victory,125,159,silent,new,null,1368.1682578000473,None,1368.1682578000473,None,2,1.2942097999621183,1368.1682578000473,None,1.2942097999621183,1369.4835326000466,None,1370.0037388000055,None,1370.0037388000055,None,n,0.40281070000492036,1370.0037388000055,None,0.40281070000492036,,,34 silent,001,2022_Aug_30_1056,ProdSingRedoBetween,2021.2.3,59.99862002821635,
,,,,159,0,159,0,,,,,,,,,,,,,,,,,,,,,,1373.9188339000102,None,,,,,,,,,,,,,,,,,scale,159,160,silent,new,null,1370.9423510000343,None,1370.9423510000343,None,2,1.3681751000112854,1370.9423510000343,None,1.3681751000112854,1372.3352248000447,None,1372.8373473000247,None,1372.8373473000247,None,f,1.0651829999987967,1372.8373473000247,None,1.0651829999987967,,,34 silent,001,2022_Aug_30_1056,ProdSingRedoBetween,2021.2.3,59.99862002821635,
,,,,160,0,160,0,,,,,,,,,,,,,,,,,,,,,,1380.5087560000247,None,,,,,,,,,,,,,,,,,budget,4,161,silent,old,yellow,1374.4197121000034,None,1374.4197121000034,None,3,5.098727899952792,1374.4197121000034,None,5.098727899952792,1379.5424461000366,None,1380.0418292999966,None,1380.0418292999966,None,f,0.4448846000013873,1380.0418292999966,None,0.4448846000013873,,,34 silent,001,2022_Aug_30_1056,ProdSingRedoBetween,2021.2.3,59.99862002821635,
,,,,161,0,161,0,,,,,,,,,,,,,,,,,,,,,,1383.1467168999952,None,,,,,,,,,,,,,,,,,south,75,162,silent,old,red,1381.0187892999966,None,1381.0187892999966,None,1,1.4039013999863528,1381.0187892999966,None,1.4039013999863528,1382.4453331000404,None,1382.9512381000095,None,1382.9512381000095,None,n,0.17533369996817783,1382.9512381000095,None,0.17533369996817783,,,34 silent,001,2022_Aug_30_1056,ProdSingRedoBetween,2021.2.3,59.99862002821635,
,,,,162,0,162,0,,,,,,,,,,,,,,,,,,,,,,1385.9472897000378,None,,,,,,,,,,,,,,,,,shape,173,163,silent,new,null,1383.6621204999974,None,1383.6621204999974,None,3,1.5765622000326402,1383.6621204999974,None,1.5765622000326402,1385.278418300033,None,1385.7810191000463,None,1385.7810191000463,None,f,0.13759409997146577,1385.7810191000463,None,0.13759409997146577,,,34 silent,001,2022_Aug_30_1056,ProdSingRedoBetween,2021.2.3,59.99862002821635,
,,,,163,0,163,0,,,,,,,,,,,,,,,,,,,,,,1388.9229123000405,None,,,,,,,,,,,,,,,,,bucket,138,164,silent,new,null,1386.451226300036,None,1386.451226300036,None,4,1.8354590000235476,1386.451226300036,None,1.8354590000235476,1388.3211927000084,None,1388.8384222000022,None,1388.8384222000022,None,f,0.05633400002261624,1388.8384222000022,None,0.05633400002261624,,,34 silent,001,2022_Aug_30_1056,ProdSingRedoBetween,2021.2.3,59.99862002821635,
,,,,164,0,164,0,,,,,,,,,,,,,,,,,,,,,,1398.2095265000244,None,,,,,,,,,,,,,,,,,brilliant,64,165,silent,old,red,1389.4413351000403,None,1389.4413351000403,None,2,4.341145199956372,1389.4413351000403,None,4.341145199956372,1393.8063621000038,None,1394.3077865000232,None,1394.3077865000232,None,n,3.882788199989591,1394.3077865000232,None,3.882788199989591,,,34 silent,001,2022_Aug_30_1056,ProdSingRedoBetween,2021.2.3,59.99862002821635,
,,,,165,0,165,0,,,,,,,,,,,,,,,,,,,,,,1401.1625945999986,None,,,,,,,,,,,,,,,,,growth,54,166,silent,old,blue,1398.7161829000106,None,1398.7161829000106,None,6,1.4903811999829486,1398.7161829000106,None,1.4903811999829486,1400.233170100022,None,1400.745756200049,None,1400.745756200049,None,r,0.38875879999250174,1400.745756200049,None,0.38875879999250174,,,34 silent,001,2022_Aug_30_1056,ProdSingRedoBetween,2021.2.3,59.99862002821635,
,,,,166,0,166,0,,,,,,,,,,,,,,,,,,,,,,1403.9821715000435,None,,,,,,,,,,,,,,,,,empty,144,167,silent,new,null,1401.6767495000386,None,1401.6767495000386,None,4,1.6738977000350133,1401.6767495000386,None,1.6738977000350133,1403.3914669000078,None,1403.8989893000107,None,1403.8989893000107,None,f,0.06748779996996745,1403.8989893000107,None,0.06748779996996745,,,34 silent,001,2022_Aug_30_1056,ProdSingRedoBetween,2021.2.3,59.99862002821635,
,,,,167,0,167,0,,,,,,,,,,,,,,,,,,,,,,1406.367742100032,None,,,,,,,,,,,,,,,,,story,104,168,silent,new,null,1404.4943322000327,None,1404.4943322000327,None,4,1.2642551000462845,1404.4943322000327,None,1.2642551000462845,1405.7848344999948,None,1406.2962617000449,None,1406.2962617000449,None,f,0.04642440000316128,1406.2962617000449,None,0.04642440000316128,,,34 silent,001,2022_Aug_30_1056,ProdSingRedoBetween,2021.2.3,59.99862002821635,
,,,,168,0,168,0,,,,,,,,,,,,,,,,,,,,,,1409.6380862000515,None,,,,,,,,,,,,,,,,,edition,44,169,silent,old,blue,1406.8725566000212,None,1406.8725566000212,None,6,1.7179876000154763,1406.8725566000212,None,1.7179876000154763,1408.6202108000289,None,1409.125590200012,None,1409.125590200012,None,r,0.4968198999995366,1409.125590200012,None,0.4968198999995366,,,34 silent,001,2022_Aug_30_1056,ProdSingRedoBetween,2021.2.3,59.99862002821635,
,,,,169,0,169,0,,,,,,,,,,,,,,,,,,,,,,1412.857764800021,None,,,,,,,,,,,,,,,,,little,87,170,silent,old,red,1410.138400900003,None,1410.138400900003,None,5,1.2840745999710634,1410.138400900003,None,1.2840745999710634,1411.4396497000125,None,1411.9449023000197,None,1411.9449023000197,None,f,0.8937003000173718,1411.9449023000197,None,0.8937003000173718,,,34 silent,001,2022_Aug_30_1056,ProdSingRedoBetween,2021.2.3,59.99862002821635,
,,,,170,0,170,0,,,,,,,,,,,,,,,,,,,,,,1415.7271749000065,None,,,,,,,,,,,,,,,,,sight,113,171,silent,new,null,1413.3694730999996,None,1413.3694730999996,None,5,1.692940799985081,1413.3694730999996,None,1.692940799985081,1415.094263100007,None,1415.597370900039,None,1415.597370900039,None,r,0.10517739999340847,1415.597370900039,None,0.10517739999340847,,,34 silent,001,2022_Aug_30_1056,ProdSingRedoBetween,2021.2.3,59.99862002821635,
,,,,171,0,171,0,,,,,,,,,,,,,,,,,,,,,,1418.649345300044,None,,,,,,,,,,,,,,,,,number,142,172,silent,new,null,1416.2317287000478,None,1416.2317287000478,None,4,1.390769799996633,1416.2317287000478,None,1.390769799996633,1417.646881200024,None,1418.1534172000247,None,1418.1534172000247,None,f,0.46900530002312735,1418.1534172000247,None,0.46900530002312735,,,34 silent,001,2022_Aug_30_1056,ProdSingRedoBetween,2021.2.3,59.99862002821635,
,,,,172,0,172,0,,,,,,,,,,,,,,,,,,,,,,1421.1519965000334,None,,,,,,,,,,,,,,,,,institute,156,173,silent,new,null,1419.1641263000201,None,1419.1641263000201,None,6,1.3863623999641277,1419.1641263000201,None,1.3863623999641277,1420.567353200051,None,1421.0881781000062,None,1421.0881781000062,None,r,0.03856869996525347,1421.0881781000062,None,0.03856869996525347,,,34 silent,001,2022_Aug_30_1056,ProdSingRedoBetween,2021.2.3,59.99862002821635,
,,,,173,0,173,0,,,,,,,,,,,,,,,,,,,,,,1424.1190155000077,None,,,,,,,,,,,,,,,,,quarter,45,174,silent,old,blue,1421.67283710005,None,1421.67283710005,None,4,1.3896902999840677,1421.67283710005,None,1.3896902999840677,1423.085706700047,None,1423.599137900048,None,1423.599137900048,None,f,0.49533800000790507,1423.599137900048,None,0.49533800000790507,,,34 silent,001,2022_Aug_30_1056,ProdSingRedoBetween,2021.2.3,59.99862002821635,
,,,,174,0,174,0,,,,,,,,,,,,,,,,,,,,,,1427.2220716000302,None,,,,,,,,,,,,,,,,,spoke,25,175,silent,old,yellow,1424.6232828000211,None,1424.6232828000211,None,5,1.5993079000036232,1424.6232828000211,None,1.5993079000036232,1426.2555339999963,None,1426.7550116000348,None,1426.7550116000348,None,r,0.44346580002456903,1426.7550116000348,None,0.44346580002456903,,,34 silent,001,2022_Aug_30_1056,ProdSingRedoBetween,2021.2.3,59.99862002821635,
