StudyLoop.thisRepN,StudyLoop.thisTrialN,StudyLoop.thisN,StudyLoop.thisIndex,TestLoop.thisRepN,TestLoop.thisTrialN,TestLoop.thisN,TestLoop.thisIndex,textCondition.started,textCondition.stopped,keyCondition.keys,keyCondition.rt,keyCondition.started,keyCondition.stopped,Condition,textWelcome.started,textWelcome.stopped,keyWelcome.keys,keyWelcome.rt,keyWelcome.started,keyWelcome.stopped,textAloud.started,textAloud.stopped,textSilent.started,textSilent.stopped,textSing.started,textSing.stopped,conditional_text.started,conditional_text.stopped,textBlank500.started,textBlank500.stopped,study_word,study_num,study_order,study_type,word_color,textStudy.started,textStudy.stopped,keyStudy.keys,keyStudy.started,keyStudy.stopped,textTestInstructions.started,textTestInstructions.stopped,key_resp_3.keys,key_resp_3.rt,key_resp_3.started,key_resp_3.stopped,test_word,test_num,test_order,test_condition,old_new_test,test_word_original_color,textConf.started,textConf.stopped,textConfScale.started,textConfScale.stopped,keyConf.keys,keyConf.rt,keyConf.started,keyConf.stopped,confidence response time,textTestBlank.started,textTestBlank.stopped,textRKN.started,textRKN.stopped,textRKNScale.started,textRKNScale.stopped,keyRKN.keys,keyRKN.rt,keyRKN.started,keyRKN.stopped,rkn response time,textEnd.started,textEnd.stopped,participant,session,date,expName,psychopyVersion,frameRate,
,,,,,,,,309.3506473999587,None,b,213.63074649998453,309.3506473999587,None,,,,,,,,,,,,,,,,,,,,,,,,,,,,,,,,,,,,,,,,,,,,,,,,,,,,,,,,,,,,,,35 Aloud,001,2022_Aug_30_1126,ProdSingRedoBetween,2021.2.3,59.95232591034925,
,,,,,,,,,,,,,,AloudTest,523.0284515999956,None,space,2.9607175999553874,523.0284515999956,None,,,,,,,,,,,,,,,,,,,,,,,,,,,,,,,,,,,,,,,,,,,,,,,,,,,,,,,35 Aloud,001,2022_Aug_30_1126,ProdSingRedoBetween,2021.2.3,59.95232591034925,
0,0,0,0,,,,,,,,,,,,,,,,,,523.0284515999956,None,523.0284515999956,None,523.0284515999956,None,523.0284515999956,None,528.5283942999667,None,research,7,1,aloud,yellow,526.523391900002,None,None,526.523391900002,None,,,,,,,,,,,,,,,,,,,,,,,,,,,,,,,,,,,35 Aloud,001,2022_Aug_30_1126,ProdSingRedoBetween,2021.2.3,59.95232591034925,
1,0,1,0,,,,,,,,,,,,,,,,,,,,,,,,,,531.0309096999699,None,universal,88,2,aloud,red,529.0315358999651,None,None,529.0315358999651,None,,,,,,,,,,,,,,,,,,,,,,,,,,,,,,,,,,,35 Aloud,001,2022_Aug_30_1126,ProdSingRedoBetween,2021.2.3,59.95232591034925,
2,0,2,0,,,,,,,,,,,,,,,,,,,,,,,,,,533.5333448000019,None,problem,64,3,aloud,red,531.5336874999921,None,None,531.5336874999921,None,,,,,,,,,,,,,,,,,,,,,,,,,,,,,,,,,,,35 Aloud,001,2022_Aug_30_1126,ProdSingRedoBetween,2021.2.3,59.95232591034925,
3,0,3,0,,,,,,,,,,,,,,,,,,,,,,,,,,536.0357799999765,None,husband,77,4,aloud,red,534.033824299986,None,None,534.033824299986,None,,,,,,,,,,,,,,,,,,,,,,,,,,,,,,,,,,,35 Aloud,001,2022_Aug_30_1126,ProdSingRedoBetween,2021.2.3,59.95232591034925,
4,0,4,0,,,,,,,,,,,,,,,,,,,,,,,,,,538.5550203999737,None,judge,54,5,aloud,blue,536.5393885999802,None,None,536.5393885999802,None,,,,,,,,,,,,,,,,,,,,,,,,,,,,,,,,,,,35 Aloud,001,2022_Aug_30_1126,ProdSingRedoBetween,2021.2.3,59.95232591034925,
5,0,5,0,,,,,,,,,,,,,,,,,,,,,,,,,,541.0741653000005,None,private,4,6,aloud,yellow,539.06017349998,None,None,539.06017349998,None,,,,,,,,,,,,,,,,,,,,,,,,,,,,,,,,,,,35 Aloud,001,2022_Aug_30_1126,ProdSingRedoBetween,2021.2.3,59.95232591034925,
6,0,6,0,,,,,,,,,,,,,,,,,,,,,,,,,,543.5766287999577,None,center,76,7,aloud,red,541.5768346999539,None,None,541.5768346999539,None,,,,,,,,,,,,,,,,,,,,,,,,,,,,,,,,,,,35 Aloud,001,2022_Aug_30_1126,ProdSingRedoBetween,2021.2.3,59.95232591034925,
7,0,7,0,,,,,,,,,,,,,,,,,,,,,,,,,,546.0958093999652,None,general,12,8,aloud,yellow,544.080186599982,None,None,544.080186599982,None,,,,,,,,,,,,,,,,,,,,,,,,,,,,,,,,,,,35 Aloud,001,2022_Aug_30_1126,ProdSingRedoBetween,2021.2.3,59.95232591034925,
8,0,8,0,,,,,,,,,,,,,,,,,,,,,,,,,,548.6149207999697,None,childhood,33,9,aloud,blue,546.5999303999706,None,None,546.5999303999706,None,,,,,,,,,,,,,,,,,,,,,,,,,,,,,,,,,,,35 Aloud,001,2022_Aug_30_1126,ProdSingRedoBetween,2021.2.3,59.95232591034925,
9,0,9,0,,,,,,,,,,,,,,,,,,,,,,,,,,551.1175712999539,None,salary,25,10,aloud,yellow,549.1155043999897,None,None,549.1155043999897,None,,,,,,,,,,,,,,,,,,,,,,,,,,,,,,,,,,,35 Aloud,001,2022_Aug_30_1126,ProdSingRedoBetween,2021.2.3,59.95232591034925,
10,0,10,0,,,,,,,,,,,,,,,,,,,,,,,,,,553.6200507999747,None,grade,44,11,aloud,blue,551.6183378999704,None,None,551.6183378999704,None,,,,,,,,,,,,,,,,,,,,,,,,,,,,,,,,,,,35 Aloud,001,2022_Aug_30_1126,ProdSingRedoBetween,2021.2.3,59.95232591034925,
11,0,11,0,,,,,,,,,,,,,,,,,,,,,,,,,,556.1392378999735,None,welcome,42,12,aloud,blue,554.1262345999712,None,None,554.1262345999712,None,,,,,,,,,,,,,,,,,,,,,,,,,,,,,,,,,,,35 Aloud,001,2022_Aug_30_1126,ProdSingRedoBetween,2021.2.3,59.95232591034925,
12,0,12,0,,,,,,,,,,,,,,,,,,,,,,,,,,558.6418089999934,None,angle,74,13,aloud,red,556.6411996999523,None,None,556.6411996999523,None,,,,,,,,,,,,,,,,,,,,,,,,,,,,,,,,,,,35 Aloud,001,2022_Aug_30_1126,ProdSingRedoBetween,2021.2.3,59.95232591034925,
13,0,13,0,,,,,,,,,,,,,,,,,,,,,,,,,,561.1441772999824,None,motion,60,14,aloud,red,559.1419434999698,None,None,559.1419434999698,None,,,,,,,,,,,,,,,,,,,,,,,,,,,,,,,,,,,35 Aloud,001,2022_Aug_30_1126,ProdSingRedoBetween,2021.2.3,59.95232591034925,
14,0,14,0,,,,,,,,,,,,,,,,,,,,,,,,,,563.6467453999794,None,front,19,15,aloud,yellow,561.6448039999814,None,None,561.6448039999814,None,,,,,,,,,,,,,,,,,,,,,,,,,,,,,,,,,,,35 Aloud,001,2022_Aug_30_1126,ProdSingRedoBetween,2021.2.3,59.95232591034925,
15,0,15,0,,,,,,,,,,,,,,,,,,,,,,,,,,566.1491842999822,None,ground,50,16,aloud,blue,564.1499142999528,None,None,564.1499142999528,None,,,,,,,,,,,,,,,,,,,,,,,,,,,,,,,,,,,35 Aloud,001,2022_Aug_30_1126,ProdSingRedoBetween,2021.2.3,59.95232591034925,
16,0,16,0,,,,,,,,,,,,,,,,,,,,,,,,,,568.6516567000072,None,waste,72,17,aloud,red,566.6519836999942,None,None,566.6519836999942,None,,,,,,,,,,,,,,,,,,,,,,,,,,,,,,,,,,,35 Aloud,001,2022_Aug_30_1126,ProdSingRedoBetween,2021.2.3,59.95232591034925,
17,0,17,0,,,,,,,,,,,,,,,,,,,,,,,,,,571.154242199962,None,state,45,18,aloud,blue,569.1530029999558,None,None,569.1530029999558,None,,,,,,,,,,,,,,,,,,,,,,,,,,,,,,,,,,,35 Aloud,001,2022_Aug_30_1126,ProdSingRedoBetween,2021.2.3,59.95232591034925,
18,0,18,0,,,,,,,,,,,,,,,,,,,,,,,,,,573.656683499983,None,conference,57,19,aloud,blue,571.6563478999888,None,None,571.6563478999888,None,,,,,,,,,,,,,,,,,,,,,,,,,,,,,,,,,,,35 Aloud,001,2022_Aug_30_1126,ProdSingRedoBetween,2021.2.3,59.95232591034925,
19,0,19,0,,,,,,,,,,,,,,,,,,,,,,,,,,576.1589223999763,None,union,21,20,aloud,yellow,574.1577046999591,None,None,574.1577046999591,None,,,,,,,,,,,,,,,,,,,,,,,,,,,,,,,,,,,35 Aloud,001,2022_Aug_30_1126,ProdSingRedoBetween,2021.2.3,59.95232591034925,
20,0,20,0,,,,,,,,,,,,,,,,,,,,,,,,,,578.6617704000091,None,mechanical,51,21,aloud,blue,576.6597021999769,None,None,576.6597021999769,None,,,,,,,,,,,,,,,,,,,,,,,,,,,,,,,,,,,35 Aloud,001,2022_Aug_30_1126,ProdSingRedoBetween,2021.2.3,59.95232591034925,
21,0,21,0,,,,,,,,,,,,,,,,,,,,,,,,,,581.1808814999531,None,search,78,22,aloud,red,579.1676370999776,None,None,579.1676370999776,None,,,,,,,,,,,,,,,,,,,,,,,,,,,,,,,,,,,35 Aloud,001,2022_Aug_30_1126,ProdSingRedoBetween,2021.2.3,59.95232591034925,
22,0,22,0,,,,,,,,,,,,,,,,,,,,,,,,,,583.699755199952,None,style,55,23,aloud,blue,581.6853938999702,None,None,581.6853938999702,None,,,,,,,,,,,,,,,,,,,,,,,,,,,,,,,,,,,35 Aloud,001,2022_Aug_30_1126,ProdSingRedoBetween,2021.2.3,59.95232591034925,
23,0,23,0,,,,,,,,,,,,,,,,,,,,,,,,,,586.2026700999704,None,theme,83,24,aloud,red,584.2008475000039,None,None,584.2008475000039,None,,,,,,,,,,,,,,,,,,,,,,,,,,,,,,,,,,,35 Aloud,001,2022_Aug_30_1126,ProdSingRedoBetween,2021.2.3,59.95232591034925,
24,0,24,0,,,,,,,,,,,,,,,,,,,,,,,,,,588.7050186999841,None,quarter,62,25,aloud,red,586.7057816999732,None,None,586.7057816999732,None,,,,,,,,,,,,,,,,,,,,,,,,,,,,,,,,,,,35 Aloud,001,2022_Aug_30_1126,ProdSingRedoBetween,2021.2.3,59.95232591034925,
25,0,25,0,,,,,,,,,,,,,,,,,,,,,,,,,,591.2242373999907,None,health,14,26,aloud,yellow,589.2086537999567,None,None,589.2086537999567,None,,,,,,,,,,,,,,,,,,,,,,,,,,,,,,,,,,,35 Aloud,001,2022_Aug_30_1126,ProdSingRedoBetween,2021.2.3,59.95232591034925,
26,0,26,0,,,,,,,,,,,,,,,,,,,,,,,,,,593.7433198000072,None,speech,26,27,aloud,yellow,591.7285993999685,None,None,591.7285993999685,None,,,,,,,,,,,,,,,,,,,,,,,,,,,,,,,,,,,35 Aloud,001,2022_Aug_30_1126,ProdSingRedoBetween,2021.2.3,59.95232591034925,
27,0,27,0,,,,,,,,,,,,,,,,,,,,,,,,,,596.2455468999688,None,nature,59,28,aloud,yellow,594.2439713999629,None,None,594.2439713999629,None,,,,,,,,,,,,,,,,,,,,,,,,,,,,,,,,,,,35 Aloud,001,2022_Aug_30_1126,ProdSingRedoBetween,2021.2.3,59.95232591034925,
28,0,28,0,,,,,,,,,,,,,,,,,,,,,,,,,,598.7483956000069,None,property,80,29,aloud,red,596.7464347999776,None,None,596.7464347999776,None,,,,,,,,,,,,,,,,,,,,,,,,,,,,,,,,,,,35 Aloud,001,2022_Aug_30_1126,ProdSingRedoBetween,2021.2.3,59.95232591034925,
29,0,29,0,,,,,,,,,,,,,,,,,,,,,,,,,,601.2507632999914,None,second,73,30,aloud,red,599.2488608999993,None,None,599.2488608999993,None,,,,,,,,,,,,,,,,,,,,,,,,,,,,,,,,,,,35 Aloud,001,2022_Aug_30_1126,ProdSingRedoBetween,2021.2.3,59.95232591034925,
30,0,30,0,,,,,,,,,,,,,,,,,,,,,,,,,,603.7701638999861,None,track,63,31,aloud,red,601.7634910999914,None,None,601.7634910999914,None,,,,,,,,,,,,,,,,,,,,,,,,,,,,,,,,,,,35 Aloud,001,2022_Aug_30_1126,ProdSingRedoBetween,2021.2.3,59.95232591034925,
31,0,31,0,,,,,,,,,,,,,,,,,,,,,,,,,,606.2893111999729,None,charter,38,32,aloud,blue,604.2742929999949,None,None,604.2742929999949,None,,,,,,,,,,,,,,,,,,,,,,,,,,,,,,,,,,,35 Aloud,001,2022_Aug_30_1126,ProdSingRedoBetween,2021.2.3,59.95232591034925,
32,0,32,0,,,,,,,,,,,,,,,,,,,,,,,,,,608.808418200002,None,tragedy,65,33,aloud,red,606.7940590999788,None,None,606.7940590999788,None,,,,,,,,,,,,,,,,,,,,,,,,,,,,,,,,,,,35 Aloud,001,2022_Aug_30_1126,ProdSingRedoBetween,2021.2.3,59.95232591034925,
33,0,33,0,,,,,,,,,,,,,,,,,,,,,,,,,,611.310960999981,None,institute,84,34,aloud,red,609.3112083000015,None,None,609.3112083000015,None,,,,,,,,,,,,,,,,,,,,,,,,,,,,,,,,,,,35 Aloud,001,2022_Aug_30_1126,ProdSingRedoBetween,2021.2.3,59.95232591034925,
34,0,34,0,,,,,,,,,,,,,,,,,,,,,,,,,,613.8301437000046,None,danger,13,35,aloud,yellow,611.8158128999639,None,None,611.8158128999639,None,,,,,,,,,,,,,,,,,,,,,,,,,,,,,,,,,,,35 Aloud,001,2022_Aug_30_1126,ProdSingRedoBetween,2021.2.3,59.95232591034925,
35,0,35,0,,,,,,,,,,,,,,,,,,,,,,,,,,616.3325655999943,None,build,1,36,aloud,yellow,614.3314582000021,None,None,614.3314582000021,None,,,,,,,,,,,,,,,,,,,,,,,,,,,,,,,,,,,35 Aloud,001,2022_Aug_30_1126,ProdSingRedoBetween,2021.2.3,59.95232591034925,
36,0,36,0,,,,,,,,,,,,,,,,,,,,,,,,,,618.8518070999999,None,budget,61,37,aloud,red,616.836237499956,None,None,616.836237499956,None,,,,,,,,,,,,,,,,,,,,,,,,,,,,,,,,,,,35 Aloud,001,2022_Aug_30_1126,ProdSingRedoBetween,2021.2.3,59.95232591034925,
37,0,37,0,,,,,,,,,,,,,,,,,,,,,,,,,,621.3543809999828,None,working,82,38,aloud,red,619.3520624999655,None,None,619.3520624999655,None,,,,,,,,,,,,,,,,,,,,,,,,,,,,,,,,,,,35 Aloud,001,2022_Aug_30_1126,ProdSingRedoBetween,2021.2.3,59.95232591034925,
38,0,38,0,,,,,,,,,,,,,,,,,,,,,,,,,,623.8568803999806,None,exchange,46,39,aloud,blue,621.8548092999845,None,None,621.8548092999845,None,,,,,,,,,,,,,,,,,,,,,,,,,,,,,,,,,,,35 Aloud,001,2022_Aug_30_1126,ProdSingRedoBetween,2021.2.3,59.95232591034925,
39,0,39,0,,,,,,,,,,,,,,,,,,,,,,,,,,626.3592703999602,None,degree,37,40,aloud,blue,624.3572649999987,None,None,624.3572649999987,None,,,,,,,,,,,,,,,,,,,,,,,,,,,,,,,,,,,35 Aloud,001,2022_Aug_30_1126,ProdSingRedoBetween,2021.2.3,59.95232591034925,
40,0,40,0,,,,,,,,,,,,,,,,,,,,,,,,,,628.8618494999828,None,dream,40,41,aloud,blue,626.8597854999825,None,None,626.8597854999825,None,,,,,,,,,,,,,,,,,,,,,,,,,,,,,,,,,,,35 Aloud,001,2022_Aug_30_1126,ProdSingRedoBetween,2021.2.3,59.95232591034925,
41,0,41,0,,,,,,,,,,,,,,,,,,,,,,,,,,631.3644237999688,None,threat,28,42,aloud,yellow,629.3639808999724,None,None,629.3639808999724,None,,,,,,,,,,,,,,,,,,,,,,,,,,,,,,,,,,,35 Aloud,001,2022_Aug_30_1126,ProdSingRedoBetween,2021.2.3,59.95232591034925,
42,0,42,0,,,,,,,,,,,,,,,,,,,,,,,,,,633.8665172999608,None,trend,56,43,aloud,blue,631.8648195999558,None,None,631.8648195999558,None,,,,,,,,,,,,,,,,,,,,,,,,,,,,,,,,,,,35 Aloud,001,2022_Aug_30_1126,ProdSingRedoBetween,2021.2.3,59.95232591034925,
43,0,43,0,,,,,,,,,,,,,,,,,,,,,,,,,,636.3691440999974,None,session,2,44,aloud,yellow,634.370167999994,None,None,634.370167999994,None,,,,,,,,,,,,,,,,,,,,,,,,,,,,,,,,,,,35 Aloud,001,2022_Aug_30_1126,ProdSingRedoBetween,2021.2.3,59.95232591034925,
44,0,44,0,,,,,,,,,,,,,,,,,,,,,,,,,,638.8884618000011,None,division,75,45,aloud,red,636.876488799986,None,None,636.876488799986,None,,,,,,,,,,,,,,,,,,,,,,,,,,,,,,,,,,,35 Aloud,001,2022_Aug_30_1126,ProdSingRedoBetween,2021.2.3,59.95232591034925,
45,0,45,0,,,,,,,,,,,,,,,,,,,,,,,,,,641.407714299974,None,tough,89,46,aloud,red,639.3923980999971,None,None,639.3923980999971,None,,,,,,,,,,,,,,,,,,,,,,,,,,,,,,,,,,,35 Aloud,001,2022_Aug_30_1126,ProdSingRedoBetween,2021.2.3,59.95232591034925,
46,0,46,0,,,,,,,,,,,,,,,,,,,,,,,,,,643.9101171999937,None,owner,87,47,aloud,red,641.9081373999943,None,None,641.9081373999943,None,,,,,,,,,,,,,,,,,,,,,,,,,,,,,,,,,,,35 Aloud,001,2022_Aug_30_1126,ProdSingRedoBetween,2021.2.3,59.95232591034925,
47,0,47,0,,,,,,,,,,,,,,,,,,,,,,,,,,646.4124128999538,None,collection,32,48,aloud,blue,644.4119724999764,None,None,644.4119724999764,None,,,,,,,,,,,,,,,,,,,,,,,,,,,,,,,,,,,35 Aloud,001,2022_Aug_30_1126,ProdSingRedoBetween,2021.2.3,59.95232591034925,
48,0,48,0,,,,,,,,,,,,,,,,,,,,,,,,,,648.9318546999712,None,relation,70,49,aloud,red,646.9178956999676,None,None,646.9178956999676,None,,,,,,,,,,,,,,,,,,,,,,,,,,,,,,,,,,,35 Aloud,001,2022_Aug_30_1126,ProdSingRedoBetween,2021.2.3,59.95232591034925,
49,0,49,0,,,,,,,,,,,,,,,,,,,,,,,,,,651.4342778999708,None,stand,10,50,aloud,yellow,649.4322029000032,None,None,649.4322029000032,None,,,,,,,,,,,,,,,,,,,,,,,,,,,,,,,,,,,35 Aloud,001,2022_Aug_30_1126,ProdSingRedoBetween,2021.2.3,59.95232591034925,
50,0,50,0,,,,,,,,,,,,,,,,,,,,,,,,,,653.9534772000043,None,territory,11,51,aloud,yellow,651.946797099954,None,None,651.946797099954,None,,,,,,,,,,,,,,,,,,,,,,,,,,,,,,,,,,,35 Aloud,001,2022_Aug_30_1126,ProdSingRedoBetween,2021.2.3,59.95232591034925,
51,0,51,0,,,,,,,,,,,,,,,,,,,,,,,,,,656.4560505999834,None,engineer,79,52,aloud,red,654.453828800004,None,None,654.453828800004,None,,,,,,,,,,,,,,,,,,,,,,,,,,,,,,,,,,,35 Aloud,001,2022_Aug_30_1126,ProdSingRedoBetween,2021.2.3,59.95232591034925,
52,0,52,0,,,,,,,,,,,,,,,,,,,,,,,,,,658.9748453999637,None,raise,71,53,aloud,red,656.9612143999548,None,None,656.9612143999548,None,,,,,,,,,,,,,,,,,,,,,,,,,,,,,,,,,,,35 Aloud,001,2022_Aug_30_1126,ProdSingRedoBetween,2021.2.3,59.95232591034925,
53,0,53,0,,,,,,,,,,,,,,,,,,,,,,,,,,661.4943297999562,None,discovery,9,54,aloud,yellow,659.4787287999643,None,None,659.4787287999643,None,,,,,,,,,,,,,,,,,,,,,,,,,,,,,,,,,,,35 Aloud,001,2022_Aug_30_1126,ProdSingRedoBetween,2021.2.3,59.95232591034925,
54,0,54,0,,,,,,,,,,,,,,,,,,,,,,,,,,663.996881900006,None,people,29,55,aloud,blue,661.9975257999613,None,None,661.9975257999613,None,,,,,,,,,,,,,,,,,,,,,,,,,,,,,,,,,,,35 Aloud,001,2022_Aug_30_1126,ProdSingRedoBetween,2021.2.3,59.95232591034925,
55,0,55,0,,,,,,,,,,,,,,,,,,,,,,,,,,666.5160438999883,None,payment,15,56,aloud,yellow,664.5067816000083,None,None,664.5067816000083,None,,,,,,,,,,,,,,,,,,,,,,,,,,,,,,,,,,,35 Aloud,001,2022_Aug_30_1126,ProdSingRedoBetween,2021.2.3,59.95232591034925,
56,0,56,0,,,,,,,,,,,,,,,,,,,,,,,,,,669.0204729999532,None,committee,16,57,aloud,yellow,667.0173828999978,None,None,667.0173828999978,None,,,,,,,,,,,,,,,,,,,,,,,,,,,,,,,,,,,35 Aloud,001,2022_Aug_30_1126,ProdSingRedoBetween,2021.2.3,59.95232591034925,
57,0,57,0,,,,,,,,,,,,,,,,,,,,,,,,,,671.5374548999825,None,rough,41,58,aloud,blue,669.5355056999833,None,None,669.5355056999833,None,,,,,,,,,,,,,,,,,,,,,,,,,,,,,,,,,,,35 Aloud,001,2022_Aug_30_1126,ProdSingRedoBetween,2021.2.3,59.95232591034925,
58,0,58,0,,,,,,,,,,,,,,,,,,,,,,,,,,674.0399180999957,None,provision,27,59,aloud,yellow,672.0398047000053,None,None,672.0398047000053,None,,,,,,,,,,,,,,,,,,,,,,,,,,,,,,,,,,,35 Aloud,001,2022_Aug_30_1126,ProdSingRedoBetween,2021.2.3,59.95232591034925,
59,0,59,0,,,,,,,,,,,,,,,,,,,,,,,,,,676.5594205000089,None,junior,23,60,aloud,yellow,674.544335899991,None,None,674.544335899991,None,,,,,,,,,,,,,,,,,,,,,,,,,,,,,,,,,,,35 Aloud,001,2022_Aug_30_1126,ProdSingRedoBetween,2021.2.3,59.95232591034925,
60,0,60,0,,,,,,,,,,,,,,,,,,,,,,,,,,679.0620608999743,None,voice,53,61,aloud,blue,677.0627621999593,None,None,677.0627621999593,None,,,,,,,,,,,,,,,,,,,,,,,,,,,,,,,,,,,35 Aloud,001,2022_Aug_30_1126,ProdSingRedoBetween,2021.2.3,59.95232591034925,
61,0,61,0,,,,,,,,,,,,,,,,,,,,,,,,,,681.5644464999787,None,patient,22,62,aloud,yellow,679.562082999968,None,None,679.562082999968,None,,,,,,,,,,,,,,,,,,,,,,,,,,,,,,,,,,,35 Aloud,001,2022_Aug_30_1126,ProdSingRedoBetween,2021.2.3,59.95232591034925,
62,0,62,0,,,,,,,,,,,,,,,,,,,,,,,,,,684.0668272000039,None,treatment,6,63,aloud,yellow,682.064891099988,None,None,682.064891099988,None,,,,,,,,,,,,,,,,,,,,,,,,,,,,,,,,,,,35 Aloud,001,2022_Aug_30_1126,ProdSingRedoBetween,2021.2.3,59.95232591034925,
63,0,63,0,,,,,,,,,,,,,,,,,,,,,,,,,,686.5861207999988,None,column,17,64,aloud,yellow,684.5706285999622,None,None,684.5706285999622,None,,,,,,,,,,,,,,,,,,,,,,,,,,,,,,,,,,,35 Aloud,001,2022_Aug_30_1126,ProdSingRedoBetween,2021.2.3,59.95232591034925,
64,0,64,0,,,,,,,,,,,,,,,,,,,,,,,,,,689.1053975999821,None,country,20,65,aloud,yellow,687.0901777999825,None,None,687.0901777999825,None,,,,,,,,,,,,,,,,,,,,,,,,,,,,,,,,,,,35 Aloud,001,2022_Aug_30_1126,ProdSingRedoBetween,2021.2.3,59.95232591034925,
65,0,65,0,,,,,,,,,,,,,,,,,,,,,,,,,,691.6078051999793,None,design,85,66,aloud,red,689.6063222999801,None,None,689.6063222999801,None,,,,,,,,,,,,,,,,,,,,,,,,,,,,,,,,,,,35 Aloud,001,2022_Aug_30_1126,ProdSingRedoBetween,2021.2.3,59.95232591034925,
66,0,66,0,,,,,,,,,,,,,,,,,,,,,,,,,,694.1102257999592,None,touch,67,67,aloud,red,692.1091145999962,None,None,692.1091145999962,None,,,,,,,,,,,,,,,,,,,,,,,,,,,,,,,,,,,35 Aloud,001,2022_Aug_30_1126,ProdSingRedoBetween,2021.2.3,59.95232591034925,
67,0,67,0,,,,,,,,,,,,,,,,,,,,,,,,,,696.6127532999963,None,author,58,68,aloud,blue,694.6107364000054,None,None,694.6107364000054,None,,,,,,,,,,,,,,,,,,,,,,,,,,,,,,,,,,,35 Aloud,001,2022_Aug_30_1126,ProdSingRedoBetween,2021.2.3,59.95232591034925,
68,0,68,0,,,,,,,,,,,,,,,,,,,,,,,,,,699.1152776999515,None,court,36,69,aloud,blue,697.114121999999,None,None,697.114121999999,None,,,,,,,,,,,,,,,,,,,,,,,,,,,,,,,,,,,35 Aloud,001,2022_Aug_30_1126,ProdSingRedoBetween,2021.2.3,59.95232591034925,
69,0,69,0,,,,,,,,,,,,,,,,,,,,,,,,,,701.6178209999925,None,century,47,70,aloud,blue,699.6180385999614,None,None,699.6180385999614,None,,,,,,,,,,,,,,,,,,,,,,,,,,,,,,,,,,,35 Aloud,001,2022_Aug_30_1126,ProdSingRedoBetween,2021.2.3,59.95232591034925,
70,0,70,0,,,,,,,,,,,,,,,,,,,,,,,,,,704.1371273999684,None,beauty,8,71,aloud,yellow,702.1227906999993,None,None,702.1227906999993,None,,,,,,,,,,,,,,,,,,,,,,,,,,,,,,,,,,,35 Aloud,001,2022_Aug_30_1126,ProdSingRedoBetween,2021.2.3,59.95232591034925,
71,0,71,0,,,,,,,,,,,,,,,,,,,,,,,,,,706.6393547999905,None,household,31,72,aloud,blue,704.6374118999811,None,None,704.6374118999811,None,,,,,,,,,,,,,,,,,,,,,,,,,,,,,,,,,,,35 Aloud,001,2022_Aug_30_1126,ProdSingRedoBetween,2021.2.3,59.95232591034925,
72,0,72,0,,,,,,,,,,,,,,,,,,,,,,,,,,709.141865899961,None,light,18,73,aloud,yellow,707.1399229999515,None,None,707.1399229999515,None,,,,,,,,,,,,,,,,,,,,,,,,,,,,,,,,,,,35 Aloud,001,2022_Aug_30_1126,ProdSingRedoBetween,2021.2.3,59.95232591034925,
73,0,73,0,,,,,,,,,,,,,,,,,,,,,,,,,,711.6444615999935,None,plane,48,74,aloud,blue,709.6433855000068,None,None,709.6433855000068,None,,,,,,,,,,,,,,,,,,,,,,,,,,,,,,,,,,,35 Aloud,001,2022_Aug_30_1126,ProdSingRedoBetween,2021.2.3,59.95232591034925,
74,0,74,0,,,,,,,,,,,,,,,,,,,,,,,,,,714.1635867999867,None,listen,3,75,aloud,yellow,712.1521650999784,None,None,712.1521650999784,None,,,,,,,,,,,,,,,,,,,,,,,,,,,,,,,,,,,35 Aloud,001,2022_Aug_30_1126,ProdSingRedoBetween,2021.2.3,59.95232591034925,
75,0,75,0,,,,,,,,,,,,,,,,,,,,,,,,,,716.66608299996,None,drink,49,76,aloud,blue,714.6641211999813,None,None,714.6641211999813,None,,,,,,,,,,,,,,,,,,,,,,,,,,,,,,,,,,,35 Aloud,001,2022_Aug_30_1126,ProdSingRedoBetween,2021.2.3,59.95232591034925,
76,0,76,0,,,,,,,,,,,,,,,,,,,,,,,,,,719.1685568999965,None,stranger,0,77,aloud,yellow,717.1665631000069,None,None,717.1665631000069,None,,,,,,,,,,,,,,,,,,,,,,,,,,,,,,,,,,,35 Aloud,001,2022_Aug_30_1126,ProdSingRedoBetween,2021.2.3,59.95232591034925,
77,0,77,0,,,,,,,,,,,,,,,,,,,,,,,,,,721.6710810000077,None,hearing,39,78,aloud,blue,719.6691715999623,None,None,719.6691715999623,None,,,,,,,,,,,,,,,,,,,,,,,,,,,,,,,,,,,35 Aloud,001,2022_Aug_30_1126,ProdSingRedoBetween,2021.2.3,59.95232591034925,
78,0,78,0,,,,,,,,,,,,,,,,,,,,,,,,,,724.190130700008,None,detective,66,79,aloud,red,722.1783192000003,None,None,722.1783192000003,None,,,,,,,,,,,,,,,,,,,,,,,,,,,,,,,,,,,35 Aloud,001,2022_Aug_30_1126,ProdSingRedoBetween,2021.2.3,59.95232591034925,
79,0,79,0,,,,,,,,,,,,,,,,,,,,,,,,,,726.6925062999944,None,impact,30,80,aloud,blue,724.6905566999922,None,None,724.6905566999922,None,,,,,,,,,,,,,,,,,,,,,,,,,,,,,,,,,,,35 Aloud,001,2022_Aug_30_1126,ProdSingRedoBetween,2021.2.3,59.95232591034925,
80,0,80,0,,,,,,,,,,,,,,,,,,,,,,,,,,729.1954108999926,None,appeal,86,81,aloud,red,727.193794199964,None,None,727.193794199964,None,,,,,,,,,,,,,,,,,,,,,,,,,,,,,,,,,,,35 Aloud,001,2022_Aug_30_1126,ProdSingRedoBetween,2021.2.3,59.95232591034925,
81,0,81,0,,,,,,,,,,,,,,,,,,,,,,,,,,731.7143882999662,None,equipment,5,82,aloud,yellow,729.7047942999634,None,None,729.7047942999634,None,,,,,,,,,,,,,,,,,,,,,,,,,,,,,,,,,,,35 Aloud,001,2022_Aug_30_1126,ProdSingRedoBetween,2021.2.3,59.95232591034925,
82,0,82,0,,,,,,,,,,,,,,,,,,,,,,,,,,734.2169815999805,None,strain,81,83,aloud,red,732.2172307999572,None,None,732.2172307999572,None,,,,,,,,,,,,,,,,,,,,,,,,,,,,,,,,,,,35 Aloud,001,2022_Aug_30_1126,ProdSingRedoBetween,2021.2.3,59.95232591034925,
83,0,83,0,,,,,,,,,,,,,,,,,,,,,,,,,,736.7193363999831,None,estate,35,84,aloud,blue,734.7174396999762,None,None,734.7174396999762,None,,,,,,,,,,,,,,,,,,,,,,,,,,,,,,,,,,,35 Aloud,001,2022_Aug_30_1126,ProdSingRedoBetween,2021.2.3,59.95232591034925,
84,0,84,0,,,,,,,,,,,,,,,,,,,,,,,,,,739.2216598999803,None,point,24,85,aloud,yellow,737.2199702999787,None,None,737.2199702999787,None,,,,,,,,,,,,,,,,,,,,,,,,,,,,,,,,,,,35 Aloud,001,2022_Aug_30_1126,ProdSingRedoBetween,2021.2.3,59.95232591034925,
85,0,85,0,,,,,,,,,,,,,,,,,,,,,,,,,,741.7245456999517,None,skill,69,86,aloud,red,739.7222473999718,None,None,739.7222473999718,None,,,,,,,,,,,,,,,,,,,,,,,,,,,,,,,,,,,35 Aloud,001,2022_Aug_30_1126,ProdSingRedoBetween,2021.2.3,59.95232591034925,
86,0,86,0,,,,,,,,,,,,,,,,,,,,,,,,,,744.2436120999628,None,congress,52,87,aloud,blue,742.2309052000055,None,None,742.2309052000055,None,,,,,,,,,,,,,,,,,,,,,,,,,,,,,,,,,,,35 Aloud,001,2022_Aug_30_1126,ProdSingRedoBetween,2021.2.3,59.95232591034925,
87,0,87,0,,,,,,,,,,,,,,,,,,,,,,,,,,746.7460077999858,None,partner,68,88,aloud,red,744.7447697999887,None,None,744.7447697999887,None,,,,,,,,,,,,,,,,,,,,,,,,,,,,,,,,,,,35 Aloud,001,2022_Aug_30_1126,ProdSingRedoBetween,2021.2.3,59.95232591034925,
88,0,88,0,,,,,,,,,,,,,,,,,,,,,,,,,,749.2485997999902,None,direction,43,89,aloud,blue,747.2466075999546,None,None,747.2466075999546,None,,,,,,,,,,,,,,,,,,,,,,,,,,,,,,,,,,,35 Aloud,001,2022_Aug_30_1126,ProdSingRedoBetween,2021.2.3,59.95232591034925,
89,0,89,0,,,,,,,,,,,,,,,,,,,,,,,,,,751.7677527999622,None,audience,34,90,aloud,blue,749.755357099988,None,None,749.755357099988,None,,,,,,,,,,,,,,,,,,,,,,,,,,,,,,,,,,,35 Aloud,001,2022_Aug_30_1126,ProdSingRedoBetween,2021.2.3,59.95232591034925,
,,,,,,,,,,,,,,,,,,,,,,,,,,,,,,,,,,,,,,,,,752.2685736999847,None,k,60.37626499996986,752.2685736999847,None,,,,,,,,,,,,,,,,,,,,,,,,,,,,,35 Aloud,001,2022_Aug_30_1126,ProdSingRedoBetween,2021.2.3,59.95232591034925,
,,,,0,0,0,0,,,,,,,,,,,,,,,,,,,,,,819.7855354999774,None,,,,,,,,,,,,,,,,,state,45,1,aloud,old,blue,813.1783475999837,None,813.1783475999837,None,6,4.282510100048967,813.1783475999837,None,4.282510100048967,817.4873387999833,None,818.0007428999525,None,818.0007428999525,None,r,1.7560305999941193,818.0007428999525,None,1.7560305999941193,,,35 Aloud,001,2022_Aug_30_1126,ProdSingRedoBetween,2021.2.3,59.95232591034925,
,,,,1,0,1,0,,,,,,,,,,,,,,,,,,,,,,825.4412620000076,None,,,,,,,,,,,,,,,,,minute,156,2,aloud,new,null,820.2893555999617,None,820.2893555999617,None,1,2.891422100015916,820.2893555999617,None,2.891422100015916,823.2066692999797,None,823.710229499964,None,823.710229499964,None,n,1.7026091999723576,823.710229499964,None,1.7026091999723576,,,35 Aloud,001,2022_Aug_30_1126,ProdSingRedoBetween,2021.2.3,59.95232591034925,
,,,,2,0,2,0,,,,,,,,,,,,,,,,,,,,,,830.2627416999894,None,,,,,,,,,,,,,,,,,beauty,8,3,aloud,old,yellow,825.9514956999919,None,825.9514956999919,None,6,2.205366400012281,825.9514956999919,None,2.205366400012281,828.1785292999703,None,828.6815274999826,None,828.6815274999826,None,r,1.5553002000087872,828.6815274999826,None,1.5553002000087872,,,35 Aloud,001,2022_Aug_30_1126,ProdSingRedoBetween,2021.2.3,59.95232591034925,
,,,,3,0,3,0,,,,,,,,,,,,,,,,,,,,,,835.1009194999933,None,,,,,,,,,,,,,,,,,comedy,115,4,aloud,new,null,830.7710901999963,None,830.7710901999963,None,1,2.369846499990672,830.7710901999963,None,2.369846499990672,833.1782602999592,None,833.6830415999866,None,833.6830415999866,None,n,1.394019900006242,833.6830415999866,None,1.394019900006242,,,35 Aloud,001,2022_Aug_30_1126,ProdSingRedoBetween,2021.2.3,59.95232591034925,
,,,,4,0,4,0,,,,,,,,,,,,,,,,,,,,,,838.7712333999807,None,,,,,,,,,,,,,,,,,people,29,5,aloud,old,blue,835.6062168999924,None,835.6062168999924,None,1,1.5986665000091307,835.6062168999924,None,1.5986665000091307,837.2363306999905,None,837.7370124000008,None,837.7370124000008,None,n,1.0119855999946594,837.7370124000008,None,1.0119855999946594,,,35 Aloud,001,2022_Aug_30_1126,ProdSingRedoBetween,2021.2.3,59.95232591034925,
,,,,5,0,5,0,,,,,,,,,,,,,,,,,,,,,,846.3955663999659,None,,,,,,,,,,,,,,,,,country,20,6,aloud,old,yellow,839.2794007000048,None,839.2794007000048,None,1,4.581292500020936,839.2794007000048,None,4.581292500020936,843.876252099988,None,844.3833155999891,None,844.3833155999891,None,n,1.981519200024195,844.3833155999891,None,1.981519200024195,,,35 Aloud,001,2022_Aug_30_1126,ProdSingRedoBetween,2021.2.3,59.95232591034925,
,,,,6,0,6,0,,,,,,,,,,,,,,,,,,,,,,856.5055917999707,None,,,,,,,,,,,,,,,,,drove,143,7,aloud,new,null,846.8983513999847,None,846.8983513999847,None,1,6.47452239994891,846.8983513999847,None,6.47452239994891,853.4034934999654,None,853.9031447999878,None,853.9031447999878,None,n,2.581683600030374,853.9031447999878,None,2.581683600030374,,,35 Aloud,001,2022_Aug_30_1126,ProdSingRedoBetween,2021.2.3,59.95232591034925,
,,,,7,0,7,0,,,,,,,,,,,,,,,,,,,,,,861.2463739999803,None,,,,,,,,,,,,,,,,,express,131,8,aloud,new,null,857.0162565999781,None,857.0162565999781,None,1,2.8284997000009753,857.0162565999781,None,2.8284997000009753,859.8805509999511,None,860.3941010999843,None,860.3941010999843,None,n,0.818898800003808,860.3941010999843,None,0.818898800003808,,,35 Aloud,001,2022_Aug_30_1126,ProdSingRedoBetween,2021.2.3,59.95232591034925,
,,,,8,0,8,0,,,,,,,,,,,,,,,,,,,,,,863.8174646999687,None,,,,,,,,,,,,,,,,,season,98,9,aloud,new,null,861.763163399999,None,861.763163399999,None,1,1.457775299961213,861.763163399999,None,1.457775299961213,863.2564119999879,None,863.7659790999605,None,863.7659790999605,None,n,0.023125600011553615,863.7659790999605,None,0.023125600011553615,,,35 Aloud,001,2022_Aug_30_1126,ProdSingRedoBetween,2021.2.3,59.95232591034925,
,,,,9,0,9,0,,,,,,,,,,,,,,,,,,,,,,868.6510947999777,None,,,,,,,,,,,,,,,,,column,17,10,aloud,old,yellow,864.3348961999873,None,864.3348961999873,None,6,1.8779094000346959,864.3348961999873,None,1.8779094000346959,866.2321279000025,None,866.7327076999936,None,866.7327076999936,None,r,1.8961357000516728,866.7327076999936,None,1.8961357000516728,,,35 Aloud,001,2022_Aug_30_1126,ProdSingRedoBetween,2021.2.3,59.95232591034925,
,,,,10,0,10,0,,,,,,,,,,,,,,,,,,,,,,875.7582447999739,None,,,,,,,,,,,,,,,,,theme,83,11,aloud,old,red,869.1519496999681,None,869.1519496999681,None,1,4.508888200041838,869.1519496999681,None,4.508888200041838,873.6900735999807,None,874.192925499985,None,874.192925499985,None,n,1.5398906000191346,874.192925499985,None,1.5398906000191346,,,35 Aloud,001,2022_Aug_30_1126,ProdSingRedoBetween,2021.2.3,59.95232591034925,
,,,,11,0,11,0,,,,,,,,,,,,,,,,,,,,,,881.165574099985,None,,,,,,,,,,,,,,,,,discovery,9,12,aloud,old,yellow,876.2689743000083,None,876.2689743000083,None,1,3.3278206999530084,876.2689743000083,None,3.3278206999530084,879.6158571999986,None,880.129382199957,None,880.129382199957,None,n,1.0114713000366464,880.129382199957,None,1.0114713000366464,,,35 Aloud,001,2022_Aug_30_1126,ProdSingRedoBetween,2021.2.3,59.95232591034925,
,,,,12,0,12,0,,,,,,,,,,,,,,,,,,,,,,884.2666977999615,None,,,,,,,,,,,,,,,,,rural,137,13,aloud,new,null,881.6827689000056,None,881.6827689000056,None,1,1.7380400999682024,881.6827689000056,None,1.7380400999682024,883.4493271999527,None,883.9529121999512,None,883.9529121999512,None,n,0.28388430003542453,883.9529121999512,None,0.28388430003542453,,,35 Aloud,001,2022_Aug_30_1126,ProdSingRedoBetween,2021.2.3,59.95232591034925,
,,,,13,0,13,0,,,,,,,,,,,,,,,,,,,,,,887.6200256999582,None,,,,,,,,,,,,,,,,,clean,135,14,aloud,new,null,884.7718974999734,None,884.7718974999734,None,1,1.6487431999994442,884.7718974999734,None,1.6487431999994442,886.4539854999748,None,886.9716920999927,None,886.9716920999927,None,n,0.6251221999991685,886.9716920999927,None,0.6251221999991685,,,35 Aloud,001,2022_Aug_30_1126,ProdSingRedoBetween,2021.2.3,59.95232591034925,
,,,,14,0,14,0,,,,,,,,,,,,,,,,,,,,,,890.5898196999915,None,,,,,,,,,,,,,,,,,majority,97,15,aloud,new,null,888.1352185999858,None,888.1352185999858,None,1,1.5734883000259288,888.1352185999858,None,1.5734883000259288,889.7445009999792,None,890.2560526999878,None,890.2560526999878,None,n,0.3167351000010967,890.2560526999878,None,0.3167351000010967,,,35 Aloud,001,2022_Aug_30_1126,ProdSingRedoBetween,2021.2.3,59.95232591034925,
,,,,15,0,15,0,,,,,,,,,,,,,,,,,,,,,,893.9930105999811,None,,,,,,,,,,,,,,,,,agency,160,16,aloud,new,null,891.0987620999804,None,891.0987620999804,None,1,2.2499576000263914,891.0987620999804,None,2.2499576000263914,893.37846789998,None,893.8941357999574,None,893.8941357999574,None,n,0.07868149998830631,893.8941357999574,None,0.07868149998830631,,,35 Aloud,001,2022_Aug_30_1126,ProdSingRedoBetween,2021.2.3,59.95232591034925,
,,,,16,0,16,0,,,,,,,,,,,,,,,,,,,,,,896.8123083999963,None,,,,,,,,,,,,,,,,,design,85,17,aloud,old,red,894.5011461999966,None,894.5011461999966,None,1,1.7356578000471927,894.5011461999966,None,1.7356578000471927,896.2632250000024,None,896.7627416999894,None,896.7627416999894,None,n,0.01795860001584515,896.7627416999894,None,0.01795860001584515,,,35 Aloud,001,2022_Aug_30_1126,ProdSingRedoBetween,2021.2.3,59.95232591034925,
,,,,17,0,17,0,,,,,,,,,,,,,,,,,,,,,,901.2446830999688,None,,,,,,,,,,,,,,,,,department,127,18,aloud,new,null,897.3230922999792,None,897.3230922999792,None,1,3.177612300030887,897.3230922999792,None,3.177612300030887,900.5198070000042,None,901.0386235999758,None,901.0386235999758,None,n,0.1665618999977596,901.0386235999758,None,0.1665618999977596,,,35 Aloud,001,2022_Aug_30_1126,ProdSingRedoBetween,2021.2.3,59.95232591034925,
,,,,18,0,18,0,,,,,,,,,,,,,,,,,,,,,,904.9539588000043,None,,,,,,,,,,,,,,,,,private,4,19,aloud,old,yellow,901.7642118000076,None,901.7642118000076,None,6,1.632572100032121,901.7642118000076,None,1.632572100032121,903.4204825999914,None,903.9197916999692,None,903.9197916999692,None,r,1.0129988000262529,903.9197916999692,None,1.0129988000262529,,,35 Aloud,001,2022_Aug_30_1126,ProdSingRedoBetween,2021.2.3,59.95232591034925,
,,,,19,0,19,0,,,,,,,,,,,,,,,,,,,,,,908.14140209998,None,,,,,,,,,,,,,,,,,strain,81,20,aloud,old,red,905.4574610999553,None,905.4574610999553,None,6,1.9392339999903925,905.4574610999553,None,1.9392339999903925,907.426246899995,None,907.9403281999985,None,907.9403281999985,None,r,0.17634559998987243,907.9403281999985,None,0.17634559998987243,,,35 Aloud,001,2022_Aug_30_1126,ProdSingRedoBetween,2021.2.3,59.95232591034925,
,,,,20,0,20,0,,,,,,,,,,,,,,,,,,,,,,911.0267168999999,None,,,,,,,,,,,,,,,,,straight,150,21,aloud,new,null,908.6503471999895,None,908.6503471999895,None,1,1.658359399996698,908.6503471999895,None,1.658359399996698,910.3271089000045,None,910.8305732999579,None,910.8305732999579,None,n,0.1662108000018634,910.8305732999579,None,0.1662108000018634,,,35 Aloud,001,2022_Aug_30_1126,ProdSingRedoBetween,2021.2.3,59.95232591034925,
,,,,21,0,21,0,,,,,,,,,,,,,,,,,,,,,,913.4457985999761,None,,,,,,,,,,,,,,,,,dozen,102,22,aloud,new,null,911.5441347999731,None,911.5441347999731,None,1,1.2606454999768175,911.5441347999731,None,1.2606454999768175,912.8316043000086,None,913.3479981999844,None,913.3479981999844,None,n,0.0807689999928698,913.3479981999844,None,0.0807689999928698,,,35 Aloud,001,2022_Aug_30_1126,ProdSingRedoBetween,2021.2.3,59.95232591034925,
,,,,22,0,22,0,,,,,,,,,,,,,,,,,,,,,,915.7814677999704,None,,,,,,,,,,,,,,,,,death,146,23,aloud,new,null,913.9486938999617,None,913.9486938999617,None,1,1.264128000009805,913.9486938999617,None,1.264128000009805,915.2320658999961,None,915.7339285999769,None,915.7339285999769,None,n,0.0308530000038445,915.7339285999769,None,0.0308530000038445,,,35 Aloud,001,2022_Aug_30_1126,ProdSingRedoBetween,2021.2.3,59.95232591034925,
,,,,23,0,23,0,,,,,,,,,,,,,,,,,,,,,,921.2204977999791,None,,,,,,,,,,,,,,,,,motion,60,24,aloud,old,red,916.2853309999919,None,916.2853309999919,None,3,3.2553491999860853,916.2853309999919,None,3.2553491999860853,919.573213799973,None,920.0858884999761,None,920.0858884999761,None,f,1.1188971999799833,920.0858884999761,None,1.1188971999799833,,,35 Aloud,001,2022_Aug_30_1126,ProdSingRedoBetween,2021.2.3,59.95232591034925,
,,,,24,0,24,0,,,,,,,,,,,,,,,,,,,,,,926.4920864999876,None,,,,,,,,,,,,,,,,,institute,84,25,aloud,old,red,921.7206192999729,None,921.7206192999729,None,6,3.3161418000236154,921.7206192999729,None,3.3161418000236154,925.0616414999822,None,925.5748025999637,None,925.5748025999637,None,r,0.8941648000036366,925.5748025999637,None,0.8941648000036366,,,35 Aloud,001,2022_Aug_30_1126,ProdSingRedoBetween,2021.2.3,59.95232591034925,
,,,,25,0,25,0,,,,,,,,,,,,,,,,,,,,,,929.812100399984,None,,,,,,,,,,,,,,,,,medicine,165,26,aloud,new,null,926.9998500999645,None,926.9998500999645,None,1,1.9411487000179477,926.9998500999645,None,1.9411487000179477,928.9688639999949,None,929.4821781999781,None,929.4821781999781,None,n,0.3066170000238344,929.4821781999781,None,0.3066170000238344,,,35 Aloud,001,2022_Aug_30_1126,ProdSingRedoBetween,2021.2.3,59.95232591034925,
,,,,26,0,26,0,,,,,,,,,,,,,,,,,,,,,,932.4647823999985,None,,,,,,,,,,,,,,,,,conference,57,27,aloud,old,blue,930.3139561999706,None,930.3139561999706,None,1,1.5389091999968514,930.3139561999706,None,1.5389091999968514,931.8847130999784,None,932.3981185999583,None,932.3981185999583,None,n,0.038651500013656914,932.3981185999583,None,0.038651500013656914,,,35 Aloud,001,2022_Aug_30_1126,ProdSingRedoBetween,2021.2.3,59.95232591034925,
,,,,27,0,27,0,,,,,,,,,,,,,,,,,,,,,,935.634455499996,None,,,,,,,,,,,,,,,,,danger,13,28,aloud,old,yellow,932.971321799967,None,932.971321799967,None,6,1.6013729000114836,932.971321799967,None,1.6013729000114836,934.6002346999594,None,935.1008069999516,None,935.1008069999516,None,r,0.5039146000053734,935.1008069999516,None,0.5039146000053734,,,35 Aloud,001,2022_Aug_30_1126,ProdSingRedoBetween,2021.2.3,59.95232591034925,
,,,,28,0,28,0,,,,,,,,,,,,,,,,,,,,,,943.4757722999784,None,,,,,,,,,,,,,,,,,property,80,29,aloud,old,red,936.1419692999916,None,936.1419692999916,None,6,5.574809499958064,936.1419692999916,None,5.574809499958064,941.7447454999783,None,942.2579398999806,None,942.2579398999806,None,r,1.1948165000067092,942.2579398999806,None,1.1948165000067092,,,35 Aloud,001,2022_Aug_30_1126,ProdSingRedoBetween,2021.2.3,59.95232591034925,
,,,,29,0,29,0,,,,,,,,,,,,,,,,,,,,,,947.9969333999907,None,,,,,,,,,,,,,,,,,waste,72,30,aloud,old,red,943.9841891999822,None,943.9841891999822,None,6,2.5564296999946237,943.9841891999822,None,2.5564296999946237,946.5666768999654,None,947.0794690999901,None,947.0794690999901,None,r,0.9011177000356838,947.0794690999901,None,0.9011177000356838,,,35 Aloud,001,2022_Aug_30_1126,ProdSingRedoBetween,2021.2.3,59.95232591034925,
,,,,30,0,30,0,,,,,,,,,,,,,,,,,,,,,,953.1018259999692,None,,,,,,,,,,,,,,,,,provision,27,31,aloud,old,yellow,948.5033710999996,None,948.5033710999996,None,1,2.9573789999703877,948.5033710999996,None,2.9573789999703877,951.4852552000084,None,951.9907018999802,None,951.9907018999802,None,n,1.0859879999770783,951.9907018999802,None,1.0859879999770783,,,35 Aloud,001,2022_Aug_30_1126,ProdSingRedoBetween,2021.2.3,59.95232591034925,
,,,,31,0,31,0,,,,,,,,,,,,,,,,,,,,,,958.1919201999553,None,,,,,,,,,,,,,,,,,series,121,32,aloud,new,null,953.6131146999542,None,953.6131146999542,None,1,3.663735900016036,953.6131146999542,None,3.663735900016036,957.3136066999868,None,957.8297315000091,None,957.8297315000091,None,n,0.3351008000317961,957.8297315000091,None,0.3351008000317961,,,35 Aloud,001,2022_Aug_30_1126,ProdSingRedoBetween,2021.2.3,59.95232591034925,
,,,,32,0,32,0,,,,,,,,,,,,,,,,,,,,,,961.560448299977,None,,,,,,,,,,,,,,,,,junior,23,33,aloud,old,yellow,958.6937849999522,None,958.6937849999522,None,6,1.3911271000397392,958.6937849999522,None,1.3911271000397392,960.1138688999927,None,960.6290155999595,None,960.6290155999595,None,r,0.9117277999757789,960.6290155999595,None,0.9117277999757789,,,35 Aloud,001,2022_Aug_30_1126,ProdSingRedoBetween,2021.2.3,59.95232591034925,
,,,,33,0,33,0,,,,,,,,,,,,,,,,,,,,,,964.6969301999779,None,,,,,,,,,,,,,,,,,working,82,34,aloud,old,red,962.0823683000053,None,962.0823683000053,None,1,1.738350800005719,962.0823683000053,None,1.738350800005719,963.8507762000081,None,964.3661947000073,None,964.3661947000073,None,n,0.3107033999986015,964.3661947000073,None,0.3107033999986015,,,35 Aloud,001,2022_Aug_30_1126,ProdSingRedoBetween,2021.2.3,59.95232591034925,
,,,,34,0,34,0,,,,,,,,,,,,,,,,,,,,,,967.7666811999516,None,,,,,,,,,,,,,,,,,trend,56,35,aloud,old,blue,965.2056487000082,None,965.2056487000082,None,1,1.7191901999758556,965.2056487000082,None,1.7191901999758556,966.9493006999837,None,967.4523148000007,None,967.4523148000007,None,n,0.2963892000261694,967.4523148000007,None,0.2963892000261694,,,35 Aloud,001,2022_Aug_30_1126,ProdSingRedoBetween,2021.2.3,59.95232591034925,
,,,,35,0,35,0,,,,,,,,,,,,,,,,,,,,,,970.4523889999837,None,,,,,,,,,,,,,,,,,match,151,36,aloud,new,null,968.2739585999516,None,968.2739585999516,None,1,1.5786360999918543,968.2739585999516,None,1.5786360999918543,969.8782992999768,None,970.3861048999825,None,970.3861048999825,None,n,0.04259190004086122,970.3861048999825,None,0.04259190004086122,,,35 Aloud,001,2022_Aug_30_1126,ProdSingRedoBetween,2021.2.3,59.95232591034925,
,,,,36,0,36,0,,,,,,,,,,,,,,,,,,,,,,972.8550538999843,None,,,,,,,,,,,,,,,,,turkey,161,37,aloud,new,null,970.9537335999776,None,970.9537335999776,None,1,1.2591358999488875,970.9537335999776,None,1.2591358999488875,972.2396996999742,None,972.7636690000072,None,972.7636690000072,None,n,0.06512440001824871,972.7636690000072,None,0.06512440001824871,,,35 Aloud,001,2022_Aug_30_1126,ProdSingRedoBetween,2021.2.3,59.95232591034925,
,,,,37,0,37,0,,,,,,,,,,,,,,,,,,,,,,975.5916431999649,None,,,,,,,,,,,,,,,,,route,124,38,aloud,new,null,973.3630547999637,None,973.3630547999637,None,1,1.497649100027047,973.3630547999637,None,1.497649100027047,974.8911082999548,None,975.3910803999752,None,975.3910803999752,None,n,0.17368720000376925,975.3910803999752,None,0.17368720000376925,,,35 Aloud,001,2022_Aug_30_1126,ProdSingRedoBetween,2021.2.3,59.95232591034925,
,,,,38,0,38,0,,,,,,,,,,,,,,,,,,,,,,977.8434756000061,None,,,,,,,,,,,,,,,,,principal,130,39,aloud,new,null,976.1050174999982,None,976.1050174999982,None,1,1.1396602999884635,976.1050174999982,None,1.1396602999884635,977.2777025999967,None,977.7934786999831,None,977.7934786999831,None,n,0.01920290000271052,977.7934786999831,None,0.01920290000271052,,,35 Aloud,001,2022_Aug_30_1126,ProdSingRedoBetween,2021.2.3,59.95232591034925,
,,,,39,0,39,0,,,,,,,,,,,,,,,,,,,,,,981.0465306999977,None,,,,,,,,,,,,,,,,,universal,88,40,aloud,old,red,978.3530558999628,None,978.3530558999628,None,6,1.5155813000164926,978.3530558999628,None,1.5155813000164926,979.9014591999585,None,980.4128616999951,None,980.4128616999951,None,r,0.607789000030607,980.4128616999951,None,0.607789000030607,,,35 Aloud,001,2022_Aug_30_1126,ProdSingRedoBetween,2021.2.3,59.95232591034925,
,,,,40,0,40,0,,,,,,,,,,,,,,,,,,,,,,984.7846265999833,None,,,,,,,,,,,,,,,,,fellow,140,41,aloud,new,null,981.5534070999711,None,981.5534070999711,None,1,1.971325499995146,981.5534070999711,None,1.971325499995146,983.5524860000005,None,984.0661256999592,None,984.0661256999592,None,n,0.6986692000064068,984.0661256999592,None,0.6986692000064068,,,35 Aloud,001,2022_Aug_30_1126,ProdSingRedoBetween,2021.2.3,59.95232591034925,
,,,,41,0,41,0,,,,,,,,,,,,,,,,,,,,,,987.2027324999799,None,,,,,,,,,,,,,,,,,suggestion,125,42,aloud,new,null,985.287762699998,None,985.287762699998,None,1,1.3329673999687657,985.287762699998,None,1.3329673999687657,986.6389937999775,None,987.1528364999685,None,987.1528364999685,None,n,0.027855299995280802,987.1528364999685,None,0.027855299995280802,,,35 Aloud,001,2022_Aug_30_1126,ProdSingRedoBetween,2021.2.3,59.95232591034925,
,,,,42,0,42,0,,,,,,,,,,,,,,,,,,,,,,989.7386645000079,None,,,,,,,,,,,,,,,,,hearing,39,43,aloud,old,blue,987.7072601999971,None,987.7072601999971,None,1,1.2016515000141226,987.7072601999971,None,1.2016515000141226,988.9425415999722,None,989.4550831000088,None,989.4550831000088,None,n,0.2616624999791384,989.4550831000088,None,0.2616624999791384,,,35 Aloud,001,2022_Aug_30_1126,ProdSingRedoBetween,2021.2.3,59.95232591034925,
,,,,43,0,43,0,,,,,,,,,,,,,,,,,,,,,,993.8592115999782,None,,,,,,,,,,,,,,,,,raise,71,44,aloud,old,red,990.248529799981,None,990.248529799981,None,1,1.116358199971728,990.248529799981,None,1.116358199971728,991.3902904999559,None,991.8908970999764,None,991.8908970999764,None,n,1.9457374000339769,991.8908970999764,None,1.9457374000339769,,,35 Aloud,001,2022_Aug_30_1126,ProdSingRedoBetween,2021.2.3,59.95232591034925,
,,,,44,0,44,0,,,,,,,,,,,,,,,,,,,,,,996.4120093999663,None,,,,,,,,,,,,,,,,,command,136,45,aloud,new,null,994.3599501999561,None,994.3599501999561,None,1,1.22875790001126,994.3599501999561,None,1.22875790001126,995.612159799959,None,996.1155931999674,None,996.1155931999674,None,n,0.26521039998624474,996.1155931999674,None,0.26521039998624474,,,35 Aloud,001,2022_Aug_30_1126,ProdSingRedoBetween,2021.2.3,59.95232591034925,
,,,,45,0,45,0,,,,,,,,,,,,,,,,,,,,,,999.1823564000078,None,,,,,,,,,,,,,,,,,mechanical,51,46,aloud,old,blue,996.9244741000002,None,996.9244741000002,None,6,1.6802661000401713,996.9244741000002,None,1.6802661000401713,998.636507499963,None,999.1478842999786,None,999.1478842999786,None,r,0.01679570000851527,999.1478842999786,None,0.01679570000851527,,,35 Aloud,001,2022_Aug_30_1126,ProdSingRedoBetween,2021.2.3,59.95232591034925,
,,,,46,0,46,0,,,,,,,,,,,,,,,,,,,,,,1002.6514747999609,None,,,,,,,,,,,,,,,,,budget,61,47,aloud,old,red,999.6853954999824,None,999.6853954999824,None,1,1.8392822000314482,999.6853954999824,None,1.8392822000314482,1001.5503237000084,None,1002.0573200999643,None,1002.0573200999643,None,r,0.5633407999994233,1002.0573200999643,None,0.5633407999994233,,,35 Aloud,001,2022_Aug_30_1126,ProdSingRedoBetween,2021.2.3,59.95232591034925,
,,,,47,0,47,0,,,,,,,,,,,,,,,,,,,,,,1007.4229121999815,None,,,,,,,,,,,,,,,,,sweet,91,48,aloud,new,null,1003.1612637999933,None,1003.1612637999933,None,1,1.339434599969536,1003.1612637999933,None,1.339434599969536,1004.5212853999692,None,1005.0227743999567,None,1005.0227743999567,None,n,2.381808699981775,1005.0227743999567,None,2.381808699981775,,,35 Aloud,001,2022_Aug_30_1126,ProdSingRedoBetween,2021.2.3,59.95232591034925,
,,,,48,0,48,0,,,,,,,,,,,,,,,,,,,,,,1012.7282189999823,None,,,,,,,,,,,,,,,,,history,177,49,aloud,new,null,1007.9262165999971,None,1007.9262165999971,None,1,3.4546318000066094,1007.9262165999971,None,3.4546318000066094,1011.4139511999674,None,1011.9329375999514,None,1011.9329375999514,None,n,0.7757741000386886,1011.9329375999514,None,0.7757741000386886,,,35 Aloud,001,2022_Aug_30_1126,ProdSingRedoBetween,2021.2.3,59.95232591034925,
,,,,49,0,49,0,,,,,,,,,,,,,,,,,,,,,,1016.0482154999627,None,,,,,,,,,,,,,,,,,phrase,116,50,aloud,new,null,1013.2378410999663,None,1013.2378410999663,None,1,1.5188315999694169,1013.2378410999663,None,1.5188315999694169,1014.7813486999949,None,1015.2808422999806,None,1015.2808422999806,None,n,0.7478791999747045,1015.2808422999806,None,0.7478791999747045,,,35 Aloud,001,2022_Aug_30_1126,ProdSingRedoBetween,2021.2.3,59.95232591034925,
,,,,50,0,50,0,,,,,,,,,,,,,,,,,,,,,,1018.7842440999812,None,,,,,,,,,,,,,,,,,tragedy,65,51,aloud,old,red,1016.5583795999992,None,1016.5583795999992,None,6,1.478339999972377,1016.5583795999992,None,1.478339999972377,1018.0686761999968,None,1018.5841370999697,None,1018.5841370999697,None,r,0.1805807999917306,1018.5841370999697,None,0.1805807999917306,,,35 Aloud,001,2022_Aug_30_1126,ProdSingRedoBetween,2021.2.3,59.95232591034925,
,,,,51,0,51,0,,,,,,,,,,,,,,,,,,,,,,1022.1544470000081,None,,,,,,,,,,,,,,,,,listen,3,52,aloud,old,yellow,1019.288931499992,None,1019.288931499992,None,1,2.0037052999832667,1019.288931499992,None,2.0037052999832667,1021.3227804999915,None,1021.8445492999745,None,1021.8445492999745,None,n,0.2801537999766879,1021.8445492999745,None,0.2801537999766879,,,35 Aloud,001,2022_Aug_30_1126,ProdSingRedoBetween,2021.2.3,59.95232591034925,
,,,,52,0,52,0,,,,,,,,,,,,,,,,,,,,,,1024.6068011999596,None,,,,,,,,,,,,,,,,,south,117,53,aloud,new,null,1022.6548579999944,None,1022.6548579999944,None,1,1.1898399000056088,1022.6548579999944,None,1.1898399000056088,1023.8792348999996,None,1024.389991999953,None,1024.389991999953,None,n,0.19071029999759048,1024.389991999953,None,0.19071029999759048,,,35 Aloud,001,2022_Aug_30_1126,ProdSingRedoBetween,2021.2.3,59.95232591034925,
,,,,53,0,53,0,,,,,,,,,,,,,,,,,,,,,,1028.6606490999693,None,,,,,,,,,,,,,,,,,store,99,54,aloud,new,null,1025.1072392999777,None,1025.1072392999777,None,1,2.897438499960117,1025.1072392999777,None,2.897438499960117,1028.0280459999922,None,1028.5274641999858,None,1028.5274641999858,None,n,0.10923850000835955,1028.5274641999858,None,0.10923850000835955,,,35 Aloud,001,2022_Aug_30_1126,ProdSingRedoBetween,2021.2.3,59.95232591034925,
,,,,54,0,54,0,,,,,,,,,,,,,,,,,,,,,,1031.2634321000078,None,,,,,,,,,,,,,,,,,weather,176,55,aloud,new,null,1029.1701114999596,None,1029.1701114999596,None,1,1.2425733000272885,1029.1701114999596,None,1.2425733000272885,1030.4303234999534,None,1030.9376012999564,None,1030.9376012999564,None,n,0.2989983999868855,1030.9376012999564,None,0.2989983999868855,,,35 Aloud,001,2022_Aug_30_1126,ProdSingRedoBetween,2021.2.3,59.95232591034925,
,,,,55,0,55,0,,,,,,,,,,,,,,,,,,,,,,1033.915919399995,None,,,,,,,,,,,,,,,,,background,94,56,aloud,new,null,1031.7751376999659,None,1031.7751376999659,None,1,1.4375166000099853,1031.7751376999659,None,1.4375166000099853,1033.2332721999846,None,1033.7325725999544,None,1033.7325725999544,None,n,0.16008810000494123,1033.7325725999544,None,0.16008810000494123,,,35 Aloud,001,2022_Aug_30_1126,ProdSingRedoBetween,2021.2.3,59.95232591034925,
,,,,56,0,56,0,,,,,,,,,,,,,,,,,,,,,,1039.9053141999757,None,,,,,,,,,,,,,,,,,ground,50,57,aloud,old,blue,1034.4189944999525,None,1034.4189944999525,None,6,3.7536482000141405,1034.4189944999525,None,3.7536482000141405,1038.2051103999838,None,1038.7045393000008,None,1038.7045393000008,None,f,1.1720318999723531,1038.7045393000008,None,1.1720318999723531,,,35 Aloud,001,2022_Aug_30_1126,ProdSingRedoBetween,2021.2.3,59.95232591034925,
,,,,57,0,57,0,,,,,,,,,,,,,,,,,,,,,,1042.9583598999889,None,,,,,,,,,,,,,,,,,crowd,112,58,aloud,new,null,1040.4164255000069,None,1040.4164255000069,None,1,1.460219100001268,1040.4164255000069,None,1.460219100001268,1041.908311599982,None,1042.407989099971,None,1042.407989099971,None,n,0.5246920000063255,1042.407989099971,None,0.5246920000063255,,,35 Aloud,001,2022_Aug_30_1126,ProdSingRedoBetween,2021.2.3,59.95232591034925,
,,,,58,0,58,0,,,,,,,,,,,,,,,,,,,,,,1046.280497699976,None,,,,,,,,,,,,,,,,,partner,68,59,aloud,old,red,1043.4634984000004,None,1043.4634984000004,None,1,1.9492113000014797,1043.4634984000004,None,1.9492113000014797,1045.4469867000007,None,1045.966009799973,None,1045.966009799973,None,n,0.2947534999693744,1045.966009799973,None,0.2947534999693744,,,35 Aloud,001,2022_Aug_30_1126,ProdSingRedoBetween,2021.2.3,59.95232591034925,
,,,,59,0,59,0,,,,,,,,,,,,,,,,,,,,,,1049.2646592999808,None,,,,,,,,,,,,,,,,,skill,69,60,aloud,old,red,1046.8054868999752,None,1046.8054868999752,None,6,1.623137200018391,1046.8054868999752,None,1.623137200018391,1048.4482955999556,None,1048.9478765999665,None,1048.9478765999665,None,r,0.28876920003676787,1048.9478765999665,None,0.28876920003676787,,,35 Aloud,001,2022_Aug_30_1126,ProdSingRedoBetween,2021.2.3,59.95232591034925,
,,,,60,0,60,0,,,,,,,,,,,,,,,,,,,,,,1053.6876736999839,None,,,,,,,,,,,,,,,,,opening,126,61,aloud,new,null,1049.7763139999588,None,1049.7763139999588,None,1,3.2283170000300743,1049.7763139999588,None,3.2283170000300743,1053.036795299966,None,1053.556807099958,None,1053.556807099958,None,n,0.1038270000135526,1053.556807099958,None,0.1038270000135526,,,35 Aloud,001,2022_Aug_30_1126,ProdSingRedoBetween,2021.2.3,59.95232591034925,
,,,,61,0,61,0,,,,,,,,,,,,,,,,,,,,,,1056.054614099965,None,,,,,,,,,,,,,,,,,spoke,170,62,aloud,new,null,1054.2049903000006,None,1054.2049903000006,None,1,1.2396304999710992,1054.2049903000006,None,1.2396304999710992,1055.4731588999857,None,1055.9878624999546,None,1055.9878624999546,None,n,0.04876849998254329,1055.9878624999546,None,0.04876849998254329,,,35 Aloud,001,2022_Aug_30_1126,ProdSingRedoBetween,2021.2.3,59.95232591034925,
,,,,62,0,62,0,,,,,,,,,,,,,,,,,,,,,,1058.7076595999533,None,,,,,,,,,,,,,,,,,pressure,111,63,aloud,new,null,1056.56422999996,None,1056.56422999996,None,1,1.2886216000188142,1056.56422999996,None,1.2886216000188142,1057.8806585999555,None,1058.3947047999827,None,1058.3947047999827,None,n,0.2980177000281401,1058.3947047999827,None,0.2980177000281401,,,35 Aloud,001,2022_Aug_30_1126,ProdSingRedoBetween,2021.2.3,59.95232591034925,
,,,,63,0,63,0,,,,,,,,,,,,,,,,,,,,,,1068.7507337999996,None,,,,,,,,,,,,,,,,,rough,41,64,aloud,old,blue,1059.2260230999673,None,1059.2260230999673,None,6,2.8585856999852695,1059.2260230999673,None,2.8585856999852695,1062.1135568000027,None,1062.6327663999982,None,1062.6327663999982,None,r,6.091856500017457,1062.6327663999982,None,6.091856500017457,,,35 Aloud,001,2022_Aug_30_1126,ProdSingRedoBetween,2021.2.3,59.95232591034925,
,,,,64,0,64,0,,,,,,,,,,,,,,,,,,,,,,1077.6263729999773,None,,,,,,,,,,,,,,,,,revolution,106,65,aloud,new,null,1069.2681065999786,None,1069.2681065999786,None,1,6.552499899989925,1069.2681065999786,None,6.552499899989925,1075.8444090999546,None,1076.3597365999594,None,1076.3597365999594,None,n,1.2368866999750026,1076.3597365999594,None,1.2368866999750026,,,35 Aloud,001,2022_Aug_30_1126,ProdSingRedoBetween,2021.2.3,59.95232591034925,
,,,,65,0,65,0,,,,,,,,,,,,,,,,,,,,,,1083.1186929999967,None,,,,,,,,,,,,,,,,,problem,64,66,aloud,old,red,1078.1393842999823,None,1078.1393842999823,None,1,4.121231000055559,1078.1393842999823,None,4.121231000055559,1082.2839454999776,None,1082.7988116999622,None,1082.7988116999622,None,n,0.2940419999649748,1082.7988116999622,None,0.2940419999649748,,,35 Aloud,001,2022_Aug_30_1126,ProdSingRedoBetween,2021.2.3,59.95232591034925,
,,,,66,0,66,0,,,,,,,,,,,,,,,,,,,,,,1085.7010426999768,None,,,,,,,,,,,,,,,,,generation,110,67,aloud,new,null,1083.6351001999574,None,1083.6351001999574,None,1,1.241516700014472,1083.6351001999574,None,1.241516700014472,1084.901176299958,None,1085.4032666999847,None,1085.4032666999847,None,n,0.2734352999832481,1085.4032666999847,None,0.2734352999832481,,,35 Aloud,001,2022_Aug_30_1126,ProdSingRedoBetween,2021.2.3,59.95232591034925,
,,,,67,0,67,0,,,,,,,,,,,,,,,,,,,,,,1089.6063719000085,None,,,,,,,,,,,,,,,,,employment,132,68,aloud,new,null,1086.206798099971,None,1086.206798099971,None,1,1.9497856999514624,1086.206798099971,None,1.9497856999514624,1088.1908739999635,None,1088.7042368999682,None,1088.7042368999682,None,n,0.88450590003049,1088.7042368999682,None,0.88450590003049,,,35 Aloud,001,2022_Aug_30_1126,ProdSingRedoBetween,2021.2.3,59.95232591034925,
,,,,68,0,68,0,,,,,,,,,,,,,,,,,,,,,,1094.960178599984,None,,,,,,,,,,,,,,,,,search,78,69,aloud,old,red,1090.1129204999888,None,1090.1129204999888,None,3,2.891692100034561,1090.1129204999888,None,2.891692100034561,1093.0259190999786,None,1093.5283262999728,None,1093.5283262999728,None,r,1.404200499993749,1093.5283262999728,None,1.404200499993749,,,35 Aloud,001,2022_Aug_30_1126,ProdSingRedoBetween,2021.2.3,59.95232591034925,
,,,,69,0,69,0,,,,,,,,,,,,,,,,,,,,,,1099.6481189999613,None,,,,,,,,,,,,,,,,,nature,59,70,aloud,old,yellow,1095.4609137999942,None,1095.4609137999942,None,2,3.0636387999984436,1095.4609137999942,None,3.0636387999984436,1098.5499464999884,None,1099.0672578999656,None,1099.0672578999656,None,r,0.5532414999906905,1099.0672578999656,None,0.5532414999906905,,,35 Aloud,001,2022_Aug_30_1126,ProdSingRedoBetween,2021.2.3,59.95232591034925,
,,,,70,0,70,0,,,,,,,,,,,,,,,,,,,,,,1105.9212008999893,None,,,,,,,,,,,,,,,,,threat,28,71,aloud,old,yellow,1100.1501610999694,None,1100.1501610999694,None,1,4.302407999988645,1100.1501610999694,None,4.302407999988645,1104.471315199975,None,1104.9767541000037,None,1104.9767541000037,None,n,0.9158245999715291,1104.9767541000037,None,0.9158245999715291,,,35 Aloud,001,2022_Aug_30_1126,ProdSingRedoBetween,2021.2.3,59.95232591034925,
,,,,71,0,71,0,,,,,,,,,,,,,,,,,,,,,,1108.657287799986,None,,,,,,,,,,,,,,,,,quantity,159,72,aloud,new,null,1106.4290993000031,None,1106.4290993000031,None,1,1.6155166000244208,1106.4290993000031,None,1.6155166000244208,1108.0732065999764,None,1108.5740942999837,None,1108.5740942999837,None,n,0.06252109998604283,1108.5740942999837,None,0.06252109998604283,,,35 Aloud,001,2022_Aug_30_1126,ProdSingRedoBetween,2021.2.3,59.95232591034925,
,,,,72,0,72,0,,,,,,,,,,,,,,,,,,,,,,1112.0299779999768,None,,,,,,,,,,,,,,,,,curve,168,73,aloud,new,null,1109.1622596999514,None,1109.1622596999514,None,1,1.2503859999706037,1109.1622596999514,None,1.2503859999706037,1110.4482521999744,None,1110.9596793999663,None,1110.9596793999663,None,n,1.0369557999656536,1110.9596793999663,None,1.0369557999656536,,,35 Aloud,001,2022_Aug_30_1126,ProdSingRedoBetween,2021.2.3,59.95232591034925,
,,,,73,0,73,0,,,,,,,,,,,,,,,,,,,,,,1115.2805956999655,None,,,,,,,,,,,,,,,,,track,63,74,aloud,old,red,1112.555019399966,None,1112.555019399966,None,1,1.8974659999948926,1112.555019399966,None,1.8974659999948926,1114.4806556999683,None,1114.9848444999661,None,1114.9848444999661,None,n,0.26778809999814257,1114.9848444999661,None,0.26778809999814257,,,35 Aloud,001,2022_Aug_30_1126,ProdSingRedoBetween,2021.2.3,59.95232591034925,
,,,,74,0,74,0,,,,,,,,,,,,,,,,,,,,,,1120.0020301999757,None,,,,,,,,,,,,,,,,,appeal,86,75,aloud,old,red,1115.7881916000042,None,1115.7881916000042,None,4,2.720528900041245,1115.7881916000042,None,2.720528900041245,1118.5338444999652,None,1119.034464199969,None,1119.034464199969,None,r,0.9381549999816343,1119.034464199969,None,0.9381549999816343,,,35 Aloud,001,2022_Aug_30_1126,ProdSingRedoBetween,2021.2.3,59.95232591034925,
,,,,75,0,75,0,,,,,,,,,,,,,,,,,,,,,,1125.1924992999993,None,,,,,,,,,,,,,,,,,accident,139,76,aloud,new,null,1120.5050645999727,None,1120.5050645999727,None,1,2.611471200012602,1120.5050645999727,None,2.611471200012602,1123.1384547000052,None,1123.6420538999955,None,1123.6420538999955,None,n,1.5227247000439093,1123.6420538999955,None,1.5227247000439093,,,35 Aloud,001,2022_Aug_30_1126,ProdSingRedoBetween,2021.2.3,59.95232591034925,
,,,,76,0,76,0,,,,,,,,,,,,,,,,,,,,,,1130.1127469000057,None,,,,,,,,,,,,,,,,,angle,74,77,aloud,old,red,1125.7128367999685,None,1125.7128367999685,None,5,3.1398047999828123,1125.7128367999685,None,3.1398047999828123,1128.8791261999868,None,1129.3944888999686,None,1129.3944888999686,None,r,0.6900009000091814,1129.3944888999686,None,0.6900009000091814,,,35 Aloud,001,2022_Aug_30_1126,ProdSingRedoBetween,2021.2.3,59.95232591034925,
,,,,77,0,77,0,,,,,,,,,,,,,,,,,,,,,,1133.0317138999817,None,,,,,,,,,,,,,,,,,collection,32,78,aloud,old,blue,1130.6126504999702,None,1130.6126504999702,None,1,1.5839139999588951,1130.6126504999702,None,1.5839139999588951,1132.2151954,None,1132.7187556999852,None,1132.7187556999852,None,n,0.28576400002930313,1132.7187556999852,None,0.28576400002930313,,,35 Aloud,001,2022_Aug_30_1126,ProdSingRedoBetween,2021.2.3,59.95232591034925,
,,,,78,0,78,0,,,,,,,,,,,,,,,,,,,,,,1135.6173430999625,None,,,,,,,,,,,,,,,,,point,24,79,aloud,old,yellow,1133.5412988999742,None,1133.5412988999742,None,1,1.3033158999751322,1133.5412988999742,None,1.3033158999751322,1134.8685849999893,None,1135.3841631999821,None,1135.3841631999821,None,n,0.2045135999796912,1135.3841631999821,None,0.2045135999796912,,,35 Aloud,001,2022_Aug_30_1126,ProdSingRedoBetween,2021.2.3,59.95232591034925,
,,,,79,0,79,0,,,,,,,,,,,,,,,,,,,,,,1140.1888504999806,None,,,,,,,,,,,,,,,,,tennis,109,80,aloud,new,null,1136.1237290999852,None,1136.1237290999852,None,1,2.8888488999800757,1136.1237290999852,None,2.8888488999800757,1139.0390513999737,None,1139.543176999956,None,1139.543176999956,None,n,0.6215892000473104,1139.543176999956,None,0.6215892000473104,,,35 Aloud,001,2022_Aug_30_1126,ProdSingRedoBetween,2021.2.3,59.95232591034925,
,,,,80,0,80,0,,,,,,,,,,,,,,,,,,,,,,1142.8578657999751,None,,,,,,,,,,,,,,,,,company,179,81,aloud,new,null,1140.6927060000016,None,1140.6927060000016,None,1,1.191863199986983,1140.6927060000016,None,1.191863199986983,1141.9084069999517,None,1142.4129187999642,None,1142.4129187999642,None,n,0.42364339996129274,1142.4129187999642,None,0.42364339996129274,,,35 Aloud,001,2022_Aug_30_1126,ProdSingRedoBetween,2021.2.3,59.95232591034925,
,,,,81,0,81,0,,,,,,,,,,,,,,,,,,,,,,1148.4803807999706,None,,,,,,,,,,,,,,,,,charter,38,82,aloud,old,blue,1143.3657471999759,None,1143.3657471999759,None,6,3.8147317999973893,1143.3657471999759,None,3.8147317999973893,1147.200269199966,None,1147.712829099968,None,1147.712829099968,None,r,0.7396992999711074,1147.712829099968,None,0.7396992999711074,,,35 Aloud,001,2022_Aug_30_1126,ProdSingRedoBetween,2021.2.3,59.95232591034925,
,,,,82,0,82,0,,,,,,,,,,,,,,,,,,,,,,1152.2174881999963,None,,,,,,,,,,,,,,,,,broke,141,83,aloud,new,null,1148.9893185999827,None,1148.9893185999827,None,1,1.4872726000030525,1148.9893185999827,None,1.4872726000030525,1150.5052842999576,None,1151.0163944999804,None,1151.0163944999804,None,n,1.172171399986837,1151.0163944999804,None,1.172171399986837,,,35 Aloud,001,2022_Aug_30_1126,ProdSingRedoBetween,2021.2.3,59.95232591034925,
,,,,83,0,83,0,,,,,,,,,,,,,,,,,,,,,,1154.6198246999993,None,,,,,,,,,,,,,,,,,crime,103,84,aloud,new,null,1152.7307318999665,None,1152.7307318999665,None,1,1.3058053000131622,1152.7307318999665,None,1.3058053000131622,1154.0535862999968,None,1154.5585212999722,None,1154.5585212999722,None,n,0.04606480000074953,1154.5585212999722,None,0.04606480000074953,,,35 Aloud,001,2022_Aug_30_1126,ProdSingRedoBetween,2021.2.3,59.95232591034925,
,,,,84,0,84,0,,,,,,,,,,,,,,,,,,,,,,1158.340150700009,None,,,,,,,,,,,,,,,,,second,73,85,aloud,old,red,1155.1220198000083,None,1155.1220198000083,None,3,1.9064332999987528,1155.1220198000083,None,1.9064332999987528,1157.0591749000014,None,1157.5728496999945,None,1157.5728496999945,None,f,0.7516284000012092,1157.5728496999945,None,0.7516284000012092,,,35 Aloud,001,2022_Aug_30_1126,ProdSingRedoBetween,2021.2.3,59.95232591034925,
,,,,85,0,85,0,,,,,,,,,,,,,,,,,,,,,,1160.8769891999546,None,,,,,,,,,,,,,,,,,gesture,100,86,aloud,new,null,1158.840885099955,None,1158.840885099955,None,1,1.2195466000121087,1158.840885099955,None,1.2195466000121087,1160.091823099996,None,1160.6056328999694,None,1160.6056328999694,None,n,0.24693170003592968,1160.6056328999694,None,0.24693170003592968,,,35 Aloud,001,2022_Aug_30_1126,ProdSingRedoBetween,2021.2.3,59.95232591034925,
,,,,86,0,86,0,,,,,,,,,,,,,,,,,,,,,,1164.6979311999748,None,,,,,,,,,,,,,,,,,territory,11,87,aloud,old,yellow,1161.3788795999717,None,1161.3788795999717,None,6,1.7937629999942146,1161.3788795999717,None,1.7937629999942146,1163.2010393999517,None,1163.7123957999866,None,1163.7123957999866,None,r,0.9642302999855019,1163.7123957999866,None,0.9642302999855019,,,35 Aloud,001,2022_Aug_30_1126,ProdSingRedoBetween,2021.2.3,59.95232591034925,
,,,,87,0,87,0,,,,,,,,,,,,,,,,,,,,,,1166.9988301999983,None,,,,,,,,,,,,,,,,,bicycle,171,88,aloud,new,null,1165.2023268999765,None,1165.2023268999765,None,1,0.97033509996254,1165.2023268999765,None,0.97033509996254,1166.204179399996,None,1166.7234081999632,None,1166.7234081999632,None,n,0.2570801000110805,1166.7234081999632,None,0.2570801000110805,,,35 Aloud,001,2022_Aug_30_1126,ProdSingRedoBetween,2021.2.3,59.95232591034925,
,,,,88,0,88,0,,,,,,,,,,,,,,,,,,,,,,1169.5013512999867,None,,,,,,,,,,,,,,,,,direction,43,89,aloud,old,blue,1167.5037989999983,None,1167.5037989999983,None,1,1.2127282000146806,1167.5037989999983,None,1.2127282000146806,1168.734712000005,None,1169.23465519998,None,1169.23465519998,None,n,0.24190630001248792,1169.23465519998,None,0.24190630001248792,,,35 Aloud,001,2022_Aug_30_1126,ProdSingRedoBetween,2021.2.3,59.95232591034925,
,,,,89,0,89,0,,,,,,,,,,,,,,,,,,,,,,1173.1550275000045,None,,,,,,,,,,,,,,,,,patient,22,90,aloud,old,yellow,1170.0085520999855,None,1170.0085520999855,None,6,1.6599485999904573,1170.0085520999855,None,1.6599485999904573,1171.6871014999924,None,1172.1928273999947,None,1172.1928273999947,None,r,0.939740100002382,1172.1928273999947,None,0.939740100002382,,,35 Aloud,001,2022_Aug_30_1126,ProdSingRedoBetween,2021.2.3,59.95232591034925,
,,,,90,0,90,0,,,,,,,,,,,,,,,,,,,,,,1176.908824699989,None,,,,,,,,,,,,,,,,,owner,87,91,aloud,old,red,1173.6639118999592,None,1173.6639118999592,None,1,2.3567333000246435,1173.6639118999592,None,2.3567333000246435,1176.0425517999684,None,1176.5417774999514,None,1176.5417774999514,None,n,0.34275650000199676,1176.5417774999514,None,0.34275650000199676,,,35 Aloud,001,2022_Aug_30_1126,ProdSingRedoBetween,2021.2.3,59.95232591034925,
,,,,91,0,91,0,,,,,,,,,,,,,,,,,,,,,,1180.045267599984,None,,,,,,,,,,,,,,,,,payment,15,92,aloud,old,yellow,1177.4211798000033,None,1177.4211798000033,None,1,1.4953456000075676,1177.4211798000033,None,1.4953456000075676,1178.9474170999601,None,1179.4725646000006,None,1179.4725646000006,None,n,0.5559371000272222,1179.4725646000006,None,0.5559371000272222,,,35 Aloud,001,2022_Aug_30_1126,ProdSingRedoBetween,2021.2.3,59.95232591034925,
,,,,92,0,92,0,,,,,,,,,,,,,,,,,,,,,,1182.9982653000043,None,,,,,,,,,,,,,,,,,heavy,162,93,aloud,new,null,1180.5483217999572,None,1180.5483217999572,None,1,1.1282300999737345,1180.5483217999572,None,1.1282300999737345,1181.7003572999965,None,1182.2188173999893,None,1182.2188173999893,None,n,0.7617159999790601,1182.2188173999893,None,0.7617159999790601,,,35 Aloud,001,2022_Aug_30_1126,ProdSingRedoBetween,2021.2.3,59.95232591034925,
,,,,93,0,93,0,,,,,,,,,,,,,,,,,,,,,,1187.7029781999881,None,,,,,,,,,,,,,,,,,quarter,62,94,aloud,old,red,1183.5024277999764,None,1183.5024277999764,None,6,2.7261550999828614,1183.5024277999764,None,2.7261550999828614,1186.2584412999568,None,1186.7685172999627,None,1186.7685172999627,None,r,0.9160119000007398,1186.7685172999627,None,0.9160119000007398,,,35 Aloud,001,2022_Aug_30_1126,ProdSingRedoBetween,2021.2.3,59.95232591034925,
,,,,94,0,94,0,,,,,,,,,,,,,,,,,,,,,,1192.3254665999557,None,,,,,,,,,,,,,,,,,engineer,79,95,aloud,old,red,1188.2141851999913,None,1188.2141851999913,None,1,2.8223489999654703,1188.2141851999913,None,2.8223489999654703,1191.0571754999692,None,1191.5603468999616,None,1191.5603468999616,None,n,0.7322509000077844,1191.5603468999616,None,0.7322509000077844,,,35 Aloud,001,2022_Aug_30_1126,ProdSingRedoBetween,2021.2.3,59.95232591034925,
,,,,95,0,95,0,,,,,,,,,,,,,,,,,,,,,,1196.5283592999913,None,,,,,,,,,,,,,,,,,household,31,96,aloud,old,blue,1192.8356109999586,None,1192.8356109999586,None,3,2.3769835000275634,1192.8356109999586,None,2.3769835000275634,1195.2527721999795,None,1195.7611926999525,None,1195.7611926999525,None,r,0.74736669997219,1195.7611926999525,None,0.74736669997219,,,35 Aloud,001,2022_Aug_30_1126,ProdSingRedoBetween,2021.2.3,59.95232591034925,
,,,,96,0,96,0,,,,,,,,,,,,,,,,,,,,,,1202.8679922999581,None,,,,,,,,,,,,,,,,,salary,25,97,aloud,old,yellow,1197.0352319999947,None,1197.0352319999947,None,1,3.465171200048644,1197.0352319999947,None,3.465171200048644,1200.536664299958,None,1201.0496062999591,None,1201.0496062999591,None,r,1.8029102999716997,1201.0496062999591,None,1.8029102999716997,,,35 Aloud,001,2022_Aug_30_1126,ProdSingRedoBetween,2021.2.3,59.95232591034925,
,,,,97,0,97,0,,,,,,,,,,,,,,,,,,,,,,1205.9043481999543,None,,,,,,,,,,,,,,,,,childhood,33,98,aloud,old,blue,1203.377988799999,None,1203.377988799999,None,6,1.6265165999648161,1203.377988799999,None,1.6265165999648161,1205.0199299000087,None,1205.528687299986,None,1205.528687299986,None,r,0.3477079999865964,1205.528687299986,None,0.3477079999865964,,,35 Aloud,001,2022_Aug_30_1126,ProdSingRedoBetween,2021.2.3,59.95232591034925,
,,,,98,0,98,0,,,,,,,,,,,,,,,,,,,,,,1208.8256240999908,None,,,,,,,,,,,,,,,,,court,36,99,aloud,old,blue,1206.4050033999956,None,1206.4050033999956,None,4,1.7754321999964304,1206.4050033999956,None,1.7754321999964304,1208.2064754999592,None,1208.7128496000078,None,1208.7128496000078,None,r,0.08358500001486391,1208.7128496000078,None,0.08358500001486391,,,35 Aloud,001,2022_Aug_30_1126,ProdSingRedoBetween,2021.2.3,59.95232591034925,
,,,,99,0,99,0,,,,,,,,,,,,,,,,,,,,,,1214.2293084999546,None,,,,,,,,,,,,,,,,,suspect,167,100,aloud,new,null,1209.3462149999687,None,1209.3462149999687,None,1,2.9702420000103302,1209.3462149999687,None,2.9702420000103302,1212.3450959000038,None,1212.8446831000037,None,1212.8446831000037,None,n,1.3598228999762796,1212.8446831000037,None,1.3598228999762796,,,35 Aloud,001,2022_Aug_30_1126,ProdSingRedoBetween,2021.2.3,59.95232591034925,
,,,,100,0,100,0,,,,,,,,,,,,,,,,,,,,,,1218.5002650999813,None,,,,,,,,,,,,,,,,,congress,52,101,aloud,old,blue,1214.7431342999917,None,1214.7431342999917,None,3,2.917358000006061,1214.7431342999917,None,2.917358000006061,1217.685829999973,None,1218.203024699993,None,1218.203024699993,None,r,0.28149779996601865,1218.203024699993,None,0.28149779996601865,,,35 Aloud,001,2022_Aug_30_1126,ProdSingRedoBetween,2021.2.3,59.95232591034925,
,,,,101,0,101,0,,,,,,,,,,,,,,,,,,,,,,1221.2946855999762,None,,,,,,,,,,,,,,,,,beginning,163,102,aloud,new,null,1219.0031997999758,None,1219.0031997999758,None,1,1.5134430000325665,1219.0031997999758,None,1.5134430000325665,1220.5367713999585,None,1221.0360724999919,None,1221.0360724999919,None,n,0.23236859997268766,1221.0360724999919,None,0.23236859997268766,,,35 Aloud,001,2022_Aug_30_1126,ProdSingRedoBetween,2021.2.3,59.95232591034925,
,,,,102,0,102,0,,,,,,,,,,,,,,,,,,,,,,1223.8390243999893,None,,,,,,,,,,,,,,,,,machinery,101,103,aloud,new,null,1221.8159001999884,None,1221.8159001999884,None,1,1.2526307000080124,1221.8159001999884,None,1.2526307000080124,1223.0910007999628,None,1223.605993699981,None,1223.605993699981,None,n,0.2067362000234425,1223.605993699981,None,0.2067362000234425,,,35 Aloud,001,2022_Aug_30_1126,ProdSingRedoBetween,2021.2.3,59.95232591034925,
,,,,103,0,103,0,,,,,,,,,,,,,,,,,,,,,,1226.4249675999745,None,,,,,,,,,,,,,,,,,contract,105,104,aloud,new,null,1224.3411404999788,None,1224.3411404999788,None,1,1.4153240000014193,1224.3411404999788,None,1.4153240000014193,1225.7751452999655,None,1226.2768765999936,None,1226.2768765999936,None,n,0.1196265000035055,1226.2768765999936,None,0.1196265000035055,,,35 Aloud,001,2022_Aug_30_1126,ProdSingRedoBetween,2021.2.3,59.95232591034925,
,,,,104,0,104,0,,,,,,,,,,,,,,,,,,,,,,1228.527052599995,None,,,,,,,,,,,,,,,,,fight,118,105,aloud,new,null,1226.9270609999658,None,1226.9270609999658,None,1,1.0213912000181153,1226.9270609999658,None,1.0213912000181153,1227.976201499987,None,1228.4770510999952,None,1228.4770510999952,None,n,0.03141140000661835,1228.4770510999952,None,0.03141140000661835,,,35 Aloud,001,2022_Aug_30_1126,ProdSingRedoBetween,2021.2.3,59.95232591034925,
,,,,105,0,105,0,,,,,,,,,,,,,,,,,,,,,,1231.7968564999755,None,,,,,,,,,,,,,,,,,health,14,106,aloud,old,yellow,1229.0343488999642,None,1229.0343488999642,None,6,1.5461288000224158,1229.0343488999642,None,1.5461288000224158,1230.5956303999992,None,1231.0963559999946,None,1231.0963559999946,None,r,0.6841165000223555,1231.0963559999946,None,0.6841165000223555,,,35 Aloud,001,2022_Aug_30_1126,ProdSingRedoBetween,2021.2.3,59.95232591034925,
,,,,106,0,106,0,,,,,,,,,,,,,,,,,,,,,,1235.000103599974,None,,,,,,,,,,,,,,,,,finance,175,107,aloud,new,null,1232.303051099996,None,1232.303051099996,None,1,1.1254396999720484,1232.303051099996,None,1.1254396999720484,1233.4496649999637,None,1233.9513678000076,None,1233.9513678000076,None,n,1.021067599998787,1233.9513678000076,None,1.021067599998787,,,35 Aloud,001,2022_Aug_30_1126,ProdSingRedoBetween,2021.2.3,59.95232591034925,
,,,,107,0,107,0,,,,,,,,,,,,,,,,,,,,,,1238.4274535999866,None,,,,,,,,,,,,,,,,,piece,138,108,aloud,new,null,1235.5017589000054,None,1235.5017589000054,None,1,1.1588265000027604,1235.5017589000054,None,1.1588265000027604,1236.6882294999668,None,1237.2068679999793,None,1237.2068679999793,None,n,1.1977496999897994,1237.2068679999793,None,1.1977496999897994,,,35 Aloud,001,2022_Aug_30_1126,ProdSingRedoBetween,2021.2.3,59.95232591034925,
,,,,108,0,108,0,,,,,,,,,,,,,,,,,,,,,,1244.2935229999712,None,,,,,,,,,,,,,,,,,general,12,109,aloud,old,yellow,1238.9375176999602,None,1238.9375176999602,None,3,3.1549804999958724,1238.9375176999602,None,3.1549804999958724,1242.1089491999592,None,1242.6245415000012,None,1242.6245415000012,None,r,1.643979299988132,1242.6245415000012,None,1.643979299988132,,,35 Aloud,001,2022_Aug_30_1126,ProdSingRedoBetween,2021.2.3,59.95232591034925,
,,,,109,0,109,0,,,,,,,,,,,,,,,,,,,,,,1247.6127021999564,None,,,,,,,,,,,,,,,,,pattern,107,110,aloud,new,null,1244.7962993999827,None,1244.7962993999827,None,1,1.6882081999792717,1244.7962993999827,None,1.6882081999792717,1246.5161419999786,None,1247.0350159999798,None,1247.0350159999798,None,n,0.5534704999881797,1247.0350159999798,None,0.5534704999881797,,,35 Aloud,001,2022_Aug_30_1126,ProdSingRedoBetween,2021.2.3,59.95232591034925,
,,,,110,0,110,0,,,,,,,,,,,,,,,,,,,,,,1250.2485287999734,None,,,,,,,,,,,,,,,,,expansion,144,111,aloud,new,null,1248.1161702999962,None,1248.1161702999962,None,1,1.320163699972909,1248.1161702999962,None,1.320163699972909,1249.4675131999538,None,1249.981774099986,None,1249.981774099986,None,n,0.2465646000346169,1249.981774099986,None,0.2465646000346169,,,35 Aloud,001,2022_Aug_30_1126,ProdSingRedoBetween,2021.2.3,59.95232591034925,
,,,,111,0,111,0,,,,,,,,,,,,,,,,,,,,,,1254.4695530000026,None,,,,,,,,,,,,,,,,,speech,26,112,aloud,old,yellow,1250.7491866999771,None,1250.7491866999771,None,4,2.287295200047083,1250.7491866999771,None,2.287295200047083,1253.0514547000057,None,1253.5557408999885,None,1253.5557408999885,None,r,0.8887239000177942,1253.5557408999885,None,0.8887239000177942,,,35 Aloud,001,2022_Aug_30_1126,ProdSingRedoBetween,2021.2.3,59.95232591034925,
,,,,112,0,112,0,,,,,,,,,,,,,,,,,,,,,,1258.87396669999,None,,,,,,,,,,,,,,,,,estate,35,113,aloud,old,blue,1254.9815744999796,None,1254.9815744999796,None,1,2.7988830999820493,1254.9815744999796,None,2.7988830999820493,1257.8083350999514,None,1258.3251078999601,None,1258.3251078999601,None,r,0.5193833999801427,1258.3251078999601,None,0.5193833999801427,,,35 Aloud,001,2022_Aug_30_1126,ProdSingRedoBetween,2021.2.3,59.95232591034925,
,,,,113,0,113,0,,,,,,,,,,,,,,,,,,,,,,1262.0282571999705,None,,,,,,,,,,,,,,,,,staff,173,114,aloud,new,null,1259.3786978999851,None,1259.3786978999851,None,1,1.4018506999709643,1259.3786978999851,None,1.4018506999709643,1260.8172504999675,None,1261.32648779999,None,1261.32648779999,None,n,0.6700009999913163,1261.32648779999,None,0.6700009999913163,,,35 Aloud,001,2022_Aug_30_1126,ProdSingRedoBetween,2021.2.3,59.95232591034925,
,,,,114,0,114,0,,,,,,,,,,,,,,,,,,,,,,1265.9475990000064,None,,,,,,,,,,,,,,,,,commercial,123,115,aloud,new,null,1262.5363249999937,None,1262.5363249999937,None,1,1.3561216999660246,1262.5363249999937,None,1.3561216999660246,1263.9150064999703,None,1264.4324273999664,None,1264.4324273999664,None,f,1.5000359000405297,1264.4324273999664,None,1.5000359000405297,,,35 Aloud,001,2022_Aug_30_1126,ProdSingRedoBetween,2021.2.3,59.95232591034925,
,,,,115,0,115,0,,,,,,,,,,,,,,,,,,,,,,1270.7023725999752,None,,,,,,,,,,,,,,,,,couch,158,116,aloud,new,null,1266.4563059000066,None,1266.4563059000066,None,1,2.140140000032261,1266.4563059000066,None,2.140140000032261,1268.6169276,None,1269.1176670999848,None,1269.1176670999848,None,n,1.5667539000278339,1269.1176670999848,None,1.5667539000278339,,,35 Aloud,001,2022_Aug_30_1126,ProdSingRedoBetween,2021.2.3,59.95232591034925,
,,,,116,0,116,0,,,,,,,,,,,,,,,,,,,,,,1273.7054134999635,None,,,,,,,,,,,,,,,,,audience,34,117,aloud,old,blue,1271.2110851999605,None,1271.2110851999605,None,1,1.4413130999892019,1271.2110851999605,None,1.4413130999892019,1272.6719725999865,None,1273.1755428999895,None,1273.1755428999895,None,n,0.5009943000040948,1273.1755428999895,None,0.5009943000040948,,,35 Aloud,001,2022_Aug_30_1126,ProdSingRedoBetween,2021.2.3,59.95232591034925,
,,,,117,0,117,0,,,,,,,,,,,,,,,,,,,,,,1276.1912134999875,None,,,,,,,,,,,,,,,,,union,21,118,aloud,old,yellow,1274.213378299959,None,1274.213378299959,None,1,1.319000400020741,1274.213378299959,None,1.319000400020741,1275.557271800004,None,1276.0644002999761,None,1276.0644002999761,None,n,0.10807049996219575,1276.0644002999761,None,0.10807049996219575,,,35 Aloud,001,2022_Aug_30_1126,ProdSingRedoBetween,2021.2.3,59.95232591034925,
,,,,118,0,118,0,,,,,,,,,,,,,,,,,,,,,,1278.4434752999805,None,,,,,,,,,,,,,,,,,notice,96,119,aloud,new,null,1276.696873799956,None,1276.696873799956,None,1,1.1795601000194438,1276.696873799956,None,1.1795601000194438,1277.8938529999577,None,1278.3957257999573,None,1278.3957257999573,None,n,0.024745899951085448,1278.3957257999573,None,0.024745899951085448,,,35 Aloud,001,2022_Aug_30_1126,ProdSingRedoBetween,2021.2.3,59.95232591034925,
,,,,119,0,119,0,,,,,,,,,,,,,,,,,,,,,,1281.0126289000036,None,,,,,,,,,,,,,,,,,detective,66,120,aloud,old,red,1278.9438219000003,None,1278.9438219000003,None,1,1.140538200037554,1278.9438219000003,None,1.140538200037554,1280.1135489000008,None,1280.6290465999627,None,1280.6290465999627,None,n,0.36729470000136644,1280.6290465999627,None,0.36729470000136644,,,35 Aloud,001,2022_Aug_30_1126,ProdSingRedoBetween,2021.2.3,59.95232591034925,
,,,,120,0,120,0,,,,,,,,,,,,,,,,,,,,,,1286.9185210999567,None,,,,,,,,,,,,,,,,,touch,67,121,aloud,old,red,1281.5161529000034,None,1281.5161529000034,None,5,3.672295700001996,1281.5161529000034,None,3.672295700001996,1285.2174816000042,None,1285.7240686999867,None,1285.7240686999867,None,r,1.1763248999486677,1285.7240686999867,None,1.1763248999486677,,,35 Aloud,001,2022_Aug_30_1126,ProdSingRedoBetween,2021.2.3,59.95232591034925,
,,,,121,0,121,0,,,,,,,,,,,,,,,,,,,,,,1290.9392575999955,None,,,,,,,,,,,,,,,,,public,114,122,aloud,new,null,1287.4280746000004,None,1287.4280746000004,None,1,1.3923424000386149,1287.4280746000004,None,1.3923424000386149,1288.8382458999986,None,1289.340751599986,None,1289.340751599986,None,f,1.5676953999791294,1289.340751599986,None,1.5676953999791294,,,35 Aloud,001,2022_Aug_30_1126,ProdSingRedoBetween,2021.2.3,59.95232591034925,
,,,,122,0,122,0,,,,,,,,,,,,,,,,,,,,,,1293.2916095999535,None,,,,,,,,,,,,,,,,,front,19,123,aloud,old,yellow,1291.440898699977,None,1291.440898699977,None,1,1.2675233999616466,1291.440898699977,None,1.2675233999616466,1292.7254025999573,None,1293.2247949999874,None,1293.2247949999874,None,n,0.03582230000756681,1293.2247949999874,None,0.03582230000756681,,,35 Aloud,001,2022_Aug_30_1126,ProdSingRedoBetween,2021.2.3,59.95232591034925,
,,,,123,0,123,0,,,,,,,,,,,,,,,,,,,,,,1295.977405899961,None,,,,,,,,,,,,,,,,,weight,122,124,aloud,new,null,1293.8006664999994,None,1293.8006664999994,None,1,1.0998320000362583,1293.8006664999994,None,1.0998320000362583,1294.9282470999751,None,1295.4438144000014,None,1295.4438144000014,None,n,0.5126091000274755,1295.4438144000014,None,0.5126091000274755,,,35 Aloud,001,2022_Aug_30_1126,ProdSingRedoBetween,2021.2.3,59.95232591034925,
,,,,124,0,124,0,,,,,,,,,,,,,,,,,,,,,,1302.3006450999528,None,,,,,,,,,,,,,,,,,relation,70,125,aloud,old,red,1296.48292759998,None,1296.48292759998,None,1,2.0895245000137947,1296.48292759998,None,2.0895245000137947,1298.6018775999546,None,1299.1141660999856,None,1299.1141660999856,None,r,3.1703577000298537,1299.1141660999856,None,3.1703577000298537,,,35 Aloud,001,2022_Aug_30_1126,ProdSingRedoBetween,2021.2.3,59.95232591034925,
,,,,125,0,125,0,,,,,,,,,,,,,,,,,,,,,,1306.0395180999767,None,,,,,,,,,,,,,,,,,division,75,126,aloud,old,red,1302.8092989999568,None,1302.8092989999568,None,3,2.0991019000066444,1302.8092989999568,None,2.0991019000066444,1304.937464699964,None,1305.442484900006,None,1305.442484900006,None,f,0.5780428999569267,1305.442484900006,None,0.5780428999569267,,,35 Aloud,001,2022_Aug_30_1126,ProdSingRedoBetween,2021.2.3,59.95232591034925,
,,,,126,0,126,0,,,,,,,,,,,,,,,,,,,,,,1308.4582394000026,None,,,,,,,,,,,,,,,,,dream,40,127,aloud,old,blue,1306.5612145999912,None,1306.5612145999912,None,1,1.3073704999987967,1306.5612145999912,None,1.3073704999987967,1307.8917844999814,None,1308.4068387000007,None,1308.4068387000007,None,n,0.021652700030244887,1308.4068387000007,None,0.021652700030244887,,,35 Aloud,001,2022_Aug_30_1126,ProdSingRedoBetween,2021.2.3,59.95232591034925,
,,,,127,0,127,0,,,,,,,,,,,,,,,,,,,,,,1311.6599141999613,None,,,,,,,,,,,,,,,,,hunger,133,128,aloud,new,null,1308.9587554999744,None,1308.9587554999744,None,1,1.4858776000328362,1308.9587554999744,None,1.4858776000328362,1310.4849532999797,None,1310.9927754999953,None,1310.9927754999953,None,n,0.6436511999927461,1310.9927754999953,None,0.6436511999927461,,,35 Aloud,001,2022_Aug_30_1126,ProdSingRedoBetween,2021.2.3,59.95232591034925,
,,,,128,0,128,0,,,,,,,,,,,,,,,,,,,,,,1314.245843099954,None,,,,,,,,,,,,,,,,,oxygen,152,129,aloud,new,null,1312.1658120999928,None,1312.1658120999928,None,1,1.0946509999921545,1312.1658120999928,None,1.0946509999921545,1313.2793584999745,None,1313.7787668999517,None,1313.7787668999517,None,n,0.4416597999515943,1313.7787668999517,None,0.4416597999515943,,,35 Aloud,001,2022_Aug_30_1126,ProdSingRedoBetween,2021.2.3,59.95232591034925,
,,,,129,0,129,0,,,,,,,,,,,,,,,,,,,,,,1317.9328628999647,None,,,,,,,,,,,,,,,,,committee,16,130,aloud,old,yellow,1314.7531376999686,None,1314.7531376999686,None,5,1.9313122000312433,1314.7531376999686,None,1.9313122000312433,1316.7150798999937,None,1317.2155722999596,None,1317.2155722999596,None,r,0.7008315999992192,1317.2155722999596,None,0.7008315999992192,,,35 Aloud,001,2022_Aug_30_1126,ProdSingRedoBetween,2021.2.3,59.95232591034925,
,,,,130,0,130,0,,,,,,,,,,,,,,,,,,,,,,1320.9023701999686,None,,,,,,,,,,,,,,,,,author,58,131,aloud,old,blue,1318.4404413999873,None,1318.4404413999873,None,6,1.707953399978578,1318.4404413999873,None,1.707953399978578,1320.169376100006,None,1320.6690058999811,None,1320.6690058999811,None,r,0.2152953000040725,1320.6690058999811,None,0.2152953000040725,,,35 Aloud,001,2022_Aug_30_1126,ProdSingRedoBetween,2021.2.3,59.95232591034925,
,,,,131,0,131,0,,,,,,,,,,,,,,,,,,,,,,1324.522790899966,None,,,,,,,,,,,,,,,,,plane,48,132,aloud,old,blue,1321.4084063000046,None,1321.4084063000046,None,2,1.595959700003732,1321.4084063000046,None,1.595959700003732,1323.0210701999604,None,1323.5292995999916,None,1323.5292995999916,None,f,0.9711841000244021,1323.5292995999916,None,0.9711841000244021,,,35 Aloud,001,2022_Aug_30_1126,ProdSingRedoBetween,2021.2.3,59.95232591034925,
,,,,132,0,132,0,,,,,,,,,,,,,,,,,,,,,,1328.847761299985,None,,,,,,,,,,,,,,,,,tough,89,133,aloud,old,red,1325.0295138999936,None,1325.0295138999936,None,1,1.3428701999946497,1325.0295138999936,None,1.3428701999946497,1326.392262999958,None,1326.891758099955,None,1326.891758099955,None,r,1.9366504999925382,1326.891758099955,None,1.9366504999925382,,,35 Aloud,001,2022_Aug_30_1126,ProdSingRedoBetween,2021.2.3,59.95232591034925,
,,,,133,0,133,0,,,,,,,,,,,,,,,,,,,,,,1331.8135337999556,None,,,,,,,,,,,,,,,,,science,142,134,aloud,new,null,1329.3688795999624,None,1329.3688795999624,None,1,1.8755632999818772,1329.3688795999624,None,1.8755632999818772,1331.262759300007,None,1331.7661258999724,None,1331.7661258999724,None,n,0.030464100011158735,1331.7661258999724,None,0.030464100011158735,,,35 Aloud,001,2022_Aug_30_1126,ProdSingRedoBetween,2021.2.3,59.95232591034925,
,,,,134,0,134,0,,,,,,,,,,,,,,,,,,,,,,1334.5160462000058,None,,,,,,,,,,,,,,,,,smell,113,135,aloud,new,null,1332.320704499958,None,1332.320704499958,None,1,1.3956969000282697,1332.320704499958,None,1.3956969000282697,1333.7350226999843,None,1334.2493721999926,None,1334.2493721999926,None,n,0.250959699973464,1334.2493721999926,None,0.250959699973464,,,35 Aloud,001,2022_Aug_30_1126,ProdSingRedoBetween,2021.2.3,59.95232591034925,
,,,,135,0,135,0,,,,,,,,,,,,,,,,,,,,,,1337.4023127999972,None,,,,,,,,,,,,,,,,,research,7,136,aloud,old,yellow,1335.0278724999516,None,1335.0278724999516,None,4,1.3844743000227027,1335.0278724999516,None,1.3844743000227027,1336.4360820999718,None,1336.9418495999998,None,1336.9418495999998,None,r,0.4304942999733612,1336.9418495999998,None,0.4304942999733612,,,35 Aloud,001,2022_Aug_30_1126,ProdSingRedoBetween,2021.2.3,59.95232591034925,
,,,,136,0,136,0,,,,,,,,,,,,,,,,,,,,,,1339.8877897000057,None,,,,,,,,,,,,,,,,,captain,148,137,aloud,new,null,1337.912488700007,None,1337.912488700007,None,1,1.2041478999890387,1337.912488700007,None,1.2041478999890387,1339.1431948999525,None,1339.6544697000063,None,1339.6544697000063,None,n,0.2058176000136882,1339.6544697000063,None,0.2058176000136882,,,35 Aloud,001,2022_Aug_30_1126,ProdSingRedoBetween,2021.2.3,59.95232591034925,
,,,,137,0,137,0,,,,,,,,,,,,,,,,,,,,,,1343.7755839999882,None,,,,,,,,,,,,,,,,,safety,108,138,aloud,new,null,1340.3980968999676,None,1340.3980968999676,None,2,2.366447300009895,1340.3980968999676,None,2.366447300009895,1342.791695599968,None,1343.3000294999802,None,1343.3000294999802,None,f,0.4565718999947421,1343.3000294999802,None,0.4565718999947421,,,35 Aloud,001,2022_Aug_30_1126,ProdSingRedoBetween,2021.2.3,59.95232591034925,
,,,,138,0,138,0,,,,,,,,,,,,,,,,,,,,,,1348.680174899986,None,,,,,,,,,,,,,,,,,drink,49,139,aloud,old,blue,1344.2760796999792,None,1344.2760796999792,None,5,2.5362461999757215,1344.2760796999792,None,2.5362461999757215,1346.8352392999805,None,1347.3456352999783,None,1347.3456352999783,None,r,1.3067129999981262,1347.3456352999783,None,1.3067129999981262,,,35 Aloud,001,2022_Aug_30_1126,ProdSingRedoBetween,2021.2.3,59.95232591034925,
,,,,139,0,139,0,,,,,,,,,,,,,,,,,,,,,,1351.1157567999908,None,,,,,,,,,,,,,,,,,bitter,149,140,aloud,new,null,1349.1865637999726,None,1349.1865637999726,None,1,1.361809500027448,1349.1865637999726,None,1.361809500027448,1350.568867599999,None,1351.0827163999784,None,1351.0827163999784,None,n,0.00968959997408092,1351.0827163999784,None,0.00968959997408092,,,35 Aloud,001,2022_Aug_30_1126,ProdSingRedoBetween,2021.2.3,59.95232591034925,
,,,,140,0,140,0,,,,,,,,,,,,,,,,,,,,,,1353.4683666999917,None,,,,,,,,,,,,,,,,,cover,145,141,aloud,new,null,1351.6194918999681,None,1351.6194918999681,None,1,1.1769515000050887,1351.6194918999681,None,1.1769515000050887,1352.8261542999535,None,1353.334964699985,None,1353.334964699985,None,n,0.11746340000536293,1353.334964699985,None,0.11746340000536293,,,35 Aloud,001,2022_Aug_30_1126,ProdSingRedoBetween,2021.2.3,59.95232591034925,
,,,,141,0,141,0,,,,,,,,,,,,,,,,,,,,,,1355.553703899961,None,,,,,,,,,,,,,,,,,place,129,142,aloud,new,null,1353.971859799989,None,1353.971859799989,None,1,0.9290313000092283,1353.971859799989,None,0.9290313000092283,1354.9269430999993,None,1355.4371887999587,None,1355.4371887999587,None,n,0.09519469999941066,1355.4371887999587,None,0.09519469999941066,,,35 Aloud,001,2022_Aug_30_1126,ProdSingRedoBetween,2021.2.3,59.95232591034925,
,,,,142,0,142,0,,,,,,,,,,,,,,,,,,,,,,1358.890466999961,None,,,,,,,,,,,,,,,,,degree,37,143,aloud,old,blue,1356.069217799988,None,1356.069217799988,None,1,2.151315600029193,1356.069217799988,None,2.151315600029193,1358.2396670999588,None,1358.7403747999924,None,1358.7403747999924,None,n,0.12811370001873001,1358.7403747999924,None,0.12811370001873001,,,35 Aloud,001,2022_Aug_30_1126,ProdSingRedoBetween,2021.2.3,59.95232591034925,
,,,,143,0,143,0,,,,,,,,,,,,,,,,,,,,,,1361.1639055999694,None,,,,,,,,,,,,,,,,,enemy,134,144,aloud,new,null,1359.406246199971,None,1359.406246199971,None,1,1.0861667999997735,1359.406246199971,None,1.0861667999997735,1360.5123672999907,None,1361.0311543999705,None,1361.0311543999705,None,n,0.10139620001427829,1361.0311543999705,None,0.10139620001427829,,,35 Aloud,001,2022_Aug_30_1126,ProdSingRedoBetween,2021.2.3,59.95232591034925,
,,,,144,0,144,0,,,,,,,,,,,,,,,,,,,,,,1364.6962021999643,None,,,,,,,,,,,,,,,,,treatment,6,145,aloud,old,yellow,1361.6867228999618,None,1361.6867228999618,None,1,2.413690300018061,1361.6867228999618,None,2.413690300018061,1364.1316573999939,None,1364.6462380999583,None,1364.6462380999583,None,n,0.02209370001219213,1364.6462380999583,None,0.02209370001219213,,,35 Aloud,001,2022_Aug_30_1126,ProdSingRedoBetween,2021.2.3,59.95232591034925,
,,,,145,0,145,0,,,,,,,,,,,,,,,,,,,,,,1367.5499273999594,None,,,,,,,,,,,,,,,,,husband,77,146,aloud,old,red,1365.2043935999973,None,1365.2043935999973,None,6,1.5519343999912962,1365.2043935999973,None,1.5519343999912962,1366.78637409996,None,1367.3056957999943,None,1367.3056957999943,None,r,0.21875379997072741,1367.3056957999943,None,0.21875379997072741,,,35 Aloud,001,2022_Aug_30_1126,ProdSingRedoBetween,2021.2.3,59.95232591034925,
,,,,146,0,146,0,,,,,,,,,,,,,,,,,,,,,,1369.6842544999672,None,,,,,,,,,,,,,,,,,poetry,92,147,aloud,new,null,1368.0508488999913,None,1368.0508488999913,None,1,1.0334407999762334,1368.0508488999913,None,1.0334407999762334,1369.1047902999562,None,1369.617649999971,None,1369.617649999971,None,n,0.050572099979035556,1369.617649999971,None,0.050572099979035556,,,35 Aloud,001,2022_Aug_30_1126,ProdSingRedoBetween,2021.2.3,59.95232591034925,
,,,,147,0,147,0,,,,,,,,,,,,,,,,,,,,,,1371.8030616999604,None,,,,,,,,,,,,,,,,,grade,44,148,aloud,old,blue,1370.1848901999765,None,1370.1848901999765,None,1,0.8993848999962211,1370.1848901999765,None,0.8993848999962211,1371.102443199954,None,1371.6052904999815,None,1371.6052904999815,None,n,0.17512239998904988,1371.6052904999815,None,0.17512239998904988,,,35 Aloud,001,2022_Aug_30_1126,ProdSingRedoBetween,2021.2.3,59.95232591034925,
,,,,148,0,148,0,,,,,,,,,,,,,,,,,,,,,,1375.3735102000064,None,,,,,,,,,,,,,,,,,stranger,0,149,aloud,old,yellow,1372.3096886999556,None,1372.3096886999556,None,4,1.8148260999587364,1372.3096886999556,None,1.8148260999587364,1374.1565566000063,None,1374.656980699976,None,1374.656980699976,None,r,0.699338499980513,1374.656980699976,None,0.699338499980513,,,35 Aloud,001,2022_Aug_30_1126,ProdSingRedoBetween,2021.2.3,59.95232591034925,
,,,,149,0,149,0,,,,,,,,,,,,,,,,,,,,,,1377.9924820999731,None,,,,,,,,,,,,,,,,,count,104,150,aloud,new,null,1375.8823447999894,None,1375.8823447999894,None,1,1.2819741000421345,1375.8823447999894,None,1.2819741000421345,1377.191996199952,None,1377.6975851999596,None,1377.6975851999596,None,n,0.26679219998186454,1377.6975851999596,None,0.26679219998186454,,,35 Aloud,001,2022_Aug_30_1126,ProdSingRedoBetween,2021.2.3,59.95232591034925,
,,,,150,0,150,0,,,,,,,,,,,,,,,,,,,,,,1380.2030048999586,None,,,,,,,,,,,,,,,,,drama,153,151,aloud,new,null,1378.5020548999892,None,1378.5020548999892,None,1,1.0782623999984935,1378.5020548999892,None,1.0782623999984935,1379.6111220999737,None,1380.1116818999872,None,1380.1116818999872,None,n,0.05294599995249882,1380.1116818999872,None,0.05294599995249882,,,35 Aloud,001,2022_Aug_30_1126,ProdSingRedoBetween,2021.2.3,59.95232591034925,
,,,,151,0,151,0,,,,,,,,,,,,,,,,,,,,,,1384.33250759996,None,,,,,,,,,,,,,,,,,welcome,42,152,aloud,old,blue,1380.71528449998,None,1380.71528449998,None,5,2.1450752000091597,1380.71528449998,None,2.1450752000091597,1382.8822216999833,None,1383.3895078999922,None,1383.3895078999922,None,r,0.9188448999775574,1383.3895078999922,None,0.9188448999775574,,,35 Aloud,001,2022_Aug_30_1126,ProdSingRedoBetween,2021.2.3,59.95232591034925,
,,,,152,0,152,0,,,,,,,,,,,,,,,,,,,,,,1387.0685030999593,None,,,,,,,,,,,,,,,,,individual,157,153,aloud,new,null,1384.8433204999892,None,1384.8433204999892,None,1,1.1370163000538014,1384.8433204999892,None,1.1370163000538014,1386.0021472999942,None,1386.5051352999872,None,1386.5051352999872,None,n,0.5392563000204973,1386.5051352999872,None,0.5392563000204973,,,35 Aloud,001,2022_Aug_30_1126,ProdSingRedoBetween,2021.2.3,59.95232591034925,
,,,,153,0,153,0,,,,,,,,,,,,,,,,,,,,,,1389.5543175999774,None,,,,,,,,,,,,,,,,,community,95,154,aloud,new,null,1387.58281599998,None,1387.58281599998,None,1,1.2295485000358894,1387.58281599998,None,1.2295485000358894,1388.8432495999732,None,1389.3543247999623,None,1389.3543247999623,None,n,0.17003249999834225,1389.3543247999623,None,0.17003249999834225,,,35 Aloud,001,2022_Aug_30_1126,ProdSingRedoBetween,2021.2.3,59.95232591034925,
,,,,154,0,154,0,,,,,,,,,,,,,,,,,,,,,,1391.7398453999776,None,,,,,,,,,,,,,,,,,fashion,90,155,aloud,new,null,1390.0567758999532,None,1390.0567758999532,None,1,1.0595794999971986,1390.0567758999532,None,1.0595794999971986,1391.1461458999547,None,1391.6565899999696,None,1391.6565899999696,None,n,0.06777380005223677,1391.6565899999696,None,0.06777380005223677,,,35 Aloud,001,2022_Aug_30_1126,ProdSingRedoBetween,2021.2.3,59.95232591034925,
,,,,155,0,155,0,,,,,,,,,,,,,,,,,,,,,,1395.9106416999712,None,,,,,,,,,,,,,,,,,session,2,156,aloud,old,yellow,1392.2548396000057,None,1392.2548396000057,None,5,2.309548699995503,1392.2548396000057,None,2.309548699995503,1394.5953146999818,None,1395.1249644999625,None,1395.1249644999625,None,f,0.7591119999997318,1395.1249644999625,None,0.7591119999997318,,,35 Aloud,001,2022_Aug_30_1126,ProdSingRedoBetween,2021.2.3,59.95232591034925,
,,,,156,0,156,0,,,,,,,,,,,,,,,,,,,,,,1398.213096499967,None,,,,,,,,,,,,,,,,,material,93,157,aloud,new,null,1396.4113154999795,None,1396.4113154999795,None,1,1.2490415999782272,1396.4113154999795,None,1.2490415999782272,1397.6800222999882,None,1398.1839758999995,None,1398.1839758999995,None,n,0.012519299983978271,1398.1839758999995,None,0.012519299983978271,,,35 Aloud,001,2022_Aug_30_1126,ProdSingRedoBetween,2021.2.3,59.95232591034925,
,,,,157,0,157,0,,,,,,,,,,,,,,,,,,,,,,1402.0335084999679,None,,,,,,,,,,,,,,,,,center,76,158,aloud,old,red,1398.7221816999954,None,1398.7221816999954,None,5,2.0981534000020474,1398.7221816999954,None,2.0981534000020474,1400.8529635999585,None,1401.3733276999556,None,1401.3733276999556,None,r,0.6390412999899127,1401.3733276999556,None,0.6390412999899127,,,35 Aloud,001,2022_Aug_30_1126,ProdSingRedoBetween,2021.2.3,59.95232591034925,
,,,,158,0,158,0,,,,,,,,,,,,,,,,,,,,,,1406.8716519000009,None,,,,,,,,,,,,,,,,,length,128,159,aloud,new,null,1402.5365582999657,None,1402.5365582999657,None,1,3.0917840999900363,1402.5365582999657,None,3.0917840999900363,1405.6536504999967,None,1406.1544088000082,None,1406.1544088000082,None,n,0.6979533999692649,1406.1544088000082,None,0.6979533999692649,,,35 Aloud,001,2022_Aug_30_1126,ProdSingRedoBetween,2021.2.3,59.95232591034925,
,,,,159,0,159,0,,,,,,,,,,,,,,,,,,,,,,1411.025816999958,None,,,,,,,,,,,,,,,,,century,47,160,aloud,old,blue,1407.3812438999885,None,1407.3812438999885,None,3,2.6230860999785364,1407.3812438999885,None,2.6230860999785364,1410.0262360000052,None,1410.5292346999631,None,1410.5292346999631,None,r,0.4670864000217989,1410.5292346999631,None,0.4670864000217989,,,35 Aloud,001,2022_Aug_30_1126,ProdSingRedoBetween,2021.2.3,59.95232591034925,
,,,,160,0,160,0,,,,,,,,,,,,,,,,,,,,,,1413.5616613999591,None,,,,,,,,,,,,,,,,,account,120,161,aloud,new,null,1411.5366271999665,None,1411.5366271999665,None,1,1.0597518000286072,1411.5366271999665,None,1.0597518000286072,1412.6288903999957,None,1413.1447048999835,None,1413.1447048999835,None,n,0.387665799993556,1413.1447048999835,None,0.387665799993556,,,35 Aloud,001,2022_Aug_30_1126,ProdSingRedoBetween,2021.2.3,59.95232591034925,
,,,,161,0,161,0,,,,,,,,,,,,,,,,,,,,,,1415.8472065999522,None,,,,,,,,,,,,,,,,,build,1,162,aloud,old,yellow,1414.068375199975,None,1414.068375199975,None,1,1.0799114999826998,1414.068375199975,None,1.0799114999826998,1415.1814561999636,None,1415.6972174999537,None,1415.6972174999537,None,n,0.13115009997272864,1415.6972174999537,None,0.13115009997272864,,,35 Aloud,001,2022_Aug_30_1126,ProdSingRedoBetween,2021.2.3,59.95232591034925,
,,,,162,0,162,0,,,,,,,,,,,,,,,,,,,,,,1419.1338902999996,None,,,,,,,,,,,,,,,,,judge,54,163,aloud,old,blue,1416.3610247999895,None,1416.3610247999895,None,5,1.6193297999561764,1416.3610247999895,None,1.6193297999561764,1417.9992901000078,None,1418.4999786999542,None,1418.4999786999542,None,r,0.6162808999652043,1418.4999786999542,None,0.6162808999652043,,,35 Aloud,001,2022_Aug_30_1126,ProdSingRedoBetween,2021.2.3,59.95232591034925,
,,,,163,0,163,0,,,,,,,,,,,,,,,,,,,,,,1423.9220027999836,None,,,,,,,,,,,,,,,,,stand,10,164,aloud,old,yellow,1419.646508099977,None,1419.646508099977,None,1,1.8377582999528386,1419.646508099977,None,1.8377582999528386,1421.5041313999682,None,1422.0099090999574,None,1422.0099090999574,None,f,1.8823629000107758,1422.0099090999574,None,1.8823629000107758,,,35 Aloud,001,2022_Aug_30_1126,ProdSingRedoBetween,2021.2.3,59.95232591034925,
,,,,164,0,164,0,,,,,,,,,,,,,,,,,,,,,,1426.8249208999914,None,,,,,,,,,,,,,,,,,volume,178,165,aloud,new,null,1424.4325863999547,None,1424.4325863999547,None,1,1.411799900000915,1424.4325863999547,None,1.411799900000915,1425.8808898999705,None,1426.3912116999854,None,1426.3912116999854,None,n,0.4050375000224449,1426.3912116999854,None,0.4050375000224449,,,35 Aloud,001,2022_Aug_30_1126,ProdSingRedoBetween,2021.2.3,59.95232591034925,
,,,,165,0,165,0,,,,,,,,,,,,,,,,,,,,,,1429.563993299962,None,,,,,,,,,,,,,,,,,nation,154,166,aloud,new,null,1427.3267917999765,None,1427.3267917999765,None,1,1.6855166999739595,1427.3267917999765,None,1.6855166999739595,1429.0278919999837,None,1429.5274245999753,None,1429.5274245999753,None,n,0.012771300040185452,1429.5274245999753,None,0.012771300040185452,,,35 Aloud,001,2022_Aug_30_1126,ProdSingRedoBetween,2021.2.3,59.95232591034925,
,,,,166,0,166,0,,,,,,,,,,,,,,,,,,,,,,1432.3803430999978,None,,,,,,,,,,,,,,,,,order,147,167,aloud,new,null,1430.077977799985,None,1430.077977799985,None,1,1.3662718000123277,1430.077977799985,None,1.3662718000123277,1431.4633146999986,None,1431.9669197999756,None,1431.9669197999756,None,n,0.38939399999799207,1431.9669197999756,None,0.38939399999799207,,,35 Aloud,001,2022_Aug_30_1126,ProdSingRedoBetween,2021.2.3,59.95232591034925,
,,,,167,0,167,0,,,,,,,,,,,,,,,,,,,,,,1434.8662505999673,None,,,,,,,,,,,,,,,,,voice,53,168,aloud,old,blue,1432.8936185999773,None,1432.8936185999773,None,1,1.398663999978453,1432.8936185999773,None,1.398663999978453,1434.3168021999882,None,1434.8204953999957,None,1434.8204953999957,None,n,0.02397819998441264,1434.8204953999957,None,0.02397819998441264,,,35 Aloud,001,2022_Aug_30_1126,ProdSingRedoBetween,2021.2.3,59.95232591034925,
,,,,168,0,168,0,,,,,,,,,,,,,,,,,,,,,,1437.473082099983,None,,,,,,,,,,,,,,,,,quiet,172,169,aloud,new,null,1435.3705769999651,None,1435.3705769999651,None,1,1.529691300005652,1435.3705769999651,None,1.529691300005652,1436.9188760999823,None,1437.4233484999859,None,1437.4233484999859,None,n,0.021027700044214725,1437.4233484999859,None,0.021027700044214725,,,35 Aloud,001,2022_Aug_30_1126,ProdSingRedoBetween,2021.2.3,59.95232591034925,
,,,,169,0,169,0,,,,,,,,,,,,,,,,,,,,,,1439.837891699979,None,,,,,,,,,,,,,,,,,signal,155,170,aloud,new,null,1437.9883049000055,None,1437.9883049000055,None,1,1.2399985000374727,1437.9883049000055,None,1.2399985000374727,1439.2546419999562,None,1439.757647899969,None,1439.757647899969,None,n,0.054817199998069555,1439.757647899969,None,0.054817199998069555,,,35 Aloud,001,2022_Aug_30_1126,ProdSingRedoBetween,2021.2.3,59.95232591034925,
,,,,170,0,170,0,,,,,,,,,,,,,,,,,,,,,,1443.1078917999985,None,,,,,,,,,,,,,,,,,vision,174,171,aloud,new,null,1440.3522158999695,None,1440.3522158999695,None,3,1.9080638000159524,1440.3522158999695,None,1.9080638000159524,1442.294664599991,None,1442.8145560999983,None,1442.8145560999983,None,f,0.2697397999581881,1442.8145560999983,None,0.2697397999581881,,,35 Aloud,001,2022_Aug_30_1126,ProdSingRedoBetween,2021.2.3,59.95232591034925,
,,,,171,0,171,0,,,,,,,,,,,,,,,,,,,,,,1445.9442228999687,None,,,,,,,,,,,,,,,,,exchange,46,172,aloud,old,blue,1443.616083699977,None,1443.616083699977,None,1,1.3322823999915272,1443.616083699977,None,1.3322823999915272,1444.9765045999666,None,1445.4771305999602,None,1445.4771305999602,None,n,0.44706120004411787,1445.4771305999602,None,0.44706120004411787,,,35 Aloud,001,2022_Aug_30_1126,ProdSingRedoBetween,2021.2.3,59.95232591034925,
,,,,172,0,172,0,,,,,,,,,,,,,,,,,,,,,,1450.9156246999628,None,,,,,,,,,,,,,,,,,light,18,173,aloud,old,yellow,1446.4482922999887,None,1446.4482922999887,None,4,3.5640363999991678,1446.4482922999887,None,3.5640363999991678,1450.0330192999681,None,1450.5487057999708,None,1450.5487057999708,None,r,0.3515820000320673,1450.5487057999708,None,0.3515820000320673,,,35 Aloud,001,2022_Aug_30_1126,ProdSingRedoBetween,2021.2.3,59.95232591034925,
,,,,173,0,173,0,,,,,,,,,,,,,,,,,,,,,,1453.3680846999632,None,,,,,,,,,,,,,,,,,position,119,174,aloud,new,null,1451.4234017999843,None,1451.4234017999843,None,1,0.9649042999953963,1451.4234017999843,None,0.9649042999953963,1452.417989699985,None,1452.9222174999886,None,1452.9222174999886,None,n,0.4180416000308469,1452.9222174999886,None,0.4180416000308469,,,35 Aloud,001,2022_Aug_30_1126,ProdSingRedoBetween,2021.2.3,59.95232591034925,
,,,,174,0,174,0,,,,,,,,,,,,,,,,,,,,,,1455.6536899000057,None,,,,,,,,,,,,,,,,,shape,164,175,aloud,new,null,1453.8793349000043,None,1453.8793349000043,None,1,1.1089671999798156,1453.8793349000043,None,1.1089671999798156,1455.0204661999596,None,1455.5203983999672,None,1455.5203983999672,None,n,0.10797409998485819,1455.5203983999672,None,0.10797409998485819,,,35 Aloud,001,2022_Aug_30_1126,ProdSingRedoBetween,2021.2.3,59.95232591034925,
,,,,175,0,175,0,,,,,,,,,,,,,,,,,,,,,,1459.2406050999998,None,,,,,,,,,,,,,,,,,equipment,5,176,aloud,old,yellow,1456.159406199993,None,1456.159406199993,None,5,2.156877000001259,1456.159406199993,None,2.156877000001259,1458.342757699953,None,1458.8568543999572,None,1458.8568543999572,None,r,0.35544140002457425,1458.8568543999572,None,0.35544140002457425,,,35 Aloud,001,2022_Aug_30_1126,ProdSingRedoBetween,2021.2.3,59.95232591034925,
