StudyLoop.thisRepN,StudyLoop.thisTrialN,StudyLoop.thisN,StudyLoop.thisIndex,TestLoop.thisRepN,TestLoop.thisTrialN,TestLoop.thisN,TestLoop.thisIndex,textCondition.started,textCondition.stopped,keyCondition.keys,keyCondition.rt,keyCondition.started,keyCondition.stopped,Condition,textWelcome.started,textWelcome.stopped,keyWelcome.keys,keyWelcome.rt,keyWelcome.started,keyWelcome.stopped,textAloud.started,textAloud.stopped,textSilent.started,textSilent.stopped,textSing.started,textSing.stopped,conditional_text.started,conditional_text.stopped,textBlank500.started,textBlank500.stopped,study_word,study_num,study_order,study_type,word_color,textStudy.started,textStudy.stopped,keyStudy.keys,keyStudy.rt,keyStudy.started,keyStudy.stopped,textTestInstructions.started,textTestInstructions.stopped,key_resp_3.keys,key_resp_3.rt,key_resp_3.started,key_resp_3.stopped,test_word,test_num,test_order,test_condition,old_new_test,test_word_original_color,textConf.started,textConf.stopped,textConfScale.started,textConfScale.stopped,keyConf.keys,keyConf.rt,keyConf.started,keyConf.stopped,confidence response time,textTestBlank.started,textTestBlank.stopped,textRKN.started,textRKN.stopped,textRKNScale.started,textRKNScale.stopped,keyRKN.keys,keyRKN.rt,keyRKN.started,keyRKN.stopped,rkn response time,textEnd.started,textEnd.stopped,participant,session,date,expName,psychopyVersion,frameRate,
,,,,,,,,59.3093499999959,None,c,177.43090500001563,59.3093499999959,None,,,,,,,,,,,,,,,,,,,,,,,,,,,,,,,,,,,,,,,,,,,,,,,,,,,,,,,,,,,,,,,36 Sing,001,2022_Aug_30_1156,ProdSingRedoBetween,2021.2.3,59.966814349603034,
,,,,,,,,,,,,,,SingTest,236.7839490000042,None,space,13.772100800008047,236.7839490000042,None,,,,,,,,,,,,,,,,,,,,,,,,,,,,,,,,,,,,,,,,,,,,,,,,,,,,,,,,36 Sing,001,2022_Aug_30_1156,ProdSingRedoBetween,2021.2.3,59.966814349603034,
0,0,0,0,,,,,,,,,,,,,,,,,,236.7839490000042,None,236.7839490000042,None,236.7839490000042,None,236.7839490000042,None,253.08827539999038,None,position,70,1,sing,red,251.08638270001393,None,space,1.8858186000143178,251.08638270001393,None,,,,,,,,,,,,,,,,,,,,,,,,,,,,,,,,,,,36 Sing,001,2022_Aug_30_1156,ProdSingRedoBetween,2021.2.3,59.966814349603034,
1,0,1,0,,,,,,,,,,,,,,,,,,,,,,,,,,255.60764349997044,None,oxygen,50,2,sing,blue,253.5938739000121,None,None,,253.5938739000121,None,,,,,,,,,,,,,,,,,,,,,,,,,,,,,,,,,,,36 Sing,001,2022_Aug_30_1156,ProdSingRedoBetween,2021.2.3,59.966814349603034,
2,0,2,0,,,,,,,,,,,,,,,,,,,,,,,,,,258.1266177999787,None,level,54,3,sing,blue,256.1160048999591,None,None,,256.1160048999591,None,,,,,,,,,,,,,,,,,,,,,,,,,,,,,,,,,,,36 Sing,001,2022_Aug_30_1156,ProdSingRedoBetween,2021.2.3,59.966814349603034,
3,0,3,0,,,,,,,,,,,,,,,,,,,,,,,,,,260.62916670000413,None,council,37,4,sing,blue,258.626834900002,None,None,,258.626834900002,None,,,,,,,,,,,,,,,,,,,,,,,,,,,,,,,,,,,36 Sing,001,2022_Aug_30_1156,ProdSingRedoBetween,2021.2.3,59.966814349603034,
4,0,4,0,,,,,,,,,,,,,,,,,,,,,,,,,,263.1483939999598,None,testimony,47,5,sing,blue,261.1384904999868,None,None,,261.1384904999868,None,,,,,,,,,,,,,,,,,,,,,,,,,,,,,,,,,,,36 Sing,001,2022_Aug_30_1156,ProdSingRedoBetween,2021.2.3,59.966814349603034,
5,0,5,0,,,,,,,,,,,,,,,,,,,,,,,,,,265.6508387000067,None,match,89,6,sing,red,263.6489197000046,None,None,,263.6489197000046,None,,,,,,,,,,,,,,,,,,,,,,,,,,,,,,,,,,,36 Sing,001,2022_Aug_30_1156,ProdSingRedoBetween,2021.2.3,59.966814349603034,
6,0,6,0,,,,,,,,,,,,,,,,,,,,,,,,,,268.1700656999601,None,trail,88,7,sing,red,266.1551319999853,None,None,,266.1551319999853,None,,,,,,,,,,,,,,,,,,,,,,,,,,,,,,,,,,,36 Sing,001,2022_Aug_30_1156,ProdSingRedoBetween,2021.2.3,59.966814349603034,
7,0,7,0,,,,,,,,,,,,,,,,,,,,,,,,,,270.67235399998026,None,pattern,57,8,sing,blue,268.6705292999977,None,None,,268.6705292999977,None,,,,,,,,,,,,,,,,,,,,,,,,,,,,,,,,,,,36 Sing,001,2022_Aug_30_1156,ProdSingRedoBetween,2021.2.3,59.966814349603034,
8,0,8,0,,,,,,,,,,,,,,,,,,,,,,,,,,273.17503370001214,None,smell,80,9,sing,red,271.1740968999802,None,None,,271.1740968999802,None,,,,,,,,,,,,,,,,,,,,,,,,,,,,,,,,,,,36 Sing,001,2022_Aug_30_1156,ProdSingRedoBetween,2021.2.3,59.966814349603034,
9,0,9,0,,,,,,,,,,,,,,,,,,,,,,,,,,275.69383939995896,None,finish,45,10,sing,blue,273.68001539999386,None,None,,273.68001539999386,None,,,,,,,,,,,,,,,,,,,,,,,,,,,,,,,,,,,36 Sing,001,2022_Aug_30_1156,ProdSingRedoBetween,2021.2.3,59.966814349603034,
10,0,10,0,,,,,,,,,,,,,,,,,,,,,,,,,,278.1964850999648,None,sweet,74,11,sing,red,276.1947571999626,None,None,,276.1947571999626,None,,,,,,,,,,,,,,,,,,,,,,,,,,,,,,,,,,,36 Sing,001,2022_Aug_30_1156,ProdSingRedoBetween,2021.2.3,59.966814349603034,
11,0,11,0,,,,,,,,,,,,,,,,,,,,,,,,,,280.6991790999891,None,piece,41,12,sing,blue,278.6969061999698,None,None,,278.6969061999698,None,,,,,,,,,,,,,,,,,,,,,,,,,,,,,,,,,,,36 Sing,001,2022_Aug_30_1156,ProdSingRedoBetween,2021.2.3,59.966814349603034,
12,0,12,0,,,,,,,,,,,,,,,,,,,,,,,,,,283.2017462999793,None,watch,61,13,sing,red,281.2002085999702,None,None,,281.2002085999702,None,,,,,,,,,,,,,,,,,,,,,,,,,,,,,,,,,,,36 Sing,001,2022_Aug_30_1156,ProdSingRedoBetween,2021.2.3,59.966814349603034,
13,0,13,0,,,,,,,,,,,,,,,,,,,,,,,,,,285.7208832000033,None,music,67,14,sing,red,283.70935710001504,None,None,,283.70935710001504,None,,,,,,,,,,,,,,,,,,,,,,,,,,,,,,,,,,,36 Sing,001,2022_Aug_30_1156,ProdSingRedoBetween,2021.2.3,59.966814349603034,
14,0,14,0,,,,,,,,,,,,,,,,,,,,,,,,,,288.2399280999671,None,platform,1,15,sing,yellow,286.23173459997633,None,None,,286.23173459997633,None,,,,,,,,,,,,,,,,,,,,,,,,,,,,,,,,,,,36 Sing,001,2022_Aug_30_1156,ProdSingRedoBetween,2021.2.3,59.966814349603034,
15,0,15,0,,,,,,,,,,,,,,,,,,,,,,,,,,290.7425566999591,None,owner,19,16,sing,yellow,288.74036619998515,None,None,,288.74036619998515,None,,,,,,,,,,,,,,,,,,,,,,,,,,,,,,,,,,,36 Sing,001,2022_Aug_30_1156,ProdSingRedoBetween,2021.2.3,59.966814349603034,
16,0,16,0,,,,,,,,,,,,,,,,,,,,,,,,,,293.2450518999831,None,property,4,17,sing,yellow,291.24319349997677,None,None,,291.24319349997677,None,,,,,,,,,,,,,,,,,,,,,,,,,,,,,,,,,,,36 Sing,001,2022_Aug_30_1156,ProdSingRedoBetween,2021.2.3,59.966814349603034,
17,0,17,0,,,,,,,,,,,,,,,,,,,,,,,,,,295.7475821999833,None,angle,39,18,sing,blue,293.7459871000028,None,None,,293.7459871000028,None,,,,,,,,,,,,,,,,,,,,,,,,,,,,,,,,,,,36 Sing,001,2022_Aug_30_1156,ProdSingRedoBetween,2021.2.3,59.966814349603034,
18,0,18,0,,,,,,,,,,,,,,,,,,,,,,,,,,298.2666929999832,None,equipment,46,19,sing,blue,296.26050029997714,None,None,,296.26050029997714,None,,,,,,,,,,,,,,,,,,,,,,,,,,,,,,,,,,,36 Sing,001,2022_Aug_30_1156,ProdSingRedoBetween,2021.2.3,59.966814349603034,
19,0,19,0,,,,,,,,,,,,,,,,,,,,,,,,,,300.7692284999648,None,stand,83,20,sing,red,298.76720199995907,None,None,,298.76720199995907,None,,,,,,,,,,,,,,,,,,,,,,,,,,,,,,,,,,,36 Sing,001,2022_Aug_30_1156,ProdSingRedoBetween,2021.2.3,59.966814349603034,
20,0,20,0,,,,,,,,,,,,,,,,,,,,,,,,,,303.2883631999721,None,fashion,16,21,sing,yellow,301.2731003999943,None,None,,301.2731003999943,None,,,,,,,,,,,,,,,,,,,,,,,,,,,,,,,,,,,36 Sing,001,2022_Aug_30_1156,ProdSingRedoBetween,2021.2.3,59.966814349603034,
21,0,21,0,,,,,,,,,,,,,,,,,,,,,,,,,,305.8076548000099,None,brief,52,22,sing,blue,303.7945591000025,None,None,,303.7945591000025,None,,,,,,,,,,,,,,,,,,,,,,,,,,,,,,,,,,,36 Sing,001,2022_Aug_30_1156,ProdSingRedoBetween,2021.2.3,59.966814349603034,
22,0,22,0,,,,,,,,,,,,,,,,,,,,,,,,,,308.31001889996696,None,object,40,23,sing,blue,306.30791889998363,None,None,,306.30791889998363,None,,,,,,,,,,,,,,,,,,,,,,,,,,,,,,,,,,,36 Sing,001,2022_Aug_30_1156,ProdSingRedoBetween,2021.2.3,59.966814349603034,
23,0,23,0,,,,,,,,,,,,,,,,,,,,,,,,,,310.8126047999831,None,title,59,24,sing,yellow,308.81054109998513,None,None,,308.81054109998513,None,,,,,,,,,,,,,,,,,,,,,,,,,,,,,,,,,,,36 Sing,001,2022_Aug_30_1156,ProdSingRedoBetween,2021.2.3,59.966814349603034,
24,0,24,0,,,,,,,,,,,,,,,,,,,,,,,,,,313.31511269998737,None,direction,55,25,sing,blue,311.3149441999849,None,None,,311.3149441999849,None,,,,,,,,,,,,,,,,,,,,,,,,,,,,,,,,,,,36 Sing,001,2022_Aug_30_1156,ProdSingRedoBetween,2021.2.3,59.966814349603034,
25,0,25,0,,,,,,,,,,,,,,,,,,,,,,,,,,315.81752509996295,None,rural,73,26,sing,red,313.8184016000014,None,None,,313.8184016000014,None,,,,,,,,,,,,,,,,,,,,,,,,,,,,,,,,,,,36 Sing,001,2022_Aug_30_1156,ProdSingRedoBetween,2021.2.3,59.966814349603034,
26,0,26,0,,,,,,,,,,,,,,,,,,,,,,,,,,318.3364523999626,None,addition,85,27,sing,red,316.323874099995,None,None,,316.323874099995,None,,,,,,,,,,,,,,,,,,,,,,,,,,,,,,,,,,,36 Sing,001,2022_Aug_30_1156,ProdSingRedoBetween,2021.2.3,59.966814349603034,
27,0,27,0,,,,,,,,,,,,,,,,,,,,,,,,,,320.83924469997874,None,quantity,82,28,sing,red,318.83724319998873,None,None,,318.83724319998873,None,,,,,,,,,,,,,,,,,,,,,,,,,,,,,,,,,,,36 Sing,001,2022_Aug_30_1156,ProdSingRedoBetween,2021.2.3,59.966814349603034,
28,0,28,0,,,,,,,,,,,,,,,,,,,,,,,,,,323.3582184999832,None,empty,48,29,sing,blue,321.3435864999774,None,None,,321.3435864999774,None,,,,,,,,,,,,,,,,,,,,,,,,,,,,,,,,,,,36 Sing,001,2022_Aug_30_1156,ProdSingRedoBetween,2021.2.3,59.966814349603034,
29,0,29,0,,,,,,,,,,,,,,,,,,,,,,,,,,325.8609727000003,None,permit,25,30,sing,yellow,323.8585909999674,None,None,,323.8585909999674,None,,,,,,,,,,,,,,,,,,,,,,,,,,,,,,,,,,,36 Sing,001,2022_Aug_30_1156,ProdSingRedoBetween,2021.2.3,59.966814349603034,
30,0,30,0,,,,,,,,,,,,,,,,,,,,,,,,,,328.380196699989,None,dance,2,31,sing,yellow,326.3714534000028,None,None,,326.3714534000028,None,,,,,,,,,,,,,,,,,,,,,,,,,,,,,,,,,,,36 Sing,001,2022_Aug_30_1156,ProdSingRedoBetween,2021.2.3,59.966814349603034,
31,0,31,0,,,,,,,,,,,,,,,,,,,,,,,,,,330.89931499998784,None,dozen,36,32,sing,blue,328.8841994999675,None,None,,328.8841994999675,None,,,,,,,,,,,,,,,,,,,,,,,,,,,,,,,,,,,36 Sing,001,2022_Aug_30_1156,ProdSingRedoBetween,2021.2.3,59.966814349603034,
32,0,32,0,,,,,,,,,,,,,,,,,,,,,,,,,,333.4185043000034,None,review,8,33,sing,yellow,331.40307840000605,None,None,,331.40307840000605,None,,,,,,,,,,,,,,,,,,,,,,,,,,,,,,,,,,,36 Sing,001,2022_Aug_30_1156,ProdSingRedoBetween,2021.2.3,59.966814349603034,
33,0,33,0,,,,,,,,,,,,,,,,,,,,,,,,,,335.9209921999718,None,country,60,34,sing,red,333.91906069999095,None,None,,333.91906069999095,None,,,,,,,,,,,,,,,,,,,,,,,,,,,,,,,,,,,36 Sing,001,2022_Aug_30_1156,ProdSingRedoBetween,2021.2.3,59.966814349603034,
34,0,34,0,,,,,,,,,,,,,,,,,,,,,,,,,,338.4236518999678,None,novel,68,35,sing,red,336.42207309999503,None,None,,336.42207309999503,None,,,,,,,,,,,,,,,,,,,,,,,,,,,,,,,,,,,36 Sing,001,2022_Aug_30_1156,ProdSingRedoBetween,2021.2.3,59.966814349603034,
35,0,35,0,,,,,,,,,,,,,,,,,,,,,,,,,,340.942613399995,None,universal,56,36,sing,blue,338.9269099999801,None,None,,338.9269099999801,None,,,,,,,,,,,,,,,,,,,,,,,,,,,,,,,,,,,36 Sing,001,2022_Aug_30_1156,ProdSingRedoBetween,2021.2.3,59.966814349603034,
36,0,36,0,,,,,,,,,,,,,,,,,,,,,,,,,,343.4451364999986,None,command,31,37,sing,blue,341.44323889998486,None,None,,341.44323889998486,None,,,,,,,,,,,,,,,,,,,,,,,,,,,,,,,,,,,36 Sing,001,2022_Aug_30_1156,ProdSingRedoBetween,2021.2.3,59.966814349603034,
37,0,37,0,,,,,,,,,,,,,,,,,,,,,,,,,,345.9473944999627,None,election,30,38,sing,blue,343.9471732999664,None,None,,343.9471732999664,None,,,,,,,,,,,,,,,,,,,,,,,,,,,,,,,,,,,36 Sing,001,2022_Aug_30_1156,ProdSingRedoBetween,2021.2.3,59.966814349603034,
38,0,38,0,,,,,,,,,,,,,,,,,,,,,,,,,,348.4665008999873,None,disease,72,39,sing,red,346.45391290000407,None,None,,346.45391290000407,None,,,,,,,,,,,,,,,,,,,,,,,,,,,,,,,,,,,36 Sing,001,2022_Aug_30_1156,ProdSingRedoBetween,2021.2.3,59.966814349603034,
39,0,39,0,,,,,,,,,,,,,,,,,,,,,,,,,,350.96927120001055,None,generation,71,40,sing,red,348.9672487999778,None,None,,348.9672487999778,None,,,,,,,,,,,,,,,,,,,,,,,,,,,,,,,,,,,36 Sing,001,2022_Aug_30_1156,ProdSingRedoBetween,2021.2.3,59.966814349603034,
40,0,40,0,,,,,,,,,,,,,,,,,,,,,,,,,,353.4884812000091,None,subject,53,41,sing,blue,351.47313449997455,None,None,,351.47313449997455,None,,,,,,,,,,,,,,,,,,,,,,,,,,,,,,,,,,,36 Sing,001,2022_Aug_30_1156,ProdSingRedoBetween,2021.2.3,59.966814349603034,
41,0,41,0,,,,,,,,,,,,,,,,,,,,,,,,,,356.0077112999861,None,collection,33,42,sing,blue,353.99412369995844,None,None,,353.99412369995844,None,,,,,,,,,,,,,,,,,,,,,,,,,,,,,,,,,,,36 Sing,001,2022_Aug_30_1156,ProdSingRedoBetween,2021.2.3,59.966814349603034,
42,0,42,0,,,,,,,,,,,,,,,,,,,,,,,,,,358.5103466999717,None,guard,24,43,sing,yellow,356.5090781999752,None,None,,356.5090781999752,None,,,,,,,,,,,,,,,,,,,,,,,,,,,,,,,,,,,36 Sing,001,2022_Aug_30_1156,ProdSingRedoBetween,2021.2.3,59.966814349603034,
43,0,43,0,,,,,,,,,,,,,,,,,,,,,,,,,,361.01263169996673,None,place,9,44,sing,yellow,359.0115086999722,None,None,,359.0115086999722,None,,,,,,,,,,,,,,,,,,,,,,,,,,,,,,,,,,,36 Sing,001,2022_Aug_30_1156,ProdSingRedoBetween,2021.2.3,59.966814349603034,
44,0,44,0,,,,,,,,,,,,,,,,,,,,,,,,,,363.51512140000705,None,evidence,18,45,sing,yellow,361.51296339998953,None,None,,361.51296339998953,None,,,,,,,,,,,,,,,,,,,,,,,,,,,,,,,,,,,36 Sing,001,2022_Aug_30_1156,ProdSingRedoBetween,2021.2.3,59.966814349603034,
45,0,45,0,,,,,,,,,,,,,,,,,,,,,,,,,,366.01761579996673,None,danger,34,46,sing,blue,364.01568879996194,None,None,,364.01568879996194,None,,,,,,,,,,,,,,,,,,,,,,,,,,,,,,,,,,,36 Sing,001,2022_Aug_30_1156,ProdSingRedoBetween,2021.2.3,59.966814349603034,
46,0,46,0,,,,,,,,,,,,,,,,,,,,,,,,,,368.5201148999622,None,entrance,75,47,sing,red,366.5180466999882,None,None,,366.5180466999882,None,,,,,,,,,,,,,,,,,,,,,,,,,,,,,,,,,,,36 Sing,001,2022_Aug_30_1156,ProdSingRedoBetween,2021.2.3,59.966814349603034,
47,0,47,0,,,,,,,,,,,,,,,,,,,,,,,,,,371.0226152999676,None,color,0,48,sing,yellow,369.0206490000128,None,None,,369.0206490000128,None,,,,,,,,,,,,,,,,,,,,,,,,,,,,,,,,,,,36 Sing,001,2022_Aug_30_1156,ProdSingRedoBetween,2021.2.3,59.966814349603034,
48,0,48,0,,,,,,,,,,,,,,,,,,,,,,,,,,373.5251541999751,None,relation,11,49,sing,yellow,371.52586579998024,None,None,,371.52586579998024,None,,,,,,,,,,,,,,,,,,,,,,,,,,,,,,,,,,,36 Sing,001,2022_Aug_30_1156,ProdSingRedoBetween,2021.2.3,59.966814349603034,
49,0,49,0,,,,,,,,,,,,,,,,,,,,,,,,,,376.0276243999833,None,column,29,50,sing,blue,374.0282397000119,None,None,,374.0282397000119,None,,,,,,,,,,,,,,,,,,,,,,,,,,,,,,,,,,,36 Sing,001,2022_Aug_30_1156,ProdSingRedoBetween,2021.2.3,59.966814349603034,
50,0,50,0,,,,,,,,,,,,,,,,,,,,,,,,,,378.5299544999725,None,discussion,79,51,sing,red,376.52817750000395,None,None,,376.52817750000395,None,,,,,,,,,,,,,,,,,,,,,,,,,,,,,,,,,,,36 Sing,001,2022_Aug_30_1156,ProdSingRedoBetween,2021.2.3,59.966814349603034,
51,0,51,0,,,,,,,,,,,,,,,,,,,,,,,,,,381.03258080000523,None,heavy,58,52,sing,blue,379.0306028999621,None,None,,379.0306028999621,None,,,,,,,,,,,,,,,,,,,,,,,,,,,,,,,,,,,36 Sing,001,2022_Aug_30_1156,ProdSingRedoBetween,2021.2.3,59.966814349603034,
52,0,52,0,,,,,,,,,,,,,,,,,,,,,,,,,,383.5517991000088,None,agreement,84,53,sing,red,381.53648959996644,None,None,,381.53648959996644,None,,,,,,,,,,,,,,,,,,,,,,,,,,,,,,,,,,,36 Sing,001,2022_Aug_30_1156,ProdSingRedoBetween,2021.2.3,59.966814349603034,
53,0,53,0,,,,,,,,,,,,,,,,,,,,,,,,,,386.05437639995944,None,literature,20,54,sing,yellow,384.0536761999829,None,None,,384.0536761999829,None,,,,,,,,,,,,,,,,,,,,,,,,,,,,,,,,,,,36 Sing,001,2022_Aug_30_1156,ProdSingRedoBetween,2021.2.3,59.966814349603034,
54,0,54,0,,,,,,,,,,,,,,,,,,,,,,,,,,388.55662109999685,None,pancakes,6,55,sing,yellow,386.5547384999809,None,None,,386.5547384999809,None,,,,,,,,,,,,,,,,,,,,,,,,,,,,,,,,,,,36 Sing,001,2022_Aug_30_1156,ProdSingRedoBetween,2021.2.3,59.966814349603034,
55,0,55,0,,,,,,,,,,,,,,,,,,,,,,,,,,391.05940339999506,None,strain,78,56,sing,red,389.05734160001157,None,None,,389.05734160001157,None,,,,,,,,,,,,,,,,,,,,,,,,,,,,,,,,,,,36 Sing,001,2022_Aug_30_1156,ProdSingRedoBetween,2021.2.3,59.966814349603034,
56,0,56,0,,,,,,,,,,,,,,,,,,,,,,,,,,393.578520799987,None,government,49,57,sing,blue,391.56297049997374,None,None,,391.56297049997374,None,,,,,,,,,,,,,,,,,,,,,,,,,,,,,,,,,,,36 Sing,001,2022_Aug_30_1156,ProdSingRedoBetween,2021.2.3,59.966814349603034,
57,0,57,0,,,,,,,,,,,,,,,,,,,,,,,,,,396.0809611000004,None,short,12,58,sing,yellow,394.0811518999981,None,None,,394.0811518999981,None,,,,,,,,,,,,,,,,,,,,,,,,,,,,,,,,,,,36 Sing,001,2022_Aug_30_1156,ProdSingRedoBetween,2021.2.3,59.966814349603034,
58,0,58,0,,,,,,,,,,,,,,,,,,,,,,,,,,398.6000267000054,None,listen,23,59,sing,yellow,396.5863723999937,None,None,,396.5863723999937,None,,,,,,,,,,,,,,,,,,,,,,,,,,,,,,,,,,,36 Sing,001,2022_Aug_30_1156,ProdSingRedoBetween,2021.2.3,59.966814349603034,
59,0,59,0,,,,,,,,,,,,,,,,,,,,,,,,,,401.10268129996257,None,center,69,60,sing,red,399.1010457999655,None,None,,399.1010457999655,None,,,,,,,,,,,,,,,,,,,,,,,,,,,,,,,,,,,36 Sing,001,2022_Aug_30_1156,ProdSingRedoBetween,2021.2.3,59.966814349603034,
60,0,60,0,,,,,,,,,,,,,,,,,,,,,,,,,,403.6052376999869,None,impact,76,61,sing,red,401.60623520001536,None,None,,401.60623520001536,None,,,,,,,,,,,,,,,,,,,,,,,,,,,,,,,,,,,36 Sing,001,2022_Aug_30_1156,ProdSingRedoBetween,2021.2.3,59.966814349603034,
61,0,61,0,,,,,,,,,,,,,,,,,,,,,,,,,,406.1243543999735,None,shear,27,62,sing,yellow,404.11060459999135,None,None,,404.11060459999135,None,,,,,,,,,,,,,,,,,,,,,,,,,,,,,,,,,,,36 Sing,001,2022_Aug_30_1156,ProdSingRedoBetween,2021.2.3,59.966814349603034,
62,0,62,0,,,,,,,,,,,,,,,,,,,,,,,,,,408.6266767999623,None,marriage,42,63,sing,blue,406.62486300000455,None,None,,406.62486300000455,None,,,,,,,,,,,,,,,,,,,,,,,,,,,,,,,,,,,36 Sing,001,2022_Aug_30_1156,ProdSingRedoBetween,2021.2.3,59.966814349603034,
63,0,63,0,,,,,,,,,,,,,,,,,,,,,,,,,,411.12915789999533,None,bicycle,44,64,sing,blue,409.12779900000896,None,None,,409.12779900000896,None,,,,,,,,,,,,,,,,,,,,,,,,,,,,,,,,,,,36 Sing,001,2022_Aug_30_1156,ProdSingRedoBetween,2021.2.3,59.966814349603034,
64,0,64,0,,,,,,,,,,,,,,,,,,,,,,,,,,413.63196169998264,None,hearing,21,65,sing,yellow,411.6298197999713,None,None,,411.6298197999713,None,,,,,,,,,,,,,,,,,,,,,,,,,,,,,,,,,,,36 Sing,001,2022_Aug_30_1156,ProdSingRedoBetween,2021.2.3,59.966814349603034,
65,0,65,0,,,,,,,,,,,,,,,,,,,,,,,,,,416.13435800001025,None,bucket,17,66,sing,yellow,414.13236250000773,None,None,,414.13236250000773,None,,,,,,,,,,,,,,,,,,,,,,,,,,,,,,,,,,,36 Sing,001,2022_Aug_30_1156,ProdSingRedoBetween,2021.2.3,59.966814349603034,
66,0,66,0,,,,,,,,,,,,,,,,,,,,,,,,,,418.6368882000097,None,leader,13,67,sing,yellow,416.6353187999921,None,None,,416.6353187999921,None,,,,,,,,,,,,,,,,,,,,,,,,,,,,,,,,,,,36 Sing,001,2022_Aug_30_1156,ProdSingRedoBetween,2021.2.3,59.966814349603034,
67,0,67,0,,,,,,,,,,,,,,,,,,,,,,,,,,421.1560582999955,None,orchestra,66,68,sing,red,419.14088799996534,None,None,,419.14088799996534,None,,,,,,,,,,,,,,,,,,,,,,,,,,,,,,,,,,,36 Sing,001,2022_Aug_30_1156,ProdSingRedoBetween,2021.2.3,59.966814349603034,
68,0,68,0,,,,,,,,,,,,,,,,,,,,,,,,,,423.6752856000094,None,department,26,69,sing,yellow,421.6656626999611,None,None,,421.6656626999611,None,,,,,,,,,,,,,,,,,,,,,,,,,,,,,,,,,,,36 Sing,001,2022_Aug_30_1156,ProdSingRedoBetween,2021.2.3,59.966814349603034,
69,0,69,0,,,,,,,,,,,,,,,,,,,,,,,,,,426.17771479999647,None,reach,65,70,sing,red,424.1759820000152,None,None,,424.1759820000152,None,,,,,,,,,,,,,,,,,,,,,,,,,,,,,,,,,,,36 Sing,001,2022_Aug_30_1156,ProdSingRedoBetween,2021.2.3,59.966814349603034,
70,0,70,0,,,,,,,,,,,,,,,,,,,,,,,,,,428.68022839998594,None,suspect,5,71,sing,yellow,426.67826409998816,None,None,,426.67826409998816,None,,,,,,,,,,,,,,,,,,,,,,,,,,,,,,,,,,,36 Sing,001,2022_Aug_30_1156,ProdSingRedoBetween,2021.2.3,59.966814349603034,
71,0,71,0,,,,,,,,,,,,,,,,,,,,,,,,,,431.1993661999586,None,military,43,72,sing,blue,429.1851308000041,None,None,,429.1851308000041,None,,,,,,,,,,,,,,,,,,,,,,,,,,,,,,,,,,,36 Sing,001,2022_Aug_30_1156,ProdSingRedoBetween,2021.2.3,59.966814349603034,
72,0,72,0,,,,,,,,,,,,,,,,,,,,,,,,,,433.70192700001644,None,couch,10,73,sing,yellow,431.7012321999646,None,None,,431.7012321999646,None,,,,,,,,,,,,,,,,,,,,,,,,,,,,,,,,,,,36 Sing,001,2022_Aug_30_1156,ProdSingRedoBetween,2021.2.3,59.966814349603034,
73,0,73,0,,,,,,,,,,,,,,,,,,,,,,,,,,436.2043836999801,None,damage,38,74,sing,blue,434.20244470000034,None,None,,434.20244470000034,None,,,,,,,,,,,,,,,,,,,,,,,,,,,,,,,,,,,36 Sing,001,2022_Aug_30_1156,ProdSingRedoBetween,2021.2.3,59.966814349603034,
74,0,74,0,,,,,,,,,,,,,,,,,,,,,,,,,,438.70653899997706,None,employment,32,75,sing,blue,436.7049955999828,None,None,,436.7049955999828,None,,,,,,,,,,,,,,,,,,,,,,,,,,,,,,,,,,,36 Sing,001,2022_Aug_30_1156,ProdSingRedoBetween,2021.2.3,59.966814349603034,
75,0,75,0,,,,,,,,,,,,,,,,,,,,,,,,,,441.209366999974,None,territory,77,76,sing,red,439.20834929996636,None,None,,439.20834929996636,None,,,,,,,,,,,,,,,,,,,,,,,,,,,,,,,,,,,36 Sing,001,2022_Aug_30_1156,ProdSingRedoBetween,2021.2.3,59.966814349603034,
76,0,76,0,,,,,,,,,,,,,,,,,,,,,,,,,,443.7118760999874,None,passage,15,77,sing,yellow,441.71182659995975,None,None,,441.71182659995975,None,,,,,,,,,,,,,,,,,,,,,,,,,,,,,,,,,,,36 Sing,001,2022_Aug_30_1156,ProdSingRedoBetween,2021.2.3,59.966814349603034,
77,0,77,0,,,,,,,,,,,,,,,,,,,,,,,,,,446.23113480000757,None,appearance,51,78,sing,blue,444.22129129996756,None,None,,444.22129129996756,None,,,,,,,,,,,,,,,,,,,,,,,,,,,,,,,,,,,36 Sing,001,2022_Aug_30_1156,ProdSingRedoBetween,2021.2.3,59.966814349603034,
78,0,78,0,,,,,,,,,,,,,,,,,,,,,,,,,,448.7335860999883,None,search,86,79,sing,red,446.7315581999719,None,None,,446.7315581999719,None,,,,,,,,,,,,,,,,,,,,,,,,,,,,,,,,,,,36 Sing,001,2022_Aug_30_1156,ProdSingRedoBetween,2021.2.3,59.966814349603034,
79,0,79,0,,,,,,,,,,,,,,,,,,,,,,,,,,451.2528128999984,None,skill,81,80,sing,red,449.24253150000004,None,None,,449.24253150000004,None,,,,,,,,,,,,,,,,,,,,,,,,,,,,,,,,,,,36 Sing,001,2022_Aug_30_1156,ProdSingRedoBetween,2021.2.3,59.966814349603034,
80,0,80,0,,,,,,,,,,,,,,,,,,,,,,,,,,453.7550244999584,None,figure,28,81,sing,yellow,451.7559037999599,None,None,,451.7559037999599,None,,,,,,,,,,,,,,,,,,,,,,,,,,,,,,,,,,,36 Sing,001,2022_Aug_30_1156,ProdSingRedoBetween,2021.2.3,59.966814349603034,
81,0,81,0,,,,,,,,,,,,,,,,,,,,,,,,,,456.2744162000017,None,corner,64,82,sing,red,454.2611614000052,None,None,,454.2611614000052,None,,,,,,,,,,,,,,,,,,,,,,,,,,,,,,,,,,,36 Sing,001,2022_Aug_30_1156,ProdSingRedoBetween,2021.2.3,59.966814349603034,
82,0,82,0,,,,,,,,,,,,,,,,,,,,,,,,,,458.77706309995847,None,carry,7,83,sing,yellow,456.7765162999858,None,None,,456.7765162999858,None,,,,,,,,,,,,,,,,,,,,,,,,,,,,,,,,,,,36 Sing,001,2022_Aug_30_1156,ProdSingRedoBetween,2021.2.3,59.966814349603034,
83,0,83,0,,,,,,,,,,,,,,,,,,,,,,,,,,461.2960645999992,None,goose,3,84,sing,yellow,459.28657699999167,None,None,,459.28657699999167,None,,,,,,,,,,,,,,,,,,,,,,,,,,,,,,,,,,,36 Sing,001,2022_Aug_30_1156,ProdSingRedoBetween,2021.2.3,59.966814349603034,
84,0,84,0,,,,,,,,,,,,,,,,,,,,,,,,,,463.81535459996667,None,interview,63,85,sing,red,461.79976769996574,None,None,,461.79976769996574,None,,,,,,,,,,,,,,,,,,,,,,,,,,,,,,,,,,,36 Sing,001,2022_Aug_30_1156,ProdSingRedoBetween,2021.2.3,59.966814349603034,
85,0,85,0,,,,,,,,,,,,,,,,,,,,,,,,,,466.31780809996417,None,birth,87,86,sing,red,464.31576550001046,None,None,,464.31576550001046,None,,,,,,,,,,,,,,,,,,,,,,,,,,,,,,,,,,,36 Sing,001,2022_Aug_30_1156,ProdSingRedoBetween,2021.2.3,59.966814349603034,
86,0,86,0,,,,,,,,,,,,,,,,,,,,,,,,,,468.82024609996006,None,under,35,87,sing,blue,466.82051180000417,None,None,,466.82051180000417,None,,,,,,,,,,,,,,,,,,,,,,,,,,,,,,,,,,,36 Sing,001,2022_Aug_30_1156,ProdSingRedoBetween,2021.2.3,59.966814349603034,
87,0,87,0,,,,,,,,,,,,,,,,,,,,,,,,,,471.32274709997,None,state,14,88,sing,yellow,469.32064639998134,None,None,,469.32064639998134,None,,,,,,,,,,,,,,,,,,,,,,,,,,,,,,,,,,,36 Sing,001,2022_Aug_30_1156,ProdSingRedoBetween,2021.2.3,59.966814349603034,
88,0,88,0,,,,,,,,,,,,,,,,,,,,,,,,,,473.8268021999975,None,express,62,89,sing,red,471.8232523999759,None,None,,471.8232523999759,None,,,,,,,,,,,,,,,,,,,,,,,,,,,,,,,,,,,36 Sing,001,2022_Aug_30_1156,ProdSingRedoBetween,2021.2.3,59.966814349603034,
89,0,89,0,,,,,,,,,,,,,,,,,,,,,,,,,,476.3444989999989,None,device,22,90,sing,yellow,474.3438948999974,None,None,,474.3438948999974,None,,,,,,,,,,,,,,,,,,,,,,,,,,,,,,,,,,,36 Sing,001,2022_Aug_30_1156,ProdSingRedoBetween,2021.2.3,59.966814349603034,
,,,,,,,,,,,,,,,,,,,,,,,,,,,,,,,,,,,,,,,,,,476.8452116000117,None,k,49.430516199965496,476.8452116000117,None,,,,,,,,,,,,,,,,,,,,,,,,,,,,,36 Sing,001,2022_Aug_30_1156,ProdSingRedoBetween,2021.2.3,59.966814349603034,
,,,,0,0,0,0,,,,,,,,,,,,,,,,,,,,,,534.502434999973,None,,,,,,,,,,,,,,,,,,error,161,1,sing,new,null,526.8122181000072,None,526.8122181000072,None,3,4.711472499999218,526.8122181000072,None,4.711472499999218,531.5522506000125,None,532.0667539999704,None,532.0667539999704,None,f,2.4090110999532044,532.0667539999704,None,2.4090110999532044,,,36 Sing,001,2022_Aug_30_1156,ProdSingRedoBetween,2021.2.3,59.966814349603034,
,,,,1,0,1,0,,,,,,,,,,,,,,,,,,,,,,540.5751629999722,None,,,,,,,,,,,,,,,,,,little,146,2,sing,new,null,535.0122881999705,None,535.0122881999705,None,1,2.5355572999687865,535.0122881999705,None,2.5355572999687865,537.5790170999826,None,538.0903246999951,None,538.0903246999951,None,n,2.4574149000109173,538.0903246999951,None,2.4574149000109173,,,36 Sing,001,2022_Aug_30_1156,ProdSingRedoBetween,2021.2.3,59.966814349603034,
,,,,2,0,2,0,,,,,,,,,,,,,,,,,,,,,,546.7313605999807,None,,,,,,,,,,,,,,,,,,title,59,3,sing,old,yellow,541.0871077000047,None,541.0871077000047,None,3,3.5806795000098646,541.0871077000047,None,3.5806795000098646,544.6959588999744,None,545.2018434999627,None,545.2018434999627,None,f,1.5059226999874227,545.2018434999627,None,1.5059226999874227,,,36 Sing,001,2022_Aug_30_1156,ProdSingRedoBetween,2021.2.3,59.966814349603034,
,,,,3,0,3,0,,,,,,,,,,,,,,,,,,,,,,553.0380297999945,None,,,,,,,,,,,,,,,,,,state,14,4,sing,old,yellow,547.2471112000057,None,547.2471112000057,None,6,3.2126412999932654,547.2471112000057,None,3.2126412999932654,550.4864210999804,None,550.9857488999842,None,550.9857488999842,None,r,2.0339284000219777,550.9857488999842,None,2.0339284000219777,,,36 Sing,001,2022_Aug_30_1156,ProdSingRedoBetween,2021.2.3,59.966814349603034,
,,,,4,0,4,0,,,,,,,,,,,,,,,,,,,,,,556.6078892999794,None,,,,,,,,,,,,,,,,,,novel,68,5,sing,old,red,553.5393215999939,None,553.5393215999939,None,1,2.0324001000262797,553.5393215999939,None,2.0324001000262797,555.5914280000143,None,556.090929900005,None,556.090929900005,None,n,0.4969683999661356,556.090929900005,None,0.4969683999661356,,,36 Sing,001,2022_Aug_30_1156,ProdSingRedoBetween,2021.2.3,59.966814349603034,
,,,,5,0,5,0,,,,,,,,,,,,,,,,,,,,,,562.3803762999596,None,,,,,,,,,,,,,,,,,,election,30,6,sing,old,blue,557.1154219000018,None,557.1154219000018,None,6,2.784303100022953,557.1154219000018,None,2.784303100022953,559.927848399966,None,560.4284977999632,None,560.4284977999632,None,r,1.9352581999846734,560.4284977999632,None,1.9352581999846734,,,36 Sing,001,2022_Aug_30_1156,ProdSingRedoBetween,2021.2.3,59.966814349603034,
,,,,6,0,6,0,,,,,,,,,,,,,,,,,,,,,,568.3371533000027,None,,,,,,,,,,,,,,,,,,country,60,7,sing,old,red,562.8894956000149,None,562.8894956000149,None,1,3.626205199980177,562.8894956000149,None,3.626205199980177,566.5355813999777,None,567.0410291000153,None,567.0410291000153,None,n,1.266740999999456,567.0410291000153,None,1.266740999999456,,,36 Sing,001,2022_Aug_30_1156,ProdSingRedoBetween,2021.2.3,59.966814349603034,
,,,,7,0,7,0,,,,,,,,,,,,,,,,,,,,,,572.6571562999743,None,,,,,,,,,,,,,,,,,,reach,65,8,sing,old,red,568.839771799976,None,568.839771799976,None,6,2.483972000016365,568.839771799976,None,2.483972000016365,571.3410239999648,None,571.8584453999647,None,571.8584453999647,None,r,0.7693453999818303,571.8584453999647,None,0.7693453999818303,,,36 Sing,001,2022_Aug_30_1156,ProdSingRedoBetween,2021.2.3,59.966814349603034,
,,,,8,0,8,0,,,,,,,,,,,,,,,,,,,,,,576.0940027000033,None,,,,,,,,,,,,,,,,,,smell,80,9,sing,old,red,573.1604229999939,None,573.1604229999939,None,1,2.059369600028731,573.1604229999939,None,2.059369600028731,575.2456265999936,None,575.7605414999998,None,575.7605414999998,None,n,0.3150848000077531,575.7605414999998,None,0.3150848000077531,,,36 Sing,001,2022_Aug_30_1156,ProdSingRedoBetween,2021.2.3,59.966814349603034,
,,,,9,0,9,0,,,,,,,,,,,,,,,,,,,,,,578.9804300999967,None,,,,,,,,,,,,,,,,,,addition,85,10,sing,old,red,576.6047943999874,None,576.6047943999874,None,6,1.535041099996306,576.6047943999874,None,1.535041099996306,578.1708365000086,None,578.6800730999676,None,578.6800730999676,None,r,0.2755566000123508,578.6800730999676,None,0.2755566000123508,,,36 Sing,001,2022_Aug_30_1156,ProdSingRedoBetween,2021.2.3,59.966814349603034,
,,,,10,0,10,0,,,,,,,,,,,,,,,,,,,,,,581.9351438999875,None,,,,,,,,,,,,,,,,,,guard,24,11,sing,old,yellow,579.4845192999928,None,579.4845192999928,None,6,1.6872790000052191,579.4845192999928,None,1.6872790000052191,581.1989326999756,None,581.6996500999667,None,581.6996500999667,None,r,0.2082257999572903,581.6996500999667,None,0.2082257999572903,,,36 Sing,001,2022_Aug_30_1156,ProdSingRedoBetween,2021.2.3,59.966814349603034,
,,,,11,0,11,0,,,,,,,,,,,,,,,,,,,,,,586.4544920999906,None,,,,,,,,,,,,,,,,,,corner,64,12,sing,old,red,582.4635381000116,None,582.4635381000116,None,6,1.6122901000198908,582.4635381000116,None,1.6122901000198908,584.103796899959,None,584.6243570999941,None,584.6243570999941,None,r,1.8032971000066027,584.6243570999941,None,1.8032971000066027,,,36 Sing,001,2022_Aug_30_1156,ProdSingRedoBetween,2021.2.3,59.966814349603034,
,,,,12,0,12,0,,,,,,,,,,,,,,,,,,,,,,589.4238127999706,None,,,,,,,,,,,,,,,,,,problem,175,13,sing,new,null,586.9627087999834,None,586.9627087999834,None,1,1.6569063999922946,586.9627087999834,None,1.6569063999922946,588.6457012000028,None,589.1572538999608,None,589.1572538999608,None,n,0.23838270001579076,589.1572538999608,None,0.23838270001579076,,,36 Sing,001,2022_Aug_30_1156,ProdSingRedoBetween,2021.2.3,59.966814349603034,
,,,,13,0,13,0,,,,,,,,,,,,,,,,,,,,,,593.6615399000002,None,,,,,,,,,,,,,,,,,,couch,10,14,sing,old,yellow,589.9341366000008,None,589.9341366000008,None,6,2.541570699948352,589.9341366000008,None,2.541570699948352,592.4935341000091,None,592.9940974999918,None,592.9940974999918,None,r,0.6496021999628283,592.9940974999918,None,0.6496021999628283,,,36 Sing,001,2022_Aug_30_1156,ProdSingRedoBetween,2021.2.3,59.966814349603034,
,,,,14,0,14,0,,,,,,,,,,,,,,,,,,,,,,596.4977348999819,None,,,,,,,,,,,,,,,,,,disease,72,15,sing,old,red,594.1718031999771,None,594.1718031999771,None,6,1.4319644999923185,594.1718031999771,None,1.4319644999923185,595.6341741000069,None,596.1517801000155,None,596.1517801000155,None,r,0.31591179996030405,596.1517801000155,None,0.31591179996030405,,,36 Sing,001,2022_Aug_30_1156,ProdSingRedoBetween,2021.2.3,59.966814349603034,
,,,,15,0,15,0,,,,,,,,,,,,,,,,,,,,,,599.5866984999739,None,,,,,,,,,,,,,,,,,,platform,1,16,sing,old,yellow,597.0015463999589,None,597.0015463999589,None,1,1.618217299983371,597.0015463999589,None,1.618217299983371,598.6538453999674,None,599.1728175999597,None,599.1728175999597,None,n,0.38301759999012575,599.1728175999597,None,0.38301759999012575,,,36 Sing,001,2022_Aug_30_1156,ProdSingRedoBetween,2021.2.3,59.966814349603034,
,,,,16,0,16,0,,,,,,,,,,,,,,,,,,,,,,602.4870382999652,None,,,,,,,,,,,,,,,,,,equipment,46,17,sing,old,blue,600.1135721000028,None,600.1135721000028,None,6,1.290068699978292,600.1135721000028,None,1.290068699978292,601.4212176000001,None,601.9365340999793,None,601.9365340999793,None,r,0.5231115999631584,601.9365340999793,None,0.5231115999631584,,,36 Sing,001,2022_Aug_30_1156,ProdSingRedoBetween,2021.2.3,59.966814349603034,
,,,,17,0,17,0,,,,,,,,,,,,,,,,,,,,,,605.3231135999667,None,,,,,,,,,,,,,,,,,,owner,19,18,sing,old,yellow,602.9948402000009,None,602.9948402000009,None,6,1.528891299967654,602.9948402000009,None,1.528891299967654,604.5391181000159,None,605.0469343999866,None,605.0469343999866,None,r,0.25276709999889135,605.0469343999866,None,0.25276709999889135,,,36 Sing,001,2022_Aug_30_1156,ProdSingRedoBetween,2021.2.3,59.966814349603034,
,,,,18,0,18,0,,,,,,,,,,,,,,,,,,,,,,607.958862599975,None,,,,,,,,,,,,,,,,,,goose,3,19,sing,old,yellow,605.8344749999815,None,605.8344749999815,None,6,1.1291955999913625,605.8344749999815,None,1.1291955999913625,606.9933630999876,None,607.5129075999721,None,607.5129075999721,None,r,0.4188475999981165,607.5129075999721,None,0.4188475999981165,,,36 Sing,001,2022_Aug_30_1156,ProdSingRedoBetween,2021.2.3,59.966814349603034,
,,,,19,0,19,0,,,,,,,,,,,,,,,,,,,,,,610.6451825000113,None,,,,,,,,,,,,,,,,,,region,142,20,sing,new,null,608.4616150999791,None,608.4616150999791,None,1,1.3181596000213176,608.4616150999791,None,1.3181596000213176,609.8111433999729,None,610.3127777999616,None,610.3127777999616,None,n,0.31494730000849813,610.3127777999616,None,0.31494730000849813,,,36 Sing,001,2022_Aug_30_1156,ProdSingRedoBetween,2021.2.3,59.966814349603034,
,,,,20,0,20,0,,,,,,,,,,,,,,,,,,,,,,614.5990951000131,None,,,,,,,,,,,,,,,,,,south,151,21,sing,new,null,611.1508740999852,None,611.1508740999852,None,3,1.6849189000204206,611.1508740999852,None,1.6849189000204206,612.8655857999693,None,613.3825966999866,None,613.3825966999866,None,f,1.1890692000160925,613.3825966999866,None,1.1890692000160925,,,36 Sing,001,2022_Aug_30_1156,ProdSingRedoBetween,2021.2.3,59.966814349603034,
,,,,21,0,21,0,,,,,,,,,,,,,,,,,,,,,,617.2351197999669,None,,,,,,,,,,,,,,,,,,impact,76,22,sing,old,red,615.1021308999625,None,615.1021308999625,None,6,1.0696749999769963,615.1021308999625,None,1.0696749999769963,616.2045911999885,None,616.7275558999972,None,616.7275558999972,None,r,0.49207630002638325,616.7275558999972,None,0.49207630002638325,,,36 Sing,001,2022_Aug_30_1156,ProdSingRedoBetween,2021.2.3,59.966814349603034,
,,,,22,0,22,0,,,,,,,,,,,,,,,,,,,,,,621.4729106000159,None,,,,,,,,,,,,,,,,,,store,102,23,sing,new,null,617.7475489999633,None,617.7475489999633,None,1,3.03216640005121,617.7475489999633,None,3.03216640005121,620.8066969999927,None,621.3059423000086,None,621.3059423000086,None,n,0.13804890000028536,621.3059423000086,None,0.13804890000028536,,,36 Sing,001,2022_Aug_30_1156,ProdSingRedoBetween,2021.2.3,59.966814349603034,
,,,,23,0,23,0,,,,,,,,,,,,,,,,,,,,,,624.2921315999702,None,,,,,,,,,,,,,,,,,,distance,122,24,sing,new,null,621.9774051000131,None,621.9774051000131,None,3,1.4343093000352383,621.9774051000131,None,1.4343093000352383,623.4423513999791,None,623.9426484999713,None,623.9426484999713,None,f,0.3250561999739148,623.9426484999713,None,0.3250561999739148,,,36 Sing,001,2022_Aug_30_1156,ProdSingRedoBetween,2021.2.3,59.966814349603034,
,,,,24,0,24,0,,,,,,,,,,,,,,,,,,,,,,627.1950632999651,None,,,,,,,,,,,,,,,,,,bucket,17,25,sing,old,yellow,624.7937792000012,None,624.7937792000012,None,6,1.4579281999613158,624.7937792000012,None,1.4579281999613158,626.2804098000051,None,626.8014423999703,None,626.8014423999703,None,r,0.36227709997911006,626.8014423999703,None,0.36227709997911006,,,36 Sing,001,2022_Aug_30_1156,ProdSingRedoBetween,2021.2.3,59.966814349603034,
,,,,25,0,25,0,,,,,,,,,,,,,,,,,,,,,,630.067096899962,None,,,,,,,,,,,,,,,,,,solution,160,26,sing,new,null,627.7087681000121,None,627.7087681000121,None,1,1.7190922000445426,627.7087681000121,None,1.7190922000445426,629.4470132999704,None,629.9502409999841,None,629.9502409999841,None,n,0.09357960004126653,629.9502409999841,None,0.09357960004126653,,,36 Sing,001,2022_Aug_30_1156,ProdSingRedoBetween,2021.2.3,59.966814349603034,
,,,,26,0,26,0,,,,,,,,,,,,,,,,,,,,,,632.7505379999639,None,,,,,,,,,,,,,,,,,,point,156,27,sing,new,null,630.586949599965,None,630.586949599965,None,1,1.272746799979359,630.586949599965,None,1.272746799979359,631.8855097999913,None,632.4041808999609,None,632.4041808999609,None,n,0.3195448000333272,632.4041808999609,None,0.3195448000333272,,,36 Sing,001,2022_Aug_30_1156,ProdSingRedoBetween,2021.2.3,59.966814349603034,
,,,,27,0,27,0,,,,,,,,,,,,,,,,,,,,,,635.4031392000034,None,,,,,,,,,,,,,,,,,,birth,87,28,sing,old,red,633.2527992000105,None,633.2527992000105,None,6,1.2630873000016436,633.2527992000105,None,1.2630873000016436,634.5355148999952,None,635.0362031999975,None,635.0362031999975,None,r,0.3434897999977693,635.0362031999975,None,0.3434897999977693,,,36 Sing,001,2022_Aug_30_1156,ProdSingRedoBetween,2021.2.3,59.966814349603034,
,,,,28,0,28,0,,,,,,,,,,,,,,,,,,,,,,637.7558082999894,None,,,,,,,,,,,,,,,,,,shear,27,29,sing,old,yellow,635.9086945999879,None,635.9086945999879,None,6,1.0070067000342533,635.9086945999879,None,1.0070067000342533,636.9402633999707,None,637.4553598999628,None,637.4553598999628,None,r,0.268485700013116,637.4553598999628,None,0.268485700013116,,,36 Sing,001,2022_Aug_30_1156,ProdSingRedoBetween,2021.2.3,59.966814349603034,
,,,,29,0,29,0,,,,,,,,,,,,,,,,,,,,,,640.3248000000021,None,,,,,,,,,,,,,,,,,,style,157,30,sing,new,null,638.2562555999612,None,638.2562555999612,None,6,1.2114380999701098,638.2562555999612,None,1.2114380999701098,639.4925902999821,None,640.0079343999969,None,640.0079343999969,None,r,0.29182819998823106,640.0079343999969,None,0.29182819998823106,,,36 Sing,001,2022_Aug_30_1156,ProdSingRedoBetween,2021.2.3,59.966814349603034,
,,,,30,0,30,0,,,,,,,,,,,,,,,,,,,,,,643.1941384999664,None,,,,,,,,,,,,,,,,,,dozen,36,31,sing,old,blue,640.826510999992,None,640.826510999992,None,6,1.5931863999576308,640.826510999992,None,1.5931863999576308,642.4449219999951,None,642.9443209000165,None,642.9443209000165,None,r,0.22739100002218038,642.9443209000165,None,0.22739100002218038,,,36 Sing,001,2022_Aug_30_1156,ProdSingRedoBetween,2021.2.3,59.966814349603034,
,,,,31,0,31,0,,,,,,,,,,,,,,,,,,,,,,645.5299981000135,None,,,,,,,,,,,,,,,,,,express,62,32,sing,old,red,643.7025448000059,None,643.7025448000059,None,6,0.9411787000135519,643.7025448000059,None,0.9411787000135519,644.6700533999829,None,645.1797431000159,None,645.1797431000159,None,r,0.3279350000084378,645.1797431000159,None,0.3279350000084378,,,36 Sing,001,2022_Aug_30_1156,ProdSingRedoBetween,2021.2.3,59.966814349603034,
,,,,32,0,32,0,,,,,,,,,,,,,,,,,,,,,,650.7183009000146,None,,,,,,,,,,,,,,,,,,death,154,33,sing,new,null,646.0390635000076,None,646.0390635000076,None,6,1.0686108999652788,646.0390635000076,None,1.0686108999652788,647.1325436999905,None,647.6321460999898,None,647.6321460999898,None,n,3.0595412999973632,647.6321460999898,None,3.0595412999973632,,,36 Sing,001,2022_Aug_30_1156,ProdSingRedoBetween,2021.2.3,59.966814349603034,
,,,,33,0,33,0,,,,,,,,,,,,,,,,,,,,,,654.2763352000038,None,,,,,,,,,,,,,,,,,,broke,166,34,sing,new,null,651.2297596000135,None,651.2297596000135,None,1,2.2299790999968536,651.2297596000135,None,2.2299790999968536,653.4914195999736,None,654.0052055999986,None,654.0052055999986,None,n,0.23834440001519397,654.0052055999986,None,0.23834440001519397,,,36 Sing,001,2022_Aug_30_1156,ProdSingRedoBetween,2021.2.3,59.966814349603034,
,,,,34,0,34,0,,,,,,,,,,,,,,,,,,,,,,657.2750070999609,None,,,,,,,,,,,,,,,,,,heavy,58,35,sing,old,blue,654.789249399968,None,654.789249399968,None,3,1.7904302999959327,654.789249399968,None,1.7904302999959327,656.6090844999999,None,657.1125229999889,None,657.1125229999889,None,n,0.1470833999919705,657.1125229999889,None,0.1470833999919705,,,36 Sing,001,2022_Aug_30_1156,ProdSingRedoBetween,2021.2.3,59.966814349603034,
,,,,35,0,35,0,,,,,,,,,,,,,,,,,,,,,,662.1798292999738,None,,,,,,,,,,,,,,,,,,fellow,147,36,sing,new,null,657.7847733999952,None,657.7847733999952,None,6,2.4749822999583557,657.7847733999952,None,2.4749822999583557,660.2792538999929,None,660.7850982999662,None,660.7850982999662,None,f,1.3705702000297606,660.7850982999662,None,1.3705702000297606,,,36 Sing,001,2022_Aug_30_1156,ProdSingRedoBetween,2021.2.3,59.966814349603034,
,,,,36,0,36,0,,,,,,,,,,,,,,,,,,,,,,664.7324602999724,None,,,,,,,,,,,,,,,,,,direction,55,37,sing,old,blue,662.6887987999944,None,662.6887987999944,None,6,1.3310885000391863,662.6887987999944,None,1.3310885000391863,664.0577695000102,None,664.5670032000053,None,664.5670032000053,None,r,0.14069909998215735,664.5670032000053,None,0.14069909998215735,,,36 Sing,001,2022_Aug_30_1156,ProdSingRedoBetween,2021.2.3,59.966814349603034,
,,,,37,0,37,0,,,,,,,,,,,,,,,,,,,,,,667.1849963999703,None,,,,,,,,,,,,,,,,,,husband,107,38,sing,new,null,665.2414397000102,None,665.2414397000102,None,1,1.3062335000140592,665.2414397000102,None,1.3062335000140592,666.5695781999966,None,667.0848919000127,None,667.0848919000127,None,n,0.07877929997630417,667.0848919000127,None,0.07877929997630417,,,36 Sing,001,2022_Aug_30_1156,ProdSingRedoBetween,2021.2.3,59.966814349603034,
,,,,38,0,38,0,,,,,,,,,,,,,,,,,,,,,,670.137871599989,None,,,,,,,,,,,,,,,,,,subject,53,39,sing,old,blue,667.6890300000086,None,667.6890300000086,None,6,1.7628335999906994,667.6890300000086,None,1.7628335999906994,669.4716570000164,None,669.9777131999726,None,669.9777131999726,None,r,0.13799690001178533,669.9777131999726,None,0.13799690001178533,,,36 Sing,001,2022_Aug_30_1156,ProdSingRedoBetween,2021.2.3,59.966814349603034,
,,,,39,0,39,0,,,,,,,,,,,,,,,,,,,,,,677.0280766999931,None,,,,,,,,,,,,,,,,,,passage,15,40,sing,old,yellow,670.6500516000087,None,670.6500516000087,None,6,5.2495773999835365,670.6500516000087,None,5.2495773999835365,675.9288613999961,None,676.4442934999825,None,676.4442934999825,None,r,0.5594566000509076,676.4442934999825,None,0.5594566000509076,,,36 Sing,001,2022_Aug_30_1156,ProdSingRedoBetween,2021.2.3,59.966814349603034,
,,,,40,0,40,0,,,,,,,,,,,,,,,,,,,,,,679.4235164999845,None,,,,,,,,,,,,,,,,,,universal,56,41,sing,old,blue,677.5430490999715,None,677.5430490999715,None,6,1.1084915000246838,677.5430490999715,None,1.1084915000246838,678.6870030999999,None,679.1969242999912,None,679.1969242999912,None,r,0.1906853000400588,679.1969242999912,None,0.1906853000400588,,,36 Sing,001,2022_Aug_30_1156,ProdSingRedoBetween,2021.2.3,59.966814349603034,
,,,,41,0,41,0,,,,,,,,,,,,,,,,,,,,,,682.7670934000053,None,,,,,,,,,,,,,,,,,,listen,23,42,sing,old,yellow,679.9335978999734,None,679.9335978999734,None,3,1.902054300007876,679.9335978999734,None,1.902054300007876,681.868730599992,None,682.3867748999619,None,682.3867748999619,None,f,0.3528208000352606,682.3867748999619,None,0.3528208000352606,,,36 Sing,001,2022_Aug_30_1156,ProdSingRedoBetween,2021.2.3,59.966814349603034,
,,,,42,0,42,0,,,,,,,,,,,,,,,,,,,,,,685.6366791999899,None,,,,,,,,,,,,,,,,,,patient,133,43,sing,new,null,683.2744575999677,None,683.2744575999677,None,3,1.6812212000368163,683.2744575999677,None,1.6812212000368163,684.9927870999672,None,685.5136638999684,None,685.5136638999684,None,f,0.09792149998247623,685.5136638999684,None,0.09792149998247623,,,36 Sing,001,2022_Aug_30_1156,ProdSingRedoBetween,2021.2.3,59.966814349603034,
,,,,43,0,43,0,,,,,,,,,,,,,,,,,,,,,,688.5562643000158,None,,,,,,,,,,,,,,,,,,motion,163,44,sing,new,null,686.1389763999614,None,686.1389763999614,None,3,1.8406313000014052,686.1389763999614,None,1.8406313000014052,688.0054790999857,None,688.5128073999658,None,688.5128073999658,None,f,0.01885899994522333,688.5128073999658,None,0.01885899994522333,,,36 Sing,001,2022_Aug_30_1156,ProdSingRedoBetween,2021.2.3,59.966814349603034,
,,,,44,0,44,0,,,,,,,,,,,,,,,,,,,,,,691.4424426999758,None,,,,,,,,,,,,,,,,,,produce,95,45,sing,new,null,689.0642443000106,None,689.0642443000106,None,1,1.6434895999846049,689.0642443000106,None,1.6434895999846049,690.7263095999951,None,691.2304187999689,None,691.2304187999689,None,n,0.18922250001924112,691.2304187999689,None,0.18922250001924112,,,36 Sing,001,2022_Aug_30_1156,ProdSingRedoBetween,2021.2.3,59.966814349603034,
,,,,45,0,45,0,,,,,,,,,,,,,,,,,,,,,,693.8447961999918,None,,,,,,,,,,,,,,,,,,union,111,46,sing,new,null,691.9431281000143,None,691.9431281000143,None,1,1.2683962999726646,691.9431281000143,None,1.2683962999726646,693.2275132999639,None,693.7339584999718,None,693.7339584999718,None,n,0.09368769999127835,693.7339584999718,None,0.09368769999127835,,,36 Sing,001,2022_Aug_30_1156,ProdSingRedoBetween,2021.2.3,59.966814349603034,
,,,,46,0,46,0,,,,,,,,,,,,,,,,,,,,,,696.1638050999609,None,,,,,,,,,,,,,,,,,,government,49,47,sing,old,blue,694.3494826999959,None,694.3494826999959,None,6,1.2383532999665476,694.3494826999959,None,1.2383532999665476,695.6232576000039,None,696.1337150000036,None,696.1337150000036,None,r,0.005992799997329712,696.1337150000036,None,0.005992799997329712,,,36 Sing,001,2022_Aug_30_1156,ProdSingRedoBetween,2021.2.3,59.966814349603034,
,,,,47,0,47,0,,,,,,,,,,,,,,,,,,,,,,698.632921100012,None,,,,,,,,,,,,,,,,,,property,4,48,sing,old,yellow,696.6670311999624,None,696.6670311999624,None,6,1.104579399980139,696.6670311999624,None,1.104579399980139,697.8015546000097,None,698.3187892999849,None,698.3187892999849,None,r,0.2930258000269532,698.3187892999849,None,0.2930258000269532,,,36 Sing,001,2022_Aug_30_1156,ProdSingRedoBetween,2021.2.3,59.966814349603034,
,,,,48,0,48,0,,,,,,,,,,,,,,,,,,,,,,701.6526039000018,None,,,,,,,,,,,,,,,,,,place,9,49,sing,old,yellow,699.1419818999711,None,699.1419818999711,None,1,1.9016575999557972,699.1419818999711,None,1.9016575999557972,701.0700471000164,None,701.575119199988,None,701.575119199988,None,n,0.052593100001104176,701.575119199988,None,0.052593100001104176,,,36 Sing,001,2022_Aug_30_1156,ProdSingRedoBetween,2021.2.3,59.966814349603034,
,,,,49,0,49,0,,,,,,,,,,,,,,,,,,,,,,704.0550319000031,None,,,,,,,,,,,,,,,,,,damage,38,50,sing,old,blue,702.1643357999856,None,702.1643357999856,None,6,1.1113043000223115,702.1643357999856,None,1.1113043000223115,703.3049472999992,None,703.8106450999621,None,703.8106450999621,None,r,0.21692760003497824,703.8106450999621,None,0.21692760003497824,,,36 Sing,001,2022_Aug_30_1156,ProdSingRedoBetween,2021.2.3,59.966814349603034,
,,,,50,0,50,0,,,,,,,,,,,,,,,,,,,,,,706.507452299993,None,,,,,,,,,,,,,,,,,,plane,104,51,sing,new,null,704.5655469999765,None,704.5655469999765,None,1,1.1580332999583334,704.5655469999765,None,1.1580332999583334,705.741325400013,None,706.247080400004,None,706.247080400004,None,n,0.2444827000144869,706.247080400004,None,0.2444827000144869,,,36 Sing,001,2022_Aug_30_1156,ProdSingRedoBetween,2021.2.3,59.966814349603034,
,,,,51,0,51,0,,,,,,,,,,,,,,,,,,,,,,709.1619100999669,None,,,,,,,,,,,,,,,,,,color,0,52,sing,old,yellow,707.0108914999873,None,707.0108914999873,None,1,1.544668999966234,707.0108914999873,None,1.544668999966234,708.5799631999689,None,709.0934258999769,None,709.0934258999769,None,n,0.04609429999254644,709.0934258999769,None,0.04609429999254644,,,36 Sing,001,2022_Aug_30_1156,ProdSingRedoBetween,2021.2.3,59.966814349603034,
,,,,52,0,52,0,,,,,,,,,,,,,,,,,,,,,,711.5622714000056,None,,,,,,,,,,,,,,,,,,concern,176,53,sing,new,null,709.6840765000088,None,709.6840765000088,None,1,1.1755812999908812,709.6840765000088,None,1.1755812999908812,710.8784008999937,None,711.3830398999853,None,711.3830398999853,None,n,0.1645896999980323,711.3830398999853,None,0.1645896999980323,,,36 Sing,001,2022_Aug_30_1156,ProdSingRedoBetween,2021.2.3,59.966814349603034,
,,,,53,0,53,0,,,,,,,,,,,,,,,,,,,,,,714.2485204999684,None,,,,,,,,,,,,,,,,,,second,168,54,sing,new,null,712.0685151999933,None,712.0685151999933,None,1,1.3992548999958672,712.0685151999933,None,1.3992548999958672,713.4987804999691,None,713.9983743999619,None,713.9983743999619,None,n,0.22120569995604455,713.9983743999619,None,0.22120569995604455,,,36 Sing,001,2022_Aug_30_1156,ProdSingRedoBetween,2021.2.3,59.966814349603034,
,,,,54,0,54,0,,,,,,,,,,,,,,,,,,,,,,716.7343926999602,None,,,,,,,,,,,,,,,,,,review,8,55,sing,old,yellow,714.7612043999834,None,714.7612043999834,None,1,1.2745267999707721,714.7612043999834,None,1.2745267999707721,716.0717852999805,None,716.585299999977,None,716.585299999977,None,n,0.12226979999104515,716.585299999977,None,0.12226979999104515,,,36 Sing,001,2022_Aug_30_1156,ProdSingRedoBetween,2021.2.3,59.966814349603034,
,,,,55,0,55,0,,,,,,,,,,,,,,,,,,,,,,720.7383176999865,None,,,,,,,,,,,,,,,,,,suspect,5,56,sing,old,yellow,717.2415847000084,None,717.2415847000084,None,6,1.3860609999974258,717.2415847000084,None,1.3860609999974258,718.6560149000143,None,719.1702643999597,None,719.1702643999597,None,r,1.5453885999741033,719.1702643999597,None,1.5453885999741033,,,36 Sing,001,2022_Aug_30_1156,ProdSingRedoBetween,2021.2.3,59.966814349603034,
,,,,56,0,56,0,,,,,,,,,,,,,,,,,,,,,,722.9572115999763,None,,,,,,,,,,,,,,,,,,interview,63,57,sing,old,red,721.2491727999877,None,721.2491727999877,None,6,1.0025172000168823,721.2491727999877,None,1.0025172000168823,722.2816315999953,None,722.7960532999714,None,722.7960532999714,None,r,0.13557640003273264,722.7960532999714,None,0.13557640003273264,,,36 Sing,001,2022_Aug_30_1156,ProdSingRedoBetween,2021.2.3,59.966814349603034,
,,,,57,0,57,0,,,,,,,,,,,,,,,,,,,,,,725.1426910000155,None,,,,,,,,,,,,,,,,,,object,40,58,sing,old,blue,723.4654508999665,None,723.4654508999665,None,6,1.0181645000120625,723.4654508999665,None,1.0181645000120625,724.510014200001,None,725.0210424999823,None,725.0210424999823,None,r,0.10251410002820194,725.0210424999823,None,0.10251410002820194,,,36 Sing,001,2022_Aug_30_1156,ProdSingRedoBetween,2021.2.3,59.966814349603034,
,,,,58,0,58,0,,,,,,,,,,,,,,,,,,,,,,727.545160699985,None,,,,,,,,,,,,,,,,,,under,35,59,sing,old,blue,725.6529590999708,None,725.6529590999708,None,6,1.3026072999928147,725.6529590999708,None,1.3026072999928147,726.9777649999596,None,727.4824049999588,None,727.4824049999588,None,r,0.041181899956427515,727.4824049999588,None,0.041181899956427515,,,36 Sing,001,2022_Aug_30_1156,ProdSingRedoBetween,2021.2.3,59.966814349603034,
,,,,59,0,59,0,,,,,,,,,,,,,,,,,,,,,,730.865370799962,None,,,,,,,,,,,,,,,,,,edition,171,60,sing,new,null,728.0508225999656,None,728.0508225999656,None,1,2.200872100016568,728.0508225999656,None,2.200872100016568,730.2848159999703,None,730.7985440999619,None,730.7985440999619,None,n,0.0450381999835372,730.7985440999619,None,0.0450381999835372,,,36 Sing,001,2022_Aug_30_1156,ProdSingRedoBetween,2021.2.3,59.966814349603034,
,,,,60,0,60,0,,,,,,,,,,,,,,,,,,,,,,734.0350333999959,None,,,,,,,,,,,,,,,,,,orchestra,66,61,sing,old,red,731.3749846999999,None,731.3749846999999,None,6,1.3249134000507183,731.3749846999999,None,1.3249134000507183,732.7294708999689,None,733.24066760001,None,733.24066760001,None,r,0.778878299985081,733.24066760001,None,0.778878299985081,,,36 Sing,001,2022_Aug_30_1156,ProdSingRedoBetween,2021.2.3,59.966814349603034,
,,,,61,0,61,0,,,,,,,,,,,,,,,,,,,,,,738.0387559999945,None,,,,,,,,,,,,,,,,,,strength,114,62,sing,new,null,734.5520504000015,None,734.5520504000015,None,1,2.819548700004816,734.5520504000015,None,2.819548700004816,737.3929598999675,None,737.905655999959,None,737.905655999959,None,n,0.11399680003523827,737.905655999959,None,0.11399680003523827,,,36 Sing,001,2022_Aug_30_1156,ProdSingRedoBetween,2021.2.3,59.966814349603034,
,,,,62,0,62,0,,,,,,,,,,,,,,,,,,,,,,742.8604213999934,None,,,,,,,,,,,,,,,,,,speech,118,63,sing,new,null,738.5408718999824,None,738.5408718999824,None,2,2.726725600019563,738.5408718999824,None,2.726725600019563,741.2934165999759,None,741.7990228999988,None,741.7990228999988,None,n,1.0447044000029564,741.7990228999988,None,1.0447044000029564,,,36 Sing,001,2022_Aug_30_1156,ProdSingRedoBetween,2021.2.3,59.966814349603034,
,,,,63,0,63,0,,,,,,,,,,,,,,,,,,,,,,747.016689400014,None,,,,,,,,,,,,,,,,,,piece,41,64,sing,old,blue,743.3647971999599,None,743.3647971999599,None,2,2.9267902999999933,743.3647971999599,None,2.9267902999999933,746.3137818999821,None,746.8180942999898,None,746.8180942999898,None,f,0.17773989995475858,746.8180942999898,None,0.17773989995475858,,,36 Sing,001,2022_Aug_30_1156,ProdSingRedoBetween,2021.2.3,59.966814349603034,
,,,,64,0,64,0,,,,,,,,,,,,,,,,,,,,,,751.4356982999598,None,,,,,,,,,,,,,,,,,,threat,169,65,sing,new,null,747.533572299988,None,747.533572299988,None,2,2.381932799995411,747.533572299988,None,2.381932799995411,749.9346429000143,None,750.4349452999886,None,750.4349452999886,None,n,0.9847065000212751,750.4349452999886,None,0.9847065000212751,,,36 Sing,001,2022_Aug_30_1156,ProdSingRedoBetween,2021.2.3,59.966814349603034,
,,,,65,0,65,0,,,,,,,,,,,,,,,,,,,,,,754.5553445999976,None,,,,,,,,,,,,,,,,,,volume,144,66,sing,new,null,751.9391255999799,None,751.9391255999799,None,2,1.3605208999942988,751.9391255999799,None,1.3605208999942988,753.32453849999,None,753.8438701999839,None,753.8438701999839,None,n,0.6956787999952212,753.8438701999839,None,0.6956787999952212,,,36 Sing,001,2022_Aug_30_1156,ProdSingRedoBetween,2021.2.3,59.966814349603034,
,,,,66,0,66,0,,,,,,,,,,,,,,,,,,,,,,760.0442955999752,None,,,,,,,,,,,,,,,,,,afternoon,149,67,sing,new,null,755.055937099969,None,755.055937099969,None,2,3.603679300053045,755.055937099969,None,3.603679300053045,758.6774290999747,None,759.1768157999613,None,759.1768157999613,None,n,0.8427559999981895,759.1768157999613,None,0.8427559999981895,,,36 Sing,001,2022_Aug_30_1156,ProdSingRedoBetween,2021.2.3,59.966814349603034,
,,,,67,0,67,0,,,,,,,,,,,,,,,,,,,,,,764.8823801999679,None,,,,,,,,,,,,,,,,,,pattern,57,68,sing,old,blue,760.548768299981,None,760.548768299981,None,5,3.4149604000267573,760.548768299981,None,3.4149604000267573,763.9925222999882,None,764.4989033999736,None,764.4989033999736,None,r,0.35294709994923323,764.4989033999736,None,0.35294709994923323,,,36 Sing,001,2022_Aug_30_1156,ProdSingRedoBetween,2021.2.3,59.966814349603034,
,,,,68,0,68,0,,,,,,,,,,,,,,,,,,,,,,770.1210186000098,None,,,,,,,,,,,,,,,,,,citizen,139,69,sing,new,null,765.3857894999674,None,765.3857894999674,None,5,3.225670900021214,765.3857894999674,None,3.225670900021214,768.6408572999644,None,769.1531635000138,None,769.1531635000138,None,f,0.9464131999993697,769.1531635000138,None,0.9464131999993697,,,36 Sing,001,2022_Aug_30_1156,ProdSingRedoBetween,2021.2.3,59.966814349603034,
,,,,69,0,69,0,,,,,,,,,,,,,,,,,,,,,,774.1417135999654,None,,,,,,,,,,,,,,,,,,master,134,70,sing,new,null,770.630967199977,None,770.630967199977,None,2,2.420621299999766,770.630967199977,None,2.420621299999766,773.0768600999727,None,773.5912760999636,None,773.5912760999636,None,n,0.5244173000101,773.5912760999636,None,0.5244173000101,,,36 Sing,001,2022_Aug_30_1156,ProdSingRedoBetween,2021.2.3,59.966814349603034,
,,,,70,0,70,0,,,,,,,,,,,,,,,,,,,,,,780.2978402000153,None,,,,,,,,,,,,,,,,,,principal,119,71,sing,new,null,774.6505782000022,None,774.6505782000022,None,2,4.7129455000394955,774.6505782000022,None,4.7129455000394955,779.3802458000137,None,779.8828175999806,None,779.8828175999806,None,n,0.384849599970039,779.8828175999806,None,0.384849599970039,,,36 Sing,001,2022_Aug_30_1156,ProdSingRedoBetween,2021.2.3,59.966814349603034,
,,,,71,0,71,0,,,,,,,,,,,,,,,,,,,,,,783.7693798000109,None,,,,,,,,,,,,,,,,,,dance,2,72,sing,old,yellow,780.7989432999748,None,780.7989432999748,None,6,2.124559899966698,780.7989432999748,None,2.124559899966698,782.9510740999831,None,783.4565035999985,None,783.4565035999985,None,r,0.2831341000273824,783.4565035999985,None,0.2831341000273824,,,36 Sing,001,2022_Aug_30_1156,ProdSingRedoBetween,2021.2.3,59.966814349603034,
,,,,72,0,72,0,,,,,,,,,,,,,,,,,,,,,,787.6061824999633,None,,,,,,,,,,,,,,,,,,straight,105,73,sing,new,null,784.2699360999977,None,784.2699360999977,None,2,1.493670199997723,784.2699360999977,None,1.493670199997723,785.790244999982,None,786.3038994999952,None,786.3038994999952,None,n,1.283762699982617,786.3038994999952,None,1.283762699982617,,,36 Sing,001,2022_Aug_30_1156,ProdSingRedoBetween,2021.2.3,59.966814349603034,
,,,,73,0,73,0,,,,,,,,,,,,,,,,,,,,,,790.2911402999889,None,,,,,,,,,,,,,,,,,,dispute,93,74,sing,new,null,788.1086086999858,None,788.1086086999858,None,2,1.4548803999787197,788.1086086999858,None,1.4548803999787197,789.5902283999603,None,790.0969831999973,None,790.0969831999973,None,n,0.17057169997133315,790.0969831999973,None,0.17057169997133315,,,36 Sing,001,2022_Aug_30_1156,ProdSingRedoBetween,2021.2.3,59.966814349603034,
,,,,74,0,74,0,,,,,,,,,,,,,,,,,,,,,,792.8101511999848,None,,,,,,,,,,,,,,,,,,company,137,75,sing,new,null,790.8028167000157,None,790.8028167000157,None,6,1.3446114999824204,790.8028167000157,None,1.3446114999824204,792.1861718000146,None,792.7017790999962,None,792.7017790999962,None,r,0.07777249999344349,792.7017790999962,None,0.07777249999344349,,,36 Sing,001,2022_Aug_30_1156,ProdSingRedoBetween,2021.2.3,59.966814349603034,
,,,,75,0,75,0,,,,,,,,,,,,,,,,,,,,,,795.0802480999846,None,,,,,,,,,,,,,,,,,,rural,73,76,sing,old,red,793.31860649999,None,793.31860649999,None,6,1.1410157000063919,793.31860649999,None,1.1410157000063919,794.487686700013,None,794.9956937999814,None,794.9956937999814,None,r,0.05593909998424351,794.9956937999814,None,0.05593909998424351,,,36 Sing,001,2022_Aug_30_1156,ProdSingRedoBetween,2021.2.3,59.966814349603034,
,,,,76,0,76,0,,,,,,,,,,,,,,,,,,,,,,797.117999500013,None,,,,,,,,,,,,,,,,,,department,26,77,sing,old,yellow,795.5844827999827,None,795.5844827999827,None,6,0.9230916000087745,795.5844827999827,None,0.9230916000087745,796.5318628000095,None,797.0354227999924,None,797.0354227999924,None,r,0.04839389998232946,797.0354227999924,None,0.04839389998232946,,,36 Sing,001,2022_Aug_30_1156,ProdSingRedoBetween,2021.2.3,59.966814349603034,
,,,,77,0,77,0,,,,,,,,,,,,,,,,,,,,,,799.5669421000057,None,,,,,,,,,,,,,,,,,,agency,117,78,sing,new,null,797.6324430999812,None,797.6324430999812,None,2,1.3070084000355564,797.6324430999812,None,1.3070084000355564,798.9742672999855,None,799.4871202000068,None,799.4871202000068,None,n,0.052313099964521825,799.4871202000068,None,0.052313099964521825,,,36 Sing,001,2022_Aug_30_1156,ProdSingRedoBetween,2021.2.3,59.966814349603034,
,,,,78,0,78,0,,,,,,,,,,,,,,,,,,,,,,802.6201108999667,None,,,,,,,,,,,,,,,,,,contract,148,79,sing,new,null,800.082063400012,None,800.082063400012,None,2,1.937463799957186,800.082063400012,None,1.937463799957186,802.0369480999652,None,802.5389718000079,None,802.5389718000079,None,n,0.05656209995504469,802.5389718000079,None,0.05656209995504469,,,36 Sing,001,2022_Aug_30_1156,ProdSingRedoBetween,2021.2.3,59.966814349603034,
,,,,79,0,79,0,,,,,,,,,,,,,,,,,,,,,,805.5396883999929,None,,,,,,,,,,,,,,,,,,pancakes,6,80,sing,old,yellow,803.1291690999642,None,803.1291690999642,None,6,1.0986231000279076,803.1291690999642,None,1.0986231000279076,804.2563228000072,None,804.7611548000132,None,804.7611548000132,None,r,0.754370899987407,804.7611548000132,None,0.754370899987407,,,36 Sing,001,2022_Aug_30_1156,ProdSingRedoBetween,2021.2.3,59.966814349603034,
,,,,80,0,80,0,,,,,,,,,,,,,,,,,,,,,,810.0445010999683,None,,,,,,,,,,,,,,,,,,harmony,159,81,sing,new,null,806.0419196999865,None,806.0419196999865,None,2,2.3938159000244923,806.0419196999865,None,2.3938159000244923,808.4655891999719,None,808.9765720000141,None,808.9765720000141,None,n,1.0509482999914326,808.9765720000141,None,1.0509482999914326,,,36 Sing,001,2022_Aug_30_1156,ProdSingRedoBetween,2021.2.3,59.966814349603034,
,,,,81,0,81,0,,,,,,,,,,,,,,,,,,,,,,812.6133745000116,None,,,,,,,,,,,,,,,,,,division,136,82,sing,new,null,810.5478856000118,None,810.5478856000118,None,2,1.2795916000031866,810.5478856000118,None,1.2795916000031866,811.8475041000056,None,812.3545770999626,None,812.3545770999626,None,n,0.23293160001048818,812.3545770999626,None,0.23293160001048818,,,36 Sing,001,2022_Aug_30_1156,ProdSingRedoBetween,2021.2.3,59.966814349603034,
,,,,82,0,82,0,,,,,,,,,,,,,,,,,,,,,,816.6507782000117,None,,,,,,,,,,,,,,,,,,military,43,83,sing,old,blue,813.126443599991,None,813.126443599991,None,6,2.8690743000479415,813.126443599991,None,2.8690743000479415,816.0179493000032,None,816.5236836000113,None,816.5236836000113,None,r,0.11188639997271821,816.5236836000113,None,0.11188639997271821,,,36 Sing,001,2022_Aug_30_1156,ProdSingRedoBetween,2021.2.3,59.966814349603034,
,,,,83,0,83,0,,,,,,,,,,,,,,,,,,,,,,830.6645025999751,None,,,,,,,,,,,,,,,,,,theme,153,84,sing,new,null,817.1576028999989,None,817.1576028999989,None,2,12.685922600037884,817.1576028999989,None,12.685922600037884,829.8667956999852,None,830.3851025999757,None,830.3851025999757,None,n,0.2504809999954887,830.3851025999757,None,0.2504809999954887,,,36 Sing,001,2022_Aug_30_1156,ProdSingRedoBetween,2021.2.3,59.966814349603034,
,,,,84,0,84,0,,,,,,,,,,,,,,,,,,,,,,833.9847144999658,None,,,,,,,,,,,,,,,,,,minute,164,85,sing,new,null,831.1737384999869,None,831.1737384999869,None,4,1.9658989000017755,831.1737384999869,None,1.9658989000017755,833.1781189999892,None,833.686956199992,None,833.686956199992,None,f,0.2686101999715902,833.686956199992,None,0.2686101999715902,,,36 Sing,001,2022_Aug_30_1156,ProdSingRedoBetween,2021.2.3,59.966814349603034,
,,,,85,0,85,0,,,,,,,,,,,,,,,,,,,,,,842.0593778999755,None,,,,,,,,,,,,,,,,,,growth,90,86,sing,new,null,834.4943453999585,None,834.4943453999585,None,2,6.71714660001453,834.4943453999585,None,6.71714660001453,841.2444532999652,None,841.7589865999762,None,841.7589865999762,None,n,0.2766979999723844,841.7589865999762,None,0.2766979999723844,,,36 Sing,001,2022_Aug_30_1156,ProdSingRedoBetween,2021.2.3,59.966814349603034,
,,,,86,0,86,0,,,,,,,,,,,,,,,,,,,,,,846.2135192999849,None,,,,,,,,,,,,,,,,,,reading,165,87,sing,new,null,842.5597472999943,None,842.5597472999943,None,2,1.9797720999922603,842.5597472999943,None,1.9797720999922603,844.5674407999613,None,845.0792735000141,None,845.0792735000141,None,n,1.108222599956207,845.0792735000141,None,1.108222599956207,,,36 Sing,001,2022_Aug_30_1156,ProdSingRedoBetween,2021.2.3,59.966814349603034,
,,,,87,0,87,0,,,,,,,,,,,,,,,,,,,,,,848.8502372999792,None,,,,,,,,,,,,,,,,,,oxygen,50,88,sing,old,blue,846.720695099968,None,846.720695099968,None,6,1.2828739999677055,846.720695099968,None,1.2828739999677055,848.0353490000125,None,848.5495142000145,None,848.5495142000145,None,r,0.27005760004976764,848.5495142000145,None,0.27005760004976764,,,36 Sing,001,2022_Aug_30_1156,ProdSingRedoBetween,2021.2.3,59.966814349603034,
,,,,88,0,88,0,,,,,,,,,,,,,,,,,,,,,,851.2528426999925,None,,,,,,,,,,,,,,,,,,notice,98,89,sing,new,null,849.3591455999995,None,849.3591455999995,None,2,1.268347899953369,849.3591455999995,None,1.268347899953369,850.652559500013,None,851.1519303999958,None,851.1519303999958,None,f,0.07559429999673739,851.1519303999958,None,0.07559429999673739,,,36 Sing,001,2022_Aug_30_1156,ProdSingRedoBetween,2021.2.3,59.966814349603034,
,,,,89,0,89,0,,,,,,,,,,,,,,,,,,,,,,854.004738299991,None,,,,,,,,,,,,,,,,,,discussion,79,90,sing,old,red,851.765262699977,None,851.765262699977,None,2,1.374245900020469,851.765262699977,None,1.374245900020469,853.1715003999998,None,853.6770689999685,None,853.6770689999685,None,n,0.31036899995524436,853.6770689999685,None,0.31036899995524436,,,36 Sing,001,2022_Aug_30_1156,ProdSingRedoBetween,2021.2.3,59.966814349603034,
,,,,90,0,90,0,,,,,,,,,,,,,,,,,,,,,,856.9910816999618,None,,,,,,,,,,,,,,,,,,stranger,109,91,sing,new,null,854.5115976000088,None,854.5115976000088,None,2,1.3078763000085019,854.5115976000088,None,1.3078763000085019,855.8448203000007,None,856.3587029000046,None,856.3587029000046,None,n,0.6047627999796532,856.3587029000046,None,0.6047627999796532,,,36 Sing,001,2022_Aug_30_1156,ProdSingRedoBetween,2021.2.3,59.966814349603034,
,,,,91,0,91,0,,,,,,,,,,,,,,,,,,,,,,859.6939946999773,None,,,,,,,,,,,,,,,,,,danger,34,92,sing,old,blue,857.5004456999595,None,857.5004456999595,None,6,1.4789493000134826,857.5004456999595,None,1.4789493000134826,859.015625400003,None,859.5269917999976,None,859.5269917999976,None,r,0.1484747999929823,859.5269917999976,None,0.1484747999929823,,,36 Sing,001,2022_Aug_30_1156,ProdSingRedoBetween,2021.2.3,59.966814349603034,
,,,,92,0,92,0,,,,,,,,,,,,,,,,,,,,,,862.1477085999795,None,,,,,,,,,,,,,,,,,,center,69,93,sing,old,red,860.198532200011,None,860.198532200011,None,6,1.252924799977336,860.198532200011,None,1.252924799977336,861.4803419999662,None,861.9795832000091,None,861.9795832000091,None,r,0.13594750000629574,861.9795832000091,None,0.13594750000629574,,,36 Sing,001,2022_Aug_30_1156,ProdSingRedoBetween,2021.2.3,59.966814349603034,
,,,,93,0,93,0,,,,,,,,,,,,,,,,,,,,,,864.7320405999781,None,,,,,,,,,,,,,,,,,,number,96,94,sing,new,null,862.6495934000122,None,862.6495934000122,None,1,1.4259659000090323,862.6495934000122,None,1.4259659000090323,864.1014840999851,None,864.6164819999831,None,864.6164819999831,None,n,0.09111649997066706,864.6164819999831,None,0.09111649997066706,,,36 Sing,001,2022_Aug_30_1156,ProdSingRedoBetween,2021.2.3,59.966814349603034,
,,,,94,0,94,0,,,,,,,,,,,,,,,,,,,,,,867.2355243999627,None,,,,,,,,,,,,,,,,,,candidate,173,95,sing,new,null,865.2423899999703,None,865.2423899999703,None,1,1.2971414999919944,865.2423899999703,None,1.2971414999919944,866.5737907000002,None,867.084581299976,None,867.084581299976,None,n,0.11905949999345466,867.084581299976,None,0.11905949999345466,,,36 Sing,001,2022_Aug_30_1156,ProdSingRedoBetween,2021.2.3,59.966814349603034,
,,,,95,0,95,0,,,,,,,,,,,,,,,,,,,,,,869.4784029999864,None,,,,,,,,,,,,,,,,,,bicycle,44,96,sing,old,blue,867.7384079999756,None,867.7384079999756,None,6,1.1531708999536932,867.7384079999756,None,1.1531708999536932,868.9292170999688,None,869.4417962000007,None,869.4417962000007,None,r,0.00983189995167777,869.4417962000007,None,0.00983189995167777,,,36 Sing,001,2022_Aug_30_1156,ProdSingRedoBetween,2021.2.3,59.966814349603034,
,,,,96,0,96,0,,,,,,,,,,,,,,,,,,,,,,872.2228811999667,None,,,,,,,,,,,,,,,,,,medicine,94,97,sing,new,null,869.992428699974,None,869.992428699974,None,1,1.6269507000106387,869.992428699974,None,1.6269507000106387,871.63885019999,None,872.1435260999715,None,872.1435260999715,None,n,0.06010010000318289,872.1435260999715,None,0.06010010000318289,,,36 Sing,001,2022_Aug_30_1156,ProdSingRedoBetween,2021.2.3,59.966814349603034,
,,,,97,0,97,0,,,,,,,,,,,,,,,,,,,,,,875.0589479999617,None,,,,,,,,,,,,,,,,,,quantity,82,98,sing,old,red,872.7347826999612,None,872.7347826999612,None,6,1.0446980000124313,872.7347826999612,None,1.0446980000124313,873.8121273000143,None,874.325094299973,None,874.325094299973,None,r,0.7024301999481395,874.325094299973,None,0.7024301999481395,,,36 Sing,001,2022_Aug_30_1156,ProdSingRedoBetween,2021.2.3,59.966814349603034,
,,,,98,0,98,0,,,,,,,,,,,,,,,,,,,,,,877.5143268000102,None,,,,,,,,,,,,,,,,,,level,54,99,sing,old,blue,875.5655200000037,None,875.5655200000037,None,2,1.2779909999808297,875.5655200000037,None,1.2779909999808297,876.8626067999867,None,877.3812289999914,None,877.3812289999914,None,n,0.11040959996171296,877.3812289999914,None,0.11040959996171296,,,36 Sing,001,2022_Aug_30_1156,ProdSingRedoBetween,2021.2.3,59.966814349603034,
,,,,99,0,99,0,,,,,,,,,,,,,,,,,,,,,,880.5145125999697,None,,,,,,,,,,,,,,,,,,length,103,100,sing,new,null,878.0288616999751,None,878.0288616999751,None,2,1.1665321000036784,878.0288616999751,None,1.1665321000036784,879.2149980000104,None,879.7352361999801,None,879.7352361999801,None,n,0.7563276999862865,879.7352361999801,None,0.7563276999862865,,,36 Sing,001,2022_Aug_30_1156,ProdSingRedoBetween,2021.2.3,59.966814349603034,
,,,,100,0,100,0,,,,,,,,,,,,,,,,,,,,,,882.7862936999882,None,,,,,,,,,,,,,,,,,,budget,126,101,sing,new,null,881.0255076999892,None,881.0255076999892,None,1,1.193936499999836,881.0255076999892,None,1.193936499999836,882.2508772999863,None,882.7499769999995,None,882.7499769999995,None,n,0.013555000012274832,882.7499769999995,None,0.013555000012274832,,,36 Sing,001,2022_Aug_30_1156,ProdSingRedoBetween,2021.2.3,59.966814349603034,
,,,,101,0,101,0,,,,,,,,,,,,,,,,,,,,,,885.9699959999998,None,,,,,,,,,,,,,,,,,,congress,132,102,sing,new,null,883.3031059000059,None,883.3031059000059,None,1,1.2123539000167511,883.3031059000059,None,1.2123539000167511,884.5373473999789,None,885.0537000999902,None,885.0537000999902,None,n,0.8858686999883503,885.0537000999902,None,0.8858686999883503,,,36 Sing,001,2022_Aug_30_1156,ProdSingRedoBetween,2021.2.3,59.966814349603034,
,,,,102,0,102,0,,,,,,,,,,,,,,,,,,,,,,888.459115399979,None,,,,,,,,,,,,,,,,,,institute,155,103,sing,new,null,886.4786614999757,None,886.4786614999757,None,1,1.2928863000124693,886.4786614999757,None,1.2928863000124693,887.791609900014,None,888.3057171999826,None,888.3057171999826,None,n,0.12165509996702895,888.3057171999826,None,0.12165509996702895,,,36 Sing,001,2022_Aug_30_1156,ProdSingRedoBetween,2021.2.3,59.966814349603034,
,,,,103,0,103,0,,,,,,,,,,,,,,,,,,,,,,891.5087862999644,None,,,,,,,,,,,,,,,,,,fashion,16,104,sing,old,yellow,888.9762775999843,None,888.9762775999843,None,6,1.299186100019142,888.9762775999843,None,1.299186100019142,890.2920853999676,None,890.791511199961,None,890.791511199961,None,r,0.6999181999708526,890.791511199961,None,0.6999181999708526,,,36 Sing,001,2022_Aug_30_1156,ProdSingRedoBetween,2021.2.3,59.966814349603034,
,,,,104,0,104,0,,,,,,,,,,,,,,,,,,,,,,894.0613342999713,None,,,,,,,,,,,,,,,,,,sweet,74,105,sing,old,red,892.0157163999975,None,892.0157163999975,None,6,1.3718380000209436,892.0157163999975,None,1.3718380000209436,893.4129659999744,None,893.9295326999854,None,893.9295326999854,None,r,0.1139108000206761,893.9295326999854,None,0.1139108000206761,,,36 Sing,001,2022_Aug_30_1156,ProdSingRedoBetween,2021.2.3,59.966814349603034,
,,,,105,0,105,0,,,,,,,,,,,,,,,,,,,,,,897.1144446000108,None,,,,,,,,,,,,,,,,,,treatment,124,106,sing,new,null,894.5756673999713,None,894.5756673999713,None,1,1.3957852000021376,894.5756673999713,None,1.3957852000021376,895.9976075000013,None,896.4997091999976,None,896.4997091999976,None,n,0.5836976999999024,896.4997091999976,None,0.5836976999999024,,,36 Sing,001,2022_Aug_30_1156,ProdSingRedoBetween,2021.2.3,59.966814349603034,
,,,,106,0,106,0,,,,,,,,,,,,,,,,,,,,,,899.6836153999902,None,,,,,,,,,,,,,,,,,,relation,11,107,sing,old,yellow,897.6244591000141,None,897.6244591000141,None,1,1.3950521999504417,897.6244591000141,None,1.3950521999504417,899.0526528999908,None,899.5686533999979,None,899.5686533999979,None,n,0.09090560005279258,899.5686533999979,None,0.09090560005279258,,,36 Sing,001,2022_Aug_30_1156,ProdSingRedoBetween,2021.2.3,59.966814349603034,
,,,,107,0,107,0,,,,,,,,,,,,,,,,,,,,,,903.913285299961,None,,,,,,,,,,,,,,,,,,emergency,121,108,sing,new,null,900.1876173999626,None,900.1876173999626,None,6,3.159842000051867,900.1876173999626,None,3.159842000051867,903.3718245999771,None,903.8778733999934,None,903.8778733999934,None,f,0.005881900025997311,903.8778733999934,None,0.005881900025997311,,,36 Sing,001,2022_Aug_30_1156,ProdSingRedoBetween,2021.2.3,59.966814349603034,
,,,,108,0,108,0,,,,,,,,,,,,,,,,,,,,,,906.55689909996,None,,,,,,,,,,,,,,,,,,evidence,18,109,sing,old,yellow,904.4310403999989,None,904.4310403999989,None,6,1.556320899981074,904.4310403999989,None,1.556320899981074,906.0090722999885,None,906.5258196999785,None,906.5258196999785,None,f,0.005631399981211871,906.5258196999785,None,0.005631399981211871,,,36 Sing,001,2022_Aug_30_1156,ProdSingRedoBetween,2021.2.3,59.966814349603034,
,,,,109,0,109,0,,,,,,,,,,,,,,,,,,,,,,910.0605955999927,None,,,,,,,,,,,,,,,,,,native,92,110,sing,new,null,907.0577479999629,None,907.0577479999629,None,3,1.5857172000105493,907.0577479999629,None,1.5857172000105493,908.6605373999919,None,909.1598704999778,None,909.1598704999778,None,n,0.8835587000357918,909.1598704999778,None,0.8835587000357918,,,36 Sing,001,2022_Aug_30_1156,ProdSingRedoBetween,2021.2.3,59.966814349603034,
,,,,110,0,110,0,,,,,,,,,,,,,,,,,,,,,,913.3979337000055,None,,,,,,,,,,,,,,,,,,payment,112,111,sing,new,null,910.568637599994,None,910.568637599994,None,2,2.1866958999889903,910.568637599994,None,2.1866958999889903,912.7837747999583,None,913.2973773999838,None,913.2973773999838,None,n,0.08204250002745539,913.2973773999838,None,0.08204250002745539,,,36 Sing,001,2022_Aug_30_1156,ProdSingRedoBetween,2021.2.3,59.966814349603034,
,,,,111,0,111,0,,,,,,,,,,,,,,,,,,,,,,915.5995765000116,None,,,,,,,,,,,,,,,,,,phrase,167,112,sing,new,null,913.9102336000069,None,913.9102336000069,None,2,1.1173596999724396,913.9102336000069,None,1.1173596999724396,915.0490247000125,None,915.5495712999837,None,915.5495712999837,None,n,0.03001870005391538,915.5495712999837,None,0.03001870005391538,,,36 Sing,001,2022_Aug_30_1156,ProdSingRedoBetween,2021.2.3,59.966814349603034,
,,,,112,0,112,0,,,,,,,,,,,,,,,,,,,,,,918.9027994999778,None,,,,,,,,,,,,,,,,,,angle,39,113,sing,old,blue,916.1000587999588,None,916.1000587999588,None,4,2.119336600007955,916.1000587999588,None,2.119336600007955,918.2372868999955,None,918.7526348999818,None,918.7526348999818,None,f,0.12278460001107305,918.7526348999818,None,0.12278460001107305,,,36 Sing,001,2022_Aug_30_1156,ProdSingRedoBetween,2021.2.3,59.966814349603034,
,,,,113,0,113,0,,,,,,,,,,,,,,,,,,,,,,923.4407362999627,None,,,,,,,,,,,,,,,,,,provision,110,114,sing,new,null,919.4032864999608,None,919.4032864999608,None,1,3.3921638000174426,919.4032864999608,None,3.3921638000174426,922.8277234999696,None,923.340723900008,None,923.340723900008,None,n,0.070902900013607,923.340723900008,None,0.070902900013607,,,36 Sing,001,2022_Aug_30_1156,ProdSingRedoBetween,2021.2.3,59.966814349603034,
,,,,114,0,114,0,,,,,,,,,,,,,,,,,,,,,,925.9098064000136,None,,,,,,,,,,,,,,,,,,rapid,138,115,sing,new,null,923.9594481000095,None,923.9594481000095,None,1,1.164082800038159,923.9594481000095,None,1.164082800038159,925.1472367999959,None,925.6617413999629,None,925.6617413999629,None,n,0.22167040000203997,925.6617413999629,None,0.22167040000203997,,,36 Sing,001,2022_Aug_30_1156,ProdSingRedoBetween,2021.2.3,59.966814349603034,
,,,,115,0,115,0,,,,,,,,,,,,,,,,,,,,,,929.5800946999807,None,,,,,,,,,,,,,,,,,,stand,83,116,sing,old,red,926.4180472000153,None,926.4180472000153,None,6,1.7133890999830328,926.4180472000153,None,1.7133890999830328,928.1629679999896,None,928.666655900015,None,928.666655900015,None,r,0.8887306999531575,928.666655900015,None,0.8887306999531575,,,36 Sing,001,2022_Aug_30_1156,ProdSingRedoBetween,2021.2.3,59.966814349603034,
,,,,116,0,116,0,,,,,,,,,,,,,,,,,,,,,,932.2680245999945,None,,,,,,,,,,,,,,,,,,background,174,117,sing,new,null,930.0917765999911,None,930.0917765999911,None,2,1.5116391000337899,930.0917765999911,None,1.5116391000337899,931.635807899991,None,932.1542595999781,None,932.1542595999781,None,n,0.08919410000089556,932.1542595999781,None,0.08919410000089556,,,36 Sing,001,2022_Aug_30_1156,ProdSingRedoBetween,2021.2.3,59.966814349603034,
,,,,117,0,117,0,,,,,,,,,,,,,,,,,,,,,,934.8191262999899,None,,,,,,,,,,,,,,,,,,skill,81,118,sing,old,red,932.7876795000047,None,932.7876795000047,None,1,1.231727900041733,932.7876795000047,None,1.231727900041733,934.0362542999792,None,934.5557402999839,None,934.5557402999839,None,n,0.23960870003793389,934.5557402999839,None,0.23960870003793389,,,36 Sing,001,2022_Aug_30_1156,ProdSingRedoBetween,2021.2.3,59.966814349603034,
,,,,118,0,118,0,,,,,,,,,,,,,,,,,,,,,,938.359435099992,None,,,,,,,,,,,,,,,,,,brief,52,119,sing,old,blue,935.3192829999607,None,935.3192829999607,None,4,1.8601793000125326,935.3192829999607,None,1.8601793000125326,937.207434299984,None,937.7248052000068,None,937.7248052000068,None,f,0.6146232999744825,937.7248052000068,None,0.6146232999744825,,,36 Sing,001,2022_Aug_30_1156,ProdSingRedoBetween,2021.2.3,59.966814349603034,
,,,,119,0,119,0,,,,,,,,,,,,,,,,,,,,,,940.7412901999778,None,,,,,,,,,,,,,,,,,,thick,172,120,sing,new,null,938.8764473999618,None,938.8764473999618,None,1,1.2309640999883413,938.8764473999618,None,1.2309640999883413,940.1253190999851,None,940.6304353000014,None,940.6304353000014,None,n,0.09303330001421273,940.6304353000014,None,0.09303330001421273,,,36 Sing,001,2022_Aug_30_1156,ProdSingRedoBetween,2021.2.3,59.966814349603034,
,,,,120,0,120,0,,,,,,,,,,,,,,,,,,,,,,943.2437494999613,None,,,,,,,,,,,,,,,,,,graduate,179,121,sing,new,null,941.2526887999848,None,941.2526887999848,None,1,1.3268133000237867,941.2526887999848,None,1.3268133000237867,942.6099292999716,None,943.1167468999629,None,943.1167468999629,None,n,0.1106345999869518,943.1167468999629,None,0.1106345999869518,,,36 Sing,001,2022_Aug_30_1156,ProdSingRedoBetween,2021.2.3,59.966814349603034,
,,,,121,0,121,0,,,,,,,,,,,,,,,,,,,,,,946.4485287999851,None,,,,,,,,,,,,,,,,,,employment,32,122,sing,old,blue,943.7520346000092,None,943.7520346000092,None,5,2.0433260000427254,943.7520346000092,None,2.0433260000427254,945.8143139999593,None,946.32050229999,None,946.32050229999,None,r,0.09905739995883778,946.32050229999,None,0.09905739995883778,,,36 Sing,001,2022_Aug_30_1156,ProdSingRedoBetween,2021.2.3,59.966814349603034,
,,,,122,0,122,0,,,,,,,,,,,,,,,,,,,,,,950.701290500001,None,,,,,,,,,,,,,,,,,,scene,135,123,sing,new,null,946.9640372999711,None,946.9640372999711,None,1,2.9513536000158638,946.9640372999711,None,2.9513536000158638,949.9350630000117,None,950.4417841999675,None,950.4417841999675,None,n,0.2335484999930486,950.4417841999675,None,0.2335484999930486,,,36 Sing,001,2022_Aug_30_1156,ProdSingRedoBetween,2021.2.3,59.966814349603034,
,,,,123,0,123,0,,,,,,,,,,,,,,,,,,,,,,953.6374596999958,None,,,,,,,,,,,,,,,,,,search,86,124,sing,old,red,951.2105852999957,None,951.2105852999957,None,1,1.6008165000239387,951.2105852999957,None,1.6008165000239387,952.8394599999883,None,953.3555321999593,None,953.3555321999593,None,n,0.2558797000092454,953.3555321999593,None,0.2558797000092454,,,36 Sing,001,2022_Aug_30_1156,ProdSingRedoBetween,2021.2.3,59.966814349603034,
,,,,124,0,124,0,,,,,,,,,,,,,,,,,,,,,,956.0065431999974,None,,,,,,,,,,,,,,,,,,question,170,125,sing,new,null,954.1412468999624,None,954.1412468999624,None,1,1.182166899961885,954.1412468999624,None,1.182166899961885,955.3413908999646,None,955.8564968999708,None,955.8564968999708,None,n,0.12288819998502731,955.8564968999708,None,0.12288819998502731,,,36 Sing,001,2022_Aug_30_1156,ProdSingRedoBetween,2021.2.3,59.966814349603034,
,,,,125,0,125,0,,,,,,,,,,,,,,,,,,,,,,959.1102430999745,None,,,,,,,,,,,,,,,,,,permit,25,126,sing,old,yellow,956.5111240000115,None,956.5111240000115,None,6,1.8682768000289798,956.5111240000115,None,1.8682768000289798,958.4114604999777,None,958.9305212000036,None,958.9305212000036,None,r,0.1608303000102751,958.9305212000036,None,0.1608303000102751,,,36 Sing,001,2022_Aug_30_1156,ProdSingRedoBetween,2021.2.3,59.966814349603034,
,,,,126,0,126,0,,,,,,,,,,,,,,,,,,,,,,962.2959065999603,None,,,,,,,,,,,,,,,,,,hearing,21,127,sing,old,yellow,959.618272599997,None,959.618272599997,None,6,2.0411154000321403,959.618272599997,None,2.0411154000321403,961.6807595000137,None,962.1974481999641,None,962.1974481999641,None,r,0.0699595000478439,962.1974481999641,None,0.0699595000478439,,,36 Sing,001,2022_Aug_30_1156,ProdSingRedoBetween,2021.2.3,59.966814349603034,
,,,,127,0,127,0,,,,,,,,,,,,,,,,,,,,,,966.483731299988,None,,,,,,,,,,,,,,,,,,guide,178,128,sing,new,null,962.8046271000057,None,962.8046271000057,None,3,1.5987168999854475,962.8046271000057,None,1.5987168999854475,964.4344054000103,None,964.9542812000145,None,964.9542812000145,None,n,1.5133086999994703,964.9542812000145,None,1.5133086999994703,,,36 Sing,001,2022_Aug_30_1156,ProdSingRedoBetween,2021.2.3,59.966814349603034,
,,,,128,0,128,0,,,,,,,,,,,,,,,,,,,,,,969.5867065999773,None,,,,,,,,,,,,,,,,,,agreement,84,129,sing,old,red,966.9856346999877,None,966.9856346999877,None,6,1.4978119000443257,966.9856346999877,None,1.4978119000443257,968.5024261999642,None,969.0028732999926,None,969.0028732999926,None,r,0.5685496000223793,969.0028732999926,None,0.5685496000223793,,,36 Sing,001,2022_Aug_30_1156,ProdSingRedoBetween,2021.2.3,59.966814349603034,
,,,,129,0,129,0,,,,,,,,,,,,,,,,,,,,,,972.0892775999964,None,,,,,,,,,,,,,,,,,,shock,127,130,sing,new,null,970.0978421999607,None,970.0978421999607,None,1,1.2176062000216916,970.0978421999607,None,1.2176062000216916,971.3418316000025,None,971.8603959999746,None,971.8603959999746,None,n,0.20699850004166365,971.8603959999746,None,0.20699850004166365,,,36 Sing,001,2022_Aug_30_1156,ProdSingRedoBetween,2021.2.3,59.966814349603034,
,,,,130,0,130,0,,,,,,,,,,,,,,,,,,,,,,975.0932605999988,None,,,,,,,,,,,,,,,,,,strain,78,131,sing,old,red,972.6018565999693,None,972.6018565999693,None,1,1.7854196000262164,972.6018565999693,None,1.7854196000262164,974.4093171000131,None,974.9102756999782,None,974.9102756999782,None,n,0.1573295000125654,974.9102756999782,None,0.1573295000125654,,,36 Sing,001,2022_Aug_30_1156,ProdSingRedoBetween,2021.2.3,59.966814349603034,
,,,,131,0,131,0,,,,,,,,,,,,,,,,,,,,,,978.0952592999674,None,,,,,,,,,,,,,,,,,,marriage,42,132,sing,old,blue,975.5992425999721,None,975.5992425999721,None,5,1.7561513999826275,975.5992425999721,None,1.7561513999826275,977.3778276999947,None,977.8841802999959,None,977.8841802999959,None,f,0.18318300001556054,977.8841802999959,None,0.18318300001556054,,,36 Sing,001,2022_Aug_30_1156,ProdSingRedoBetween,2021.2.3,59.966814349603034,
,,,,132,0,132,0,,,,,,,,,,,,,,,,,,,,,,980.9981352000032,None,,,,,,,,,,,,,,,,,,carry,7,133,sing,old,yellow,978.5986608999665,None,978.5986608999665,None,1,1.388686400023289,978.5986608999665,None,1.388686400023289,980.013879199978,None,980.5196508999798,None,980.5196508999798,None,n,0.45973030000459403,980.5196508999798,None,0.45973030000459403,,,36 Sing,001,2022_Aug_30_1156,ProdSingRedoBetween,2021.2.3,59.966814349603034,
,,,,133,0,133,0,,,,,,,,,,,,,,,,,,,,,,983.7174734,None,,,,,,,,,,,,,,,,,,position,70,134,sing,old,red,981.5073710000142,None,981.5073710000142,None,5,1.5520047000027262,981.5073710000142,None,1.5520047000027262,983.0847046999843,None,983.5900895000086,None,983.5900895000086,None,f,0.10928539995802566,983.5900895000086,None,0.10928539995802566,,,36 Sing,001,2022_Aug_30_1156,ProdSingRedoBetween,2021.2.3,59.966814349603034,
,,,,134,0,134,0,,,,,,,,,,,,,,,,,,,,,,986.1866747000022,None,,,,,,,,,,,,,,,,,,voice,113,135,sing,new,null,984.2217881999677,None,984.2217881999677,None,1,1.2776098000467755,984.2217881999677,None,1.2776098000467755,985.5206115999608,None,986.0198442999972,None,986.0198442999972,None,n,0.1515261000022292,986.0198442999972,None,0.1515261000022292,,,36 Sing,001,2022_Aug_30_1156,ProdSingRedoBetween,2021.2.3,59.966814349603034,
,,,,135,0,135,0,,,,,,,,,,,,,,,,,,,,,,991.1082232999615,None,,,,,,,,,,,,,,,,,,sleep,150,136,sing,new,null,986.6929124000017,None,986.6929124000017,None,3,3.4384797999518923,986.6929124000017,None,3.4384797999518923,990.1604200999718,None,990.6744263999863,None,990.6744263999863,None,f,0.4168943999684416,990.6744263999863,None,0.4168943999684416,,,36 Sing,001,2022_Aug_30_1156,ProdSingRedoBetween,2021.2.3,59.966814349603034,
,,,,136,0,136,0,,,,,,,,,,,,,,,,,,,,,,993.7608743999735,None,,,,,,,,,,,,,,,,,,poetry,162,137,sing,new,null,991.6184211999644,None,991.6184211999644,None,1,1.3049521999782883,991.6184211999644,None,1.3049521999782883,992.9446852999972,None,993.4495904999785,None,993.4495904999785,None,n,0.28977460000896826,993.4495904999785,None,0.28977460000896826,,,36 Sing,001,2022_Aug_30_1156,ProdSingRedoBetween,2021.2.3,59.966814349603034,
,,,,137,0,137,0,,,,,,,,,,,,,,,,,,,,,,996.6639073999831,None,,,,,,,,,,,,,,,,,,command,31,138,sing,old,blue,994.2704865999985,None,994.2704865999985,None,5,1.7808894999907352,994.2704865999985,None,1.7808894999907352,996.0813656999962,None,996.5862615999649,None,996.5862615999649,None,f,0.04908589995466173,996.5862615999649,None,0.04908589995466173,,,36 Sing,001,2022_Aug_30_1156,ProdSingRedoBetween,2021.2.3,59.966814349603034,
,,,,138,0,138,0,,,,,,,,,,,,,,,,,,,,,,999.3871062999824,None,,,,,,,,,,,,,,,,,,dream,99,139,sing,new,null,997.1652252000058,None,997.1652252000058,None,1,0.9981295000179671,997.1652252000058,None,0.9981295000179671,998.1863339999691,None,998.6990045999992,None,998.6990045999992,None,n,0.6564220999716781,998.6990045999992,None,0.6564220999716781,,,36 Sing,001,2022_Aug_30_1156,ProdSingRedoBetween,2021.2.3,59.966814349603034,
,,,,139,0,139,0,,,,,,,,,,,,,,,,,,,,,,1002.1192018999718,None,,,,,,,,,,,,,,,,,,literature,20,140,sing,old,yellow,999.9023261999828,None,999.9023261999828,None,6,1.4210718999966048,999.9023261999828,None,1.4210718999966048,1001.3524272000068,None,1001.8526003999868,None,1001.8526003999868,None,r,0.23874540004180744,1001.8526003999868,None,0.23874540004180744,,,36 Sing,001,2022_Aug_30_1156,ProdSingRedoBetween,2021.2.3,59.966814349603034,
,,,,140,0,140,0,,,,,,,,,,,,,,,,,,,,,,1005.5569276000024,None,,,,,,,,,,,,,,,,,,turkey,106,141,sing,new,null,1002.6291491999873,None,1002.6291491999873,None,1,1.462464899988845,1002.6291491999873,None,1.462464899988845,1004.1281210000161,None,1004.6385238000075,None,1004.6385238000075,None,n,0.8928926999797113,1004.6385238000075,None,0.8928926999797113,,,36 Sing,001,2022_Aug_30_1156,ProdSingRedoBetween,2021.2.3,59.966814349603034,
,,,,141,0,141,0,,,,,,,,,,,,,,,,,,,,,,1011.9957408999908,None,,,,,,,,,,,,,,,,,,quarter,129,142,sing,new,null,1006.0567596000037,None,1006.0567596000037,None,1,4.54661209997721,1006.0567596000037,None,4.54661209997721,1010.6292243999778,None,1011.1340547999716,None,1011.1340547999716,None,n,0.8453408000059426,1011.1340547999716,None,0.8453408000059426,,,36 Sing,001,2022_Aug_30_1156,ProdSingRedoBetween,2021.2.3,59.966814349603034,
,,,,142,0,142,0,,,,,,,,,,,,,,,,,,,,,,1014.1143063000054,None,,,,,,,,,,,,,,,,,,column,29,143,sing,old,blue,1012.5018615999725,None,1012.5018615999725,None,1,0.709708700014744,1012.5018615999725,None,0.709708700014744,1013.2432677999604,None,1013.753584799997,None,1013.753584799997,None,n,0.3378532000351697,1013.753584799997,None,0.3378532000351697,,,36 Sing,001,2022_Aug_30_1156,ProdSingRedoBetween,2021.2.3,59.966814349603034,
,,,,143,0,143,0,,,,,,,,,,,,,,,,,,,,,,1017.1172608999768,None,,,,,,,,,,,,,,,,,,management,128,144,sing,new,null,1014.6246595999692,None,1014.6246595999692,None,1,1.6267251999815926,1014.6246595999692,None,1.6267251999815926,1016.2683895999799,None,1016.7775487999897,None,1016.7775487999897,None,n,0.32182000001193956,1016.7775487999897,None,0.32182000001193956,,,36 Sing,001,2022_Aug_30_1156,ProdSingRedoBetween,2021.2.3,59.966814349603034,
,,,,144,0,144,0,,,,,,,,,,,,,,,,,,,,,,1020.370732099982,None,,,,,,,,,,,,,,,,,,leader,13,145,sing,old,yellow,1017.6209341000067,None,1017.6209341000067,None,1,1.7184864000300877,1017.6209341000067,None,1.7184864000300877,1019.3771878000116,None,1019.8883906999836,None,1019.8883906999836,None,n,0.4589570999960415,1019.8883906999836,None,0.4589570999960415,,,36 Sing,001,2022_Aug_30_1156,ProdSingRedoBetween,2021.2.3,59.966814349603034,
,,,,145,0,145,0,,,,,,,,,,,,,,,,,,,,,,1022.5560174999991,None,,,,,,,,,,,,,,,,,,finish,45,146,sing,old,blue,1020.8805696999771,None,1020.8805696999771,None,1,0.8509540000231937,1020.8805696999771,None,0.8509540000231937,1021.7568090999848,None,1022.2618696999853,None,1022.2618696999853,None,n,0.26950190000934526,1022.2618696999853,None,0.26950190000934526,,,36 Sing,001,2022_Aug_30_1156,ProdSingRedoBetween,2021.2.3,59.966814349603034,
,,,,146,0,146,0,,,,,,,,,,,,,,,,,,,,,,1024.7289247000008,None,,,,,,,,,,,,,,,,,,period,115,147,sing,new,null,1023.0648065999849,None,1023.0648065999849,None,1,0.8906534999841824,1023.0648065999849,None,0.8906534999841824,1023.9763119000127,None,1024.4916595999966,None,1024.4916595999966,None,n,0.215782199986279,1024.4916595999966,None,0.215782199986279,,,36 Sing,001,2022_Aug_30_1156,ProdSingRedoBetween,2021.2.3,59.966814349603034,
,,,,147,0,147,0,,,,,,,,,,,,,,,,,,,,,,1026.8605335999746,None,,,,,,,,,,,,,,,,,,light,177,148,sing,new,null,1025.2448835999821,None,1025.2448835999821,None,1,0.8304112000041641,1025.2448835999821,None,0.8304112000041641,1026.094035499962,None,1026.5957043999806,None,1026.5957043999806,None,n,0.23974490002729,1026.5957043999806,None,0.23974490002729,,,36 Sing,001,2022_Aug_30_1156,ProdSingRedoBetween,2021.2.3,59.966814349603034,
,,,,148,0,148,0,,,,,,,,,,,,,,,,,,,,,,1029.0960926999687,None,,,,,,,,,,,,,,,,,,empty,48,149,sing,old,blue,1027.3704230000149,None,1027.3704230000149,None,1,0.9609123000409454,1027.3704230000149,None,0.9609123000409454,1028.3619020999759,None,1028.86265679996,None,1028.86265679996,None,n,0.20471209997776896,1028.86265679996,None,0.20471209997776896,,,36 Sing,001,2022_Aug_30_1156,ProdSingRedoBetween,2021.2.3,59.966814349603034,
,,,,149,0,149,0,,,,,,,,,,,,,,,,,,,,,,1031.1812966999714,None,,,,,,,,,,,,,,,,,,appearance,51,150,sing,old,blue,1029.6040936000063,None,1029.6040936000063,None,1,0.8391414999496192,1029.6040936000063,None,0.8391414999496192,1030.4770794999786,None,1030.9814247000031,None,1030.9814247000031,None,n,0.1738599999807775,1030.9814247000031,None,0.1738599999807775,,,36 Sing,001,2022_Aug_30_1156,ProdSingRedoBetween,2021.2.3,59.966814349603034,
,,,,150,0,150,0,,,,,,,,,,,,,,,,,,,,,,1033.2053483999916,None,,,,,,,,,,,,,,,,,,degree,123,151,sing,new,null,1031.6875137999887,None,1031.6875137999887,None,1,0.683849899971392,1031.6875137999887,None,0.683849899971392,1032.4000586000038,None,1032.9023673000047,None,1032.9023673000047,None,n,0.2688485999824479,1032.9023673000047,None,0.2688485999824479,,,36 Sing,001,2022_Aug_30_1156,ProdSingRedoBetween,2021.2.3,59.966814349603034,
,,,,151,0,151,0,,,,,,,,,,,,,,,,,,,,,,1040.3574115000083,None,,,,,,,,,,,,,,,,,,generation,71,152,sing,old,red,1033.7176935999887,None,1033.7176935999887,None,2,5.773614999954589,1033.7176935999887,None,5.773614999954589,1039.5077562999795,None,1040.0110702000093,None,1040.0110702000093,None,n,0.3282035000156611,1040.0110702000093,None,0.3282035000156611,,,36 Sing,001,2022_Aug_30_1156,ProdSingRedoBetween,2021.2.3,59.966814349603034,
,,,,152,0,152,0,,,,,,,,,,,,,,,,,,,,,,1043.0934455000097,None,,,,,,,,,,,,,,,,,,surface,100,153,sing,new,null,1040.8652804999729,None,1040.8652804999729,None,2,1.546177699987311,1040.8652804999729,None,1.546177699987311,1042.4511351999827,None,1042.9714032000047,None,1042.9714032000047,None,n,0.09586930001387373,1042.9714032000047,None,0.09586930001387373,,,36 Sing,001,2022_Aug_30_1156,ProdSingRedoBetween,2021.2.3,59.966814349603034,
,,,,153,0,153,0,,,,,,,,,,,,,,,,,,,,,,1047.614560499962,None,,,,,,,,,,,,,,,,,,territory,77,154,sing,old,red,1043.6015887999674,None,1043.6015887999674,None,1,3.0897321000229567,1043.6015887999674,None,3.0897321000229567,1046.714959600009,None,1047.2201995999785,None,1047.2201995999785,None,n,0.3751172000193037,1047.2201995999785,None,0.3751172000193037,,,36 Sing,001,2022_Aug_30_1156,ProdSingRedoBetween,2021.2.3,59.966814349603034,
,,,,154,0,154,0,,,,,,,,,,,,,,,,,,,,,,1051.184834399959,None,,,,,,,,,,,,,,,,,,short,12,155,sing,old,yellow,1048.1312215999933,None,1048.1312215999933,None,3,1.9121232999605127,1048.1312215999933,None,1.9121232999605127,1050.0707141999737,None,1050.5844355999725,None,1050.5844355999725,None,f,0.5789227000204846,1050.5844355999725,None,0.5789227000204846,,,36 Sing,001,2022_Aug_30_1156,ProdSingRedoBetween,2021.2.3,59.966814349603034,
,,,,155,0,155,0,,,,,,,,,,,,,,,,,,,,,,1053.6373208999867,None,,,,,,,,,,,,,,,,,,trail,88,156,sing,old,red,1051.691182199982,None,1051.691182199982,None,3,1.3761349999695085,1051.691182199982,None,1.3761349999695085,1053.086547599989,None,1053.5874231999624,None,1053.5874231999624,None,f,0.03190010000253096,1053.5874231999624,None,0.03190010000253096,,,36 Sing,001,2022_Aug_30_1156,ProdSingRedoBetween,2021.2.3,59.966814349603034,
,,,,156,0,156,0,,,,,,,,,,,,,,,,,,,,,,1055.7060110999737,None,,,,,,,,,,,,,,,,,,vision,97,157,sing,new,null,1054.1517520999769,None,1054.1517520999769,None,3,0.7875974000198767,1054.1517520999769,None,0.7875974000198767,1054.9554811000125,None,1055.4557863000082,None,1055.4557863000082,None,f,0.21953070000745356,1055.4557863000082,None,0.21953070000745356,,,36 Sing,001,2022_Aug_30_1156,ProdSingRedoBetween,2021.2.3,59.966814349603034,
,,,,157,0,157,0,,,,,,,,,,,,,,,,,,,,,,1058.1417581000132,None,,,,,,,,,,,,,,,,,,report,141,158,sing,new,null,1056.208312599978,None,1056.208312599978,None,3,1.1150052000302821,1056.208312599978,None,1.1150052000302821,1057.3443188999663,None,1057.8582399999723,None,1057.8582399999723,None,f,0.2571441000327468,1057.8582399999723,None,0.2571441000327468,,,36 Sing,001,2022_Aug_30_1156,ProdSingRedoBetween,2021.2.3,59.966814349603034,
,,,,158,0,158,0,,,,,,,,,,,,,,,,,,,,,,1061.4192194999778,None,,,,,,,,,,,,,,,,,,answer,158,159,sing,new,null,1058.6434703000123,None,1058.6434703000123,None,1,1.3918696999899112,1058.6434703000123,None,1.3918696999899112,1060.0616886999924,None,1060.5646214999724,None,1060.5646214999724,None,n,0.8227753000101075,1060.5646214999724,None,0.8227753000101075,,,36 Sing,001,2022_Aug_30_1156,ProdSingRedoBetween,2021.2.3,59.966814349603034,
,,,,159,0,159,0,,,,,,,,,,,,,,,,,,,,,,1070.871277600003,None,,,,,,,,,,,,,,,,,,match,89,160,sing,old,red,1061.9346428000135,None,1061.9346428000135,None,1,8.340669299999718,1061.9346428000135,None,8.340669299999718,1070.3054537000135,None,1070.8212381000048,None,1070.8212381000048,None,n,0.022006899991538376,1070.8212381000048,None,0.022006899991538376,,,36 Sing,001,2022_Aug_30_1156,ProdSingRedoBetween,2021.2.3,59.966814349603034,
,,,,160,0,160,0,,,,,,,,,,,,,,,,,,,,,,1074.7083372999914,None,,,,,,,,,,,,,,,,,,figure,28,161,sing,old,yellow,1071.380404800002,None,1071.380404800002,None,1,2.263036699965596,1071.380404800002,None,2.263036699965596,1073.6768845999613,None,1074.1913690000074,None,1074.1913690000074,None,n,0.49986629997147247,1074.1913690000074,None,0.49986629997147247,,,36 Sing,001,2022_Aug_30_1156,ProdSingRedoBetween,2021.2.3,59.966814349603034,
,,,,161,0,161,0,,,,,,,,,,,,,,,,,,,,,,1081.2648546000128,None,,,,,,,,,,,,,,,,,,collection,33,162,sing,old,blue,1075.2136948999832,None,1075.2136948999832,None,1,5.277591500023846,1075.2136948999832,None,5.277591500023846,1080.5139772999682,None,1081.0192229999811,None,1081.0192229999811,None,n,0.21606280002743006,1081.0192229999811,None,0.21606280002743006,,,36 Sing,001,2022_Aug_30_1156,ProdSingRedoBetween,2021.2.3,59.966814349603034,
,,,,162,0,162,0,,,,,,,,,,,,,,,,,,,,,,1085.669185000006,None,,,,,,,,,,,,,,,,,,trial,140,163,sing,new,null,1081.7731566000148,None,1081.7731566000148,None,3,1.8381517000379972,1081.7731566000148,None,1.8381517000379972,1083.636750900012,None,1084.1513564999914,None,1084.1513564999914,None,f,1.4998755999840796,1084.1513564999914,None,1.4998755999840796,,,36 Sing,001,2022_Aug_30_1156,ProdSingRedoBetween,2021.2.3,59.966814349603034,
,,,,163,0,163,0,,,,,,,,,,,,,,,,,,,,,,1088.3886717999703,None,,,,,,,,,,,,,,,,,,watch,61,164,sing,old,red,1086.1790440999903,None,1086.1790440999903,None,1,1.3202208000002429,1086.1790440999903,None,1.3202208000002429,1087.5212334999815,None,1088.0253211999661,None,1088.0253211999661,None,n,0.34605820005526766,1088.0253211999661,None,0.34605820005526766,,,36 Sing,001,2022_Aug_30_1156,ProdSingRedoBetween,2021.2.3,59.966814349603034,
,,,,164,0,164,0,,,,,,,,,,,,,,,,,,,,,,1090.2581019999925,None,,,,,,,,,,,,,,,,,,trend,116,165,sing,new,null,1088.8957415999612,None,1088.8957415999612,None,1,0.6995194000191987,1088.8957415999612,None,0.6995194000191987,1089.6244699999806,None,1090.1236184000154,None,1090.1236184000154,None,n,0.1117454000050202,1090.1236184000154,None,0.1117454000050202,,,36 Sing,001,2022_Aug_30_1156,ProdSingRedoBetween,2021.2.3,59.966814349603034,
,,,,165,0,165,0,,,,,,,,,,,,,,,,,,,,,,1093.5440512999776,None,,,,,,,,,,,,,,,,,,order,101,166,sing,new,null,1090.7626567999832,None,1090.7626567999832,None,1,1.1046885999967344,1090.7626567999832,None,1.1046885999967344,1091.9022414999781,None,1092.4094097999623,None,1092.4094097999623,None,n,1.105781799997203,1092.4094097999623,None,1.105781799997203,,,36 Sing,001,2022_Aug_30_1156,ProdSingRedoBetween,2021.2.3,59.966814349603034,
,,,,166,0,166,0,,,,,,,,,,,,,,,,,,,,,,1095.512442999985,None,,,,,,,,,,,,,,,,,,clean,125,167,sing,new,null,1094.0481586999958,None,1094.0481586999958,None,1,0.6190649999771267,1094.0481586999958,None,0.6190649999771267,1094.6963711999706,None,1095.199739100004,None,1095.199739100004,None,n,0.29150719998870045,1095.199739100004,None,0.29150719998870045,,,36 Sing,001,2022_Aug_30_1156,ProdSingRedoBetween,2021.2.3,59.966814349603034,
,,,,167,0,167,0,,,,,,,,,,,,,,,,,,,,,,1100.0669923999812,None,,,,,,,,,,,,,,,,,,entrance,75,168,sing,old,red,1096.0229938999983,None,1096.0229938999983,None,1,3.40426620002836,1096.0229938999983,None,3.40426620002836,1099.453978799982,None,1099.9691359999706,None,1099.9691359999706,None,n,0.07415780000155792,1099.9691359999706,None,0.07415780000155792,,,36 Sing,001,2022_Aug_30_1156,ProdSingRedoBetween,2021.2.3,59.966814349603034,
,,,,168,0,168,0,,,,,,,,,,,,,,,,,,,,,,1102.7529356000014,None,,,,,,,,,,,,,,,,,,primary,131,169,sing,new,null,1100.5731750999694,None,1100.5731750999694,None,1,1.4302287999889813,1100.5731750999694,None,1.4302287999889813,1102.0200949999853,None,1102.5232317000045,None,1102.5232317000045,None,n,0.2081962000229396,1102.5232317000045,None,0.2081962000229396,,,36 Sing,001,2022_Aug_30_1156,ProdSingRedoBetween,2021.2.3,59.966814349603034,
,,,,169,0,169,0,,,,,,,,,,,,,,,,,,,,,,1105.2221064000041,None,,,,,,,,,,,,,,,,,,silence,120,170,sing,new,null,1103.2712716999813,None,1103.2712716999813,None,1,0.7161158000235446,1103.2712716999813,None,0.7161158000235446,1104.0053614999633,None,1104.5129788999911,None,1104.5129788999911,None,n,0.6903162999660708,1104.5129788999911,None,0.6903162999660708,,,36 Sing,001,2022_Aug_30_1156,ProdSingRedoBetween,2021.2.3,59.966814349603034,
,,,,170,0,170,0,,,,,,,,,,,,,,,,,,,,,,1108.2917776000104,None,,,,,,,,,,,,,,,,,,device,22,171,sing,old,yellow,1105.7345640999847,None,1105.7345640999847,None,3,1.9167091000126675,1105.7345640999847,None,1.9167091000126675,1107.6758234999725,None,1108.181894599984,None,1108.181894599984,None,f,0.09335969999665394,1108.181894599984,None,0.09335969999665394,,,36 Sing,001,2022_Aug_30_1156,ProdSingRedoBetween,2021.2.3,59.966814349603034,
,,,,171,0,171,0,,,,,,,,,,,,,,,,,,,,,,1110.5106849999866,None,,,,,,,,,,,,,,,,,,throw,152,172,sing,new,null,1108.8052493999712,None,1108.8052493999712,None,1,1.0701538000139408,1108.8052493999712,None,1.0701538000139408,1109.9024664000026,None,1110.4108070000075,None,1110.4108070000075,None,n,0.0724775999551639,1110.4108070000075,None,0.0724775999551639,,,36 Sing,001,2022_Aug_30_1156,ProdSingRedoBetween,2021.2.3,59.966814349603034,
,,,,172,0,172,0,,,,,,,,,,,,,,,,,,,,,,1118.552126900002,None,,,,,,,,,,,,,,,,,,personnel,145,173,sing,new,null,1111.024794499972,None,1111.024794499972,None,1,5.74662009999156,1111.024794499972,None,5.74662009999156,1116.8125329999602,None,1117.3191120999982,None,1117.3191120999982,None,n,1.212325000029523,1117.3191120999982,None,1.212325000029523,,,36 Sing,001,2022_Aug_30_1156,ProdSingRedoBetween,2021.2.3,59.966814349603034,
,,,,173,0,173,0,,,,,,,,,,,,,,,,,,,,,,1121.5048450999893,None,,,,,,,,,,,,,,,,,,music,67,174,sing,old,red,1119.0570215999614,None,1119.0570215999614,None,3,1.7621384999947622,1119.0570215999614,None,1.7621384999947622,1120.8425657000043,None,1121.3550003999844,None,1121.3550003999844,None,f,0.12014420004561543,1121.3550003999844,None,0.12014420004561543,,,36 Sing,001,2022_Aug_30_1156,ProdSingRedoBetween,2021.2.3,59.966814349603034,
,,,,174,0,174,0,,,,,,,,,,,,,,,,,,,,,,1124.274421399983,None,,,,,,,,,,,,,,,,,,cross,143,175,sing,new,null,1122.005389500002,None,1122.005389500002,None,2,1.4858881999971345,1122.005389500002,None,1.4858881999971345,1123.513440700015,None,1124.0243047999684,None,1124.0243047999684,None,n,0.21908750000875443,1124.0243047999684,None,0.21908750000875443,,,36 Sing,001,2022_Aug_30_1156,ProdSingRedoBetween,2021.2.3,59.966814349603034,
,,,,175,0,175,0,,,,,,,,,,,,,,,,,,,,,,1126.9437803999754,None,,,,,,,,,,,,,,,,,,council,37,176,sing,old,blue,1124.7837196000037,None,1124.7837196000037,None,6,1.4835393999819644,1124.7837196000037,None,1.4835393999819644,1126.2958257999853,None,1126.810506400012,None,1126.810506400012,None,r,0.11279270000522956,1126.810506400012,None,0.11279270000522956,,,36 Sing,001,2022_Aug_30_1156,ProdSingRedoBetween,2021.2.3,59.966814349603034,
,,,,176,0,176,0,,,,,,,,,,,,,,,,,,,,,,1129.2126561999903,None,,,,,,,,,,,,,,,,,,income,130,177,sing,new,null,1127.4500982000027,None,1127.4500982000027,None,1,1.153038699994795,1127.4500982000027,None,1.153038699994795,1128.6321882999619,None,1129.1457806999679,None,1129.1457806999679,None,n,0.041368499980308115,1129.1457806999679,None,0.041368499980308115,,,36 Sing,001,2022_Aug_30_1156,ProdSingRedoBetween,2021.2.3,59.966814349603034,
