StudyLoop.thisRepN,StudyLoop.thisTrialN,StudyLoop.thisN,StudyLoop.thisIndex,TestLoop.thisRepN,TestLoop.thisTrialN,TestLoop.thisN,TestLoop.thisIndex,textCondition.started,textCondition.stopped,keyCondition.keys,keyCondition.rt,keyCondition.started,keyCondition.stopped,Condition,textWelcome.started,textWelcome.stopped,keyWelcome.keys,keyWelcome.rt,keyWelcome.started,keyWelcome.stopped,textAloud.started,textAloud.stopped,textSilent.started,textSilent.stopped,textSing.started,textSing.stopped,conditional_text.started,conditional_text.stopped,textBlank500.started,textBlank500.stopped,study_word,study_num,study_order,study_type,word_color,textStudy.started,textStudy.stopped,keyStudy.keys,keyStudy.started,keyStudy.stopped,textTestInstructions.started,textTestInstructions.stopped,key_resp_3.keys,key_resp_3.rt,key_resp_3.started,key_resp_3.stopped,test_word,test_num,test_order,test_condition,old_new_test,test_word_original_color,textConf.started,textConf.stopped,textConfScale.started,textConfScale.stopped,keyConf.keys,keyConf.rt,keyConf.started,keyConf.stopped,confidence response time,textTestBlank.started,textTestBlank.stopped,textRKN.started,textRKN.stopped,textRKNScale.started,textRKNScale.stopped,keyRKN.keys,keyRKN.rt,keyRKN.started,keyRKN.stopped,rkn response time,textEnd.started,textEnd.stopped,participant,session,date,expName,psychopyVersion,frameRate,
,,,,,,,,23.788010200019926,None,a,1.9627227000019047,23.788010200019926,None,,,,,,,,,,,,,,,,,,,,,,,,,,,,,,,,,,,,,,,,,,,,,,,,,,,,,,,,,,,,,,37Silent,001,2022_Sep_01_1056,ProdSingRedoBetween,2021.2.3,59.92951091322044,
,,,,,,,,,,,,,,SilentTest,25.820636299991747,None,space,195.20180300000357,25.820636299991747,None,,,,,,,,,,,,,,,,,,,,,,,,,,,,,,,,,,,,,,,,,,,,,,,,,,,,,,,37Silent,001,2022_Sep_01_1056,ProdSingRedoBetween,2021.2.3,59.92951091322044,
0,0,0,0,,,,,,,,,,,,,,,,,,25.820636299991747,None,25.820636299991747,None,25.820636299991747,None,25.820636299991747,None,223.5634213000012,None,charter,1,1,silent,yellow,221.55562120000832,None,None,221.55562120000832,None,,,,,,,,,,,,,,,,,,,,,,,,,,,,,,,,,,,37Silent,001,2022_Sep_01_1056,ProdSingRedoBetween,2021.2.3,59.92951091322044,
1,0,1,0,,,,,,,,,,,,,,,,,,,,,,,,,,226.06604700000025,None,weather,62,2,silent,red,224.06548150000162,None,None,224.06548150000162,None,,,,,,,,,,,,,,,,,,,,,,,,,,,,,,,,,,,37Silent,001,2022_Sep_01_1056,ProdSingRedoBetween,2021.2.3,59.92951091322044,
2,0,2,0,,,,,,,,,,,,,,,,,,,,,,,,,,228.56851549999556,None,mayor,88,3,silent,red,226.56661589999567,None,None,226.56661589999567,None,,,,,,,,,,,,,,,,,,,,,,,,,,,,,,,,,,,37Silent,001,2022_Sep_01_1056,ProdSingRedoBetween,2021.2.3,59.92951091322044,
3,0,3,0,,,,,,,,,,,,,,,,,,,,,,,,,,231.0710309999995,None,gesture,22,4,silent,yellow,229.0715468999988,None,None,229.0715468999988,None,,,,,,,,,,,,,,,,,,,,,,,,,,,,,,,,,,,37Silent,001,2022_Sep_01_1056,ProdSingRedoBetween,2021.2.3,59.92951091322044,
4,0,4,0,,,,,,,,,,,,,,,,,,,,,,,,,,233.57370710000396,None,number,61,5,silent,red,231.5713856999937,None,None,231.5713856999937,None,,,,,,,,,,,,,,,,,,,,,,,,,,,,,,,,,,,37Silent,001,2022_Sep_01_1056,ProdSingRedoBetween,2021.2.3,59.92951091322044,
5,0,5,0,,,,,,,,,,,,,,,,,,,,,,,,,,236.0760855000117,None,tragedy,43,6,silent,blue,234.07416839999496,None,None,234.07416839999496,None,,,,,,,,,,,,,,,,,,,,,,,,,,,,,,,,,,,37Silent,001,2022_Sep_01_1056,ProdSingRedoBetween,2021.2.3,59.92951091322044,
6,0,6,0,,,,,,,,,,,,,,,,,,,,,,,,,,238.57847370000673,None,surprise,52,7,silent,blue,236.5771046000009,None,None,236.5771046000009,None,,,,,,,,,,,,,,,,,,,,,,,,,,,,,,,,,,,37Silent,001,2022_Sep_01_1056,ProdSingRedoBetween,2021.2.3,59.92951091322044,
7,0,7,0,,,,,,,,,,,,,,,,,,,,,,,,,,241.0976278000162,None,welcome,18,8,silent,yellow,239.08543380000629,None,None,239.08543380000629,None,,,,,,,,,,,,,,,,,,,,,,,,,,,,,,,,,,,37Silent,001,2022_Sep_01_1056,ProdSingRedoBetween,2021.2.3,59.92951091322044,
8,0,8,0,,,,,,,,,,,,,,,,,,,,,,,,,,243.60020630000508,None,comedy,78,9,silent,red,241.59813679999206,None,None,241.59813679999206,None,,,,,,,,,,,,,,,,,,,,,,,,,,,,,,,,,,,37Silent,001,2022_Sep_01_1056,ProdSingRedoBetween,2021.2.3,59.92951091322044,
9,0,9,0,,,,,,,,,,,,,,,,,,,,,,,,,,246.1028282000043,None,answer,13,10,silent,yellow,244.1007319999917,None,None,244.1007319999917,None,,,,,,,,,,,,,,,,,,,,,,,,,,,,,,,,,,,37Silent,001,2022_Sep_01_1056,ProdSingRedoBetween,2021.2.3,59.92951091322044,
10,0,10,0,,,,,,,,,,,,,,,,,,,,,,,,,,248.6051931999973,None,youth,68,11,silent,red,246.60516619999544,None,None,246.60516619999544,None,,,,,,,,,,,,,,,,,,,,,,,,,,,,,,,,,,,37Silent,001,2022_Sep_01_1056,ProdSingRedoBetween,2021.2.3,59.92951091322044,
11,0,11,0,,,,,,,,,,,,,,,,,,,,,,,,,,251.1245101999957,None,finance,42,12,silent,blue,249.10917750000954,None,None,249.10917750000954,None,,,,,,,,,,,,,,,,,,,,,,,,,,,,,,,,,,,37Silent,001,2022_Sep_01_1056,ProdSingRedoBetween,2021.2.3,59.92951091322044,
12,0,12,0,,,,,,,,,,,,,,,,,,,,,,,,,,253.6267613999953,None,solution,72,13,silent,red,251.6262905000185,None,None,251.6262905000185,None,,,,,,,,,,,,,,,,,,,,,,,,,,,,,,,,,,,37Silent,001,2022_Sep_01_1056,ProdSingRedoBetween,2021.2.3,59.92951091322044,
13,0,13,0,,,,,,,,,,,,,,,,,,,,,,,,,,256.12968360001105,None,meeting,70,14,silent,red,254.1272939000046,None,None,254.1272939000046,None,,,,,,,,,,,,,,,,,,,,,,,,,,,,,,,,,,,37Silent,001,2022_Sep_01_1056,ProdSingRedoBetween,2021.2.3,59.92951091322044,
14,0,14,0,,,,,,,,,,,,,,,,,,,,,,,,,,258.6485248999961,None,travel,80,15,silent,red,256.6413461000193,None,None,256.6413461000193,None,,,,,,,,,,,,,,,,,,,,,,,,,,,,,,,,,,,37Silent,001,2022_Sep_01_1056,ProdSingRedoBetween,2021.2.3,59.92951091322044,
15,0,15,0,,,,,,,,,,,,,,,,,,,,,,,,,,261.1509978999966,None,broad,6,16,silent,yellow,259.15000710001914,None,None,259.15000710001914,None,,,,,,,,,,,,,,,,,,,,,,,,,,,,,,,,,,,37Silent,001,2022_Sep_01_1056,ProdSingRedoBetween,2021.2.3,59.92951091322044,
16,0,16,0,,,,,,,,,,,,,,,,,,,,,,,,,,263.6537404000119,None,direction,41,17,silent,blue,261.6512478000077,None,None,261.6512478000077,None,,,,,,,,,,,,,,,,,,,,,,,,,,,,,,,,,,,37Silent,001,2022_Sep_01_1056,ProdSingRedoBetween,2021.2.3,59.92951091322044,
17,0,17,0,,,,,,,,,,,,,,,,,,,,,,,,,,266.1558409999998,None,budget,30,18,silent,blue,264.1539626000158,None,None,264.1539626000158,None,,,,,,,,,,,,,,,,,,,,,,,,,,,,,,,,,,,37Silent,001,2022_Sep_01_1056,ProdSingRedoBetween,2021.2.3,59.92951091322044,
18,0,18,0,,,,,,,,,,,,,,,,,,,,,,,,,,268.65870130000985,None,mankind,87,19,silent,red,266.6578600000066,None,None,266.6578600000066,None,,,,,,,,,,,,,,,,,,,,,,,,,,,,,,,,,,,37Silent,001,2022_Sep_01_1056,ProdSingRedoBetween,2021.2.3,59.92951091322044,
19,0,19,0,,,,,,,,,,,,,,,,,,,,,,,,,,271.16168620000826,None,history,34,20,silent,blue,269.1608308000141,None,None,269.1608308000141,None,,,,,,,,,,,,,,,,,,,,,,,,,,,,,,,,,,,37Silent,001,2022_Sep_01_1056,ProdSingRedoBetween,2021.2.3,59.92951091322044,
20,0,20,0,,,,,,,,,,,,,,,,,,,,,,,,,,273.68013240001164,None,account,11,21,silent,yellow,271.6702698000008,None,None,271.6702698000008,None,,,,,,,,,,,,,,,,,,,,,,,,,,,,,,,,,,,37Silent,001,2022_Sep_01_1056,ProdSingRedoBetween,2021.2.3,59.92951091322044,
21,0,21,0,,,,,,,,,,,,,,,,,,,,,,,,,,276.18270830000984,None,crisis,69,22,silent,red,274.1806380999915,None,None,274.1806380999915,None,,,,,,,,,,,,,,,,,,,,,,,,,,,,,,,,,,,37Silent,001,2022_Sep_01_1056,ProdSingRedoBetween,2021.2.3,59.92951091322044,
22,0,22,0,,,,,,,,,,,,,,,,,,,,,,,,,,278.7019017999992,None,drink,25,23,silent,yellow,276.6897047999955,None,None,276.6897047999955,None,,,,,,,,,,,,,,,,,,,,,,,,,,,,,,,,,,,37Silent,001,2022_Sep_01_1056,ProdSingRedoBetween,2021.2.3,59.92951091322044,
23,0,23,0,,,,,,,,,,,,,,,,,,,,,,,,,,281.2045112000196,None,column,8,24,silent,yellow,279.20436180001707,None,None,279.20436180001707,None,,,,,,,,,,,,,,,,,,,,,,,,,,,,,,,,,,,37Silent,001,2022_Sep_01_1056,ProdSingRedoBetween,2021.2.3,59.92951091322044,
24,0,24,0,,,,,,,,,,,,,,,,,,,,,,,,,,283.72347709999303,None,present,66,25,silent,red,281.70835289999377,None,None,281.70835289999377,None,,,,,,,,,,,,,,,,,,,,,,,,,,,,,,,,,,,37Silent,001,2022_Sep_01_1056,ProdSingRedoBetween,2021.2.3,59.92951091322044,
25,0,25,0,,,,,,,,,,,,,,,,,,,,,,,,,,286.22620530001586,None,volume,29,26,silent,blue,284.22386830000323,None,None,284.22386830000323,None,,,,,,,,,,,,,,,,,,,,,,,,,,,,,,,,,,,37Silent,001,2022_Sep_01_1056,ProdSingRedoBetween,2021.2.3,59.92951091322044,
26,0,26,0,,,,,,,,,,,,,,,,,,,,,,,,,,288.7452407999954,None,trash,28,27,silent,yellow,286.7305582000117,None,None,286.7305582000117,None,,,,,,,,,,,,,,,,,,,,,,,,,,,,,,,,,,,37Silent,001,2022_Sep_01_1056,ProdSingRedoBetween,2021.2.3,59.92951091322044,
27,0,27,0,,,,,,,,,,,,,,,,,,,,,,,,,,291.24786880001193,None,community,84,28,silent,red,289.245942700014,None,None,289.245942700014,None,,,,,,,,,,,,,,,,,,,,,,,,,,,,,,,,,,,37Silent,001,2022_Sep_01_1056,ProdSingRedoBetween,2021.2.3,59.92951091322044,
28,0,28,0,,,,,,,,,,,,,,,,,,,,,,,,,,293.75019859999884,None,count,44,29,silent,blue,291.7481923000014,None,None,291.7481923000014,None,,,,,,,,,,,,,,,,,,,,,,,,,,,,,,,,,,,37Silent,001,2022_Sep_01_1056,ProdSingRedoBetween,2021.2.3,59.92951091322044,
29,0,29,0,,,,,,,,,,,,,,,,,,,,,,,,,,296.2527858999965,None,level,73,30,silent,red,294.2509205999959,None,None,294.2509205999959,None,,,,,,,,,,,,,,,,,,,,,,,,,,,,,,,,,,,37Silent,001,2022_Sep_01_1056,ProdSingRedoBetween,2021.2.3,59.92951091322044,
30,0,30,0,,,,,,,,,,,,,,,,,,,,,,,,,,298.75538990000496,None,dispute,65,31,silent,red,296.7554865000129,None,None,296.7554865000129,None,,,,,,,,,,,,,,,,,,,,,,,,,,,,,,,,,,,37Silent,001,2022_Sep_01_1056,ProdSingRedoBetween,2021.2.3,59.92951091322044,
31,0,31,0,,,,,,,,,,,,,,,,,,,,,,,,,,301.25778469999204,None,marriage,26,32,silent,yellow,299.25570810001227,None,None,299.25570810001227,None,,,,,,,,,,,,,,,,,,,,,,,,,,,,,,,,,,,37Silent,001,2022_Sep_01_1056,ProdSingRedoBetween,2021.2.3,59.92951091322044,
32,0,32,0,,,,,,,,,,,,,,,,,,,,,,,,,,303.77685749999364,None,nation,59,33,silent,yellow,301.7617434000131,None,None,301.7617434000131,None,,,,,,,,,,,,,,,,,,,,,,,,,,,,,,,,,,,37Silent,001,2022_Sep_01_1056,ProdSingRedoBetween,2021.2.3,59.92951091322044,
33,0,33,0,,,,,,,,,,,,,,,,,,,,,,,,,,306.2795041000063,None,employment,60,34,silent,red,304.2774822000065,None,None,304.2774822000065,None,,,,,,,,,,,,,,,,,,,,,,,,,,,,,,,,,,,37Silent,001,2022_Sep_01_1056,ProdSingRedoBetween,2021.2.3,59.92951091322044,
34,0,34,0,,,,,,,,,,,,,,,,,,,,,,,,,,308.79885210000793,None,majority,21,35,silent,yellow,306.78609010000946,None,None,306.78609010000946,None,,,,,,,,,,,,,,,,,,,,,,,,,,,,,,,,,,,37Silent,001,2022_Sep_01_1056,ProdSingRedoBetween,2021.2.3,59.92951091322044,
35,0,35,0,,,,,,,,,,,,,,,,,,,,,,,,,,311.31767650000984,None,agreement,50,36,silent,blue,309.30474009999307,None,None,309.30474009999307,None,,,,,,,,,,,,,,,,,,,,,,,,,,,,,,,,,,,37Silent,001,2022_Sep_01_1056,ProdSingRedoBetween,2021.2.3,59.92951091322044,
36,0,36,0,,,,,,,,,,,,,,,,,,,,,,,,,,313.82018040001276,None,graduate,31,37,silent,blue,311.8182960000122,None,None,311.8182960000122,None,,,,,,,,,,,,,,,,,,,,,,,,,,,,,,,,,,,37Silent,001,2022_Sep_01_1056,ProdSingRedoBetween,2021.2.3,59.92951091322044,
37,0,37,0,,,,,,,,,,,,,,,,,,,,,,,,,,316.33940019999864,None,couch,89,38,silent,red,314.3375488000165,None,None,314.3375488000165,None,,,,,,,,,,,,,,,,,,,,,,,,,,,,,,,,,,,37Silent,001,2022_Sep_01_1056,ProdSingRedoBetween,2021.2.3,59.92951091322044,
38,0,38,0,,,,,,,,,,,,,,,,,,,,,,,,,,318.85874329999206,None,vision,37,39,silent,blue,316.845797499991,None,None,316.845797499991,None,,,,,,,,,,,,,,,,,,,,,,,,,,,,,,,,,,,37Silent,001,2022_Sep_01_1056,ProdSingRedoBetween,2021.2.3,59.92951091322044,
39,0,39,0,,,,,,,,,,,,,,,,,,,,,,,,,,321.3776882000093,None,store,57,40,silent,blue,319.3672199000139,None,None,319.3672199000139,None,,,,,,,,,,,,,,,,,,,,,,,,,,,,,,,,,,,37Silent,001,2022_Sep_01_1056,ProdSingRedoBetween,2021.2.3,59.92951091322044,
40,0,40,0,,,,,,,,,,,,,,,,,,,,,,,,,,323.88044320000336,None,committee,27,41,silent,yellow,321.87837630001013,None,None,321.87837630001013,None,,,,,,,,,,,,,,,,,,,,,,,,,,,,,,,,,,,37Silent,001,2022_Sep_01_1056,ProdSingRedoBetween,2021.2.3,59.92951091322044,
41,0,41,0,,,,,,,,,,,,,,,,,,,,,,,,,,326.39960060000885,None,goose,4,42,silent,yellow,324.383797699993,None,None,324.383797699993,None,,,,,,,,,,,,,,,,,,,,,,,,,,,,,,,,,,,37Silent,001,2022_Sep_01_1056,ProdSingRedoBetween,2021.2.3,59.92951091322044,
42,0,42,0,,,,,,,,,,,,,,,,,,,,,,,,,,328.9019021000131,None,patient,48,43,silent,blue,326.8998726000136,None,None,326.8998726000136,None,,,,,,,,,,,,,,,,,,,,,,,,,,,,,,,,,,,37Silent,001,2022_Sep_01_1056,ProdSingRedoBetween,2021.2.3,59.92951091322044,
43,0,43,0,,,,,,,,,,,,,,,,,,,,,,,,,,331.4043874000199,None,sight,82,44,silent,red,329.40240360001917,None,None,329.40240360001917,None,,,,,,,,,,,,,,,,,,,,,,,,,,,,,,,,,,,37Silent,001,2022_Sep_01_1056,ProdSingRedoBetween,2021.2.3,59.92951091322044,
44,0,44,0,,,,,,,,,,,,,,,,,,,,,,,,,,333.9071273000154,None,reach,56,45,silent,blue,331.90489050000906,None,None,331.90489050000906,None,,,,,,,,,,,,,,,,,,,,,,,,,,,,,,,,,,,37Silent,001,2022_Sep_01_1056,ProdSingRedoBetween,2021.2.3,59.92951091322044,
45,0,45,0,,,,,,,,,,,,,,,,,,,,,,,,,,336.40960790001554,None,collection,33,46,silent,blue,334.408079899993,None,None,334.408079899993,None,,,,,,,,,,,,,,,,,,,,,,,,,,,,,,,,,,,37Silent,001,2022_Sep_01_1056,ProdSingRedoBetween,2021.2.3,59.92951091322044,
46,0,46,0,,,,,,,,,,,,,,,,,,,,,,,,,,338.91218610000215,None,balance,9,47,silent,yellow,336.90990880000754,None,None,336.90990880000754,None,,,,,,,,,,,,,,,,,,,,,,,,,,,,,,,,,,,37Silent,001,2022_Sep_01_1056,ProdSingRedoBetween,2021.2.3,59.92951091322044,
47,0,47,0,,,,,,,,,,,,,,,,,,,,,,,,,,341.4312484000111,None,force,35,48,silent,blue,339.4175876000081,None,None,339.4175876000081,None,,,,,,,,,,,,,,,,,,,,,,,,,,,,,,,,,,,37Silent,001,2022_Sep_01_1056,ProdSingRedoBetween,2021.2.3,59.92951091322044,
48,0,48,0,,,,,,,,,,,,,,,,,,,,,,,,,,343.93373640000937,None,income,49,49,silent,blue,341.93275150001864,None,None,341.93275150001864,None,,,,,,,,,,,,,,,,,,,,,,,,,,,,,,,,,,,37Silent,001,2022_Sep_01_1056,ProdSingRedoBetween,2021.2.3,59.92951091322044,
49,0,49,0,,,,,,,,,,,,,,,,,,,,,,,,,,346.4362772000022,None,health,58,50,silent,blue,344.4340943999996,None,None,344.4340943999996,None,,,,,,,,,,,,,,,,,,,,,,,,,,,,,,,,,,,37Silent,001,2022_Sep_01_1056,ProdSingRedoBetween,2021.2.3,59.92951091322044,
50,0,50,0,,,,,,,,,,,,,,,,,,,,,,,,,,348.938667600014,None,block,20,51,silent,yellow,346.9366032000107,None,None,346.9366032000107,None,,,,,,,,,,,,,,,,,,,,,,,,,,,,,,,,,,,37Silent,001,2022_Sep_01_1056,ProdSingRedoBetween,2021.2.3,59.92951091322044,
51,0,51,0,,,,,,,,,,,,,,,,,,,,,,,,,,351.44086900001275,None,disease,14,52,silent,yellow,349.43966850001016,None,None,349.43966850001016,None,,,,,,,,,,,,,,,,,,,,,,,,,,,,,,,,,,,37Silent,001,2022_Sep_01_1056,ProdSingRedoBetween,2021.2.3,59.92951091322044,
52,0,52,0,,,,,,,,,,,,,,,,,,,,,,,,,,353.94355980001274,None,instrument,51,53,silent,blue,351.94151890001376,None,None,351.94151890001376,None,,,,,,,,,,,,,,,,,,,,,,,,,,,,,,,,,,,37Silent,001,2022_Sep_01_1056,ProdSingRedoBetween,2021.2.3,59.92951091322044,
53,0,53,0,,,,,,,,,,,,,,,,,,,,,,,,,,356.46270629999344,None,afternoon,76,54,silent,red,354.4516414999962,None,None,354.4516414999962,None,,,,,,,,,,,,,,,,,,,,,,,,,,,,,,,,,,,37Silent,001,2022_Sep_01_1056,ProdSingRedoBetween,2021.2.3,59.92951091322044,
54,0,54,0,,,,,,,,,,,,,,,,,,,,,,,,,,358.9653889000183,None,testimony,54,55,silent,blue,356.9632111999963,None,None,356.9632111999963,None,,,,,,,,,,,,,,,,,,,,,,,,,,,,,,,,,,,37Silent,001,2022_Sep_01_1056,ProdSingRedoBetween,2021.2.3,59.92951091322044,
55,0,55,0,,,,,,,,,,,,,,,,,,,,,,,,,,361.4843448000029,None,space,36,56,silent,blue,359.47602239999105,None,None,359.47602239999105,None,,,,,,,,,,,,,,,,,,,,,,,,,,,,,,,,,,,37Silent,001,2022_Sep_01_1056,ProdSingRedoBetween,2021.2.3,59.92951091322044,
56,0,56,0,,,,,,,,,,,,,,,,,,,,,,,,,,364.0035824000079,None,hearing,10,57,silent,yellow,361.9882018000062,None,None,361.9882018000062,None,,,,,,,,,,,,,,,,,,,,,,,,,,,,,,,,,,,37Silent,001,2022_Sep_01_1056,ProdSingRedoBetween,2021.2.3,59.92951091322044,
57,0,57,0,,,,,,,,,,,,,,,,,,,,,,,,,,366.50633530001505,None,damage,75,58,silent,red,364.5040762000135,None,None,364.5040762000135,None,,,,,,,,,,,,,,,,,,,,,,,,,,,,,,,,,,,37Silent,001,2022_Sep_01_1056,ProdSingRedoBetween,2021.2.3,59.92951091322044,
58,0,58,0,,,,,,,,,,,,,,,,,,,,,,,,,,369.02542720001657,None,smell,55,59,silent,blue,367.0117037000018,None,None,367.0117037000018,None,,,,,,,,,,,,,,,,,,,,,,,,,,,,,,,,,,,37Silent,001,2022_Sep_01_1056,ProdSingRedoBetween,2021.2.3,59.92951091322044,
59,0,59,0,,,,,,,,,,,,,,,,,,,,,,,,,,371.5278798000072,None,worker,71,60,silent,red,369.5281346999982,None,None,369.5281346999982,None,,,,,,,,,,,,,,,,,,,,,,,,,,,,,,,,,,,37Silent,001,2022_Sep_01_1056,ProdSingRedoBetween,2021.2.3,59.92951091322044,
60,0,60,0,,,,,,,,,,,,,,,,,,,,,,,,,,374.0304438000021,None,bureau,64,61,silent,red,372.0283815000148,None,None,372.0283815000148,None,,,,,,,,,,,,,,,,,,,,,,,,,,,,,,,,,,,37Silent,001,2022_Sep_01_1056,ProdSingRedoBetween,2021.2.3,59.92951091322044,
61,0,61,0,,,,,,,,,,,,,,,,,,,,,,,,,,376.5495457999932,None,brief,16,62,silent,yellow,374.53754680001293,None,None,374.53754680001293,None,,,,,,,,,,,,,,,,,,,,,,,,,,,,,,,,,,,37Silent,001,2022_Sep_01_1056,ProdSingRedoBetween,2021.2.3,59.92951091322044,
62,0,62,0,,,,,,,,,,,,,,,,,,,,,,,,,,379.05182039999636,None,military,2,63,silent,yellow,377.04989399999613,None,None,377.04989399999613,None,,,,,,,,,,,,,,,,,,,,,,,,,,,,,,,,,,,37Silent,001,2022_Sep_01_1056,ProdSingRedoBetween,2021.2.3,59.92951091322044,
63,0,63,0,,,,,,,,,,,,,,,,,,,,,,,,,,381.55427130000317,None,substance,5,64,silent,yellow,379.55245380001725,None,None,379.55245380001725,None,,,,,,,,,,,,,,,,,,,,,,,,,,,,,,,,,,,37Silent,001,2022_Sep_01_1056,ProdSingRedoBetween,2021.2.3,59.92951091322044,
64,0,64,0,,,,,,,,,,,,,,,,,,,,,,,,,,384.0570796999964,None,interview,24,65,silent,yellow,382.0549095000024,None,None,382.0549095000024,None,,,,,,,,,,,,,,,,,,,,,,,,,,,,,,,,,,,37Silent,001,2022_Sep_01_1056,ProdSingRedoBetween,2021.2.3,59.92951091322044,
65,0,65,0,,,,,,,,,,,,,,,,,,,,,,,,,,386.5762662999914,None,design,47,66,silent,blue,384.5620340000023,None,None,384.5620340000023,None,,,,,,,,,,,,,,,,,,,,,,,,,,,,,,,,,,,37Silent,001,2022_Sep_01_1056,ProdSingRedoBetween,2021.2.3,59.92951091322044,
66,0,66,0,,,,,,,,,,,,,,,,,,,,,,,,,,389.07874810000067,None,grade,77,67,silent,red,387.07776060001925,None,None,387.07776060001925,None,,,,,,,,,,,,,,,,,,,,,,,,,,,,,,,,,,,37Silent,001,2022_Sep_01_1056,ProdSingRedoBetween,2021.2.3,59.92951091322044,
67,0,67,0,,,,,,,,,,,,,,,,,,,,,,,,,,391.5977729000151,None,dozen,7,68,silent,yellow,389.59218510001665,None,None,389.59218510001665,None,,,,,,,,,,,,,,,,,,,,,,,,,,,,,,,,,,,37Silent,001,2022_Sep_01_1056,ProdSingRedoBetween,2021.2.3,59.92951091322044,
68,0,68,0,,,,,,,,,,,,,,,,,,,,,,,,,,394.1004663000058,None,piece,46,69,silent,blue,392.0981752999942,None,None,392.0981752999942,None,,,,,,,,,,,,,,,,,,,,,,,,,,,,,,,,,,,37Silent,001,2022_Sep_01_1056,ProdSingRedoBetween,2021.2.3,59.92951091322044,
69,0,69,0,,,,,,,,,,,,,,,,,,,,,,,,,,396.61972290000995,None,escape,15,70,silent,yellow,394.6056710999983,None,None,394.6056710999983,None,,,,,,,,,,,,,,,,,,,,,,,,,,,,,,,,,,,37Silent,001,2022_Sep_01_1056,ProdSingRedoBetween,2021.2.3,59.92951091322044,
70,0,70,0,,,,,,,,,,,,,,,,,,,,,,,,,,399.1221046000137,None,angle,23,71,silent,yellow,397.12041699999827,None,None,397.12041699999827,None,,,,,,,,,,,,,,,,,,,,,,,,,,,,,,,,,,,37Silent,001,2022_Sep_01_1056,ProdSingRedoBetween,2021.2.3,59.92951091322044,
71,0,71,0,,,,,,,,,,,,,,,,,,,,,,,,,,401.6245617000095,None,material,45,72,silent,blue,399.62338750000345,None,None,399.62338750000345,None,,,,,,,,,,,,,,,,,,,,,,,,,,,,,,,,,,,37Silent,001,2022_Sep_01_1056,ProdSingRedoBetween,2021.2.3,59.92951091322044,
72,0,72,0,,,,,,,,,,,,,,,,,,,,,,,,,,404.12711990001844,None,general,81,73,silent,red,402.1275566999975,None,None,402.1275566999975,None,,,,,,,,,,,,,,,,,,,,,,,,,,,,,,,,,,,37Silent,001,2022_Sep_01_1056,ProdSingRedoBetween,2021.2.3,59.92951091322044,
73,0,73,0,,,,,,,,,,,,,,,,,,,,,,,,,,406.62960129999556,None,bucket,67,74,silent,red,404.63043879999896,None,None,404.63043879999896,None,,,,,,,,,,,,,,,,,,,,,,,,,,,,,,,,,,,37Silent,001,2022_Sep_01_1056,ProdSingRedoBetween,2021.2.3,59.92951091322044,
74,0,74,0,,,,,,,,,,,,,,,,,,,,,,,,,,409.1320837000094,None,shear,3,75,silent,yellow,407.13259610001114,None,None,407.13259610001114,None,,,,,,,,,,,,,,,,,,,,,,,,,,,,,,,,,,,37Silent,001,2022_Sep_01_1056,ProdSingRedoBetween,2021.2.3,59.92951091322044,
75,0,75,0,,,,,,,,,,,,,,,,,,,,,,,,,,411.65107819999685,None,salary,83,76,silent,red,409.6416938000184,None,None,409.6416938000184,None,,,,,,,,,,,,,,,,,,,,,,,,,,,,,,,,,,,37Silent,001,2022_Sep_01_1056,ProdSingRedoBetween,2021.2.3,59.92951091322044,
76,0,76,0,,,,,,,,,,,,,,,,,,,,,,,,,,414.1537562000158,None,break,74,77,silent,red,412.1516077000124,None,None,412.1516077000124,None,,,,,,,,,,,,,,,,,,,,,,,,,,,,,,,,,,,37Silent,001,2022_Sep_01_1056,ProdSingRedoBetween,2021.2.3,59.92951091322044,
77,0,77,0,,,,,,,,,,,,,,,,,,,,,,,,,,416.67289499999606,None,victory,86,78,silent,red,414.66134079999756,None,None,414.66134079999756,None,,,,,,,,,,,,,,,,,,,,,,,,,,,,,,,,,,,37Silent,001,2022_Sep_01_1056,ProdSingRedoBetween,2021.2.3,59.92951091322044,
78,0,78,0,,,,,,,,,,,,,,,,,,,,,,,,,,419.19188289999147,None,weight,38,79,silent,blue,417.1839947999979,None,None,417.1839947999979,None,,,,,,,,,,,,,,,,,,,,,,,,,,,,,,,,,,,37Silent,001,2022_Sep_01_1056,ProdSingRedoBetween,2021.2.3,59.92951091322044,
79,0,79,0,,,,,,,,,,,,,,,,,,,,,,,,,,421.69452150000143,None,figure,0,80,silent,yellow,419.69248910000897,None,None,419.69248910000897,None,,,,,,,,,,,,,,,,,,,,,,,,,,,,,,,,,,,37Silent,001,2022_Sep_01_1056,ProdSingRedoBetween,2021.2.3,59.92951091322044,
80,0,80,0,,,,,,,,,,,,,,,,,,,,,,,,,,424.19689419999486,None,object,53,81,silent,blue,422.1948604999925,None,None,422.1948604999925,None,,,,,,,,,,,,,,,,,,,,,,,,,,,,,,,,,,,37Silent,001,2022_Sep_01_1056,ProdSingRedoBetween,2021.2.3,59.92951091322044,
81,0,81,0,,,,,,,,,,,,,,,,,,,,,,,,,,426.6992431000108,None,raise,12,82,silent,yellow,424.6973978000169,None,None,424.6973978000169,None,,,,,,,,,,,,,,,,,,,,,,,,,,,,,,,,,,,37Silent,001,2022_Sep_01_1056,ProdSingRedoBetween,2021.2.3,59.92951091322044,
82,0,82,0,,,,,,,,,,,,,,,,,,,,,,,,,,429.2187410000188,None,watch,63,83,silent,red,427.2052553000103,None,None,427.2052553000103,None,,,,,,,,,,,,,,,,,,,,,,,,,,,,,,,,,,,37Silent,001,2022_Sep_01_1056,ProdSingRedoBetween,2021.2.3,59.92951091322044,
83,0,83,0,,,,,,,,,,,,,,,,,,,,,,,,,,431.7212328000169,None,production,32,84,silent,blue,429.7203732999915,None,None,429.7203732999915,None,,,,,,,,,,,,,,,,,,,,,,,,,,,,,,,,,,,37Silent,001,2022_Sep_01_1056,ProdSingRedoBetween,2021.2.3,59.92951091322044,
84,0,84,0,,,,,,,,,,,,,,,,,,,,,,,,,,434.24045370001113,None,whole,85,85,silent,red,432.22720250001294,None,None,432.22720250001294,None,,,,,,,,,,,,,,,,,,,,,,,,,,,,,,,,,,,37Silent,001,2022_Sep_01_1056,ProdSingRedoBetween,2021.2.3,59.92951091322044,
85,0,85,0,,,,,,,,,,,,,,,,,,,,,,,,,,436.7427735000092,None,debate,79,86,silent,red,434.7420965000056,None,None,434.7420965000056,None,,,,,,,,,,,,,,,,,,,,,,,,,,,,,,,,,,,37Silent,001,2022_Sep_01_1056,ProdSingRedoBetween,2021.2.3,59.92951091322044,
86,0,86,0,,,,,,,,,,,,,,,,,,,,,,,,,,439.2452056000184,None,estate,40,87,silent,blue,437.2458611000038,None,None,437.2458611000038,None,,,,,,,,,,,,,,,,,,,,,,,,,,,,,,,,,,,37Silent,001,2022_Sep_01_1056,ProdSingRedoBetween,2021.2.3,59.92951091322044,
87,0,87,0,,,,,,,,,,,,,,,,,,,,,,,,,,441.76446450001094,None,length,39,88,silent,blue,439.7488719999965,None,None,439.7488719999965,None,,,,,,,,,,,,,,,,,,,,,,,,,,,,,,,,,,,37Silent,001,2022_Sep_01_1056,ProdSingRedoBetween,2021.2.3,59.92951091322044,
88,0,88,0,,,,,,,,,,,,,,,,,,,,,,,,,,444.26688380000996,None,strain,19,89,silent,yellow,442.264851200016,None,None,442.264851200016,None,,,,,,,,,,,,,,,,,,,,,,,,,,,,,,,,,,,37Silent,001,2022_Sep_01_1056,ProdSingRedoBetween,2021.2.3,59.92951091322044,
89,0,89,0,,,,,,,,,,,,,,,,,,,,,,,,,,446.76954770000884,None,character,17,90,silent,yellow,444.76821159999236,None,None,444.76821159999236,None,,,,,,,,,,,,,,,,,,,,,,,,,,,,,,,,,,,37Silent,001,2022_Sep_01_1056,ProdSingRedoBetween,2021.2.3,59.92951091322044,
,,,,,,,,,,,,,,,,,,,,,,,,,,,,,,,,,,,,,,,,,447.2703225000005,None,k,166.7513573000033,447.2703225000005,None,,,,,,,,,,,,,,,,,,,,,,,,,,,,,37Silent,001,2022_Sep_01_1056,ProdSingRedoBetween,2021.2.3,59.92951091322044,
,,,,0,0,0,0,,,,,,,,,,,,,,,,,,,,,,625.5143667999946,None,,,,,,,,,,,,,,,,,smooth,92,1,silent,new,null,614.5676857999933,None,614.5676857999933,None,1,8.973911899985978,614.5676857999933,None,8.973911899985978,623.564606800006,None,624.0835785999952,None,624.0835785999952,None,n,1.4100373999972362,624.0835785999952,None,1.4100373999972362,,,37Silent,001,2022_Sep_01_1056,ProdSingRedoBetween,2021.2.3,59.92951091322044,
,,,,1,0,1,0,,,,,,,,,,,,,,,,,,,,,,630.5192133999954,None,,,,,,,,,,,,,,,,,brief,16,2,silent,old,yellow,626.0202273000032,None,626.0202273000032,None,6,2.361386100004893,626.0202273000032,None,2.361386100004893,628.4020276000083,None,628.9063025999931,None,628.9063025999931,None,r,1.5952201999898534,628.9063025999931,None,1.5952201999898534,,,37Silent,001,2022_Sep_01_1056,ProdSingRedoBetween,2021.2.3,59.92951091322044,
,,,,2,0,2,0,,,,,,,,,,,,,,,,,,,,,,643.1652144000109,None,,,,,,,,,,,,,,,,,length,39,3,silent,old,blue,631.0270666000142,None,631.0270666000142,None,3,10.186709200002952,631.0270666000142,None,10.186709200002952,641.2310103999916,None,641.7332277999958,None,641.7332277999958,None,f,1.4084260999807157,641.7332277999958,None,1.4084260999807157,,,37Silent,001,2022_Sep_01_1056,ProdSingRedoBetween,2021.2.3,59.92951091322044,
,,,,3,0,3,0,,,,,,,,,,,,,,,,,,,,,,653.2275175999966,None,,,,,,,,,,,,,,,,,subject,135,4,silent,new,null,643.6687529000046,None,643.6687529000046,None,5,7.240815199998906,643.6687529000046,None,7.240815199998906,650.9406558000192,None,651.4465028000122,None,651.4465028000122,None,f,1.7591560000146274,651.4465028000122,None,1.7591560000146274,,,37Silent,001,2022_Sep_01_1056,ProdSingRedoBetween,2021.2.3,59.92951091322044,
,,,,4,0,4,0,,,,,,,,,,,,,,,,,,,,,,657.5295282000152,None,,,,,,,,,,,,,,,,,disease,14,5,silent,old,yellow,653.75127540002,None,653.75127540002,None,2,2.7901881000143476,653.75127540002,None,2.7901881000143476,656.5635496000177,None,657.0792047000141,None,657.0792047000141,None,n,0.42235550002078526,657.0792047000141,None,0.42235550002078526,,,37Silent,001,2022_Sep_01_1056,ProdSingRedoBetween,2021.2.3,59.92951091322044,
,,,,5,0,5,0,,,,,,,,,,,,,,,,,,,,,,674.1628808999958,None,,,,,,,,,,,,,,,,,worker,71,6,silent,old,red,658.0413906000031,None,658.0413906000031,None,3,14.612111299997196,658.0413906000031,None,14.612111299997196,672.6794973000069,None,673.1787148000149,None,673.1787148000149,None,n,0.9627963000093587,673.1787148000149,None,0.9627963000093587,,,37Silent,001,2022_Sep_01_1056,ProdSingRedoBetween,2021.2.3,59.92951091322044,
,,,,6,0,6,0,,,,,,,,,,,,,,,,,,,,,,694.1660552000103,None,,,,,,,,,,,,,,,,,vision,37,7,silent,old,blue,674.6689747000055,None,674.6689747000055,None,4,18.63249670001096,674.6689747000055,None,18.63249670001096,693.3332511000044,None,693.8362881999929,None,693.8362881999929,None,f,0.3132411999977194,693.8362881999929,None,0.3132411999977194,,,37Silent,001,2022_Sep_01_1056,ProdSingRedoBetween,2021.2.3,59.92951091322044,
,,,,7,0,7,0,,,,,,,,,,,,,,,,,,,,,,708.2968573000107,None,,,,,,,,,,,,,,,,,department,155,8,silent,new,null,694.6707077000174,None,694.6707077000174,None,2,12.766643900016788,694.6707077000174,None,12.766643900016788,707.4645768000046,None,707.9800992000091,None,707.9800992000091,None,n,0.29737090002163313,707.9800992000091,None,0.29737090002163313,,,37Silent,001,2022_Sep_01_1056,ProdSingRedoBetween,2021.2.3,59.92951091322044,
,,,,8,0,8,0,,,,,,,,,,,,,,,,,,,,,,713.835862100008,None,,,,,,,,,,,,,,,,,country,178,9,silent,new,null,708.806368199992,None,708.806368199992,None,5,3.8472116999910213,708.806368199992,None,3.8472116999910213,712.685675500019,None,713.1905334000185,None,713.1905334000185,None,f,0.6149354999943171,713.1905334000185,None,0.6149354999943171,,,37Silent,001,2022_Sep_01_1056,ProdSingRedoBetween,2021.2.3,59.92951091322044,
,,,,9,0,9,0,,,,,,,,,,,,,,,,,,,,,,718.3235433000082,None,,,,,,,,,,,,,,,,,error,146,10,silent,new,null,714.3450774000084,None,714.3450774000084,None,1,2.8604798000014853,714.3450774000084,None,2.8604798000014853,717.2259532000171,None,717.7397783000197,None,717.7397783000197,None,n,0.5616616999905091,717.7397783000197,None,0.5616616999905091,,,37Silent,001,2022_Sep_01_1056,ProdSingRedoBetween,2021.2.3,59.92951091322044,
,,,,10,0,10,0,,,,,,,,,,,,,,,,,,,,,,722.1105825999985,None,,,,,,,,,,,,,,,,,bucket,67,11,silent,old,red,718.8320718000177,None,718.8320718000177,None,6,2.5893753000127617,718.8320718000177,None,2.5893753000127617,721.4445785999997,None,721.9502495000197,None,721.9502495000197,None,r,0.13516020000679418,721.9502495000197,None,0.13516020000679418,,,37Silent,001,2022_Sep_01_1056,ProdSingRedoBetween,2021.2.3,59.92951091322044,
,,,,11,0,11,0,,,,,,,,,,,,,,,,,,,,,,730.3855110000004,None,,,,,,,,,,,,,,,,,interview,24,12,silent,old,yellow,722.6161412000074,None,722.6161412000074,None,6,5.8453052999975625,722.6161412000074,None,5.8453052999975625,728.4851555000059,None,728.9904134999961,None,728.9904134999961,None,r,1.3670104999910109,728.9904134999961,None,1.3670104999910109,,,37Silent,001,2022_Sep_01_1056,ProdSingRedoBetween,2021.2.3,59.92951091322044,
,,,,12,0,12,0,,,,,,,,,,,,,,,,,,,,,,734.7566034000192,None,,,,,,,,,,,,,,,,,watch,63,13,silent,old,red,730.8979315000179,None,730.8979315000179,None,4,3.003486300003715,730.8979315000179,None,3.003486300003715,733.9240196000028,None,734.4265855000122,None,734.4265855000122,None,f,0.31486660000518896,734.4265855000122,None,0.31486660000518896,,,37Silent,001,2022_Sep_01_1056,ProdSingRedoBetween,2021.2.3,59.92951091322044,
,,,,13,0,13,0,,,,,,,,,,,,,,,,,,,,,,738.2933512000018,None,,,,,,,,,,,,,,,,,solution,72,14,silent,old,red,735.2674492000078,None,735.2674492000078,None,2,2.0899088000005577,735.2674492000078,None,2.0899088000005577,737.3773536999943,None,737.884061299992,None,737.884061299992,None,n,0.38548769999761134,737.884061299992,None,0.38548769999761134,,,37Silent,001,2022_Sep_01_1056,ProdSingRedoBetween,2021.2.3,59.92951091322044,
,,,,14,0,14,0,,,,,,,,,,,,,,,,,,,,,,745.8343333000084,None,,,,,,,,,,,,,,,,,sight,82,15,silent,old,red,738.7978655000043,None,738.7978655000043,None,2,5.70355340000242,738.7978655000043,None,5.70355340000242,744.51779730001,None,745.0170561000123,None,745.0170561000123,None,n,0.7883542000199668,745.0170561000123,None,0.7883542000199668,,,37Silent,001,2022_Sep_01_1056,ProdSingRedoBetween,2021.2.3,59.92951091322044,
,,,,15,0,15,0,,,,,,,,,,,,,,,,,,,,,,750.3055583999958,None,,,,,,,,,,,,,,,,,general,81,16,silent,old,red,746.3410067000077,None,746.3410067000077,None,6,2.9523372999974526,746.3410067000077,None,2.9523372999974526,749.3218818000169,None,749.8276555000048,None,749.8276555000048,None,r,0.45774390001315624,749.8276555000048,None,0.45774390001315624,,,37Silent,001,2022_Sep_01_1056,ProdSingRedoBetween,2021.2.3,59.92951091322044,
,,,,16,0,16,0,,,,,,,,,,,,,,,,,,,,,,755.4105354000058,None,,,,,,,,,,,,,,,,,piece,46,17,silent,old,blue,750.8140101000026,None,750.8140101000026,None,4,3.7113119999994524,750.8140101000026,None,3.7113119999994524,754.5443560999993,None,755.0436516000191,None,755.0436516000191,None,f,0.33785209999768995,755.0436516000191,None,0.33785209999768995,,,37Silent,001,2022_Sep_01_1056,ProdSingRedoBetween,2021.2.3,59.92951091322044,
,,,,17,0,17,0,,,,,,,,,,,,,,,,,,,,,,760.3487947999965,None,,,,,,,,,,,,,,,,,stand,122,18,silent,new,null,755.9172735000029,None,755.9172735000029,None,1,3.00013509998098,755.9172735000029,None,3.00013509998098,758.9484335000161,None,759.4530647000065,None,759.4530647000065,None,n,0.88020260000485,759.4530647000065,None,0.88020260000485,,,37Silent,001,2022_Sep_01_1056,ProdSingRedoBetween,2021.2.3,59.92951091322044,
,,,,18,0,18,0,,,,,,,,,,,,,,,,,,,,,,765.4538608000148,None,,,,,,,,,,,,,,,,,estate,40,19,silent,old,blue,760.8521967999986,None,760.8521967999986,None,2,3.0011811000003945,760.8521967999986,None,3.0011811000003945,763.870169700007,None,764.379653800017,None,764.379653800017,None,n,1.049746700009564,764.379653800017,None,1.049746700009564,,,37Silent,001,2022_Sep_01_1056,ProdSingRedoBetween,2021.2.3,59.92951091322044,
,,,,19,0,19,0,,,,,,,,,,,,,,,,,,,,,,770.9927099000197,None,,,,,,,,,,,,,,,,,smell,55,20,silent,old,blue,765.9690057999978,None,765.9690057999978,None,2,3.940524700010428,765.9690057999978,None,3.940524700010428,769.9291517999955,None,770.4445198000176,None,770.4445198000176,None,n,0.5208093000110239,770.4445198000176,None,0.5208093000110239,,,37Silent,001,2022_Sep_01_1056,ProdSingRedoBetween,2021.2.3,59.92951091322044,
,,,,20,0,20,0,,,,,,,,,,,,,,,,,,,,,,775.563951499993,None,,,,,,,,,,,,,,,,,build,93,21,silent,new,null,771.4965920000104,None,771.4965920000104,None,2,2.6127399999822956,771.4965920000104,None,2.6127399999822956,774.1291197999963,None,774.6344316000177,None,774.6344316000177,None,n,0.8989371000207029,774.6344316000177,None,0.8989371000207029,,,37Silent,001,2022_Sep_01_1056,ProdSingRedoBetween,2021.2.3,59.92951091322044,
,,,,21,0,21,0,,,,,,,,,,,,,,,,,,,,,,782.7212271000026,None,,,,,,,,,,,,,,,,,balance,9,22,silent,old,yellow,776.0690147000132,None,776.0690147000132,None,4,5.712319300015224,776.0690147000132,None,5.712319300015224,781.8044745000079,None,782.3078317000181,None,782.3078317000181,None,f,0.3853712000127416,782.3078317000181,None,0.3853712000127416,,,37Silent,001,2022_Sep_01_1056,ProdSingRedoBetween,2021.2.3,59.92951091322044,
,,,,22,0,22,0,,,,,,,,,,,,,,,,,,,,,,788.676971000008,None,,,,,,,,,,,,,,,,,pressure,149,23,silent,new,null,783.2259996999928,None,783.2259996999928,None,3,3.699632500007283,783.2259996999928,None,3.699632500007283,786.9477216000087,None,787.4593442000041,None,787.4593442000041,None,n,1.1939794000063557,787.4593442000041,None,1.1939794000063557,,,37Silent,001,2022_Sep_01_1056,ProdSingRedoBetween,2021.2.3,59.92951091322044,
,,,,23,0,23,0,,,,,,,,,,,,,,,,,,,,,,791.7133789999934,None,,,,,,,,,,,,,,,,,angle,23,24,silent,old,yellow,789.1791708999954,None,789.1791708999954,None,6,1.682109200017294,789.1791708999954,None,1.682109200017294,790.8792276000022,None,791.3824433000118,None,791.3824433000118,None,r,0.3029324999952223,791.3824433000118,None,0.3029324999952223,,,37Silent,001,2022_Sep_01_1056,ProdSingRedoBetween,2021.2.3,59.92951091322044,
,,,,24,0,24,0,,,,,,,,,,,,,,,,,,,,,,798.2365977000154,None,,,,,,,,,,,,,,,,,notice,173,25,silent,new,null,792.2150097000122,None,792.2150097000122,None,2,4.5182761999894865,792.2150097000122,None,4.5182761999894865,796.7527054999955,None,797.2566801999928,None,797.2566801999928,None,n,0.9487255999993067,797.2566801999928,None,0.9487255999993067,,,37Silent,001,2022_Sep_01_1056,ProdSingRedoBetween,2021.2.3,59.92951091322044,
,,,,25,0,25,0,,,,,,,,,,,,,,,,,,,,,,805.0768378000066,None,,,,,,,,,,,,,,,,,instrument,51,26,silent,old,blue,798.7477704000194,None,798.7477704000194,None,6,5.017587499984074,798.7477704000194,None,5.017587499984074,803.7991155000054,None,804.3094416999957,None,804.3094416999957,None,r,0.7518508000066504,804.3094416999957,None,0.7518508000066504,,,37Silent,001,2022_Sep_01_1056,ProdSingRedoBetween,2021.2.3,59.92951091322044,
,,,,26,0,26,0,,,,,,,,,,,,,,,,,,,,,,808.1299092000118,None,,,,,,,,,,,,,,,,,couch,89,27,silent,old,red,805.5839813000057,None,805.5839813000057,None,6,1.6373089000117034,805.5839813000057,None,1.6373089000117034,807.2455115000193,None,807.7486870000139,None,807.7486870000139,None,r,0.36067940000793897,807.7486870000139,None,0.36067940000793897,,,37Silent,001,2022_Sep_01_1056,ProdSingRedoBetween,2021.2.3,59.92951091322044,
,,,,27,0,27,0,,,,,,,,,,,,,,,,,,,,,,819.0739841000177,None,,,,,,,,,,,,,,,,,income,49,28,silent,old,blue,808.6324896000151,None,808.6324896000151,None,4,9.492827899986878,808.6324896000151,None,9.492827899986878,818.1564226000046,None,818.661180199997,None,818.661180199997,None,r,0.3841729999985546,818.661180199997,None,0.3841729999985546,,,37Silent,001,2022_Sep_01_1056,ProdSingRedoBetween,2021.2.3,59.92951091322044,
,,,,28,0,28,0,,,,,,,,,,,,,,,,,,,,,,823.1948728999996,None,,,,,,,,,,,,,,,,,patient,48,29,silent,old,blue,819.5777032000187,None,819.5777032000187,None,3,2.747654600010719,819.5777032000187,None,2.747654600010719,822.3452412000042,None,822.8446670999983,None,822.8446670999983,None,n,0.32859170000301674,822.8446670999983,None,0.32859170000301674,,,37Silent,001,2022_Sep_01_1056,ProdSingRedoBetween,2021.2.3,59.92951091322044,
,,,,29,0,29,0,,,,,,,,,,,,,,,,,,,,,,831.7366718999983,None,,,,,,,,,,,,,,,,,service,90,30,silent,new,null,823.7061173999973,None,823.7061173999973,None,3,5.4910926000156906,823.7061173999973,None,5.4910926000156906,829.2190346000134,None,829.7237691000046,None,829.7237691000046,None,n,1.9853615000029095,829.7237691000046,None,1.9853615000029095,,,37Silent,001,2022_Sep_01_1056,ProdSingRedoBetween,2021.2.3,59.92951091322044,
,,,,30,0,30,0,,,,,,,,,,,,,,,,,,,,,,836.024223400018,None,,,,,,,,,,,,,,,,,under,179,31,silent,new,null,832.2390255999926,None,832.2390255999926,None,1,2.782487399992533,832.2390255999926,None,2.782487399992533,835.0461996000085,None,835.5587579999992,None,835.5587579999992,None,n,0.4384018999990076,835.5587579999992,None,0.4384018999990076,,,37Silent,001,2022_Sep_01_1056,ProdSingRedoBetween,2021.2.3,59.92951091322044,
,,,,31,0,31,0,,,,,,,,,,,,,,,,,,,,,,840.2821004000143,None,,,,,,,,,,,,,,,,,volume,29,32,silent,old,blue,836.5328252000036,None,836.5328252000036,None,4,3.1362893999903463,836.5328252000036,None,3.1362893999903463,839.6975417000067,None,840.2158380000037,None,840.2158380000037,None,f,0.037490000016987324,840.2158380000037,None,0.037490000016987324,,,37Silent,001,2022_Sep_01_1056,ProdSingRedoBetween,2021.2.3,59.92951091322044,
,,,,32,0,32,0,,,,,,,,,,,,,,,,,,,,,,843.1815040000074,None,,,,,,,,,,,,,,,,,trend,139,33,silent,new,null,840.7963803000166,None,840.7963803000166,None,1,1.5768991999793798,840.7963803000166,None,1.5768991999793798,842.3973203999922,None,842.8984556999931,None,842.8984556999931,None,n,0.26663830000325106,842.8984556999931,None,0.26663830000325106,,,37Silent,001,2022_Sep_01_1056,ProdSingRedoBetween,2021.2.3,59.92951091322044,
,,,,33,0,33,0,,,,,,,,,,,,,,,,,,,,,,846.8182921000116,None,,,,,,,,,,,,,,,,,cover,148,34,silent,new,null,843.6899023000151,None,843.6899023000151,None,2,1.963354800012894,843.6899023000151,None,1.963354800012894,845.6849416000186,None,846.1889330999984,None,846.1889330999984,None,n,0.6003802000195719,846.1889330999984,None,0.6003802000195719,,,37Silent,001,2022_Sep_01_1056,ProdSingRedoBetween,2021.2.3,59.92951091322044,
,,,,34,0,34,0,,,,,,,,,,,,,,,,,,,,,,859.8487595000188,None,,,,,,,,,,,,,,,,,broke,100,35,silent,new,null,847.3293255000026,None,847.3293255000026,None,3,11.635919599997578,847.3293255000026,None,11.635919599997578,858.9806029000029,None,859.4830862999952,None,859.4830862999952,None,f,0.3461404000117909,859.4830862999952,None,0.3461404000117909,,,37Silent,001,2022_Sep_01_1056,ProdSingRedoBetween,2021.2.3,59.92951091322044,
,,,,35,0,35,0,,,,,,,,,,,,,,,,,,,,,,866.9050125000067,None,,,,,,,,,,,,,,,,,employment,60,36,silent,old,red,860.3570480000053,None,860.3570480000053,None,1,5.760086700000102,860.3570480000053,None,5.760086700000102,866.1399013000191,None,866.6550142999913,None,866.6550142999913,None,n,0.2301650999870617,866.6550142999913,None,0.2301650999870617,,,37Silent,001,2022_Sep_01_1056,ProdSingRedoBetween,2021.2.3,59.92951091322044,
,,,,36,0,36,0,,,,,,,,,,,,,,,,,,,,,,870.2917117000034,None,,,,,,,,,,,,,,,,,column,8,37,silent,old,yellow,867.4165511000028,None,867.4165511000028,None,2,1.9166820000100415,867.4165511000028,None,1.9166820000100415,869.3574302000052,None,869.8627187999955,None,869.8627187999955,None,n,0.3984933000174351,869.8627187999955,None,0.3984933000174351,,,37Silent,001,2022_Sep_01_1056,ProdSingRedoBetween,2021.2.3,59.92951091322044,
,,,,37,0,37,0,,,,,,,,,,,,,,,,,,,,,,873.7619765000127,None,,,,,,,,,,,,,,,,,meeting,70,38,silent,old,red,870.8010705000197,None,870.8010705000197,None,2,2.1081387999875005,870.8010705000197,None,2.1081387999875005,872.9276299000194,None,873.4315881000075,None,873.4315881000075,None,n,0.3095982999948319,873.4315881000075,None,0.3095982999948319,,,37Silent,001,2022_Sep_01_1056,ProdSingRedoBetween,2021.2.3,59.92951091322044,
,,,,38,0,38,0,,,,,,,,,,,,,,,,,,,,,,876.6146366000175,None,,,,,,,,,,,,,,,,,weight,38,39,silent,old,blue,874.2706432999985,None,874.2706432999985,None,6,1.4225655999907758,874.2706432999985,None,1.4225655999907758,875.7174624000036,None,876.2383631000121,None,876.2383631000121,None,r,0.35886519998894073,876.2383631000121,None,0.35886519998894073,,,37Silent,001,2022_Sep_01_1056,ProdSingRedoBetween,2021.2.3,59.92951091322044,
,,,,39,0,39,0,,,,,,,,,,,,,,,,,,,,,,881.1531105000176,None,,,,,,,,,,,,,,,,,music,137,40,silent,new,null,877.1209356000181,None,877.1209356000181,None,4,3.0202043000026606,877.1209356000181,None,3.0202043000026606,880.1694641000067,None,880.668843499996,None,880.668843499996,None,f,0.46418089998769574,880.668843499996,None,0.46418089998769574,,,37Silent,001,2022_Sep_01_1056,ProdSingRedoBetween,2021.2.3,59.92951091322044,
,,,,40,0,40,0,,,,,,,,,,,,,,,,,,,,,,888.27773110001,None,,,,,,,,,,,,,,,,,community,84,41,silent,old,red,881.6645388000179,None,881.6645388000179,None,6,5.2845620999869425,881.6645388000179,None,5.2845620999869425,886.9765260000131,None,887.4778720000177,None,887.4778720000177,None,f,0.7833861999970395,887.4778720000177,None,0.7833861999970395,,,37Silent,001,2022_Sep_01_1056,ProdSingRedoBetween,2021.2.3,59.92951091322044,
,,,,41,0,41,0,,,,,,,,,,,,,,,,,,,,,,892.3642514999956,None,,,,,,,,,,,,,,,,,tragedy,43,42,silent,old,blue,888.7798203999992,None,888.7798203999992,None,6,1.9293822000036016,888.7798203999992,None,1.9293822000036016,890.7337084000173,None,891.2461131000018,None,891.2461131000018,None,r,1.0869020000100136,891.2461131000018,None,1.0869020000100136,,,37Silent,001,2022_Sep_01_1056,ProdSingRedoBetween,2021.2.3,59.92951091322044,
,,,,42,0,42,0,,,,,,,,,,,,,,,,,,,,,,897.202036600007,None,,,,,,,,,,,,,,,,,light,136,43,silent,new,null,892.8691734000167,None,892.8691734000167,None,3,2.767985900019994,892.8691734000167,None,2.767985900019994,895.6726494000177,None,896.1843616999977,None,896.1843616999977,None,n,0.9887594999745488,896.1843616999977,None,0.9887594999745488,,,37Silent,001,2022_Sep_01_1056,ProdSingRedoBetween,2021.2.3,59.92951091322044,
,,,,43,0,43,0,,,,,,,,,,,,,,,,,,,,,,900.2215964999923,None,,,,,,,,,,,,,,,,,season,110,44,silent,new,null,897.7113581000012,None,897.7113581000012,None,1,1.4777561000082642,897.7113581000012,None,1.4777561000082642,899.2052220000187,None,899.7045550000039,None,899.7045550000039,None,n,0.49260939998202957,899.7045550000039,None,0.49260939998202957,,,37Silent,001,2022_Sep_01_1056,ProdSingRedoBetween,2021.2.3,59.92951091322044,
,,,,44,0,44,0,,,,,,,,,,,,,,,,,,,,,,903.8751932000159,None,,,,,,,,,,,,,,,,,present,66,45,silent,old,red,900.7240235999925,None,900.7240235999925,None,6,2.097237900015898,900.7240235999925,None,2.097237900015898,902.8526308000146,None,903.3663618999999,None,903.3663618999999,None,r,0.47877390001667663,903.3663618999999,None,0.47877390001667663,,,37Silent,001,2022_Sep_01_1056,ProdSingRedoBetween,2021.2.3,59.92951091322044,
,,,,45,0,45,0,,,,,,,,,,,,,,,,,,,,,,914.4857415000151,None,,,,,,,,,,,,,,,,,question,107,46,silent,new,null,904.390226699994,None,904.390226699994,None,1,8.335047200002009,904.390226699994,None,8.335047200002009,912.7559060000058,None,913.2722320000175,None,913.2722320000175,None,n,1.188894099992467,913.2722320000175,None,1.188894099992467,,,37Silent,001,2022_Sep_01_1056,ProdSingRedoBetween,2021.2.3,59.92951091322044,
,,,,46,0,46,0,,,,,,,,,,,,,,,,,,,,,,920.124656,None,,,,,,,,,,,,,,,,,surprise,52,47,silent,old,blue,914.993704499997,None,914.993704499997,None,5,3.1313593999948353,914.993704499997,None,3.1313593999948353,918.1571199000173,None,918.6665677000128,None,918.6665677000128,None,f,1.4423846999998204,918.6665677000128,None,1.4423846999998204,,,37Silent,001,2022_Sep_01_1056,ProdSingRedoBetween,2021.2.3,59.92951091322044,
,,,,47,0,47,0,,,,,,,,,,,,,,,,,,,,,,925.5469225000124,None,,,,,,,,,,,,,,,,,alert,163,48,silent,new,null,920.631423200015,None,920.631423200015,None,5,3.317544399993494,920.631423200015,None,3.317544399993494,923.9787482999964,None,924.4873625000182,None,924.4873625000182,None,f,1.0296380000072531,924.4873625000182,None,1.0296380000072531,,,37Silent,001,2022_Sep_01_1056,ProdSingRedoBetween,2021.2.3,59.92951091322044,
,,,,48,0,48,0,,,,,,,,,,,,,,,,,,,,,,930.6352191000187,None,,,,,,,,,,,,,,,,,finance,42,49,silent,old,blue,926.0620282000164,None,926.0620282000164,None,6,1.351087799994275,926.0620282000164,None,1.351087799994275,927.4369975000154,None,927.9493127000169,None,927.9493127000169,None,r,2.6637407999951392,927.9493127000169,None,2.6637407999951392,,,37Silent,001,2022_Sep_01_1056,ProdSingRedoBetween,2021.2.3,59.92951091322044,
,,,,49,0,49,0,,,,,,,,,,,,,,,,,,,,,,941.3293771000172,None,,,,,,,,,,,,,,,,,count,44,50,silent,old,blue,931.1445063000137,None,931.1445063000137,None,2,9.220532700011972,931.1445063000137,None,9.220532700011972,940.3968143000093,None,940.9124292999913,None,940.9124292999913,None,n,0.38864429999375716,940.9124292999913,None,0.38864429999375716,,,37Silent,001,2022_Sep_01_1056,ProdSingRedoBetween,2021.2.3,59.92951091322044,
,,,,50,0,50,0,,,,,,,,,,,,,,,,,,,,,,950.7720197000017,None,,,,,,,,,,,,,,,,,novel,166,51,silent,new,null,941.8389617000066,None,941.8389617000066,None,2,7.982080499990843,941.8389617000066,None,7.982080499990843,949.8417272999941,None,950.3550127000199,None,950.3550127000199,None,n,0.3941208999895025,950.3550127000199,None,0.3941208999895025,,,37Silent,001,2022_Sep_01_1056,ProdSingRedoBetween,2021.2.3,59.92951091322044,
,,,,51,0,51,0,,,,,,,,,,,,,,,,,,,,,,956.7278812000004,None,,,,,,,,,,,,,,,,,salary,83,52,silent,old,red,951.2730472999974,None,951.2730472999974,None,4,4.6039454999845475,951.2730472999974,None,4.6039454999845475,955.8950072000152,None,956.4015502000111,None,956.4015502000111,None,f,0.29947709999396466,956.4015502000111,None,0.29947709999396466,,,37Silent,001,2022_Sep_01_1056,ProdSingRedoBetween,2021.2.3,59.92951091322044,
,,,,52,0,52,0,,,,,,,,,,,,,,,,,,,,,,961.115730599995,None,,,,,,,,,,,,,,,,,committee,27,53,silent,old,yellow,957.2385804000078,None,957.2385804000078,None,1,2.710369099979289,957.2385804000078,None,2.710369099979289,959.9656507000036,None,960.4652255999972,None,960.4652255999972,None,n,0.6277850999904331,960.4652255999972,None,0.6277850999904331,,,37Silent,001,2022_Sep_01_1056,ProdSingRedoBetween,2021.2.3,59.92951091322044,
,,,,53,0,53,0,,,,,,,,,,,,,,,,,,,,,,964.6858528000012,None,,,,,,,,,,,,,,,,,master,102,54,silent,new,null,961.6254403000057,None,961.6254403000057,None,1,2.2196515999967232,961.6254403000057,None,2.2196515999967232,963.8754946000117,None,964.3890451000188,None,964.3890451000188,None,n,0.27995260001625866,964.3890451000188,None,0.27995260001625866,,,37Silent,001,2022_Sep_01_1056,ProdSingRedoBetween,2021.2.3,59.92951091322044,
,,,,54,0,54,0,,,,,,,,,,,,,,,,,,,,,,969.5575686999946,None,,,,,,,,,,,,,,,,,force,35,55,silent,old,blue,965.200783200009,None,965.200783200009,None,2,2.6760700000158977,965.200783200009,None,2.6760700000158977,967.9090292000037,None,968.4279819999938,None,968.4279819999938,None,n,1.1049753999977838,968.4279819999938,None,1.1049753999977838,,,37Silent,001,2022_Sep_01_1056,ProdSingRedoBetween,2021.2.3,59.92951091322044,
,,,,55,0,55,0,,,,,,,,,,,,,,,,,,,,,,972.7438734000025,None,,,,,,,,,,,,,,,,,territory,144,56,silent,new,null,970.066783599992,None,970.066783599992,None,1,1.5782309000205714,970.066783599992,None,1.5782309000205714,971.677136400016,None,972.1828285999945,None,972.1828285999945,None,n,0.5341172000044025,972.1828285999945,None,0.5341172000044025,,,37Silent,001,2022_Sep_01_1056,ProdSingRedoBetween,2021.2.3,59.92951091322044,
,,,,56,0,56,0,,,,,,,,,,,,,,,,,,,,,,976.6811807000195,None,,,,,,,,,,,,,,,,,candidate,153,57,silent,new,null,973.2567192999995,None,973.2567192999995,None,3,2.5083633000031114,973.2567192999995,None,2.5083633000031114,975.787662000017,None,976.2976914000174,None,976.2976914000174,None,n,0.363192099990556,976.2976914000174,None,0.363192099990556,,,37Silent,001,2022_Sep_01_1056,ProdSingRedoBetween,2021.2.3,59.92951091322044,
,,,,57,0,57,0,,,,,,,,,,,,,,,,,,,,,,980.8519779999915,None,,,,,,,,,,,,,,,,,executive,147,58,silent,new,null,977.1818525000126,None,977.1818525000126,None,2,2.951069400005508,977.1818525000126,None,2.951069400005508,980.1527453000017,None,980.6593444000173,None,980.6593444000173,None,n,0.16160839999793097,980.6593444000173,None,0.16160839999793097,,,37Silent,001,2022_Sep_01_1056,ProdSingRedoBetween,2021.2.3,59.92951091322044,
,,,,58,0,58,0,,,,,,,,,,,,,,,,,,,,,,984.4906506999978,None,,,,,,,,,,,,,,,,,graduate,31,59,silent,old,blue,981.3553116999974,None,981.3553116999974,None,2,2.257778300001519,981.3553116999974,None,2.257778300001519,983.644621000014,None,984.155592199997,None,984.155592199997,None,n,0.31355719998828135,984.155592199997,None,0.31355719998828135,,,37Silent,001,2022_Sep_01_1056,ProdSingRedoBetween,2021.2.3,59.92951091322044,
,,,,59,0,59,0,,,,,,,,,,,,,,,,,,,,,,988.2094125000003,None,,,,,,,,,,,,,,,,,history,34,60,silent,old,blue,984.9955598000088,None,984.9955598000088,None,2,2.097321999986889,984.9955598000088,None,2.097321999986889,987.1095555000065,None,987.6117787999974,None,987.6117787999974,None,n,0.5772214999888092,987.6117787999974,None,0.5772214999888092,,,37Silent,001,2022_Sep_01_1056,ProdSingRedoBetween,2021.2.3,59.92951091322044,
,,,,60,0,60,0,,,,,,,,,,,,,,,,,,,,,,990.9627547000127,None,,,,,,,,,,,,,,,,,afternoon,76,61,silent,old,red,988.7117098000017,None,988.7117098000017,None,1,1.4293312999943737,988.7117098000017,None,1.4293312999943737,990.1686039000051,None,990.6798238000192,None,990.6798238000192,None,n,0.2611182000255212,990.6798238000192,None,0.2611182000255212,,,37Silent,001,2022_Sep_01_1056,ProdSingRedoBetween,2021.2.3,59.92951091322044,
,,,,61,0,61,0,,,,,,,,,,,,,,,,,,,,,,993.5189847000001,None,,,,,,,,,,,,,,,,,broad,6,62,silent,old,yellow,991.4660473999975,None,991.4660473999975,None,1,1.2828846999909729,991.4660473999975,None,1.2828846999909729,992.7664883999969,None,993.2813061999914,None,993.2813061999914,None,n,0.20372749998932704,993.2813061999914,None,0.20372749998932704,,,37Silent,001,2022_Sep_01_1056,ProdSingRedoBetween,2021.2.3,59.92951091322044,
,,,,62,0,62,0,,,,,,,,,,,,,,,,,,,,,,996.9032940000179,None,,,,,,,,,,,,,,,,,discussion,113,63,silent,new,null,994.0405014000135,None,994.0405014000135,None,1,1.9804292999906465,994.0405014000135,None,1.9804292999906465,996.0509901000187,None,996.5567978000036,None,996.5567978000036,None,n,0.32016320002730936,996.5567978000036,None,0.32016320002730936,,,37Silent,001,2022_Sep_01_1056,ProdSingRedoBetween,2021.2.3,59.92951091322044,
,,,,63,0,63,0,,,,,,,,,,,,,,,,,,,,,,1000.0879467999912,None,,,,,,,,,,,,,,,,,junior,150,64,silent,new,null,997.423134600016,None,997.423134600016,None,1,1.4857372000114992,997.423134600016,None,1.4857372000114992,998.9370290999941,None,999.444619899994,None,999.444619899994,None,n,0.6242206000024453,999.444619899994,None,0.6242206000024453,,,37Silent,001,2022_Sep_01_1056,ProdSingRedoBetween,2021.2.3,59.92951091322044,
,,,,64,0,64,0,,,,,,,,,,,,,,,,,,,,,,1002.9407980999968,None,,,,,,,,,,,,,,,,,machinery,124,65,silent,new,null,1000.5981090000132,None,1000.5981090000132,None,1,1.5268629000056535,1000.5981090000132,None,1.5268629000056535,1002.1412473999953,None,1002.6406903000025,None,1002.6406903000025,None,n,0.28437579999445006,1002.6406903000025,None,0.28437579999445006,,,37Silent,001,2022_Sep_01_1056,ProdSingRedoBetween,2021.2.3,59.92951091322044,
,,,,65,0,65,0,,,,,,,,,,,,,,,,,,,,,,1008.3294641000102,None,,,,,,,,,,,,,,,,,grade,77,66,silent,old,red,1003.4441384999955,None,1003.4441384999955,None,2,4.2007140000059735,1003.4441384999955,None,4.2007140000059735,1007.6621427999926,None,1008.1660453999939,None,1008.1660453999939,None,n,0.13489620000473224,1008.1660453999939,None,0.13489620000473224,,,37Silent,001,2022_Sep_01_1056,ProdSingRedoBetween,2021.2.3,59.92951091322044,
,,,,66,0,66,0,,,,,,,,,,,,,,,,,,,,,,1011.3657062000129,None,,,,,,,,,,,,,,,,,place,138,67,silent,new,null,1008.8408263000019,None,1008.8408263000019,None,2,1.6762295000080485,1008.8408263000019,None,1.6762295000080485,1010.549325800006,None,1011.0488392999978,None,1011.0488392999978,None,n,0.30022659999667667,1011.0488392999978,None,0.30022659999667667,,,37Silent,001,2022_Sep_01_1056,ProdSingRedoBetween,2021.2.3,59.92951091322044,
,,,,67,0,67,0,,,,,,,,,,,,,,,,,,,,,,1014.78697440002,None,,,,,,,,,,,,,,,,,little,133,68,silent,new,null,1011.8724217000126,None,1011.8724217000126,None,3,1.6364945000095759,1011.8724217000126,None,1.6364945000095759,1013.5346541000181,None,1014.0357908000005,None,1014.0357908000005,None,n,0.7213524999970105,1014.0357908000005,None,0.7213524999970105,,,37Silent,001,2022_Sep_01_1056,ProdSingRedoBetween,2021.2.3,59.92951091322044,
,,,,68,0,68,0,,,,,,,,,,,,,,,,,,,,,,1018.5062885000079,None,,,,,,,,,,,,,,,,,institute,97,69,silent,new,null,1015.2922211000114,None,1015.2922211000114,None,4,2.600694000022486,1015.2922211000114,None,2.600694000022486,1017.9232387999946,None,1018.4312751000107,None,1018.4312751000107,None,f,0.05368289997568354,1018.4312751000107,None,0.05368289997568354,,,37Silent,001,2022_Sep_01_1056,ProdSingRedoBetween,2021.2.3,59.92951091322044,
,,,,69,0,69,0,,,,,,,,,,,,,,,,,,,,,,1022.7630139999965,None,,,,,,,,,,,,,,,,,front,174,70,silent,new,null,1019.016970800003,None,1019.016970800003,None,1,1.1159179999958724,1019.016970800003,None,1.1159179999958724,1020.1594202000124,None,1020.6633567000099,None,1020.6633567000099,None,n,2.077636400004849,1020.6633567000099,None,2.077636400004849,,,37Silent,001,2022_Sep_01_1056,ProdSingRedoBetween,2021.2.3,59.92951091322044,
,,,,70,0,70,0,,,,,,,,,,,,,,,,,,,,,,1027.4151629999978,None,,,,,,,,,,,,,,,,,comedy,78,71,silent,old,red,1023.2839786999975,None,1023.2839786999975,None,5,3.280998299975181,1023.2839786999975,None,3.280998299975181,1026.5822116000054,None,1027.0840954000014,None,1027.0840954000014,None,f,0.3128100000030827,1027.0840954000014,None,0.3128100000030827,,,37Silent,001,2022_Sep_01_1056,ProdSingRedoBetween,2021.2.3,59.92951091322044,
,,,,71,0,71,0,,,,,,,,,,,,,,,,,,,,,,1030.102880499995,None,,,,,,,,,,,,,,,,,sunset,141,72,silent,new,null,1027.9235103999963,None,1027.9235103999963,None,2,1.2895063000032678,1027.9235103999963,None,1.2895063000032678,1029.2384781000146,None,1029.7509121000185,None,1029.7509121000185,None,n,0.3338755000149831,1029.7509121000185,None,0.3338755000149831,,,37Silent,001,2022_Sep_01_1056,ProdSingRedoBetween,2021.2.3,59.92951091322044,
,,,,72,0,72,0,,,,,,,,,,,,,,,,,,,,,,1034.205338700005,None,,,,,,,,,,,,,,,,,universal,98,73,silent,new,null,1030.6184279000154,None,1030.6184279000154,None,1,2.058436099992832,1030.6184279000154,None,2.058436099992832,1032.7058005,None,1033.221074800007,None,1033.221074800007,None,n,0.9597167999891099,1033.221074800007,None,0.9597167999891099,,,37Silent,001,2022_Sep_01_1056,ProdSingRedoBetween,2021.2.3,59.92951091322044,
,,,,73,0,73,0,,,,,,,,,,,,,,,,,,,,,,1038.409467999998,None,,,,,,,,,,,,,,,,,colonel,176,74,silent,new,null,1034.7105324000004,None,1034.7105324000004,None,1,2.918247599998722,1034.7105324000004,None,2.918247599998722,1037.6588951000012,None,1038.1591287000047,None,1038.1591287000047,None,n,0.2296327999792993,1038.1591287000047,None,0.2296327999792993,,,37Silent,001,2022_Sep_01_1056,ProdSingRedoBetween,2021.2.3,59.92951091322044,
,,,,74,0,74,0,,,,,,,,,,,,,,,,,,,,,,1043.215801400016,None,,,,,,,,,,,,,,,,,majority,21,75,silent,old,yellow,1038.9107959000103,None,1038.9107959000103,None,3,3.309940799983451,1038.9107959000103,None,3.309940799983451,1042.2466807000164,None,1042.7516823000042,None,1042.7516823000042,None,n,0.4452942000061739,1042.7516823000042,None,0.4452942000061739,,,37Silent,001,2022_Sep_01_1056,ProdSingRedoBetween,2021.2.3,59.92951091322044,
,,,,75,0,75,0,,,,,,,,,,,,,,,,,,,,,,1046.9848083000106,None,,,,,,,,,,,,,,,,,surface,109,76,silent,new,null,1043.7209116000158,None,1043.7209116000158,None,3,2.38803089997964,1043.7209116000158,None,2.38803089997964,1046.1349722000014,None,1046.641942999995,None,1046.641942999995,None,n,0.32288719998905435,1046.641942999995,None,0.32288719998905435,,,37Silent,001,2022_Sep_01_1056,ProdSingRedoBetween,2021.2.3,59.92951091322044,
,,,,76,0,76,0,,,,,,,,,,,,,,,,,,,,,,1052.5901597000193,None,,,,,,,,,,,,,,,,,detective,126,77,silent,new,null,1047.4868678000057,None,1047.4868678000057,None,2,4.198141200002283,1047.4868678000057,None,4.198141200002283,1051.7118148000154,None,1052.2248873999924,None,1052.2248873999924,None,n,0.34791800001403317,1052.2248873999924,None,0.34791800001403317,,,37Silent,001,2022_Sep_01_1056,ProdSingRedoBetween,2021.2.3,59.92951091322044,
,,,,77,0,77,0,,,,,,,,,,,,,,,,,,,,,,1055.326780400006,None,,,,,,,,,,,,,,,,,tennis,123,78,silent,new,null,1053.0995198000164,None,1053.0995198000164,None,2,1.1773331000003964,1053.0995198000164,None,1.1773331000003964,1054.2933447000105,None,1054.7940122,None,1054.7940122,None,n,0.5068565999972634,1054.7940122,None,0.5068565999972634,,,37Silent,001,2022_Sep_01_1056,ProdSingRedoBetween,2021.2.3,59.92951091322044,
,,,,78,0,78,0,,,,,,,,,,,,,,,,,,,,,,1058.0136922000092,None,,,,,,,,,,,,,,,,,medicine,118,79,silent,new,null,1055.8312287000008,None,1055.8312287000008,None,1,1.5256646000198089,1055.8312287000008,None,1.5256646000198089,1057.3841694000002,None,1057.901745500014,None,1057.901745500014,None,n,0.09527930000331253,1057.901745500014,None,0.09527930000331253,,,37Silent,001,2022_Sep_01_1056,ProdSingRedoBetween,2021.2.3,59.92951091322044,
,,,,79,0,79,0,,,,,,,,,,,,,,,,,,,,,,1061.3989330000186,None,,,,,,,,,,,,,,,,,dozen,7,80,silent,old,yellow,1058.5192510999914,None,1058.5192510999914,None,6,2.021589000010863,1058.5192510999914,None,2.021589000010863,1060.5661009000032,None,1061.0665638000064,None,1061.0665638000064,None,r,0.31424560002051294,1061.0665638000064,None,0.31424560002051294,,,37Silent,001,2022_Sep_01_1056,ProdSingRedoBetween,2021.2.3,59.92951091322044,
,,,,80,0,80,0,,,,,,,,,,,,,,,,,,,,,,1066.086964599992,None,,,,,,,,,,,,,,,,,trash,28,81,silent,old,yellow,1061.909608499991,None,1061.909608499991,None,3,3.151138799992623,1061.909608499991,None,3.151138799992623,1065.0886918000178,None,1065.606916299992,None,1065.606916299992,None,n,0.46183539999765344,1065.606916299992,None,0.46183539999765344,,,37Silent,001,2022_Sep_01_1056,ProdSingRedoBetween,2021.2.3,59.92951091322044,
,,,,81,0,81,0,,,,,,,,,,,,,,,,,,,,,,1070.9918409000093,None,,,,,,,,,,,,,,,,,frank,145,82,silent,new,null,1066.6022329000116,None,1066.6022329000116,None,3,1.4106022999912966,1066.6022329000116,None,1.4106022999912966,1068.0398110999959,None,1068.5395536000142,None,1068.5395536000142,None,n,2.4252558999869507,1068.5395536000142,None,2.4252558999869507,,,37Silent,001,2022_Sep_01_1056,ProdSingRedoBetween,2021.2.3,59.92951091322044,
,,,,82,0,82,0,,,,,,,,,,,,,,,,,,,,,,1075.8466246000025,None,,,,,,,,,,,,,,,,,discovery,120,83,silent,new,null,1071.4981445000158,None,1071.4981445000158,None,5,2.5305809999990743,1071.4981445000158,None,2.5305809999990743,1074.0463205999986,None,1074.5461283000186,None,1074.5461283000186,None,f,1.2826074000040535,1074.5461283000186,None,1.2826074000040535,,,37Silent,001,2022_Sep_01_1056,ProdSingRedoBetween,2021.2.3,59.92951091322044,
,,,,83,0,83,0,,,,,,,,,,,,,,,,,,,,,,1080.4847101999912,None,,,,,,,,,,,,,,,,,material,45,84,silent,old,blue,1076.3559962,None,1076.3559962,None,6,2.888809099997161,1076.3559962,None,2.888809099997161,1079.266875500005,None,1079.7673136999947,None,1079.7673136999947,None,r,0.6934792000101879,1079.7673136999947,None,0.6934792000101879,,,37Silent,001,2022_Sep_01_1056,ProdSingRedoBetween,2021.2.3,59.92951091322044,
,,,,84,0,84,0,,,,,,,,,,,,,,,,,,,,,,1087.1107108000142,None,,,,,,,,,,,,,,,,,curve,169,85,silent,new,null,1080.9936839000147,None,1080.9936839000147,None,2,3.4190786000108346,1080.9936839000147,None,3.4190786000108346,1084.4398617999977,None,1084.9558442000125,None,1084.9558442000125,None,n,2.137010599981295,1084.9558442000125,None,2.137010599981295,,,37Silent,001,2022_Sep_01_1056,ProdSingRedoBetween,2021.2.3,59.92951091322044,
,,,,85,0,85,0,,,,,,,,,,,,,,,,,,,,,,1090.2844523999956,None,,,,,,,,,,,,,,,,,store,57,86,silent,old,blue,1087.6284444000048,None,1087.6284444000048,None,2,1.7684193000022788,1087.6284444000048,None,1.7684193000022788,1089.4281023000076,None,1089.9314645999984,None,1089.9314645999984,None,n,0.32138220002525486,1089.9314645999984,None,0.32138220002525486,,,37Silent,001,2022_Sep_01_1056,ProdSingRedoBetween,2021.2.3,59.92951091322044,
,,,,86,0,86,0,,,,,,,,,,,,,,,,,,,,,,1093.747960800014,None,,,,,,,,,,,,,,,,,dispute,65,87,silent,old,red,1090.7952662000025,None,1090.7952662000025,None,2,1.5615366000274662,1090.7952662000025,None,1.5615366000274662,1092.3811834999942,None,1092.8806384000054,None,1092.8806384000054,None,n,0.8362983999832068,1092.8806384000054,None,0.8362983999832068,,,37Silent,001,2022_Sep_01_1056,ProdSingRedoBetween,2021.2.3,59.92951091322044,
,,,,87,0,87,0,,,,,,,,,,,,,,,,,,,,,,1096.8176143000019,None,,,,,,,,,,,,,,,,,breath,112,88,silent,new,null,1094.2557958000107,None,1094.2557958000107,None,3,1.1650647000060417,1094.2557958000107,None,1.1650647000060417,1095.4498144999961,None,1095.9503258000186,None,1095.9503258000186,None,n,0.8385502000164706,1095.9503258000186,None,0.8385502000164706,,,37Silent,001,2022_Sep_01_1056,ProdSingRedoBetween,2021.2.3,59.92951091322044,
,,,,88,0,88,0,,,,,,,,,,,,,,,,,,,,,,1099.8873706000159,None,,,,,,,,,,,,,,,,,design,47,89,silent,old,blue,1097.3210394000052,None,1097.3210394000052,None,6,1.7636311000096612,1097.3210394000052,None,1.7636311000096612,1099.1075000000128,None,1099.620419999992,None,1099.620419999992,None,r,0.24841440000454895,1099.620419999992,None,0.24841440000454895,,,37Silent,001,2022_Sep_01_1056,ProdSingRedoBetween,2021.2.3,59.92951091322044,
,,,,89,0,89,0,,,,,,,,,,,,,,,,,,,,,,1104.241900299996,None,,,,,,,,,,,,,,,,,science,117,90,silent,new,null,1100.3896718000178,None,1100.3896718000178,None,4,2.30294279998634,1100.3896718000178,None,2.30294279998634,1102.708422399999,None,1103.2160077000153,None,1103.2160077000153,None,f,1.0047780000022613,1103.2160077000153,None,1.0047780000022613,,,37Silent,001,2022_Sep_01_1056,ProdSingRedoBetween,2021.2.3,59.92951091322044,
,,,,90,0,90,0,,,,,,,,,,,,,,,,,,,,,,1107.1946080999915,None,,,,,,,,,,,,,,,,,defeat,157,91,silent,new,null,1104.7437937000068,None,1104.7437937000068,None,2,1.8691008999885526,1104.7437937000068,None,1.8691008999885526,1106.6520204000117,None,1107.1635913999926,None,1107.1635913999926,None,n,0.009169900004053488,1107.1635913999926,None,0.009169900004053488,,,37Silent,001,2022_Sep_01_1056,ProdSingRedoBetween,2021.2.3,59.92951091322044,
,,,,91,0,91,0,,,,,,,,,,,,,,,,,,,,,,1116.0219265999913,None,,,,,,,,,,,,,,,,,report,116,92,silent,new,null,1107.698301700002,None,1107.698301700002,None,4,7.306406099989545,1107.698301700002,None,7.306406099989545,1115.0367079999996,None,1115.5415537999943,None,1115.5415537999943,None,f,0.455199599993648,1115.5415537999943,None,0.455199599993648,,,37Silent,001,2022_Sep_01_1056,ProdSingRedoBetween,2021.2.3,59.92951091322044,
,,,,92,0,92,0,,,,,,,,,,,,,,,,,,,,,,1119.490692499996,None,,,,,,,,,,,,,,,,,enemy,177,93,silent,new,null,1116.5523048000177,None,1116.5523048000177,None,2,2.3004424999817275,1116.5523048000177,None,2.3004424999817275,1118.8728787,None,1119.373509500001,None,1119.373509500001,None,n,0.08706630000961013,1119.373509500001,None,0.08706630000961013,,,37Silent,001,2022_Sep_01_1056,ProdSingRedoBetween,2021.2.3,59.92951091322044,
,,,,93,0,93,0,,,,,,,,,,,,,,,,,,,,,,1122.1096898000105,None,,,,,,,,,,,,,,,,,guide,134,94,silent,new,null,1119.9909340000013,None,1119.9909340000013,None,1,1.2137810999993235,1119.9909340000013,None,1.2137810999993235,1121.2252993000147,None,1121.7333416000183,None,1121.7333416000183,None,n,0.35136299999430776,1121.7333416000183,None,0.35136299999430776,,,37Silent,001,2022_Sep_01_1056,ProdSingRedoBetween,2021.2.3,59.92951091322044,
,,,,94,0,94,0,,,,,,,,,,,,,,,,,,,,,,1127.781906499993,None,,,,,,,,,,,,,,,,,captain,172,95,silent,new,null,1122.6142868000024,None,1122.6142868000024,None,3,4.542724099999759,1122.6142868000024,None,4.542724099999759,1127.1996310999966,None,1127.7007928999956,None,1127.7007928999956,None,f,0.06387250000261702,1127.7007928999956,None,0.06387250000261702,,,37Silent,001,2022_Sep_01_1056,ProdSingRedoBetween,2021.2.3,59.92951091322044,
,,,,95,0,95,0,,,,,,,,,,,,,,,,,,,,,,1134.3383360000153,None,,,,,,,,,,,,,,,,,device,161,96,silent,new,null,1128.2932078000158,None,1128.2932078000158,None,4,4.719463100016583,1128.2932078000158,None,4.719463100016583,1133.0384368000086,None,1133.543032799993,None,1133.543032799993,None,f,0.7656534999841824,1133.543032799993,None,0.7656534999841824,,,37Silent,001,2022_Sep_01_1056,ProdSingRedoBetween,2021.2.3,59.92951091322044,
,,,,96,0,96,0,,,,,,,,,,,,,,,,,,,,,,1136.9409892999975,None,,,,,,,,,,,,,,,,,crisis,69,97,silent,old,red,1134.8452457000094,None,1134.8452457000094,None,6,1.5195000000239816,1134.8452457000094,None,1.5195000000239816,1136.3907055000018,None,1136.8958533999976,None,1136.8958533999976,None,r,0.020735500002047047,1136.8958533999976,None,0.020735500002047047,,,37Silent,001,2022_Sep_01_1056,ProdSingRedoBetween,2021.2.3,59.92951091322044,
,,,,97,0,97,0,,,,,,,,,,,,,,,,,,,,,,1142.2297087000043,None,,,,,,,,,,,,,,,,,testimony,54,98,silent,old,blue,1137.445790400001,None,1137.445790400001,None,2,1.5667358000064269,1137.445790400001,None,1.5667358000064269,1139.044094300014,None,1139.5487059000006,None,1139.5487059000006,None,n,2.6562795999925584,1139.5487059000006,None,2.6562795999925584,,,37Silent,001,2022_Sep_01_1056,ProdSingRedoBetween,2021.2.3,59.92951091322044,
,,,,98,0,98,0,,,,,,,,,,,,,,,,,,,,,,1145.352848600014,None,,,,,,,,,,,,,,,,,health,58,99,silent,old,blue,1142.7317107999988,None,1142.7317107999988,None,3,1.6090456999954768,1142.7317107999988,None,1.6090456999954768,1144.3714654000069,None,1144.8840681000147,None,1144.8840681000147,None,n,0.4407491000019945,1144.8840681000147,None,0.4407491000019945,,,37Silent,001,2022_Sep_01_1056,ProdSingRedoBetween,2021.2.3,59.92951091322044,
,,,,99,0,99,0,,,,,,,,,,,,,,,,,,,,,,1148.702739100001,None,,,,,,,,,,,,,,,,,marriage,26,100,silent,old,yellow,1145.867757800006,None,1145.867757800006,None,1,2.1689196999941487,1145.867757800006,None,2.1689196999941487,1148.0554130999953,None,1148.5694525,None,1148.5694525,None,n,0.11526379999122582,1148.5694525,None,0.11526379999122582,,,37Silent,001,2022_Sep_01_1056,ProdSingRedoBetween,2021.2.3,59.92951091322044,
,,,,100,0,100,0,,,,,,,,,,,,,,,,,,,,,,1151.5221520000196,None,,,,,,,,,,,,,,,,,resistance,106,101,silent,new,null,1149.2191022000043,None,1149.2191022000043,None,1,1.6576262000016868,1149.2191022000043,None,1.6576262000016868,1150.9106053000141,None,1151.4234320000105,None,1151.4234320000105,None,n,0.0772341999982018,1151.4234320000105,None,0.0772341999982018,,,37Silent,001,2022_Sep_01_1056,ProdSingRedoBetween,2021.2.3,59.92951091322044,
,,,,101,0,101,0,,,,,,,,,,,,,,,,,,,,,,1154.4083129999926,None,,,,,,,,,,,,,,,,,youth,68,102,silent,old,red,1152.0239494999987,None,1152.0239494999987,None,6,1.4287182999833021,1152.0239494999987,None,1.4287182999833021,1153.4754734000016,None,1153.9794111000083,None,1153.9794111000083,None,r,0.4093653000018094,1153.9794111000083,None,0.4093653000018094,,,37Silent,001,2022_Sep_01_1056,ProdSingRedoBetween,2021.2.3,59.92951091322044,
,,,,102,0,102,0,,,,,,,,,,,,,,,,,,,,,,1157.728288400016,None,,,,,,,,,,,,,,,,,swift,160,103,silent,new,null,1154.911236200016,None,1154.911236200016,None,3,1.6695519000058994,1154.911236200016,None,1.6695519000058994,1156.6178968000168,None,1157.1311694000033,None,1157.1311694000033,None,n,0.577502900006948,1157.1311694000033,None,0.577502900006948,,,37Silent,001,2022_Sep_01_1056,ProdSingRedoBetween,2021.2.3,59.92951091322044,
,,,,103,0,103,0,,,,,,,,,,,,,,,,,,,,,,1160.1473753000028,None,,,,,,,,,,,,,,,,,pretty,132,104,silent,new,null,1158.231167799997,None,1158.231167799997,None,1,1.3254803000018,1158.231167799997,None,1.3254803000018,1159.581592500006,None,1160.0809302999987,None,1160.0809302999987,None,n,0.043744900001911446,1160.0809302999987,None,0.043744900001911446,,,37Silent,001,2022_Sep_01_1056,ProdSingRedoBetween,2021.2.3,59.92951091322044,
,,,,104,0,104,0,,,,,,,,,,,,,,,,,,,,,,1163.5343261999951,None,,,,,,,,,,,,,,,,,relation,171,105,silent,new,null,1160.6527099999948,None,1160.6527099999948,None,1,1.9358904999971855,1160.6527099999948,None,1.9358904999971855,1162.6179245999956,None,1163.1171926000097,None,1163.1171926000097,None,n,0.3994448999874294,1163.1171926000097,None,0.3994448999874294,,,37Silent,001,2022_Sep_01_1056,ProdSingRedoBetween,2021.2.3,59.92951091322044,
,,,,105,0,105,0,,,,,,,,,,,,,,,,,,,,,,1166.186834799999,None,,,,,,,,,,,,,,,,,space,36,106,silent,old,blue,1164.034734500019,None,1164.034734500019,None,6,1.569947099982528,1164.034734500019,None,1.569947099982528,1165.6194770000002,None,1166.1221644000034,None,1166.1221644000034,None,r,0.04258859998662956,1166.1221644000034,None,0.04258859998662956,,,37Silent,001,2022_Sep_01_1056,ProdSingRedoBetween,2021.2.3,59.92951091322044,
,,,,106,0,106,0,,,,,,,,,,,,,,,,,,,,,,1169.5069132999924,None,,,,,,,,,,,,,,,,,growth,175,107,silent,new,null,1166.7012080000131,None,1166.7012080000131,None,4,2.0473835000011604,1166.7012080000131,None,2.0473835000011604,1168.7739573,None,1169.2793704000069,None,1169.2793704000069,None,f,0.19728319998830557,1169.2793704000069,None,0.19728319998830557,,,37Silent,001,2022_Sep_01_1056,ProdSingRedoBetween,2021.2.3,59.92951091322044,
,,,,107,0,107,0,,,,,,,,,,,,,,,,,,,,,,1173.9946245000174,None,,,,,,,,,,,,,,,,,budget,30,108,silent,old,blue,1170.013032399991,None,1170.013032399991,None,3,3.0956648999999743,1170.013032399991,None,3.0956648999999743,1173.1310034000198,None,1173.6488471000048,None,1173.6488471000048,None,n,0.3157368999964092,1173.6488471000048,None,0.3157368999964092,,,37Silent,001,2022_Sep_01_1056,ProdSingRedoBetween,2021.2.3,59.92951091322044,
,,,,108,0,108,0,,,,,,,,,,,,,,,,,,,,,,1177.2811947000155,None,,,,,,,,,,,,,,,,,stranger,164,109,silent,new,null,1174.498321799998,None,1174.498321799998,None,1,2.0263338000222575,1174.498321799998,None,2.0263338000222575,1176.5508004000003,None,1177.0643172000127,None,1177.0643172000127,None,n,0.1883623999892734,1177.0643172000127,None,0.1883623999892734,,,37Silent,001,2022_Sep_01_1056,ProdSingRedoBetween,2021.2.3,59.92951091322044,
,,,,109,0,109,0,,,,,,,,,,,,,,,,,,,,,,1181.1567252000095,None,,,,,,,,,,,,,,,,,scale,103,110,silent,new,null,1177.7899309000059,None,1177.7899309000059,None,2,2.558630900020944,1177.7899309000059,None,2.558630900020944,1180.3679541000165,None,1180.8694562000164,None,1180.8694562000164,None,n,0.2552584999939427,1180.8694562000164,None,0.2552584999939427,,,37Silent,001,2022_Sep_01_1056,ProdSingRedoBetween,2021.2.3,59.92951091322044,
,,,,110,0,110,0,,,,,,,,,,,,,,,,,,,,,,1184.171470900008,None,,,,,,,,,,,,,,,,,mayor,88,111,silent,old,red,1181.6762084999937,None,1181.6762084999937,None,6,1.9123538999992888,1181.6762084999937,None,1.9123538999992888,1183.6091094000149,None,1184.1228345000127,None,1184.1228345000127,None,r,0.02577559999190271,1184.1228345000127,None,0.02577559999190271,,,37Silent,001,2022_Sep_01_1056,ProdSingRedoBetween,2021.2.3,59.92951091322044,
,,,,111,0,111,0,,,,,,,,,,,,,,,,,,,,,,1189.092911500018,None,,,,,,,,,,,,,,,,,literature,114,112,silent,new,null,1184.6790440000186,None,1184.6790440000186,None,4,3.757435500010615,1184.6790440000186,None,3.757435500010615,1188.464469700004,None,1188.9790939000086,None,1188.9790939000086,None,f,0.09748649998800829,1188.9790939000086,None,0.09748649998800829,,,37Silent,001,2022_Sep_01_1056,ProdSingRedoBetween,2021.2.3,59.92951091322044,
,,,,112,0,112,0,,,,,,,,,,,,,,,,,,,,,,1193.614188800013,None,,,,,,,,,,,,,,,,,travel,80,113,silent,old,red,1189.5998736000038,None,1189.5998736000038,None,2,2.56472950000898,1189.5998736000038,None,2.56472950000898,1192.200683300005,None,1192.7134001000086,None,1192.7134001000086,None,n,0.8751927000121213,1192.7134001000086,None,0.8751927000121213,,,37Silent,001,2022_Sep_01_1056,ProdSingRedoBetween,2021.2.3,59.92951091322044,
,,,,113,0,113,0,,,,,,,,,,,,,,,,,,,,,,1197.6348279000085,None,,,,,,,,,,,,,,,,,commercial,121,114,silent,new,null,1194.1265124999918,None,1194.1265124999918,None,3,2.2860605000169016,1194.1265124999918,None,2.2860605000169016,1196.4347474999959,None,1196.9370456000033,None,1196.9370456000033,None,f,0.6676042000181042,1196.9370456000033,None,0.6676042000181042,,,37Silent,001,2022_Sep_01_1056,ProdSingRedoBetween,2021.2.3,59.92951091322044,
,,,,114,0,114,0,,,,,,,,,,,,,,,,,,,,,,1201.1216391999915,None,,,,,,,,,,,,,,,,,fashion,95,115,silent,new,null,1198.135572900006,None,1198.135572900006,None,6,1.533146100002341,1198.135572900006,None,1.533146100002341,1199.6868694000004,None,1200.1875691000023,None,1200.1875691000023,None,r,0.9050759999954607,1200.1875691000023,None,0.9050759999954607,,,37Silent,001,2022_Sep_01_1056,ProdSingRedoBetween,2021.2.3,59.92951091322044,
,,,,115,0,115,0,,,,,,,,,,,,,,,,,,,,,,1205.6262504000042,None,,,,,,,,,,,,,,,,,period,143,116,silent,new,null,1201.6288773000124,None,1201.6288773000124,None,1,3.263715699984459,1201.6288773000124,None,3.263715699984459,1204.9101198000135,None,1205.4152011999977,None,1205.4152011999977,None,n,0.18121109998901375,1205.4152011999977,None,0.18121109998901375,,,37Silent,001,2022_Sep_01_1056,ProdSingRedoBetween,2021.2.3,59.92951091322044,
,,,,116,0,116,0,,,,,,,,,,,,,,,,,,,,,,1209.933026600018,None,,,,,,,,,,,,,,,,,block,20,117,silent,old,yellow,1206.1344689000107,None,1206.1344689000107,None,3,3.0620041000074707,1206.1344689000107,None,3.0620041000074707,1209.214700600016,None,1209.718429600005,None,1209.718429600005,None,n,0.18238309997832403,1209.718429600005,None,0.18238309997832403,,,37Silent,001,2022_Sep_01_1056,ProdSingRedoBetween,2021.2.3,59.92951091322044,
,,,,117,0,117,0,,,,,,,,,,,,,,,,,,,,,,1215.2189968000166,None,,,,,,,,,,,,,,,,,object,53,118,silent,old,blue,1210.4565823000157,None,1210.4565823000157,None,6,3.3959413999982644,1210.4565823000157,None,3.3959413999982644,1213.8690537000075,None,1214.374202600011,None,1214.374202600011,None,r,0.822343700012425,1214.374202600011,None,0.822343700012425,,,37Silent,001,2022_Sep_01_1056,ProdSingRedoBetween,2021.2.3,59.92951091322044,
,,,,118,0,118,0,,,,,,,,,,,,,,,,,,,,,,1221.1468464999925,None,,,,,,,,,,,,,,,,,burden,129,119,silent,new,null,1215.7262145999994,None,1215.7262145999994,None,3,3.590266099985456,1215.7262145999994,None,3.590266099985456,1219.3408542000107,None,1219.8446008000174,None,1219.8446008000174,None,n,1.2798168000008445,1219.8446008000174,None,1.2798168000008445,,,37Silent,001,2022_Sep_01_1056,ProdSingRedoBetween,2021.2.3,59.92951091322044,
,,,,119,0,119,0,,,,,,,,,,,,,,,,,,,,,,1224.6784181999974,None,,,,,,,,,,,,,,,,,industry,165,120,silent,new,null,1221.6599670000141,None,1221.6599670000141,None,3,1.8005054999957792,1221.6599670000141,None,1.8005054999957792,1223.478828399995,None,1223.982578199997,None,1223.982578199997,None,n,0.6699159999843687,1223.982578199997,None,0.6699159999843687,,,37Silent,001,2022_Sep_01_1056,ProdSingRedoBetween,2021.2.3,59.92951091322044,
,,,,120,0,120,0,,,,,,,,,,,,,,,,,,,,,,1228.1652288000041,None,,,,,,,,,,,,,,,,,agreement,50,121,silent,old,blue,1225.1820428000065,None,1225.1820428000065,None,3,1.6704984999960288,1225.1820428000065,None,1.6704984999960288,1226.8813943999994,None,1227.3833007999929,None,1227.3833007999929,None,n,0.7652602999878582,1227.3833007999929,None,0.7652602999878582,,,37Silent,001,2022_Sep_01_1056,ProdSingRedoBetween,2021.2.3,59.92951091322044,
,,,,121,0,121,0,,,,,,,,,,,,,,,,,,,,,,1230.968036300008,None,,,,,,,,,,,,,,,,,thing,162,122,silent,new,null,1228.6806159999978,None,1228.6806159999978,None,3,1.2200050000101328,1228.6806159999978,None,1.2200050000101328,1229.9171492000169,None,1230.4218599000014,None,1230.4218599000014,None,n,0.5266016000241507,1230.4218599000014,None,0.5266016000241507,,,37Silent,001,2022_Sep_01_1056,ProdSingRedoBetween,2021.2.3,59.92951091322044,
,,,,122,0,122,0,,,,,,,,,,,,,,,,,,,,,,1236.6352668000036,None,,,,,,,,,,,,,,,,,whole,85,123,silent,old,red,1231.4765819000022,None,1231.4765819000022,None,1,4.319895399996312,1231.4765819000022,None,4.319895399996312,1235.8236090000137,None,1236.3300003000186,None,1236.3300003000186,None,n,0.274750699987635,1236.3300003000186,None,0.274750699987635,,,37Silent,001,2022_Sep_01_1056,ProdSingRedoBetween,2021.2.3,59.92951091322044,
,,,,123,0,123,0,,,,,,,,,,,,,,,,,,,,,,1240.8131703000108,None,,,,,,,,,,,,,,,,,victory,86,124,silent,old,red,1237.1483112999995,None,1237.1483112999995,None,1,1.976099699997576,1237.1483112999995,None,1.976099699997576,1239.1453457000025,None,1239.6649844000058,None,1239.6649844000058,None,n,1.1315905999799725,1239.6649844000058,None,1.1315905999799725,,,37Silent,001,2022_Sep_01_1056,ProdSingRedoBetween,2021.2.3,59.92951091322044,
,,,,124,0,124,0,,,,,,,,,,,,,,,,,,,,,,1243.6475279000006,None,,,,,,,,,,,,,,,,,level,73,125,silent,old,red,1241.3382435000094,None,1241.3382435000094,None,4,1.4741710999805946,1241.3382435000094,None,1.4741710999805946,1242.8312199999928,None,1243.3355053999985,None,1243.3355053999985,None,f,0.2849131999828387,1243.3355053999985,None,0.2849131999828387,,,37Silent,001,2022_Sep_01_1056,ProdSingRedoBetween,2021.2.3,59.92951091322044,
,,,,125,0,125,0,,,,,,,,,,,,,,,,,,,,,,1248.75246280001,None,,,,,,,,,,,,,,,,,nation,59,126,silent,old,yellow,1244.1505906000093,None,1244.1505906000093,None,3,3.1018923000083305,1244.1505906000093,None,3.1018923000083305,1247.2687066000071,None,1247.770957700006,None,1247.770957700006,None,n,0.9615935999900103,1247.770957700006,None,0.9615935999900103,,,37Silent,001,2022_Sep_01_1056,ProdSingRedoBetween,2021.2.3,59.92951091322044,
,,,,126,0,126,0,,,,,,,,,,,,,,,,,,,,,,1252.3896639000159,None,,,,,,,,,,,,,,,,,harmony,156,127,silent,new,null,1249.2538839000044,None,1249.2538839000044,None,3,2.3424683999910485,1249.2538839000044,None,2.3424683999910485,1251.6288855000166,None,1252.1392383000057,None,1252.1392383000057,None,n,0.23320560000138357,1252.1392383000057,None,0.23320560000138357,,,37Silent,001,2022_Sep_01_1056,ProdSingRedoBetween,2021.2.3,59.92951091322044,
,,,,127,0,127,0,,,,,,,,,,,,,,,,,,,,,,1255.5759446000156,None,,,,,,,,,,,,,,,,,account,11,128,silent,old,yellow,1252.897670300008,None,1252.897670300008,None,3,1.2667553999926895,1252.897670300008,None,1.2667553999926895,1254.1913103999977,None,1254.695383800019,None,1254.695383800019,None,n,0.8610900999919977,1254.695383800019,None,0.8610900999919977,,,37Silent,001,2022_Sep_01_1056,ProdSingRedoBetween,2021.2.3,59.92951091322044,
,,,,128,0,128,0,,,,,,,,,,,,,,,,,,,,,,1263.4838070000114,None,,,,,,,,,,,,,,,,,answer,13,129,silent,old,yellow,1256.0875509000034,None,1256.0875509000034,None,3,5.364885699993465,1256.0875509000034,None,5.364885699993465,1261.4827693999978,None,1261.986508700007,None,1261.986508700007,None,n,1.4820131000014953,1261.986508700007,None,1.4820131000014953,,,37Silent,001,2022_Sep_01_1056,ProdSingRedoBetween,2021.2.3,59.92951091322044,
,,,,129,0,129,0,,,,,,,,,,,,,,,,,,,,,,1266.6374787999957,None,,,,,,,,,,,,,,,,,narrow,154,130,silent,new,null,1263.9906239999982,None,1263.9906239999982,None,1,2.0697409999847878,1263.9906239999982,None,2.0697409999847878,1266.0886125999968,None,1266.604368900007,None,1266.604368900007,None,n,0.016042400005972013,1266.604368900007,None,0.016042400005972013,,,37Silent,001,2022_Sep_01_1056,ProdSingRedoBetween,2021.2.3,59.92951091322044,
,,,,130,0,130,0,,,,,,,,,,,,,,,,,,,,,,1271.7422059999953,None,,,,,,,,,,,,,,,,,straight,104,131,silent,new,null,1267.148272099992,None,1267.148272099992,None,1,3.9842791999981273,1267.148272099992,None,3.9842791999981273,1271.1667339999985,None,1271.677041899995,None,1271.677041899995,None,n,0.04739659998449497,1271.677041899995,None,0.04739659998449497,,,37Silent,001,2022_Sep_01_1056,ProdSingRedoBetween,2021.2.3,59.92951091322044,
,,,,131,0,131,0,,,,,,,,,,,,,,,,,,,,,,1275.162194500008,None,,,,,,,,,,,,,,,,,weather,62,132,silent,old,red,1272.2472080000152,None,1272.2472080000152,None,4,1.5252992000023369,1272.2472080000152,None,1.5252992000023369,1273.7993339000095,None,1274.3175810000103,None,1274.3175810000103,None,f,0.8147945999808144,1274.3175810000103,None,0.8147945999808144,,,37Silent,001,2022_Sep_01_1056,ProdSingRedoBetween,2021.2.3,59.92951091322044,
,,,,132,0,132,0,,,,,,,,,,,,,,,,,,,,,,1278.650209400017,None,,,,,,,,,,,,,,,,,figure,0,133,silent,old,yellow,1275.6698991000012,None,1275.6698991000012,None,6,1.4946742999891285,1275.6698991000012,None,1.4946742999891285,1277.1820290000178,None,1277.6866866000055,None,1277.6866866000055,None,r,0.9418866999913007,1277.6866866000055,None,0.9418866999913007,,,37Silent,001,2022_Sep_01_1056,ProdSingRedoBetween,2021.2.3,59.92951091322044,
,,,,133,0,133,0,,,,,,,,,,,,,,,,,,,,,,1282.7226138999977,None,,,,,,,,,,,,,,,,,debate,79,134,silent,old,red,1279.1533409999975,None,1279.1533409999975,None,1,1.9310207999951672,1279.1533409999975,None,1.9310207999951672,1281.1013618000143,None,1281.603776200005,None,1281.603776200005,None,n,1.0885066000046209,1281.603776200005,None,1.0885066000046209,,,37Silent,001,2022_Sep_01_1056,ProdSingRedoBetween,2021.2.3,59.92951091322044,
,,,,134,0,134,0,,,,,,,,,,,,,,,,,,,,,,1285.5726284999982,None,,,,,,,,,,,,,,,,,reach,56,135,silent,old,blue,1283.2369260000123,None,1283.2369260000123,None,3,1.65560669999104,1283.2369260000123,None,1.65560669999104,1284.929217900004,None,1285.4393351000035,None,1285.4393351000035,None,n,0.11704260000260547,1285.4393351000035,None,0.11704260000260547,,,37Silent,001,2022_Sep_01_1056,ProdSingRedoBetween,2021.2.3,59.92951091322044,
,,,,135,0,135,0,,,,,,,,,,,,,,,,,,,,,,1289.4597330999968,None,,,,,,,,,,,,,,,,,damage,75,136,silent,old,red,1286.0780742999923,None,1286.0780742999923,None,2,2.726368999981787,1286.0780742999923,None,2.726368999981787,1288.8273861999915,None,1289.329006200016,None,1289.329006200016,None,n,0.11536160000832751,1289.329006200016,None,0.11536160000832751,,,37Silent,001,2022_Sep_01_1056,ProdSingRedoBetween,2021.2.3,59.92951091322044,
,,,,136,0,136,0,,,,,,,,,,,,,,,,,,,,,,1292.2624806000094,None,,,,,,,,,,,,,,,,,break,74,137,silent,old,red,1289.9698895000038,None,1289.9698895000038,None,2,1.642543599999044,1289.9698895000038,None,1.642543599999044,1291.6297988000151,None,1292.1334457000194,None,1292.1334457000194,None,n,0.10289440001361072,1292.1334457000194,None,0.10289440001361072,,,37Silent,001,2022_Sep_01_1056,ProdSingRedoBetween,2021.2.3,59.92951091322044,
,,,,137,0,137,0,,,,,,,,,,,,,,,,,,,,,,1296.3040949999995,None,,,,,,,,,,,,,,,,,benefit,127,138,silent,new,null,1292.773451999994,None,1292.773451999994,None,2,2.4630375999840908,1292.773451999994,None,2.4630375999840908,1295.2664296000148,None,1295.7727999000053,None,1295.7727999000053,None,n,0.5037258999946062,1295.7727999000053,None,0.5037258999946062,,,37Silent,001,2022_Sep_01_1056,ProdSingRedoBetween,2021.2.3,59.92951091322044,
,,,,138,0,138,0,,,,,,,,,,,,,,,,,,,,,,1299.8700556000113,None,,,,,,,,,,,,,,,,,hearing,10,139,silent,old,yellow,1296.820297600003,None,1296.820297600003,None,1,1.9841872999968473,1296.820297600003,None,1.9841872999968473,1298.836547999992,None,1299.339353599993,None,1299.339353599993,None,n,0.5051568000053521,1299.339353599993,None,0.5051568000053521,,,37Silent,001,2022_Sep_01_1056,ProdSingRedoBetween,2021.2.3,59.92951091322044,
,,,,139,0,139,0,,,,,,,,,,,,,,,,,,,,,,1302.723289799993,None,,,,,,,,,,,,,,,,,bureau,64,140,silent,old,red,1300.3861879000033,None,1300.3861879000033,None,6,1.2741701999912038,1300.3861879000033,None,1.2741701999912038,1301.689276899997,None,1302.192934199993,None,1302.192934199993,None,r,0.4993232999986503,1302.192934199993,None,0.4993232999986503,,,37Silent,001,2022_Sep_01_1056,ProdSingRedoBetween,2021.2.3,59.92951091322044,
,,,,140,0,140,0,,,,,,,,,,,,,,,,,,,,,,1308.7841809999954,None,,,,,,,,,,,,,,,,,month,111,141,silent,new,null,1303.2324669999944,None,1303.2324669999944,None,2,4.828030300006503,1303.2324669999944,None,4.828030300006503,1308.0897930999927,None,1308.595640500018,None,1308.595640500018,None,n,0.16088300000410527,1308.595640500018,None,0.16088300000410527,,,37Silent,001,2022_Sep_01_1056,ProdSingRedoBetween,2021.2.3,59.92951091322044,
,,,,141,0,141,0,,,,,,,,,,,,,,,,,,,,,,1311.614987500012,None,,,,,,,,,,,,,,,,,shear,3,142,silent,old,yellow,1309.2996870999923,None,1309.2996870999923,None,6,1.5127512000035495,1309.2996870999923,None,1.5127512000035495,1310.8420093000168,None,1311.3482684000046,None,1311.3482684000046,None,r,0.24819540002499707,1311.3482684000046,None,0.24819540002499707,,,37Silent,001,2022_Sep_01_1056,ProdSingRedoBetween,2021.2.3,59.92951091322044,
,,,,142,0,142,0,,,,,,,,,,,,,,,,,,,,,,1314.7181872999936,None,,,,,,,,,,,,,,,,,sound,119,143,silent,new,null,1312.1201918000006,None,1312.1201918000006,None,1,1.9321958999789786,1312.1201918000006,None,1.9321958999789786,1314.0692759999947,None,1314.5755991000042,None,1314.5755991000042,None,n,0.11681289999978617,1314.5755991000042,None,0.11681289999978617,,,37Silent,001,2022_Sep_01_1056,ProdSingRedoBetween,2021.2.3,59.92951091322044,
,,,,143,0,143,0,,,,,,,,,,,,,,,,,,,,,,1318.2717677000037,None,,,,,,,,,,,,,,,,,owner,91,144,silent,new,null,1315.2218616000027,None,1315.2218616000027,None,3,2.1906001000024844,1315.2218616000027,None,2.1906001000024844,1317.4390889999922,None,1317.9383967000176,None,1317.9383967000176,None,n,0.3060006000159774,1317.9383967000176,None,0.3060006000159774,,,37Silent,001,2022_Sep_01_1056,ProdSingRedoBetween,2021.2.3,59.92951091322044,
,,,,144,0,144,0,,,,,,,,,,,,,,,,,,,,,,1322.1125979000062,None,,,,,,,,,,,,,,,,,signal,125,145,silent,new,null,1318.7913605000067,None,1318.7913605000067,None,1,2.5491019999899436,1318.7913605000067,None,2.5491019999899436,1321.3657540999993,None,1321.8757041000063,None,1321.8757041000063,None,n,0.2086630999983754,1321.8757041000063,None,0.2086630999983754,,,37Silent,001,2022_Sep_01_1056,ProdSingRedoBetween,2021.2.3,59.92951091322044,
,,,,145,0,145,0,,,,,,,,,,,,,,,,,,,,,,1330.2170617000083,None,,,,,,,,,,,,,,,,,individual,115,146,silent,new,null,1322.6325164000154,None,1322.6325164000154,None,3,5.955770299973665,1322.6325164000154,None,5.955770299973665,1328.6163955999946,None,1329.1160192000098,None,1329.1160192000098,None,n,1.0803029999951832,1329.1160192000098,None,1.0803029999951832,,,37Silent,001,2022_Sep_01_1056,ProdSingRedoBetween,2021.2.3,59.92951091322044,
,,,,146,0,146,0,,,,,,,,,,,,,,,,,,,,,,1333.0030371000175,None,,,,,,,,,,,,,,,,,congress,99,147,silent,new,null,1330.7250411999994,None,1330.7250411999994,None,1,1.5832452999893576,1330.7250411999994,None,1.5832452999893576,1332.336964599992,None,1332.8364626000111,None,1332.8364626000111,None,n,0.1439531000214629,1332.8364626000111,None,0.1439531000214629,,,37Silent,001,2022_Sep_01_1056,ProdSingRedoBetween,2021.2.3,59.92951091322044,
,,,,147,0,147,0,,,,,,,,,,,,,,,,,,,,,,1335.989502500015,None,,,,,,,,,,,,,,,,,direction,41,148,silent,old,blue,1333.509397899994,None,1333.509397899994,None,4,1.8790355999954045,1333.509397899994,None,1.8790355999954045,1335.4101961000124,None,1335.9241750999936,None,1335.9241750999936,None,f,0.04017089999979362,1335.9241750999936,None,0.04017089999979362,,,37Silent,001,2022_Sep_01_1056,ProdSingRedoBetween,2021.2.3,59.92951091322044,
,,,,148,0,148,0,,,,,,,,,,,,,,,,,,,,,,1351.7052506000036,None,,,,,,,,,,,,,,,,,shape,140,149,silent,new,null,1336.4974590000056,None,1336.4974590000056,None,3,13.338821199984523,1336.4974590000056,None,13.338821199984523,1349.8580385000096,None,1350.3731791000173,None,1350.3731791000173,None,f,1.311362900014501,1350.3731791000173,None,1.311362900014501,,,37Silent,001,2022_Sep_01_1056,ProdSingRedoBetween,2021.2.3,59.92951091322044,
,,,,149,0,149,0,,,,,,,,,,,,,,,,,,,,,,1355.3254962000065,None,,,,,,,,,,,,,,,,,treatment,159,150,silent,new,null,1352.2210397000017,None,1352.2210397000017,None,1,2.047343699989142,1352.2210397000017,None,2.047343699989142,1354.3018074000138,None,1354.8083686000027,None,1354.8083686000027,None,n,0.4999878999951761,1354.8083686000027,None,0.4999878999951761,,,37Silent,001,2022_Sep_01_1056,ProdSingRedoBetween,2021.2.3,59.92951091322044,
,,,,150,0,150,0,,,,,,,,,,,,,,,,,,,,,,1360.8320531999925,None,,,,,,,,,,,,,,,,,chief,108,151,silent,new,null,1355.8337705000013,None,1355.8337705000013,None,4,4.138495700026397,1355.8337705000013,None,4.138495700026397,1359.9973470999976,None,1360.5076232000138,None,1360.5076232000138,None,f,0.30488800001330674,1360.5076232000138,None,0.30488800001330674,,,37Silent,001,2022_Sep_01_1056,ProdSingRedoBetween,2021.2.3,59.92951091322044,
,,,,151,0,151,0,,,,,,,,,,,,,,,,,,,,,,1365.602241400018,None,,,,,,,,,,,,,,,,,safety,158,152,silent,new,null,1361.3461053000065,None,1361.3461053000065,None,2,3.5781106000067666,1361.3461053000065,None,3.5781106000067666,1364.9525297000073,None,1365.458292299998,None,1365.458292299998,None,n,0.1219940000155475,1365.458292299998,None,0.1219940000155475,,,37Silent,001,2022_Sep_01_1056,ProdSingRedoBetween,2021.2.3,59.92951091322044,
,,,,152,0,152,0,,,,,,,,,,,,,,,,,,,,,,1370.0749854000169,None,,,,,,,,,,,,,,,,,character,17,153,silent,old,yellow,1366.1065066000156,None,1366.1065066000156,None,4,2.833780699991621,1366.1065066000156,None,2.833780699991621,1368.9620979000174,None,1369.4738849000132,None,1369.4738849000132,None,f,0.5784606999950483,1369.4738849000132,None,0.5784606999950483,,,37Silent,001,2022_Sep_01_1056,ProdSingRedoBetween,2021.2.3,59.92951091322044,
,,,,153,0,153,0,,,,,,,,,,,,,,,,,,,,,,1374.5004098000063,None,,,,,,,,,,,,,,,,,collection,33,154,silent,old,blue,1370.5902287999925,None,1370.5902287999925,None,2,3.318001399980858,1370.5902287999925,None,3.318001399980858,1373.9282249000098,None,1374.4299990000145,None,1374.4299990000145,None,n,0.0463197999924887,1374.4299990000145,None,0.0463197999924887,,,37Silent,001,2022_Sep_01_1056,ProdSingRedoBetween,2021.2.3,59.92951091322044,
,,,,154,0,154,0,,,,,,,,,,,,,,,,,,,,,,1379.4354120999924,None,,,,,,,,,,,,,,,,,society,170,155,silent,new,null,1375.0216710999957,None,1375.0216710999957,None,1,3.598588299995754,1375.0216710999957,None,3.598588299995754,1378.6495724999986,None,1379.1558313000132,None,1379.1558313000132,None,n,0.24847720001707785,1379.1558313000132,None,0.24847720001707785,,,37Silent,001,2022_Sep_01_1056,ProdSingRedoBetween,2021.2.3,59.92951091322044,
,,,,155,0,155,0,,,,,,,,,,,,,,,,,,,,,,1384.5878374000022,None,,,,,,,,,,,,,,,,,business,151,156,silent,new,null,1379.9510119000042,None,1379.9510119000042,None,4,3.3332035999919754,1379.9510119000042,None,3.3332035999919754,1383.3045406000165,None,1383.8038882999972,None,1383.8038882999972,None,f,0.768393099977402,1383.8038882999972,None,0.768393099977402,,,37Silent,001,2022_Sep_01_1056,ProdSingRedoBetween,2021.2.3,59.92951091322044,
,,,,156,0,156,0,,,,,,,,,,,,,,,,,,,,,,1387.5411463000055,None,,,,,,,,,,,,,,,,,substance,5,157,silent,old,yellow,1385.0913287000149,None,1385.0913287000149,None,6,1.520866600010777,1385.0913287000149,None,1.520866600010777,1386.6412975999992,None,1387.145365000004,None,1387.145365000004,None,r,0.3791075999906752,1387.145365000004,None,0.3791075999906752,,,37Silent,001,2022_Sep_01_1056,ProdSingRedoBetween,2021.2.3,59.92951091322044,
,,,,157,0,157,0,,,,,,,,,,,,,,,,,,,,,,1389.9099655000027,None,,,,,,,,,,,,,,,,,entrance,167,158,silent,new,null,1388.0478367000178,None,1388.0478367000178,None,1,1.1644245000206865,1388.0478367000178,None,1.1644245000206865,1389.243243200006,None,1389.7489855000167,None,1389.7489855000167,None,n,0.13520239997887984,1389.7489855000167,None,0.13520239997887984,,,37Silent,001,2022_Sep_01_1056,ProdSingRedoBetween,2021.2.3,59.92951091322044,
,,,,158,0,158,0,,,,,,,,,,,,,,,,,,,,,,1393.3633728999994,None,,,,,,,,,,,,,,,,,route,131,159,silent,new,null,1390.4192603999982,None,1390.4192603999982,None,1,1.880973699997412,1390.4192603999982,None,1.880973699997412,1392.329698000016,None,1392.831958099996,None,1392.831958099996,None,n,0.5162899999995716,1392.831958099996,None,0.5162899999995716,,,37Silent,001,2022_Sep_01_1056,ProdSingRedoBetween,2021.2.3,59.92951091322044,
,,,,159,0,159,0,,,,,,,,,,,,,,,,,,,,,,1396.032640999998,None,,,,,,,,,,,,,,,,,welcome,18,160,silent,old,yellow,1393.8752749999985,None,1393.8752749999985,None,2,1.3689564000233077,1393.8752749999985,None,1.3689564000233077,1395.267394800001,None,1395.7869691000087,None,1395.7869691000087,None,n,0.22525330001371913,1395.7869691000087,None,0.22525330001371913,,,37Silent,001,2022_Sep_01_1056,ProdSingRedoBetween,2021.2.3,59.92951091322044,
,,,,160,0,160,0,,,,,,,,,,,,,,,,,,,,,,1399.8239871000114,None,,,,,,,,,,,,,,,,,drink,25,161,silent,old,yellow,1396.540245400014,None,1396.540245400014,None,1,2.431993699981831,1396.540245400014,None,2.431993699981831,1399.0023502999975,None,1399.5028440000024,None,1399.5028440000024,None,n,0.30154879999463446,1399.5028440000024,None,0.30154879999463446,,,37Silent,001,2022_Sep_01_1056,ProdSingRedoBetween,2021.2.3,59.92951091322044,
,,,,161,0,161,0,,,,,,,,,,,,,,,,,,,,,,1406.6098723000032,None,,,,,,,,,,,,,,,,,goose,4,162,silent,old,yellow,1400.343462799996,None,1400.343462799996,None,6,4.780819999985397,1400.343462799996,None,4.780819999985397,1405.1428394000104,None,1405.6424132999964,None,1405.6424132999964,None,r,0.9458218999789096,1405.6424132999964,None,0.9458218999789096,,,37Silent,001,2022_Sep_01_1056,ProdSingRedoBetween,2021.2.3,59.92951091322044,
,,,,162,0,162,0,,,,,,,,,,,,,,,,,,,,,,1409.1790218999959,None,,,,,,,,,,,,,,,,,death,94,163,silent,new,null,1407.1123114000075,None,1407.1123114000075,None,1,1.2757507000060286,1407.1123114000075,None,1.2757507000060286,1408.412469300005,None,1408.9129784000106,None,1408.9129784000106,None,n,0.25135500001488253,1408.9129784000106,None,0.25135500001488253,,,37Silent,001,2022_Sep_01_1056,ProdSingRedoBetween,2021.2.3,59.92951091322044,
,,,,163,0,163,0,,,,,,,,,,,,,,,,,,,,,,1413.7337699999916,None,,,,,,,,,,,,,,,,,charter,1,164,silent,old,yellow,1409.6889997000108,None,1409.6889997000108,None,6,2.8031322000024375,1409.6889997000108,None,2.8031322000024375,1412.518968599994,None,1413.033113500016,None,1413.033113500016,None,r,0.6832580999762286,1413.033113500016,None,0.6832580999762286,,,37Silent,001,2022_Sep_01_1056,ProdSingRedoBetween,2021.2.3,59.92951091322044,
,,,,164,0,164,0,,,,,,,,,,,,,,,,,,,,,,1419.989866399992,None,,,,,,,,,,,,,,,,,bicycle,130,165,silent,new,null,1414.2378682999988,None,1414.2378682999988,None,1,4.918335099995602,1414.2378682999988,None,4.918335099995602,1419.175376500003,None,1419.6928512000013,None,1419.6928512000013,None,n,0.27925339998910204,1419.6928512000013,None,0.27925339998910204,,,37Silent,001,2022_Sep_01_1056,ProdSingRedoBetween,2021.2.3,59.92951091322044,
,,,,165,0,165,0,,,,,,,,,,,,,,,,,,,,,,1428.3154764999927,None,,,,,,,,,,,,,,,,,fellow,152,166,silent,new,null,1420.4984389000165,None,1420.4984389000165,None,3,7.185731100005796,1420.4984389000165,None,7.185731100005796,1427.7143656999979,None,1428.215434200014,None,1428.215434200014,None,n,0.08464240000466816,1428.215434200014,None,0.08464240000466816,,,37Silent,001,2022_Sep_01_1056,ProdSingRedoBetween,2021.2.3,59.92951091322044,
,,,,166,0,166,0,,,,,,,,,,,,,,,,,,,,,,1430.7612001000089,None,,,,,,,,,,,,,,,,,quantity,105,167,silent,new,null,1428.8180438000127,None,1428.8180438000127,None,2,1.3220490000094287,1428.8180438000127,None,1.3220490000094287,1430.1678710000124,None,1430.6786639000056,None,1430.6786639000056,None,n,0.04560509999282658,1430.6786639000056,None,0.04560509999282658,,,37Silent,001,2022_Sep_01_1056,ProdSingRedoBetween,2021.2.3,59.92951091322044,
,,,,167,0,167,0,,,,,,,,,,,,,,,,,,,,,,1433.8038192999957,None,,,,,,,,,,,,,,,,,production,32,168,silent,old,blue,1431.270949400001,None,1431.270949400001,None,4,1.6291974000050686,1431.270949400001,None,1.6291974000050686,1432.9207963999943,None,1433.4239224000194,None,1433.4239224000194,None,f,0.3562235999852419,1433.4239224000194,None,0.3562235999852419,,,37Silent,001,2022_Sep_01_1056,ProdSingRedoBetween,2021.2.3,59.92951091322044,
,,,,168,0,168,0,,,,,,,,,,,,,,,,,,,,,,1437.2238780000189,None,,,,,,,,,,,,,,,,,hunger,101,169,silent,new,null,1434.3130680000177,None,1434.3130680000177,None,3,1.9150484999991022,1434.3130680000177,None,1.9150484999991022,1436.2568675999937,None,1436.7604551000113,None,1436.7604551000113,None,n,0.43564539999351837,1436.7604551000113,None,0.43564539999351837,,,37Silent,001,2022_Sep_01_1056,ProdSingRedoBetween,2021.2.3,59.92951091322044,
,,,,169,0,169,0,,,,,,,,,,,,,,,,,,,,,,1441.4111633000139,None,,,,,,,,,,,,,,,,,raise,12,170,silent,old,yellow,1437.730647199991,None,1437.730647199991,None,5,2.7855208000109997,1437.730647199991,None,2.7855208000109997,1440.5482172000047,None,1441.0644251000194,None,1441.0644251000194,None,r,0.32376709999516606,1441.0644251000194,None,0.32376709999516606,,,37Silent,001,2022_Sep_01_1056,ProdSingRedoBetween,2021.2.3,59.92951091322044,
,,,,170,0,170,0,,,,,,,,,,,,,,,,,,,,,,1443.9471119999944,None,,,,,,,,,,,,,,,,,south,128,171,silent,new,null,1441.9148588000098,None,1441.9148588000098,None,1,1.313366699992912,1441.9148588000098,None,1.313366699992912,1443.2477633999952,None,1443.7525948999973,None,1443.7525948999973,None,n,0.17165099998237565,1443.7525948999973,None,0.17165099998237565,,,37Silent,001,2022_Sep_01_1056,ProdSingRedoBetween,2021.2.3,59.92951091322044,
,,,,171,0,171,0,,,,,,,,,,,,,,,,,,,,,,1447.5840216999932,None,,,,,,,,,,,,,,,,,military,2,172,silent,old,yellow,1444.459186299995,None,1444.459186299995,None,6,2.3049382000172045,1444.459186299995,None,2.3049382000172045,1446.7844909999985,None,1447.2895867000043,None,1447.2895867000043,None,r,0.2665102999890223,1447.2895867000043,None,0.2665102999890223,,,37Silent,001,2022_Sep_01_1056,ProdSingRedoBetween,2021.2.3,59.92951091322044,
,,,,172,0,172,0,,,,,,,,,,,,,,,,,,,,,,1450.2867681999924,None,,,,,,,,,,,,,,,,,number,61,173,silent,old,red,1448.0966722000157,None,1448.0966722000157,None,2,1.5554209999972954,1448.0966722000157,None,1.5554209999972954,1449.6694471999945,None,1450.172745000018,None,1450.172745000018,None,n,0.09551440001814626,1450.172745000018,None,0.09551440001814626,,,37Silent,001,2022_Sep_01_1056,ProdSingRedoBetween,2021.2.3,59.92951091322044,
,,,,173,0,173,0,,,,,,,,,,,,,,,,,,,,,,1458.0111232000054,None,,,,,,,,,,,,,,,,,mankind,87,174,silent,old,red,1450.801343500003,None,1450.801343500003,None,1,6.586766799999168,1450.801343500003,None,6.586766799999168,1457.4118768000044,None,1457.9151831000054,None,1457.9151831000054,None,n,0.06498850000207312,1457.9151831000054,None,0.06498850000207312,,,37Silent,001,2022_Sep_01_1056,ProdSingRedoBetween,2021.2.3,59.92951091322044,
,,,,174,0,174,0,,,,,,,,,,,,,,,,,,,,,,1463.219203000015,None,,,,,,,,,,,,,,,,,range,168,175,silent,new,null,1458.5153741000104,None,1458.5153741000104,None,4,3.088633999985177,1458.5153741000104,None,3.088633999985177,1461.6313226000057,None,1462.1319107000018,None,1462.1319107000018,None,f,1.0645910000021104,1462.1319107000018,None,1.0645910000021104,,,37Silent,001,2022_Sep_01_1056,ProdSingRedoBetween,2021.2.3,59.92951091322044,
,,,,175,0,175,0,,,,,,,,,,,,,,,,,,,,,,1466.1692689000047,None,,,,,,,,,,,,,,,,,escape,15,176,silent,old,yellow,1463.7394780000031,None,1463.7394780000031,None,2,1.6406686000118498,1463.7394780000031,None,1.6406686000118498,1465.4123798999935,None,1465.9282407000137,None,1465.9282407000137,None,n,0.21180349998758174,1465.9282407000137,None,0.21180349998758174,,,37Silent,001,2022_Sep_01_1056,ProdSingRedoBetween,2021.2.3,59.92951091322044,
