StudyLoop.thisRepN,StudyLoop.thisTrialN,StudyLoop.thisN,StudyLoop.thisIndex,TestLoop.thisRepN,TestLoop.thisTrialN,TestLoop.thisN,TestLoop.thisIndex,textCondition.started,textCondition.stopped,keyCondition.keys,keyCondition.rt,keyCondition.started,keyCondition.stopped,Condition,textWelcome.started,textWelcome.stopped,keyWelcome.keys,keyWelcome.rt,keyWelcome.started,keyWelcome.stopped,textAloud.started,textAloud.stopped,textSilent.started,textSilent.stopped,textSing.started,textSing.stopped,conditional_text.started,conditional_text.stopped,textBlank500.started,textBlank500.stopped,study_word,study_num,study_order,study_type,word_color,textStudy.started,textStudy.stopped,keyStudy.keys,keyStudy.started,keyStudy.stopped,textTestInstructions.started,textTestInstructions.stopped,key_resp_3.keys,key_resp_3.rt,key_resp_3.started,key_resp_3.stopped,test_word,test_num,test_order,test_condition,old_new_test,test_word_original_color,textConf.started,textConf.stopped,textConfScale.started,textConfScale.stopped,keyConf.keys,keyConf.rt,keyConf.started,keyConf.stopped,confidence response time,textTestBlank.started,textTestBlank.stopped,textRKN.started,textRKN.stopped,textRKNScale.started,textRKNScale.stopped,keyRKN.keys,keyRKN.rt,keyRKN.started,keyRKN.stopped,rkn response time,textEnd.started,textEnd.stopped,participant,session,date,expName,psychopyVersion,frameRate,
,,,,,,,,38.57933000000776,None,b,1.8228773000009824,38.57933000000776,None,,,,,,,,,,,,,,,,,,,,,,,,,,,,,,,,,,,,,,,,,,,,,,,,,,,,,,,,,,,,,,38Aloud,001,2022_Sep_01_1123,ProdSingRedoBetween,2021.2.3,59.999088013902686,
,,,,,,,,,,,,,,AloudTest,40.44301180000184,None,space,2345.107030299987,40.44301180000184,None,,,,,,,,,,,,,,,,,,,,,,,,,,,,,,,,,,,,,,,,,,,,,,,,,,,,,,,38Aloud,001,2022_Sep_01_1123,ProdSingRedoBetween,2021.2.3,59.999088013902686,
0,0,0,0,,,,,,,,,,,,,,,,,,40.44301180000184,None,40.44301180000184,None,40.44301180000184,None,40.44301180000184,None,2388.0878979000263,None,weight,63,1,aloud,red,2386.074685700005,None,None,2386.074685700005,None,,,,,,,,,,,,,,,,,,,,,,,,,,,,,,,,,,,38Aloud,001,2022_Sep_01_1123,ProdSingRedoBetween,2021.2.3,59.999088013902686,
1,0,1,0,,,,,,,,,,,,,,,,,,,,,,,,,,2390.60716330001,None,research,45,2,aloud,blue,2388.5922833000077,None,None,2388.5922833000077,None,,,,,,,,,,,,,,,,,,,,,,,,,,,,,,,,,,,38Aloud,001,2022_Sep_01_1123,ProdSingRedoBetween,2021.2.3,59.999088013902686,
2,0,2,0,,,,,,,,,,,,,,,,,,,,,,,,,,2393.109537900018,None,sweet,41,3,aloud,blue,2391.1088688000164,None,None,2391.1088688000164,None,,,,,,,,,,,,,,,,,,,,,,,,,,,,,,,,,,,38Aloud,001,2022_Sep_01_1123,ProdSingRedoBetween,2021.2.3,59.999088013902686,
3,0,3,0,,,,,,,,,,,,,,,,,,,,,,,,,,2395.628736200015,None,guest,19,4,aloud,yellow,2393.6136440000264,None,None,2393.6136440000264,None,,,,,,,,,,,,,,,,,,,,,,,,,,,,,,,,,,,38Aloud,001,2022_Sep_01_1123,ProdSingRedoBetween,2021.2.3,59.999088013902686,
4,0,4,0,,,,,,,,,,,,,,,,,,,,,,,,,,2398.131143900013,None,atmosphere,12,5,aloud,yellow,2396.1292938000115,None,None,2396.1292938000115,None,,,,,,,,,,,,,,,,,,,,,,,,,,,,,,,,,,,38Aloud,001,2022_Sep_01_1123,ProdSingRedoBetween,2021.2.3,59.999088013902686,
5,0,5,0,,,,,,,,,,,,,,,,,,,,,,,,,,2400.6505773000245,None,plane,85,6,aloud,red,2398.635291100014,None,None,2398.635291100014,None,,,,,,,,,,,,,,,,,,,,,,,,,,,,,,,,,,,38Aloud,001,2022_Sep_01_1123,ProdSingRedoBetween,2021.2.3,59.999088013902686,
6,0,6,0,,,,,,,,,,,,,,,,,,,,,,,,,,2403.169546400022,None,brief,75,7,aloud,red,2401.1546399000217,None,None,2401.1546399000217,None,,,,,,,,,,,,,,,,,,,,,,,,,,,,,,,,,,,38Aloud,001,2022_Sep_01_1123,ProdSingRedoBetween,2021.2.3,59.999088013902686,
7,0,7,0,,,,,,,,,,,,,,,,,,,,,,,,,,2405.671840200026,None,minor,7,8,aloud,yellow,2403.6699645000044,None,None,2403.6699645000044,None,,,,,,,,,,,,,,,,,,,,,,,,,,,,,,,,,,,38Aloud,001,2022_Sep_01_1123,ProdSingRedoBetween,2021.2.3,59.999088013902686,
8,0,8,0,,,,,,,,,,,,,,,,,,,,,,,,,,2408.191426000005,None,working,22,9,aloud,yellow,2406.178999000025,None,None,2406.178999000025,None,,,,,,,,,,,,,,,,,,,,,,,,,,,,,,,,,,,38Aloud,001,2022_Sep_01_1123,ProdSingRedoBetween,2021.2.3,59.999088013902686,
9,0,9,0,,,,,,,,,,,,,,,,,,,,,,,,,,2410.7103256000264,None,signal,87,10,aloud,red,2408.6960087000043,None,None,2408.6960087000043,None,,,,,,,,,,,,,,,,,,,,,,,,,,,,,,,,,,,38Aloud,001,2022_Sep_01_1123,ProdSingRedoBetween,2021.2.3,59.999088013902686,
10,0,10,0,,,,,,,,,,,,,,,,,,,,,,,,,,2413.2130171000026,None,debate,52,11,aloud,blue,2411.210789100005,None,None,2411.210789100005,None,,,,,,,,,,,,,,,,,,,,,,,,,,,,,,,,,,,38Aloud,001,2022_Sep_01_1123,ProdSingRedoBetween,2021.2.3,59.999088013902686,
11,0,11,0,,,,,,,,,,,,,,,,,,,,,,,,,,2415.7154282000265,None,shape,76,12,aloud,red,2413.7147062000004,None,None,2413.7147062000004,None,,,,,,,,,,,,,,,,,,,,,,,,,,,,,,,,,,,38Aloud,001,2022_Sep_01_1123,ProdSingRedoBetween,2021.2.3,59.999088013902686,
12,0,12,0,,,,,,,,,,,,,,,,,,,,,,,,,,2418.21781870001,None,drama,69,13,aloud,red,2416.2180846000265,None,None,2416.2180846000265,None,,,,,,,,,,,,,,,,,,,,,,,,,,,,,,,,,,,38Aloud,001,2022_Sep_01_1123,ProdSingRedoBetween,2021.2.3,59.999088013902686,
13,0,13,0,,,,,,,,,,,,,,,,,,,,,,,,,,2420.720377300022,None,orchestra,0,14,aloud,yellow,2418.718475300004,None,None,2418.718475300004,None,,,,,,,,,,,,,,,,,,,,,,,,,,,,,,,,,,,38Aloud,001,2022_Sep_01_1123,ProdSingRedoBetween,2021.2.3,59.999088013902686,
14,0,14,0,,,,,,,,,,,,,,,,,,,,,,,,,,2423.222944500012,None,clean,78,15,aloud,red,2421.221038400021,None,None,2421.221038400021,None,,,,,,,,,,,,,,,,,,,,,,,,,,,,,,,,,,,38Aloud,001,2022_Sep_01_1123,ProdSingRedoBetween,2021.2.3,59.999088013902686,
15,0,15,0,,,,,,,,,,,,,,,,,,,,,,,,,,2425.742328400025,None,native,79,16,aloud,red,2423.7309872000187,None,None,2423.7309872000187,None,,,,,,,,,,,,,,,,,,,,,,,,,,,,,,,,,,,38Aloud,001,2022_Sep_01_1123,ProdSingRedoBetween,2021.2.3,59.999088013902686,
16,0,16,0,,,,,,,,,,,,,,,,,,,,,,,,,,2428.244898600009,None,suspect,11,17,aloud,yellow,2426.2455354000267,None,None,2426.2455354000267,None,,,,,,,,,,,,,,,,,,,,,,,,,,,,,,,,,,,38Aloud,001,2022_Sep_01_1123,ProdSingRedoBetween,2021.2.3,59.999088013902686,
17,0,17,0,,,,,,,,,,,,,,,,,,,,,,,,,,2430.7638246999995,None,principal,82,18,aloud,red,2428.7499823000107,None,None,2428.7499823000107,None,,,,,,,,,,,,,,,,,,,,,,,,,,,,,,,,,,,38Aloud,001,2022_Sep_01_1123,ProdSingRedoBetween,2021.2.3,59.999088013902686,
18,0,18,0,,,,,,,,,,,,,,,,,,,,,,,,,,2433.282971700013,None,escape,35,19,aloud,blue,2431.268888300023,None,None,2431.268888300023,None,,,,,,,,,,,,,,,,,,,,,,,,,,,,,,,,,,,38Aloud,001,2022_Sep_01_1123,ProdSingRedoBetween,2021.2.3,59.999088013902686,
19,0,19,0,,,,,,,,,,,,,,,,,,,,,,,,,,2435.785659300018,None,period,54,20,aloud,blue,2433.783521400008,None,None,2433.783521400008,None,,,,,,,,,,,,,,,,,,,,,,,,,,,,,,,,,,,38Aloud,001,2022_Sep_01_1123,ProdSingRedoBetween,2021.2.3,59.999088013902686,
20,0,20,0,,,,,,,,,,,,,,,,,,,,,,,,,,2438.304650700011,None,citizen,13,21,aloud,yellow,2436.292696700024,None,None,2436.292696700024,None,,,,,,,,,,,,,,,,,,,,,,,,,,,,,,,,,,,38Aloud,001,2022_Sep_01_1123,ProdSingRedoBetween,2021.2.3,59.999088013902686,
21,0,21,0,,,,,,,,,,,,,,,,,,,,,,,,,,2440.807082400017,None,command,74,22,aloud,red,2438.8077441000205,None,None,2438.8077441000205,None,,,,,,,,,,,,,,,,,,,,,,,,,,,,,,,,,,,38Aloud,001,2022_Sep_01_1123,ProdSingRedoBetween,2021.2.3,59.999088013902686,
22,0,22,0,,,,,,,,,,,,,,,,,,,,,,,,,,2443.3265245000075,None,exchange,43,23,aloud,blue,2441.313740600017,None,None,2441.313740600017,None,,,,,,,,,,,,,,,,,,,,,,,,,,,,,,,,,,,38Aloud,001,2022_Sep_01_1123,ProdSingRedoBetween,2021.2.3,59.999088013902686,
23,0,23,0,,,,,,,,,,,,,,,,,,,,,,,,,,2445.8289956000226,None,substance,51,24,aloud,blue,2443.829686800018,None,None,2443.829686800018,None,,,,,,,,,,,,,,,,,,,,,,,,,,,,,,,,,,,38Aloud,001,2022_Sep_01_1123,ProdSingRedoBetween,2021.2.3,59.999088013902686,
24,0,24,0,,,,,,,,,,,,,,,,,,,,,,,,,,2448.331477300002,None,platform,62,25,aloud,red,2446.330788100022,None,None,2446.330788100022,None,,,,,,,,,,,,,,,,,,,,,,,,,,,,,,,,,,,38Aloud,001,2022_Sep_01_1123,ProdSingRedoBetween,2021.2.3,59.999088013902686,
25,0,25,0,,,,,,,,,,,,,,,,,,,,,,,,,,2450.8505198000057,None,reading,2,26,aloud,yellow,2448.8362202999997,None,None,2448.8362202999997,None,,,,,,,,,,,,,,,,,,,,,,,,,,,,,,,,,,,38Aloud,001,2022_Sep_01_1123,ProdSingRedoBetween,2021.2.3,59.999088013902686,
26,0,26,0,,,,,,,,,,,,,,,,,,,,,,,,,,2453.36982360002,None,evidence,58,27,aloud,blue,2451.3615491000237,None,None,2451.3615491000237,None,,,,,,,,,,,,,,,,,,,,,,,,,,,,,,,,,,,38Aloud,001,2022_Sep_01_1123,ProdSingRedoBetween,2021.2.3,59.999088013902686,
27,0,27,0,,,,,,,,,,,,,,,,,,,,,,,,,,2455.8721458000073,None,minute,15,28,aloud,yellow,2453.870214800001,None,None,2453.870214800001,None,,,,,,,,,,,,,,,,,,,,,,,,,,,,,,,,,,,38Aloud,001,2022_Sep_01_1123,ProdSingRedoBetween,2021.2.3,59.999088013902686,
28,0,28,0,,,,,,,,,,,,,,,,,,,,,,,,,,2458.3748269000207,None,industry,3,29,aloud,yellow,2456.372824900027,None,None,2456.372824900027,None,,,,,,,,,,,,,,,,,,,,,,,,,,,,,,,,,,,38Aloud,001,2022_Sep_01_1123,ProdSingRedoBetween,2021.2.3,59.999088013902686,
29,0,29,0,,,,,,,,,,,,,,,,,,,,,,,,,,2460.878311700013,None,reach,17,30,aloud,yellow,2458.877384200023,None,None,2458.877384200023,None,,,,,,,,,,,,,,,,,,,,,,,,,,,,,,,,,,,38Aloud,001,2022_Sep_01_1123,ProdSingRedoBetween,2021.2.3,59.999088013902686,
30,0,30,0,,,,,,,,,,,,,,,,,,,,,,,,,,2463.3798103000154,None,trash,26,31,aloud,yellow,2461.3783301000076,None,None,2461.3783301000076,None,,,,,,,,,,,,,,,,,,,,,,,,,,,,,,,,,,,38Aloud,001,2022_Sep_01_1123,ProdSingRedoBetween,2021.2.3,59.999088013902686,
31,0,31,0,,,,,,,,,,,,,,,,,,,,,,,,,,2465.8989845000033,None,throw,31,32,aloud,blue,2463.883333900012,None,None,2463.883333900012,None,,,,,,,,,,,,,,,,,,,,,,,,,,,,,,,,,,,38Aloud,001,2022_Sep_01_1123,ProdSingRedoBetween,2021.2.3,59.999088013902686,
32,0,32,0,,,,,,,,,,,,,,,,,,,,,,,,,,2468.40138570001,None,bright,64,33,aloud,red,2466.4006203000026,None,None,2466.4006203000026,None,,,,,,,,,,,,,,,,,,,,,,,,,,,,,,,,,,,38Aloud,001,2022_Sep_01_1123,ProdSingRedoBetween,2021.2.3,59.999088013902686,
33,0,33,0,,,,,,,,,,,,,,,,,,,,,,,,,,2470.9039777000144,None,scale,86,34,aloud,red,2468.904843700002,None,None,2468.904843700002,None,,,,,,,,,,,,,,,,,,,,,,,,,,,,,,,,,,,38Aloud,001,2022_Sep_01_1123,ProdSingRedoBetween,2021.2.3,59.999088013902686,
34,0,34,0,,,,,,,,,,,,,,,,,,,,,,,,,,2473.406471400027,None,prime,49,35,aloud,blue,2471.4043524000153,None,None,2471.4043524000153,None,,,,,,,,,,,,,,,,,,,,,,,,,,,,,,,,,,,38Aloud,001,2022_Sep_01_1123,ProdSingRedoBetween,2021.2.3,59.999088013902686,
35,0,35,0,,,,,,,,,,,,,,,,,,,,,,,,,,2475.9255401000264,None,goose,47,36,aloud,blue,2473.9128325000056,None,None,2473.9128325000056,None,,,,,,,,,,,,,,,,,,,,,,,,,,,,,,,,,,,38Aloud,001,2022_Sep_01_1123,ProdSingRedoBetween,2021.2.3,59.999088013902686,
36,0,36,0,,,,,,,,,,,,,,,,,,,,,,,,,,2478.4281458000187,None,rough,10,37,aloud,yellow,2476.4259922000056,None,None,2476.4259922000056,None,,,,,,,,,,,,,,,,,,,,,,,,,,,,,,,,,,,38Aloud,001,2022_Sep_01_1123,ProdSingRedoBetween,2021.2.3,59.999088013902686,
37,0,37,0,,,,,,,,,,,,,,,,,,,,,,,,,,2480.9304146000068,None,concern,50,38,aloud,blue,2478.928780600021,None,None,2478.928780600021,None,,,,,,,,,,,,,,,,,,,,,,,,,,,,,,,,,,,38Aloud,001,2022_Sep_01_1123,ProdSingRedoBetween,2021.2.3,59.999088013902686,
38,0,38,0,,,,,,,,,,,,,,,,,,,,,,,,,,2483.4329124000215,None,damage,80,39,aloud,red,2481.4310750000004,None,None,2481.4310750000004,None,,,,,,,,,,,,,,,,,,,,,,,,,,,,,,,,,,,38Aloud,001,2022_Sep_01_1123,ProdSingRedoBetween,2021.2.3,59.999088013902686,
39,0,39,0,,,,,,,,,,,,,,,,,,,,,,,,,,2485.935440900008,None,alert,6,40,aloud,yellow,2483.9366252000036,None,None,2483.9366252000036,None,,,,,,,,,,,,,,,,,,,,,,,,,,,,,,,,,,,38Aloud,001,2022_Sep_01_1123,ProdSingRedoBetween,2021.2.3,59.999088013902686,
40,0,40,0,,,,,,,,,,,,,,,,,,,,,,,,,,2488.454936300026,None,chief,36,41,aloud,blue,2486.439342800004,None,None,2486.439342800004,None,,,,,,,,,,,,,,,,,,,,,,,,,,,,,,,,,,,38Aloud,001,2022_Sep_01_1123,ProdSingRedoBetween,2021.2.3,59.999088013902686,
41,0,41,0,,,,,,,,,,,,,,,,,,,,,,,,,,2490.9573492000054,None,military,18,42,aloud,yellow,2488.957961100008,None,None,2488.957961100008,None,,,,,,,,,,,,,,,,,,,,,,,,,,,,,,,,,,,38Aloud,001,2022_Sep_01_1123,ProdSingRedoBetween,2021.2.3,59.999088013902686,
42,0,42,0,,,,,,,,,,,,,,,,,,,,,,,,,,2493.4761706000136,None,defeat,8,43,aloud,yellow,2491.46306910002,None,None,2491.46306910002,None,,,,,,,,,,,,,,,,,,,,,,,,,,,,,,,,,,,38Aloud,001,2022_Sep_01_1123,ProdSingRedoBetween,2021.2.3,59.999088013902686,
43,0,43,0,,,,,,,,,,,,,,,,,,,,,,,,,,2495.9787335,None,theme,39,44,aloud,blue,2493.976909800025,None,None,2493.976909800025,None,,,,,,,,,,,,,,,,,,,,,,,,,,,,,,,,,,,38Aloud,001,2022_Sep_01_1123,ProdSingRedoBetween,2021.2.3,59.999088013902686,
44,0,44,0,,,,,,,,,,,,,,,,,,,,,,,,,,2498.481283400004,None,dispute,14,45,aloud,yellow,2496.4802516000054,None,None,2496.4802516000054,None,,,,,,,,,,,,,,,,,,,,,,,,,,,,,,,,,,,38Aloud,001,2022_Sep_01_1123,ProdSingRedoBetween,2021.2.3,59.999088013902686,
45,0,45,0,,,,,,,,,,,,,,,,,,,,,,,,,,2500.983862700028,None,blind,32,46,aloud,blue,2498.984454600024,None,None,2498.984454600024,None,,,,,,,,,,,,,,,,,,,,,,,,,,,,,,,,,,,38Aloud,001,2022_Sep_01_1123,ProdSingRedoBetween,2021.2.3,59.999088013902686,
46,0,46,0,,,,,,,,,,,,,,,,,,,,,,,,,,2503.4862818000256,None,novel,9,47,aloud,yellow,2501.4842563000275,None,None,2501.4842563000275,None,,,,,,,,,,,,,,,,,,,,,,,,,,,,,,,,,,,38Aloud,001,2022_Sep_01_1123,ProdSingRedoBetween,2021.2.3,59.999088013902686,
47,0,47,0,,,,,,,,,,,,,,,,,,,,,,,,,,2505.9889971000084,None,junior,65,48,aloud,red,2503.9880561000027,None,None,2503.9880561000027,None,,,,,,,,,,,,,,,,,,,,,,,,,,,,,,,,,,,38Aloud,001,2022_Sep_01_1123,ProdSingRedoBetween,2021.2.3,59.999088013902686,
48,0,48,0,,,,,,,,,,,,,,,,,,,,,,,,,,2508.491314700019,None,power,88,49,aloud,red,2506.489333400008,None,None,2506.489333400008,None,,,,,,,,,,,,,,,,,,,,,,,,,,,,,,,,,,,38Aloud,001,2022_Sep_01_1123,ProdSingRedoBetween,2021.2.3,59.999088013902686,
49,0,49,0,,,,,,,,,,,,,,,,,,,,,,,,,,2511.0106611000083,None,election,66,50,aloud,red,2508.9958795000275,None,None,2508.9958795000275,None,,,,,,,,,,,,,,,,,,,,,,,,,,,,,,,,,,,38Aloud,001,2022_Sep_01_1123,ProdSingRedoBetween,2021.2.3,59.999088013902686,
50,0,50,0,,,,,,,,,,,,,,,,,,,,,,,,,,2513.5129426000058,None,incident,23,51,aloud,yellow,2511.5130277000135,None,None,2511.5130277000135,None,,,,,,,,,,,,,,,,,,,,,,,,,,,,,,,,,,,38Aloud,001,2022_Sep_01_1123,ProdSingRedoBetween,2021.2.3,59.999088013902686,
51,0,51,0,,,,,,,,,,,,,,,,,,,,,,,,,,2516.0324041000276,None,detective,44,52,aloud,blue,2514.0234946000273,None,None,2514.0234946000273,None,,,,,,,,,,,,,,,,,,,,,,,,,,,,,,,,,,,38Aloud,001,2022_Sep_01_1123,ProdSingRedoBetween,2021.2.3,59.999088013902686,
52,0,52,0,,,,,,,,,,,,,,,,,,,,,,,,,,2518.5349432000075,None,break,40,53,aloud,blue,2516.5327797000064,None,None,2516.5327797000064,None,,,,,,,,,,,,,,,,,,,,,,,,,,,,,,,,,,,38Aloud,001,2022_Sep_01_1123,ProdSingRedoBetween,2021.2.3,59.999088013902686,
53,0,53,0,,,,,,,,,,,,,,,,,,,,,,,,,,2521.0538251000107,None,south,77,54,aloud,red,2519.0413291000004,None,None,2519.0413291000004,None,,,,,,,,,,,,,,,,,,,,,,,,,,,,,,,,,,,38Aloud,001,2022_Sep_01_1123,ProdSingRedoBetween,2021.2.3,59.999088013902686,
54,0,54,0,,,,,,,,,,,,,,,,,,,,,,,,,,2523.556375200016,None,master,56,55,aloud,blue,2521.5543408000085,None,None,2521.5543408000085,None,,,,,,,,,,,,,,,,,,,,,,,,,,,,,,,,,,,38Aloud,001,2022_Sep_01_1123,ProdSingRedoBetween,2021.2.3,59.999088013902686,
55,0,55,0,,,,,,,,,,,,,,,,,,,,,,,,,,2526.075646400015,None,under,4,56,aloud,yellow,2524.0603666000243,None,None,2524.0603666000243,None,,,,,,,,,,,,,,,,,,,,,,,,,,,,,,,,,,,38Aloud,001,2022_Sep_01_1123,ProdSingRedoBetween,2021.2.3,59.999088013902686,
56,0,56,0,,,,,,,,,,,,,,,,,,,,,,,,,,2528.5779830000247,None,author,72,57,aloud,red,2526.576116100012,None,None,2526.576116100012,None,,,,,,,,,,,,,,,,,,,,,,,,,,,,,,,,,,,38Aloud,001,2022_Sep_01_1123,ProdSingRedoBetween,2021.2.3,59.999088013902686,
57,0,57,0,,,,,,,,,,,,,,,,,,,,,,,,,,2531.0806166000257,None,order,59,58,aloud,yellow,2529.0785604000266,None,None,2529.0785604000266,None,,,,,,,,,,,,,,,,,,,,,,,,,,,,,,,,,,,38Aloud,001,2022_Sep_01_1123,ProdSingRedoBetween,2021.2.3,59.999088013902686,
58,0,58,0,,,,,,,,,,,,,,,,,,,,,,,,,,2533.599640600005,None,death,20,59,aloud,yellow,2531.5866876000073,None,None,2531.5866876000073,None,,,,,,,,,,,,,,,,,,,,,,,,,,,,,,,,,,,38Aloud,001,2022_Sep_01_1123,ProdSingRedoBetween,2021.2.3,59.999088013902686,
59,0,59,0,,,,,,,,,,,,,,,,,,,,,,,,,,2536.10230530001,None,pancakes,28,60,aloud,yellow,2534.1000121000106,None,None,2534.1000121000106,None,,,,,,,,,,,,,,,,,,,,,,,,,,,,,,,,,,,38Aloud,001,2022_Sep_01_1123,ProdSingRedoBetween,2021.2.3,59.999088013902686,
60,0,60,0,,,,,,,,,,,,,,,,,,,,,,,,,,2538.604415400012,None,pattern,42,61,aloud,blue,2536.6027145000116,None,None,2536.6027145000116,None,,,,,,,,,,,,,,,,,,,,,,,,,,,,,,,,,,,38Aloud,001,2022_Sep_01_1123,ProdSingRedoBetween,2021.2.3,59.999088013902686,
61,0,61,0,,,,,,,,,,,,,,,,,,,,,,,,,,2541.1238513000135,None,listen,33,62,aloud,blue,2539.108905900008,None,None,2539.108905900008,None,,,,,,,,,,,,,,,,,,,,,,,,,,,,,,,,,,,38Aloud,001,2022_Sep_01_1123,ProdSingRedoBetween,2021.2.3,59.999088013902686,
62,0,62,0,,,,,,,,,,,,,,,,,,,,,,,,,,2543.645114700019,None,staff,29,63,aloud,blue,2541.6313203000173,None,None,2541.6313203000173,None,,,,,,,,,,,,,,,,,,,,,,,,,,,,,,,,,,,38Aloud,001,2022_Sep_01_1123,ProdSingRedoBetween,2021.2.3,59.999088013902686,
63,0,63,0,,,,,,,,,,,,,,,,,,,,,,,,,,2546.1620977000275,None,country,55,64,aloud,blue,2544.1541162000212,None,None,2544.1541162000212,None,,,,,,,,,,,,,,,,,,,,,,,,,,,,,,,,,,,38Aloud,001,2022_Sep_01_1123,ProdSingRedoBetween,2021.2.3,59.999088013902686,
64,0,64,0,,,,,,,,,,,,,,,,,,,,,,,,,,2548.6646907000104,None,health,5,65,aloud,yellow,2546.665170100023,None,None,2546.665170100023,None,,,,,,,,,,,,,,,,,,,,,,,,,,,,,,,,,,,38Aloud,001,2022_Sep_01_1123,ProdSingRedoBetween,2021.2.3,59.999088013902686,
65,0,65,0,,,,,,,,,,,,,,,,,,,,,,,,,,2551.184067800001,None,dream,71,66,aloud,red,2549.1687505000154,None,None,2549.1687505000154,None,,,,,,,,,,,,,,,,,,,,,,,,,,,,,,,,,,,38Aloud,001,2022_Sep_01_1123,ProdSingRedoBetween,2021.2.3,59.999088013902686,
66,0,66,0,,,,,,,,,,,,,,,,,,,,,,,,,,2553.6873415000155,None,corner,83,67,aloud,red,2551.684571300022,None,None,2551.684571300022,None,,,,,,,,,,,,,,,,,,,,,,,,,,,,,,,,,,,38Aloud,001,2022_Sep_01_1123,ProdSingRedoBetween,2021.2.3,59.999088013902686,
67,0,67,0,,,,,,,,,,,,,,,,,,,,,,,,,,2556.2056506000226,None,distance,67,68,aloud,red,2554.194077400025,None,None,2554.194077400025,None,,,,,,,,,,,,,,,,,,,,,,,,,,,,,,,,,,,38Aloud,001,2022_Sep_01_1123,ProdSingRedoBetween,2021.2.3,59.999088013902686,
68,0,68,0,,,,,,,,,,,,,,,,,,,,,,,,,,2558.7249076000007,None,population,53,69,aloud,blue,2556.7112175000075,None,None,2556.7112175000075,None,,,,,,,,,,,,,,,,,,,,,,,,,,,,,,,,,,,38Aloud,001,2022_Sep_01_1123,ProdSingRedoBetween,2021.2.3,59.999088013902686,
69,0,69,0,,,,,,,,,,,,,,,,,,,,,,,,,,2561.2441035000084,None,right,57,70,aloud,blue,2559.2329727000033,None,None,2559.2329727000033,None,,,,,,,,,,,,,,,,,,,,,,,,,,,,,,,,,,,38Aloud,001,2022_Sep_01_1123,ProdSingRedoBetween,2021.2.3,59.999088013902686,
70,0,70,0,,,,,,,,,,,,,,,,,,,,,,,,,,2563.7464627000154,None,taste,38,71,aloud,blue,2561.7459371000004,None,None,2561.7459371000004,None,,,,,,,,,,,,,,,,,,,,,,,,,,,,,,,,,,,38Aloud,001,2022_Sep_01_1123,ProdSingRedoBetween,2021.2.3,59.999088013902686,
71,0,71,0,,,,,,,,,,,,,,,,,,,,,,,,,,2566.248911100003,None,tennis,70,72,aloud,red,2564.2474863000098,None,None,2564.2474863000098,None,,,,,,,,,,,,,,,,,,,,,,,,,,,,,,,,,,,38Aloud,001,2022_Sep_01_1123,ProdSingRedoBetween,2021.2.3,59.999088013902686,
72,0,72,0,,,,,,,,,,,,,,,,,,,,,,,,,,2568.7515322000254,None,season,25,73,aloud,yellow,2566.750400800025,None,None,2566.750400800025,None,,,,,,,,,,,,,,,,,,,,,,,,,,,,,,,,,,,38Aloud,001,2022_Sep_01_1123,ProdSingRedoBetween,2021.2.3,59.999088013902686,
73,0,73,0,,,,,,,,,,,,,,,,,,,,,,,,,,2571.2540533000138,None,review,37,74,aloud,blue,2569.2543866000196,None,None,2569.2543866000196,None,,,,,,,,,,,,,,,,,,,,,,,,,,,,,,,,,,,38Aloud,001,2022_Sep_01_1123,ProdSingRedoBetween,2021.2.3,59.999088013902686,
74,0,74,0,,,,,,,,,,,,,,,,,,,,,,,,,,2573.772977500019,None,employment,89,75,aloud,red,2571.7578280000016,None,None,2571.7578280000016,None,,,,,,,,,,,,,,,,,,,,,,,,,,,,,,,,,,,38Aloud,001,2022_Sep_01_1123,ProdSingRedoBetween,2021.2.3,59.999088013902686,
75,0,75,0,,,,,,,,,,,,,,,,,,,,,,,,,,2576.2757749000157,None,contract,30,76,aloud,blue,2574.2735468000174,None,None,2574.2735468000174,None,,,,,,,,,,,,,,,,,,,,,,,,,,,,,,,,,,,38Aloud,001,2022_Sep_01_1123,ProdSingRedoBetween,2021.2.3,59.999088013902686,
76,0,76,0,,,,,,,,,,,,,,,,,,,,,,,,,,2578.7949368000263,None,machinery,21,77,aloud,yellow,2576.7812793000194,None,None,2576.7812793000194,None,,,,,,,,,,,,,,,,,,,,,,,,,,,,,,,,,,,38Aloud,001,2022_Sep_01_1123,ProdSingRedoBetween,2021.2.3,59.999088013902686,
77,0,77,0,,,,,,,,,,,,,,,,,,,,,,,,,,2581.314101200027,None,second,84,78,aloud,red,2579.3003788000206,None,None,2579.3003788000206,None,,,,,,,,,,,,,,,,,,,,,,,,,,,,,,,,,,,38Aloud,001,2022_Sep_01_1123,ProdSingRedoBetween,2021.2.3,59.999088013902686,
78,0,78,0,,,,,,,,,,,,,,,,,,,,,,,,,,2583.8165045000205,None,waste,46,79,aloud,blue,2581.814599000005,None,None,2581.814599000005,None,,,,,,,,,,,,,,,,,,,,,,,,,,,,,,,,,,,38Aloud,001,2022_Sep_01_1123,ProdSingRedoBetween,2021.2.3,59.999088013902686,
79,0,79,0,,,,,,,,,,,,,,,,,,,,,,,,,,2586.3188758000033,None,interview,34,80,aloud,blue,2584.318340900005,None,None,2584.318340900005,None,,,,,,,,,,,,,,,,,,,,,,,,,,,,,,,,,,,38Aloud,001,2022_Sep_01_1123,ProdSingRedoBetween,2021.2.3,59.999088013902686,
80,0,80,0,,,,,,,,,,,,,,,,,,,,,,,,,,2588.8215719000145,None,article,1,81,aloud,yellow,2586.8225199000153,None,None,2586.8225199000153,None,,,,,,,,,,,,,,,,,,,,,,,,,,,,,,,,,,,38Aloud,001,2022_Sep_01_1123,ProdSingRedoBetween,2021.2.3,59.999088013902686,
81,0,81,0,,,,,,,,,,,,,,,,,,,,,,,,,,2591.340572300018,None,pressure,81,82,aloud,red,2589.3298092000186,None,None,2589.3298092000186,None,,,,,,,,,,,,,,,,,,,,,,,,,,,,,,,,,,,38Aloud,001,2022_Sep_01_1123,ProdSingRedoBetween,2021.2.3,59.999088013902686,
82,0,82,0,,,,,,,,,,,,,,,,,,,,,,,,,,2593.8432677000237,None,rural,60,83,aloud,red,2591.844174500002,None,None,2591.844174500002,None,,,,,,,,,,,,,,,,,,,,,,,,,,,,,,,,,,,38Aloud,001,2022_Sep_01_1123,ProdSingRedoBetween,2021.2.3,59.999088013902686,
83,0,83,0,,,,,,,,,,,,,,,,,,,,,,,,,,2596.3622430000105,None,individual,16,84,aloud,yellow,2594.3469052000146,None,None,2594.3469052000146,None,,,,,,,,,,,,,,,,,,,,,,,,,,,,,,,,,,,38Aloud,001,2022_Sep_01_1123,ProdSingRedoBetween,2021.2.3,59.999088013902686,
84,0,84,0,,,,,,,,,,,,,,,,,,,,,,,,,,2598.8647540000093,None,public,68,85,aloud,red,2596.862736900017,None,None,2596.862736900017,None,,,,,,,,,,,,,,,,,,,,,,,,,,,,,,,,,,,38Aloud,001,2022_Sep_01_1123,ProdSingRedoBetween,2021.2.3,59.999088013902686,
85,0,85,0,,,,,,,,,,,,,,,,,,,,,,,,,,2601.384109400009,None,universal,73,86,aloud,red,2599.374860000011,None,None,2599.374860000011,None,,,,,,,,,,,,,,,,,,,,,,,,,,,,,,,,,,,38Aloud,001,2022_Sep_01_1123,ProdSingRedoBetween,2021.2.3,59.999088013902686,
86,0,86,0,,,,,,,,,,,,,,,,,,,,,,,,,,2603.886667500017,None,victory,27,87,aloud,yellow,2601.88439370002,None,None,2601.88439370002,None,,,,,,,,,,,,,,,,,,,,,,,,,,,,,,,,,,,38Aloud,001,2022_Sep_01_1123,ProdSingRedoBetween,2021.2.3,59.999088013902686,
87,0,87,0,,,,,,,,,,,,,,,,,,,,,,,,,,2606.389113900019,None,drove,24,88,aloud,yellow,2604.3899974000233,None,None,2604.3899974000233,None,,,,,,,,,,,,,,,,,,,,,,,,,,,,,,,,,,,38Aloud,001,2022_Sep_01_1123,ProdSingRedoBetween,2021.2.3,59.999088013902686,
88,0,88,0,,,,,,,,,,,,,,,,,,,,,,,,,,2608.891627200006,None,nation,48,89,aloud,blue,2606.891721700027,None,None,2606.891721700027,None,,,,,,,,,,,,,,,,,,,,,,,,,,,,,,,,,,,38Aloud,001,2022_Sep_01_1123,ProdSingRedoBetween,2021.2.3,59.999088013902686,
89,0,89,0,,,,,,,,,,,,,,,,,,,,,,,,,,2611.410742100008,None,growth,61,90,aloud,red,2609.4023122000217,None,None,2609.4023122000217,None,,,,,,,,,,,,,,,,,,,,,,,,,,,,,,,,,,,38Aloud,001,2022_Sep_01_1123,ProdSingRedoBetween,2021.2.3,59.999088013902686,
,,,,,,,,,,,,,,,,,,,,,,,,,,,,,,,,,,,,,,,,,2611.911624200002,None,k,122.90177409999887,2611.911624200002,None,,,,,,,,,,,,,,,,,,,,,,,,,,,,,38Aloud,001,2022_Sep_01_1123,ProdSingRedoBetween,2021.2.3,59.999088013902686,
,,,,0,0,0,0,,,,,,,,,,,,,,,,,,,,,,2747.030128800019,None,,,,,,,,,,,,,,,,,piece,146,1,aloud,new,null,2735.339657900011,None,2735.339657900011,None,2,9.089705700025661,2735.339657900011,None,9.089705700025661,2744.465205800021,None,2744.9839273000252,None,2744.9839273000252,None,n,2.0214229999983218,2744.9839273000252,None,2.0214229999983218,,,38Aloud,001,2022_Sep_01_1123,ProdSingRedoBetween,2021.2.3,59.999088013902686,
,,,,1,0,1,0,,,,,,,,,,,,,,,,,,,,,,2752.868366700015,None,,,,,,,,,,,,,,,,,childhood,156,2,aloud,new,null,2747.5381638000254,None,2747.5381638000254,None,1,3.8671933000150602,2747.5381638000254,None,3.8671933000150602,2751.435108400008,None,2751.934202400007,None,2751.934202400007,None,n,0.9111316000053193,2751.934202400007,None,0.9111316000053193,,,38Aloud,001,2022_Sep_01_1123,ProdSingRedoBetween,2021.2.3,59.999088013902686,
,,,,2,0,2,0,,,,,,,,,,,,,,,,,,,,,,2761.864643800014,None,,,,,,,,,,,,,,,,,tennis,70,3,aloud,old,red,2753.37191430002,None,2753.37191430002,None,6,4.17726070000208,2753.37191430002,None,4.17726070000208,2757.5785389000084,None,2758.0908488999994,None,2758.0908488999994,None,r,3.7546264000120573,2758.0908488999994,None,3.7546264000120573,,,38Aloud,001,2022_Sep_01_1123,ProdSingRedoBetween,2021.2.3,59.999088013902686,
,,,,3,0,3,0,,,,,,,,,,,,,,,,,,,,,,2769.4377244000207,None,,,,,,,,,,,,,,,,,write,166,4,aloud,new,null,2762.3835005,None,2762.3835005,None,3,4.389805899991188,2762.3835005,None,4.389805899991188,2766.799003400025,None,2767.3024922000186,None,2767.3024922000186,None,f,2.11089740000898,2767.3024922000186,None,2.11089740000898,,,38Aloud,001,2022_Sep_01_1123,ProdSingRedoBetween,2021.2.3,59.999088013902686,
,,,,4,0,4,0,,,,,,,,,,,,,,,,,,,,,,2776.408430600015,None,,,,,,,,,,,,,,,,,report,96,5,aloud,new,null,2769.9520144000126,None,2769.9520144000126,None,1,4.245255399990128,2769.9520144000126,None,4.245255399990128,2774.222915500024,None,2774.7281692000106,None,2774.7281692000106,None,n,1.6530879000201821,2774.7281692000106,None,1.6530879000201821,,,38Aloud,001,2022_Sep_01_1123,ProdSingRedoBetween,2021.2.3,59.999088013902686,
,,,,5,0,5,0,,,,,,,,,,,,,,,,,,,,,,2779.7118935000035,None,,,,,,,,,,,,,,,,,conference,150,6,aloud,new,null,2776.9107970000186,None,2776.9107970000186,None,1,1.830446200008737,2776.9107970000186,None,1.830446200008737,2778.762036800006,None,2779.2676123000274,None,2779.2676123000274,None,n,0.42570639998302795,2779.2676123000274,None,0.42570639998302795,,,38Aloud,001,2022_Sep_01_1123,ProdSingRedoBetween,2021.2.3,59.999088013902686,
,,,,6,0,6,0,,,,,,,,,,,,,,,,,,,,,,2783.1845293000224,None,,,,,,,,,,,,,,,,,partner,133,7,aloud,new,null,2780.2254310999997,None,2780.2254310999997,None,1,1.8838329999998678,2780.2254310999997,None,1.8838329999998678,2782.1320501000155,None,2782.6356120000128,None,2782.6356120000128,None,n,0.5297982000047341,2782.6356120000128,None,0.5297982000047341,,,38Aloud,001,2022_Sep_01_1123,ProdSingRedoBetween,2021.2.3,59.999088013902686,
,,,,7,0,7,0,,,,,,,,,,,,,,,,,,,,,,2786.06132160002,None,,,,,,,,,,,,,,,,,direction,171,8,aloud,new,null,2783.6992479000182,None,2783.6992479000182,None,1,1.2420310000015888,2783.6992479000182,None,1.2420310000015888,2784.967047700018,None,2785.473370600026,None,2785.473370600026,None,n,0.5562731000245549,2785.473370600026,None,0.5562731000245549,,,38Aloud,001,2022_Sep_01_1123,ProdSingRedoBetween,2021.2.3,59.999088013902686,
,,,,8,0,8,0,,,,,,,,,,,,,,,,,,,,,,2792.391015400004,None,,,,,,,,,,,,,,,,,research,45,9,aloud,old,blue,2786.5752646000183,None,2786.5752646000183,None,4,4.158031800005119,2786.5752646000183,None,4.158031800005119,2790.762367700023,None,2791.2735402000253,None,2791.2735402000253,None,f,1.0996727999881841,2791.2735402000253,None,1.0996727999881841,,,38Aloud,001,2022_Sep_01_1123,ProdSingRedoBetween,2021.2.3,59.999088013902686,
,,,,9,0,9,0,,,,,,,,,,,,,,,,,,,,,,2795.7610816000088,None,,,,,,,,,,,,,,,,,hunger,148,10,aloud,new,null,2792.8998196000175,None,2792.8998196000175,None,1,1.569392900011735,2792.8998196000175,None,1.569392900011735,2794.493076500017,None,2794.9938137000136,None,2794.9938137000136,None,n,0.7475210000120569,2794.9938137000136,None,0.7475210000120569,,,38Aloud,001,2022_Sep_01_1123,ProdSingRedoBetween,2021.2.3,59.999088013902686,
,,,,10,0,10,0,,,,,,,,,,,,,,,,,,,,,,2800.1653990000195,None,,,,,,,,,,,,,,,,,country,55,11,aloud,old,blue,2796.275614300015,None,2796.275614300015,None,6,2.7376826999825425,2796.275614300015,None,2.7376826999825425,2799.031404700014,None,2799.5464221000148,None,2799.5464221000148,None,r,0.6029257999907713,2799.5464221000148,None,0.6029257999907713,,,38Aloud,001,2022_Sep_01_1123,ProdSingRedoBetween,2021.2.3,59.999088013902686,
,,,,11,0,11,0,,,,,,,,,,,,,,,,,,,,,,2805.6709186000226,None,,,,,,,,,,,,,,,,,theme,39,12,aloud,old,blue,2800.6718246000237,None,2800.6718246000237,None,2,3.4934695000119973,2800.6718246000237,None,3.4934695000119973,2804.1922378000163,None,2804.7050298000104,None,2804.7050298000104,None,n,0.9481259000021964,2804.7050298000104,None,0.9481259000021964,,,38Aloud,001,2022_Sep_01_1123,ProdSingRedoBetween,2021.2.3,59.999088013902686,
,,,,12,0,12,0,,,,,,,,,,,,,,,,,,,,,,2812.12735710002,None,,,,,,,,,,,,,,,,,exchange,43,13,aloud,old,blue,2806.180367300025,None,2806.180367300025,None,2,2.792800700000953,2806.180367300025,None,2.792800700000953,2808.991693800024,None,2809.491616000014,None,2809.491616000014,None,n,2.609512499999255,2809.491616000014,None,2.609512499999255,,,38Aloud,001,2022_Sep_01_1123,ProdSingRedoBetween,2021.2.3,59.999088013902686,
,,,,13,0,13,0,,,,,,,,,,,,,,,,,,,,,,2816.2481209000107,None,,,,,,,,,,,,,,,,,scene,144,14,aloud,new,null,2812.637440200022,None,2812.637440200022,None,1,2.407745900010923,2812.637440200022,None,2.407745900010923,2815.06552080001,None,2815.5863501000276,None,2815.5863501000276,None,n,0.6348670999868773,2815.5863501000276,None,0.6348670999868773,,,38Aloud,001,2022_Sep_01_1123,ProdSingRedoBetween,2021.2.3,59.999088013902686,
,,,,14,0,14,0,,,,,,,,,,,,,,,,,,,,,,2820.969475400023,None,,,,,,,,,,,,,,,,,debate,52,15,aloud,old,blue,2816.751710600016,None,2816.751710600016,None,6,2.9974695999990217,2816.751710600016,None,2.9974695999990217,2819.7703163000115,None,2820.293957900023,None,2820.293957900023,None,r,0.6552217999997083,2820.293957900023,None,0.6552217999997083,,,38Aloud,001,2022_Sep_01_1123,ProdSingRedoBetween,2021.2.3,59.999088013902686,
,,,,15,0,15,0,,,,,,,,,,,,,,,,,,,,,,2825.123623500025,None,,,,,,,,,,,,,,,,,employment,89,16,aloud,old,red,2821.487926600006,None,2821.487926600006,None,6,2.253388899989659,2821.487926600006,None,2.253388899989659,2823.7723753000028,None,2824.278187500022,None,2824.278187500022,None,r,0.8148555000079796,2824.278187500022,None,0.8148555000079796,,,38Aloud,001,2022_Sep_01_1123,ProdSingRedoBetween,2021.2.3,59.999088013902686,
,,,,16,0,16,0,,,,,,,,,,,,,,,,,,,,,,2830.9978320000228,None,,,,,,,,,,,,,,,,,safety,149,17,aloud,new,null,2825.6416507000104,None,2825.6416507000104,None,3,3.155511999997543,2825.6416507000104,None,3.155511999997543,2828.828474900016,None,2829.3322668000183,None,2829.3322668000183,None,f,1.6409611999988556,2829.3322668000183,None,1.6409611999988556,,,38Aloud,001,2022_Sep_01_1123,ProdSingRedoBetween,2021.2.3,59.999088013902686,
,,,,17,0,17,0,,,,,,,,,,,,,,,,,,,,,,2835.7683466000017,None,,,,,,,,,,,,,,,,,agreement,90,18,aloud,new,null,2831.5232449000177,None,2831.5232449000177,None,4,2.625843800022267,2831.5232449000177,None,2.625843800022267,2834.167111800023,None,2834.670165400021,None,2834.670165400021,None,f,1.0710132000094745,2834.670165400021,None,1.0710132000094745,,,38Aloud,001,2022_Sep_01_1123,ProdSingRedoBetween,2021.2.3,59.999088013902686,
,,,,18,0,18,0,,,,,,,,,,,,,,,,,,,,,,2842.0738730000157,None,,,,,,,,,,,,,,,,,build,158,19,aloud,new,null,2836.2699006000184,None,2836.2699006000184,None,2,4.503177800012054,2836.2699006000184,None,4.503177800012054,2840.789514700009,None,2841.2910271,None,2841.2910271,None,n,0.7541174000070896,2841.2910271,None,0.7541174000070896,,,38Aloud,001,2022_Sep_01_1123,ProdSingRedoBetween,2021.2.3,59.999088013902686,
,,,,19,0,19,0,,,,,,,,,,,,,,,,,,,,,,2844.843329000025,None,,,,,,,,,,,,,,,,,school,161,20,aloud,new,null,2842.587874900026,None,2842.587874900026,None,2,1.3451290000230074,2842.587874900026,None,1.3451290000230074,2843.9605200000224,None,2844.464020000014,None,2844.464020000014,None,n,0.35710930000641383,2844.464020000014,None,0.35710930000641383,,,38Aloud,001,2022_Sep_01_1123,ProdSingRedoBetween,2021.2.3,59.999088013902686,
,,,,20,0,20,0,,,,,,,,,,,,,,,,,,,,,,2850.2986922000127,None,,,,,,,,,,,,,,,,,staff,29,21,aloud,old,blue,2845.3508539000177,None,2845.3508539000177,None,5,2.918166099989321,2845.3508539000177,None,2.918166099989321,2848.297896200005,None,2848.7975716000074,None,2848.7975716000074,None,f,1.4795436999993399,2848.7975716000074,None,1.4795436999993399,,,38Aloud,001,2022_Sep_01_1123,ProdSingRedoBetween,2021.2.3,59.999088013902686,
,,,,21,0,21,0,,,,,,,,,,,,,,,,,,,,,,2854.653100400028,None,,,,,,,,,,,,,,,,,display,134,22,aloud,new,null,2850.8091392000206,None,2850.8091392000206,None,3,2.6359633000101894,2850.8091392000206,None,2.6359633000101894,2853.4700572,None,2853.974025100004,None,2853.974025100004,None,n,0.6550864000164438,2853.974025100004,None,0.6550864000164438,,,38Aloud,001,2022_Sep_01_1123,ProdSingRedoBetween,2021.2.3,59.999088013902686,
,,,,22,0,22,0,,,,,,,,,,,,,,,,,,,,,,2861.409835300001,None,,,,,,,,,,,,,,,,,vision,165,23,aloud,new,null,2855.1662073000043,None,2855.1662073000043,None,2,3.5910580000199843,2855.1662073000043,None,3.5910580000199843,2858.7787763000233,None,2859.301685800019,None,2859.301685800019,None,n,2.0794658999948297,2859.301685800019,None,2.0794658999948297,,,38Aloud,001,2022_Sep_01_1123,ProdSingRedoBetween,2021.2.3,59.999088013902686,
,,,,23,0,23,0,,,,,,,,,,,,,,,,,,,,,,2865.297199200024,None,,,,,,,,,,,,,,,,,review,37,24,aloud,old,blue,2861.9176074000134,None,2861.9176074000134,None,5,2.3996774000115693,2861.9176074000134,None,2.3996774000115693,2864.3511877000274,None,2864.8668839000165,None,2864.8668839000165,None,f,0.40213619999121875,2864.8668839000165,None,0.40213619999121875,,,38Aloud,001,2022_Sep_01_1123,ProdSingRedoBetween,2021.2.3,59.999088013902686,
,,,,24,0,24,0,,,,,,,,,,,,,,,,,,,,,,2871.553298200015,None,,,,,,,,,,,,,,,,,interview,34,25,aloud,old,blue,2865.8019496000197,None,2865.8019496000197,None,4,4.395006999984616,2865.8019496000197,None,4.395006999984616,2870.2213801000034,None,2870.7378589000145,None,2870.7378589000145,None,f,0.7872360999754164,2870.7378589000145,None,0.7872360999754164,,,38Aloud,001,2022_Sep_01_1123,ProdSingRedoBetween,2021.2.3,59.999088013902686,
,,,,25,0,25,0,,,,,,,,,,,,,,,,,,,,,,2878.7772775000194,None,,,,,,,,,,,,,,,,,incident,23,26,aloud,old,yellow,2872.0601717000245,None,2872.0601717000245,None,6,5.792767500010086,2872.0601717000245,None,5.792767500010086,2877.8800510000146,None,2878.3968624000263,None,2878.3968624000263,None,r,0.3601679999846965,2878.3968624000263,None,0.3601679999846965,,,38Aloud,001,2022_Sep_01_1123,ProdSingRedoBetween,2021.2.3,59.999088013902686,
,,,,26,0,26,0,,,,,,,,,,,,,,,,,,,,,,2883.1148040000116,None,,,,,,,,,,,,,,,,,spoke,147,27,aloud,new,null,2879.285353300016,None,2879.285353300016,None,1,2.487701999983983,2879.285353300016,None,2.487701999983983,2881.7970290000085,None,2882.297435800021,None,2882.297435800021,None,n,0.7956102000025567,2882.297435800021,None,0.7956102000025567,,,38Aloud,001,2022_Sep_01_1123,ProdSingRedoBetween,2021.2.3,59.999088013902686,
,,,,27,0,27,0,,,,,,,,,,,,,,,,,,,,,,2886.4348467000236,None,,,,,,,,,,,,,,,,,distance,67,28,aloud,old,red,2883.6284207999997,None,2883.6284207999997,None,4,1.9285894999920856,2883.6284207999997,None,1.9285894999920856,2885.5851685000234,None,2886.091512300016,None,2886.091512300016,None,f,0.3215452999866102,2886.091512300016,None,0.3215452999866102,,,38Aloud,001,2022_Sep_01_1123,ProdSingRedoBetween,2021.2.3,59.999088013902686,
,,,,28,0,28,0,,,,,,,,,,,,,,,,,,,,,,2891.740022700018,None,,,,,,,,,,,,,,,,,material,116,29,aloud,new,null,2886.943421200005,None,2886.943421200005,None,3,3.4134947000129614,2886.943421200005,None,3.4134947000129614,2890.3772815000266,None,2890.891206900007,None,2890.891206900007,None,f,0.8178708000050392,2890.891206900007,None,0.8178708000050392,,,38Aloud,001,2022_Sep_01_1123,ProdSingRedoBetween,2021.2.3,59.999088013902686,
,,,,29,0,29,0,,,,,,,,,,,,,,,,,,,,,,2895.16167880001,None,,,,,,,,,,,,,,,,,symbol,122,30,aloud,new,null,2892.248352000024,None,2892.248352000024,None,1,1.7647571999987122,2892.248352000024,None,1.7647571999987122,2894.0471961000003,None,2894.5613685999997,None,2894.5613685999997,None,n,0.5716294000158086,2894.5613685999997,None,0.5716294000158086,,,38Aloud,001,2022_Sep_01_1123,ProdSingRedoBetween,2021.2.3,59.999088013902686,
,,,,30,0,30,0,,,,,,,,,,,,,,,,,,,,,,2897.5627394000185,None,,,,,,,,,,,,,,,,,running,140,31,aloud,new,null,2895.660938700021,None,2895.660938700021,None,1,0.9761425000033341,2895.660938700021,None,0.9761425000033341,2896.6642928000074,None,2897.1789927000063,None,2897.1789927000063,None,n,0.3620353000005707,2897.1789927000063,None,0.3620353000005707,,,38Aloud,001,2022_Sep_01_1123,ProdSingRedoBetween,2021.2.3,59.999088013902686,
,,,,31,0,31,0,,,,,,,,,,,,,,,,,,,,,,2901.3328229000035,None,,,,,,,,,,,,,,,,,pressure,81,32,aloud,old,red,2898.0720689000154,None,2898.0720689000154,None,4,2.4929660000198055,2898.0720689000154,None,2.4929660000198055,2900.5834613000043,None,2901.0913839000277,None,2901.0913839000277,None,f,0.22566259998711757,2901.0913839000277,None,0.22566259998711757,,,38Aloud,001,2022_Sep_01_1123,ProdSingRedoBetween,2021.2.3,59.999088013902686,
,,,,32,0,32,0,,,,,,,,,,,,,,,,,,,,,,2906.0210880000086,None,,,,,,,,,,,,,,,,,second,84,33,aloud,old,red,2901.8410894000262,None,2901.8410894000262,None,5,2.995849700004328,2901.8410894000262,None,2.995849700004328,2904.8545507000235,None,2905.3538155000133,None,2905.3538155000133,None,f,0.6511712000065017,2905.3538155000133,None,0.6511712000065017,,,38Aloud,001,2022_Sep_01_1123,ProdSingRedoBetween,2021.2.3,59.999088013902686,
,,,,33,0,33,0,,,,,,,,,,,,,,,,,,,,,,2909.257658300019,None,,,,,,,,,,,,,,,,,music,177,34,aloud,new,null,2906.5279539000185,None,2906.5279539000185,None,1,1.516949700016994,2906.5279539000185,None,1.516949700016994,2908.078613300022,None,2908.593874000013,None,2908.593874000013,None,n,0.6431759000115562,2908.593874000013,None,0.6431759000115562,,,38Aloud,001,2022_Sep_01_1123,ProdSingRedoBetween,2021.2.3,59.999088013902686,
,,,,34,0,34,0,,,,,,,,,,,,,,,,,,,,,,2912.544316900021,None,,,,,,,,,,,,,,,,,close,157,35,aloud,new,null,2909.7685638000257,None,2909.7685638000257,None,1,0.8844891000189818,2909.7685638000257,None,0.8844891000189818,2910.6806854000024,None,2911.1931271000067,None,2911.1931271000067,None,n,1.3238037999835797,2911.1931271000067,None,1.3238037999835797,,,38Aloud,001,2022_Sep_01_1123,ProdSingRedoBetween,2021.2.3,59.999088013902686,
,,,,35,0,35,0,,,,,,,,,,,,,,,,,,,,,,2915.7308564000123,None,,,,,,,,,,,,,,,,,swift,94,36,aloud,new,null,2913.054723600013,None,2913.054723600013,None,1,1.2302297999849543,2913.054723600013,None,1.2302297999849543,2914.3136882000254,None,2914.8173882000265,None,2914.8173882000265,None,n,0.8916337999980897,2914.8173882000265,None,0.8916337999980897,,,38Aloud,001,2022_Sep_01_1123,ProdSingRedoBetween,2021.2.3,59.999088013902686,
,,,,36,0,36,0,,,,,,,,,,,,,,,,,,,,,,2921.770026700018,None,,,,,,,,,,,,,,,,,opening,108,37,aloud,new,null,2916.243284200027,None,2916.243284200027,None,3,3.0980014000087976,2916.243284200027,None,3.0980014000087976,2919.368625300005,None,2919.8684038000065,None,2919.8684038000065,None,f,1.8726481999910902,2919.8684038000065,None,1.8726481999910902,,,38Aloud,001,2022_Sep_01_1123,ProdSingRedoBetween,2021.2.3,59.999088013902686,
,,,,37,0,37,0,,,,,,,,,,,,,,,,,,,,,,2926.5248461000156,None,,,,,,,,,,,,,,,,,working,22,38,aloud,old,yellow,2922.2767962000216,None,2922.2767962000216,None,2,3.2721784000168554,2922.2767962000216,None,3.2721784000168554,2925.576001600013,None,2926.091384200001,None,2926.091384200001,None,n,0.4094696000101976,2926.091384200001,None,0.4094696000101976,,,38Aloud,001,2022_Sep_01_1123,ProdSingRedoBetween,2021.2.3,59.999088013902686,
,,,,38,0,38,0,,,,,,,,,,,,,,,,,,,,,,2931.42985450002,None,,,,,,,,,,,,,,,,,frank,98,39,aloud,new,null,2927.0365703999996,None,2927.0365703999996,None,1,3.4563778000010643,2927.0365703999996,None,3.4563778000010643,2930.5139143000124,None,2931.031423700013,None,2931.031423700013,None,n,0.37351040000794455,2931.031423700013,None,0.37351040000794455,,,38Aloud,001,2022_Sep_01_1123,ProdSingRedoBetween,2021.2.3,59.999088013902686,
,,,,39,0,39,0,,,,,,,,,,,,,,,,,,,,,,2934.332561600022,None,,,,,,,,,,,,,,,,,sleep,119,40,aloud,new,null,2931.9360699000244,None,2931.9360699000244,None,1,1.4128564999846276,2931.9360699000244,None,1.4128564999846276,2933.373394800001,None,2933.883477400028,None,2933.883477400028,None,n,0.42547270000795834,2933.883477400028,None,0.42547270000795834,,,38Aloud,001,2022_Sep_01_1123,ProdSingRedoBetween,2021.2.3,59.999088013902686,
,,,,40,0,40,0,,,,,,,,,,,,,,,,,,,,,,2937.95281420002,None,,,,,,,,,,,,,,,,,power,88,41,aloud,old,red,2934.8437535000267,None,2934.8437535000267,None,6,1.8571703000052366,2934.8437535000267,None,1.8571703000052366,2936.7198705000046,None,2937.222693400021,None,2937.222693400021,None,r,0.710139499977231,2937.222693400021,None,0.710139499977231,,,38Aloud,001,2022_Sep_01_1123,ProdSingRedoBetween,2021.2.3,59.999088013902686,
,,,,41,0,41,0,,,,,,,,,,,,,,,,,,,,,,2944.292598400003,None,,,,,,,,,,,,,,,,,health,5,42,aloud,old,yellow,2938.4596200000087,None,2938.4596200000087,None,4,3.1852393000153825,2938.4596200000087,None,3.1852393000153825,2941.6848265000153,None,2942.194208800007,None,2942.194208800007,None,f,2.0826484999852255,2942.194208800007,None,2.0826484999852255,,,38Aloud,001,2022_Sep_01_1123,ProdSingRedoBetween,2021.2.3,59.999088013902686,
,,,,42,0,42,0,,,,,,,,,,,,,,,,,,,,,,2947.5792082000116,None,,,,,,,,,,,,,,,,,primary,178,43,aloud,new,null,2944.8022660000133,None,2944.8022660000133,None,1,1.6107717999839224,2944.8022660000133,None,1.6107717999839224,2946.4280204000243,None,2946.9343767000246,None,2946.9343767000246,None,n,0.6224641999870073,2946.9343767000246,None,0.6224641999870073,,,38Aloud,001,2022_Sep_01_1123,ProdSingRedoBetween,2021.2.3,59.999088013902686,
,,,,43,0,43,0,,,,,,,,,,,,,,,,,,,,,,2951.3163748000225,None,,,,,,,,,,,,,,,,,waste,46,44,aloud,old,blue,2948.086177900026,None,2948.086177900026,None,6,1.7587646000029054,2948.086177900026,None,1.7587646000029054,2949.8660081000126,None,2950.3701376000245,None,2950.3701376000245,None,r,0.9149107999983244,2950.3701376000245,None,0.9149107999983244,,,38Aloud,001,2022_Sep_01_1123,ProdSingRedoBetween,2021.2.3,59.999088013902686,
,,,,44,0,44,0,,,,,,,,,,,,,,,,,,,,,,2957.8563969000243,None,,,,,,,,,,,,,,,,,individual,16,45,aloud,old,yellow,2951.825184800022,None,2951.825184800022,None,5,4.723743899987312,2951.825184800022,None,4.723743899987312,2956.573790400027,None,2957.091739800002,None,2957.091739800002,None,f,0.7370791000139434,2957.091739800002,None,0.7370791000139434,,,38Aloud,001,2022_Sep_01_1123,ProdSingRedoBetween,2021.2.3,59.999088013902686,
,,,,45,0,45,0,,,,,,,,,,,,,,,,,,,,,,2962.419642200024,None,,,,,,,,,,,,,,,,,reach,17,46,aloud,old,yellow,2958.358156800008,None,2958.358156800008,None,3,2.5748375999974087,2958.358156800008,None,2.5748375999974087,2960.9610119000135,None,2961.4780494000006,None,2961.4780494000006,None,n,0.9111979000153951,2961.4780494000006,None,0.9111979000153951,,,38Aloud,001,2022_Sep_01_1123,ProdSingRedoBetween,2021.2.3,59.999088013902686,
,,,,46,0,46,0,,,,,,,,,,,,,,,,,,,,,,2968.4165136000083,None,,,,,,,,,,,,,,,,,drama,69,47,aloud,old,red,2962.9365879000106,None,2962.9365879000106,None,2,3.2843466000049375,2962.9365879000106,None,3.2843466000049375,2966.250830300007,None,2966.765111100016,None,2966.765111100016,None,n,1.623850499978289,2966.765111100016,None,1.623850499978289,,,38Aloud,001,2022_Sep_01_1123,ProdSingRedoBetween,2021.2.3,59.999088013902686,
,,,,47,0,47,0,,,,,,,,,,,,,,,,,,,,,,2971.069219200028,None,,,,,,,,,,,,,,,,,crime,115,48,aloud,new,null,2968.920055000024,None,2968.920055000024,None,1,1.1648635000165086,2968.920055000024,None,1.1648635000165086,2970.102177300025,None,2970.6062492000055,None,2970.6062492000055,None,n,0.43868819999624975,2970.6062492000055,None,0.43868819999624975,,,38Aloud,001,2022_Sep_01_1123,ProdSingRedoBetween,2021.2.3,59.999088013902686,
,,,,48,0,48,0,,,,,,,,,,,,,,,,,,,,,,2974.5729128000094,None,,,,,,,,,,,,,,,,,turkey,131,49,aloud,new,null,2971.5909673999995,None,2971.5909673999995,None,1,2.150180700002238,2971.5909673999995,None,2.150180700002238,2973.780476200016,None,2974.289227900008,None,2974.289227900008,None,n,0.2596583999984432,2974.289227900008,None,0.2596583999984432,,,38Aloud,001,2022_Sep_01_1123,ProdSingRedoBetween,2021.2.3,59.999088013902686,
,,,,49,0,49,0,,,,,,,,,,,,,,,,,,,,,,2978.6435211000207,None,,,,,,,,,,,,,,,,,universal,73,50,aloud,old,red,2975.0800512999995,None,2975.0800512999995,None,5,2.30887619999703,2975.0800512999995,None,2.30887619999703,2977.417646600021,None,2977.9262898000015,None,2977.9262898000015,None,f,0.6866070999822114,2977.9262898000015,None,0.6866070999822114,,,38Aloud,001,2022_Sep_01_1123,ProdSingRedoBetween,2021.2.3,59.999088013902686,
,,,,50,0,50,0,,,,,,,,,,,,,,,,,,,,,,2982.4805313000106,None,,,,,,,,,,,,,,,,,oxygen,169,51,aloud,new,null,2979.150149400026,None,2979.150149400026,None,1,2.2627336000150535,2979.150149400026,None,2.2627336000150535,2981.430686500011,None,2981.9330139000085,None,2981.9330139000085,None,n,0.527867700002389,2981.9330139000085,None,0.527867700002389,,,38Aloud,001,2022_Sep_01_1123,ProdSingRedoBetween,2021.2.3,59.999088013902686,
,,,,51,0,51,0,,,,,,,,,,,,,,,,,,,,,,3000.666886400024,None,,,,,,,,,,,,,,,,,cousin,175,52,aloud,new,null,2982.9901738000044,None,2982.9901738000044,None,1,1.406696300022304,2982.9901738000044,None,1.406696300022304,2984.4175675000006,None,2984.9945241000096,None,2984.9945241000096,None,n,15.6503143000009,2984.9945241000096,None,15.6503143000009,,,38Aloud,001,2022_Sep_01_1123,ProdSingRedoBetween,2021.2.3,59.999088013902686,
,,,,52,0,52,0,,,,,,,,,,,,,,,,,,,,,,3006.5558943000215,None,,,,,,,,,,,,,,,,,death,20,53,aloud,old,yellow,3001.1755773000186,None,3001.1755773000186,None,2,4.245200399978785,3001.1755773000186,None,4.245200399978785,3005.438167000015,None,3005.9426198000147,None,3005.9426198000147,None,n,0.5822588999872096,3005.9426198000147,None,0.5822588999872096,,,38Aloud,001,2022_Sep_01_1123,ProdSingRedoBetween,2021.2.3,59.999088013902686,
,,,,53,0,53,0,,,,,,,,,,,,,,,,,,,,,,3009.5421385000227,None,,,,,,,,,,,,,,,,,under,4,54,aloud,old,yellow,3007.060772500001,None,3007.060772500001,None,1,1.2560712000122294,3007.060772500001,None,1.2560712000122294,3008.340983000002,None,3008.846779000014,None,3008.846779000014,None,n,0.6701157999923453,3008.846779000014,None,0.6701157999923453,,,38Aloud,001,2022_Sep_01_1123,ProdSingRedoBetween,2021.2.3,59.999088013902686,
,,,,54,0,54,0,,,,,,,,,,,,,,,,,,,,,,3012.6120184000174,None,,,,,,,,,,,,,,,,,murder,105,55,aloud,new,null,3010.042747200001,None,3010.042747200001,None,1,1.5460848000075202,3010.042747200001,None,1.5460848000075202,3011.612139500008,None,3012.1143283000274,None,3012.1143283000274,None,n,0.47453600002336316,3012.1143283000274,None,0.47453600002336316,,,38Aloud,001,2022_Sep_01_1123,ProdSingRedoBetween,2021.2.3,59.999088013902686,
,,,,55,0,55,0,,,,,,,,,,,,,,,,,,,,,,3017.6502329000214,None,,,,,,,,,,,,,,,,,evidence,58,56,aloud,old,blue,3013.112519300019,None,3013.112519300019,None,3,3.0042209000093862,3013.112519300019,None,3.0042209000093862,3016.1337701000157,None,3016.6496604999993,None,3016.6496604999993,None,f,0.9711899000103585,3016.6496604999993,None,0.9711899000103585,,,38Aloud,001,2022_Sep_01_1123,ProdSingRedoBetween,2021.2.3,59.999088013902686,
,,,,56,0,56,0,,,,,,,,,,,,,,,,,,,,,,3025.5416463,None,,,,,,,,,,,,,,,,,figure,109,57,aloud,new,null,3018.1617064000166,None,3018.1617064000166,None,2,5.963113799982239,3018.1617064000166,None,5.963113799982239,3024.1432911000156,None,3024.658625000011,None,3024.658625000011,None,n,0.8581807999871671,3024.658625000011,None,0.8581807999871671,,,38Aloud,001,2022_Sep_01_1123,ProdSingRedoBetween,2021.2.3,59.999088013902686,
,,,,57,0,57,0,,,,,,,,,,,,,,,,,,,,,,3029.3953342000023,None,,,,,,,,,,,,,,,,,detective,44,58,aloud,old,blue,3026.0453371000185,None,3026.0453371000185,None,3,2.023368099995423,3026.0453371000185,None,2.023368099995423,3028.0995770000154,None,3028.611348400009,None,3028.611348400009,None,n,0.7535222000151407,3028.611348400009,None,0.7535222000151407,,,38Aloud,001,2022_Sep_01_1123,ProdSingRedoBetween,2021.2.3,59.999088013902686,
,,,,58,0,58,0,,,,,,,,,,,,,,,,,,,,,,3033.7162558000127,None,,,,,,,,,,,,,,,,,disease,127,59,aloud,new,null,3029.906972500001,None,3029.906972500001,None,1,2.9138283999927808,3029.906972500001,None,2.9138283999927808,3032.8506903000234,None,3033.366034900013,None,3033.366034900013,None,n,0.3266693000041414,3033.366034900013,None,0.3266693000041414,,,38Aloud,001,2022_Sep_01_1123,ProdSingRedoBetween,2021.2.3,59.999088013902686,
,,,,59,0,59,0,,,,,,,,,,,,,,,,,,,,,,3038.387645700015,None,,,,,,,,,,,,,,,,,right,57,60,aloud,old,blue,3034.2296630000055,None,3034.2296630000055,None,1,3.0230723999848124,3034.2296630000055,None,3.0230723999848124,3037.2712642000115,None,3037.7748801000125,None,3037.7748801000125,None,n,0.5979386000253726,3037.7748801000125,None,0.5979386000253726,,,38Aloud,001,2022_Sep_01_1123,ProdSingRedoBetween,2021.2.3,59.999088013902686,
,,,,60,0,60,0,,,,,,,,,,,,,,,,,,,,,,3040.4399003,None,,,,,,,,,,,,,,,,,bright,64,61,aloud,old,red,3038.893777600024,None,3038.893777600024,None,1,0.9269422000215854,3038.893777600024,None,0.9269422000215854,3039.840248600027,None,3040.339874200028,None,3040.339874200028,None,n,0.07286499999463558,3040.339874200028,None,0.07286499999463558,,,38Aloud,001,2022_Sep_01_1123,ProdSingRedoBetween,2021.2.3,59.999088013902686,
,,,,61,0,61,0,,,,,,,,,,,,,,,,,,,,,,3046.8126379000023,None,,,,,,,,,,,,,,,,,blind,32,62,aloud,old,blue,3040.949219300004,None,3040.949219300004,None,3,4.903473099984694,3040.949219300004,None,4.903473099984694,3045.8802393000224,None,3046.3958034000243,None,3046.3958034000243,None,n,0.39295470001525246,3046.3958034000243,None,0.39295470001525246,,,38Aloud,001,2022_Sep_01_1123,ProdSingRedoBetween,2021.2.3,59.999088013902686,
,,,,62,0,62,0,,,,,,,,,,,,,,,,,,,,,,3052.668757800013,None,,,,,,,,,,,,,,,,,government,153,63,aloud,new,null,3047.3134424000164,None,3047.3134424000164,None,2,3.299340600002324,3047.3134424000164,None,3.299340600002324,3050.6346264000167,None,3051.1403957,None,3051.1403957,None,n,1.5122718999919016,3051.1403957,None,1.5122718999919016,,,38Aloud,001,2022_Sep_01_1123,ProdSingRedoBetween,2021.2.3,59.999088013902686,
,,,,63,0,63,0,,,,,,,,,,,,,,,,,,,,,,3057.2229936000076,None,,,,,,,,,,,,,,,,,heavy,91,64,aloud,new,null,3053.1769633000076,None,3053.1769633000076,None,2,2.4197497999994084,3053.1769633000076,None,2.4197497999994084,3055.621711600019,None,3056.1221586000174,None,3056.1221586000174,None,n,1.0825008999963757,3056.1221586000174,None,1.0825008999963757,,,38Aloud,001,2022_Sep_01_1123,ProdSingRedoBetween,2021.2.3,59.999088013902686,
,,,,64,0,64,0,,,,,,,,,,,,,,,,,,,,,,3060.7098672000284,None,,,,,,,,,,,,,,,,,concern,50,65,aloud,old,blue,3057.725095600006,None,3057.725095600006,None,4,2.167661899991799,3057.725095600006,None,2.167661899991799,3059.9102363000275,None,3060.4112004000053,None,3060.4112004000053,None,f,0.28151059997617267,3060.4112004000053,None,0.28151059997617267,,,38Aloud,001,2022_Sep_01_1123,ProdSingRedoBetween,2021.2.3,59.999088013902686,
,,,,65,0,65,0,,,,,,,,,,,,,,,,,,,,,,3064.5638564000255,None,,,,,,,,,,,,,,,,,signal,87,66,aloud,old,red,3061.213640400005,None,3061.213640400005,None,4,2.5350860999897122,3061.213640400005,None,2.5350860999897122,3063.783741400024,None,3064.29861290002,None,3064.29861290002,None,f,0.23417289997451007,3064.29861290002,None,0.23417289997451007,,,38Aloud,001,2022_Sep_01_1123,ProdSingRedoBetween,2021.2.3,59.999088013902686,
,,,,66,0,66,0,,,,,,,,,,,,,,,,,,,,,,3068.734713300015,None,,,,,,,,,,,,,,,,,brief,75,67,aloud,old,red,3065.0696093000006,None,3065.0696093000006,None,5,2.767130799998995,3065.0696093000006,None,2.767130799998995,3067.866828600003,None,3068.372485700005,None,3068.372485700005,None,f,0.3441709000035189,3068.372485700005,None,0.3441709000035189,,,38Aloud,001,2022_Sep_01_1123,ProdSingRedoBetween,2021.2.3,59.999088013902686,
,,,,67,0,67,0,,,,,,,,,,,,,,,,,,,,,,3075.2245882000134,None,,,,,,,,,,,,,,,,,measure,112,68,aloud,new,null,3069.2520672000246,None,3069.2520672000246,None,4,4.5767296999983955,3069.2520672000246,None,4.5767296999983955,3073.86386100002,None,3074.381274000014,None,3074.381274000014,None,f,0.823502000013832,3074.381274000014,None,0.823502000013832,,,38Aloud,001,2022_Sep_01_1123,ProdSingRedoBetween,2021.2.3,59.999088013902686,
,,,,68,0,68,0,,,,,,,,,,,,,,,,,,,,,,3078.6779630000237,None,,,,,,,,,,,,,,,,,rural,60,69,aloud,old,red,3075.726381000015,None,3075.726381000015,None,6,1.7664798999903724,3075.726381000015,None,1.7664798999903724,3077.5100210000237,None,3078.012751100003,None,3078.012751100003,None,r,0.6479158999864012,3078.012751100003,None,0.6479158999864012,,,38Aloud,001,2022_Sep_01_1123,ProdSingRedoBetween,2021.2.3,59.999088013902686,
,,,,69,0,69,0,,,,,,,,,,,,,,,,,,,,,,3083.1156628000026,None,,,,,,,,,,,,,,,,,position,102,70,aloud,new,null,3079.187791900011,None,3079.187791900011,None,2,2.5849269999889657,3079.187791900011,None,2.5849269999889657,3081.7990745000134,None,3082.2981352000206,None,3082.2981352000206,None,n,0.786477300018305,3082.2981352000206,None,0.786477300018305,,,38Aloud,001,2022_Sep_01_1123,ProdSingRedoBetween,2021.2.3,59.999088013902686,
,,,,70,0,70,0,,,,,,,,,,,,,,,,,,,,,,3086.118551100022,None,,,,,,,,,,,,,,,,,trail,173,71,aloud,new,null,3083.6218813000014,None,3083.6218813000014,None,1,1.5749267999781296,3083.6218813000014,None,1.5749267999781296,3085.223480400018,None,3085.7349789,None,3085.7349789,None,n,0.3656557999784127,3085.7349789,None,0.3656557999784127,,,38Aloud,001,2022_Sep_01_1123,ProdSingRedoBetween,2021.2.3,59.999088013902686,
,,,,71,0,71,0,,,,,,,,,,,,,,,,,,,,,,3089.7554601000156,None,,,,,,,,,,,,,,,,,public,68,72,aloud,old,red,3086.621451700019,None,3086.621451700019,None,4,2.5432099999743514,3086.621451700019,None,2.5432099999743514,3089.1897500000196,None,3089.6895051000174,None,3089.6895051000174,None,f,0.0511652999848593,3089.6895051000174,None,0.0511652999848593,,,38Aloud,001,2022_Sep_01_1123,ProdSingRedoBetween,2021.2.3,59.999088013902686,
,,,,72,0,72,0,,,,,,,,,,,,,,,,,,,,,,3094.026448800025,None,,,,,,,,,,,,,,,,,atmosphere,12,73,aloud,old,yellow,3090.26708390002,None,3090.26708390002,None,6,2.2895308999868575,3090.26708390002,None,2.2895308999868575,3092.575172200013,None,3093.077607000014,None,3093.077607000014,None,r,0.9270488999900408,3093.077607000014,None,0.9270488999900408,,,38Aloud,001,2022_Sep_01_1123,ProdSingRedoBetween,2021.2.3,59.999088013902686,
,,,,73,0,73,0,,,,,,,,,,,,,,,,,,,,,,3097.613374800014,None,,,,,,,,,,,,,,,,,degree,152,74,aloud,new,null,3094.5343427000043,None,3094.5343427000043,None,3,2.1424510000215378,3094.5343427000043,None,2.1424510000215378,3096.7011383000063,None,3097.213075000007,None,3097.213075000007,None,f,0.37572159999399446,3097.213075000007,None,0.37572159999399446,,,38Aloud,001,2022_Sep_01_1123,ProdSingRedoBetween,2021.2.3,59.999088013902686,
,,,,74,0,74,0,,,,,,,,,,,,,,,,,,,,,,3103.0353709000046,None,,,,,,,,,,,,,,,,,master,56,75,aloud,old,blue,3098.1161457000126,None,3098.1161457000126,None,2,4.056544599996414,3098.1161457000126,None,4.056544599996414,3102.2026211000048,None,3102.709936200001,None,3102.709936200001,None,n,0.3027609999990091,3102.709936200001,None,0.3027609999990091,,,38Aloud,001,2022_Sep_01_1123,ProdSingRedoBetween,2021.2.3,59.999088013902686,
,,,,75,0,75,0,,,,,,,,,,,,,,,,,,,,,,3105.7741416000063,None,,,,,,,,,,,,,,,,,bitter,128,76,aloud,new,null,3103.5460495000007,None,3103.5460495000007,None,1,1.354691799991997,3103.5460495000007,None,1.354691799991997,3104.924135600013,None,3105.438064900023,None,3105.438064900023,None,n,0.3187770999793429,3105.438064900023,None,0.3187770999793429,,,38Aloud,001,2022_Sep_01_1123,ProdSingRedoBetween,2021.2.3,59.999088013902686,
,,,,76,0,76,0,,,,,,,,,,,,,,,,,,,,,,3111.2435939999996,None,,,,,,,,,,,,,,,,,thing,151,77,aloud,new,null,3106.289190100011,None,3106.289190100011,None,3,3.8114334999991115,3106.289190100011,None,3.8114334999991115,3110.1271215000015,None,3110.6315901000053,None,3110.6315901000053,None,f,0.5971092999971006,3110.6315901000053,None,0.5971092999971006,,,38Aloud,001,2022_Sep_01_1123,ProdSingRedoBetween,2021.2.3,59.999088013902686,
,,,,77,0,77,0,,,,,,,,,,,,,,,,,,,,,,3116.565573400003,None,,,,,,,,,,,,,,,,,corner,83,78,aloud,old,red,3111.7565323000017,None,3111.7565323000017,None,2,3.280220200016629,3111.7565323000017,None,3.280220200016629,3115.0672208000033,None,3115.581449500023,None,3115.581449500023,None,n,0.9592146000068169,3115.581449500023,None,0.9592146000068169,,,38Aloud,001,2022_Sep_01_1123,ProdSingRedoBetween,2021.2.3,59.999088013902686,
,,,,78,0,78,0,,,,,,,,,,,,,,,,,,,,,,3124.907217,None,,,,,,,,,,,,,,,,,dream,71,79,aloud,old,red,3117.072471500025,None,3117.072471500025,None,4,6.252401799982181,3117.072471500025,None,6.252401799982181,3123.3617850000155,None,3123.8730227000196,None,3123.8730227000196,None,f,1.003597200004151,3123.8730227000196,None,1.003597200004151,,,38Aloud,001,2022_Sep_01_1123,ProdSingRedoBetween,2021.2.3,59.999088013902686,
,,,,79,0,79,0,,,,,,,,,,,,,,,,,,,,,,3128.5275241000054,None,,,,,,,,,,,,,,,,,household,111,80,aloud,new,null,3125.4086274,None,3125.4086274,None,1,1.8360319999919739,3125.4086274,None,1.8360319999919739,3127.2614615000202,None,3127.7800378000247,None,3127.7800378000247,None,n,0.7288639000034891,3127.7800378000247,None,0.7288639000034891,,,38Aloud,001,2022_Sep_01_1123,ProdSingRedoBetween,2021.2.3,59.999088013902686,
,,,,80,0,80,0,,,,,,,,,,,,,,,,,,,,,,3133.6185492000077,None,,,,,,,,,,,,,,,,,grade,143,81,aloud,new,null,3129.0282192000013,None,3129.0282192000013,None,2,3.2723669999977574,3129.0282192000013,None,3.2723669999977574,3132.331643600017,None,3132.8354055000236,None,3132.8354055000236,None,n,0.7533649999822956,3132.8354055000236,None,0.7533649999822956,,,38Aloud,001,2022_Sep_01_1123,ProdSingRedoBetween,2021.2.3,59.999088013902686,
,,,,81,0,81,0,,,,,,,,,,,,,,,,,,,,,,3137.3864453000133,None,,,,,,,,,,,,,,,,,suspect,11,82,aloud,old,yellow,3134.138771100028,None,3134.138771100028,None,6,1.7538425000093412,3134.138771100028,None,1.7538425000093412,3135.9198390000092,None,3136.423617100023,None,3136.423617100023,None,r,0.9409958999895025,3136.423617100023,None,0.9409958999895025,,,38Aloud,001,2022_Sep_01_1123,ProdSingRedoBetween,2021.2.3,59.999088013902686,
,,,,82,0,82,0,,,,,,,,,,,,,,,,,,,,,,3140.472604600014,None,,,,,,,,,,,,,,,,,pancakes,28,83,aloud,old,yellow,3137.889773600007,None,3137.889773600007,None,6,1.3548403999884613,3137.889773600007,None,1.3548403999884613,3139.277899400011,None,3139.7958713000116,None,3139.7958713000116,None,r,0.6487369000096805,3139.7958713000116,None,0.6487369000096805,,,38Aloud,001,2022_Sep_01_1123,ProdSingRedoBetween,2021.2.3,59.999088013902686,
,,,,83,0,83,0,,,,,,,,,,,,,,,,,,,,,,3145.6446039,None,,,,,,,,,,,,,,,,,junior,65,84,aloud,old,red,3140.981845900009,None,3140.981845900009,None,4,2.4387417000252753,3140.981845900009,None,2.4387417000252753,3143.4441145000164,None,3143.959560200019,None,3143.959560200019,None,f,1.6689700999995694,3143.959560200019,None,1.6689700999995694,,,38Aloud,001,2022_Sep_01_1123,ProdSingRedoBetween,2021.2.3,59.999088013902686,
,,,,84,0,84,0,,,,,,,,,,,,,,,,,,,,,,3149.2482453000266,None,,,,,,,,,,,,,,,,,minor,7,85,aloud,old,yellow,3146.1517636000062,None,3146.1517636000062,None,6,1.5567121999920346,3146.1517636000062,None,1.5567121999920346,3147.7346579000005,None,3148.2471896000206,None,3148.2471896000206,None,r,0.9733497000124771,3148.2471896000206,None,0.9733497000124771,,,38Aloud,001,2022_Sep_01_1123,ProdSingRedoBetween,2021.2.3,59.999088013902686,
,,,,85,0,85,0,,,,,,,,,,,,,,,,,,,,,,3152.6869974000147,None,,,,,,,,,,,,,,,,,throw,31,86,aloud,old,blue,3149.7523479000083,None,3149.7523479000083,None,1,1.2041801000013947,3149.7523479000083,None,1.2041801000013947,3150.9845423000224,None,3151.487061300024,None,3151.487061300024,None,n,1.1815795000002254,3151.487061300024,None,1.1815795000002254,,,38Aloud,001,2022_Sep_01_1123,ProdSingRedoBetween,2021.2.3,59.999088013902686,
,,,,86,0,86,0,,,,,,,,,,,,,,,,,,,,,,3155.554627400008,None,,,,,,,,,,,,,,,,,victory,27,87,aloud,old,yellow,3153.2094962000265,None,3153.2094962000265,None,1,1.1791158999840263,3153.2094962000265,None,1.1791158999840263,3154.4054588,None,3154.920728100027,None,3154.920728100027,None,n,0.6118222000077367,3154.920728100027,None,0.6118222000077367,,,38Aloud,001,2022_Sep_01_1123,ProdSingRedoBetween,2021.2.3,59.999088013902686,
,,,,87,0,87,0,,,,,,,,,,,,,,,,,,,,,,3161.2101328000135,None,,,,,,,,,,,,,,,,,damage,80,88,aloud,old,red,3156.0614698000136,None,3156.0614698000136,None,4,2.447018399980152,3156.0614698000136,None,2.447018399980152,3158.524173300015,None,3159.029355000006,None,3159.029355000006,None,f,2.159178100002464,3159.029355000006,None,2.159178100002464,,,38Aloud,001,2022_Sep_01_1123,ProdSingRedoBetween,2021.2.3,59.999088013902686,
,,,,88,0,88,0,,,,,,,,,,,,,,,,,,,,,,3164.1631935000187,None,,,,,,,,,,,,,,,,,addition,114,89,aloud,new,null,3161.7136720000126,None,3161.7136720000126,None,1,1.018967199983308,3161.7136720000126,None,1.018967199983308,3162.7617030000256,None,3163.2623499000038,None,3163.2623499000038,None,n,0.8784100000048056,3163.2623499000038,None,0.8784100000048056,,,38Aloud,001,2022_Sep_01_1123,ProdSingRedoBetween,2021.2.3,59.999088013902686,
,,,,89,0,89,0,,,,,,,,,,,,,,,,,,,,,,3168.450668900012,None,,,,,,,,,,,,,,,,,orchestra,0,90,aloud,old,yellow,3164.6751214000105,None,3164.6751214000105,None,6,2.177358799992362,3164.6751214000105,None,2.177358799992362,3166.882759500004,None,3167.388984600024,None,3167.388984600024,None,r,1.031529200001387,3167.388984600024,None,1.031529200001387,,,38Aloud,001,2022_Sep_01_1123,ProdSingRedoBetween,2021.2.3,59.999088013902686,
,,,,90,0,90,0,,,,,,,,,,,,,,,,,,,,,,3174.5901741000125,None,,,,,,,,,,,,,,,,,department,154,91,aloud,new,null,3168.9680812000006,None,3168.9680812000006,None,2,4.388424600008875,3168.9680812000006,None,4.388424600008875,3173.37361770001,None,3173.879034600017,None,3173.879034600017,None,n,0.6934269999910612,3173.879034600017,None,0.6934269999910612,,,38Aloud,001,2022_Sep_01_1123,ProdSingRedoBetween,2021.2.3,59.999088013902686,
,,,,91,0,91,0,,,,,,,,,,,,,,,,,,,,,,3177.380367000005,None,,,,,,,,,,,,,,,,,medicine,97,92,aloud,new,null,3175.0982768000104,None,3175.0982768000104,None,2,1.330164800019702,3175.0982768000104,None,1.330164800019702,3176.4608995000017,None,3176.976300200011,None,3176.976300200011,None,n,0.3801205000199843,3176.976300200011,None,0.3801205000199843,,,38Aloud,001,2022_Sep_01_1123,ProdSingRedoBetween,2021.2.3,59.999088013902686,
,,,,92,0,92,0,,,,,,,,,,,,,,,,,,,,,,3181.1468013000267,None,,,,,,,,,,,,,,,,,weight,63,93,aloud,old,red,3177.8944143000117,None,3177.8944143000117,None,2,2.406122399988817,3177.8944143000117,None,2.406122399988817,3180.330636300001,None,3180.834597100009,None,3180.834597100009,None,n,0.2899461000051815,3180.834597100009,None,0.2899461000051815,,,38Aloud,001,2022_Sep_01_1123,ProdSingRedoBetween,2021.2.3,59.999088013902686,
,,,,93,0,93,0,,,,,,,,,,,,,,,,,,,,,,3184.0202509000083,None,,,,,,,,,,,,,,,,,colonel,167,94,aloud,new,null,3181.658745600027,None,3181.658745600027,None,1,1.4257645000179764,3181.658745600027,None,1.4257645000179764,3183.120861400006,None,3183.6326021999994,None,3183.6326021999994,None,n,0.35599790001288056,3183.6326021999994,None,0.35599790001288056,,,38Aloud,001,2022_Sep_01_1123,ProdSingRedoBetween,2021.2.3,59.999088013902686,
,,,,94,0,94,0,,,,,,,,,,,,,,,,,,,,,,3186.7187025000167,None,,,,,,,,,,,,,,,,,captain,170,95,aloud,new,null,3184.541536100005,None,3184.541536100005,None,1,1.2070192999963183,3184.541536100005,None,1.2070192999963183,3185.771991800022,None,3186.2881313000107,None,3186.2881313000107,None,n,0.40429030000814237,3186.2881313000107,None,0.40429030000814237,,,38Aloud,001,2022_Sep_01_1123,ProdSingRedoBetween,2021.2.3,59.999088013902686,
,,,,95,0,95,0,,,,,,,,,,,,,,,,,,,,,,3189.957303000003,None,,,,,,,,,,,,,,,,,broad,101,96,aloud,new,null,3187.2215600000054,None,3187.2215600000054,None,4,2.062882099999115,3187.2215600000054,None,2.062882099999115,3189.307825900003,None,3189.823148400028,None,3189.823148400028,None,f,0.10159399997792207,3189.823148400028,None,0.10159399997792207,,,38Aloud,001,2022_Sep_01_1123,ProdSingRedoBetween,2021.2.3,59.999088013902686,
,,,,96,0,96,0,,,,,,,,,,,,,,,,,,,,,,3192.874997200008,None,,,,,,,,,,,,,,,,,scale,86,97,aloud,old,red,3190.4774999000074,None,3190.4774999000074,None,2,1.1509092000196688,3190.4774999000074,None,1.1509092000196688,3191.664105600008,None,3192.1785197000136,None,3192.1785197000136,None,n,0.665960799989989,3192.1785197000136,None,0.665960799989989,,,38Aloud,001,2022_Sep_01_1123,ProdSingRedoBetween,2021.2.3,59.999088013902686,
,,,,97,0,97,0,,,,,,,,,,,,,,,,,,,,,,3195.9616830000014,None,,,,,,,,,,,,,,,,,institute,118,98,aloud,new,null,3193.3847930000047,None,3193.3847930000047,None,1,1.3879407999920659,3193.3847930000047,None,1.3879407999920659,3194.7949267000076,None,3195.2980245000217,None,3195.2980245000217,None,n,0.6343671000213362,3195.2980245000217,None,0.6343671000213362,,,38Aloud,001,2022_Sep_01_1123,ProdSingRedoBetween,2021.2.3,59.999088013902686,
,,,,98,0,98,0,,,,,,,,,,,,,,,,,,,,,,3200.249062500021,None,,,,,,,,,,,,,,,,,impact,107,99,aloud,new,null,3196.463469200011,None,3196.463469200011,None,2,2.6212462999974377,3196.463469200011,None,2.6212462999974377,3199.1161511000246,None,3199.6203008000157,None,3199.6203008000157,None,n,0.6002534000144806,3199.6203008000157,None,0.6002534000144806,,,38Aloud,001,2022_Sep_01_1123,ProdSingRedoBetween,2021.2.3,59.999088013902686,
,,,,99,0,99,0,,,,,,,,,,,,,,,,,,,,,,3208.273579700006,None,,,,,,,,,,,,,,,,,style,164,100,aloud,new,null,3200.753037000017,None,3200.753037000017,None,4,5.035554300004151,3200.753037000017,None,5.035554300004151,3205.810220400017,None,3206.3296318000066,None,3206.3296318000066,None,f,1.9147155999962706,3206.3296318000066,None,1.9147155999962706,,,38Aloud,001,2022_Sep_01_1123,ProdSingRedoBetween,2021.2.3,59.999088013902686,
,,,,100,0,100,0,,,,,,,,,,,,,,,,,,,,,,3211.6630422000017,None,,,,,,,,,,,,,,,,,nation,48,101,aloud,old,blue,3208.7876410000026,None,3208.7876410000026,None,2,2.2008218000119086,3208.7876410000026,None,2.2008218000119086,3211.012886200013,None,3211.5343990000256,None,3211.5343990000256,None,n,0.11001440000836737,3211.5343990000256,None,0.11001440000836737,,,38Aloud,001,2022_Sep_01_1123,ProdSingRedoBetween,2021.2.3,59.999088013902686,
,,,,101,0,101,0,,,,,,,,,,,,,,,,,,,,,,3215.4141710000113,None,,,,,,,,,,,,,,,,,guest,19,102,aloud,old,yellow,3212.182465700025,None,3212.182465700025,None,2,1.5339835000049789,3212.182465700025,None,1.5339835000049789,3213.747518100019,None,3214.2512358000095,None,3214.2512358000095,None,n,1.1451975000090897,3214.2512358000095,None,1.1451975000090897,,,38Aloud,001,2022_Sep_01_1123,ProdSingRedoBetween,2021.2.3,59.999088013902686,
,,,,102,0,102,0,,,,,,,,,,,,,,,,,,,,,,3218.2186350000266,None,,,,,,,,,,,,,,,,,reading,2,103,aloud,old,yellow,3215.922771900019,None,3215.922771900019,None,4,1.6336962999776006,3215.922771900019,None,1.6336962999776006,3217.5857426000002,None,3218.1003035000176,None,3218.1003035000176,None,f,0.09636649998719804,3218.1003035000176,None,0.09636649998719804,,,38Aloud,001,2022_Sep_01_1123,ProdSingRedoBetween,2021.2.3,59.999088013902686,
,,,,103,0,103,0,,,,,,,,,,,,,,,,,,,,,,3222.7216128,None,,,,,,,,,,,,,,,,,profession,172,104,aloud,new,null,3218.7414413000224,None,3218.7414413000224,None,2,3.119051200017566,3218.7414413000224,None,3.119051200017566,3221.888675800001,None,3222.394555000006,None,3222.394555000006,None,n,0.3058508000103757,3222.394555000006,None,0.3058508000103757,,,38Aloud,001,2022_Sep_01_1123,ProdSingRedoBetween,2021.2.3,59.999088013902686,
,,,,104,0,104,0,,,,,,,,,,,,,,,,,,,,,,3226.275011400023,None,,,,,,,,,,,,,,,,,taste,38,105,aloud,old,blue,3223.2292246000143,None,3223.2292246000143,None,6,1.367278300022008,3223.2292246000143,None,1.367278300022008,3224.631082900014,None,3225.152241500007,None,3225.152241500007,None,r,1.10028610000154,3225.152241500007,None,1.10028610000154,,,38Aloud,001,2022_Sep_01_1123,ProdSingRedoBetween,2021.2.3,59.999088013902686,
,,,,105,0,105,0,,,,,,,,,,,,,,,,,,,,,,3231.8639925000025,None,,,,,,,,,,,,,,,,,charter,142,106,aloud,new,null,3226.776522400003,None,3226.776522400003,None,1,2.1719077000161633,3226.776522400003,None,2.1719077000161633,3228.9784253000107,None,3229.481135500013,None,3229.481135500013,None,n,2.3633273000014015,3229.481135500013,None,2.3633273000014015,,,38Aloud,001,2022_Sep_01_1123,ProdSingRedoBetween,2021.2.3,59.999088013902686,
,,,,106,0,106,0,,,,,,,,,,,,,,,,,,,,,,3235.8345964000036,None,,,,,,,,,,,,,,,,,gesture,176,107,aloud,new,null,3232.3679978,None,3232.3679978,None,2,2.7325732999888714,3232.3679978,None,2.7325732999888714,3235.1210312000185,None,3235.6345285999996,None,3235.6345285999996,None,n,0.1699285999929998,3235.6345285999996,None,0.1699285999929998,,,38Aloud,001,2022_Sep_01_1123,ProdSingRedoBetween,2021.2.3,59.999088013902686,
,,,,107,0,107,0,,,,,,,,,,,,,,,,,,,,,,3239.555111500027,None,,,,,,,,,,,,,,,,,instrument,100,108,aloud,new,null,3236.3415945000015,None,3236.3415945000015,None,3,1.8547432000050321,3236.3415945000015,None,1.8547432000050321,3238.2260338000196,None,3238.743988800008,None,3238.743988800008,None,f,0.7884438000037335,3238.743988800008,None,0.7884438000037335,,,38Aloud,001,2022_Sep_01_1123,ProdSingRedoBetween,2021.2.3,59.999088013902686,
,,,,108,0,108,0,,,,,,,,,,,,,,,,,,,,,,3243.992659700016,None,,,,,,,,,,,,,,,,,prime,49,109,aloud,old,blue,3240.0654106000147,None,3240.0654106000147,None,2,2.962877899990417,3240.0654106000147,None,2.962877899990417,3243.0640629000263,None,3243.5756943000015,None,3243.5756943000015,None,n,0.3887780000222847,3243.5756943000015,None,0.3887780000222847,,,38Aloud,001,2022_Sep_01_1123,ProdSingRedoBetween,2021.2.3,59.999088013902686,
,,,,109,0,109,0,,,,,,,,,,,,,,,,,,,,,,3247.4296268000035,None,,,,,,,,,,,,,,,,,search,125,110,aloud,new,null,3244.4991281000257,None,3244.4991281000257,None,4,1.9372634000028484,3244.4991281000257,None,1.9372634000028484,3246.4634151000064,None,3246.965615400026,None,3246.965615400026,None,f,0.4388121000083629,3246.965615400026,None,0.4388121000083629,,,38Aloud,001,2022_Sep_01_1123,ProdSingRedoBetween,2021.2.3,59.999088013902686,
,,,,110,0,110,0,,,,,,,,,,,,,,,,,,,,,,3250.5660059000074,None,,,,,,,,,,,,,,,,,chief,36,111,aloud,old,blue,3247.9319185000204,None,3247.9319185000204,None,4,1.4484357000037562,3247.9319185000204,None,1.4484357000037562,3249.4009224000038,None,3249.915381300001,None,3249.915381300001,None,f,0.6249898999813013,3249.915381300001,None,0.6249898999813013,,,38Aloud,001,2022_Sep_01_1123,ProdSingRedoBetween,2021.2.3,59.999088013902686,
,,,,111,0,111,0,,,,,,,,,,,,,,,,,,,,,,3253.98713720002,None,,,,,,,,,,,,,,,,,expansion,168,112,aloud,new,null,3251.0795361000055,None,3251.0795361000055,None,1,2.1888027999957558,3251.0795361000055,None,2.1888027999957558,3253.2870748000278,None,3253.8027645000257,None,3253.8027645000257,None,n,0.15383269998710603,3253.8027645000257,None,0.15383269998710603,,,38Aloud,001,2022_Sep_01_1123,ProdSingRedoBetween,2021.2.3,59.999088013902686,
,,,,112,0,112,0,,,,,,,,,,,,,,,,,,,,,,3258.607160000014,None,,,,,,,,,,,,,,,,,listen,33,113,aloud,old,blue,3254.48983570002,None,3254.48983570002,None,6,2.7306887000158895,3254.48983570002,None,2.7306887000158895,3257.2411532000115,None,3257.7599526000267,None,3257.7599526000267,None,r,0.8203794000146445,3257.7599526000267,None,0.8203794000146445,,,38Aloud,001,2022_Sep_01_1123,ProdSingRedoBetween,2021.2.3,59.999088013902686,
,,,,113,0,113,0,,,,,,,,,,,,,,,,,,,,,,3262.8281506000203,None,,,,,,,,,,,,,,,,,plane,85,114,aloud,old,red,3259.1145501000283,None,3259.1145501000283,None,2,2.8738733000063803,3259.1145501000283,None,2.8738733000063803,3262.010897100001,None,3262.5191267000046,None,3262.5191267000046,None,n,0.2930847999814432,3262.5191267000046,None,0.2930847999814432,,,38Aloud,001,2022_Sep_01_1123,ProdSingRedoBetween,2021.2.3,59.999088013902686,
,,,,114,0,114,0,,,,,,,,,,,,,,,,,,,,,,3265.9506814000197,None,,,,,,,,,,,,,,,,,minute,15,115,aloud,old,yellow,3263.344616700022,None,3263.344616700022,None,3,1.7557658000150695,3263.344616700022,None,1.7557658000150695,3265.131237100024,None,3265.635446600005,None,3265.635446600005,None,n,0.289039800001774,3265.635446600005,None,0.289039800001774,,,38Aloud,001,2022_Sep_01_1123,ProdSingRedoBetween,2021.2.3,59.999088013902686,
,,,,115,0,115,0,,,,,,,,,,,,,,,,,,,,,,3274.3396702000173,None,,,,,,,,,,,,,,,,,region,141,116,aloud,new,null,3266.4695046000124,None,3266.4695046000124,None,2,6.646844500006409,3266.4695046000124,None,6.646844500006409,3273.1388798000116,None,3273.6444563000114,None,3273.6444563000114,None,n,0.671864200005075,3273.6444563000114,None,0.671864200005075,,,38Aloud,001,2022_Sep_01_1123,ProdSingRedoBetween,2021.2.3,59.999088013902686,
,,,,116,0,116,0,,,,,,,,,,,,,,,,,,,,,,3278.343523700023,None,,,,,,,,,,,,,,,,,rough,10,117,aloud,old,yellow,3274.8444971000135,None,3274.8444971000135,None,5,2.311961600003997,3274.8444971000135,None,2.311961600003997,3277.1807074000244,None,3277.6931209000177,None,3277.6931209000177,None,f,0.6231321000086609,3277.6931209000177,None,0.6231321000086609,,,38Aloud,001,2022_Sep_01_1123,ProdSingRedoBetween,2021.2.3,59.999088013902686,
,,,,117,0,117,0,,,,,,,,,,,,,,,,,,,,,,3281.9304770000163,None,,,,,,,,,,,,,,,,,contract,30,118,aloud,old,blue,3278.8502392000228,None,3278.8502392000228,None,6,1.9940037000051234,3278.8502392000228,None,1.9940037000051234,3280.864306800009,None,3281.3634412000247,None,3281.3634412000247,None,r,0.5448876000009477,3281.3634412000247,None,0.5448876000009477,,,38Aloud,001,2022_Sep_01_1123,ProdSingRedoBetween,2021.2.3,59.999088013902686,
,,,,118,0,118,0,,,,,,,,,,,,,,,,,,,,,,3285.600862900028,None,,,,,,,,,,,,,,,,,substance,51,119,aloud,old,blue,3282.4330698000267,None,3282.4330698000267,None,4,1.8912753000040539,3282.4330698000267,None,1.8912753000040539,3284.351187100023,None,3284.8502517000015,None,3284.8502517000015,None,f,0.7220901999971829,3284.8502517000015,None,0.7220901999971829,,,38Aloud,001,2022_Sep_01_1123,ProdSingRedoBetween,2021.2.3,59.999088013902686,
,,,,119,0,119,0,,,,,,,,,,,,,,,,,,,,,,3290.9895674000145,None,,,,,,,,,,,,,,,,,course,130,120,aloud,new,null,3286.101354000013,None,3286.101354000013,None,2,3.407156000001123,3286.101354000013,None,3.407156000001123,3289.5421216000104,None,3290.055326200003,None,3290.055326200003,None,n,0.909020999999484,3290.055326200003,None,0.909020999999484,,,38Aloud,001,2022_Sep_01_1123,ProdSingRedoBetween,2021.2.3,59.999088013902686,
,,,,120,0,120,0,,,,,,,,,,,,,,,,,,,,,,3293.761757500004,None,,,,,,,,,,,,,,,,,principal,82,121,aloud,old,red,3291.493698700011,None,3291.493698700011,None,6,1.3910171999887098,3291.493698700011,None,1.3910171999887098,3292.9098496000224,None,3293.4250716000097,None,3293.4250716000097,None,r,0.31517760001588613,3293.4250716000097,None,0.31517760001588613,,,38Aloud,001,2022_Sep_01_1123,ProdSingRedoBetween,2021.2.3,59.999088013902686,
,,,,121,0,121,0,,,,,,,,,,,,,,,,,,,,,,3297.0455543000135,None,,,,,,,,,,,,,,,,,platform,62,122,aloud,old,red,3294.2823324000055,None,3294.2823324000055,None,6,2.1140599999926053,3294.2823324000055,None,2.1140599999926053,3296.4193789000274,None,3296.934468500025,None,3296.934468500025,None,r,0.0858695000060834,3296.934468500025,None,0.0858695000060834,,,38Aloud,001,2022_Sep_01_1123,ProdSingRedoBetween,2021.2.3,59.999088013902686,
,,,,122,0,122,0,,,,,,,,,,,,,,,,,,,,,,3300.2088670000085,None,,,,,,,,,,,,,,,,,produce,120,123,aloud,new,null,3297.5491092000157,None,3297.5491092000157,None,4,2.08721319999313,3297.5491092000157,None,2.08721319999313,3299.6660589000094,None,3300.173130400013,None,3300.173130400013,None,f,0.015412899985676631,3300.173130400013,None,0.015412899985676631,,,38Aloud,001,2022_Sep_01_1123,ProdSingRedoBetween,2021.2.3,59.999088013902686,
,,,,123,0,123,0,,,,,,,,,,,,,,,,,,,,,,3307.122403300018,None,,,,,,,,,,,,,,,,,order,59,124,aloud,old,yellow,3300.71653580002,None,3300.71653580002,None,3,5.703682999999728,3300.71653580002,None,5.703682999999728,3306.4394010000105,None,3306.9427563000063,None,3306.9427563000063,None,f,0.15752040001098067,3306.9427563000063,None,0.15752040001098067,,,38Aloud,001,2022_Sep_01_1123,ProdSingRedoBetween,2021.2.3,59.999088013902686,
,,,,124,0,124,0,,,,,,,,,,,,,,,,,,,,,,3310.4755269000016,None,,,,,,,,,,,,,,,,,marriage,113,125,aloud,new,null,3307.6245728000067,None,3307.6245728000067,None,2,2.099890899989987,3307.6245728000067,None,2.099890899989987,3309.7414657000045,None,3310.2422469000157,None,3310.2422469000157,None,n,0.2180313999997452,3310.2422469000157,None,0.2180313999997452,,,38Aloud,001,2022_Sep_01_1123,ProdSingRedoBetween,2021.2.3,59.999088013902686,
,,,,125,0,125,0,,,,,,,,,,,,,,,,,,,,,,3314.796603500028,None,,,,,,,,,,,,,,,,,tough,179,126,aloud,new,null,3310.9779372000194,None,3310.9779372000194,None,5,2.8342941000009887,3310.9779372000194,None,2.8342941000009887,3313.8289189000207,None,3314.3324080000166,None,3314.3324080000166,None,f,0.439915299997665,3314.3324080000166,None,0.439915299997665,,,38Aloud,001,2022_Sep_01_1123,ProdSingRedoBetween,2021.2.3,59.999088013902686,
,,,,126,0,126,0,,,,,,,,,,,,,,,,,,,,,,3319.6347401000094,None,,,,,,,,,,,,,,,,,equipment,123,127,aloud,new,null,3315.3260413000244,None,3315.3260413000244,None,1,3.254279900022084,3315.3260413000244,None,3.254279900022084,3318.6086371000274,None,3319.1198909000086,None,3319.1198909000086,None,n,0.49235690000932664,3319.1198909000086,None,0.49235690000932664,,,38Aloud,001,2022_Sep_01_1123,ProdSingRedoBetween,2021.2.3,59.999088013902686,
,,,,127,0,127,0,,,,,,,,,,,,,,,,,,,,,,3323.525056400016,None,,,,,,,,,,,,,,,,,crowd,103,128,aloud,new,null,3320.1478147000016,None,3320.1478147000016,None,2,2.7844843000057153,3320.1478147000016,None,2.7844843000057153,3322.9581213000056,None,3323.475230800017,None,3323.475230800017,None,n,0.02516230000765063,3323.475230800017,None,0.02516230000765063,,,38Aloud,001,2022_Sep_01_1123,ProdSingRedoBetween,2021.2.3,59.999088013902686,
,,,,128,0,128,0,,,,,,,,,,,,,,,,,,,,,,3326.678711400018,None,,,,,,,,,,,,,,,,,article,1,129,aloud,old,yellow,3324.0392713000183,None,3324.0392713000183,None,4,1.628982799971709,3324.0392713000183,None,1.628982799971709,3325.6918821000145,None,3326.1953263000178,None,3326.1953263000178,None,f,0.44895580000593327,3326.1953263000178,None,0.44895580000593327,,,38Aloud,001,2022_Sep_01_1123,ProdSingRedoBetween,2021.2.3,59.999088013902686,
,,,,129,0,129,0,,,,,,,,,,,,,,,,,,,,,,3330.946024500008,None,,,,,,,,,,,,,,,,,number,163,130,aloud,new,null,3327.2012254,None,3327.2012254,None,2,1.3472722000151407,3327.2012254,None,1.3472722000151407,3328.5815285000135,None,3329.095461900026,None,3329.095461900026,None,n,1.820815399987623,3329.095461900026,None,1.820815399987623,,,38Aloud,001,2022_Sep_01_1123,ProdSingRedoBetween,2021.2.3,59.999088013902686,
,,,,130,0,130,0,,,,,,,,,,,,,,,,,,,,,,3335.1170148000238,None,,,,,,,,,,,,,,,,,population,53,131,aloud,old,blue,3331.4497066000185,None,3331.4497066000185,None,5,2.490400700015016,3331.4497066000185,None,2.490400700015016,3333.96619560002,None,3334.475150000013,None,3334.475150000013,None,f,0.6251568000006955,3334.475150000013,None,0.6251568000006955,,,38Aloud,001,2022_Sep_01_1123,ProdSingRedoBetween,2021.2.3,59.999088013902686,
,,,,131,0,131,0,,,,,,,,,,,,,,,,,,,,,,3340.4387943000183,None,,,,,,,,,,,,,,,,,silence,93,132,aloud,new,null,3335.6236013000016,None,3335.6236013000016,None,3,2.8525949000031687,3335.6236013000016,None,2.8525949000031687,3338.505564400024,None,3339.0244993000233,None,3339.0244993000233,None,f,1.3877621999999974,3339.0244993000233,None,1.3877621999999974,,,38Aloud,001,2022_Sep_01_1123,ProdSingRedoBetween,2021.2.3,59.999088013902686,
,,,,132,0,132,0,,,,,,,,,,,,,,,,,,,,,,3343.52517790001,None,,,,,,,,,,,,,,,,,color,121,133,aloud,new,null,3340.9454581000027,None,3340.9454581000027,None,2,1.522743100009393,3340.9454581000027,None,1.522743100009393,3342.4908863000164,None,3342.996423500008,None,3342.996423500008,None,n,0.503831900015939,3342.996423500008,None,0.503831900015939,,,38Aloud,001,2022_Sep_01_1123,ProdSingRedoBetween,2021.2.3,59.999088013902686,
,,,,133,0,133,0,,,,,,,,,,,,,,,,,,,,,,3347.8965258000244,None,,,,,,,,,,,,,,,,,break,40,134,aloud,old,blue,3344.033348100027,None,3344.033348100027,None,6,2.4109073000145145,3344.033348100027,None,2.4109073000145145,3346.467243900028,None,3346.978880700015,None,3346.978880700015,None,r,0.8971955000015441,3346.978880700015,None,0.8971955000015441,,,38Aloud,001,2022_Sep_01_1123,ProdSingRedoBetween,2021.2.3,59.999088013902686,
,,,,134,0,134,0,,,,,,,,,,,,,,,,,,,,,,3353.3183137000015,None,,,,,,,,,,,,,,,,,clean,78,135,aloud,old,red,3348.401188500022,None,3348.401188500022,None,3,3.371102899982361,3348.401188500022,None,3.371102899982361,3351.8057959,None,3352.323661100003,None,3352.323661100003,None,f,0.9686128000030294,3352.323661100003,None,0.9686128000030294,,,38Aloud,001,2022_Sep_01_1123,ProdSingRedoBetween,2021.2.3,59.999088013902686,
,,,,135,0,135,0,,,,,,,,,,,,,,,,,,,,,,3356.4249991000106,None,,,,,,,,,,,,,,,,,generation,135,136,aloud,new,null,3353.8221220000123,None,3353.8221220000123,None,2,1.8621938000142109,3353.8221220000123,None,1.8621938000142109,3355.7039882000245,None,3356.2085104,None,3356.2085104,None,n,0.1877636999997776,3356.2085104,None,0.1877636999997776,,,38Aloud,001,2022_Sep_01_1123,ProdSingRedoBetween,2021.2.3,59.999088013902686,
,,,,136,0,136,0,,,,,,,,,,,,,,,,,,,,,,3359.5578253000276,None,,,,,,,,,,,,,,,,,dispute,14,137,aloud,old,yellow,3356.942097900028,None,3356.942097900028,None,6,1.8061064000066835,3356.942097900028,None,1.8061064000066835,3358.775378200022,None,3359.2744801000226,None,3359.2744801000226,None,r,0.2575563999998849,3359.2744801000226,None,0.2575563999998849,,,38Aloud,001,2022_Sep_01_1123,ProdSingRedoBetween,2021.2.3,59.999088013902686,
,,,,137,0,137,0,,,,,,,,,,,,,,,,,,,,,,3362.6777679000224,None,,,,,,,,,,,,,,,,,pattern,42,138,aloud,old,blue,3360.0587828000134,None,3360.0587828000134,None,5,1.857360800000606,3360.0587828000134,None,1.857360800000606,3361.9489063000074,None,3362.4646706000203,None,3362.4646706000203,None,f,0.18749700000626035,3362.4646706000203,None,0.18749700000626035,,,38Aloud,001,2022_Sep_01_1123,ProdSingRedoBetween,2021.2.3,59.999088013902686,
,,,,138,0,138,0,,,,,,,,,,,,,,,,,,,,,,3366.231172800006,None,,,,,,,,,,,,,,,,,court,92,139,aloud,new,null,3363.1839514000167,None,3363.1839514000167,None,1,2.268244999984745,3363.1839514000167,None,2.268244999984745,3365.4804957000015,None,3365.9836462000094,None,3365.9836462000094,None,n,0.22045320001780055,3365.9836462000094,None,0.22045320001780055,,,38Aloud,001,2022_Sep_01_1123,ProdSingRedoBetween,2021.2.3,59.999088013902686,
,,,,139,0,139,0,,,,,,,,,,,,,,,,,,,,,,3369.3676789000165,None,,,,,,,,,,,,,,,,,defeat,8,140,aloud,old,yellow,3366.7412427000236,None,3366.7412427000236,None,4,1.7110934000229463,3366.7412427000236,None,1.7110934000229463,3368.4849780000222,None,3368.9908565000223,None,3368.9908565000223,None,f,0.3493093000142835,3368.9908565000223,None,0.3493093000142835,,,38Aloud,001,2022_Sep_01_1123,ProdSingRedoBetween,2021.2.3,59.999088013902686,
,,,,140,0,140,0,,,,,,,,,,,,,,,,,,,,,,3373.6898436000047,None,,,,,,,,,,,,,,,,,suggestion,95,141,aloud,new,null,3369.8735309000185,None,3369.8735309000185,None,1,1.5146296999882907,3369.8735309000185,None,1.5146296999882907,3371.405274700024,None,3371.9209355000057,None,3371.9209355000057,None,n,1.739320399996359,3371.9209355000057,None,1.739320399996359,,,38Aloud,001,2022_Sep_01_1123,ProdSingRedoBetween,2021.2.3,59.999088013902686,
,,,,141,0,141,0,,,,,,,,,,,,,,,,,,,,,,3377.0113794000063,None,,,,,,,,,,,,,,,,,dozen,145,142,aloud,new,null,3374.1933104000054,None,3374.1933104000054,None,1,1.9628457000071649,3374.1933104000054,None,1.9628457000071649,3376.176021000021,None,3376.6920284000225,None,3376.6920284000225,None,n,0.29617839999264106,3376.6920284000225,None,0.29617839999264106,,,38Aloud,001,2022_Sep_01_1123,ProdSingRedoBetween,2021.2.3,59.999088013902686,
,,,,142,0,142,0,,,,,,,,,,,,,,,,,,,,,,3380.6457416000194,None,,,,,,,,,,,,,,,,,drove,24,143,aloud,old,yellow,3377.5329372000124,None,3377.5329372000124,None,2,2.2791685999836773,3377.5329372000124,None,2.2791685999836773,3379.8292733000126,None,3380.3315480000165,None,3380.3315480000165,None,n,0.2965676999883726,3380.3315480000165,None,0.2965676999883726,,,38Aloud,001,2022_Sep_01_1123,ProdSingRedoBetween,2021.2.3,59.999088013902686,
,,,,143,0,143,0,,,,,,,,,,,,,,,,,,,,,,3385.100055100018,None,,,,,,,,,,,,,,,,,machinery,21,144,aloud,old,yellow,3381.1568214000145,None,3381.1568214000145,None,2,2.5513403000077233,3381.1568214000145,None,2.5513403000077233,3383.733487700025,None,3384.239242300013,None,3384.239242300013,None,n,0.8369266999943648,3384.239242300013,None,0.8369266999943648,,,38Aloud,001,2022_Sep_01_1123,ProdSingRedoBetween,2021.2.3,59.999088013902686,
,,,,144,0,144,0,,,,,,,,,,,,,,,,,,,,,,3389.0538243000046,None,,,,,,,,,,,,,,,,,command,74,145,aloud,old,red,3385.6099923000147,None,3385.6099923000147,None,4,2.346034599991981,3385.6099923000147,None,2.346034599991981,3387.990716100001,None,3388.503663500014,None,3388.503663500014,None,f,0.5324123000027612,3388.503663500014,None,0.5324123000027612,,,38Aloud,001,2022_Sep_01_1123,ProdSingRedoBetween,2021.2.3,59.999088013902686,
,,,,145,0,145,0,,,,,,,,,,,,,,,,,,,,,,3392.3239109000133,None,,,,,,,,,,,,,,,,,personnel,106,146,aloud,new,null,3389.5681686000025,None,3389.5681686000025,None,3,1.9878881000040565,3389.5681686000025,None,1.9878881000040565,3391.5749221000005,None,3392.0755477000203,None,3392.0755477000203,None,f,0.22474889998557046,3392.0755477000203,None,0.22474889998557046,,,38Aloud,001,2022_Sep_01_1123,ProdSingRedoBetween,2021.2.3,59.999088013902686,
,,,,146,0,146,0,,,,,,,,,,,,,,,,,,,,,,3396.4446961000212,None,,,,,,,,,,,,,,,,,citizen,13,147,aloud,old,yellow,3392.8329970000195,None,3392.8329970000195,None,5,2.763140099996235,3392.8329970000195,None,2.763140099996235,3395.628920600022,None,3396.1336735000077,None,3396.1336735000077,None,f,0.29439860000275075,3396.1336735000077,None,0.29439860000275075,,,38Aloud,001,2022_Sep_01_1123,ProdSingRedoBetween,2021.2.3,59.999088013902686,
,,,,147,0,147,0,,,,,,,,,,,,,,,,,,,,,,3400.8823601000186,None,,,,,,,,,,,,,,,,,speech,139,148,aloud,new,null,3396.9473602000216,None,3396.9473602000216,None,2,2.976754000002984,3396.9473602000216,None,2.976754000002984,3399.9497527000203,None,3400.453727300017,None,3400.453727300017,None,n,0.4064236999838613,3400.453727300017,None,0.4064236999838613,,,38Aloud,001,2022_Sep_01_1123,ProdSingRedoBetween,2021.2.3,59.999088013902686,
,,,,148,0,148,0,,,,,,,,,,,,,,,,,,,,,,3406.521352700016,None,,,,,,,,,,,,,,,,,entrance,136,149,aloud,new,null,3401.396209300001,None,3401.396209300001,None,5,4.479872399999294,3401.396209300001,None,4.479872399999294,3405.9049658000004,None,3406.410973900027,None,3406.410973900027,None,f,0.08913509998819791,3406.410973900027,None,0.08913509998819791,,,38Aloud,001,2022_Sep_01_1123,ProdSingRedoBetween,2021.2.3,59.999088013902686,
,,,,149,0,149,0,,,,,,,,,,,,,,,,,,,,,,3409.5912140000146,None,,,,,,,,,,,,,,,,,literature,174,150,aloud,new,null,3407.026177300024,None,3407.026177300024,None,2,1.8018985000089742,3407.026177300024,None,1.8018985000089742,3408.857805000007,None,3409.360836800013,None,3409.360836800013,None,n,0.20324350000009872,3409.360836800013,None,0.20324350000009872,,,38Aloud,001,2022_Sep_01_1123,ProdSingRedoBetween,2021.2.3,59.999088013902686,
,,,,150,0,150,0,,,,,,,,,,,,,,,,,,,,,,3413.9787888000137,None,,,,,,,,,,,,,,,,,account,155,151,aloud,new,null,3410.0977180000045,None,3410.0977180000045,None,5,3.210410600004252,3410.0977180000045,None,3.210410600004252,3413.3313584999996,None,3413.845659600018,None,3413.845659600018,None,f,0.10235599998850375,3413.845659600018,None,0.10235599998850375,,,38Aloud,001,2022_Sep_01_1123,ProdSingRedoBetween,2021.2.3,59.999088013902686,
,,,,151,0,151,0,,,,,,,,,,,,,,,,,,,,,,3418.9672262000095,None,,,,,,,,,,,,,,,,,trash,26,152,aloud,old,yellow,3414.4875651000184,None,3414.4875651000184,None,5,3.372410599986324,3414.4875651000184,None,3.372410599986324,3417.8838511000213,None,3418.3901717000117,None,3418.3901717000117,None,f,0.5497988999995869,3418.3901717000117,None,0.5497988999995869,,,38Aloud,001,2022_Sep_01_1123,ProdSingRedoBetween,2021.2.3,59.999088013902686,
,,,,152,0,152,0,,,,,,,,,,,,,,,,,,,,,,3422.8710138000024,None,,,,,,,,,,,,,,,,,alert,6,153,aloud,old,yellow,3419.4688973000157,None,3419.4688973000157,None,4,2.455270100006601,3419.4688973000157,None,2.455270100006601,3421.9533225000196,None,3422.4574988000095,None,3422.4574988000095,None,f,0.3945555999816861,3422.4574988000095,None,0.3945555999816861,,,38Aloud,001,2022_Sep_01_1123,ProdSingRedoBetween,2021.2.3,59.999088013902686,
,,,,153,0,153,0,,,,,,,,,,,,,,,,,,,,,,3428.7769346000277,None,,,,,,,,,,,,,,,,,election,66,154,aloud,old,red,3423.3760542000236,None,3423.3760542000236,None,6,3.9719508000125643,3423.3760542000236,None,3.9719508000125643,3427.3763547000126,None,3427.8762390000047,None,3427.8762390000047,None,r,0.8798204999766313,3427.8762390000047,None,0.8798204999766313,,,38Aloud,001,2022_Sep_01_1123,ProdSingRedoBetween,2021.2.3,59.999088013902686,
,,,,154,0,154,0,,,,,,,,,,,,,,,,,,,,,,3434.5660912000167,None,,,,,,,,,,,,,,,,,guide,104,155,aloud,new,null,3429.2782358000113,None,3429.2782358000113,None,4,2.3337776999978814,3429.2782358000113,None,2.3337776999978814,3431.6308833000076,None,3432.1331472000165,None,3432.1331472000165,None,f,2.4071028999751434,3432.1331472000165,None,2.4071028999751434,,,38Aloud,001,2022_Sep_01_1123,ProdSingRedoBetween,2021.2.3,59.999088013902686,
,,,,155,0,155,0,,,,,,,,,,,,,,,,,,,,,,3437.8359672000224,None,,,,,,,,,,,,,,,,,goose,47,156,aloud,old,blue,3435.0700681000017,None,3435.0700681000017,None,5,1.7659267999988515,3435.0700681000017,None,1.7659267999988515,3436.8533777000266,None,3437.3568341000064,None,3437.3568341000064,None,f,0.4632661000068765,3437.3568341000064,None,0.4632661000068765,,,38Aloud,001,2022_Sep_01_1123,ProdSingRedoBetween,2021.2.3,59.999088013902686,
,,,,156,0,156,0,,,,,,,,,,,,,,,,,,,,,,3444.1257815000135,None,,,,,,,,,,,,,,,,,sweet,41,157,aloud,old,blue,3438.340364600008,None,3438.340364600008,None,6,4.9917084999906365,3438.340364600008,None,4.9917084999906365,3443.3589226000186,None,3443.861683700001,None,3443.861683700001,None,r,0.2383605999930296,3443.861683700001,None,0.2383605999930296,,,38Aloud,001,2022_Sep_01_1123,ProdSingRedoBetween,2021.2.3,59.999088013902686,
,,,,157,0,157,0,,,,,,,,,,,,,,,,,,,,,,3450.7676934000046,None,,,,,,,,,,,,,,,,,military,18,158,aloud,old,yellow,3444.6353174000105,None,3444.6353174000105,None,3,2.6727334999886807,3444.6353174000105,None,2.6727334999886807,3447.3308984000178,None,3447.845979500009,None,3447.845979500009,None,f,2.8941650000051595,3447.845979500009,None,2.8941650000051595,,,38Aloud,001,2022_Sep_01_1123,ProdSingRedoBetween,2021.2.3,59.999088013902686,
,,,,158,0,158,0,,,,,,,,,,,,,,,,,,,,,,3455.6703520000156,None,,,,,,,,,,,,,,,,,carry,132,159,aloud,new,null,3451.2868382000015,None,3451.2868382000015,None,2,3.5251606999954674,3451.2868382000015,None,3.5251606999954674,3454.8361798000115,None,3455.3370083000045,None,3455.3370083000045,None,n,0.3070677999930922,3455.3370083000045,None,0.3070677999930922,,,38Aloud,001,2022_Sep_01_1123,ProdSingRedoBetween,2021.2.3,59.999088013902686,
,,,,159,0,159,0,,,,,,,,,,,,,,,,,,,,,,3459.7245049000194,None,,,,,,,,,,,,,,,,,author,72,160,aloud,old,red,3456.171776300005,None,3456.171776300005,None,5,2.6802322999865282,3456.171776300005,None,2.6802322999865282,3458.873505100026,None,3459.3742463000235,None,3459.3742463000235,None,f,0.3257389000209514,3459.3742463000235,None,0.3257389000209514,,,38Aloud,001,2022_Sep_01_1123,ProdSingRedoBetween,2021.2.3,59.999088013902686,
,,,,160,0,160,0,,,,,,,,,,,,,,,,,,,,,,3464.245549300016,None,,,,,,,,,,,,,,,,,welcome,159,161,aloud,new,null,3460.235438600008,None,3460.235438600008,None,2,3.1045721999835223,3460.235438600008,None,3.1045721999835223,3463.363048600004,None,3463.878840500023,None,3463.878840500023,None,n,0.3411863000073936,3463.878840500023,None,0.3411863000073936,,,38Aloud,001,2022_Sep_01_1123,ProdSingRedoBetween,2021.2.3,59.999088013902686,
,,,,161,0,161,0,,,,,,,,,,,,,,,,,,,,,,3466.9483739999996,None,,,,,,,,,,,,,,,,,native,79,162,aloud,old,red,3464.7562439000176,None,3464.7562439000176,None,3,1.2877417000127025,3464.7562439000176,None,1.2877417000127025,3466.0658199000172,None,3466.5699657000077,None,3466.5699657000077,None,n,0.36212109998450615,3466.5699657000077,None,0.36212109998450615,,,38Aloud,001,2022_Sep_01_1123,ProdSingRedoBetween,2021.2.3,59.999088013902686,
,,,,162,0,162,0,,,,,,,,,,,,,,,,,,,,,,3470.5519564000133,None,,,,,,,,,,,,,,,,,escape,35,163,aloud,old,blue,3467.450994700019,None,3467.450994700019,None,6,1.7448991000128444,3467.450994700019,None,1.7448991000128444,3469.2212640000216,None,3469.7344784000015,None,3469.7344784000015,None,r,0.7975200999935623,3469.7344784000015,None,0.7975200999935623,,,38Aloud,001,2022_Sep_01_1123,ProdSingRedoBetween,2021.2.3,59.999088013902686,
,,,,163,0,163,0,,,,,,,,,,,,,,,,,,,,,,3473.5882576000004,None,,,,,,,,,,,,,,,,,industry,3,164,aloud,old,yellow,3471.0588450000214,None,3471.0588450000214,None,5,1.561142499995185,3471.0588450000214,None,1.561142499995185,3472.6412905000034,None,3473.165129300003,None,3473.165129300003,None,f,0.40708899998571724,3473.165129300003,None,0.40708899998571724,,,38Aloud,001,2022_Sep_01_1123,ProdSingRedoBetween,2021.2.3,59.999088013902686,
,,,,164,0,164,0,,,,,,,,,,,,,,,,,,,,,,3476.174146300007,None,,,,,,,,,,,,,,,,,period,54,165,aloud,old,blue,3474.098233900004,None,3474.098233900004,None,6,1.129761199990753,3474.098233900004,None,1.129761199990753,3475.257795500016,None,3475.7657151000167,None,3475.7657151000167,None,r,0.3902679999882821,3475.7657151000167,None,0.3902679999882821,,,38Aloud,001,2022_Sep_01_1123,ProdSingRedoBetween,2021.2.3,59.999088013902686,
,,,,165,0,165,0,,,,,,,,,,,,,,,,,,,,,,3480.3352207000135,None,,,,,,,,,,,,,,,,,history,138,166,aloud,new,null,3476.685739400011,None,3476.685739400011,None,4,2.7662346999859437,3476.685739400011,None,2.7662346999859437,3479.4794197000156,None,3479.9963200000057,None,3479.9963200000057,None,f,0.3116637999773957,3479.9963200000057,None,0.3116637999773957,,,38Aloud,001,2022_Sep_01_1123,ProdSingRedoBetween,2021.2.3,59.999088013902686,
,,,,166,0,166,0,,,,,,,,,,,,,,,,,,,,,,3484.550156800018,None,,,,,,,,,,,,,,,,,brilliant,126,167,aloud,new,null,3480.8501249000255,None,3480.8501249000255,None,3,2.8099286000069696,3480.8501249000255,None,2.8099286000069696,3483.6874542000005,None,3484.205900800007,None,3484.205900800007,None,f,0.31824769999366254,3484.205900800007,None,0.31824769999366254,,,38Aloud,001,2022_Sep_01_1123,ProdSingRedoBetween,2021.2.3,59.999088013902686,
,,,,167,0,167,0,,,,,,,,,,,,,,,,,,,,,,3488.369669000007,None,,,,,,,,,,,,,,,,,worker,160,168,aloud,new,null,3485.0590407000273,None,3485.0590407000273,None,3,2.4009123999858275,3485.0590407000273,None,2.4009123999858275,3487.4862562000053,None,3487.986230700015,None,3487.986230700015,None,f,0.3617406999983359,3487.986230700015,None,0.3617406999983359,,,38Aloud,001,2022_Sep_01_1123,ProdSingRedoBetween,2021.2.3,59.999088013902686,
,,,,168,0,168,0,,,,,,,,,,,,,,,,,,,,,,3493.508118400001,None,,,,,,,,,,,,,,,,,south,77,169,aloud,old,red,3488.877334700024,None,3488.877334700024,None,5,3.6546011999889743,3488.877334700024,None,3.6546011999889743,3492.5588613,None,3493.0624651000253,None,3493.0624651000253,None,f,0.4214640000136569,3493.0624651000253,None,0.4214640000136569,,,38Aloud,001,2022_Sep_01_1123,ProdSingRedoBetween,2021.2.3,59.999088013902686,
,,,,169,0,169,0,,,,,,,,,,,,,,,,,,,,,,3497.8623463000113,None,,,,,,,,,,,,,,,,,level,162,170,aloud,new,null,3494.016963000002,None,3494.016963000002,None,2,3.0749815000162926,3494.016963000002,None,3.0749815000162926,3497.113383800024,None,3497.634939200012,None,3497.634939200012,None,n,0.20104889999493025,3497.634939200012,None,0.20104889999493025,,,38Aloud,001,2022_Sep_01_1123,ProdSingRedoBetween,2021.2.3,59.999088013902686,
,,,,170,0,170,0,,,,,,,,,,,,,,,,,,,,,,3504.3022789000242,None,,,,,,,,,,,,,,,,,novel,9,171,aloud,old,yellow,3498.3667944000044,None,3498.3667944000044,None,4,5.317208199994639,3498.3667944000044,None,5.317208199994639,3503.7066931000154,None,3504.220114900003,None,3504.220114900003,None,f,0.055780199996661395,3504.220114900003,None,0.055780199996661395,,,38Aloud,001,2022_Sep_01_1123,ProdSingRedoBetween,2021.2.3,59.999088013902686,
,,,,171,0,171,0,,,,,,,,,,,,,,,,,,,,,,3510.025771000015,None,,,,,,,,,,,,,,,,,light,110,172,aloud,new,null,3504.8055506000237,None,3504.8055506000237,None,5,2.8382846000022255,3504.8055506000237,None,2.8382846000022255,3507.672211100027,None,3508.172805600014,None,3508.172805600014,None,f,1.8232533000118565,3508.172805600014,None,1.8232533000118565,,,38Aloud,001,2022_Sep_01_1123,ProdSingRedoBetween,2021.2.3,59.999088013902686,
,,,,172,0,172,0,,,,,,,,,,,,,,,,,,,,,,3512.8941467000113,None,,,,,,,,,,,,,,,,,season,25,173,aloud,old,yellow,3510.5451474,None,3510.5451474,None,2,1.4668287999811582,3510.5451474,None,1.4668287999811582,3512.0317500000237,None,3512.550876500027,None,3512.550876500027,None,n,0.3170100999996066,3512.550876500027,None,0.3170100999996066,,,38Aloud,001,2022_Sep_01_1123,ProdSingRedoBetween,2021.2.3,59.999088013902686,
,,,,173,0,173,0,,,,,,,,,,,,,,,,,,,,,,3515.713627000019,None,,,,,,,,,,,,,,,,,series,99,174,aloud,new,null,3513.4058690000093,None,3513.4058690000093,None,3,1.4381298000225797,3513.4058690000093,None,1.4381298000225797,3514.8637654000195,None,3515.3634944000223,None,3515.3634944000223,None,f,0.3204750000149943,3515.3634944000223,None,0.3204750000149943,,,38Aloud,001,2022_Sep_01_1123,ProdSingRedoBetween,2021.2.3,59.999088013902686,
,,,,174,0,174,0,,,,,,,,,,,,,,,,,,,,,,3518.3329245000205,None,,,,,,,,,,,,,,,,,growth,61,175,aloud,old,red,3516.22187400001,None,3516.22187400001,None,1,1.2300957000115886,3516.22187400001,None,1.2300957000115886,3517.48768250001,None,3518.002874100028,None,3518.002874100028,None,n,0.3129635000077542,3518.002874100028,None,0.3129635000077542,,,38Aloud,001,2022_Sep_01_1123,ProdSingRedoBetween,2021.2.3,59.999088013902686,
,,,,175,0,175,0,,,,,,,,,,,,,,,,,,,,,,3524.889407300012,None,,,,,,,,,,,,,,,,,count,137,176,aloud,new,null,3518.8461401000095,None,3518.8461401000095,None,3,3.5736846000072546,3518.8461401000095,None,3.5736846000072546,3522.4370529000007,None,3522.94158470002,None,3522.94158470002,None,n,1.9183092000021134,3522.94158470002,None,1.9183092000021134,,,38Aloud,001,2022_Sep_01_1123,ProdSingRedoBetween,2021.2.3,59.999088013902686,
