StudyLoop.thisRepN,StudyLoop.thisTrialN,StudyLoop.thisN,StudyLoop.thisIndex,TestLoop.thisRepN,TestLoop.thisTrialN,TestLoop.thisN,TestLoop.thisIndex,textCondition.started,textCondition.stopped,keyCondition.keys,keyCondition.rt,keyCondition.started,keyCondition.stopped,Condition,textWelcome.started,textWelcome.stopped,keyWelcome.keys,keyWelcome.rt,keyWelcome.started,keyWelcome.stopped,textAloud.started,textAloud.stopped,textSilent.started,textSilent.stopped,textSing.started,textSing.stopped,conditional_text.started,conditional_text.stopped,textBlank500.started,textBlank500.stopped,study_word,study_num,study_order,study_type,word_color,textStudy.started,textStudy.stopped,keyStudy.keys,keyStudy.started,keyStudy.stopped,textTestInstructions.started,textTestInstructions.stopped,key_resp_3.keys,key_resp_3.rt,key_resp_3.started,key_resp_3.stopped,test_word,test_num,test_order,test_condition,old_new_test,test_word_original_color,textConf.started,textConf.stopped,textConfScale.started,textConfScale.stopped,keyConf.keys,keyConf.rt,keyConf.started,keyConf.stopped,confidence response time,textTestBlank.started,textTestBlank.stopped,textRKN.started,textRKN.stopped,textRKNScale.started,textRKNScale.stopped,keyRKN.keys,keyRKN.rt,keyRKN.started,keyRKN.stopped,rkn response time,textEnd.started,textEnd.stopped,participant,session,date,expName,psychopyVersion,frameRate
,,,,,,,,80.5840194,None,c,208.190712,80.5840194,None,,,,,,,,,,,,,,,,,,,,,,,,,,,,,,,,,,,,,,,,,,,,,,,,,,,,,,,,,,,,,,Sep02Sing2,39,2022_Sep_02_1355,ProdSingRedoBetween,2021.2.3,59.98195743
,,,,,,,,,,,,,,SingTest,288.8334388,None,space,5.8049738,288.8334388,None,,,,,,,,,,,,,,,,,,,,,,,,,,,,,,,,,,,,,,,,,,,,,,,,,,,,,,,Sep02Sing2,39,2022_Sep_02_1355,ProdSingRedoBetween,2021.2.3,59.98195743
0,0,0,0,,,,,,,,,,,,,,,,,,288.8334388,None,288.8334388,None,288.8334388,None,288.8334388,None,297.1729515,None,interview,25,1,sing,yellow,295.1732884,None,None,295.1732884,None,,,,,,,,,,,,,,,,,,,,,,,,,,,,,,,,,,,Sep02Sing2,39,2022_Sep_02_1355,ProdSingRedoBetween,2021.2.3,59.98195743
1,0,1,0,,,,,,,,,,,,,,,,,,,,,,,,,,299.6752653,None,captain,21,2,sing,yellow,297.6746188,None,None,297.6746188,None,,,,,,,,,,,,,,,,,,,,,,,,,,,,,,,,,,,Sep02Sing2,39,2022_Sep_02_1355,ProdSingRedoBetween,2021.2.3,59.98195743
2,0,2,0,,,,,,,,,,,,,,,,,,,,,,,,,,302.1947109,None,harmony,54,3,sing,blue,300.1795493,None,None,300.1795493,None,,,,,,,,,,,,,,,,,,,,,,,,,,,,,,,,,,,Sep02Sing2,39,2022_Sep_02_1355,ProdSingRedoBetween,2021.2.3,59.98195743
3,0,3,0,,,,,,,,,,,,,,,,,,,,,,,,,,304.69704,None,youth,34,4,sing,blue,302.6951717,None,None,302.6951717,None,,,,,,,,,,,,,,,,,,,,,,,,,,,,,,,,,,,Sep02Sing2,39,2022_Sep_02_1355,ProdSingRedoBetween,2021.2.3,59.98195743
4,0,4,0,,,,,,,,,,,,,,,,,,,,,,,,,,307.2164748,None,breath,47,5,sing,blue,305.2049038,None,None,305.2049038,None,,,,,,,,,,,,,,,,,,,,,,,,,,,,,,,,,,,Sep02Sing2,39,2022_Sep_02_1355,ProdSingRedoBetween,2021.2.3,59.98195743
5,0,5,0,,,,,,,,,,,,,,,,,,,,,,,,,,309.7353576,None,question,31,6,sing,blue,307.7212651,None,None,307.7212651,None,,,,,,,,,,,,,,,,,,,,,,,,,,,,,,,,,,,Sep02Sing2,39,2022_Sep_02_1355,ProdSingRedoBetween,2021.2.3,59.98195743
6,0,6,0,,,,,,,,,,,,,,,,,,,,,,,,,,312.2377474,None,crisis,3,7,sing,yellow,310.235982,None,None,310.235982,None,,,,,,,,,,,,,,,,,,,,,,,,,,,,,,,,,,,Sep02Sing2,39,2022_Sep_02_1355,ProdSingRedoBetween,2021.2.3,59.98195743
7,0,7,0,,,,,,,,,,,,,,,,,,,,,,,,,,314.740515,None,public,29,8,sing,blue,312.7397375,None,None,312.7397375,None,,,,,,,,,,,,,,,,,,,,,,,,,,,,,,,,,,,Sep02Sing2,39,2022_Sep_02_1355,ProdSingRedoBetween,2021.2.3,59.98195743
8,0,8,0,,,,,,,,,,,,,,,,,,,,,,,,,,317.2430533,None,drink,26,9,sing,yellow,315.2410128,None,None,315.2410128,None,,,,,,,,,,,,,,,,,,,,,,,,,,,,,,,,,,,Sep02Sing2,39,2022_Sep_02_1355,ProdSingRedoBetween,2021.2.3,59.98195743
9,0,9,0,,,,,,,,,,,,,,,,,,,,,,,,,,319.761989,None,drama,87,10,sing,red,317.7470752,None,None,317.7470752,None,,,,,,,,,,,,,,,,,,,,,,,,,,,,,,,,,,,Sep02Sing2,39,2022_Sep_02_1355,ProdSingRedoBetween,2021.2.3,59.98195743
10,0,10,0,,,,,,,,,,,,,,,,,,,,,,,,,,322.2645647,None,husband,86,11,sing,red,320.265193,None,None,320.265193,None,,,,,,,,,,,,,,,,,,,,,,,,,,,,,,,,,,,Sep02Sing2,39,2022_Sep_02_1355,ProdSingRedoBetween,2021.2.3,59.98195743
11,0,11,0,,,,,,,,,,,,,,,,,,,,,,,,,,324.7670333,None,season,52,12,sing,blue,322.7654186,None,None,322.7654186,None,,,,,,,,,,,,,,,,,,,,,,,,,,,,,,,,,,,Sep02Sing2,39,2022_Sep_02_1355,ProdSingRedoBetween,2021.2.3,59.98195743
12,0,12,0,,,,,,,,,,,,,,,,,,,,,,,,,,327.2697544,None,measure,23,13,sing,yellow,325.267668,None,None,325.267668,None,,,,,,,,,,,,,,,,,,,,,,,,,,,,,,,,,,,Sep02Sing2,39,2022_Sep_02_1355,ProdSingRedoBetween,2021.2.3,59.98195743
13,0,13,0,,,,,,,,,,,,,,,,,,,,,,,,,,329.7888898,None,murder,49,14,sing,blue,327.7772103,None,None,327.7772103,None,,,,,,,,,,,,,,,,,,,,,,,,,,,,,,,,,,,Sep02Sing2,39,2022_Sep_02_1355,ProdSingRedoBetween,2021.2.3,59.98195743
14,0,14,0,,,,,,,,,,,,,,,,,,,,,,,,,,332.2911323,None,straight,44,15,sing,blue,330.2891965,None,None,330.2891965,None,,,,,,,,,,,,,,,,,,,,,,,,,,,,,,,,,,,Sep02Sing2,39,2022_Sep_02_1355,ProdSingRedoBetween,2021.2.3,59.98195743
15,0,15,0,,,,,,,,,,,,,,,,,,,,,,,,,,334.8103104,None,foundation,72,16,sing,red,332.7963412,None,None,332.7963412,None,,,,,,,,,,,,,,,,,,,,,,,,,,,,,,,,,,,Sep02Sing2,39,2022_Sep_02_1355,ProdSingRedoBetween,2021.2.3,59.98195743
16,0,16,0,,,,,,,,,,,,,,,,,,,,,,,,,,337.3129355,None,character,82,17,sing,red,335.3109624,None,None,335.3109624,None,,,,,,,,,,,,,,,,,,,,,,,,,,,,,,,,,,,Sep02Sing2,39,2022_Sep_02_1355,ProdSingRedoBetween,2021.2.3,59.98195743
17,0,17,0,,,,,,,,,,,,,,,,,,,,,,,,,,339.815369,None,grade,24,18,sing,yellow,337.8133901,None,None,337.8133901,None,,,,,,,,,,,,,,,,,,,,,,,,,,,,,,,,,,,Sep02Sing2,39,2022_Sep_02_1355,ProdSingRedoBetween,2021.2.3,59.98195743
18,0,18,0,,,,,,,,,,,,,,,,,,,,,,,,,,342.3345762,None,raise,48,19,sing,blue,340.324127,None,None,340.324127,None,,,,,,,,,,,,,,,,,,,,,,,,,,,,,,,,,,,Sep02Sing2,39,2022_Sep_02_1355,ProdSingRedoBetween,2021.2.3,59.98195743
19,0,19,0,,,,,,,,,,,,,,,,,,,,,,,,,,344.8540439,None,account,40,20,sing,blue,342.8386126,None,None,342.8386126,None,,,,,,,,,,,,,,,,,,,,,,,,,,,,,,,,,,,Sep02Sing2,39,2022_Sep_02_1355,ProdSingRedoBetween,2021.2.3,59.98195743
20,0,20,0,,,,,,,,,,,,,,,,,,,,,,,,,,347.3564438,None,treatment,39,21,sing,blue,345.3571782,None,None,345.3571782,None,,,,,,,,,,,,,,,,,,,,,,,,,,,,,,,,,,,Sep02Sing2,39,2022_Sep_02_1355,ProdSingRedoBetween,2021.2.3,59.98195743
21,0,21,0,,,,,,,,,,,,,,,,,,,,,,,,,,349.8587131,None,right,42,22,sing,blue,347.8598424,None,None,347.8598424,None,,,,,,,,,,,,,,,,,,,,,,,,,,,,,,,,,,,Sep02Sing2,39,2022_Sep_02_1355,ProdSingRedoBetween,2021.2.3,59.98195743
22,0,22,0,,,,,,,,,,,,,,,,,,,,,,,,,,352.3610767,None,mechanical,61,23,sing,red,350.3594425,None,None,350.3594425,None,,,,,,,,,,,,,,,,,,,,,,,,,,,,,,,,,,,Sep02Sing2,39,2022_Sep_02_1355,ProdSingRedoBetween,2021.2.3,59.98195743
23,0,23,0,,,,,,,,,,,,,,,,,,,,,,,,,,354.86393,None,bucket,79,24,sing,red,352.8616993,None,None,352.8616993,None,,,,,,,,,,,,,,,,,,,,,,,,,,,,,,,,,,,Sep02Sing2,39,2022_Sep_02_1355,ProdSingRedoBetween,2021.2.3,59.98195743
24,0,24,0,,,,,,,,,,,,,,,,,,,,,,,,,,357.3831617,None,alert,84,25,sing,red,355.3718906,None,None,355.3718906,None,,,,,,,,,,,,,,,,,,,,,,,,,,,,,,,,,,,Sep02Sing2,39,2022_Sep_02_1355,ProdSingRedoBetween,2021.2.3,59.98195743
25,0,25,0,,,,,,,,,,,,,,,,,,,,,,,,,,359.8855735,None,under,30,26,sing,blue,357.8835796,None,None,357.8835796,None,,,,,,,,,,,,,,,,,,,,,,,,,,,,,,,,,,,Sep02Sing2,39,2022_Sep_02_1355,ProdSingRedoBetween,2021.2.3,59.98195743
26,0,26,0,,,,,,,,,,,,,,,,,,,,,,,,,,362.3882722,None,leader,17,27,sing,yellow,360.3858886,None,None,360.3858886,None,,,,,,,,,,,,,,,,,,,,,,,,,,,,,,,,,,,Sep02Sing2,39,2022_Sep_02_1355,ProdSingRedoBetween,2021.2.3,59.98195743
27,0,27,0,,,,,,,,,,,,,,,,,,,,,,,,,,364.8906026,None,impact,70,28,sing,red,362.8903039,None,None,362.8903039,None,,,,,,,,,,,,,,,,,,,,,,,,,,,,,,,,,,,Sep02Sing2,39,2022_Sep_02_1355,ProdSingRedoBetween,2021.2.3,59.98195743
28,0,28,0,,,,,,,,,,,,,,,,,,,,,,,,,,367.40955,None,drove,10,29,sing,yellow,365.402379,None,None,365.402379,None,,,,,,,,,,,,,,,,,,,,,,,,,,,,,,,,,,,Sep02Sing2,39,2022_Sep_02_1355,ProdSingRedoBetween,2021.2.3,59.98195743
29,0,29,0,,,,,,,,,,,,,,,,,,,,,,,,,,369.9120612,None,welcome,9,30,sing,yellow,367.9101776,None,None,367.9101776,None,,,,,,,,,,,,,,,,,,,,,,,,,,,,,,,,,,,Sep02Sing2,39,2022_Sep_02_1355,ProdSingRedoBetween,2021.2.3,59.98195743
30,0,30,0,,,,,,,,,,,,,,,,,,,,,,,,,,372.4314031,None,group,57,31,sing,blue,370.4178467,None,None,370.4178467,None,,,,,,,,,,,,,,,,,,,,,,,,,,,,,,,,,,,Sep02Sing2,39,2022_Sep_02_1355,ProdSingRedoBetween,2021.2.3,59.98195743
31,0,31,0,,,,,,,,,,,,,,,,,,,,,,,,,,374.9506015,None,swift,45,32,sing,blue,372.9405643,None,None,372.9405643,None,,,,,,,,,,,,,,,,,,,,,,,,,,,,,,,,,,,Sep02Sing2,39,2022_Sep_02_1355,ProdSingRedoBetween,2021.2.3,59.98195743
32,0,32,0,,,,,,,,,,,,,,,,,,,,,,,,,,377.4696663,None,instrument,18,33,sing,yellow,375.4567852,None,None,375.4567852,None,,,,,,,,,,,,,,,,,,,,,,,,,,,,,,,,,,,Sep02Sing2,39,2022_Sep_02_1355,ProdSingRedoBetween,2021.2.3,59.98195743
33,0,33,0,,,,,,,,,,,,,,,,,,,,,,,,,,379.9723874,None,enemy,14,34,sing,yellow,377.9700818,None,None,377.9700818,None,,,,,,,,,,,,,,,,,,,,,,,,,,,,,,,,,,,Sep02Sing2,39,2022_Sep_02_1355,ProdSingRedoBetween,2021.2.3,59.98195743
34,0,34,0,,,,,,,,,,,,,,,,,,,,,,,,,,382.4913516,None,territory,89,35,sing,red,380.4765412,None,None,380.4765412,None,,,,,,,,,,,,,,,,,,,,,,,,,,,,,,,,,,,Sep02Sing2,39,2022_Sep_02_1355,ProdSingRedoBetween,2021.2.3,59.98195743
35,0,35,0,,,,,,,,,,,,,,,,,,,,,,,,,,384.9940588,None,spoke,56,36,sing,blue,382.9917879,None,None,382.9917879,None,,,,,,,,,,,,,,,,,,,,,,,,,,,,,,,,,,,Sep02Sing2,39,2022_Sep_02_1355,ProdSingRedoBetween,2021.2.3,59.98195743
36,0,36,0,,,,,,,,,,,,,,,,,,,,,,,,,,387.5130143,None,reading,62,37,sing,red,385.4987075,None,None,385.4987075,None,,,,,,,,,,,,,,,,,,,,,,,,,,,,,,,,,,,Sep02Sing2,39,2022_Sep_02_1355,ProdSingRedoBetween,2021.2.3,59.98195743
37,0,37,0,,,,,,,,,,,,,,,,,,,,,,,,,,390.0323116,None,cousin,66,38,sing,red,388.0214002,None,None,388.0214002,None,,,,,,,,,,,,,,,,,,,,,,,,,,,,,,,,,,,Sep02Sing2,39,2022_Sep_02_1355,ProdSingRedoBetween,2021.2.3,59.98195743
38,0,38,0,,,,,,,,,,,,,,,,,,,,,,,,,,392.5345834,None,prime,68,39,sing,red,390.5326313,None,None,390.5326313,None,,,,,,,,,,,,,,,,,,,,,,,,,,,,,,,,,,,Sep02Sing2,39,2022_Sep_02_1355,ProdSingRedoBetween,2021.2.3,59.98195743
39,0,39,0,,,,,,,,,,,,,,,,,,,,,,,,,,395.0373777,None,rapid,8,40,sing,yellow,393.0357909,None,None,393.0357909,None,,,,,,,,,,,,,,,,,,,,,,,,,,,,,,,,,,,Sep02Sing2,39,2022_Sep_02_1355,ProdSingRedoBetween,2021.2.3,59.98195743
40,0,40,0,,,,,,,,,,,,,,,,,,,,,,,,,,397.5399323,None,emergency,75,41,sing,red,395.5399759,None,None,395.5399759,None,,,,,,,,,,,,,,,,,,,,,,,,,,,,,,,,,,,Sep02Sing2,39,2022_Sep_02_1355,ProdSingRedoBetween,2021.2.3,59.98195743
41,0,41,0,,,,,,,,,,,,,,,,,,,,,,,,,,400.0421559,None,chief,77,42,sing,red,398.0413771,None,None,398.0413771,None,,,,,,,,,,,,,,,,,,,,,,,,,,,,,,,,,,,Sep02Sing2,39,2022_Sep_02_1355,ProdSingRedoBetween,2021.2.3,59.98195743
42,0,42,0,,,,,,,,,,,,,,,,,,,,,,,,,,402.5612907,None,display,55,43,sing,blue,400.5512709,None,None,400.5512709,None,,,,,,,,,,,,,,,,,,,,,,,,,,,,,,,,,,,Sep02Sing2,39,2022_Sep_02_1355,ProdSingRedoBetween,2021.2.3,59.98195743
43,0,43,0,,,,,,,,,,,,,,,,,,,,,,,,,,405.0641014,None,health,5,44,sing,yellow,403.0619037,None,None,403.0619037,None,,,,,,,,,,,,,,,,,,,,,,,,,,,,,,,,,,,Sep02Sing2,39,2022_Sep_02_1355,ProdSingRedoBetween,2021.2.3,59.98195743
44,0,44,0,,,,,,,,,,,,,,,,,,,,,,,,,,407.5834081,None,patient,35,45,sing,blue,405.5691899,None,None,405.5691899,None,,,,,,,,,,,,,,,,,,,,,,,,,,,,,,,,,,,Sep02Sing2,39,2022_Sep_02_1355,ProdSingRedoBetween,2021.2.3,59.98195743
45,0,45,0,,,,,,,,,,,,,,,,,,,,,,,,,,410.1024497,None,dozen,20,46,sing,yellow,408.0881907,None,None,408.0881907,None,,,,,,,,,,,,,,,,,,,,,,,,,,,,,,,,,,,Sep02Sing2,39,2022_Sep_02_1355,ProdSingRedoBetween,2021.2.3,59.98195743
46,0,46,0,,,,,,,,,,,,,,,,,,,,,,,,,,412.6049601,None,scale,64,47,sing,red,410.6029772,None,None,410.6029772,None,,,,,,,,,,,,,,,,,,,,,,,,,,,,,,,,,,,Sep02Sing2,39,2022_Sep_02_1355,ProdSingRedoBetween,2021.2.3,59.98195743
47,0,47,0,,,,,,,,,,,,,,,,,,,,,,,,,,415.1237716,None,quantity,83,48,sing,red,413.1121309,None,None,413.1121309,None,,,,,,,,,,,,,,,,,,,,,,,,,,,,,,,,,,,Sep02Sing2,39,2022_Sep_02_1355,ProdSingRedoBetween,2021.2.3,59.98195743
48,0,48,0,,,,,,,,,,,,,,,,,,,,,,,,,,417.6265377,None,listen,46,49,sing,blue,415.6247886,None,None,415.6247886,None,,,,,,,,,,,,,,,,,,,,,,,,,,,,,,,,,,,Sep02Sing2,39,2022_Sep_02_1355,ProdSingRedoBetween,2021.2.3,59.98195743
49,0,49,0,,,,,,,,,,,,,,,,,,,,,,,,,,420.1289361,None,produce,51,50,sing,blue,418.1269453,None,None,418.1269453,None,,,,,,,,,,,,,,,,,,,,,,,,,,,,,,,,,,,Sep02Sing2,39,2022_Sep_02_1355,ProdSingRedoBetween,2021.2.3,59.98195743
50,0,50,0,,,,,,,,,,,,,,,,,,,,,,,,,,422.6481584,None,danger,32,51,sing,blue,420.6332241,None,None,420.6332241,None,,,,,,,,,,,,,,,,,,,,,,,,,,,,,,,,,,,Sep02Sing2,39,2022_Sep_02_1355,ProdSingRedoBetween,2021.2.3,59.98195743
51,0,51,0,,,,,,,,,,,,,,,,,,,,,,,,,,425.1508443,None,build,36,52,sing,blue,423.1486407,None,None,423.1486407,None,,,,,,,,,,,,,,,,,,,,,,,,,,,,,,,,,,,Sep02Sing2,39,2022_Sep_02_1355,ProdSingRedoBetween,2021.2.3,59.98195743
52,0,52,0,,,,,,,,,,,,,,,,,,,,,,,,,,427.6699854,None,century,60,53,sing,red,425.6558783,None,None,425.6558783,None,,,,,,,,,,,,,,,,,,,,,,,,,,,,,,,,,,,Sep02Sing2,39,2022_Sep_02_1355,ProdSingRedoBetween,2021.2.3,59.98195743
53,0,53,0,,,,,,,,,,,,,,,,,,,,,,,,,,430.1724121,None,trash,78,54,sing,red,428.1723939,None,None,428.1723939,None,,,,,,,,,,,,,,,,,,,,,,,,,,,,,,,,,,,Sep02Sing2,39,2022_Sep_02_1355,ProdSingRedoBetween,2021.2.3,59.98195743
54,0,54,0,,,,,,,,,,,,,,,,,,,,,,,,,,432.691516,None,people,7,55,sing,yellow,430.6795349,None,None,430.6795349,None,,,,,,,,,,,,,,,,,,,,,,,,,,,,,,,,,,,Sep02Sing2,39,2022_Sep_02_1355,ProdSingRedoBetween,2021.2.3,59.98195743
55,0,55,0,,,,,,,,,,,,,,,,,,,,,,,,,,435.2106399,None,novel,11,56,sing,yellow,433.1971309,None,None,433.1971309,None,,,,,,,,,,,,,,,,,,,,,,,,,,,,,,,,,,,Sep02Sing2,39,2022_Sep_02_1355,ProdSingRedoBetween,2021.2.3,59.98195743
56,0,56,0,,,,,,,,,,,,,,,,,,,,,,,,,,437.7134129,None,finish,12,57,sing,yellow,435.7112022,None,None,435.7112022,None,,,,,,,,,,,,,,,,,,,,,,,,,,,,,,,,,,,Sep02Sing2,39,2022_Sep_02_1355,ProdSingRedoBetween,2021.2.3,59.98195743
57,0,57,0,,,,,,,,,,,,,,,,,,,,,,,,,,440.23264,None,piece,76,58,sing,red,438.2177876,None,None,438.2177876,None,,,,,,,,,,,,,,,,,,,,,,,,,,,,,,,,,,,Sep02Sing2,39,2022_Sep_02_1355,ProdSingRedoBetween,2021.2.3,59.98195743
58,0,58,0,,,,,,,,,,,,,,,,,,,,,,,,,,442.7348963,None,union,71,59,sing,red,440.7330072,None,None,440.7330072,None,,,,,,,,,,,,,,,,,,,,,,,,,,,,,,,,,,,Sep02Sing2,39,2022_Sep_02_1355,ProdSingRedoBetween,2021.2.3,59.98195743
59,0,59,0,,,,,,,,,,,,,,,,,,,,,,,,,,445.2539886,None,defeat,6,60,sing,yellow,443.2435016,None,None,443.2435016,None,,,,,,,,,,,,,,,,,,,,,,,,,,,,,,,,,,,Sep02Sing2,39,2022_Sep_02_1355,ProdSingRedoBetween,2021.2.3,59.98195743
60,0,60,0,,,,,,,,,,,,,,,,,,,,,,,,,,447.7731893,None,point,19,61,sing,yellow,445.7651824,None,None,445.7651824,None,,,,,,,,,,,,,,,,,,,,,,,,,,,,,,,,,,,Sep02Sing2,39,2022_Sep_02_1355,ProdSingRedoBetween,2021.2.3,59.98195743
61,0,61,0,,,,,,,,,,,,,,,,,,,,,,,,,,450.2757636,None,capital,73,62,sing,red,448.2736987,None,None,448.2736987,None,,,,,,,,,,,,,,,,,,,,,,,,,,,,,,,,,,,Sep02Sing2,39,2022_Sep_02_1355,ProdSingRedoBetween,2021.2.3,59.98195743
62,0,62,0,,,,,,,,,,,,,,,,,,,,,,,,,,452.7782507,None,region,58,63,sing,blue,450.776546,None,None,450.776546,None,,,,,,,,,,,,,,,,,,,,,,,,,,,,,,,,,,,Sep02Sing2,39,2022_Sep_02_1355,ProdSingRedoBetween,2021.2.3,59.98195743
63,0,63,0,,,,,,,,,,,,,,,,,,,,,,,,,,455.280898,None,court,65,64,sing,red,453.278772,None,None,453.278772,None,,,,,,,,,,,,,,,,,,,,,,,,,,,,,,,,,,,Sep02Sing2,39,2022_Sep_02_1355,ProdSingRedoBetween,2021.2.3,59.98195743
64,0,64,0,,,,,,,,,,,,,,,,,,,,,,,,,,457.7831177,None,power,74,65,sing,red,455.7838511,None,None,455.7838511,None,,,,,,,,,,,,,,,,,,,,,,,,,,,,,,,,,,,Sep02Sing2,39,2022_Sep_02_1355,ProdSingRedoBetween,2021.2.3,59.98195743
65,0,65,0,,,,,,,,,,,,,,,,,,,,,,,,,,460.3023935,None,author,80,66,sing,red,458.2882943,None,None,458.2882943,None,,,,,,,,,,,,,,,,,,,,,,,,,,,,,,,,,,,Sep02Sing2,39,2022_Sep_02_1355,ProdSingRedoBetween,2021.2.3,59.98195743
66,0,66,0,,,,,,,,,,,,,,,,,,,,,,,,,,462.8048375,None,private,28,67,sing,yellow,460.8038801,None,None,460.8038801,None,,,,,,,,,,,,,,,,,,,,,,,,,,,,,,,,,,,Sep02Sing2,39,2022_Sep_02_1355,ProdSingRedoBetween,2021.2.3,59.98195743
67,0,67,0,,,,,,,,,,,,,,,,,,,,,,,,,,465.324055,None,country,22,68,sing,yellow,463.3099988,None,None,463.3099988,None,,,,,,,,,,,,,,,,,,,,,,,,,,,,,,,,,,,Sep02Sing2,39,2022_Sep_02_1355,ProdSingRedoBetween,2021.2.3,59.98195743
68,0,68,0,,,,,,,,,,,,,,,,,,,,,,,,,,467.8267395,None,curve,43,69,sing,blue,465.8246183,None,None,465.8246183,None,,,,,,,,,,,,,,,,,,,,,,,,,,,,,,,,,,,Sep02Sing2,39,2022_Sep_02_1355,ProdSingRedoBetween,2021.2.3,59.98195743
69,0,69,0,,,,,,,,,,,,,,,,,,,,,,,,,,470.3290437,None,tragedy,27,70,sing,yellow,468.3296169,None,None,468.3296169,None,,,,,,,,,,,,,,,,,,,,,,,,,,,,,,,,,,,Sep02Sing2,39,2022_Sep_02_1355,ProdSingRedoBetween,2021.2.3,59.98195743
70,0,70,0,,,,,,,,,,,,,,,,,,,,,,,,,,472.8317339,None,sound,85,71,sing,red,470.8297242,None,None,470.8297242,None,,,,,,,,,,,,,,,,,,,,,,,,,,,,,,,,,,,Sep02Sing2,39,2022_Sep_02_1355,ProdSingRedoBetween,2021.2.3,59.98195743
71,0,71,0,,,,,,,,,,,,,,,,,,,,,,,,,,475.3343387,None,universal,67,72,sing,red,473.3353712,None,None,473.3353712,None,,,,,,,,,,,,,,,,,,,,,,,,,,,,,,,,,,,Sep02Sing2,39,2022_Sep_02_1355,ProdSingRedoBetween,2021.2.3,59.98195743
72,0,72,0,,,,,,,,,,,,,,,,,,,,,,,,,,477.8367267,None,shear,15,73,sing,yellow,475.8354113,None,None,475.8354113,None,,,,,,,,,,,,,,,,,,,,,,,,,,,,,,,,,,,Sep02Sing2,39,2022_Sep_02_1355,ProdSingRedoBetween,2021.2.3,59.98195743
73,0,73,0,,,,,,,,,,,,,,,,,,,,,,,,,,480.3559797,None,turkey,4,74,sing,yellow,478.3460759,None,None,478.3460759,None,,,,,,,,,,,,,,,,,,,,,,,,,,,,,,,,,,,Sep02Sing2,39,2022_Sep_02_1355,ProdSingRedoBetween,2021.2.3,59.98195743
74,0,74,0,,,,,,,,,,,,,,,,,,,,,,,,,,482.8749763,None,threat,88,75,sing,red,480.862457,None,None,480.862457,None,,,,,,,,,,,,,,,,,,,,,,,,,,,,,,,,,,,Sep02Sing2,39,2022_Sep_02_1355,ProdSingRedoBetween,2021.2.3,59.98195743
75,0,75,0,,,,,,,,,,,,,,,,,,,,,,,,,,485.3776812,None,length,53,76,sing,blue,483.3753769,None,None,483.3753769,None,,,,,,,,,,,,,,,,,,,,,,,,,,,,,,,,,,,Sep02Sing2,39,2022_Sep_02_1355,ProdSingRedoBetween,2021.2.3,59.98195743
76,0,76,0,,,,,,,,,,,,,,,,,,,,,,,,,,487.8966516,None,position,63,77,sing,red,485.8826293,None,None,485.8826293,None,,,,,,,,,,,,,,,,,,,,,,,,,,,,,,,,,,,Sep02Sing2,39,2022_Sep_02_1355,ProdSingRedoBetween,2021.2.3,59.98195743
77,0,77,0,,,,,,,,,,,,,,,,,,,,,,,,,,490.3990835,None,surface,33,78,sing,blue,488.3970895,None,None,488.3970895,None,,,,,,,,,,,,,,,,,,,,,,,,,,,,,,,,,,,Sep02Sing2,39,2022_Sep_02_1355,ProdSingRedoBetween,2021.2.3,59.98195743
78,0,78,0,,,,,,,,,,,,,,,,,,,,,,,,,,492.9184817,None,beauty,38,79,sing,blue,490.9091694,None,None,490.9091694,None,,,,,,,,,,,,,,,,,,,,,,,,,,,,,,,,,,,Sep02Sing2,39,2022_Sep_02_1355,ProdSingRedoBetween,2021.2.3,59.98195743
79,0,79,0,,,,,,,,,,,,,,,,,,,,,,,,,,495.4210997,None,incident,50,80,sing,blue,493.4188706,None,None,493.4188706,None,,,,,,,,,,,,,,,,,,,,,,,,,,,,,,,,,,,Sep02Sing2,39,2022_Sep_02_1355,ProdSingRedoBetween,2021.2.3,59.98195743
80,0,80,0,,,,,,,,,,,,,,,,,,,,,,,,,,497.9402257,None,industry,13,81,sing,yellow,495.924642,None,None,495.924642,None,,,,,,,,,,,,,,,,,,,,,,,,,,,,,,,,,,,Sep02Sing2,39,2022_Sep_02_1355,ProdSingRedoBetween,2021.2.3,59.98195743
81,0,81,0,,,,,,,,,,,,,,,,,,,,,,,,,,500.4590948,None,sight,2,82,sing,yellow,498.4451762,None,None,498.4451762,None,,,,,,,,,,,,,,,,,,,,,,,,,,,,,,,,,,,Sep02Sing2,39,2022_Sep_02_1355,ProdSingRedoBetween,2021.2.3,59.98195743
82,0,82,0,,,,,,,,,,,,,,,,,,,,,,,,,,502.9782484,None,provision,81,83,sing,red,500.9674214,None,None,500.9674214,None,,,,,,,,,,,,,,,,,,,,,,,,,,,,,,,,,,,Sep02Sing2,39,2022_Sep_02_1355,ProdSingRedoBetween,2021.2.3,59.98195743
83,0,83,0,,,,,,,,,,,,,,,,,,,,,,,,,,505.4975101,None,victory,41,84,sing,blue,503.4818655,None,None,503.4818655,None,,,,,,,,,,,,,,,,,,,,,,,,,,,,,,,,,,,Sep02Sing2,39,2022_Sep_02_1355,ProdSingRedoBetween,2021.2.3,59.98195743
84,0,84,0,,,,,,,,,,,,,,,,,,,,,,,,,,508.000216,None,council,16,85,sing,yellow,505.9980701,None,None,505.9980701,None,,,,,,,,,,,,,,,,,,,,,,,,,,,,,,,,,,,Sep02Sing2,39,2022_Sep_02_1355,ProdSingRedoBetween,2021.2.3,59.98195743
85,0,85,0,,,,,,,,,,,,,,,,,,,,,,,,,,510.502485,None,corner,0,86,sing,yellow,508.5028015,None,None,508.5028015,None,,,,,,,,,,,,,,,,,,,,,,,,,,,,,,,,,,,Sep02Sing2,39,2022_Sep_02_1355,ProdSingRedoBetween,2021.2.3,59.98195743
86,0,86,0,,,,,,,,,,,,,,,,,,,,,,,,,,513.0219208,None,sunset,1,87,sing,yellow,511.0081247,None,None,511.0081247,None,,,,,,,,,,,,,,,,,,,,,,,,,,,,,,,,,,,Sep02Sing2,39,2022_Sep_02_1355,ProdSingRedoBetween,2021.2.3,59.98195743
87,0,87,0,,,,,,,,,,,,,,,,,,,,,,,,,,515.5409586,None,escape,69,88,sing,red,513.5260974,None,None,513.5260974,None,,,,,,,,,,,,,,,,,,,,,,,,,,,,,,,,,,,Sep02Sing2,39,2022_Sep_02_1355,ProdSingRedoBetween,2021.2.3,59.98195743
88,0,88,0,,,,,,,,,,,,,,,,,,,,,,,,,,518.043659,None,research,59,89,sing,yellow,516.0414616,None,None,516.0414616,None,,,,,,,,,,,,,,,,,,,,,,,,,,,,,,,,,,,Sep02Sing2,39,2022_Sep_02_1355,ProdSingRedoBetween,2021.2.3,59.98195743
89,0,89,0,,,,,,,,,,,,,,,,,,,,,,,,,,520.5460724,None,burden,37,90,sing,blue,518.5438957,None,None,518.5438957,None,,,,,,,,,,,,,,,,,,,,,,,,,,,,,,,,,,,Sep02Sing2,39,2022_Sep_02_1355,ProdSingRedoBetween,2021.2.3,59.98195743
,,,,,,,,,,,,,,,,,,,,,,,,,,,,,,,,,,,,,,,,,521.0468359,None,k,116.8076906,521.0468359,None,,,,,,,,,,,,,,,,,,,,,,,,,,,,,Sep02Sing2,39,2022_Sep_02_1355,ProdSingRedoBetween,2021.2.3,59.98195743
,,,,0,0,0,0,,,,,,,,,,,,,,,,,,,,,,642.7682043,None,,,,,,,,,,,,,,,,,victory,41,1,sing,old,blue,638.3874509,None,638.3874509,None,6,2.4268773,638.3874509,None,2.4268773,640.8411599,None,641.3553711,None,641.3553711,None,r,1.3949119,641.3553711,None,1.3949119,,,Sep02Sing2,39,2022_Sep_02_1355,ProdSingRedoBetween,2021.2.3,59.98195743
,,,,1,0,1,0,,,,,,,,,,,,,,,,,,,,,,648.0565509,None,,,,,,,,,,,,,,,,,silence,114,2,sing,new,null,643.2796298,None,643.2796298,None,6,3.7187034,643.2796298,None,3.7187034,647.0235964,None,647.5255511,None,647.5255511,None,r,0.5127136,647.5255511,None,0.5127136,,,Sep02Sing2,39,2022_Sep_02_1355,ProdSingRedoBetween,2021.2.3,59.98195743
,,,,2,0,2,0,,,,,,,,,,,,,,,,,,,,,,650.5705665,None,,,,,,,,,,,,,,,,,people,7,3,sing,old,yellow,648.5585067,None,648.5585067,None,6,1.4557836,648.5585067,None,1.4557836,650.042958,None,650.5482055,None,650.5482055,None,r,0.0023381,650.5482055,None,0.0023381,,,Sep02Sing2,39,2022_Sep_02_1355,ProdSingRedoBetween,2021.2.3,59.98195743
,,,,3,0,3,0,,,,,,,,,,,,,,,,,,,,,,653.512142,None,,,,,,,,,,,,,,,,,character,82,4,sing,old,red,651.0799955,None,651.0799955,None,6,1.4302805,651.0799955,None,1.4302805,652.5287544,None,653.0307176,None,653.0307176,None,r,0.4555707,653.0307176,None,0.4555707,,,Sep02Sing2,39,2022_Sep_02_1355,ProdSingRedoBetween,2021.2.3,59.98195743
,,,,4,0,4,0,,,,,,,,,,,,,,,,,,,,,,659.3056716,None,,,,,,,,,,,,,,,,,position,63,5,sing,old,red,654.0247176,None,654.0247176,None,4,3.7736081,654.0247176,None,3.7736081,657.8216605,None,658.3336679,None,658.3336679,None,f,0.9288388,658.3336679,None,0.9288388,,,Sep02Sing2,39,2022_Sep_02_1355,ProdSingRedoBetween,2021.2.3,59.98195743
,,,,5,0,5,0,,,,,,,,,,,,,,,,,,,,,,664.189309,None,,,,,,,,,,,,,,,,,stranger,153,6,sing,new,null,659.841288,None,659.841288,None,4,2.4210462,659.841288,None,2.4210462,662.288649,None,662.7903506,None,662.7903506,None,f,1.3839744,662.7903506,None,1.3839744,,,Sep02Sing2,39,2022_Sep_02_1355,ProdSingRedoBetween,2021.2.3,59.98195743
,,,,6,0,6,0,,,,,,,,,,,,,,,,,,,,,,667.7929853,None,,,,,,,,,,,,,,,,,account,40,7,sing,old,blue,664.6986061,None,664.6986061,None,5,2.251741,664.6986061,None,2.251741,666.9754199,None,667.4782005,None,667.4782005,None,f,0.288049,667.4782005,None,0.288049,,,Sep02Sing2,39,2022_Sep_02_1355,ProdSingRedoBetween,2021.2.3,59.98195743
,,,,7,0,7,0,,,,,,,,,,,,,,,,,,,,,,671.7495085,None,,,,,,,,,,,,,,,,,reading,62,8,sing,old,red,668.3023897,None,668.3023897,None,6,1.6080171,668.3023897,None,1.6080171,669.9355594,None,670.4465986,None,670.4465986,None,r,1.2796704,670.4465986,None,1.2796704,,,Sep02Sing2,39,2022_Sep_02_1355,ProdSingRedoBetween,2021.2.3,59.98195743
,,,,8,0,8,0,,,,,,,,,,,,,,,,,,,,,,675.9178147,None,,,,,,,,,,,,,,,,,symbol,141,9,sing,new,null,672.264624,None,672.264624,None,1,1.8536422,672.264624,None,1.8536422,674.1505777,None,674.6561518,None,674.6561518,None,n,1.2380479,674.6561518,None,1.2380479,,,Sep02Sing2,39,2022_Sep_02_1355,ProdSingRedoBetween,2021.2.3,59.98195743
,,,,9,0,9,0,,,,,,,,,,,,,,,,,,,,,,679.4378825,None,,,,,,,,,,,,,,,,,tragedy,27,10,sing,old,yellow,676.4263025,None,676.4263025,None,6,1.5240179,676.4263025,None,1.5240179,677.9737666,None,678.4883076,None,678.4883076,None,r,0.9338792,678.4883076,None,0.9338792,,,Sep02Sing2,39,2022_Sep_02_1355,ProdSingRedoBetween,2021.2.3,59.98195743
,,,,10,0,10,0,,,,,,,,,,,,,,,,,,,,,,683.074805,None,,,,,,,,,,,,,,,,,narrow,160,11,sing,new,null,679.9464794,None,679.9464794,None,1,1.2998414,679.9464794,None,1.2998414,681.27635,None,681.790335,None,681.790335,None,n,1.2639762,681.790335,None,1.2639762,,,Sep02Sing2,39,2022_Sep_02_1355,ProdSingRedoBetween,2021.2.3,59.98195743
,,,,11,0,11,0,,,,,,,,,,,,,,,,,,,,,,685.4939696,None,,,,,,,,,,,,,,,,,government,106,12,sing,new,null,683.5782538,None,683.5782538,None,1,1.3480635,683.5782538,None,1.3480635,684.949067,None,685.4607316,None,685.4607316,None,n,0.01766,685.4607316,None,0.01766,,,Sep02Sing2,39,2022_Sep_02_1355,ProdSingRedoBetween,2021.2.3,59.98195743
,,,,12,0,12,0,,,,,,,,,,,,,,,,,,,,,,687.9298015,None,,,,,,,,,,,,,,,,,impact,70,13,sing,old,red,686.0121729,None,686.0121729,None,1,1.3462209,686.0121729,None,1.3462209,687.3842736,None,687.8964399,None,687.8964399,None,n,0.0140281,687.8964399,None,0.0140281,,,Sep02Sing2,39,2022_Sep_02_1355,ProdSingRedoBetween,2021.2.3,59.98195743
,,,,13,0,13,0,,,,,,,,,,,,,,,,,,,,,,690.5518951,None,,,,,,,,,,,,,,,,,drama,87,14,sing,old,red,688.4378419,None,688.4378419,None,1,1.320492,688.4378419,None,1.320492,689.7814981,None,690.2842548,None,690.2842548,None,n,0.2422494,690.2842548,None,0.2422494,,,Sep02Sing2,39,2022_Sep_02_1355,ProdSingRedoBetween,2021.2.3,59.98195743
,,,,14,0,14,0,,,,,,,,,,,,,,,,,,,,,,693.3539131,None,,,,,,,,,,,,,,,,,union,71,15,sing,old,red,691.0829397,None,691.0829397,None,6,1.3314006,691.0829397,None,1.3314006,692.4387738,None,692.9516929,None,692.9516929,None,r,0.3747221,692.9516929,None,0.3747221,,,Sep02Sing2,39,2022_Sep_02_1355,ProdSingRedoBetween,2021.2.3,59.98195743
,,,,15,0,15,0,,,,,,,,,,,,,,,,,,,,,,696.4215302,None,,,,,,,,,,,,,,,,,universal,67,16,sing,old,red,693.8767249,None,693.8767249,None,1,1.9135829,693.8767249,None,1.9135829,695.8232179,None,696.3382863,None,696.3382863,None,n,0.0600466,696.3382863,None,0.0600466,,,Sep02Sing2,39,2022_Sep_02_1355,ProdSingRedoBetween,2021.2.3,59.98195743
,,,,16,0,16,0,,,,,,,,,,,,,,,,,,,,,,700.3431062,None,,,,,,,,,,,,,,,,,subject,122,17,sing,new,null,696.9378846,None,696.9378846,None,1,2.2923644,696.9378846,None,2.2923644,699.2599421,None,699.7750685,None,699.7750685,None,n,0.5433474,699.7750685,None,0.5433474,,,Sep02Sing2,39,2022_Sep_02_1355,ProdSingRedoBetween,2021.2.3,59.98195743
,,,,17,0,17,0,,,,,,,,,,,,,,,,,,,,,,704.1625718,None,,,,,,,,,,,,,,,,,escape,69,18,sing,old,red,700.8514654,None,700.8514654,None,6,1.5868022,700.8514654,None,1.5868022,702.4662583,None,702.9782901,None,702.9782901,None,r,1.1640329,702.9782901,None,1.1640329,,,Sep02Sing2,39,2022_Sep_02_1355,ProdSingRedoBetween,2021.2.3,59.98195743
,,,,18,0,18,0,,,,,,,,,,,,,,,,,,,,,,706.9485951,None,,,,,,,,,,,,,,,,,provision,81,19,sing,old,red,704.67519,None,704.67519,None,6,1.4352949,704.67519,None,1.4352949,706.1354809,None,706.654173,None,706.654173,None,r,0.2641973,706.654173,None,0.2641973,,,Sep02Sing2,39,2022_Sep_02_1355,ProdSingRedoBetween,2021.2.3,59.98195743
,,,,19,0,19,0,,,,,,,,,,,,,,,,,,,,,,710.1852412,None,,,,,,,,,,,,,,,,,personnel,146,20,sing,new,null,707.4573384,None,707.4573384,None,1,1.8929169,707.4573384,None,1.8929169,709.3692114,None,709.8684585,None,709.8684585,None,n,0.2978614,709.8684585,None,0.2978614,,,Sep02Sing2,39,2022_Sep_02_1355,ProdSingRedoBetween,2021.2.3,59.98195743
,,,,20,0,20,0,,,,,,,,,,,,,,,,,,,,,,712.8227693,None,,,,,,,,,,,,,,,,,corner,0,21,sing,old,yellow,710.68787,None,710.68787,None,1,1.3183584,710.68787,None,1.3183584,712.037325,None,712.5448803,None,712.5448803,None,n,0.2615286,712.5448803,None,0.2615286,,,Sep02Sing2,39,2022_Sep_02_1355,ProdSingRedoBetween,2021.2.3,59.98195743
,,,,21,0,21,0,,,,,,,,,,,,,,,,,,,,,,715.1571749,None,,,,,,,,,,,,,,,,,owner,96,22,sing,new,null,713.3269611,None,713.3269611,None,1,1.0873683,713.3269611,None,1.0873683,714.4408041,None,714.940439,None,714.940439,None,n,0.1938423,714.940439,None,0.1938423,,,Sep02Sing2,39,2022_Sep_02_1355,ProdSingRedoBetween,2021.2.3,59.98195743
,,,,22,0,22,0,,,,,,,,,,,,,,,,,,,,,,717.0922332,None,,,,,,,,,,,,,,,,,discussion,161,23,sing,new,null,715.6685361,None,715.6685361,None,1,0.7217222,715.6685361,None,0.7217222,716.4094369,None,716.9153179,None,716.9153179,None,n,0.147032,716.9153179,None,0.147032,,,Sep02Sing2,39,2022_Sep_02_1355,ProdSingRedoBetween,2021.2.3,59.98195743
,,,,23,0,23,0,,,,,,,,,,,,,,,,,,,,,,719.0296564,None,,,,,,,,,,,,,,,,,skill,117,24,sing,new,null,717.5954454,None,717.5954454,None,1,0.7149318,717.5954454,None,0.7149318,718.3317963,None,718.8494505,None,718.8494505,None,n,0.1490751,718.8494505,None,0.1490751,,,Sep02Sing2,39,2022_Sep_02_1355,ProdSingRedoBetween,2021.2.3,59.98195743
,,,,24,0,24,0,,,,,,,,,,,,,,,,,,,,,,720.9292391,None,,,,,,,,,,,,,,,,,color,150,25,sing,new,null,719.5505347,None,719.5505347,None,1,0.743799,719.5505347,None,0.743799,720.3167719,None,720.8295454,None,720.8295454,None,n,0.0727196,720.8295454,None,0.0727196,,,Sep02Sing2,39,2022_Sep_02_1355,ProdSingRedoBetween,2021.2.3,59.98195743
,,,,25,0,25,0,,,,,,,,,,,,,,,,,,,,,,723.9185569,None,,,,,,,,,,,,,,,,,finish,12,26,sing,old,yellow,721.4363526,None,721.4363526,None,6,1.8979159,721.4363526,None,1.8979159,723.3663043,None,723.8713287,None,723.8713287,None,r,0.023112,723.8713287,None,0.023112,,,Sep02Sing2,39,2022_Sep_02_1355,ProdSingRedoBetween,2021.2.3,59.98195743
,,,,26,0,26,0,,,,,,,,,,,,,,,,,,,,,,726.3181759,None,,,,,,,,,,,,,,,,,instrument,18,27,sing,old,yellow,724.4437118,None,724.4437118,None,6,1.1705686,724.4437118,None,1.1705686,725.6341298,None,726.1383397,None,726.1383397,None,r,0.1559851,726.1383397,None,0.1559851,,,Sep02Sing2,39,2022_Sep_02_1355,ProdSingRedoBetween,2021.2.3,59.98195743
,,,,27,0,27,0,,,,,,,,,,,,,,,,,,,,,,729.9549787,None,,,,,,,,,,,,,,,,,raise,48,28,sing,old,blue,726.8264862,None,726.8264862,None,1,1.9558468,726.8264862,None,1.9558468,728.8074091,None,729.3211471,None,729.3211471,None,n,0.6051655,729.3211471,None,0.6051655,,,Sep02Sing2,39,2022_Sep_02_1355,ProdSingRedoBetween,2021.2.3,59.98195743
,,,,28,0,28,0,,,,,,,,,,,,,,,,,,,,,,732.158244,None,,,,,,,,,,,,,,,,,angle,108,29,sing,new,null,730.4602538,None,730.4602538,None,1,0.8741377,730.4602538,None,0.8741377,731.3622729,None,731.873778,None,731.873778,None,n,0.2524317,731.873778,None,0.2524317,,,Sep02Sing2,39,2022_Sep_02_1355,ProdSingRedoBetween,2021.2.3,59.98195743
,,,,29,0,29,0,,,,,,,,,,,,,,,,,,,,,,734.2266832,None,,,,,,,,,,,,,,,,,sleep,172,30,sing,new,null,732.6582037,None,732.6582037,None,1,0.8362904,732.6582037,None,0.8362904,733.5263609,None,734.0318312,None,734.0318312,None,n,0.1665034,734.0318312,None,0.1665034,,,Sep02Sing2,39,2022_Sep_02_1355,ProdSingRedoBetween,2021.2.3,59.98195743
,,,,30,0,30,0,,,,,,,,,,,,,,,,,,,,,,736.2469563,None,,,,,,,,,,,,,,,,,signal,137,31,sing,new,null,734.7344556,None,734.7344556,None,1,0.7838907,734.7344556,None,0.7838907,735.5452793,None,736.0524243,None,736.0524243,None,n,0.1620119,736.0524243,None,0.1620119,,,Sep02Sing2,39,2022_Sep_02_1355,ProdSingRedoBetween,2021.2.3,59.98195743
,,,,31,0,31,0,,,,,,,,,,,,,,,,,,,,,,739.047656,None,,,,,,,,,,,,,,,,,emergency,75,32,sing,old,red,736.7664386,None,736.7664386,None,6,1.6158977,736.7664386,None,1.6158977,738.4145786,None,738.9206491,None,738.9206491,None,r,0.1016415,738.9206491,None,0.1016415,,,Sep02Sing2,39,2022_Sep_02_1355,ProdSingRedoBetween,2021.2.3,59.98195743
,,,,32,0,32,0,,,,,,,,,,,,,,,,,,,,,,741.6499757,None,,,,,,,,,,,,,,,,,point,19,33,sing,old,yellow,739.5544933,None,739.5544933,None,1,1.3717878,739.5544933,None,1.3717878,740.9493202,None,741.4562298,None,741.4562298,None,n,0.1660229,741.4562298,None,0.1660229,,,Sep02Sing2,39,2022_Sep_02_1355,ProdSingRedoBetween,2021.2.3,59.98195743
,,,,33,0,33,0,,,,,,,,,,,,,,,,,,,,,,743.6353472,None,,,,,,,,,,,,,,,,,salary,143,34,sing,new,null,742.1605214,None,742.1605214,None,1,0.7737454,742.1605214,None,0.7737454,742.9527366,None,743.4562629,None,743.4562629,None,n,0.1501316,743.4562629,None,0.1501316,,,Sep02Sing2,39,2022_Sep_02_1355,ProdSingRedoBetween,2021.2.3,59.98195743
,,,,34,0,34,0,,,,,,,,,,,,,,,,,,,,,,745.4371885,None,,,,,,,,,,,,,,,,,brilliant,134,35,sing,new,null,744.1430743,None,744.1430743,None,1,0.5432495,744.1430743,None,0.5432495,744.7032752,None,745.2065802,None,745.2065802,None,n,0.1997104,745.2065802,None,0.1997104,,,Sep02Sing2,39,2022_Sep_02_1355,ProdSingRedoBetween,2021.2.3,59.98195743
,,,,35,0,35,0,,,,,,,,,,,,,,,,,,,,,,747.6059501,None,,,,,,,,,,,,,,,,,prime,68,36,sing,old,red,745.9448038,None,745.9448038,None,1,1.0535662,745.9448038,None,1.0535662,747.0272366,None,747.5394064,None,747.5394064,None,n,0.0508637,747.5394064,None,0.0508637,,,Sep02Sing2,39,2022_Sep_02_1355,ProdSingRedoBetween,2021.2.3,59.98195743
,,,,36,0,36,0,,,,,,,,,,,,,,,,,,,,,,749.741604,None,,,,,,,,,,,,,,,,,count,132,37,sing,new,null,748.1092628,None,748.1092628,None,1,1.0010901,748.1092628,None,1.0010901,749.1459686,None,749.6581909,None,749.6581909,None,n,0.068225,749.6581909,None,0.068225,,,Sep02Sing2,39,2022_Sep_02_1355,ProdSingRedoBetween,2021.2.3,59.98195743
,,,,37,0,37,0,,,,,,,,,,,,,,,,,,,,,,752.6109729,None,,,,,,,,,,,,,,,,,cousin,66,38,sing,old,red,750.2500458,None,750.2500458,None,6,1.4522316,750.2500458,None,1.4522316,751.7283019,None,752.2335387,None,752.2335387,None,r,0.3567485,752.2335387,None,0.3567485,,,Sep02Sing2,39,2022_Sep_02_1355,ProdSingRedoBetween,2021.2.3,59.98195743
,,,,38,0,38,0,,,,,,,,,,,,,,,,,,,,,,755.8331714,None,,,,,,,,,,,,,,,,,income,158,39,sing,new,null,753.1203854,None,753.1203854,None,1,2.1019321,753.1203854,None,2.1019321,755.2471602,None,755.7496508,None,755.7496508,None,n,0.0568423,755.7496508,None,0.0568423,,,Sep02Sing2,39,2022_Sep_02_1355,ProdSingRedoBetween,2021.2.3,59.98195743
,,,,39,0,39,0,,,,,,,,,,,,,,,,,,,,,,759.1508862,None,,,,,,,,,,,,,,,,,drove,10,40,sing,old,yellow,756.3554023,None,756.3554023,None,1,2.0751578,756.3554023,None,2.0751578,758.4580762,None,758.9674069,None,758.9674069,None,n,0.1589751,758.9674069,None,0.1589751,,,Sep02Sing2,39,2022_Sep_02_1355,ProdSingRedoBetween,2021.2.3,59.98195743
,,,,40,0,40,0,,,,,,,,,,,,,,,,,,,,,,762.0713341,None,,,,,,,,,,,,,,,,,opening,99,41,sing,new,null,759.6530301,None,759.6530301,None,1,1.6252761,759.6530301,None,1.6252761,761.3042127,None,761.8056314,None,761.8056314,None,n,0.2406077,761.8056314,None,0.2406077,,,Sep02Sing2,39,2022_Sep_02_1355,ProdSingRedoBetween,2021.2.3,59.98195743
,,,,41,0,41,0,,,,,,,,,,,,,,,,,,,,,,764.5229083,None,,,,,,,,,,,,,,,,,charter,92,42,sing,new,null,762.5712742,None,762.5712742,None,1,1.163061,762.5712742,None,1.163061,763.7554255,None,764.2588314,None,764.2588314,None,n,0.2354597,764.2588314,None,0.2354597,,,Sep02Sing2,39,2022_Sep_02_1355,ProdSingRedoBetween,2021.2.3,59.98195743
,,,,42,0,42,0,,,,,,,,,,,,,,,,,,,,,,766.5108247,None,,,,,,,,,,,,,,,,,height,126,43,sing,new,null,765.0296876,None,765.0296876,None,1,0.800602,765.0296876,None,0.800602,765.8604334,None,766.3750362,None,766.3750362,None,n,0.111297,766.3750362,None,0.111297,,,Sep02Sing2,39,2022_Sep_02_1355,ProdSingRedoBetween,2021.2.3,59.98195743
,,,,43,0,43,0,,,,,,,,,,,,,,,,,,,,,,768.4267544,None,,,,,,,,,,,,,,,,,gesture,152,44,sing,new,null,767.0372027,None,767.0372027,None,1,0.657195,767.0372027,None,0.657195,767.7155938,None,768.2266998,None,768.2266998,None,n,0.1716132,768.2266998,None,0.1716132,,,Sep02Sing2,39,2022_Sep_02_1355,ProdSingRedoBetween,2021.2.3,59.98195743
,,,,44,0,44,0,,,,,,,,,,,,,,,,,,,,,,770.5824251,None,,,,,,,,,,,,,,,,,throw,110,45,sing,new,null,768.9288848,None,768.9288848,None,1,0.8695257,768.9288848,None,0.8695257,769.8291985,None,770.331791,None,770.331791,None,n,0.2187215,770.331791,None,0.2187215,,,Sep02Sing2,39,2022_Sep_02_1355,ProdSingRedoBetween,2021.2.3,59.98195743
,,,,45,0,45,0,,,,,,,,,,,,,,,,,,,,,,773.2649224,None,,,,,,,,,,,,,,,,,murder,49,46,sing,old,blue,771.1128968,None,771.1128968,None,6,1.4534124,771.1128968,None,1.4534124,772.5976903,None,773.102054,None,773.102054,None,r,0.1361744,773.102054,None,0.1361744,,,Sep02Sing2,39,2022_Sep_02_1355,ProdSingRedoBetween,2021.2.3,59.98195743
,,,,46,0,46,0,,,,,,,,,,,,,,,,,,,,,,776.5348577,None,,,,,,,,,,,,,,,,,chief,77,47,sing,old,red,773.7768043,None,773.7768043,None,6,1.2375185,773.7768043,None,1.2375185,775.0338462,None,775.5339769,None,775.5339769,None,r,0.9842769,775.5339769,None,0.9842769,,,Sep02Sing2,39,2022_Sep_02_1355,ProdSingRedoBetween,2021.2.3,59.98195743
,,,,47,0,47,0,,,,,,,,,,,,,,,,,,,,,,780.9392873,None,,,,,,,,,,,,,,,,,production,138,48,sing,new,null,777.0442998,None,777.0442998,None,1,3.2740013,777.0442998,None,3.2740013,780.3399296,None,780.8455435,None,780.8455435,None,n,0.0727863,780.8455435,None,0.0727863,,,Sep02Sing2,39,2022_Sep_02_1355,ProdSingRedoBetween,2021.2.3,59.98195743
,,,,48,0,48,0,,,,,,,,,,,,,,,,,,,,,,783.0791049,None,,,,,,,,,,,,,,,,,research,59,49,sing,old,yellow,781.4472057,None,781.4472057,None,1,1.0709797,781.4472057,None,1.0709797,782.5410259,None,783.050745,None,783.050745,None,n,0.0035392,783.050745,None,0.0035392,,,Sep02Sing2,39,2022_Sep_02_1355,ProdSingRedoBetween,2021.2.3,59.98195743
,,,,49,0,49,0,,,,,,,,,,,,,,,,,,,,,,785.6625665,None,,,,,,,,,,,,,,,,,novel,11,50,sing,old,yellow,783.5920486,None,783.5920486,None,6,1.190212,783.5920486,None,1.190212,784.812427,None,785.3297868,None,785.3297868,None,r,0.3005769,785.3297868,None,0.3005769,,,Sep02Sing2,39,2022_Sep_02_1355,ProdSingRedoBetween,2021.2.3,59.98195743
,,,,50,0,50,0,,,,,,,,,,,,,,,,,,,,,,788.6803654,None,,,,,,,,,,,,,,,,,measure,23,51,sing,old,yellow,786.1959429,None,786.1959429,None,1,1.906345,786.1959429,None,1.906345,788.133141,None,788.6508745,None,788.6508745,None,n,0.0114139,788.6508745,None,0.0114139,,,Sep02Sing2,39,2022_Sep_02_1355,ProdSingRedoBetween,2021.2.3,59.98195743
,,,,51,0,51,0,,,,,,,,,,,,,,,,,,,,,,792.166981,None,,,,,,,,,,,,,,,,,sunset,1,52,sing,old,yellow,789.1899077,None,789.1899077,None,1,2.2563713,789.1899077,None,2.2563713,791.467595,None,791.9680195,None,791.9680195,None,n,0.1741688,791.9680195,None,0.1741688,,,Sep02Sing2,39,2022_Sep_02_1355,ProdSingRedoBetween,2021.2.3,59.98195743
,,,,52,0,52,0,,,,,,,,,,,,,,,,,,,,,,794.8031822,None,,,,,,,,,,,,,,,,,figure,111,53,sing,new,null,792.677147,None,792.677147,None,1,1.4251822,792.677147,None,1.4251822,794.12439,None,794.6419538,None,794.6419538,None,n,0.1403891,794.6419538,None,0.1403891,,,Sep02Sing2,39,2022_Sep_02_1355,ProdSingRedoBetween,2021.2.3,59.98195743
,,,,53,0,53,0,,,,,,,,,,,,,,,,,,,,,,796.7884331,None,,,,,,,,,,,,,,,,,course,140,54,sing,new,null,795.3075203,None,795.3075203,None,1,0.842775,795.3075203,None,0.842775,796.1724419,None,796.6718481,None,796.6718481,None,n,0.0865267,796.6718481,None,0.0865267,,,Sep02Sing2,39,2022_Sep_02_1355,ProdSingRedoBetween,2021.2.3,59.98195743
,,,,54,0,54,0,,,,,,,,,,,,,,,,,,,,,,799.4077157,None,,,,,,,,,,,,,,,,,substance,147,55,sing,new,null,797.300904,None,797.300904,None,1,1.4094035,797.300904,None,1.4094035,798.7439907,None,799.2577486,None,799.2577486,None,n,0.1245197,799.2577486,None,0.1245197,,,Sep02Sing2,39,2022_Sep_02_1355,ProdSingRedoBetween,2021.2.3,59.98195743
,,,,55,0,55,0,,,,,,,,,,,,,,,,,,,,,,802.2940264,None,,,,,,,,,,,,,,,,,breath,47,56,sing,old,blue,799.917698,None,799.917698,None,6,1.7206432,799.917698,None,1.7206432,801.6647497,None,802.1815422,None,802.1815422,None,r,0.0967347,802.1815422,None,0.0967347,,,Sep02Sing2,39,2022_Sep_02_1355,ProdSingRedoBetween,2021.2.3,59.98195743
,,,,56,0,56,0,,,,,,,,,,,,,,,,,,,,,,804.6823152,None,,,,,,,,,,,,,,,,,private,28,57,sing,old,yellow,802.7987822,None,802.7987822,None,1,1.1915835,802.7987822,None,1.1915835,804.0197289,None,804.5297487,None,804.5297487,None,n,0.1326195,804.5297487,None,0.1326195,,,Sep02Sing2,39,2022_Sep_02_1355,ProdSingRedoBetween,2021.2.3,59.98195743
,,,,57,0,57,0,,,,,,,,,,,,,,,,,,,,,,806.9986356,None,,,,,,,,,,,,,,,,,grade,24,58,sing,old,yellow,805.1991591,None,805.1991591,None,1,1.1512003,805.1991591,None,1.1512003,806.3863428,None,806.8985137,None,806.8985137,None,n,0.0757274,806.8985137,None,0.0757274,,,Sep02Sing2,39,2022_Sep_02_1355,ProdSingRedoBetween,2021.2.3,59.98195743
,,,,58,0,58,0,,,,,,,,,,,,,,,,,,,,,,809.8101726,None,,,,,,,,,,,,,,,,,right,42,59,sing,old,blue,807.5085013,None,807.5085013,None,1,1.2097258,807.5085013,None,1.2097258,808.734792,None,809.2385639,None,809.2385639,None,n,0.5441554,809.2385639,None,0.5441554,,,Sep02Sing2,39,2022_Sep_02_1355,ProdSingRedoBetween,2021.2.3,59.98195743
,,,,59,0,59,0,,,,,,,,,,,,,,,,,,,,,,812.7877117,None,,,,,,,,,,,,,,,,,produce,51,60,sing,old,blue,810.3215687,None,810.3215687,None,1,1.6849463,810.3215687,None,1.6849463,812.0417438,None,812.5621356,None,812.5621356,None,n,0.2042611,812.5621356,None,0.2042611,,,Sep02Sing2,39,2022_Sep_02_1355,ProdSingRedoBetween,2021.2.3,59.98195743
,,,,60,0,60,0,,,,,,,,,,,,,,,,,,,,,,815.4069942,None,,,,,,,,,,,,,,,,,shear,15,61,sing,old,yellow,813.2951621,None,813.2951621,None,6,1.5351537,813.2951621,None,1.5351537,814.8587711,None,815.3737452,None,815.3737452,None,r,0.0166083,815.3737452,None,0.0166083,,,Sep02Sing2,39,2022_Sep_02_1355,ProdSingRedoBetween,2021.2.3,59.98195743
,,,,61,0,61,0,,,,,,,,,,,,,,,,,,,,,,817.9429708,None,,,,,,,,,,,,,,,,,master,163,62,sing,new,null,815.9254462,None,815.9254462,None,1,1.3928188,815.9254462,None,1.3928188,817.3434922,None,817.8505149,None,817.8505149,None,n,0.0678425,817.8505149,None,0.0678425,,,Sep02Sing2,39,2022_Sep_02_1355,ProdSingRedoBetween,2021.2.3,59.98195743
,,,,62,0,62,0,,,,,,,,,,,,,,,,,,,,,,820.2786311,None,,,,,,,,,,,,,,,,,oxygen,131,63,sing,new,null,818.4549296,None,818.4549296,None,1,1.1754321,818.4549296,None,1.1754321,819.6622901,None,820.1652753,None,820.1652753,None,n,0.0890099,820.1652753,None,0.0890099,,,Sep02Sing2,39,2022_Sep_02_1355,ProdSingRedoBetween,2021.2.3,59.98195743
,,,,63,0,63,0,,,,,,,,,,,,,,,,,,,,,,822.4977151,None,,,,,,,,,,,,,,,,,crime,179,64,sing,new,null,820.7866065,None,820.7866065,None,1,1.0435795,820.7866065,None,1.0435795,821.848671,None,822.3639347,None,822.3639347,None,n,0.1062721,822.3639347,None,0.1062721,,,Sep02Sing2,39,2022_Sep_02_1355,ProdSingRedoBetween,2021.2.3,59.98195743
,,,,64,0,64,0,,,,,,,,,,,,,,,,,,,,,,824.249164,None,,,,,,,,,,,,,,,,,generation,155,65,sing,new,null,823.0115524,None,823.0115524,None,1,0.6347676,823.0115524,None,0.6347676,823.6664239,None,824.1659776,None,824.1659776,None,n,0.0562847,824.1659776,None,0.0562847,,,Sep02Sing2,39,2022_Sep_02_1355,ProdSingRedoBetween,2021.2.3,59.98195743
,,,,65,0,65,0,,,,,,,,,,,,,,,,,,,,,,827.3190024,None,,,,,,,,,,,,,,,,,suspect,127,66,sing,new,null,824.7577922,None,824.7577922,None,1,1.9284934,824.7577922,None,1.9284934,826.7029601,None,827.2087696,None,827.2087696,None,n,0.0934996,827.2087696,None,0.0934996,,,Sep02Sing2,39,2022_Sep_02_1355,ProdSingRedoBetween,2021.2.3,59.98195743
,,,,66,0,66,0,,,,,,,,,,,,,,,,,,,,,,829.3542694,None,,,,,,,,,,,,,,,,,council,16,67,sing,old,yellow,827.8197142,None,827.8197142,None,1,0.8585442,827.8197142,None,0.8585442,828.7036702,None,829.2043198,None,829.2043198,None,n,0.1300712,829.2043198,None,0.1300712,,,Sep02Sing2,39,2022_Sep_02_1355,ProdSingRedoBetween,2021.2.3,59.98195743
,,,,67,0,67,0,,,,,,,,,,,,,,,,,,,,,,831.0893449,None,,,,,,,,,,,,,,,,,management,91,68,sing,new,null,829.865434,None,829.865434,None,1,0.6368622,829.865434,None,0.6368622,830.5255584,None,831.0435631,None,831.0435631,None,n,0.0189537,831.0435631,None,0.0189537,,,Sep02Sing2,39,2022_Sep_02_1355,ProdSingRedoBetween,2021.2.3,59.98195743
,,,,68,0,68,0,,,,,,,,,,,,,,,,,,,,,,833.1360046,None,,,,,,,,,,,,,,,,,quick,115,69,sing,new,null,831.5900952,None,831.5900952,None,1,0.9521043,831.5900952,None,0.9521043,832.5742571,None,833.0851046,None,833.0851046,None,n,0.0174632,833.0851046,None,0.0174632,,,Sep02Sing2,39,2022_Sep_02_1355,ProdSingRedoBetween,2021.2.3,59.98195743
,,,,69,0,69,0,,,,,,,,,,,,,,,,,,,,,,835.2268447,None,,,,,,,,,,,,,,,,,under,30,70,sing,old,blue,833.6437031,None,833.6437031,None,1,0.9946699,833.6437031,None,0.9946699,834.6656204,None,835.1797603,None,835.1797603,None,n,0.0185172,835.1797603,None,0.0185172,,,Sep02Sing2,39,2022_Sep_02_1355,ProdSingRedoBetween,2021.2.3,59.98195743
,,,,70,0,70,0,,,,,,,,,,,,,,,,,,,,,,839.1829141,None,,,,,,,,,,,,,,,,,question,31,71,sing,old,blue,835.7360106,None,835.7360106,None,1,1.4382762,835.7360106,None,1.4382762,837.1980333,None,837.7128363,None,837.7128363,None,f,1.4456619,837.7128363,None,1.4456619,,,Sep02Sing2,39,2022_Sep_02_1355,ProdSingRedoBetween,2021.2.3,59.98195743
,,,,71,0,71,0,,,,,,,,,,,,,,,,,,,,,,842.2337884,None,,,,,,,,,,,,,,,,,number,95,72,sing,new,null,839.7040984,None,839.7040984,None,1,1.7741992,839.7040984,None,1.7741992,841.5007638,None,842.000395,None,842.000395,None,n,0.2058857,842.000395,None,0.2058857,,,Sep02Sing2,39,2022_Sep_02_1355,ProdSingRedoBetween,2021.2.3,59.98195743
,,,,72,0,72,0,,,,,,,,,,,,,,,,,,,,,,844.4026425,None,,,,,,,,,,,,,,,,,taste,165,73,sing,new,null,842.7349455,None,842.7349455,None,1,0.9193466,842.7349455,None,0.9193466,843.6884675,None,844.2025153,None,844.2025153,None,n,0.1717805,844.2025153,None,0.1717805,,,Sep02Sing2,39,2022_Sep_02_1355,ProdSingRedoBetween,2021.2.3,59.98195743
,,,,73,0,73,0,,,,,,,,,,,,,,,,,,,,,,847.0734727,None,,,,,,,,,,,,,,,,,sight,2,74,sing,old,yellow,844.9031449,None,844.9031449,None,1,1.1431517,844.9031449,None,1.1431517,846.0722309,None,846.5795112,None,846.5795112,None,n,0.4747772,846.5795112,None,0.4747772,,,Sep02Sing2,39,2022_Sep_02_1355,ProdSingRedoBetween,2021.2.3,59.98195743
,,,,74,0,74,0,,,,,,,,,,,,,,,,,,,,,,849.24092,None,,,,,,,,,,,,,,,,,sweet,123,75,sing,new,null,847.5770323,None,847.5770323,None,1,0.8772536,847.5770323,None,0.8772536,848.475572,None,848.9912742,None,848.9912742,None,n,0.2310378,848.9912742,None,0.2310378,,,Sep02Sing2,39,2022_Sep_02_1355,ProdSingRedoBetween,2021.2.3,59.98195743
,,,,75,0,75,0,,,,,,,,,,,,,,,,,,,,,,851.4096379,None,,,,,,,,,,,,,,,,,comfort,154,76,sing,new,null,849.7456869,None,849.7456869,None,1,0.8926194,849.7456869,None,0.8926194,850.6601193,None,851.1596437,None,851.1596437,None,n,0.2306556,851.1596437,None,0.2306556,,,Sep02Sing2,39,2022_Sep_02_1355,ProdSingRedoBetween,2021.2.3,59.98195743
,,,,76,0,76,0,,,,,,,,,,,,,,,,,,,,,,853.9621448,None,,,,,,,,,,,,,,,,,swift,45,77,sing,old,blue,851.9134988,None,851.9134988,None,6,1.3967184,851.9134988,None,1.3967184,853.3286079,None,853.8362096,None,853.8362096,None,r,0.0980672,853.8362096,None,0.0980672,,,Sep02Sing2,39,2022_Sep_02_1355,ProdSingRedoBetween,2021.2.3,59.98195743
,,,,77,0,77,0,,,,,,,,,,,,,,,,,,,,,,856.7316395,None,,,,,,,,,,,,,,,,,place,116,78,sing,new,null,854.4677273,None,854.4677273,None,1,1.2506033,854.4677273,None,1.2506033,855.7473015,None,856.251069,None,856.251069,None,n,0.4512891,856.251069,None,0.4512891,,,Sep02Sing2,39,2022_Sep_02_1355,ProdSingRedoBetween,2021.2.3,59.98195743
,,,,78,0,78,0,,,,,,,,,,,,,,,,,,,,,,860.2017411,None,,,,,,,,,,,,,,,,,treatment,39,79,sing,old,blue,857.2436603,None,857.2436603,None,1,2.0586529,857.2436603,None,2.0586529,859.3220759,None,859.8348638,None,859.8348638,None,n,0.3474418,859.8348638,None,0.3474418,,,Sep02Sing2,39,2022_Sep_02_1355,ProdSingRedoBetween,2021.2.3,59.98195743
,,,,79,0,79,0,,,,,,,,,,,,,,,,,,,,,,862.4040034,None,,,,,,,,,,,,,,,,,resistance,118,80,sing,new,null,860.7067129,None,860.7067129,None,1,0.9316518,860.7067129,None,0.9316518,861.6593496,None,862.1745615,None,862.1745615,None,n,0.2077179,862.1745615,None,0.2077179,,,Sep02Sing2,39,2022_Sep_02_1355,ProdSingRedoBetween,2021.2.3,59.98195743
,,,,80,0,80,0,,,,,,,,,,,,,,,,,,,,,,864.7062271,None,,,,,,,,,,,,,,,,,build,36,81,sing,old,blue,862.9101211,None,862.9101211,None,1,1.0321084,862.9101211,None,1.0321084,863.9723436,None,864.4754669,None,864.4754669,None,n,0.2108046,864.4754669,None,0.2108046,,,Sep02Sing2,39,2022_Sep_02_1355,ProdSingRedoBetween,2021.2.3,59.98195743
,,,,81,0,81,0,,,,,,,,,,,,,,,,,,,,,,866.7916776,None,,,,,,,,,,,,,,,,,damage,101,82,sing,new,null,865.2128171,None,865.2128171,None,1,0.9935483,865.2128171,None,0.9935483,866.2245384,None,866.7295385,None,866.7295385,None,n,0.0447484,866.7295385,None,0.0447484,,,Sep02Sing2,39,2022_Sep_02_1355,ProdSingRedoBetween,2021.2.3,59.98195743
,,,,82,0,82,0,,,,,,,,,,,,,,,,,,,,,,868.6614155,None,,,,,,,,,,,,,,,,,theme,112,83,sing,new,null,867.3001421,None,867.3001421,None,1,0.6261059,867.3001421,None,0.6261059,867.9440433,None,868.4532678,None,868.4532678,None,n,0.1850488,868.4532678,None,0.1850488,,,Sep02Sing2,39,2022_Sep_02_1355,ProdSingRedoBetween,2021.2.3,59.98195743
,,,,83,0,83,0,,,,,,,,,,,,,,,,,,,,,,870.5454524,None,,,,,,,,,,,,,,,,,broke,164,84,sing,new,null,869.1714405,None,869.1714405,None,1,0.6749173,869.1714405,None,0.6749173,869.8626696,None,870.3661488,None,870.3661488,None,n,0.1520657,870.3661488,None,0.1520657,,,Sep02Sing2,39,2022_Sep_02_1355,ProdSingRedoBetween,2021.2.3,59.98195743
,,,,84,0,84,0,,,,,,,,,,,,,,,,,,,,,,874.6500778,None,,,,,,,,,,,,,,,,,burden,37,85,sing,old,blue,871.0541416,None,871.0541416,None,6,1.5201274,871.0541416,None,1.5201274,872.602093,None,873.1150094,None,873.1150094,None,f,1.5072285,873.1150094,None,1.5072285,,,Sep02Sing2,39,2022_Sep_02_1355,ProdSingRedoBetween,2021.2.3,59.98195743
,,,,85,0,85,0,,,,,,,,,,,,,,,,,,,,,,876.9852398,None,,,,,,,,,,,,,,,,,individual,142,86,sing,new,null,875.1617542,None,875.1617542,None,1,1.1645111,875.1617542,None,1.1645111,876.3548519,None,876.8685664,None,876.8685664,None,n,0.0979357,876.8685664,None,0.0979357,,,Sep02Sing2,39,2022_Sep_02_1355,ProdSingRedoBetween,2021.2.3,59.98195743
,,,,86,0,86,0,,,,,,,,,,,,,,,,,,,,,,878.9538512,None,,,,,,,,,,,,,,,,,budget,129,87,sing,new,null,877.4959482,None,877.4959482,None,1,0.8782973,877.4959482,None,0.8782973,878.403314,None,878.9080036,None,878.9080036,None,n,0.0184724,878.9080036,None,0.0184724,,,Sep02Sing2,39,2022_Sep_02_1355,ProdSingRedoBetween,2021.2.3,59.98195743
,,,,87,0,87,0,,,,,,,,,,,,,,,,,,,,,,881.373076,None,,,,,,,,,,,,,,,,,scale,64,88,sing,old,red,879.4571628,None,879.4571628,None,1,0.8531386,879.4571628,None,0.8531386,880.339684,None,880.8448633,None,880.8448633,None,n,0.5054361,880.8448633,None,0.5054361,,,Sep02Sing2,39,2022_Sep_02_1355,ProdSingRedoBetween,2021.2.3,59.98195743
,,,,88,0,88,0,,,,,,,,,,,,,,,,,,,,,,883.3915953,None,,,,,,,,,,,,,,,,,minor,94,89,sing,new,null,881.8758501,None,881.8758501,None,1,0.8344187,881.8758501,None,0.8344187,882.7416535,None,883.2472282,None,883.2472282,None,n,0.1270223,883.2472282,None,0.1270223,,,Sep02Sing2,39,2022_Sep_02_1355,ProdSingRedoBetween,2021.2.3,59.98195743
,,,,89,0,89,0,,,,,,,,,,,,,,,,,,,,,,885.7478283,None,,,,,,,,,,,,,,,,,mechanical,61,90,sing,old,red,883.9009088,None,883.9009088,None,1,1.1373345,883.9009088,None,1.1373345,885.0599326,None,885.565335,None,885.565335,None,n,0.1610986,885.565335,None,0.1610986,,,Sep02Sing2,39,2022_Sep_02_1355,ProdSingRedoBetween,2021.2.3,59.98195743
,,,,90,0,90,0,,,,,,,,,,,,,,,,,,,,,,887.9169697,None,,,,,,,,,,,,,,,,,thing,168,91,sing,new,null,886.2664601,None,886.2664601,None,1,0.8437488,886.2664601,None,0.8437488,887.1287098,None,887.6326832,None,887.6326832,None,n,0.2616922,887.6326832,None,0.2616922,,,Sep02Sing2,39,2022_Sep_02_1355,ProdSingRedoBetween,2021.2.3,59.98195743
,,,,91,0,91,0,,,,,,,,,,,,,,,,,,,,,,890.8333502,None,,,,,,,,,,,,,,,,,health,5,92,sing,old,yellow,888.4343661,None,888.4343661,None,1,1.6039649,888.4343661,None,1.6039649,890.0649398,None,890.5695179,None,890.5695179,None,n,0.2367928,890.5695179,None,0.2367928,,,Sep02Sing2,39,2022_Sep_02_1355,ProdSingRedoBetween,2021.2.3,59.98195743
,,,,92,0,92,0,,,,,,,,,,,,,,,,,,,,,,892.7842501,None,,,,,,,,,,,,,,,,,rough,113,93,sing,new,null,891.3447566,None,891.3447566,None,1,0.6695397,891.3447566,None,0.6695397,892.0362292,None,892.5509069,None,892.5509069,None,n,0.2073239,892.5509069,None,0.2073239,,,Sep02Sing2,39,2022_Sep_02_1355,ProdSingRedoBetween,2021.2.3,59.98195743
,,,,93,0,93,0,,,,,,,,,,,,,,,,,,,,,,895.8373485,None,,,,,,,,,,,,,,,,,danger,32,94,sing,old,blue,893.2928351,None,893.2928351,None,1,1.6814293,893.2928351,None,1.6814293,895.0035481,None,895.5052305,None,895.5052305,None,n,0.3091304,895.5052305,None,0.3091304,,,Sep02Sing2,39,2022_Sep_02_1355,ProdSingRedoBetween,2021.2.3,59.98195743
,,,,94,0,94,0,,,,,,,,,,,,,,,,,,,,,,898.4929081,None,,,,,,,,,,,,,,,,,author,80,95,sing,old,red,896.3465502,None,896.3465502,None,6,1.4837892,896.3465502,None,1.4837892,897.8607395,None,898.3743128,None,898.3743128,None,r,0.0960873,898.3743128,None,0.0960873,,,Sep02Sing2,39,2022_Sep_02_1355,ProdSingRedoBetween,2021.2.3,59.98195743
,,,,95,0,95,0,,,,,,,,,,,,,,,,,,,,,,901.7098833,None,,,,,,,,,,,,,,,,,mayor,139,96,sing,new,null,899.0133466,None,899.0133466,None,1,1.6329125,899.0133466,None,1.6329125,900.6764581,None,901.1807711,None,901.1807711,None,n,0.5135716,901.1807711,None,0.5135716,,,Sep02Sing2,39,2022_Sep_02_1355,ProdSingRedoBetween,2021.2.3,59.98195743
,,,,96,0,96,0,,,,,,,,,,,,,,,,,,,,,,903.7953055,None,,,,,,,,,,,,,,,,,length,53,97,sing,old,blue,902.2187878,None,902.2187878,None,1,0.8115454,902.2187878,None,0.8115454,903.0630409,None,903.578567,None,903.578567,None,n,0.1878365,903.578567,None,0.1878365,,,Sep02Sing2,39,2022_Sep_02_1355,ProdSingRedoBetween,2021.2.3,59.98195743
,,,,97,0,97,0,,,,,,,,,,,,,,,,,,,,,,906.2144171,None,,,,,,,,,,,,,,,,,appeal,104,98,sing,new,null,904.3014884,None,904.3014884,None,1,1.3447164,904.3014884,None,1.3447164,905.6651923,None,906.1646544,None,906.1646544,None,n,0.0254996,906.1646544,None,0.0254996,,,Sep02Sing2,39,2022_Sep_02_1355,ProdSingRedoBetween,2021.2.3,59.98195743
,,,,98,0,98,0,,,,,,,,,,,,,,,,,,,,,,908.5334663,None,,,,,,,,,,,,,,,,,payment,171,99,sing,new,null,906.7170207,None,906.7170207,None,1,0.7534306,906.7170207,None,0.7534306,907.5090078,None,908.0164396,None,908.0164396,None,n,0.5018374,908.0164396,None,0.5018374,,,Sep02Sing2,39,2022_Sep_02_1355,ProdSingRedoBetween,2021.2.3,59.98195743
,,,,99,0,99,0,,,,,,,,,,,,,,,,,,,,,,912.8042946,None,,,,,,,,,,,,,,,,,territory,89,100,sing,old,red,909.0419098,None,909.0419098,None,4,2.588365,909.0419098,None,2.588365,911.6543381,None,912.1538539,None,912.1538539,None,f,0.6283918,912.1538539,None,0.6283918,,,Sep02Sing2,39,2022_Sep_02_1355,ProdSingRedoBetween,2021.2.3,59.98195743
,,,,100,0,100,0,,,,,,,,,,,,,,,,,,,,,,915.5071003,None,,,,,,,,,,,,,,,,,poetry,119,101,sing,new,null,913.3212007,None,913.3212007,None,1,1.3653884,913.3212007,None,1.3653884,914.7151012,None,915.2251918,None,915.2251918,None,n,0.2531341,915.2251918,None,0.2531341,,,Sep02Sing2,39,2022_Sep_02_1355,ProdSingRedoBetween,2021.2.3,59.98195743
,,,,101,0,101,0,,,,,,,,,,,,,,,,,,,,,,918.0428805,None,,,,,,,,,,,,,,,,,husband,86,102,sing,old,red,916.0177411,None,916.0177411,None,6,1.2525167,916.0177411,None,1.2525167,917.2935354,None,917.7968988,None,917.7968988,None,r,0.2254005,917.7968988,None,0.2254005,,,Sep02Sing2,39,2022_Sep_02_1355,ProdSingRedoBetween,2021.2.3,59.98195743
,,,,102,0,102,0,,,,,,,,,,,,,,,,,,,,,,920.4619055,None,,,,,,,,,,,,,,,,,bucket,79,103,sing,old,red,918.5472097,None,918.5472097,None,6,1.1870385,918.5472097,None,1.1870385,919.7622193,None,920.2647395,None,920.2647395,None,r,0.1735292,920.2647395,None,0.1735292,,,Sep02Sing2,39,2022_Sep_02_1355,ProdSingRedoBetween,2021.2.3,59.98195743
,,,,103,0,103,0,,,,,,,,,,,,,,,,,,,,,,923.8488178,None,,,,,,,,,,,,,,,,,season,52,104,sing,old,blue,920.9712338,None,920.9712338,None,4,2.067003,920.9712338,None,2.067003,923.0662477,None,923.5819221,None,923.5819221,None,f,0.2482963,923.5819221,None,0.2482963,,,Sep02Sing2,39,2022_Sep_02_1355,ProdSingRedoBetween,2021.2.3,59.98195743
,,,,104,0,104,0,,,,,,,,,,,,,,,,,,,,,,926.4345536,None,,,,,,,,,,,,,,,,,evidence,102,105,sing,new,null,924.3596154,None,924.3596154,None,1,1.2946278,924.3596154,None,1.2946278,925.6852405,None,926.1865373,None,926.1865373,None,n,0.2197446,926.1865373,None,0.2197446,,,Sep02Sing2,39,2022_Sep_02_1355,ProdSingRedoBetween,2021.2.3,59.98195743
,,,,105,0,105,0,,,,,,,,,,,,,,,,,,,,,,928.4700247,None,,,,,,,,,,,,,,,,,group,57,106,sing,old,blue,926.9382441,None,926.9382441,None,1,0.8441053,926.9382441,None,0.8441053,927.8078047,None,928.3199666,None,928.3199666,None,n,0.1342164,928.3199666,None,0.1342164,,,Sep02Sing2,39,2022_Sep_02_1355,ProdSingRedoBetween,2021.2.3,59.98195743
,,,,106,0,106,0,,,,,,,,,,,,,,,,,,,,,,931.1245793,None,,,,,,,,,,,,,,,,,surprise,93,107,sing,new,null,928.9833576,None,928.9833576,None,1,1.4549017,928.9833576,None,1.4549017,930.4600975,None,930.9860147,None,930.9860147,None,n,0.116347,930.9860147,None,0.116347,,,Sep02Sing2,39,2022_Sep_02_1355,ProdSingRedoBetween,2021.2.3,59.98195743
,,,,107,0,107,0,,,,,,,,,,,,,,,,,,,,,,933.5084112,None,,,,,,,,,,,,,,,,,thick,100,108,sing,new,null,931.6410356,None,931.6410356,None,1,1.1092187,931.6410356,None,1.1092187,932.7757275,None,933.2805649,None,933.2805649,None,n,0.2058162,933.2805649,None,0.2058162,,,Sep02Sing2,39,2022_Sep_02_1355,ProdSingRedoBetween,2021.2.3,59.98195743
,,,,108,0,108,0,,,,,,,,,,,,,,,,,,,,,,936.4778803,None,,,,,,,,,,,,,,,,,touch,125,109,sing,new,null,934.00914,None,934.00914,None,1,1.8051241,934.00914,None,1.8051241,935.8440143,None,936.3486264,None,936.3486264,None,n,0.1137021,936.3486264,None,0.1137021,,,Sep02Sing2,39,2022_Sep_02_1355,ProdSingRedoBetween,2021.2.3,59.98195743
,,,,109,0,109,0,,,,,,,,,,,,,,,,,,,,,,938.5967421,None,,,,,,,,,,,,,,,,,minute,148,110,sing,new,null,936.9801746,None,936.9801746,None,1,0.8981067,936.9801746,None,0.8981067,937.9016192,None,938.4162925,None,938.4162925,None,n,0.1579828,938.4162925,None,0.1579828,,,Sep02Sing2,39,2022_Sep_02_1355,ProdSingRedoBetween,2021.2.3,59.98195743
,,,,110,0,110,0,,,,,,,,,,,,,,,,,,,,,,940.9491261,None,,,,,,,,,,,,,,,,,listen,46,111,sing,old,blue,939.1100653,None,939.1100653,None,1,1.1922406,939.1100653,None,1.1922406,940.3363883,None,940.8498678,None,940.8498678,None,n,0.0683755,940.8498678,None,0.0683755,,,Sep02Sing2,39,2022_Sep_02_1355,ProdSingRedoBetween,2021.2.3,59.98195743
,,,,111,0,111,0,,,,,,,,,,,,,,,,,,,,,,943.2682679,None,,,,,,,,,,,,,,,,,dozen,20,112,sing,old,yellow,941.4570163,None,941.4570163,None,1,1.0612315,941.4570163,None,1.0612315,942.5413152,None,943.0513175,None,943.0513175,None,n,0.1950471,943.0513175,None,0.1950471,,,Sep02Sing2,39,2022_Sep_02_1355,ProdSingRedoBetween,2021.2.3,59.98195743
,,,,112,0,112,0,,,,,,,,,,,,,,,,,,,,,,945.9207127,None,,,,,,,,,,,,,,,,,region,58,113,sing,old,blue,943.7744581,None,943.7744581,None,1,1.4877996,943.7744581,None,1.4877996,945.286702,None,945.7873519,None,945.7873519,None,n,0.1070439,945.7873519,None,0.1070439,,,Sep02Sing2,39,2022_Sep_02_1355,ProdSingRedoBetween,2021.2.3,59.98195743
,,,,113,0,113,0,,,,,,,,,,,,,,,,,,,,,,948.9905286,None,,,,,,,,,,,,,,,,,shape,170,114,sing,new,null,946.4306643,None,946.4306643,None,1,1.5676061,946.4306643,None,1.5676061,948.024124,None,948.5296287,None,948.5296287,None,n,0.4367622,948.5296287,None,0.4367622,,,Sep02Sing2,39,2022_Sep_02_1355,ProdSingRedoBetween,2021.2.3,59.98195743
,,,,114,0,114,0,,,,,,,,,,,,,,,,,,,,,,951.9460159,None,,,,,,,,,,,,,,,,,harmony,54,115,sing,old,blue,949.4937015,None,949.4937015,None,1,1.7925868,949.4937015,None,1.7925868,951.3128873,None,951.8289795,None,951.8289795,None,n,0.0894022,951.8289795,None,0.0894022,,,Sep02Sing2,39,2022_Sep_02_1355,ProdSingRedoBetween,2021.2.3,59.98195743
,,,,115,0,115,0,,,,,,,,,,,,,,,,,,,,,,953.9479613,None,,,,,,,,,,,,,,,,,quantity,83,116,sing,old,red,952.4628596,None,952.4628596,None,1,0.7914874,952.4628596,None,0.7914874,953.2797572,None,953.7858337,None,953.7858337,None,n,0.1325293,953.7858337,None,0.1325293,,,Sep02Sing2,39,2022_Sep_02_1355,ProdSingRedoBetween,2021.2.3,59.98195743
,,,,116,0,116,0,,,,,,,,,,,,,,,,,,,,,,955.9641444,None,,,,,,,,,,,,,,,,,defeat,6,117,sing,old,yellow,954.4759446,None,954.4759446,None,1,0.7224111,954.4759446,None,0.7224111,955.214626,None,955.7181076,None,955.7181076,None,n,0.2242381,955.7181076,None,0.2242381,,,Sep02Sing2,39,2022_Sep_02_1355,ProdSingRedoBetween,2021.2.3,59.98195743
,,,,117,0,117,0,,,,,,,,,,,,,,,,,,,,,,958.7354037,None,,,,,,,,,,,,,,,,,interview,25,118,sing,old,yellow,956.4787032,None,956.4787032,None,1,1.5835784,956.4787032,None,1.5835784,958.082926,None,958.5858435,None,958.5858435,None,n,0.1325468,958.5858435,None,0.1325468,,,Sep02Sing2,39,2022_Sep_02_1355,ProdSingRedoBetween,2021.2.3,59.98195743
,,,,118,0,118,0,,,,,,,,,,,,,,,,,,,,,,961.2865778,None,,,,,,,,,,,,,,,,,fashion,177,119,sing,new,null,959.2602073,None,959.2602073,None,1,1.4420509,959.2602073,None,1.4420509,960.7200066,None,961.225115,None,961.225115,None,n,0.0374986,961.225115,None,0.0374986,,,Sep02Sing2,39,2022_Sep_02_1355,ProdSingRedoBetween,2021.2.3,59.98195743
,,,,119,0,119,0,,,,,,,,,,,,,,,,,,,,,,963.9552948,None,,,,,,,,,,,,,,,,,trash,78,120,sing,old,red,961.7959658,None,961.7959658,None,6,1.3863509,961.7959658,None,1.3863509,963.2111027,None,963.7223671,None,963.7223671,None,r,0.2117744,963.7223671,None,0.2117744,,,Sep02Sing2,39,2022_Sep_02_1355,ProdSingRedoBetween,2021.2.3,59.98195743
,,,,120,0,120,0,,,,,,,,,,,,,,,,,,,,,,966.1408857,None,,,,,,,,,,,,,,,,,conference,156,121,sing,new,null,964.4725476,None,964.4725476,None,1,1.1097022,964.4725476,None,1.1097022,965.6083696,None,966.1114219,None,966.1114219,None,n,0.0069016,966.1114219,None,0.0069016,,,Sep02Sing2,39,2022_Sep_02_1355,ProdSingRedoBetween,2021.2.3,59.98195743
,,,,121,0,121,0,,,,,,,,,,,,,,,,,,,,,,968.4932262,None,,,,,,,,,,,,,,,,,patient,35,122,sing,old,blue,966.6487716,None,966.6487716,None,1,1.2133477,966.6487716,None,1.2133477,967.8930695,None,968.3933408,None,968.3933408,None,n,0.0689751,968.3933408,None,0.0689751,,,Sep02Sing2,39,2022_Sep_02_1355,ProdSingRedoBetween,2021.2.3,59.98195743
,,,,122,0,122,0,,,,,,,,,,,,,,,,,,,,,,972.2970358,None,,,,,,,,,,,,,,,,,power,74,123,sing,old,red,969.0034054,None,969.0034054,None,3,2.4428207,969.0034054,None,2.4428207,971.4690644,None,971.9802221,None,971.9802221,None,f,0.2899359,971.9802221,None,0.2899359,,,Sep02Sing2,39,2022_Sep_02_1355,ProdSingRedoBetween,2021.2.3,59.98195743
,,,,123,0,123,0,,,,,,,,,,,,,,,,,,,,,,974.5826949,None,,,,,,,,,,,,,,,,,expansion,130,124,sing,new,null,972.804807,None,972.804807,None,1,1.0575138,972.804807,None,1.0575138,973.8868107,None,974.3993698,None,974.3993698,None,n,0.1669345,974.3993698,None,0.1669345,,,Sep02Sing2,39,2022_Sep_02_1355,ProdSingRedoBetween,2021.2.3,59.98195743
,,,,124,0,124,0,,,,,,,,,,,,,,,,,,,,,,977.1862395,None,,,,,,,,,,,,,,,,,welcome,9,125,sing,old,yellow,975.0869057,None,975.0869057,None,6,1.4953912,975.0869057,None,1.4953912,976.6046216,None,977.120429,None,977.120429,None,r,0.0458184,977.120429,None,0.0458184,,,Sep02Sing2,39,2022_Sep_02_1355,ProdSingRedoBetween,2021.2.3,59.98195743
,,,,125,0,125,0,,,,,,,,,,,,,,,,,,,,,,980.4051601,None,,,,,,,,,,,,,,,,,court,65,126,sing,old,red,977.7008905,None,977.7008905,None,1,1.6413837,977.7008905,None,1.6413837,979.3737561,None,979.888114,None,979.888114,None,n,0.4861101,979.888114,None,0.4861101,,,Sep02Sing2,39,2022_Sep_02_1355,ProdSingRedoBetween,2021.2.3,59.98195743
,,,,126,0,126,0,,,,,,,,,,,,,,,,,,,,,,982.7076346,None,,,,,,,,,,,,,,,,,country,22,127,sing,old,yellow,980.9087091,None,980.9087091,None,1,1.0336235,980.9087091,None,1.0336235,981.9743424,None,982.4805403,None,982.4805403,None,n,0.1977785,982.4805403,None,0.1977785,,,Sep02Sing2,39,2022_Sep_02_1355,ProdSingRedoBetween,2021.2.3,59.98195743
,,,,127,0,127,0,,,,,,,,,,,,,,,,,,,,,,986.2943702,None,,,,,,,,,,,,,,,,,scene,159,128,sing,new,null,983.2154427,None,983.2154427,None,1,2.0868072,983.2154427,None,2.0868072,985.3279904,None,985.833831,None,985.833831,None,n,0.4364103,985.833831,None,0.4364103,,,Sep02Sing2,39,2022_Sep_02_1355,ProdSingRedoBetween,2021.2.3,59.98195743
,,,,128,0,128,0,,,,,,,,,,,,,,,,,,,,,,988.397162,None,,,,,,,,,,,,,,,,,crisis,3,129,sing,old,yellow,986.8071994,None,986.8071994,None,1,0.7991443,986.8071994,None,0.7991443,987.6304243,None,988.1297129,None,988.1297129,None,n,0.2366102,988.1297129,None,0.2366102,,,Sep02Sing2,39,2022_Sep_02_1355,ProdSingRedoBetween,2021.2.3,59.98195743
,,,,129,0,129,0,,,,,,,,,,,,,,,,,,,,,,991.4829026,None,,,,,,,,,,,,,,,,,solution,124,130,sing,new,null,988.9013171,None,988.9013171,None,1,1.6169832,988.9013171,None,1.6169832,990.5541798,None,991.0699057,None,991.0699057,None,n,0.3923588,991.0699057,None,0.3923588,,,Sep02Sing2,39,2022_Sep_02_1355,ProdSingRedoBetween,2021.2.3,59.98195743
,,,,130,0,130,0,,,,,,,,,,,,,,,,,,,,,,994.5038062,None,,,,,,,,,,,,,,,,,election,166,131,sing,new,null,991.9959413,None,991.9959413,None,1,1.6102892,991.9959413,None,1.6102892,993.6350599,None,994.1411608,None,994.1411608,None,n,0.3452933,994.1411608,None,0.3452933,,,Sep02Sing2,39,2022_Sep_02_1355,ProdSingRedoBetween,2021.2.3,59.98195743
,,,,131,0,131,0,,,,,,,,,,,,,,,,,,,,,,997.2930778,None,,,,,,,,,,,,,,,,,piece,76,132,sing,old,red,995.0125122,None,995.0125122,None,1,1.5299123,995.0125122,None,1.5299123,996.5773394,None,997.0935071,None,997.0935071,None,n,0.1769817,997.0935071,None,0.1769817,,,Sep02Sing2,39,2022_Sep_02_1355,ProdSingRedoBetween,2021.2.3,59.98195743
,,,,132,0,132,0,,,,,,,,,,,,,,,,,,,,,,999.3740853,None,,,,,,,,,,,,,,,,,spoke,56,133,sing,old,blue,997.816611,None,997.816611,None,1,0.7496622,997.816611,None,0.7496622,998.5949631,None,999.1135224,None,999.1135224,None,n,0.2368324,999.1135224,None,0.2368324,,,Sep02Sing2,39,2022_Sep_02_1355,ProdSingRedoBetween,2021.2.3,59.98195743
,,,,133,0,133,0,,,,,,,,,,,,,,,,,,,,,,1002.061417,None,,,,,,,,,,,,,,,,,drink,26,134,sing,old,yellow,999.876336,None,999.876336,None,1,1.5139524,999.876336,None,1.5139524,1001.413415,None,1001.926807,None,1001.926807,None,n,0.1113647,1001.926807,None,0.1113647,,,Sep02Sing2,39,2022_Sep_02_1355,ProdSingRedoBetween,2021.2.3,59.98195743
,,,,134,0,134,0,,,,,,,,,,,,,,,,,,,,,,1004.313731,None,,,,,,,,,,,,,,,,,tough,128,135,sing,new,null,1002.56074,None,1002.56074,None,1,0.7975387,1002.56074,None,0.7975387,1003.37914,None,1003.878779,None,1003.878779,None,n,0.415665,1003.878779,None,0.415665,,,Sep02Sing2,39,2022_Sep_02_1355,ProdSingRedoBetween,2021.2.3,59.98195743
,,,,135,0,135,0,,,,,,,,,,,,,,,,,,,,,,1006.648094,None,,,,,,,,,,,,,,,,,front,107,136,sing,new,null,1004.817092,None,1004.817092,None,1,0.7812446,1004.817092,None,0.7812446,1005.615008,None,1006.118947,None,1006.118947,None,n,0.5112238,1006.118947,None,0.5112238,,,Sep02Sing2,39,2022_Sep_02_1355,ProdSingRedoBetween,2021.2.3,59.98195743
,,,,136,0,136,0,,,,,,,,,,,,,,,,,,,,,,1008.883611,None,,,,,,,,,,,,,,,,,incident,50,137,sing,old,blue,1007.155166,None,1007.155166,None,1,1.0511234,1007.155166,None,1.0511234,1008.237906,None,1008.750316,None,1008.750316,None,n,0.1040078,1008.750316,None,0.1040078,,,Sep02Sing2,39,2022_Sep_02_1355,ProdSingRedoBetween,2021.2.3,59.98195743
,,,,137,0,137,0,,,,,,,,,,,,,,,,,,,,,,1011.155642,None,,,,,,,,,,,,,,,,,straight,44,138,sing,old,blue,1009.386889,None,1009.386889,None,1,0.9312992,1009.386889,None,0.9312992,1010.336308,None,1010.839643,None,1010.839643,None,n,0.2867401,1010.839643,None,0.2867401,,,Sep02Sing2,39,2022_Sep_02_1355,ProdSingRedoBetween,2021.2.3,59.98195743
,,,,138,0,138,0,,,,,,,,,,,,,,,,,,,,,,1013.588282,None,,,,,,,,,,,,,,,,,working,90,139,sing,new,null,1011.678282,None,1011.678282,None,1,1.0798533,1011.678282,None,1.0798533,1012.791998,None,1013.305052,None,1013.305052,None,n,0.2611753,1013.305052,None,0.2611753,,,Sep02Sing2,39,2022_Sep_02_1355,ProdSingRedoBetween,2021.2.3,59.98195743
,,,,139,0,139,0,,,,,,,,,,,,,,,,,,,,,,1015.790551,None,,,,,,,,,,,,,,,,,beauty,38,140,sing,old,blue,1014.091798,None,1014.091798,None,1,0.9143912,1014.091798,None,0.9143912,1015.024397,None,1015.529812,None,1015.529812,None,n,0.236431,1015.529812,None,0.236431,,,Sep02Sing2,39,2022_Sep_02_1355,ProdSingRedoBetween,2021.2.3,59.98195743
,,,,140,0,140,0,,,,,,,,,,,,,,,,,,,,,,1017.709088,None,,,,,,,,,,,,,,,,,school,169,141,sing,new,null,1016.295831,None,1016.295831,None,1,0.6783544,1016.295831,None,0.6783544,1016.993274,None,1017.498017,None,1017.498017,None,n,0.1962943,1017.498017,None,0.1962943,,,Sep02Sing2,39,2022_Sep_02_1355,ProdSingRedoBetween,2021.2.3,59.98195743
,,,,141,0,141,0,,,,,,,,,,,,,,,,,,,,,,1020.16168,None,,,,,,,,,,,,,,,,,public,29,142,sing,old,blue,1018.222747,None,1018.222747,None,1,1.1675092,1018.222747,None,1.1675092,1019.411932,None,1019.917663,None,1019.917663,None,n,0.2246038,1019.917663,None,0.2246038,,,Sep02Sing2,39,2022_Sep_02_1355,ProdSingRedoBetween,2021.2.3,59.98195743
,,,,142,0,142,0,,,,,,,,,,,,,,,,,,,,,,1023.564965,None,,,,,,,,,,,,,,,,,turkey,4,143,sing,old,yellow,1020.665505,None,1020.665505,None,3,2.2127399,1020.665505,None,2.2127399,1022.899204,None,1023.41512,None,1023.41512,None,f,0.1190434,1023.41512,None,0.1190434,,,Sep02Sing2,39,2022_Sep_02_1355,ProdSingRedoBetween,2021.2.3,59.98195743
,,,,143,0,143,0,,,,,,,,,,,,,,,,,,,,,,1026.385528,None,,,,,,,,,,,,,,,,,style,162,144,sing,new,null,1024.066682,None,1024.066682,None,1,1.563564,1024.066682,None,1.563564,1025.651603,None,1026.157355,None,1026.157355,None,n,0.2088819,1026.157355,None,0.2088819,,,Sep02Sing2,39,2022_Sep_02_1355,ProdSingRedoBetween,2021.2.3,59.98195743
,,,,144,0,144,0,,,,,,,,,,,,,,,,,,,,,,1028.472928,None,,,,,,,,,,,,,,,,,running,173,145,sing,new,null,1026.887735,None,1026.887735,None,1,0.750697,1026.887735,None,0.750697,1027.671389,None,1028.190254,None,1028.190254,None,n,0.2478665,1028.190254,None,0.2478665,,,Sep02Sing2,39,2022_Sep_02_1355,ProdSingRedoBetween,2021.2.3,59.98195743
,,,,145,0,145,0,,,,,,,,,,,,,,,,,,,,,,1030.355059,None,,,,,,,,,,,,,,,,,match,151,146,sing,new,null,1028.988733,None,1028.988733,None,1,0.6335393,1028.988733,None,0.6335393,1029.645814,None,1030.157845,None,1030.157845,None,n,0.168471,1030.157845,None,0.168471,,,Sep02Sing2,39,2022_Sep_02_1355,ProdSingRedoBetween,2021.2.3,59.98195743
,,,,146,0,146,0,,,,,,,,,,,,,,,,,,,,,,1033.458343,None,,,,,,,,,,,,,,,,,department,176,147,sing,new,null,1030.859239,None,1030.859239,None,3,1.8909972,1030.859239,None,1.8909972,1032.775688,None,1033.274764,None,1033.274764,None,f,0.1635237,1033.274764,None,0.1635237,,,Sep02Sing2,39,2022_Sep_02_1355,ProdSingRedoBetween,2021.2.3,59.98195743
,,,,147,0,147,0,,,,,,,,,,,,,,,,,,,,,,1035.977416,None,,,,,,,,,,,,,,,,,surface,33,148,sing,old,blue,1033.961781,None,1033.961781,None,1,1.3084969,1033.961781,None,1.3084969,1035.298314,None,1035.810648,None,1035.810648,None,n,0.147662,1035.810648,None,0.147662,,,Sep02Sing2,39,2022_Sep_02_1355,ProdSingRedoBetween,2021.2.3,59.98195743
,,,,148,0,148,0,,,,,,,,,,,,,,,,,,,,,,1038.713383,None,,,,,,,,,,,,,,,,,agreement,103,149,sing,new,null,1036.484174,None,1036.484174,None,1,1.5939954,1036.484174,None,1.5939954,1038.097138,None,1038.600341,None,1038.600341,None,n,0.0939283,1038.600341,None,0.0939283,,,Sep02Sing2,39,2022_Sep_02_1355,ProdSingRedoBetween,2021.2.3,59.98195743
,,,,149,0,149,0,,,,,,,,,,,,,,,,,,,,,,1041.099155,None,,,,,,,,,,,,,,,,,alert,84,150,sing,old,red,1039.221073,None,1039.221073,None,1,1.2171655,1039.221073,None,1.2171655,1040.469206,None,1040.982684,None,1040.982684,None,n,0.0876355,1040.982684,None,0.0876355,,,Sep02Sing2,39,2022_Sep_02_1355,ProdSingRedoBetween,2021.2.3,59.98195743
,,,,150,0,150,0,,,,,,,,,,,,,,,,,,,,,,1043.284636,None,,,,,,,,,,,,,,,,,appearance,178,151,sing,new,null,1041.60712,None,1041.60712,None,1,0.8312212,1041.60712,None,0.8312212,1042.4742,None,1042.992825,None,1042.992825,None,n,0.2615092,1042.992825,None,0.2615092,,,Sep02Sing2,39,2022_Sep_02_1355,ProdSingRedoBetween,2021.2.3,59.98195743
,,,,151,0,151,0,,,,,,,,,,,,,,,,,,,,,,1047.339491,None,,,,,,,,,,,,,,,,,threat,88,152,sing,old,red,1043.794362,None,1043.794362,None,5,2.9718533,1043.794362,None,2.9718533,1046.788214,None,1047.292833,None,1047.292833,None,f,0.017521,1047.292833,None,0.017521,,,Sep02Sing2,39,2022_Sep_02_1355,ProdSingRedoBetween,2021.2.3,59.98195743
,,,,152,0,152,0,,,,,,,,,,,,,,,,,,,,,,1050.004988,None,,,,,,,,,,,,,,,,,century,60,153,sing,old,red,1047.842064,None,1047.842064,None,1,1.5882512,1047.842064,None,1.5882512,1049.464392,None,1049.978738,None,1049.978738,None,n,0.0036225,1049.978738,None,0.0036225,,,Sep02Sing2,39,2022_Sep_02_1355,ProdSingRedoBetween,2021.2.3,59.98195743
,,,,153,0,153,0,,,,,,,,,,,,,,,,,,,,,,1052.211549,None,,,,,,,,,,,,,,,,,science,149,154,sing,new,null,1050.526196,None,1050.526196,None,1,0.8801645,1050.526196,None,0.8801645,1051.433384,None,1051.944712,None,1051.944712,None,n,0.2374412,1051.944712,None,0.2374412,,,Sep02Sing2,39,2022_Sep_02_1355,ProdSingRedoBetween,2021.2.3,59.98195743
,,,,154,0,154,0,,,,,,,,,,,,,,,,,,,,,,1054.150492,None,,,,,,,,,,,,,,,,,broad,133,155,sing,new,null,1052.712433,None,1052.712433,None,1,0.6858192,1052.712433,None,0.6858192,1053.428884,None,1053.933169,None,1053.933169,None,n,0.1851957,1053.933169,None,0.1851957,,,Sep02Sing2,39,2022_Sep_02_1355,ProdSingRedoBetween,2021.2.3,59.98195743
,,,,155,0,155,0,,,,,,,,,,,,,,,,,,,,,,1056.731436,None,,,,,,,,,,,,,,,,,rapid,8,156,sing,old,yellow,1054.677522,None,1054.677522,None,6,1.4089882,1054.677522,None,1.4089882,1056.121837,None,1056.631456,None,1056.631456,None,r,0.070959,1056.631456,None,0.070959,,,Sep02Sing2,39,2022_Sep_02_1355,ProdSingRedoBetween,2021.2.3,59.98195743
,,,,156,0,156,0,,,,,,,,,,,,,,,,,,,,,,1059.050452,None,,,,,,,,,,,,,,,,,youth,34,157,sing,old,blue,1057.236328,None,1057.236328,None,6,1.1139678,1057.236328,None,1.1139678,1058.371392,None,1058.883701,None,1058.883701,None,r,0.1385729,1058.883701,None,0.1385729,,,Sep02Sing2,39,2022_Sep_02_1355,ProdSingRedoBetween,2021.2.3,59.98195743
,,,,157,0,157,0,,,,,,,,,,,,,,,,,,,,,,1063.972052,None,,,,,,,,,,,,,,,,,benefit,157,158,sing,new,null,1059.55377,None,1059.55377,None,1,3.6764658,1059.55377,None,3.6764658,1063.255655,None,1063.760732,None,1063.760732,None,n,0.181568,1063.760732,None,0.181568,,,Sep02Sing2,39,2022_Sep_02_1355,ProdSingRedoBetween,2021.2.3,59.98195743
,,,,158,0,158,0,,,,,,,,,,,,,,,,,,,,,,1066.207656,None,,,,,,,,,,,,,,,,,curve,43,159,sing,old,blue,1064.48266,None,1064.48266,None,1,1.0197041,1064.48266,None,1.0197041,1065.52848,None,1066.040873,None,1066.040873,None,n,0.1495075,1066.040873,None,0.1495075,,,Sep02Sing2,39,2022_Sep_02_1355,ProdSingRedoBetween,2021.2.3,59.98195743
,,,,159,0,159,0,,,,,,,,,,,,,,,,,,,,,,1068.476407,None,,,,,,,,,,,,,,,,,exchange,167,160,sing,new,null,1066.721684,None,1066.721684,None,1,0.9327191,1066.721684,None,0.9327191,1067.679125,None,1068.199684,None,1068.199684,None,n,0.2546122,1068.199684,None,0.2546122,,,Sep02Sing2,39,2022_Sep_02_1355,ProdSingRedoBetween,2021.2.3,59.98195743
,,,,160,0,160,0,,,,,,,,,,,,,,,,,,,,,,1070.684619,None,,,,,,,,,,,,,,,,,degree,98,161,sing,new,null,1068.98147,None,1068.98147,None,1,1.1207446,1068.98147,None,1.1207446,1070.128103,None,1070.632407,None,1070.632407,None,n,0.0300422,1070.632407,None,0.0300422,,,Sep02Sing2,39,2022_Sep_02_1355,ProdSingRedoBetween,2021.2.3,59.98195743
,,,,161,0,161,0,,,,,,,,,,,,,,,,,,,,,,1073.064684,None,,,,,,,,,,,,,,,,,enemy,14,162,sing,old,yellow,1071.2112,None,1071.2112,None,6,1.258929,1071.2112,None,1.258929,1072.497432,None,1072.997852,None,1072.997852,None,r,0.0403477,1072.997852,None,0.0403477,,,Sep02Sing2,39,2022_Sep_02_1355,ProdSingRedoBetween,2021.2.3,59.98195743
,,,,162,0,162,0,,,,,,,,,,,,,,,,,,,,,,1075.633704,None,,,,,,,,,,,,,,,,,platform,144,163,sing,new,null,1073.569667,None,1073.569667,None,1,1.3645007,1073.569667,None,1.3645007,1074.953416,None,1075.467037,None,1075.467037,None,n,0.1473308,1075.467037,None,0.1473308,,,Sep02Sing2,39,2022_Sep_02_1355,ProdSingRedoBetween,2021.2.3,59.98195743
,,,,163,0,163,0,,,,,,,,,,,,,,,,,,,,,,1078.536604,None,,,,,,,,,,,,,,,,,accident,109,164,sing,new,null,1076.136575,None,1076.136575,None,1,1.3975969,1076.136575,None,1.3975969,1077.55222,None,1078.055799,None,1078.055799,None,n,0.4543228,1078.055799,None,0.4543228,,,Sep02Sing2,39,2022_Sep_02_1355,ProdSingRedoBetween,2021.2.3,59.98195743
,,,,164,0,164,0,,,,,,,,,,,,,,,,,,,,,,1080.805519,None,,,,,,,,,,,,,,,,,route,145,165,sing,new,null,1079.04321,None,1079.04321,None,1,0.8991064,1079.04321,None,0.8991064,1079.9741,None,1080.48859,None,1080.48859,None,n,0.2937089,1080.48859,None,0.2937089,,,Sep02Sing2,39,2022_Sep_02_1355,ProdSingRedoBetween,2021.2.3,59.98195743
,,,,165,0,165,0,,,,,,,,,,,,,,,,,,,,,,1082.768763,None,,,,,,,,,,,,,,,,,congress,174,166,sing,new,null,1081.310653,None,1081.310653,None,1,0.7355442,1081.310653,None,0.7355442,1082.074365,None,1082.578755,None,1082.578755,None,n,0.1555515,1082.578755,None,0.1555515,,,Sep02Sing2,39,2022_Sep_02_1355,ProdSingRedoBetween,2021.2.3,59.98195743
,,,,166,0,166,0,,,,,,,,,,,,,,,,,,,,,,1084.892992,None,,,,,,,,,,,,,,,,,write,136,167,sing,new,null,1083.283826,None,1083.283826,None,1,0.9543769,1083.283826,None,0.9543769,1084.261977,None,1084.778392,None,1084.778392,None,n,0.0919732,1084.778392,None,0.0919732,,,Sep02Sing2,39,2022_Sep_02_1355,ProdSingRedoBetween,2021.2.3,59.98195743
,,,,167,0,167,0,,,,,,,,,,,,,,,,,,,,,,1086.744696,None,,,,,,,,,,,,,,,,,sound,85,168,sing,old,red,1085.39549,None,1085.39549,None,1,0.6987691,1085.39549,None,0.6987691,1086.113177,None,1086.628094,None,1086.628094,None,n,0.09807,1086.628094,None,0.09807,,,Sep02Sing2,39,2022_Sep_02_1355,ProdSingRedoBetween,2021.2.3,59.98195743
,,,,168,0,168,0,,,,,,,,,,,,,,,,,,,,,,1088.802118,None,,,,,,,,,,,,,,,,,industry,13,169,sing,old,yellow,1087.25378,None,1087.25378,None,1,0.9045114,1087.25378,None,0.9045114,1088.185496,None,1088.702637,None,1088.702637,None,n,0.0716719,1088.702637,None,0.0716719,,,Sep02Sing2,39,2022_Sep_02_1355,ProdSingRedoBetween,2021.2.3,59.98195743
,,,,169,0,169,0,,,,,,,,,,,,,,,,,,,,,,1090.982254,None,,,,,,,,,,,,,,,,,captain,21,170,sing,old,yellow,1089.314161,None,1089.314161,None,1,0.9399916,1089.314161,None,0.9399916,1090.283424,None,1090.798848,None,1090.798848,None,n,0.1594124,1090.798848,None,0.1594124,,,Sep02Sing2,39,2022_Sep_02_1355,ProdSingRedoBetween,2021.2.3,59.98195743
,,,,170,0,170,0,,,,,,,,,,,,,,,,,,,,,,1093.050993,None,,,,,,,,,,,,,,,,,period,121,171,sing,new,null,1091.490196,None,1091.490196,None,1,0.8359919,1091.490196,None,0.8359919,1092.350489,None,1092.854839,None,1092.854839,None,n,0.1674008,1092.854839,None,0.1674008,,,Sep02Sing2,39,2022_Sep_02_1355,ProdSingRedoBetween,2021.2.3,59.98195743
,,,,171,0,171,0,,,,,,,,,,,,,,,,,,,,,,1095.316063,None,,,,,,,,,,,,,,,,,device,105,172,sing,new,null,1093.569024,None,1093.569024,None,1,1.1491241,1093.569024,None,1.1491241,1094.738144,None,1095.257973,None,1095.257973,None,n,0.0285693,1095.257973,None,0.0285693,,,Sep02Sing2,39,2022_Sep_02_1355,ProdSingRedoBetween,2021.2.3,59.98195743
,,,,172,0,172,0,,,,,,,,,,,,,,,,,,,,,,1097.071672,None,,,,,,,,,,,,,,,,,leader,17,173,sing,old,yellow,1095.82467,None,1095.82467,None,1,0.6775427,1095.82467,None,0.6775427,1096.521319,None,1097.024414,None,1097.024414,None,n,0.0218596,1097.024414,None,0.0218596,,,Sep02Sing2,39,2022_Sep_02_1355,ProdSingRedoBetween,2021.2.3,59.98195743
,,,,173,0,173,0,,,,,,,,,,,,,,,,,,,,,,1099.324069,None,,,,,,,,,,,,,,,,,message,175,174,sing,new,null,1097.576177,None,1097.576177,None,1,0.7582569,1097.576177,None,0.7582569,1098.362341,None,1098.875008,None,1098.875008,None,n,0.4192183,1098.875008,None,0.4192183,,,Sep02Sing2,39,2022_Sep_02_1355,ProdSingRedoBetween,2021.2.3,59.98195743
,,,,174,0,174,0,,,,,,,,,,,,,,,,,,,,,,1101.926629,None,,,,,,,,,,,,,,,,,engineer,120,175,sing,new,null,1099.834193,None,1099.834193,None,1,1.4199027,1099.834193,None,1.4199027,1101.281031,None,1101.793256,None,1101.793256,None,n,0.116917,1101.793256,None,0.116917,,,Sep02Sing2,39,2022_Sep_02_1355,ProdSingRedoBetween,2021.2.3,59.98195743
,,,,175,0,175,0,,,,,,,,,,,,,,,,,,,,,,1104.15081,None,,,,,,,,,,,,,,,,,birth,135,176,sing,new,null,1102.432674,None,1102.432674,None,1,0.7736585,1102.432674,None,0.7736585,1103.228865,None,1103.731401,None,1103.731401,None,n,0.3950076,1103.731401,None,0.3950076,,,Sep02Sing2,39,2022_Sep_02_1355,ProdSingRedoBetween,2021.2.3,59.98195743
,,,,176,0,176,0,,,,,,,,,,,,,,,,,,,,,,1106.447734,None,,,,,,,,,,,,,,,,,display,55,177,sing,old,blue,1104.678645,None,1104.678645,None,1,0.9915487,1104.678645,None,0.9915487,1105.699206,None,1106.218716,None,1106.218716,None,n,0.211514,1106.218716,None,0.211514,,,Sep02Sing2,39,2022_Sep_02_1355,ProdSingRedoBetween,2021.2.3,59.98195743
,,,,177,0,177,0,,,,,,,,,,,,,,,,,,,,,,1111.119035,None,,,,,,,,,,,,,,,,,foundation,72,178,sing,old,red,1106.957127,None,1106.957127,None,6,2.4891017,1106.957127,None,2.4891017,1109.468615,None,1109.973121,None,1109.973121,None,r,1.1290637,1109.973121,None,1.1290637,,,Sep02Sing2,39,2022_Sep_02_1355,ProdSingRedoBetween,2021.2.3,59.98195743
,,,,178,0,178,0,,,,,,,,,,,,,,,,,,,,,,1114.021935,None,,,,,,,,,,,,,,,,,music,97,179,sing,new,null,1111.628489,None,1111.628489,None,1,1.6577364,1111.628489,None,1.6577364,1113.310744,None,1113.824325,None,1113.824325,None,n,0.1739748,1113.824325,None,0.1739748,,,Sep02Sing2,39,2022_Sep_02_1355,ProdSingRedoBetween,2021.2.3,59.98195743
,,,,179,0,179,0,,,,,,,,,,,,,,,,,,,,,,1116.52444,None,,,,,,,,,,,,,,,,,capital,73,180,sing,old,red,1114.53041,None,1114.53041,None,1,1.3558117,1114.53041,None,1.3558117,1115.921786,None,1116.424573,None,1116.424573,None,n,0.0696751,1116.424573,None,0.0696751,,,Sep02Sing2,39,2022_Sep_02_1355,ProdSingRedoBetween,2021.2.3,59.98195743
,,,,,,,,,,,,,,,,,,,,,,,,,,,,,,,,,,,,,,,,,,,,,,,,,,,,,,,,,,,,,,,,,,,,,,,,,1117.025614,None,,,,,,
