StudyLoop.thisRepN,StudyLoop.thisTrialN,StudyLoop.thisN,StudyLoop.thisIndex,TestLoop.thisRepN,TestLoop.thisTrialN,TestLoop.thisN,TestLoop.thisIndex,textCondition.started,textCondition.stopped,keyCondition.keys,keyCondition.rt,keyCondition.started,keyCondition.stopped,Condition,textWelcome.started,textWelcome.stopped,keyWelcome.keys,keyWelcome.rt,keyWelcome.started,keyWelcome.stopped,textAloud.started,textAloud.stopped,textSilent.started,textSilent.stopped,textSing.started,textSing.stopped,conditional_text.started,conditional_text.stopped,textBlank500.started,textBlank500.stopped,study_word,study_num,study_order,study_type,word_color,textStudy.started,textStudy.stopped,keyStudy.keys,keyStudy.started,keyStudy.stopped,textTestInstructions.started,textTestInstructions.stopped,key_resp_3.keys,key_resp_3.rt,key_resp_3.started,key_resp_3.stopped,test_word,test_num,test_order,test_condition,old_new_test,test_word_original_color,textConf.started,textConf.stopped,textConfScale.started,textConfScale.stopped,keyConf.keys,keyConf.rt,keyConf.started,keyConf.stopped,confidence response time,textTestBlank.started,textTestBlank.stopped,textRKN.started,textRKN.stopped,textRKNScale.started,textRKNScale.stopped,keyRKN.keys,keyRKN.rt,keyRKN.started,keyRKN.stopped,rkn response time,textEnd.started,textEnd.stopped,participant,session,date,expName,psychopyVersion,frameRate
,,,,,,,,29.216088,None,a,156.4429265,29.216088,None,,,,,,,,,,,,,,,,,,,,,,,,,,,,,,,,,,,,,,,,,,,,,,,,,,,,,,,,,,,,,,Sep02Silent5,40,2022_Sep_02_1418,ProdSingRedoBetween,2021.2.3,59.98220928
,,,,,,,,,,,,,,SilentTest,185.7083292,None,space,16.5344259,185.7083292,None,,,,,,,,,,,,,,,,,,,,,,,,,,,,,,,,,,,,,,,,,,,,,,,,,,,,,,,Sep02Silent5,40,2022_Sep_02_1418,ProdSingRedoBetween,2021.2.3,59.98220928
0,0,0,0,,,,,,,,,,,,,,,,,,185.7083292,None,185.7083292,None,185.7083292,None,185.7083292,None,204.7713502,None,order,73,1,silent,red,202.7690081,None,None,202.7690081,None,,,,,,,,,,,,,,,,,,,,,,,,,,,,,,,,,,,Sep02Silent5,40,2022_Sep_02_1418,ProdSingRedoBetween,2021.2.3,59.98220928
1,0,1,0,,,,,,,,,,,,,,,,,,,,,,,,,,207.2902088,None,quiet,58,2,silent,blue,205.2744517,None,None,205.2744517,None,,,,,,,,,,,,,,,,,,,,,,,,,,,,,,,,,,,Sep02Silent5,40,2022_Sep_02_1418,ProdSingRedoBetween,2021.2.3,59.98220928
2,0,2,0,,,,,,,,,,,,,,,,,,,,,,,,,,209.8095076,None,place,38,3,silent,blue,207.7945168,None,None,207.7945168,None,,,,,,,,,,,,,,,,,,,,,,,,,,,,,,,,,,,Sep02Silent5,40,2022_Sep_02_1418,ProdSingRedoBetween,2021.2.3,59.98220928
3,0,3,0,,,,,,,,,,,,,,,,,,,,,,,,,,212.3121349,None,rural,48,4,silent,blue,210.3099728,None,None,210.3099728,None,,,,,,,,,,,,,,,,,,,,,,,,,,,,,,,,,,,Sep02Silent5,40,2022_Sep_02_1418,ProdSingRedoBetween,2021.2.3,59.98220928
4,0,4,0,,,,,,,,,,,,,,,,,,,,,,,,,,214.8313115,None,course,60,5,silent,red,212.8179628,None,None,212.8179628,None,,,,,,,,,,,,,,,,,,,,,,,,,,,,,,,,,,,Sep02Silent5,40,2022_Sep_02_1418,ProdSingRedoBetween,2021.2.3,59.98220928
5,0,5,0,,,,,,,,,,,,,,,,,,,,,,,,,,217.3337651,None,safety,66,6,silent,red,215.3331348,None,None,215.3331348,None,,,,,,,,,,,,,,,,,,,,,,,,,,,,,,,,,,,Sep02Silent5,40,2022_Sep_02_1418,ProdSingRedoBetween,2021.2.3,59.98220928
6,0,6,0,,,,,,,,,,,,,,,,,,,,,,,,,,219.8361112,None,break,53,7,silent,blue,217.8364866,None,None,217.8364866,None,,,,,,,,,,,,,,,,,,,,,,,,,,,,,,,,,,,Sep02Silent5,40,2022_Sep_02_1418,ProdSingRedoBetween,2021.2.3,59.98220928
7,0,7,0,,,,,,,,,,,,,,,,,,,,,,,,,,222.3553533,None,store,23,8,silent,yellow,220.3487811,None,None,220.3487811,None,,,,,,,,,,,,,,,,,,,,,,,,,,,,,,,,,,,Sep02Silent5,40,2022_Sep_02_1418,ProdSingRedoBetween,2021.2.3,59.98220928
8,0,8,0,,,,,,,,,,,,,,,,,,,,,,,,,,224.857759,None,clean,36,9,silent,blue,222.8559894,None,None,222.8559894,None,,,,,,,,,,,,,,,,,,,,,,,,,,,,,,,,,,,Sep02Silent5,40,2022_Sep_02_1418,ProdSingRedoBetween,2021.2.3,59.98220928
9,0,9,0,,,,,,,,,,,,,,,,,,,,,,,,,,227.3771079,None,machinery,19,10,silent,yellow,225.3633054,None,None,225.3633054,None,,,,,,,,,,,,,,,,,,,,,,,,,,,,,,,,,,,Sep02Silent5,40,2022_Sep_02_1418,ProdSingRedoBetween,2021.2.3,59.98220928
10,0,10,0,,,,,,,,,,,,,,,,,,,,,,,,,,229.879463,None,death,25,11,silent,yellow,227.8776544,None,None,227.8776544,None,,,,,,,,,,,,,,,,,,,,,,,,,,,,,,,,,,,Sep02Silent5,40,2022_Sep_02_1418,ProdSingRedoBetween,2021.2.3,59.98220928
11,0,11,0,,,,,,,,,,,,,,,,,,,,,,,,,,232.3819761,None,guard,2,12,silent,yellow,230.3800295,None,None,230.3800295,None,,,,,,,,,,,,,,,,,,,,,,,,,,,,,,,,,,,Sep02Silent5,40,2022_Sep_02_1418,ProdSingRedoBetween,2021.2.3,59.98220928
12,0,12,0,,,,,,,,,,,,,,,,,,,,,,,,,,234.8844689,None,commercial,39,13,silent,blue,232.8830688,None,None,232.8830688,None,,,,,,,,,,,,,,,,,,,,,,,,,,,,,,,,,,,Sep02Silent5,40,2022_Sep_02_1418,ProdSingRedoBetween,2021.2.3,59.98220928
13,0,13,0,,,,,,,,,,,,,,,,,,,,,,,,,,237.3871666,None,smooth,27,14,silent,yellow,235.3855955,None,None,235.3855955,None,,,,,,,,,,,,,,,,,,,,,,,,,,,,,,,,,,,Sep02Silent5,40,2022_Sep_02_1418,ProdSingRedoBetween,2021.2.3,59.98220928
14,0,14,0,,,,,,,,,,,,,,,,,,,,,,,,,,239.9060338,None,angle,83,15,silent,red,237.8935715,None,None,237.8935715,None,,,,,,,,,,,,,,,,,,,,,,,,,,,,,,,,,,,Sep02Silent5,40,2022_Sep_02_1418,ProdSingRedoBetween,2021.2.3,59.98220928
15,0,15,0,,,,,,,,,,,,,,,,,,,,,,,,,,242.4086642,None,month,20,16,silent,yellow,240.4067722,None,None,240.4067722,None,,,,,,,,,,,,,,,,,,,,,,,,,,,,,,,,,,,Sep02Silent5,40,2022_Sep_02_1418,ProdSingRedoBetween,2021.2.3,59.98220928
16,0,16,0,,,,,,,,,,,,,,,,,,,,,,,,,,244.9112346,None,opening,42,17,silent,blue,242.9093368,None,None,242.9093368,None,,,,,,,,,,,,,,,,,,,,,,,,,,,,,,,,,,,Sep02Silent5,40,2022_Sep_02_1418,ProdSingRedoBetween,2021.2.3,59.98220928
17,0,17,0,,,,,,,,,,,,,,,,,,,,,,,,,,247.4139982,None,quantity,51,18,silent,blue,245.4136815,None,None,245.4136815,None,,,,,,,,,,,,,,,,,,,,,,,,,,,,,,,,,,,Sep02Silent5,40,2022_Sep_02_1418,ProdSingRedoBetween,2021.2.3,59.98220928
18,0,18,0,,,,,,,,,,,,,,,,,,,,,,,,,,249.9161735,None,center,6,19,silent,yellow,247.9141499,None,None,247.9141499,None,,,,,,,,,,,,,,,,,,,,,,,,,,,,,,,,,,,Sep02Silent5,40,2022_Sep_02_1418,ProdSingRedoBetween,2021.2.3,59.98220928
19,0,19,0,,,,,,,,,,,,,,,,,,,,,,,,,,252.4355726,None,republic,88,20,silent,red,250.4243923,None,None,250.4243923,None,,,,,,,,,,,,,,,,,,,,,,,,,,,,,,,,,,,Sep02Silent5,40,2022_Sep_02_1418,ProdSingRedoBetween,2021.2.3,59.98220928
20,0,20,0,,,,,,,,,,,,,,,,,,,,,,,,,,254.9379932,None,general,40,21,silent,blue,252.9360329,None,None,252.9360329,None,,,,,,,,,,,,,,,,,,,,,,,,,,,,,,,,,,,Sep02Silent5,40,2022_Sep_02_1418,ProdSingRedoBetween,2021.2.3,59.98220928
21,0,21,0,,,,,,,,,,,,,,,,,,,,,,,,,,257.4406031,None,worker,32,22,silent,blue,255.4408391,None,None,255.4408391,None,,,,,,,,,,,,,,,,,,,,,,,,,,,,,,,,,,,Sep02Silent5,40,2022_Sep_02_1418,ProdSingRedoBetween,2021.2.3,59.98220928
22,0,22,0,,,,,,,,,,,,,,,,,,,,,,,,,,259.9595717,None,volume,84,23,silent,red,257.9489811,None,None,257.9489811,None,,,,,,,,,,,,,,,,,,,,,,,,,,,,,,,,,,,Sep02Silent5,40,2022_Sep_02_1418,ProdSingRedoBetween,2021.2.3,59.98220928
23,0,23,0,,,,,,,,,,,,,,,,,,,,,,,,,,262.4622341,None,motion,21,24,silent,yellow,260.4600599,None,None,260.4600599,None,,,,,,,,,,,,,,,,,,,,,,,,,,,,,,,,,,,Sep02Silent5,40,2022_Sep_02_1418,ProdSingRedoBetween,2021.2.3,59.98220928
24,0,24,0,,,,,,,,,,,,,,,,,,,,,,,,,,264.9647288,None,concern,5,25,silent,yellow,262.9656547,None,None,262.9656547,None,,,,,,,,,,,,,,,,,,,,,,,,,,,,,,,,,,,Sep02Silent5,40,2022_Sep_02_1418,ProdSingRedoBetween,2021.2.3,59.98220928
25,0,25,0,,,,,,,,,,,,,,,,,,,,,,,,,,267.467129,None,column,37,26,silent,blue,265.4659943,None,None,265.4659943,None,,,,,,,,,,,,,,,,,,,,,,,,,,,,,,,,,,,Sep02Silent5,40,2022_Sep_02_1418,ProdSingRedoBetween,2021.2.3,59.98220928
26,0,26,0,,,,,,,,,,,,,,,,,,,,,,,,,,269.9697423,None,height,49,27,silent,blue,267.9674158,None,None,267.9674158,None,,,,,,,,,,,,,,,,,,,,,,,,,,,,,,,,,,,Sep02Silent5,40,2022_Sep_02_1418,ProdSingRedoBetween,2021.2.3,59.98220928
27,0,27,0,,,,,,,,,,,,,,,,,,,,,,,,,,272.4722662,None,member,47,28,silent,blue,270.4710195,None,None,270.4710195,None,,,,,,,,,,,,,,,,,,,,,,,,,,,,,,,,,,,Sep02Silent5,40,2022_Sep_02_1418,ProdSingRedoBetween,2021.2.3,59.98220928
28,0,28,0,,,,,,,,,,,,,,,,,,,,,,,,,,274.9744693,None,business,44,29,silent,blue,272.9728411,None,None,272.9728411,None,,,,,,,,,,,,,,,,,,,,,,,,,,,,,,,,,,,Sep02Silent5,40,2022_Sep_02_1418,ProdSingRedoBetween,2021.2.3,59.98220928
29,0,29,0,,,,,,,,,,,,,,,,,,,,,,,,,,277.4770078,None,youth,55,30,silent,blue,275.4777241,None,None,275.4777241,None,,,,,,,,,,,,,,,,,,,,,,,,,,,,,,,,,,,Sep02Silent5,40,2022_Sep_02_1418,ProdSingRedoBetween,2021.2.3,59.98220928
30,0,30,0,,,,,,,,,,,,,,,,,,,,,,,,,,279.9963264,None,orchestra,63,31,silent,red,277.9876088,None,None,277.9876088,None,,,,,,,,,,,,,,,,,,,,,,,,,,,,,,,,,,,Sep02Silent5,40,2022_Sep_02_1418,ProdSingRedoBetween,2021.2.3,59.98220928
31,0,31,0,,,,,,,,,,,,,,,,,,,,,,,,,,282.5154257,None,write,70,32,silent,red,280.500686,None,None,280.500686,None,,,,,,,,,,,,,,,,,,,,,,,,,,,,,,,,,,,Sep02Silent5,40,2022_Sep_02_1418,ProdSingRedoBetween,2021.2.3,59.98220928
32,0,32,0,,,,,,,,,,,,,,,,,,,,,,,,,,285.0180367,None,territory,85,33,silent,red,283.0159488,None,None,283.0159488,None,,,,,,,,,,,,,,,,,,,,,,,,,,,,,,,,,,,Sep02Silent5,40,2022_Sep_02_1418,ProdSingRedoBetween,2021.2.3,59.98220928
33,0,33,0,,,,,,,,,,,,,,,,,,,,,,,,,,287.5373845,None,judge,22,34,silent,yellow,285.5225217,None,None,285.5225217,None,,,,,,,,,,,,,,,,,,,,,,,,,,,,,,,,,,,Sep02Silent5,40,2022_Sep_02_1418,ProdSingRedoBetween,2021.2.3,59.98220928
34,0,34,0,,,,,,,,,,,,,,,,,,,,,,,,,,290.0397931,None,season,81,35,silent,red,288.0407012,None,None,288.0407012,None,,,,,,,,,,,,,,,,,,,,,,,,,,,,,,,,,,,Sep02Silent5,40,2022_Sep_02_1418,ProdSingRedoBetween,2021.2.3,59.98220928
35,0,35,0,,,,,,,,,,,,,,,,,,,,,,,,,,292.5589237,None,individual,65,36,silent,red,290.5440214,None,None,290.5440214,None,,,,,,,,,,,,,,,,,,,,,,,,,,,,,,,,,,,Sep02Silent5,40,2022_Sep_02_1418,ProdSingRedoBetween,2021.2.3,59.98220928
36,0,36,0,,,,,,,,,,,,,,,,,,,,,,,,,,295.0615233,None,quarter,68,37,silent,red,293.0592994,None,None,293.0592994,None,,,,,,,,,,,,,,,,,,,,,,,,,,,,,,,,,,,Sep02Silent5,40,2022_Sep_02_1418,ProdSingRedoBetween,2021.2.3,59.98220928
37,0,37,0,,,,,,,,,,,,,,,,,,,,,,,,,,297.5804618,None,build,41,38,silent,blue,295.5649545,None,None,295.5649545,None,,,,,,,,,,,,,,,,,,,,,,,,,,,,,,,,,,,Sep02Silent5,40,2022_Sep_02_1418,ProdSingRedoBetween,2021.2.3,59.98220928
38,0,38,0,,,,,,,,,,,,,,,,,,,,,,,,,,300.0994469,None,mankind,28,39,silent,yellow,298.0846459,None,None,298.0846459,None,,,,,,,,,,,,,,,,,,,,,,,,,,,,,,,,,,,Sep02Silent5,40,2022_Sep_02_1418,ProdSingRedoBetween,2021.2.3,59.98220928
39,0,39,0,,,,,,,,,,,,,,,,,,,,,,,,,,302.6021924,None,split,9,40,silent,yellow,300.6002021,None,None,300.6002021,None,,,,,,,,,,,,,,,,,,,,,,,,,,,,,,,,,,,Sep02Silent5,40,2022_Sep_02_1418,ProdSingRedoBetween,2021.2.3,59.98220928
40,0,40,0,,,,,,,,,,,,,,,,,,,,,,,,,,305.1212956,None,meeting,35,41,silent,blue,303.1104275,None,None,303.1104275,None,,,,,,,,,,,,,,,,,,,,,,,,,,,,,,,,,,,Sep02Silent5,40,2022_Sep_02_1418,ProdSingRedoBetween,2021.2.3,59.98220928
41,0,41,0,,,,,,,,,,,,,,,,,,,,,,,,,,307.623911,None,command,71,42,silent,red,305.6218296,None,None,305.6218296,None,,,,,,,,,,,,,,,,,,,,,,,,,,,,,,,,,,,Sep02Silent5,40,2022_Sep_02_1418,ProdSingRedoBetween,2021.2.3,59.98220928
42,0,42,0,,,,,,,,,,,,,,,,,,,,,,,,,,310.1263395,None,fellow,34,43,silent,blue,308.1244968,None,None,308.1244968,None,,,,,,,,,,,,,,,,,,,,,,,,,,,,,,,,,,,Sep02Silent5,40,2022_Sep_02_1418,ProdSingRedoBetween,2021.2.3,59.98220928
43,0,43,0,,,,,,,,,,,,,,,,,,,,,,,,,,312.6455274,None,match,15,44,silent,yellow,310.6298542,None,None,310.6298542,None,,,,,,,,,,,,,,,,,,,,,,,,,,,,,,,,,,,Sep02Silent5,40,2022_Sep_02_1418,ProdSingRedoBetween,2021.2.3,59.98220928
44,0,44,0,,,,,,,,,,,,,,,,,,,,,,,,,,315.1647964,None,comedy,0,45,silent,yellow,313.1495443,None,None,313.1495443,None,,,,,,,,,,,,,,,,,,,,,,,,,,,,,,,,,,,Sep02Silent5,40,2022_Sep_02_1418,ProdSingRedoBetween,2021.2.3,59.98220928
45,0,45,0,,,,,,,,,,,,,,,,,,,,,,,,,,317.6674588,None,household,74,46,silent,red,315.6678498,None,None,315.6678498,None,,,,,,,,,,,,,,,,,,,,,,,,,,,,,,,,,,,Sep02Silent5,40,2022_Sep_02_1418,ProdSingRedoBetween,2021.2.3,59.98220928
46,0,46,0,,,,,,,,,,,,,,,,,,,,,,,,,,320.1697682,None,management,31,47,silent,blue,318.1705936,None,None,318.1705936,None,,,,,,,,,,,,,,,,,,,,,,,,,,,,,,,,,,,Sep02Silent5,40,2022_Sep_02_1418,ProdSingRedoBetween,2021.2.3,59.98220928
47,0,47,0,,,,,,,,,,,,,,,,,,,,,,,,,,322.6721733,None,clear,56,48,silent,blue,320.6725182,None,None,320.6725182,None,,,,,,,,,,,,,,,,,,,,,,,,,,,,,,,,,,,Sep02Silent5,40,2022_Sep_02_1418,ProdSingRedoBetween,2021.2.3,59.98220928
48,0,48,0,,,,,,,,,,,,,,,,,,,,,,,,,,325.1748657,None,cover,50,49,silent,blue,323.1733189,None,None,323.1733189,None,,,,,,,,,,,,,,,,,,,,,,,,,,,,,,,,,,,Sep02Silent5,40,2022_Sep_02_1418,ProdSingRedoBetween,2021.2.3,59.98220928
49,0,49,0,,,,,,,,,,,,,,,,,,,,,,,,,,327.693922,None,point,8,50,silent,yellow,325.6784224,None,None,325.6784224,None,,,,,,,,,,,,,,,,,,,,,,,,,,,,,,,,,,,Sep02Silent5,40,2022_Sep_02_1418,ProdSingRedoBetween,2021.2.3,59.98220928
50,0,50,0,,,,,,,,,,,,,,,,,,,,,,,,,,330.196381,None,space,12,51,silent,yellow,328.1944792,None,None,328.1944792,None,,,,,,,,,,,,,,,,,,,,,,,,,,,,,,,,,,,Sep02Silent5,40,2022_Sep_02_1418,ProdSingRedoBetween,2021.2.3,59.98220928
51,0,51,0,,,,,,,,,,,,,,,,,,,,,,,,,,332.7155516,None,owner,14,52,silent,yellow,330.7007332,None,None,330.7007332,None,,,,,,,,,,,,,,,,,,,,,,,,,,,,,,,,,,,Sep02Silent5,40,2022_Sep_02_1418,ProdSingRedoBetween,2021.2.3,59.98220928
52,0,52,0,,,,,,,,,,,,,,,,,,,,,,,,,,335.2180358,None,trail,24,53,silent,yellow,333.2169277,None,None,333.2169277,None,,,,,,,,,,,,,,,,,,,,,,,,,,,,,,,,,,,Sep02Silent5,40,2022_Sep_02_1418,ProdSingRedoBetween,2021.2.3,59.98220928
53,0,53,0,,,,,,,,,,,,,,,,,,,,,,,,,,337.7207156,None,brilliant,59,54,silent,yellow,335.7184402,None,None,335.7184402,None,,,,,,,,,,,,,,,,,,,,,,,,,,,,,,,,,,,Sep02Silent5,40,2022_Sep_02_1418,ProdSingRedoBetween,2021.2.3,59.98220928
54,0,54,0,,,,,,,,,,,,,,,,,,,,,,,,,,340.2232174,None,growth,43,55,silent,blue,338.2230203,None,None,338.2230203,None,,,,,,,,,,,,,,,,,,,,,,,,,,,,,,,,,,,Sep02Silent5,40,2022_Sep_02_1418,ProdSingRedoBetween,2021.2.3,59.98220928
55,0,55,0,,,,,,,,,,,,,,,,,,,,,,,,,,342.7451535,None,public,78,56,silent,red,340.7270568,None,None,340.7270568,None,,,,,,,,,,,,,,,,,,,,,,,,,,,,,,,,,,,Sep02Silent5,40,2022_Sep_02_1418,ProdSingRedoBetween,2021.2.3,59.98220928
56,0,56,0,,,,,,,,,,,,,,,,,,,,,,,,,,345.244644,None,victory,4,57,silent,yellow,343.2426924,None,None,343.2426924,None,,,,,,,,,,,,,,,,,,,,,,,,,,,,,,,,,,,Sep02Silent5,40,2022_Sep_02_1418,ProdSingRedoBetween,2021.2.3,59.98220928
57,0,57,0,,,,,,,,,,,,,,,,,,,,,,,,,,347.7470966,None,bucket,89,58,silent,red,345.7453019,None,None,345.7453019,None,,,,,,,,,,,,,,,,,,,,,,,,,,,,,,,,,,,Sep02Silent5,40,2022_Sep_02_1418,ProdSingRedoBetween,2021.2.3,59.98220928
58,0,58,0,,,,,,,,,,,,,,,,,,,,,,,,,,350.2500001,None,disease,17,59,silent,yellow,348.2500471,None,None,348.2500471,None,,,,,,,,,,,,,,,,,,,,,,,,,,,,,,,,,,,Sep02Silent5,40,2022_Sep_02_1418,ProdSingRedoBetween,2021.2.3,59.98220928
59,0,59,0,,,,,,,,,,,,,,,,,,,,,,,,,,352.7523732,None,trash,1,60,silent,yellow,350.7503895,None,None,350.7503895,None,,,,,,,,,,,,,,,,,,,,,,,,,,,,,,,,,,,Sep02Silent5,40,2022_Sep_02_1418,ProdSingRedoBetween,2021.2.3,59.98220928
60,0,60,0,,,,,,,,,,,,,,,,,,,,,,,,,,355.2546784,None,payment,33,61,silent,blue,353.2548816,None,None,353.2548816,None,,,,,,,,,,,,,,,,,,,,,,,,,,,,,,,,,,,Sep02Silent5,40,2022_Sep_02_1418,ProdSingRedoBetween,2021.2.3,59.98220928
61,0,61,0,,,,,,,,,,,,,,,,,,,,,,,,,,357.7741451,None,expansion,62,62,silent,red,355.7628414,None,None,355.7628414,None,,,,,,,,,,,,,,,,,,,,,,,,,,,,,,,,,,,Sep02Silent5,40,2022_Sep_02_1418,ProdSingRedoBetween,2021.2.3,59.98220928
62,0,62,0,,,,,,,,,,,,,,,,,,,,,,,,,,360.2762123,None,beauty,76,63,silent,red,358.2743653,None,None,358.2743653,None,,,,,,,,,,,,,,,,,,,,,,,,,,,,,,,,,,,Sep02Silent5,40,2022_Sep_02_1418,ProdSingRedoBetween,2021.2.3,59.98220928
63,0,63,0,,,,,,,,,,,,,,,,,,,,,,,,,,362.7789441,None,goose,26,64,silent,yellow,360.7798572,None,None,360.7798572,None,,,,,,,,,,,,,,,,,,,,,,,,,,,,,,,,,,,Sep02Silent5,40,2022_Sep_02_1418,ProdSingRedoBetween,2021.2.3,59.98220928
64,0,64,0,,,,,,,,,,,,,,,,,,,,,,,,,,365.2813668,None,shear,72,65,silent,red,363.2794897,None,None,363.2794897,None,,,,,,,,,,,,,,,,,,,,,,,,,,,,,,,,,,,Sep02Silent5,40,2022_Sep_02_1418,ProdSingRedoBetween,2021.2.3,59.98220928
65,0,65,0,,,,,,,,,,,,,,,,,,,,,,,,,,367.7840973,None,debate,30,66,silent,blue,365.7820136,None,None,365.7820136,None,,,,,,,,,,,,,,,,,,,,,,,,,,,,,,,,,,,Sep02Silent5,40,2022_Sep_02_1418,ProdSingRedoBetween,2021.2.3,59.98220928
66,0,66,0,,,,,,,,,,,,,,,,,,,,,,,,,,370.3032795,None,department,10,67,silent,yellow,368.2901857,None,None,368.2901857,None,,,,,,,,,,,,,,,,,,,,,,,,,,,,,,,,,,,Sep02Silent5,40,2022_Sep_02_1418,ProdSingRedoBetween,2021.2.3,59.98220928
67,0,67,0,,,,,,,,,,,,,,,,,,,,,,,,,,372.8055451,None,edition,54,68,silent,blue,370.8035649,None,None,370.8035649,None,,,,,,,,,,,,,,,,,,,,,,,,,,,,,,,,,,,Sep02Silent5,40,2022_Sep_02_1418,ProdSingRedoBetween,2021.2.3,59.98220928
68,0,68,0,,,,,,,,,,,,,,,,,,,,,,,,,,375.3249785,None,master,82,69,silent,red,373.31089,None,None,373.31089,None,,,,,,,,,,,,,,,,,,,,,,,,,,,,,,,,,,,Sep02Silent5,40,2022_Sep_02_1418,ProdSingRedoBetween,2021.2.3,59.98220928
69,0,69,0,,,,,,,,,,,,,,,,,,,,,,,,,,377.8274304,None,thing,7,70,silent,yellow,375.8253742,None,None,375.8253742,None,,,,,,,,,,,,,,,,,,,,,,,,,,,,,,,,,,,Sep02Silent5,40,2022_Sep_02_1418,ProdSingRedoBetween,2021.2.3,59.98220928
70,0,70,0,,,,,,,,,,,,,,,,,,,,,,,,,,380.3299188,None,hearing,52,71,silent,blue,378.3280485,None,None,378.3280485,None,,,,,,,,,,,,,,,,,,,,,,,,,,,,,,,,,,,Sep02Silent5,40,2022_Sep_02_1418,ProdSingRedoBetween,2021.2.3,59.98220928
71,0,71,0,,,,,,,,,,,,,,,,,,,,,,,,,,382.832319,None,childhood,75,72,silent,red,380.8311514,None,None,380.8311514,None,,,,,,,,,,,,,,,,,,,,,,,,,,,,,,,,,,,Sep02Silent5,40,2022_Sep_02_1418,ProdSingRedoBetween,2021.2.3,59.98220928
72,0,72,0,,,,,,,,,,,,,,,,,,,,,,,,,,385.3349299,None,strength,16,73,silent,yellow,383.3345244,None,None,383.3345244,None,,,,,,,,,,,,,,,,,,,,,,,,,,,,,,,,,,,Sep02Silent5,40,2022_Sep_02_1418,ProdSingRedoBetween,2021.2.3,59.98220928
73,0,73,0,,,,,,,,,,,,,,,,,,,,,,,,,,387.8374496,None,taste,29,74,silent,blue,385.8354158,None,None,385.8354158,None,,,,,,,,,,,,,,,,,,,,,,,,,,,,,,,,,,,Sep02Silent5,40,2022_Sep_02_1418,ProdSingRedoBetween,2021.2.3,59.98220928
74,0,74,0,,,,,,,,,,,,,,,,,,,,,,,,,,390.3397177,None,dance,57,75,silent,blue,388.3399593,None,None,388.3399593,None,,,,,,,,,,,,,,,,,,,,,,,,,,,,,,,,,,,Sep02Silent5,40,2022_Sep_02_1418,ProdSingRedoBetween,2021.2.3,59.98220928
75,0,75,0,,,,,,,,,,,,,,,,,,,,,,,,,,392.8424427,None,hunger,79,76,silent,red,390.8403179,None,None,390.8403179,None,,,,,,,,,,,,,,,,,,,,,,,,,,,,,,,,,,,Sep02Silent5,40,2022_Sep_02_1418,ProdSingRedoBetween,2021.2.3,59.98220928
76,0,76,0,,,,,,,,,,,,,,,,,,,,,,,,,,395.3614093,None,incident,13,77,silent,yellow,393.3458158,None,None,393.3458158,None,,,,,,,,,,,,,,,,,,,,,,,,,,,,,,,,,,,Sep02Silent5,40,2022_Sep_02_1418,ProdSingRedoBetween,2021.2.3,59.98220928
77,0,77,0,,,,,,,,,,,,,,,,,,,,,,,,,,397.8638776,None,throw,69,78,silent,red,395.8619352,None,None,395.8619352,None,,,,,,,,,,,,,,,,,,,,,,,,,,,,,,,,,,,Sep02Silent5,40,2022_Sep_02_1418,ProdSingRedoBetween,2021.2.3,59.98220928
78,0,78,0,,,,,,,,,,,,,,,,,,,,,,,,,,400.3666046,None,partner,46,79,silent,blue,398.3664055,None,None,398.3664055,None,,,,,,,,,,,,,,,,,,,,,,,,,,,,,,,,,,,Sep02Silent5,40,2022_Sep_02_1418,ProdSingRedoBetween,2021.2.3,59.98220928
79,0,79,0,,,,,,,,,,,,,,,,,,,,,,,,,,402.8689114,None,south,87,80,silent,red,400.8691387,None,None,400.8691387,None,,,,,,,,,,,,,,,,,,,,,,,,,,,,,,,,,,,Sep02Silent5,40,2022_Sep_02_1418,ProdSingRedoBetween,2021.2.3,59.98220928
80,0,80,0,,,,,,,,,,,,,,,,,,,,,,,,,,405.37141,None,murder,11,81,silent,yellow,403.3700426,None,None,403.3700426,None,,,,,,,,,,,,,,,,,,,,,,,,,,,,,,,,,,,Sep02Silent5,40,2022_Sep_02_1418,ProdSingRedoBetween,2021.2.3,59.98220928
81,0,81,0,,,,,,,,,,,,,,,,,,,,,,,,,,407.8740803,None,contract,67,82,silent,red,405.8719505,None,None,405.8719505,None,,,,,,,,,,,,,,,,,,,,,,,,,,,,,,,,,,,Sep02Silent5,40,2022_Sep_02_1418,ProdSingRedoBetween,2021.2.3,59.98220928
82,0,82,0,,,,,,,,,,,,,,,,,,,,,,,,,,410.3930761,None,group,64,83,silent,red,408.3779073,None,None,408.3779073,None,,,,,,,,,,,,,,,,,,,,,,,,,,,,,,,,,,,Sep02Silent5,40,2022_Sep_02_1418,ProdSingRedoBetween,2021.2.3,59.98220928
83,0,83,0,,,,,,,,,,,,,,,,,,,,,,,,,,412.9123582,None,mayor,80,84,silent,red,410.90475,None,None,410.90475,None,,,,,,,,,,,,,,,,,,,,,,,,,,,,,,,,,,,Sep02Silent5,40,2022_Sep_02_1418,ProdSingRedoBetween,2021.2.3,59.98220928
84,0,84,0,,,,,,,,,,,,,,,,,,,,,,,,,,415.4148263,None,interview,61,85,silent,red,413.4128057,None,None,413.4128057,None,,,,,,,,,,,,,,,,,,,,,,,,,,,,,,,,,,,Sep02Silent5,40,2022_Sep_02_1418,ProdSingRedoBetween,2021.2.3,59.98220928
85,0,85,0,,,,,,,,,,,,,,,,,,,,,,,,,,417.9174874,None,swift,77,86,silent,red,415.9158943,None,None,415.9158943,None,,,,,,,,,,,,,,,,,,,,,,,,,,,,,,,,,,,Sep02Silent5,40,2022_Sep_02_1418,ProdSingRedoBetween,2021.2.3,59.98220928
86,0,86,0,,,,,,,,,,,,,,,,,,,,,,,,,,420.4366235,None,carry,45,87,silent,blue,418.4217268,None,None,418.4217268,None,,,,,,,,,,,,,,,,,,,,,,,,,,,,,,,,,,,Sep02Silent5,40,2022_Sep_02_1418,ProdSingRedoBetween,2021.2.3,59.98220928
87,0,87,0,,,,,,,,,,,,,,,,,,,,,,,,,,422.9558795,None,company,18,88,silent,yellow,420.9408139,None,None,420.9408139,None,,,,,,,,,,,,,,,,,,,,,,,,,,,,,,,,,,,Sep02Silent5,40,2022_Sep_02_1418,ProdSingRedoBetween,2021.2.3,59.98220928
88,0,88,0,,,,,,,,,,,,,,,,,,,,,,,,,,425.4583957,None,produce,86,89,silent,red,423.4576765,None,None,423.4576765,None,,,,,,,,,,,,,,,,,,,,,,,,,,,,,,,,,,,Sep02Silent5,40,2022_Sep_02_1418,ProdSingRedoBetween,2021.2.3,59.98220928
89,0,89,0,,,,,,,,,,,,,,,,,,,,,,,,,,427.9773947,None,executive,3,90,silent,yellow,425.963452,None,None,425.963452,None,,,,,,,,,,,,,,,,,,,,,,,,,,,,,,,,,,,Sep02Silent5,40,2022_Sep_02_1418,ProdSingRedoBetween,2021.2.3,59.98220928
,,,,,,,,,,,,,,,,,,,,,,,,,,,,,,,,,,,,,,,,,428.4780563,None,k,106.2288471,428.4780563,None,,,,,,,,,,,,,,,,,,,,,,,,,,,,,Sep02Silent5,40,2022_Sep_02_1418,ProdSingRedoBetween,2021.2.3,59.98220928
,,,,0,0,0,0,,,,,,,,,,,,,,,,,,,,,,544.0266626,None,,,,,,,,,,,,,,,,,general,40,1,silent,old,blue,535.2394639,None,535.2394639,None,5,5.0273002,535.2394639,None,5.0273002,540.2905287,None,540.804252,None,540.804252,None,r,3.2064502,540.804252,None,3.2064502,,,Sep02Silent5,40,2022_Sep_02_1418,ProdSingRedoBetween,2021.2.3,59.98220928
,,,,1,0,1,0,,,,,,,,,,,,,,,,,,,,,,551.0669023,None,,,,,,,,,,,,,,,,,beauty,76,2,silent,old,red,544.5350083,None,544.5350083,None,6,2.9477707,544.5350083,None,2.9477707,547.517451,None,548.03795,None,548.03795,None,r,3.0127881,548.03795,None,3.0127881,,,Sep02Silent5,40,2022_Sep_02_1418,ProdSingRedoBetween,2021.2.3,59.98220928
,,,,2,0,2,0,,,,,,,,,,,,,,,,,,,,,,558.1584566,None,,,,,,,,,,,,,,,,,dream,178,3,silent,new,null,551.5747044,None,551.5747044,None,4,5.3879379,551.5747044,None,5.3879379,556.9896406,None,557.492258,None,557.492258,None,f,0.6385993,557.492258,None,0.6385993,,,Sep02Silent5,40,2022_Sep_02_1418,ProdSingRedoBetween,2021.2.3,59.98220928
,,,,3,0,3,0,,,,,,,,,,,,,,,,,,,,,,566.0318828,None,,,,,,,,,,,,,,,,,member,47,4,silent,old,blue,558.667675,None,558.667675,None,3,5.4710618,558.667675,None,5.4710618,564.1632779,None,564.6667558,None,564.6667558,None,f,1.3440005,564.6667558,None,1.3440005,,,Sep02Silent5,40,2022_Sep_02_1418,ProdSingRedoBetween,2021.2.3,59.98220928
,,,,4,0,4,0,,,,,,,,,,,,,,,,,,,,,,574.223505,None,,,,,,,,,,,,,,,,,month,20,5,silent,old,yellow,566.5514493,None,566.5514493,None,4,5.5073546,566.5514493,None,5.5073546,572.0885131,None,572.5921275,None,572.5921275,None,f,1.6106243,572.5921275,None,1.6106243,,,Sep02Silent5,40,2022_Sep_02_1418,ProdSingRedoBetween,2021.2.3,59.98220928
,,,,5,0,5,0,,,,,,,,,,,,,,,,,,,,,,578.9781835,None,,,,,,,,,,,,,,,,,split,9,6,silent,old,yellow,574.7241791,None,574.7241791,None,1,2.2705922,574.7241791,None,2.2705922,577.0272792,None,577.5307588,None,577.5307588,None,n,1.4239657,577.5307588,None,1.4239657,,,Sep02Silent5,40,2022_Sep_02_1418,ProdSingRedoBetween,2021.2.3,59.98220928
,,,,6,0,6,0,,,,,,,,,,,,,,,,,,,,,,583.2843539,None,,,,,,,,,,,,,,,,,chief,127,7,silent,new,null,579.48776,None,579.48776,None,2,2.8350513,579.48776,None,2.8350513,582.3525988,None,582.8704289,None,582.8704289,None,f,0.3883737,582.8704289,None,0.3883737,,,Sep02Silent5,40,2022_Sep_02_1418,ProdSingRedoBetween,2021.2.3,59.98220928
,,,,7,0,7,0,,,,,,,,,,,,,,,,,,,,,,586.9195698,None,,,,,,,,,,,,,,,,,raise,126,8,silent,new,null,583.8067015,None,583.8067015,None,1,2.1480294,583.8067015,None,2.1480294,585.9898647,None,586.5022651,None,586.5022651,None,n,0.3965707,586.5022651,None,0.3965707,,,Sep02Silent5,40,2022_Sep_02_1418,ProdSingRedoBetween,2021.2.3,59.98220928
,,,,8,0,8,0,,,,,,,,,,,,,,,,,,,,,,593.9430217,None,,,,,,,,,,,,,,,,,childhood,75,9,silent,old,red,587.4292549,None,587.4292549,None,3,5.6381141,587.4292549,None,5.6381141,593.1042504,None,593.6094872,None,593.6094872,None,f,0.3132835,593.6094872,None,0.3132835,,,Sep02Silent5,40,2022_Sep_02_1418,ProdSingRedoBetween,2021.2.3,59.98220928
,,,,9,0,9,0,,,,,,,,,,,,,,,,,,,,,,599.2985868,None,,,,,,,,,,,,,,,,,estate,141,10,silent,new,null,594.4513748,None,594.4513748,None,3,3.8234433,594.4513748,None,3.8234433,598.3024598,None,598.8146949,None,598.8146949,None,f,0.4600519,598.8146949,None,0.4600519,,,Sep02Silent5,40,2022_Sep_02_1418,ProdSingRedoBetween,2021.2.3,59.98220928
,,,,10,0,10,0,,,,,,,,,,,,,,,,,,,,,,602.7351759,None,,,,,,,,,,,,,,,,,concern,5,11,silent,old,yellow,599.8078192,None,599.8078192,None,5,2.042863,599.8078192,None,2.042863,601.8678084,None,602.3725831,None,602.3725831,None,r,0.3342398,602.3725831,None,0.3342398,,,Sep02Silent5,40,2022_Sep_02_1418,ProdSingRedoBetween,2021.2.3,59.98220928
,,,,11,0,11,0,,,,,,,,,,,,,,,,,,,,,,606.2554596,None,,,,,,,,,,,,,,,,,taste,29,12,silent,old,blue,603.2393426,None,603.2393426,None,2,2.2034126,603.2393426,None,2.2034126,605.4723411,None,605.976228,None,605.976228,None,f,0.2505061,605.976228,None,0.2505061,,,Sep02Silent5,40,2022_Sep_02_1418,ProdSingRedoBetween,2021.2.3,59.98220928
,,,,12,0,12,0,,,,,,,,,,,,,,,,,,,,,,614.5137241,None,,,,,,,,,,,,,,,,,measure,122,13,silent,new,null,606.7663652,None,606.7663652,None,4,6.1724128,606.7663652,None,6.1724128,612.9681087,None,613.4793503,None,613.4793503,None,f,1.0033278,613.4793503,None,1.0033278,,,Sep02Silent5,40,2022_Sep_02_1418,ProdSingRedoBetween,2021.2.3,59.98220928
,,,,13,0,13,0,,,,,,,,,,,,,,,,,,,,,,618.4176556,None,,,,,,,,,,,,,,,,,carry,45,14,silent,old,blue,615.0201632,None,615.0201632,None,6,2.2225631,615.0201632,None,2.2225631,617.2665446,None,617.7716075,None,617.7716075,None,r,0.6311896,617.7716075,None,0.6311896,,,Sep02Silent5,40,2022_Sep_02_1418,ProdSingRedoBetween,2021.2.3,59.98220928
,,,,14,0,14,0,,,,,,,,,,,,,,,,,,,,,,622.0237204,None,,,,,,,,,,,,,,,,,territory,85,15,silent,old,red,618.9324915,None,618.9324915,None,4,2.2382719,618.9324915,None,2.2382719,621.1919755,None,621.7082102,None,621.7082102,None,f,0.28652,621.7082102,None,0.28652,,,Sep02Silent5,40,2022_Sep_02_1418,ProdSingRedoBetween,2021.2.3,59.98220928
,,,,15,0,15,0,,,,,,,,,,,,,,,,,,,,,,629.2676249,None,,,,,,,,,,,,,,,,,poetry,144,16,silent,new,null,622.5460128,None,622.5460128,None,4,5.2647249,622.5460128,None,5.2647249,627.8283414,None,628.3304193,None,628.3304193,None,f,0.9125597,628.3304193,None,0.9125597,,,Sep02Silent5,40,2022_Sep_02_1418,ProdSingRedoBetween,2021.2.3,59.98220928
,,,,16,0,16,0,,,,,,,,,,,,,,,,,,,,,,636.2037845,None,,,,,,,,,,,,,,,,,oxygen,100,17,silent,new,null,629.7839988,None,629.7839988,None,2,2.1866811,629.7839988,None,2.1866811,632.0027471,None,632.5194298,None,632.5194298,None,f,3.6511354,632.5194298,None,3.6511354,,,Sep02Silent5,40,2022_Sep_02_1418,ProdSingRedoBetween,2021.2.3,59.98220928
,,,,17,0,17,0,,,,,,,,,,,,,,,,,,,,,,640.7397922,None,,,,,,,,,,,,,,,,,review,119,18,silent,new,null,636.7259198,None,636.7259198,None,3,3.060811,636.7259198,None,3.060811,639.8122871,None,640.3229474,None,640.3229474,None,f,0.391832,640.3229474,None,0.391832,,,Sep02Silent5,40,2022_Sep_02_1418,ProdSingRedoBetween,2021.2.3,59.98220928
,,,,18,0,18,0,,,,,,,,,,,,,,,,,,,,,,643.8961127,None,,,,,,,,,,,,,,,,,congress,102,19,silent,new,null,641.2492435,None,641.2492435,None,1,1.6575518,641.2492435,None,1.6575518,642.9252684,None,643.4312678,None,643.4312678,None,n,0.435535,643.4312678,None,0.435535,,,Sep02Silent5,40,2022_Sep_02_1418,ProdSingRedoBetween,2021.2.3,59.98220928
,,,,19,0,19,0,,,,,,,,,,,,,,,,,,,,,,647.4798826,None,,,,,,,,,,,,,,,,,testimony,107,20,silent,new,null,644.4161082,None,644.4161082,None,5,1.7065134,644.4161082,None,1.7065134,646.1513059,None,646.6625996,None,646.6625996,None,r,0.7881298,646.6625996,None,0.7881298,,,Sep02Silent5,40,2022_Sep_02_1418,ProdSingRedoBetween,2021.2.3,59.98220928
,,,,20,0,20,0,,,,,,,,,,,,,,,,,,,,,,650.6832305,None,,,,,,,,,,,,,,,,,guard,2,21,silent,old,yellow,647.9885944,None,647.9885944,None,5,1.7821401,647.9885944,None,1.7821401,649.7988757,None,650.3090292,None,650.3090292,None,r,0.3497002,650.3090292,None,0.3497002,,,Sep02Silent5,40,2022_Sep_02_1418,ProdSingRedoBetween,2021.2.3,59.98220928
,,,,21,0,21,0,,,,,,,,,,,,,,,,,,,,,,654.1371273,None,,,,,,,,,,,,,,,,,burden,166,22,silent,new,null,651.1912017,None,651.1912017,None,4,2.1715066,651.1912017,None,2.1715066,653.3858561,None,653.8871706,None,653.8871706,None,f,0.2276036,653.8871706,None,0.2276036,,,Sep02Silent5,40,2022_Sep_02_1418,ProdSingRedoBetween,2021.2.3,59.98220928
,,,,22,0,22,0,,,,,,,,,,,,,,,,,,,,,,658.4074628,None,,,,,,,,,,,,,,,,,curve,156,23,silent,new,null,654.6475878,None,654.6475878,None,4,2.5471487,654.6475878,None,2.5471487,657.22295,None,657.7272315,None,657.7272315,None,f,0.6514992,657.7272315,None,0.6514992,,,Sep02Silent5,40,2022_Sep_02_1418,ProdSingRedoBetween,2021.2.3,59.98220928
,,,,23,0,23,0,,,,,,,,,,,,,,,,,,,,,,661.7607913,None,,,,,,,,,,,,,,,,,population,173,24,silent,new,null,658.9096679,None,658.9096679,None,4,2.0849721,658.9096679,None,2.0849721,661.0148154,None,661.5272561,None,661.5272561,None,f,0.2115051,661.5272561,None,0.2115051,,,Sep02Silent5,40,2022_Sep_02_1418,ProdSingRedoBetween,2021.2.3,59.98220928
,,,,24,0,24,0,,,,,,,,,,,,,,,,,,,,,,664.8974464,None,,,,,,,,,,,,,,,,,public,78,25,silent,old,red,662.266193,None,662.266193,None,5,1.6964689,662.266193,None,1.6964689,663.9818471,None,664.5064834,None,664.5064834,None,r,0.3602774,664.5064834,None,0.3602774,,,Sep02Silent5,40,2022_Sep_02_1418,ProdSingRedoBetween,2021.2.3,59.98220928
,,,,25,0,25,0,,,,,,,,,,,,,,,,,,,,,,668.2023681,None,,,,,,,,,,,,,,,,,youth,55,26,silent,old,blue,665.4047319,None,665.4047319,None,2,2.01416,665.4047319,None,2.01416,667.4497861,None,667.9551453,None,667.9551453,None,f,0.2238093,667.9551453,None,0.2238093,,,Sep02Silent5,40,2022_Sep_02_1418,ProdSingRedoBetween,2021.2.3,59.98220928
,,,,26,0,26,0,,,,,,,,,,,,,,,,,,,,,,671.473367,None,,,,,,,,,,,,,,,,,clear,56,27,silent,old,blue,668.7179606,None,668.7179606,None,5,1.9327665,668.7179606,None,1.9327665,670.6707078,None,671.1728267,None,671.1728267,None,r,0.2780056,671.1728267,None,0.2780056,,,Sep02Silent5,40,2022_Sep_02_1418,ProdSingRedoBetween,2021.2.3,59.98220928
,,,,27,0,27,0,,,,,,,,,,,,,,,,,,,,,,674.6403189,None,,,,,,,,,,,,,,,,,finish,121,28,silent,new,null,671.9883826,None,671.9883826,None,4,1.7583294,671.9883826,None,1.7583294,673.774138,None,674.2734477,None,674.2734477,None,f,0.3453045,674.2734477,None,0.3453045,,,Sep02Silent5,40,2022_Sep_02_1418,ProdSingRedoBetween,2021.2.3,59.98220928
,,,,28,0,28,0,,,,,,,,,,,,,,,,,,,,,,678.1438855,None,,,,,,,,,,,,,,,,,beginning,149,29,silent,new,null,675.1525988,None,675.1525988,None,6,2.2821317,675.1525988,None,2.2821317,677.4612344,None,677.9645108,None,677.9645108,None,r,0.1502879,677.9645108,None,0.1502879,,,Sep02Silent5,40,2022_Sep_02_1418,ProdSingRedoBetween,2021.2.3,59.98220928
,,,,29,0,29,0,,,,,,,,,,,,,,,,,,,,,,683.4157378,None,,,,,,,,,,,,,,,,,foundation,142,30,silent,new,null,678.6472636,None,678.6472636,None,5,3.3634504,678.6472636,None,3.3634504,682.0322866,None,682.5373503,None,682.5373503,None,f,0.8573765,682.5373503,None,0.8573765,,,Sep02Silent5,40,2022_Sep_02_1418,ProdSingRedoBetween,2021.2.3,59.98220928
,,,,30,0,30,0,,,,,,,,,,,,,,,,,,,,,,686.7523638,None,,,,,,,,,,,,,,,,,solution,103,31,silent,new,null,683.9270933,None,683.9270933,None,6,1.8276681,683.9270933,None,1.8276681,685.7897472,None,686.302124,None,686.302124,None,r,0.4205664,686.302124,None,0.4205664,,,Sep02Silent5,40,2022_Sep_02_1418,ProdSingRedoBetween,2021.2.3,59.98220928
,,,,31,0,31,0,,,,,,,,,,,,,,,,,,,,,,690.4895811,None,,,,,,,,,,,,,,,,,prime,146,32,silent,new,null,687.2622522,None,687.2622522,None,2,2.2364452,687.2622522,None,2.2364452,689.5218967,None,690.0269224,None,690.0269224,None,f,0.4398175,690.0269224,None,0.4398175,,,Sep02Silent5,40,2022_Sep_02_1418,ProdSingRedoBetween,2021.2.3,59.98220928
,,,,32,0,32,0,,,,,,,,,,,,,,,,,,,,,,693.6092699,None,,,,,,,,,,,,,,,,,worker,32,33,silent,old,blue,690.9965129,None,690.9965129,None,6,1.8062104,690.9965129,None,1.8062104,692.8267083,None,693.3318134,None,693.3318134,None,r,0.2549488,693.3318134,None,0.2549488,,,Sep02Silent5,40,2022_Sep_02_1418,ProdSingRedoBetween,2021.2.3,59.98220928
,,,,33,0,33,0,,,,,,,,,,,,,,,,,,,,,,697.6133009,None,,,,,,,,,,,,,,,,,death,25,34,silent,old,yellow,694.1141606,None,694.1141606,None,4,2.4084626,694.1141606,None,2.4084626,696.5527239,None,697.062742,None,697.062742,None,f,0.5320342,697.062742,None,0.5320342,,,Sep02Silent5,40,2022_Sep_02_1418,ProdSingRedoBetween,2021.2.3,59.98220928
,,,,34,0,34,0,,,,,,,,,,,,,,,,,,,,,,700.6497455,None,,,,,,,,,,,,,,,,,resistance,168,35,silent,new,null,698.1344313,None,698.1344313,None,2,1.6844849,698.1344313,None,1.6844849,699.8548832,None,700.3661022,None,700.3661022,None,f,0.2526237,700.3661022,None,0.2526237,,,Sep02Silent5,40,2022_Sep_02_1418,ProdSingRedoBetween,2021.2.3,59.98220928
,,,,35,0,35,0,,,,,,,,,,,,,,,,,,,,,,703.6539052,None,,,,,,,,,,,,,,,,,republic,88,36,silent,old,red,701.1624264,None,701.1624264,None,6,1.624259,701.1624264,None,1.624259,702.8018627,None,703.3082454,None,703.3082454,None,r,0.3187547,703.3082454,None,0.3187547,,,Sep02Silent5,40,2022_Sep_02_1418,ProdSingRedoBetween,2021.2.3,59.98220928
,,,,36,0,36,0,,,,,,,,,,,,,,,,,,,,,,706.7723402,None,,,,,,,,,,,,,,,,,tough,91,37,silent,new,null,704.1604156,None,704.1604156,None,4,1.8502215,704.1604156,None,1.8502215,706.0471527,None,706.5558267,None,706.5558267,None,f,0.190818,706.5558267,None,0.190818,,,Sep02Silent5,40,2022_Sep_02_1418,ProdSingRedoBetween,2021.2.3,59.98220928
,,,,37,0,37,0,,,,,,,,,,,,,,,,,,,,,,711.8441114,None,,,,,,,,,,,,,,,,,attack,96,38,silent,new,null,707.2864176,None,707.2864176,None,3,3.7402416,707.2864176,None,3.7402416,711.0451979,None,711.5609672,None,711.5609672,None,f,0.2577645,711.5609672,None,0.2577645,,,Sep02Silent5,40,2022_Sep_02_1418,ProdSingRedoBetween,2021.2.3,59.98220928
,,,,38,0,38,0,,,,,,,,,,,,,,,,,,,,,,714.5133674,None,,,,,,,,,,,,,,,,,strength,16,39,silent,old,yellow,712.3507189,None,712.3507189,None,6,1.4840315,712.3507189,None,1.4840315,713.8638439,None,714.3685921,None,714.3685921,None,r,0.1141164,714.3685921,None,0.1141164,,,Sep02Silent5,40,2022_Sep_02_1418,ProdSingRedoBetween,2021.2.3,59.98220928
,,,,39,0,39,0,,,,,,,,,,,,,,,,,,,,,,719.568613,None,,,,,,,,,,,,,,,,,plane,132,40,silent,new,null,715.0220376,None,715.0220376,None,5,3.8926838,715.0220376,None,3.8926838,718.9359605,None,719.4433518,None,719.4433518,None,f,0.09542,719.4433518,None,0.09542,,,Sep02Silent5,40,2022_Sep_02_1418,ProdSingRedoBetween,2021.2.3,59.98220928
,,,,40,0,40,0,,,,,,,,,,,,,,,,,,,,,,724.4414753,None,,,,,,,,,,,,,,,,,height,49,41,silent,old,blue,720.0755805,None,720.0755805,None,4,2.087071,720.0755805,None,2.087071,722.1885837,None,722.6936473,None,722.6936473,None,f,1.7171402,722.6936473,None,1.7171402,,,Sep02Silent5,40,2022_Sep_02_1418,ProdSingRedoBetween,2021.2.3,59.98220928
,,,,41,0,41,0,,,,,,,,,,,,,,,,,,,,,,727.9771062,None,,,,,,,,,,,,,,,,,drove,124,42,silent,new,null,724.9453207,None,724.9453207,None,1,1.8813681,724.9453207,None,1.8813681,726.8487901,None,727.3598963,None,727.3598963,None,n,0.5948701,727.3598963,None,0.5948701,,,Sep02Silent5,40,2022_Sep_02_1418,ProdSingRedoBetween,2021.2.3,59.98220928
,,,,42,0,42,0,,,,,,,,,,,,,,,,,,,,,,730.7964836,None,,,,,,,,,,,,,,,,,management,31,43,silent,old,blue,728.48351,None,728.48351,None,4,1.6071907,728.48351,None,1.6071907,730.1125621,None,730.6212308,None,730.6212308,None,f,0.1496519,730.6212308,None,0.1496519,,,Sep02Silent5,40,2022_Sep_02_1418,ProdSingRedoBetween,2021.2.3,59.98220928
,,,,43,0,43,0,,,,,,,,,,,,,,,,,,,,,,735.9515759,None,,,,,,,,,,,,,,,,,brief,175,44,silent,new,null,731.3093262,None,731.3093262,None,4,4.0132257,731.3093262,None,4.0132257,735.3508815,None,735.8515491,None,735.8515491,None,f,0.0710784,735.8515491,None,0.0710784,,,Sep02Silent5,40,2022_Sep_02_1418,ProdSingRedoBetween,2021.2.3,59.98220928
,,,,44,0,44,0,,,,,,,,,,,,,,,,,,,,,,738.5874882,None,,,,,,,,,,,,,,,,,bureau,151,45,silent,new,null,736.4526502,None,736.4526502,None,1,1.4059577,736.4526502,None,1.4059577,737.8868059,None,738.3874596,None,738.3874596,None,n,0.175218,738.3874596,None,0.175218,,,Sep02Silent5,40,2022_Sep_02_1418,ProdSingRedoBetween,2021.2.3,59.98220928
,,,,45,0,45,0,,,,,,,,,,,,,,,,,,,,,,742.0909549,None,,,,,,,,,,,,,,,,,light,117,46,silent,new,null,739.0881819,None,739.0881819,None,2,2.2344863,739.0881819,None,2.2344863,741.3401267,None,741.8408492,None,741.8408492,None,f,0.2257826,741.8408492,None,0.2257826,,,Sep02Silent5,40,2022_Sep_02_1418,ProdSingRedoBetween,2021.2.3,59.98220928
,,,,46,0,46,0,,,,,,,,,,,,,,,,,,,,,,744.8938814,None,,,,,,,,,,,,,,,,,employment,174,47,silent,new,null,742.5922963,None,742.5922963,None,4,1.5623244,742.5922963,None,1.5623244,744.1821194,None,744.6949303,None,744.6949303,None,f,0.1716866,744.6949303,None,0.1716866,,,Sep02Silent5,40,2022_Sep_02_1418,ProdSingRedoBetween,2021.2.3,59.98220928
,,,,47,0,47,0,,,,,,,,,,,,,,,,,,,,,,747.9158685,None,,,,,,,,,,,,,,,,,victory,4,48,silent,old,yellow,745.3944925,None,745.3944925,None,4,1.8721171,745.3944925,None,1.8721171,747.3032064,None,747.8134521,None,747.8134521,None,f,0.0771567,747.8134521,None,0.0771567,,,Sep02Silent5,40,2022_Sep_02_1418,ProdSingRedoBetween,2021.2.3,59.98220928
,,,,48,0,48,0,,,,,,,,,,,,,,,,,,,,,,752.0008437,None,,,,,,,,,,,,,,,,,south,87,49,silent,old,red,748.4309484,None,748.4309484,None,2,2.8116742,748.4309484,None,2.8116742,751.2668157,None,751.7674586,None,751.7674586,None,f,0.2031709,751.7674586,None,0.2031709,,,Sep02Silent5,40,2022_Sep_02_1418,ProdSingRedoBetween,2021.2.3,59.98220928
,,,,49,0,49,0,,,,,,,,,,,,,,,,,,,,,,755.9715274,None,,,,,,,,,,,,,,,,,motion,21,50,silent,old,yellow,752.5025492,None,752.5025492,None,6,2.7000439,752.5025492,None,2.7000439,755.2226212,None,755.7383185,None,755.7383185,None,r,0.216324,755.7383185,None,0.216324,,,Sep02Silent5,40,2022_Sep_02_1418,ProdSingRedoBetween,2021.2.3,59.98220928
,,,,50,0,50,0,,,,,,,,,,,,,,,,,,,,,,763.4956251,None,,,,,,,,,,,,,,,,,message,179,51,silent,new,null,756.4724325,None,756.4724325,None,5,5.2422731,756.4724325,None,5.2422731,761.7479825,None,762.2741361,None,762.2741361,None,r,1.2005733,762.2741361,None,1.2005733,,,Sep02Silent5,40,2022_Sep_02_1418,ProdSingRedoBetween,2021.2.3,59.98220928
,,,,51,0,51,0,,,,,,,,,,,,,,,,,,,,,,769.8074635,None,,,,,,,,,,,,,,,,,citizen,98,52,silent,new,null,764.0165293,None,764.0165293,None,2,4.1222245,764.0165293,None,4.1222245,768.167861,None,768.6818377,None,768.6818377,None,f,1.0972679,768.6818377,None,1.0972679,,,Sep02Silent5,40,2022_Sep_02_1418,ProdSingRedoBetween,2021.2.3,59.98220928
,,,,52,0,52,0,,,,,,,,,,,,,,,,,,,,,,776.5754787,None,,,,,,,,,,,,,,,,,dance,57,53,silent,old,blue,770.3213487,None,770.3213487,None,3,5.1292549,770.3213487,None,5.1292549,775.474509,None,775.9752893,None,775.9752893,None,f,0.5794354,775.9752893,None,0.5794354,,,Sep02Silent5,40,2022_Sep_02_1418,ProdSingRedoBetween,2021.2.3,59.98220928
,,,,53,0,53,0,,,,,,,,,,,,,,,,,,,,,,779.5449933,None,,,,,,,,,,,,,,,,,question,112,54,silent,new,null,777.0918662,None,777.0918662,None,5,1.5668127,777.0918662,None,1.5668127,778.6776583,None,779.17975,None,779.17975,None,r,0.3349398,779.17975,None,0.3349398,,,Sep02Silent5,40,2022_Sep_02_1418,ProdSingRedoBetween,2021.2.3,59.98220928
,,,,54,0,54,0,,,,,,,,,,,,,,,,,,,,,,782.4478829,None,,,,,,,,,,,,,,,,,individual,65,55,silent,old,red,780.056989,None,780.056989,None,6,1.3937148,780.056989,None,1.3937148,781.4835915,None,781.9977267,None,781.9977267,None,r,0.4290635,781.9977267,None,0.4290635,,,Sep02Silent5,40,2022_Sep_02_1418,ProdSingRedoBetween,2021.2.3,59.98220928
,,,,55,0,55,0,,,,,,,,,,,,,,,,,,,,,,785.2197621,None,,,,,,,,,,,,,,,,,swift,77,56,silent,old,red,782.9673074,None,782.9673074,None,5,1.5553248,782.9673074,None,1.5553248,784.5510827,None,785.054247,None,785.054247,None,r,0.1326528,785.054247,None,0.1326528,,,Sep02Silent5,40,2022_Sep_02_1418,ProdSingRedoBetween,2021.2.3,59.98220928
,,,,56,0,56,0,,,,,,,,,,,,,,,,,,,,,,788.9736152,None,,,,,,,,,,,,,,,,,quarter,68,57,silent,old,red,785.7348585,None,785.7348585,None,4,1.3398142,785.7348585,None,1.3398142,787.1036214,None,787.6106097,None,787.6106097,None,f,1.3362372,787.6106097,None,1.3362372,,,Sep02Silent5,40,2022_Sep_02_1418,ProdSingRedoBetween,2021.2.3,59.98220928
,,,,57,0,57,0,,,,,,,,,,,,,,,,,,,,,,791.4651738,None,,,,,,,,,,,,,,,,,contract,67,58,silent,old,red,789.5042326,None,789.5042326,None,6,1.282367,789.5042326,None,1.282367,790.8073927,None,791.3072607,None,791.3072607,None,r,0.1277499,791.3072607,None,0.1277499,,,Sep02Silent5,40,2022_Sep_02_1418,ProdSingRedoBetween,2021.2.3,59.98220928
,,,,58,0,58,0,,,,,,,,,,,,,,,,,,,,,,794.1932395,None,,,,,,,,,,,,,,,,,expansion,62,59,silent,old,red,791.977766,None,791.977766,None,6,1.1929369,791.977766,None,1.1929369,793.1935089,None,793.6963819,None,793.6963819,None,r,0.4742263,793.6963819,None,0.4742263,,,Sep02Silent5,40,2022_Sep_02_1418,ProdSingRedoBetween,2021.2.3,59.98220928
,,,,59,0,59,0,,,,,,,,,,,,,,,,,,,,,,796.9793717,None,,,,,,,,,,,,,,,,,group,64,60,silent,old,red,794.6964535,None,794.6964535,None,4,1.4581491,794.6964535,None,1.4581491,796.189419,None,796.695618,None,796.695618,None,f,0.2671598,796.695618,None,0.2671598,,,Sep02Silent5,40,2022_Sep_02_1418,ProdSingRedoBetween,2021.2.3,59.98220928
,,,,60,0,60,0,,,,,,,,,,,,,,,,,,,,,,801.2836505,None,,,,,,,,,,,,,,,,,command,71,61,silent,old,red,797.4830838,None,797.4830838,None,6,3.0077139,797.4830838,None,3.0077139,800.5171618,None,801.0167722,None,801.0167722,None,r,0.2499599,801.0167722,None,0.2499599,,,Sep02Silent5,40,2022_Sep_02_1418,ProdSingRedoBetween,2021.2.3,59.98220928
,,,,61,0,61,0,,,,,,,,,,,,,,,,,,,,,,804.2700382,None,,,,,,,,,,,,,,,,,commercial,39,62,silent,old,blue,801.7902359,None,801.7902359,None,6,1.4605761,801.7902359,None,1.4605761,803.2776426,None,803.7938517,None,803.7938517,None,r,0.456846,803.7938517,None,0.456846,,,Sep02Silent5,40,2022_Sep_02_1418,ProdSingRedoBetween,2021.2.3,59.98220928
,,,,62,0,62,0,,,,,,,,,,,,,,,,,,,,,,806.8725434,None,,,,,,,,,,,,,,,,,meeting,35,63,silent,old,blue,804.7789513,None,804.7789513,None,5,1.3598514,804.7789513,None,1.3598514,806.1578722,None,806.6727909,None,806.6727909,None,f,0.169857,806.6727909,None,0.169857,,,Sep02Silent5,40,2022_Sep_02_1418,ProdSingRedoBetween,2021.2.3,59.98220928
,,,,63,0,63,0,,,,,,,,,,,,,,,,,,,,,,809.3793924,None,,,,,,,,,,,,,,,,,safety,66,64,silent,old,red,807.3792582,None,807.3792582,None,6,1.2714567,807.3792582,None,1.2714567,808.6757313,None,809.179585,None,809.179585,None,r,0.1672741,809.179585,None,0.1672741,,,Sep02Silent5,40,2022_Sep_02_1418,ProdSingRedoBetween,2021.2.3,59.98220928
,,,,64,0,64,0,,,,,,,,,,,,,,,,,,,,,,811.833032,None,,,,,,,,,,,,,,,,,patient,171,65,silent,new,null,809.9023185,None,809.9023185,None,4,1.236774,809.9023185,None,1.236774,811.1718272,None,811.6867786,None,811.6867786,None,f,0.1240854,811.6867786,None,0.1240854,,,Sep02Silent5,40,2022_Sep_02_1418,ProdSingRedoBetween,2021.2.3,59.98220928
,,,,65,0,65,0,,,,,,,,,,,,,,,,,,,,,,815.2501659,None,,,,,,,,,,,,,,,,,color,169,66,silent,new,null,812.3502214,None,812.3502214,None,6,2.2203854,812.3502214,None,2.2203854,814.5974815,None,815.0988599,None,815.0988599,None,r,0.1280381,815.0988599,None,0.1280381,,,Sep02Silent5,40,2022_Sep_02_1418,ProdSingRedoBetween,2021.2.3,59.98220928
,,,,66,0,66,0,,,,,,,,,,,,,,,,,,,,,,818.0245251,None,,,,,,,,,,,,,,,,,thing,7,67,silent,old,yellow,815.7818452,None,815.7818452,None,2,1.4687964,815.7818452,None,1.4687964,817.2660566,None,817.7669308,None,817.7669308,None,f,0.2198958,817.7669308,None,0.2198958,,,Sep02Silent5,40,2022_Sep_02_1418,ProdSingRedoBetween,2021.2.3,59.98220928
,,,,67,0,67,0,,,,,,,,,,,,,,,,,,,,,,821.4704146,None,,,,,,,,,,,,,,,,,grade,111,68,silent,new,null,818.5403319,None,818.5403319,None,1,1.5663619,818.5403319,None,1.5663619,820.1357429,None,820.6401387,None,820.6401387,None,n,0.8025506,820.6401387,None,0.8025506,,,Sep02Silent5,40,2022_Sep_02_1418,ProdSingRedoBetween,2021.2.3,59.98220928
,,,,68,0,68,0,,,,,,,,,,,,,,,,,,,,,,825.1241883,None,,,,,,,,,,,,,,,,,opening,42,69,silent,old,blue,821.9737453,None,821.9737453,None,4,2.4210272,821.9737453,None,2.4210272,824.4309576,None,824.9406504,None,824.9406504,None,f,0.1581193,824.9406504,None,0.1581193,,,Sep02Silent5,40,2022_Sep_02_1418,ProdSingRedoBetween,2021.2.3,59.98220928
,,,,69,0,69,0,,,,,,,,,,,,,,,,,,,,,,829.5952394,None,,,,,,,,,,,,,,,,,sweet,109,70,silent,new,null,825.6281598,None,825.6281598,None,4,3.3424394,825.6281598,None,3.3424394,828.9966304,None,829.5120107,None,829.5120107,None,f,0.0667364,829.5120107,None,0.0667364,,,Sep02Silent5,40,2022_Sep_02_1418,ProdSingRedoBetween,2021.2.3,59.98220928
,,,,70,0,70,0,,,,,,,,,,,,,,,,,,,,,,832.8651892,None,,,,,,,,,,,,,,,,,throw,69,71,silent,old,red,830.0967184,None,830.0967184,None,4,2.153817,830.0967184,None,2.153817,832.2891011,None,832.7985926,None,832.7985926,None,f,0.0440367,832.7985926,None,0.0440367,,,Sep02Silent5,40,2022_Sep_02_1418,ProdSingRedoBetween,2021.2.3,59.98220928
,,,,71,0,71,0,,,,,,,,,,,,,,,,,,,,,,835.4674717,None,,,,,,,,,,,,,,,,,department,10,72,silent,old,yellow,833.365682,None,833.365682,None,6,1.429003,833.365682,None,1.429003,834.81686,None,835.3174819,None,835.3174819,None,r,0.1331876,835.3174819,None,0.1331876,,,Sep02Silent5,40,2022_Sep_02_1418,ProdSingRedoBetween,2021.2.3,59.98220928
,,,,72,0,72,0,,,,,,,,,,,,,,,,,,,,,,837.9369089,None,,,,,,,,,,,,,,,,,match,15,73,silent,old,yellow,835.9682721,None,835.9682721,None,5,1.2903267,835.9682721,None,1.2903267,837.286177,None,837.7867255,None,837.7867255,None,f,0.1279367,837.7867255,None,0.1279367,,,Sep02Silent5,40,2022_Sep_02_1418,ProdSingRedoBetween,2021.2.3,59.98220928
,,,,73,0,73,0,,,,,,,,,,,,,,,,,,,,,,840.1727562,None,,,,,,,,,,,,,,,,,debate,30,74,silent,old,blue,838.4396387,None,838.4396387,None,5,1.067022,838.4396387,None,1.067022,839.5220326,None,840.0221963,None,840.0221963,None,r,0.1324213,840.0221963,None,0.1324213,,,Sep02Silent5,40,2022_Sep_02_1418,ProdSingRedoBetween,2021.2.3,59.98220928
,,,,74,0,74,0,,,,,,,,,,,,,,,,,,,,,,842.7582144,None,,,,,,,,,,,,,,,,,reach,153,75,silent,new,null,840.6744025,None,840.6744025,None,2,1.4321674,840.6744025,None,1.4321674,842.1340467,None,842.6414923,None,842.6414923,None,f,0.0890613,842.6414923,None,0.0890613,,,Sep02Silent5,40,2022_Sep_02_1418,ProdSingRedoBetween,2021.2.3,59.98220928
,,,,75,0,75,0,,,,,,,,,,,,,,,,,,,,,,845.6444273,None,,,,,,,,,,,,,,,,,shock,137,76,silent,new,null,843.2632754,None,843.2632754,None,1,1.6754371,843.2632754,None,1.6754371,844.9612303,None,845.4610276,None,845.4610276,None,n,0.1575946,845.4610276,None,0.1575946,,,Sep02Silent5,40,2022_Sep_02_1418,ProdSingRedoBetween,2021.2.3,59.98220928
,,,,76,0,76,0,,,,,,,,,,,,,,,,,,,,,,848.1467576,None,,,,,,,,,,,,,,,,,growth,43,77,silent,old,blue,846.1474441,None,846.1474441,None,5,1.3191329,846.1474441,None,1.3191329,847.501521,None,848.0134805,None,848.0134805,None,f,0.1170789,848.0134805,None,0.1170789,,,Sep02Silent5,40,2022_Sep_02_1418,ProdSingRedoBetween,2021.2.3,59.98220928
,,,,77,0,77,0,,,,,,,,,,,,,,,,,,,,,,850.5660258,None,,,,,,,,,,,,,,,,,point,8,78,silent,old,yellow,848.6475342,None,848.6475342,None,5,1.2670764,848.6475342,None,1.2670764,849.9370219,None,850.4492458,None,850.4492458,None,f,0.0893474,850.4492458,None,0.0893474,,,Sep02Silent5,40,2022_Sep_02_1418,ProdSingRedoBetween,2021.2.3,59.98220928
,,,,78,0,78,0,,,,,,,,,,,,,,,,,,,,,,853.5857471,None,,,,,,,,,,,,,,,,,symbol,143,79,silent,new,null,851.066799,None,851.066799,None,2,1.8237553,851.066799,None,1.8237553,852.9196508,None,853.4198724,None,853.4198724,None,f,0.1507078,853.4198724,None,0.1507078,,,Sep02Silent5,40,2022_Sep_02_1418,ProdSingRedoBetween,2021.2.3,59.98220928
,,,,79,0,79,0,,,,,,,,,,,,,,,,,,,,,,857.0224064,None,,,,,,,,,,,,,,,,,comedy,0,80,silent,old,yellow,854.0864001,None,854.0864001,None,6,2.1321763,854.0864001,None,2.1321763,856.2513948,None,856.7555721,None,856.7555721,None,r,0.2470153,856.7555721,None,0.2470153,,,Sep02Silent5,40,2022_Sep_02_1418,ProdSingRedoBetween,2021.2.3,59.98220928
,,,,80,0,80,0,,,,,,,,,,,,,,,,,,,,,,860.5785275,None,,,,,,,,,,,,,,,,,shear,72,81,silent,old,red,857.5231304,None,857.5231304,None,4,2.3435382,857.5231304,None,2.3435382,859.8923716,None,860.402132,None,860.402132,None,f,0.1445379,860.402132,None,0.1445379,,,Sep02Silent5,40,2022_Sep_02_1418,ProdSingRedoBetween,2021.2.3,59.98220928
,,,,81,0,81,0,,,,,,,,,,,,,,,,,,,,,,863.3955171,None,,,,,,,,,,,,,,,,,hearing,52,82,silent,old,blue,861.0932111,None,861.0932111,None,4,1.6933884,861.0932111,None,1.6933884,862.8116035,None,863.3122107,None,863.3122107,None,f,0.0584458,863.3122107,None,0.0584458,,,Sep02Silent5,40,2022_Sep_02_1418,ProdSingRedoBetween,2021.2.3,59.98220928
,,,,82,0,82,0,,,,,,,,,,,,,,,,,,,,,,866.848737,None,,,,,,,,,,,,,,,,,country,148,83,silent,new,null,863.8963983,None,863.8963983,None,6,2.2262288,863.8963983,None,2.2262288,866.1529067,None,866.6655387,None,866.6655387,None,r,0.1610818,866.6655387,None,0.1610818,,,Sep02Silent5,40,2022_Sep_02_1418,ProdSingRedoBetween,2021.2.3,59.98220928
,,,,83,0,83,0,,,,,,,,,,,,,,,,,,,,,,869.5517078,None,,,,,,,,,,,,,,,,,quantity,51,84,silent,old,blue,867.3521537,None,867.3521537,None,6,1.3865472,867.3521537,None,1.3865472,868.7700937,None,869.2846846,None,869.2846846,None,r,0.2459746,869.2846846,None,0.2459746,,,Sep02Silent5,40,2022_Sep_02_1418,ProdSingRedoBetween,2021.2.3,59.98220928
,,,,84,0,84,0,,,,,,,,,,,,,,,,,,,,,,873.9394148,None,,,,,,,,,,,,,,,,,revolution,131,85,silent,new,null,870.0532913,None,870.0532913,None,2,2.2532987,870.0532913,None,2.2532987,872.3510158,None,872.8662967,None,872.8662967,None,f,1.0563418,872.8662967,None,1.0563418,,,Sep02Silent5,40,2022_Sep_02_1418,ProdSingRedoBetween,2021.2.3,59.98220928
,,,,85,0,85,0,,,,,,,,,,,,,,,,,,,,,,876.6940938,None,,,,,,,,,,,,,,,,,murder,11,86,silent,old,yellow,874.4405096,None,874.4405096,None,1,1.4821958,874.4405096,None,1.4821958,875.9413969,None,876.4420834,None,876.4420834,None,n,0.2246196,876.4420834,None,0.2246196,,,Sep02Silent5,40,2022_Sep_02_1418,ProdSingRedoBetween,2021.2.3,59.98220928
,,,,86,0,86,0,,,,,,,,,,,,,,,,,,,,,,879.7696673,None,,,,,,,,,,,,,,,,,judge,22,87,silent,old,yellow,877.2115716,None,877.2115716,None,2,1.7750699,877.2115716,None,1.7750699,879.0111346,None,879.5157349,None,879.5157349,None,f,0.2229159,879.5157349,None,0.2229159,,,Sep02Silent5,40,2022_Sep_02_1418,ProdSingRedoBetween,2021.2.3,59.98220928
,,,,87,0,87,0,,,,,,,,,,,,,,,,,,,,,,882.7649801,None,,,,,,,,,,,,,,,,,council,118,88,silent,new,null,880.2830881,None,880.2830881,None,4,1.6636478,880.2830881,None,1.6636478,881.9655279,None,882.4759535,None,882.4759535,None,f,0.270648,882.4759535,None,0.270648,,,Sep02Silent5,40,2022_Sep_02_1418,ProdSingRedoBetween,2021.2.3,59.98220928
,,,,88,0,88,0,,,,,,,,,,,,,,,,,,,,,,885.4509534,None,,,,,,,,,,,,,,,,,power,172,89,silent,new,null,883.2745361,None,883.2745361,None,4,1.5523134,883.2745361,None,1.5523134,884.8607037,None,885.3676878,None,885.3676878,None,f,0.067006,885.3676878,None,0.067006,,,Sep02Silent5,40,2022_Sep_02_1418,ProdSingRedoBetween,2021.2.3,59.98220928
,,,,89,0,89,0,,,,,,,,,,,,,,,,,,,,,,888.0035597,None,,,,,,,,,,,,,,,,,mayor,80,90,silent,old,red,885.9552289,None,885.9552289,None,4,1.3674435,885.9552289,None,1.3674435,887.3529663,None,887.8558895,None,887.8558895,None,f,0.1226523,887.8558895,None,0.1226523,,,Sep02Silent5,40,2022_Sep_02_1418,ProdSingRedoBetween,2021.2.3,59.98220928
,,,,90,0,90,0,,,,,,,,,,,,,,,,,,,,,,890.6226962,None,,,,,,,,,,,,,,,,,bucket,89,91,silent,old,red,888.5087901,None,888.5087901,None,4,1.4540313,888.5087901,None,1.4540313,889.9888327,None,890.4894753,None,890.4894753,None,f,0.1133109,890.4894753,None,0.1133109,,,Sep02Silent5,40,2022_Sep_02_1418,ProdSingRedoBetween,2021.2.3,59.98220928
,,,,91,0,91,0,,,,,,,,,,,,,,,,,,,,,,893.8326932,None,,,,,,,,,,,,,,,,,afternoon,177,92,silent,new,null,891.1336128,None,891.1336128,None,5,2.053032,891.1336128,None,2.053032,893.2097474,None,893.7124191,None,893.7124191,None,f,0.0903638,893.7124191,None,0.0903638,,,Sep02Silent5,40,2022_Sep_02_1418,ProdSingRedoBetween,2021.2.3,59.98220928
,,,,92,0,92,0,,,,,,,,,,,,,,,,,,,,,,896.3619167,None,,,,,,,,,,,,,,,,,brilliant,59,93,silent,old,yellow,894.3435887,None,894.3435887,None,5,1.3070115,894.3435887,None,1.3070115,895.6778495,None,896.1785029,None,896.1785029,None,f,0.1681915,896.1785029,None,0.1681915,,,Sep02Silent5,40,2022_Sep_02_1418,ProdSingRedoBetween,2021.2.3,59.98220928
,,,,93,0,93,0,,,,,,,,,,,,,,,,,,,,,,898.8977401,None,,,,,,,,,,,,,,,,,scale,133,94,silent,new,null,896.8800103,None,896.8800103,None,4,1.354701,896.8800103,None,1.354701,898.2636807,None,898.7702625,None,898.7702625,None,f,0.1124794,898.7702625,None,0.1124794,,,Sep02Silent5,40,2022_Sep_02_1418,ProdSingRedoBetween,2021.2.3,59.98220928
,,,,94,0,94,0,,,,,,,,,,,,,,,,,,,,,,901.6337983,None,,,,,,,,,,,,,,,,,touch,134,95,silent,new,null,899.405816,None,899.405816,None,5,1.5570861,899.405816,None,1.5570861,900.9976777,None,901.5005205,None,901.5005205,None,f,0.1021986,901.5005205,None,0.1021986,,,Sep02Silent5,40,2022_Sep_02_1418,ProdSingRedoBetween,2021.2.3,59.98220928
,,,,95,0,95,0,,,,,,,,,,,,,,,,,,,,,,904.1195351,None,,,,,,,,,,,,,,,,,material,161,96,silent,new,null,902.1361553,None,902.1361553,None,6,1.1224709,902.1361553,None,1.1224709,903.2857347,None,903.7861897,None,903.7861897,None,r,0.3125746,903.7861897,None,0.3125746,,,Sep02Silent5,40,2022_Sep_02_1418,ProdSingRedoBetween,2021.2.3,59.98220928
,,,,96,0,96,0,,,,,,,,,,,,,,,,,,,,,,907.3896336,None,,,,,,,,,,,,,,,,,hunger,79,97,silent,old,red,904.6359123,None,904.6359123,None,4,2.1506807,904.6359123,None,2.1506807,906.8063841,None,907.3166775,None,907.3166775,None,f,0.0541368,907.3166775,None,0.0541368,,,Sep02Silent5,40,2022_Sep_02_1418,ProdSingRedoBetween,2021.2.3,59.98220928
,,,,97,0,97,0,,,,,,,,,,,,,,,,,,,,,,912.1611953,None,,,,,,,,,,,,,,,,,order,73,98,silent,old,red,907.8965866,None,907.8965866,None,6,3.4900559,907.8965866,None,3.4900559,911.4100987,None,911.910805,None,911.910805,None,r,0.2199479,911.910805,None,0.2199479,,,Sep02Silent5,40,2022_Sep_02_1418,ProdSingRedoBetween,2021.2.3,59.98220928
,,,,98,0,98,0,,,,,,,,,,,,,,,,,,,,,,915.7363731,None,,,,,,,,,,,,,,,,,angle,83,99,silent,old,red,912.6615224,None,912.6615224,None,5,2.2850678,912.6615224,None,2.2850678,914.9657104,None,915.4809226,None,915.4809226,None,f,0.2258562,915.4809226,None,0.2258562,,,Sep02Silent5,40,2022_Sep_02_1418,ProdSingRedoBetween,2021.2.3,59.98220928
,,,,99,0,99,0,,,,,,,,,,,,,,,,,,,,,,919.7019034,None,,,,,,,,,,,,,,,,,skill,115,100,silent,new,null,916.2484303,None,916.2484303,None,2,2.6661939,916.2484303,None,2.6661939,918.9346221,None,919.4416474,None,919.4416474,None,n,0.2410425,919.4416474,None,0.2410425,,,Sep02Silent5,40,2022_Sep_02_1418,ProdSingRedoBetween,2021.2.3,59.98220928
,,,,100,0,100,0,,,,,,,,,,,,,,,,,,,,,,922.8715677,None,,,,,,,,,,,,,,,,,society,158,101,silent,new,null,920.2052153,None,920.2052153,None,3,1.9654697,920.2052153,None,1.9654697,922.1889761,None,922.6882694,None,922.6882694,None,f,0.1544377,922.6882694,None,0.1544377,,,Sep02Silent5,40,2022_Sep_02_1418,ProdSingRedoBetween,2021.2.3,59.98220928
,,,,101,0,101,0,,,,,,,,,,,,,,,,,,,,,,928.160264,None,,,,,,,,,,,,,,,,,column,37,102,silent,old,blue,923.3908852,None,923.3908852,None,6,4.1477496,923.3908852,None,4.1477496,927.5614761,None,928.0770237,None,928.0770237,None,r,0.061686,928.0770237,None,0.061686,,,Sep02Silent5,40,2022_Sep_02_1418,ProdSingRedoBetween,2021.2.3,59.98220928
,,,,102,0,102,0,,,,,,,,,,,,,,,,,,,,,,930.7629224,None,,,,,,,,,,,,,,,,,interior,150,103,silent,new,null,928.6636598,None,928.6636598,None,4,1.3789951,928.6636598,None,1.3789951,930.0638996,None,930.5792807,None,930.5792807,None,f,0.1594699,930.5792807,None,0.1594699,,,Sep02Silent5,40,2022_Sep_02_1418,ProdSingRedoBetween,2021.2.3,59.98220928
,,,,103,0,103,0,,,,,,,,,,,,,,,,,,,,,,933.369371,None,,,,,,,,,,,,,,,,,interview,61,104,silent,old,red,931.2910356,None,931.2910356,None,6,1.4075413,931.2910356,None,1.4075413,932.7171399,None,933.23766,None,933.23766,None,r,0.1094011,933.23766,None,0.1094011,,,Sep02Silent5,40,2022_Sep_02_1418,ProdSingRedoBetween,2021.2.3,59.98220928
,,,,104,0,104,0,,,,,,,,,,,,,,,,,,,,,,936.101669,None,,,,,,,,,,,,,,,,,trail,24,105,silent,old,yellow,933.892815,None,933.892815,None,2,1.333828,933.892815,None,1.333828,935.2505815,None,935.7511881,None,935.7511881,None,f,0.3235474,935.7511881,None,0.3235474,,,Sep02Silent5,40,2022_Sep_02_1418,ProdSingRedoBetween,2021.2.3,59.98220928
,,,,105,0,105,0,,,,,,,,,,,,,,,,,,,,,,938.6540798,None,,,,,,,,,,,,,,,,,trial,135,106,silent,new,null,936.6033987,None,936.6033987,None,2,1.3752619,936.6033987,None,1.3752619,938.0062789,None,938.5206531,None,938.5206531,None,f,0.1061679,938.5206531,None,0.1061679,,,Sep02Silent5,40,2022_Sep_02_1418,ProdSingRedoBetween,2021.2.3,59.98220928
,,,,106,0,106,0,,,,,,,,,,,,,,,,,,,,,,941.929313,None,,,,,,,,,,,,,,,,,center,6,107,silent,old,yellow,939.1678987,None,939.1678987,None,4,1.3147512,939.1678987,None,1.3147512,940.5087011,None,941.0232644,None,941.0232644,None,f,0.8752922,941.0232644,None,0.8752922,,,Sep02Silent5,40,2022_Sep_02_1418,ProdSingRedoBetween,2021.2.3,59.98220928
,,,,107,0,107,0,,,,,,,,,,,,,,,,,,,,,,944.3949927,None,,,,,,,,,,,,,,,,,household,74,108,silent,old,red,942.4413629,None,942.4413629,None,6,1.2732083,942.4413629,None,1.2732083,943.7424415,None,944.2433194,None,944.2433194,None,r,0.1192717,944.2433194,None,0.1192717,,,Sep02Silent5,40,2022_Sep_02_1418,ProdSingRedoBetween,2021.2.3,59.98220928
,,,,108,0,108,0,,,,,,,,,,,,,,,,,,,,,,946.7289044,None,,,,,,,,,,,,,,,,,break,53,109,silent,old,blue,944.9130758,None,944.9130758,None,4,1.2014515,944.9130758,None,1.2014515,946.1518063,None,946.6621026,None,946.6621026,None,f,0.0444693,946.6621026,None,0.0444693,,,Sep02Silent5,40,2022_Sep_02_1418,ProdSingRedoBetween,2021.2.3,59.98220928
,,,,109,0,109,0,,,,,,,,,,,,,,,,,,,,,,949.6985305,None,,,,,,,,,,,,,,,,,impact,139,110,silent,new,null,947.2366562,None,947.2366562,None,5,1.7659761,947.2366562,None,1.7659761,949.0311281,None,949.5389734,None,949.5389734,None,r,0.1356192,949.5389734,None,0.1356192,,,Sep02Silent5,40,2022_Sep_02_1418,ProdSingRedoBetween,2021.2.3,59.98220928
,,,,110,0,110,0,,,,,,,,,,,,,,,,,,,,,,952.1359741,None,,,,,,,,,,,,,,,,,addition,128,111,silent,new,null,950.2013927,None,950.2013927,None,4,1.2813201,950.2013927,None,1.2813201,951.5047864,None,952.02237,None,952.02237,None,f,0.0842445,952.02237,None,0.0842445,,,Sep02Silent5,40,2022_Sep_02_1418,ProdSingRedoBetween,2021.2.3,59.98220928
,,,,111,0,111,0,,,,,,,,,,,,,,,,,,,,,,955.1708122,None,,,,,,,,,,,,,,,,,ground,123,112,silent,new,null,952.6524751,None,952.6524751,None,4,1.3421784,952.6524751,None,1.3421784,954.019361,None,954.5227248,None,954.5227248,None,f,0.6239006,954.5227248,None,0.6239006,,,Sep02Silent5,40,2022_Sep_02_1418,ProdSingRedoBetween,2021.2.3,59.98220928
,,,,112,0,112,0,,,,,,,,,,,,,,,,,,,,,,957.8945247,None,,,,,,,,,,,,,,,,,minor,120,113,silent,new,null,955.6756831,None,955.6756831,None,6,1.5030618,955.6756831,None,1.5030618,957.2110857,None,957.7261998,None,957.7261998,None,r,0.1326164,957.7261998,None,0.1326164,,,Sep02Silent5,40,2022_Sep_02_1418,ProdSingRedoBetween,2021.2.3,59.98220928
,,,,113,0,113,0,,,,,,,,,,,,,,,,,,,,,,961.2265207,None,,,,,,,,,,,,,,,,,problem,138,114,silent,new,null,958.4118034,None,958.4118034,None,5,2.1988186,958.4118034,None,2.1988186,960.6280834,None,961.1458707,None,961.1458707,None,f,0.0649142,961.1458707,None,0.0649142,,,Sep02Silent5,40,2022_Sep_02_1418,ProdSingRedoBetween,2021.2.3,59.98220928
,,,,114,0,114,0,,,,,,,,,,,,,,,,,,,,,,963.5624598,None,,,,,,,,,,,,,,,,,smooth,27,115,silent,old,yellow,961.7303537,None,961.7303537,None,6,1.2242857,961.7303537,None,1.2242857,962.9795571,None,963.4789766,None,963.4789766,None,r,0.0676799,963.4789766,None,0.0676799,,,Sep02Silent5,40,2022_Sep_02_1418,ProdSingRedoBetween,2021.2.3,59.98220928
,,,,115,0,115,0,,,,,,,,,,,,,,,,,,,,,,965.9645856,None,,,,,,,,,,,,,,,,,sight,110,116,silent,new,null,964.0707429,None,964.0707429,None,2,1.1639114,964.0707429,None,1.1639114,965.272605,None,965.7813985,None,965.7813985,None,f,0.1651758,965.7813985,None,0.1651758,,,Sep02Silent5,40,2022_Sep_02_1418,ProdSingRedoBetween,2021.2.3,59.98220928
,,,,116,0,116,0,,,,,,,,,,,,,,,,,,,,,,968.7174311,None,,,,,,,,,,,,,,,,,clean,36,117,silent,old,blue,966.4749702,None,966.4749702,None,4,1.6316873,966.4749702,None,1.6316873,968.1356141,None,968.6507542,None,968.6507542,None,f,0.0479607,968.6507542,None,0.0479607,,,Sep02Silent5,40,2022_Sep_02_1418,ProdSingRedoBetween,2021.2.3,59.98220928
,,,,117,0,117,0,,,,,,,,,,,,,,,,,,,,,,971.0537274,None,,,,,,,,,,,,,,,,,payment,33,118,silent,old,blue,969.2355076,None,969.2355076,None,6,1.2153097,969.2355076,None,1.2153097,970.4752245,None,970.9864836,None,970.9864836,None,r,0.040175,970.9864836,None,0.040175,,,Sep02Silent5,40,2022_Sep_02_1418,ProdSingRedoBetween,2021.2.3,59.98220928
,,,,118,0,118,0,,,,,,,,,,,,,,,,,,,,,,975.5252962,None,,,,,,,,,,,,,,,,,budget,99,119,silent,new,null,971.5551516,None,971.5551516,None,5,3.2234994,971.5551516,None,3.2234994,974.8067836,None,975.3075774,None,975.3075774,None,f,0.191174,975.3075774,None,0.191174,,,Sep02Silent5,40,2022_Sep_02_1418,ProdSingRedoBetween,2021.2.3,59.98220928
,,,,119,0,119,0,,,,,,,,,,,,,,,,,,,,,,977.9933509,None,,,,,,,,,,,,,,,,,nation,95,120,silent,new,null,976.0373613,None,976.0373613,None,5,1.2212363,976.0373613,None,1.2212363,977.27615,None,977.7785715,None,977.7785715,None,f,0.1840595,977.7785715,None,0.1840595,,,Sep02Silent5,40,2022_Sep_02_1418,ProdSingRedoBetween,2021.2.3,59.98220928
,,,,120,0,120,0,,,,,,,,,,,,,,,,,,,,,,980.2782528,None,,,,,,,,,,,,,,,,,executive,3,121,silent,old,yellow,978.502787,None,978.502787,None,6,1.1638677,978.502787,None,1.1638677,979.6971575,None,980.2193268,None,980.2193268,None,r,0.0235758,980.2193268,None,0.0235758,,,Sep02Silent5,40,2022_Sep_02_1418,ProdSingRedoBetween,2021.2.3,59.98220928
,,,,121,0,121,0,,,,,,,,,,,,,,,,,,,,,,982.3309741,None,,,,,,,,,,,,,,,,,machinery,19,122,silent,old,yellow,980.7936998,None,980.7936998,None,6,0.8410101,980.7936998,None,0.8410101,981.6646652,None,982.1643314,None,982.1643314,None,r,0.1424098,982.1643314,None,0.1424098,,,Sep02Silent5,40,2022_Sep_02_1418,ProdSingRedoBetween,2021.2.3,59.98220928
,,,,122,0,122,0,,,,,,,,,,,,,,,,,,,,,,984.8668439,None,,,,,,,,,,,,,,,,,watch,154,123,silent,new,null,982.8334152,None,982.8334152,None,3,1.4173402,982.8334152,None,1.4173402,984.2685844,None,984.7835344,None,984.7835344,None,f,0.067098,984.7835344,None,0.067098,,,Sep02Silent5,40,2022_Sep_02_1418,ProdSingRedoBetween,2021.2.3,59.98220928
,,,,123,0,123,0,,,,,,,,,,,,,,,,,,,,,,987.4196272,None,,,,,,,,,,,,,,,,,voice,104,124,silent,new,null,985.3748719,None,985.3748719,None,4,1.3077668,985.3748719,None,1.3077668,986.7047488,None,987.219378,None,987.219378,None,f,0.1752904,987.219378,None,0.1752904,,,Sep02Silent5,40,2022_Sep_02_1418,ProdSingRedoBetween,2021.2.3,59.98220928
,,,,124,0,124,0,,,,,,,,,,,,,,,,,,,,,,989.7884234,None,,,,,,,,,,,,,,,,,government,92,125,silent,new,null,987.9336276,None,987.9336276,None,6,1.1731536,987.9336276,None,1.1731536,989.1446678,None,989.6555701,None,989.6555701,None,r,0.1070739,989.6555701,None,0.1070739,,,Sep02Silent5,40,2022_Sep_02_1418,ProdSingRedoBetween,2021.2.3,59.98220928
,,,,125,0,125,0,,,,,,,,,,,,,,,,,,,,,,992.0073836,None,,,,,,,,,,,,,,,,,husband,159,126,silent,new,null,990.2985779,None,990.2985779,None,6,1.0800462,990.2985779,None,1.0800462,991.4067937,None,991.9116099,None,991.9116099,None,r,0.0669616,991.9116099,None,0.0669616,,,Sep02Silent5,40,2022_Sep_02_1418,ProdSingRedoBetween,2021.2.3,59.98220928
,,,,126,0,126,0,,,,,,,,,,,,,,,,,,,,,,994.7434541,None,,,,,,,,,,,,,,,,,build,41,127,silent,old,blue,992.5139193,None,992.5139193,None,3,1.6087196,992.5139193,None,1.6087196,994.1437873,None,994.647469,None,994.647469,None,f,0.0672242,994.647469,None,0.0672242,,,Sep02Silent5,40,2022_Sep_02_1418,ProdSingRedoBetween,2021.2.3,59.98220928
,,,,127,0,127,0,,,,,,,,,,,,,,,,,,,,,,997.8131104,None,,,,,,,,,,,,,,,,,business,44,128,silent,old,blue,995.2596328,None,995.2596328,None,5,1.6629978,995.2596328,None,1.6629978,996.9473815,None,997.4499364,None,997.4499364,None,r,0.3366656,997.4499364,None,0.3366656,,,Sep02Silent5,40,2022_Sep_02_1418,ProdSingRedoBetween,2021.2.3,59.98220928
,,,,128,0,128,0,,,,,,,,,,,,,,,,,,,,,,1000.349077,None,,,,,,,,,,,,,,,,,store,23,129,silent,old,yellow,998.3206711,None,998.3206711,None,4,1.4339387,998.3206711,None,1.4339387,999.7826999,None,1000.282441,None,1000.282441,None,f,0.0481928,1000.282441,None,0.0481928,,,Sep02Silent5,40,2022_Sep_02_1418,ProdSingRedoBetween,2021.2.3,59.98220928
,,,,129,0,129,0,,,,,,,,,,,,,,,,,,,,,,1002.837507,None,,,,,,,,,,,,,,,,,mankind,28,130,silent,old,yellow,1000.852282,None,1000.852282,None,6,1.3422388,1000.852282,None,1.3422388,1002.219404,None,1002.738452,None,1002.738452,None,r,0.0720823,1002.738452,None,0.0720823,,,Sep02Silent5,40,2022_Sep_02_1418,ProdSingRedoBetween,2021.2.3,59.98220928
,,,,130,0,130,0,,,,,,,,,,,,,,,,,,,,,,1006.338274,None,,,,,,,,,,,,,,,,,owner,14,131,silent,old,yellow,1003.352046,None,1003.352046,None,4,2.3865211,1003.352046,None,2.3865211,1005.756204,None,1006.271704,None,1006.271704,None,f,0.0428378,1006.271704,None,0.0428378,,,Sep02Silent5,40,2022_Sep_02_1418,ProdSingRedoBetween,2021.2.3,59.98220928
,,,,131,0,131,0,,,,,,,,,,,,,,,,,,,,,,1009.024276,None,,,,,,,,,,,,,,,,,place,38,132,silent,old,blue,1006.841835,None,1006.841835,None,4,1.5607949,1006.841835,None,1.5607949,1008.425186,None,1008.92715,None,1008.92715,None,f,0.0754811,1008.92715,None,0.0754811,,,Sep02Silent5,40,2022_Sep_02_1418,ProdSingRedoBetween,2021.2.3,59.98220928
,,,,132,0,132,0,,,,,,,,,,,,,,,,,,,,,,1011.109923,None,,,,,,,,,,,,,,,,,quiet,58,133,silent,old,blue,1009.53212,None,1009.53212,None,4,0.8865097,1009.53212,None,0.8865097,1010.443486,None,1010.945956,None,1010.945956,None,f,0.1366946,1010.945956,None,0.1366946,,,Sep02Silent5,40,2022_Sep_02_1418,ProdSingRedoBetween,2021.2.3,59.98220928
,,,,133,0,133,0,,,,,,,,,,,,,,,,,,,,,,1013.502059,None,,,,,,,,,,,,,,,,,region,108,134,silent,new,null,1011.625843,None,1011.625843,None,4,1.2569744,1011.625843,None,1.2569744,1012.917114,None,1013.432266,None,1013.432266,None,f,0.0346088,1013.432266,None,0.0346088,,,Sep02Silent5,40,2022_Sep_02_1418,ProdSingRedoBetween,2021.2.3,59.98220928
,,,,134,0,134,0,,,,,,,,,,,,,,,,,,,,,,1016.049068,None,,,,,,,,,,,,,,,,,surface,162,135,silent,new,null,1014.012955,None,1014.012955,None,5,1.2617186,1014.012955,None,1.2617186,1015.298395,None,1015.79967,None,1015.79967,None,r,0.2190577,1015.79967,None,0.2190577,,,Sep02Silent5,40,2022_Sep_02_1418,ProdSingRedoBetween,2021.2.3,59.98220928
,,,,135,0,135,0,,,,,,,,,,,,,,,,,,,,,,1018.353207,None,,,,,,,,,,,,,,,,,season,81,136,silent,old,red,1016.548656,None,1016.548656,None,6,1.165938,1016.548656,None,1.165938,1017.734299,None,1018.237939,None,1018.237939,None,r,0.09294,1018.237939,None,0.09294,,,Sep02Silent5,40,2022_Sep_02_1418,ProdSingRedoBetween,2021.2.3,59.98220928
,,,,136,0,136,0,,,,,,,,,,,,,,,,,,,,,,1020.585969,None,,,,,,,,,,,,,,,,,entrance,97,137,silent,new,null,1018.875866,None,1018.875866,None,6,0.9747071,1018.875866,None,0.9747071,1019.869565,None,1020.371466,None,1020.371466,None,r,0.199199,1020.371466,None,0.199199,,,Sep02Silent5,40,2022_Sep_02_1418,ProdSingRedoBetween,2021.2.3,59.98220928
,,,,137,0,137,0,,,,,,,,,,,,,,,,,,,,,,1023.221804,None,,,,,,,,,,,,,,,,,frank,160,138,silent,new,null,1021.090151,None,1021.090151,None,1,1.4244803,1021.090151,None,1.4244803,1022.540806,None,1023.060783,None,1023.060783,None,n,0.1338866,1023.060783,None,0.1338866,,,Sep02Silent5,40,2022_Sep_02_1418,ProdSingRedoBetween,2021.2.3,59.98220928
,,,,138,0,138,0,,,,,,,,,,,,,,,,,,,,,,1026.108103,None,,,,,,,,,,,,,,,,,sunset,165,139,silent,new,null,1023.726459,None,1023.726459,None,1,1.4201065,1023.726459,None,1.4201065,1025.174785,None,1025.674517,None,1025.674517,None,n,0.4161523,1025.674517,None,0.4161523,,,Sep02Silent5,40,2022_Sep_02_1418,ProdSingRedoBetween,2021.2.3,59.98220928
,,,,139,0,139,0,,,,,,,,,,,,,,,,,,,,,,1028.393683,None,,,,,,,,,,,,,,,,,company,18,140,silent,old,yellow,1026.619402,None,1026.619402,None,6,1.1272206,1026.619402,None,1.1272206,1027.777487,None,1028.281036,None,1028.281036,None,r,0.0816314,1028.281036,None,0.0816314,,,Sep02Silent5,40,2022_Sep_02_1418,ProdSingRedoBetween,2021.2.3,59.98220928
,,,,140,0,140,0,,,,,,,,,,,,,,,,,,,,,,1030.962834,None,,,,,,,,,,,,,,,,,display,116,141,silent,new,null,1028.90423,None,1028.90423,None,2,1.3703819,1028.90423,None,1.3703819,1030.297371,None,1030.81297,None,1030.81297,None,n,0.1337423,1030.81297,None,0.1337423,,,Sep02Silent5,40,2022_Sep_02_1418,ProdSingRedoBetween,2021.2.3,59.98220928
,,,,141,0,141,0,,,,,,,,,,,,,,,,,,,,,,1034.252374,None,,,,,,,,,,,,,,,,,write,70,142,silent,old,red,1031.466373,None,1031.466373,None,1,1.8083111,1031.466373,None,1.8083111,1033.303269,None,1033.815942,None,1033.815942,None,n,0.4187803,1033.815942,None,0.4187803,,,Sep02Silent5,40,2022_Sep_02_1418,ProdSingRedoBetween,2021.2.3,59.98220928
,,,,142,0,142,0,,,,,,,,,,,,,,,,,,,,,,1038.920932,None,,,,,,,,,,,,,,,,,corner,90,143,silent,new,null,1034.766632,None,1034.766632,None,2,3.1479781,1034.766632,None,3.1479781,1037.936577,None,1038.439666,None,1038.439666,None,f,0.4509592,1038.439666,None,0.4509592,,,Sep02Silent5,40,2022_Sep_02_1418,ProdSingRedoBetween,2021.2.3,59.98220928
,,,,143,0,143,0,,,,,,,,,,,,,,,,,,,,,,1041.623561,None,,,,,,,,,,,,,,,,,partner,46,144,silent,old,blue,1039.445222,None,1039.445222,None,4,1.605383,1039.445222,None,1.605383,1041.074272,None,1041.573629,None,1041.573629,None,f,0.0290331,1041.573629,None,0.0290331,,,Sep02Silent5,40,2022_Sep_02_1418,ProdSingRedoBetween,2021.2.3,59.98220928
,,,,144,0,144,0,,,,,,,,,,,,,,,,,,,,,,1045.260467,None,,,,,,,,,,,,,,,,,phrase,145,145,silent,new,null,1042.139642,None,1042.139642,None,4,1.1748813,1042.139642,None,1.1748813,1043.342985,None,1043.842656,None,1043.842656,None,n,1.3999443,1043.842656,None,1.3999443,,,Sep02Silent5,40,2022_Sep_02_1418,ProdSingRedoBetween,2021.2.3,59.98220928
,,,,145,0,145,0,,,,,,,,,,,,,,,,,,,,,,1047.649719,None,,,,,,,,,,,,,,,,,industry,114,146,silent,new,null,1045.771126,None,1045.771126,None,6,1.1437696,1045.771126,None,1.1437696,1046.953737,None,1047.465389,None,1047.465389,None,r,0.1533963,1047.465389,None,0.1533963,,,Sep02Silent5,40,2022_Sep_02_1418,ProdSingRedoBetween,2021.2.3,59.98220928
,,,,146,0,146,0,,,,,,,,,,,,,,,,,,,,,,1051.702612,None,,,,,,,,,,,,,,,,,staff,101,147,silent,new,null,1048.163674,None,1048.163674,None,2,1.7589552,1048.163674,None,1.7589552,1049.948698,None,1050.453286,None,1050.453286,None,n,1.2214784,1050.453286,None,1.2214784,,,Sep02Silent5,40,2022_Sep_02_1418,ProdSingRedoBetween,2021.2.3,59.98220928
,,,,147,0,147,0,,,,,,,,,,,,,,,,,,,,,,1054.086485,None,,,,,,,,,,,,,,,,,orchestra,63,148,silent,old,red,1052.22875,None,1052.22875,None,6,1.1098959,1052.22875,None,1.1098959,1053.369649,None,1053.875412,None,1053.875412,None,r,0.19138,1053.875412,None,0.19138,,,Sep02Silent5,40,2022_Sep_02_1418,ProdSingRedoBetween,2021.2.3,59.98220928
,,,,148,0,148,0,,,,,,,,,,,,,,,,,,,,,,1058.924162,None,,,,,,,,,,,,,,,,,trash,1,149,silent,old,yellow,1054.589993,None,1054.589993,None,4,2.8606837,1054.589993,None,2.8606837,1057.473942,None,1057.980614,None,1057.980614,None,f,0.9262186,1057.980614,None,0.9262186,,,Sep02Silent5,40,2022_Sep_02_1418,ProdSingRedoBetween,2021.2.3,59.98220928
,,,,149,0,149,0,,,,,,,,,,,,,,,,,,,,,,1061.176427,None,,,,,,,,,,,,,,,,,passage,136,150,silent,new,null,1059.432709,None,1059.432709,None,5,1.1379408,1059.432709,None,1.1379408,1060.594395,None,1061.109856,None,1061.109856,None,r,0.0367759,1061.109856,None,0.0367759,,,Sep02Silent5,40,2022_Sep_02_1418,ProdSingRedoBetween,2021.2.3,59.98220928
,,,,150,0,150,0,,,,,,,,,,,,,,,,,,,,,,1063.211773,None,,,,,,,,,,,,,,,,,emergency,147,151,silent,new,null,1061.677196,None,1061.677196,None,6,0.8695949,1061.677196,None,0.8695949,1062.578874,None,1063.081517,None,1063.081517,None,r,0.105224,1063.081517,None,0.105224,,,Sep02Silent5,40,2022_Sep_02_1418,ProdSingRedoBetween,2021.2.3,59.98220928
,,,,151,0,151,0,,,,,,,,,,,,,,,,,,,,,,1065.781157,None,,,,,,,,,,,,,,,,,range,163,152,silent,new,null,1063.712308,None,1063.712308,None,2,1.1625077,1063.712308,None,1.1625077,1064.896919,None,1065.397376,None,1065.397376,None,n,0.3572098,1065.397376,None,0.3572098,,,Sep02Silent5,40,2022_Sep_02_1418,ProdSingRedoBetween,2021.2.3,59.98220928
,,,,152,0,152,0,,,,,,,,,,,,,,,,,,,,,,1068.150024,None,,,,,,,,,,,,,,,,,novel,155,153,silent,new,null,1066.281835,None,1066.281835,None,2,1.1528143,1066.281835,None,1.1528143,1067.467095,None,1067.970824,None,1067.970824,None,n,0.1598362,1067.970824,None,0.1598362,,,Sep02Silent5,40,2022_Sep_02_1418,ProdSingRedoBetween,2021.2.3,59.98220928
,,,,153,0,153,0,,,,,,,,,,,,,,,,,,,,,,1070.669205,None,,,,,,,,,,,,,,,,,working,140,154,silent,new,null,1068.660896,None,1068.660896,None,3,1.2697317,1068.660896,None,1.2697317,1069.953456,None,1070.456891,None,1070.456891,None,f,0.1856922,1070.456891,None,0.1856922,,,Sep02Silent5,40,2022_Sep_02_1418,ProdSingRedoBetween,2021.2.3,59.98220928
,,,,154,0,154,0,,,,,,,,,,,,,,,,,,,,,,1072.938357,None,,,,,,,,,,,,,,,,,length,129,155,silent,new,null,1071.176091,None,1071.176091,None,4,1.0585195,1071.176091,None,1.0585195,1072.255252,None,1072.758855,None,1072.758855,None,f,0.1557887,1072.758855,None,0.1557887,,,Sep02Silent5,40,2022_Sep_02_1418,ProdSingRedoBetween,2021.2.3,59.98220928
,,,,155,0,155,0,,,,,,,,,,,,,,,,,,,,,,1075.67409,None,,,,,,,,,,,,,,,,,majority,94,156,silent,new,null,1073.439677,None,1073.439677,None,5,1.4911617,1073.439677,None,1.4911617,1074.965983,None,1075.480387,None,1075.480387,None,r,0.1783485,1075.480387,None,0.1783485,,,Sep02Silent5,40,2022_Sep_02_1418,ProdSingRedoBetween,2021.2.3,59.98220928
,,,,156,0,156,0,,,,,,,,,,,,,,,,,,,,,,1078.193411,None,,,,,,,,,,,,,,,,,produce,86,157,silent,old,red,1076.187622,None,1076.187622,None,3,1.294967,1076.187622,None,1.294967,1077.512568,None,1078.030572,None,1078.030572,None,f,0.1401089,1078.030572,None,0.1401089,,,Sep02Silent5,40,2022_Sep_02_1418,ProdSingRedoBetween,2021.2.3,59.98220928
,,,,157,0,157,0,,,,,,,,,,,,,,,,,,,,,,1081.282369,None,,,,,,,,,,,,,,,,,agreement,106,158,silent,new,null,1078.702237,None,1078.702237,None,6,1.0683681,1078.702237,None,1.0683681,1079.796913,None,1080.31811,None,1080.31811,None,r,0.940618,1080.31811,None,0.940618,,,Sep02Silent5,40,2022_Sep_02_1418,ProdSingRedoBetween,2021.2.3,59.98220928
,,,,158,0,158,0,,,,,,,,,,,,,,,,,,,,,,1083.682376,None,,,,,,,,,,,,,,,,,edition,54,159,silent,old,blue,1081.803354,None,1081.803354,None,4,1.1113443,1081.803354,None,1.1113443,1082.934082,None,1083.450799,None,1083.450799,None,f,0.2079247,1083.450799,None,0.2079247,,,Sep02Silent5,40,2022_Sep_02_1418,ProdSingRedoBetween,2021.2.3,59.98220928
,,,,159,0,159,0,,,,,,,,,,,,,,,,,,,,,,1086.134632,None,,,,,,,,,,,,,,,,,space,12,160,silent,old,yellow,1084.190733,None,1084.190733,None,3,1.1718727,1084.190733,None,1.1718727,1085.385558,None,1085.88662,None,1085.88662,None,f,0.2200306,1085.88662,None,0.2200306,,,Sep02Silent5,40,2022_Sep_02_1418,ProdSingRedoBetween,2021.2.3,59.98220928
,,,,160,0,160,0,,,,,,,,,,,,,,,,,,,,,,1088.503696,None,,,,,,,,,,,,,,,,,disease,17,161,silent,old,yellow,1086.646196,None,1086.646196,None,6,1.1084269,1086.646196,None,1.1084269,1087.773101,None,1088.28698,None,1088.28698,None,r,0.1877852,1088.28698,None,0.1877852,,,Sep02Silent5,40,2022_Sep_02_1418,ProdSingRedoBetween,2021.2.3,59.98220928
,,,,161,0,161,0,,,,,,,,,,,,,,,,,,,,,,1090.939462,None,,,,,,,,,,,,,,,,,finance,130,162,silent,new,null,1089.015291,None,1089.015291,None,5,1.0992219,1089.015291,None,1.0992219,1090.143878,None,1090.657024,None,1090.657024,None,f,0.2656818,1090.657024,None,0.2656818,,,Sep02Silent5,40,2022_Sep_02_1418,ProdSingRedoBetween,2021.2.3,59.98220928
,,,,162,0,162,0,,,,,,,,,,,,,,,,,,,,,,1093.792416,None,,,,,,,,,,,,,,,,,health,152,163,silent,new,null,1091.443583,None,1091.443583,None,5,1.1749978,1091.443583,None,1.1749978,1092.645171,None,1093.158626,None,1093.158626,None,r,0.6039507,1093.158626,None,0.6039507,,,Sep02Silent5,40,2022_Sep_02_1418,ProdSingRedoBetween,2021.2.3,59.98220928
,,,,163,0,163,0,,,,,,,,,,,,,,,,,,,,,,1096.761938,None,,,,,,,,,,,,,,,,,broke,164,164,silent,new,null,1094.30668,None,1094.30668,None,4,1.8158905,1094.30668,None,1.8158905,1096.15228,None,1096.66219,None,1096.66219,None,f,0.0843446,1096.66219,None,0.0843446,,,Sep02Silent5,40,2022_Sep_02_1418,ProdSingRedoBetween,2021.2.3,59.98220928
,,,,164,0,164,0,,,,,,,,,,,,,,,,,,,,,,1103.702197,None,,,,,,,,,,,,,,,,,character,157,165,silent,new,null,1097.268429,None,1097.268429,None,3,5.3981575,1097.268429,None,5.3981575,1102.685601,None,1103.188031,None,1103.188031,None,f,0.4945782,1103.188031,None,0.4945782,,,Sep02Silent5,40,2022_Sep_02_1418,ProdSingRedoBetween,2021.2.3,59.98220928
,,,,165,0,165,0,,,,,,,,,,,,,,,,,,,,,,1107.105588,None,,,,,,,,,,,,,,,,,incident,13,166,silent,old,yellow,1104.205614,None,1104.205614,None,5,1.7649605,1104.205614,None,1.7649605,1105.988844,None,1106.488836,None,1106.488836,None,r,0.5937734,1106.488836,None,0.5937734,,,Sep02Silent5,40,2022_Sep_02_1418,ProdSingRedoBetween,2021.2.3,59.98220928
,,,,166,0,166,0,,,,,,,,,,,,,,,,,,,,,,1110.292051,None,,,,,,,,,,,,,,,,,volume,84,167,silent,old,red,1107.612235,None,1107.612235,None,4,2.0385266,1107.612235,None,2.0385266,1109.679945,None,1110.19235,None,1110.19235,None,f,0.0743096,1110.19235,None,0.0743096,,,Sep02Silent5,40,2022_Sep_02_1418,ProdSingRedoBetween,2021.2.3,59.98220928
,,,,167,0,167,0,,,,,,,,,,,,,,,,,,,,,,1113.261924,None,,,,,,,,,,,,,,,,,cover,50,168,silent,old,blue,1110.795491,None,1110.795491,None,2,1.727116,1110.795491,None,1.727116,1112.545629,None,1113.051692,None,1113.051692,None,f,0.1909335,1113.051692,None,0.1909335,,,Sep02Silent5,40,2022_Sep_02_1418,ProdSingRedoBetween,2021.2.3,59.98220928
,,,,168,0,168,0,,,,,,,,,,,,,,,,,,,,,,1115.714159,None,,,,,,,,,,,,,,,,,instrument,93,169,silent,new,null,1113.764086,None,1113.764086,None,6,1.3425352,1113.764086,None,1.3425352,1115.131583,None,1115.636435,None,1115.636435,None,r,0.0541889,1115.636435,None,0.0541889,,,Sep02Silent5,40,2022_Sep_02_1418,ProdSingRedoBetween,2021.2.3,59.98220928
,,,,169,0,169,0,,,,,,,,,,,,,,,,,,,,,,1118.166692,None,,,,,,,,,,,,,,,,,property,176,170,silent,new,null,1116.218119,None,1116.218119,None,5,1.2485079,1116.218119,None,1.2485079,1117.484764,None,1118.004338,None,1118.004338,None,f,0.1343351,1118.004338,None,0.1343351,,,Sep02Silent5,40,2022_Sep_02_1418,ProdSingRedoBetween,2021.2.3,59.98220928
,,,,170,0,170,0,,,,,,,,,,,,,,,,,,,,,,1122.721203,None,,,,,,,,,,,,,,,,,cousin,105,171,silent,new,null,1118.670097,None,1118.670097,None,3,2.9885751,1118.670097,None,2.9885751,1121.686825,None,1122.188699,None,1122.188699,None,f,0.5100427,1122.188699,None,0.5100427,,,Sep02Silent5,40,2022_Sep_02_1418,ProdSingRedoBetween,2021.2.3,59.98220928
,,,,171,0,171,0,,,,,,,,,,,,,,,,,,,,,,1125.807656,None,,,,,,,,,,,,,,,,,rural,48,172,silent,old,blue,1123.226396,None,1123.226396,None,2,1.8641979,1123.226396,None,1.8641979,1125.106905,None,1125.607563,None,1125.607563,None,f,0.1789365,1125.607563,None,0.1789365,,,Sep02Silent5,40,2022_Sep_02_1418,ProdSingRedoBetween,2021.2.3,59.98220928
,,,,172,0,172,0,,,,,,,,,,,,,,,,,,,,,,1128.61037,None,,,,,,,,,,,,,,,,,error,170,173,silent,new,null,1126.311926,None,1126.311926,None,2,1.378677,1126.311926,None,1.378677,1127.711459,None,1128.237228,None,1128.237228,None,f,0.3573259,1128.237228,None,0.3573259,,,Sep02Silent5,40,2022_Sep_02_1418,ProdSingRedoBetween,2021.2.3,59.98220928
,,,,173,0,173,0,,,,,,,,,,,,,,,,,,,,,,1131.397068,None,,,,,,,,,,,,,,,,,substance,125,174,silent,new,null,1129.119984,None,1129.119984,None,6,1.4026526,1129.119984,None,1.4026526,1130.549289,None,1131.063121,None,1131.063121,None,r,0.3076289,1131.063121,None,0.3076289,,,Sep02Silent5,40,2022_Sep_02_1418,ProdSingRedoBetween,2021.2.3,59.98220928
,,,,174,0,174,0,,,,,,,,,,,,,,,,,,,,,,1134.466274,None,,,,,,,,,,,,,,,,,fellow,34,175,silent,old,blue,1131.903314,None,1131.903314,None,2,1.7792269,1131.903314,None,1.7792269,1133.703295,None,1134.216246,None,1134.216246,None,f,0.2264128,1134.216246,None,0.2264128,,,Sep02Silent5,40,2022_Sep_02_1418,ProdSingRedoBetween,2021.2.3,59.98220928
,,,,175,0,175,0,,,,,,,,,,,,,,,,,,,,,,1137.686111,None,,,,,,,,,,,,,,,,,master,82,176,silent,old,red,1134.968396,None,1134.968396,None,4,1.7303454,1134.968396,None,1.7303454,1136.71862,None,1137.219208,None,1137.219208,None,r,0.4393843,1137.219208,None,0.4393843,,,Sep02Silent5,40,2022_Sep_02_1418,ProdSingRedoBetween,2021.2.3,59.98220928
,,,,176,0,176,0,,,,,,,,,,,,,,,,,,,,,,1140.222165,None,,,,,,,,,,,,,,,,,goose,26,177,silent,old,yellow,1138.189949,None,1138.189949,None,6,1.2766285,1138.189949,None,1.2766285,1139.489297,None,1139.992806,None,1139.992806,None,r,0.2017708,1139.992806,None,0.2017708,,,Sep02Silent5,40,2022_Sep_02_1418,ProdSingRedoBetween,2021.2.3,59.98220928
,,,,177,0,177,0,,,,,,,,,,,,,,,,,,,,,,1142.958097,None,,,,,,,,,,,,,,,,,course,60,178,silent,old,red,1140.73324,None,1140.73324,None,6,1.5333896,1140.73324,None,1.5333896,1142.294203,None,1142.80932,None,1142.80932,None,r,0.1212195,1142.80932,None,0.1212195,,,Sep02Silent5,40,2022_Sep_02_1418,ProdSingRedoBetween,2021.2.3,59.98220928
,,,,178,0,178,0,,,,,,,,,,,,,,,,,,,,,,1145.644162,None,,,,,,,,,,,,,,,,,sound,167,179,silent,new,null,1143.458616,None,1143.458616,None,2,1.4239688,1143.458616,None,1.4239688,1144.910041,None,1145.414781,None,1145.414781,None,f,0.2037821,1145.414781,None,0.2037821,,,Sep02Silent5,40,2022_Sep_02_1418,ProdSingRedoBetween,2021.2.3,59.98220928
,,,,179,0,179,0,,,,,,,,,,,,,,,,,,,,,,1148.580368,None,,,,,,,,,,,,,,,,,weather,113,180,silent,new,null,1146.152785,None,1146.152785,None,4,1.6018021,1146.152785,None,1.6018021,1147.783209,None,1148.299847,None,1148.299847,None,n,0.2627175,1148.299847,None,0.2627175,,,Sep02Silent5,40,2022_Sep_02_1418,ProdSingRedoBetween,2021.2.3,59.98220928
,,,,,,,,,,,,,,,,,,,,,,,,,,,,,,,,,,,,,,,,,,,,,,,,,,,,,,,,,,,,,,,,,,,,,,,,,1149.081429,None,,,,,,
