StudyLoop.thisRepN,StudyLoop.thisTrialN,StudyLoop.thisN,StudyLoop.thisIndex,TestLoop.thisRepN,TestLoop.thisTrialN,TestLoop.thisN,TestLoop.thisIndex,textCondition.started,textCondition.stopped,keyCondition.keys,keyCondition.rt,keyCondition.started,keyCondition.stopped,Condition,textWelcome.started,textWelcome.stopped,keyWelcome.keys,keyWelcome.rt,keyWelcome.started,keyWelcome.stopped,textAloud.started,textAloud.stopped,textSilent.started,textSilent.stopped,textSing.started,textSing.stopped,conditional_text.started,conditional_text.stopped,textBlank500.started,textBlank500.stopped,study_word,study_num,study_order,study_type,word_color,textStudy.started,textStudy.stopped,keyStudy.keys,keyStudy.started,keyStudy.stopped,textTestInstructions.started,textTestInstructions.stopped,key_resp_3.keys,key_resp_3.rt,key_resp_3.started,key_resp_3.stopped,test_word,test_num,test_order,test_condition,old_new_test,test_word_original_color,textConf.started,textConf.stopped,textConfScale.started,textConfScale.stopped,keyConf.keys,keyConf.rt,keyConf.started,keyConf.stopped,confidence response time,textTestBlank.started,textTestBlank.stopped,textRKN.started,textRKN.stopped,textRKNScale.started,textRKNScale.stopped,keyRKN.keys,keyRKN.rt,keyRKN.started,keyRKN.stopped,rkn response time,textEnd.started,textEnd.stopped,participant,session,date,expName,psychopyVersion,frameRate
,,,,,,,,68.2905324,None,b,56.9954903,68.2905324,None,,,,,,,,,,,,,,,,,,,,,,,,,,,,,,,,,,,,,,,,,,,,,,,,,,,,,,,,,,,,,,Sep02Aloud5,41,2022_Sep_02_1439,ProdSingRedoBetween,2021.2.3,59.93877853
,,,,,,,,,,,,,,AloudTest,125.3267645,None,space,13.6791677,125.3267645,None,,,,,,,,,,,,,,,,,,,,,,,,,,,,,,,,,,,,,,,,,,,,,,,,,,,,,,,Sep02Aloud5,41,2022_Sep_02_1439,ProdSingRedoBetween,2021.2.3,59.93877853
0,0,0,0,,,,,,,,,,,,,,,,,,125.3267645,None,125.3267645,None,125.3267645,None,125.3267645,None,141.5312641,None,discussion,64,1,aloud,red,139.5307014,None,None,139.5307014,None,,,,,,,,,,,,,,,,,,,,,,,,,,,,,,,,,,,Sep02Aloud5,41,2022_Sep_02_1439,ProdSingRedoBetween,2021.2.3,59.93877853
1,0,1,0,,,,,,,,,,,,,,,,,,,,,,,,,,144.0503584,None,nation,71,2,aloud,red,142.0403532,None,None,142.0403532,None,,,,,,,,,,,,,,,,,,,,,,,,,,,,,,,,,,,Sep02Aloud5,41,2022_Sep_02_1439,ProdSingRedoBetween,2021.2.3,59.93877853
2,0,2,0,,,,,,,,,,,,,,,,,,,,,,,,,,146.5529037,None,discovery,2,3,aloud,yellow,144.5530612,None,None,144.5530612,None,,,,,,,,,,,,,,,,,,,,,,,,,,,,,,,,,,,Sep02Aloud5,41,2022_Sep_02_1439,ProdSingRedoBetween,2021.2.3,59.93877853
3,0,3,0,,,,,,,,,,,,,,,,,,,,,,,,,,149.0720427,None,strength,34,4,aloud,blue,147.0581767,None,None,147.0581767,None,,,,,,,,,,,,,,,,,,,,,,,,,,,,,,,,,,,Sep02Aloud5,41,2022_Sep_02_1439,ProdSingRedoBetween,2021.2.3,59.93877853
4,0,4,0,,,,,,,,,,,,,,,,,,,,,,,,,,151.5744157,None,appearance,84,5,aloud,red,149.5727071,None,None,149.5727071,None,,,,,,,,,,,,,,,,,,,,,,,,,,,,,,,,,,,Sep02Aloud5,41,2022_Sep_02_1439,ProdSingRedoBetween,2021.2.3,59.93877853
5,0,5,0,,,,,,,,,,,,,,,,,,,,,,,,,,154.093761,None,express,16,6,aloud,yellow,152.0813163,None,None,152.0813163,None,,,,,,,,,,,,,,,,,,,,,,,,,,,,,,,,,,,Sep02Aloud5,41,2022_Sep_02_1439,ProdSingRedoBetween,2021.2.3,59.93877853
6,0,6,0,,,,,,,,,,,,,,,,,,,,,,,,,,156.5963114,None,engineer,17,7,aloud,yellow,154.5944412,None,None,154.5944412,None,,,,,,,,,,,,,,,,,,,,,,,,,,,,,,,,,,,Sep02Aloud5,41,2022_Sep_02_1439,ProdSingRedoBetween,2021.2.3,59.93877853
7,0,7,0,,,,,,,,,,,,,,,,,,,,,,,,,,159.0989967,None,edition,48,8,aloud,blue,157.0971141,None,None,157.0971141,None,,,,,,,,,,,,,,,,,,,,,,,,,,,,,,,,,,,Sep02Aloud5,41,2022_Sep_02_1439,ProdSingRedoBetween,2021.2.3,59.93877853
8,0,8,0,,,,,,,,,,,,,,,,,,,,,,,,,,161.6181083,None,whole,54,9,aloud,blue,159.6042084,None,None,159.6042084,None,,,,,,,,,,,,,,,,,,,,,,,,,,,,,,,,,,,Sep02Aloud5,41,2022_Sep_02_1439,ProdSingRedoBetween,2021.2.3,59.93877853
9,0,9,0,,,,,,,,,,,,,,,,,,,,,,,,,,164.1202292,None,swift,65,10,aloud,red,162.1184962,None,None,162.1184962,None,,,,,,,,,,,,,,,,,,,,,,,,,,,,,,,,,,,Sep02Aloud5,41,2022_Sep_02_1439,ProdSingRedoBetween,2021.2.3,59.93877853
10,0,10,0,,,,,,,,,,,,,,,,,,,,,,,,,,166.6397725,None,little,8,11,aloud,yellow,164.6247182,None,None,164.6247182,None,,,,,,,,,,,,,,,,,,,,,,,,,,,,,,,,,,,Sep02Aloud5,41,2022_Sep_02_1439,ProdSingRedoBetween,2021.2.3,59.93877853
11,0,11,0,,,,,,,,,,,,,,,,,,,,,,,,,,169.1422719,None,stranger,40,12,aloud,blue,167.1401524,None,None,167.1401524,None,,,,,,,,,,,,,,,,,,,,,,,,,,,,,,,,,,,Sep02Aloud5,41,2022_Sep_02_1439,ProdSingRedoBetween,2021.2.3,59.93877853
12,0,12,0,,,,,,,,,,,,,,,,,,,,,,,,,,171.6445986,None,pressure,11,13,aloud,yellow,169.6426761,None,None,169.6426761,None,,,,,,,,,,,,,,,,,,,,,,,,,,,,,,,,,,,Sep02Aloud5,41,2022_Sep_02_1439,ProdSingRedoBetween,2021.2.3,59.93877853
13,0,13,0,,,,,,,,,,,,,,,,,,,,,,,,,,174.1471179,None,guard,53,14,aloud,blue,172.1451431,None,None,172.1451431,None,,,,,,,,,,,,,,,,,,,,,,,,,,,,,,,,,,,Sep02Aloud5,41,2022_Sep_02_1439,ProdSingRedoBetween,2021.2.3,59.93877853
14,0,14,0,,,,,,,,,,,,,,,,,,,,,,,,,,176.6497929,None,weather,79,15,aloud,red,174.6478552,None,None,174.6478552,None,,,,,,,,,,,,,,,,,,,,,,,,,,,,,,,,,,,Sep02Aloud5,41,2022_Sep_02_1439,ProdSingRedoBetween,2021.2.3,59.93877853
15,0,15,0,,,,,,,,,,,,,,,,,,,,,,,,,,179.1524115,None,leader,75,16,aloud,red,177.1501187,None,None,177.1501187,None,,,,,,,,,,,,,,,,,,,,,,,,,,,,,,,,,,,Sep02Aloud5,41,2022_Sep_02_1439,ProdSingRedoBetween,2021.2.3,59.93877853
16,0,16,0,,,,,,,,,,,,,,,,,,,,,,,,,,181.671233,None,education,69,17,aloud,red,179.6614898,None,None,179.6614898,None,,,,,,,,,,,,,,,,,,,,,,,,,,,,,,,,,,,Sep02Aloud5,41,2022_Sep_02_1439,ProdSingRedoBetween,2021.2.3,59.93877853
17,0,17,0,,,,,,,,,,,,,,,,,,,,,,,,,,184.1739955,None,watch,41,18,aloud,blue,182.1718231,None,None,182.1718231,None,,,,,,,,,,,,,,,,,,,,,,,,,,,,,,,,,,,Sep02Aloud5,41,2022_Sep_02_1439,ProdSingRedoBetween,2021.2.3,59.93877853
18,0,18,0,,,,,,,,,,,,,,,,,,,,,,,,,,186.6778524,None,corner,50,19,aloud,blue,184.6755468,None,None,184.6755468,None,,,,,,,,,,,,,,,,,,,,,,,,,,,,,,,,,,,Sep02Aloud5,41,2022_Sep_02_1439,ProdSingRedoBetween,2021.2.3,59.93877853
19,0,19,0,,,,,,,,,,,,,,,,,,,,,,,,,,189.1956906,None,subject,66,20,aloud,red,187.1839691,None,None,187.1839691,None,,,,,,,,,,,,,,,,,,,,,,,,,,,,,,,,,,,Sep02Aloud5,41,2022_Sep_02_1439,ProdSingRedoBetween,2021.2.3,59.93877853
20,0,20,0,,,,,,,,,,,,,,,,,,,,,,,,,,191.7148812,None,scene,32,21,aloud,blue,189.7063809,None,None,189.7063809,None,,,,,,,,,,,,,,,,,,,,,,,,,,,,,,,,,,,Sep02Aloud5,41,2022_Sep_02_1439,ProdSingRedoBetween,2021.2.3,59.93877853
21,0,21,0,,,,,,,,,,,,,,,,,,,,,,,,,,194.2338667,None,mankind,42,22,aloud,blue,192.2214848,None,None,192.2214848,None,,,,,,,,,,,,,,,,,,,,,,,,,,,,,,,,,,,Sep02Aloud5,41,2022_Sep_02_1439,ProdSingRedoBetween,2021.2.3,59.93877853
22,0,22,0,,,,,,,,,,,,,,,,,,,,,,,,,,196.7364309,None,government,24,23,aloud,yellow,194.7344171,None,None,194.7344171,None,,,,,,,,,,,,,,,,,,,,,,,,,,,,,,,,,,,Sep02Aloud5,41,2022_Sep_02_1439,ProdSingRedoBetween,2021.2.3,59.93877853
23,0,23,0,,,,,,,,,,,,,,,,,,,,,,,,,,199.2391741,None,primary,46,24,aloud,blue,197.2376598,None,None,197.2376598,None,,,,,,,,,,,,,,,,,,,,,,,,,,,,,,,,,,,Sep02Aloud5,41,2022_Sep_02_1439,ProdSingRedoBetween,2021.2.3,59.93877853
24,0,24,0,,,,,,,,,,,,,,,,,,,,,,,,,,201.7415381,None,report,33,25,aloud,blue,199.7392907,None,None,199.7392907,None,,,,,,,,,,,,,,,,,,,,,,,,,,,,,,,,,,,Sep02Aloud5,41,2022_Sep_02_1439,ProdSingRedoBetween,2021.2.3,59.93877853
25,0,25,0,,,,,,,,,,,,,,,,,,,,,,,,,,204.260589,None,member,81,26,aloud,red,202.2454716,None,None,202.2454716,None,,,,,,,,,,,,,,,,,,,,,,,,,,,,,,,,,,,Sep02Aloud5,41,2022_Sep_02_1439,ProdSingRedoBetween,2021.2.3,59.93877853
26,0,26,0,,,,,,,,,,,,,,,,,,,,,,,,,,206.7632966,None,sweet,18,27,aloud,yellow,204.7611971,None,None,204.7611971,None,,,,,,,,,,,,,,,,,,,,,,,,,,,,,,,,,,,Sep02Aloud5,41,2022_Sep_02_1439,ProdSingRedoBetween,2021.2.3,59.93877853
27,0,27,0,,,,,,,,,,,,,,,,,,,,,,,,,,209.2658623,None,reach,86,28,aloud,red,207.2640359,None,None,207.2640359,None,,,,,,,,,,,,,,,,,,,,,,,,,,,,,,,,,,,Sep02Aloud5,41,2022_Sep_02_1439,ProdSingRedoBetween,2021.2.3,59.93877853
28,0,28,0,,,,,,,,,,,,,,,,,,,,,,,,,,211.7679682,None,touch,9,29,aloud,yellow,209.7676866,None,None,209.7676866,None,,,,,,,,,,,,,,,,,,,,,,,,,,,,,,,,,,,Sep02Aloud5,41,2022_Sep_02_1439,ProdSingRedoBetween,2021.2.3,59.93877853
29,0,29,0,,,,,,,,,,,,,,,,,,,,,,,,,,214.2706999,None,force,31,30,aloud,blue,212.2701751,None,None,212.2701751,None,,,,,,,,,,,,,,,,,,,,,,,,,,,,,,,,,,,Sep02Aloud5,41,2022_Sep_02_1439,ProdSingRedoBetween,2021.2.3,59.93877853
30,0,30,0,,,,,,,,,,,,,,,,,,,,,,,,,,216.7897599,None,drove,36,31,aloud,blue,214.7764914,None,None,214.7764914,None,,,,,,,,,,,,,,,,,,,,,,,,,,,,,,,,,,,Sep02Aloud5,41,2022_Sep_02_1439,ProdSingRedoBetween,2021.2.3,59.93877853
31,0,31,0,,,,,,,,,,,,,,,,,,,,,,,,,,219.2921239,None,display,59,32,aloud,yellow,217.2901894,None,None,217.2901894,None,,,,,,,,,,,,,,,,,,,,,,,,,,,,,,,,,,,Sep02Aloud5,41,2022_Sep_02_1439,ProdSingRedoBetween,2021.2.3,59.93877853
32,0,32,0,,,,,,,,,,,,,,,,,,,,,,,,,,221.7945678,None,entrance,67,33,aloud,red,219.7932135,None,None,219.7932135,None,,,,,,,,,,,,,,,,,,,,,,,,,,,,,,,,,,,Sep02Aloud5,41,2022_Sep_02_1439,ProdSingRedoBetween,2021.2.3,59.93877853
33,0,33,0,,,,,,,,,,,,,,,,,,,,,,,,,,224.297001,None,trial,29,34,aloud,blue,222.2950971,None,None,222.2950971,None,,,,,,,,,,,,,,,,,,,,,,,,,,,,,,,,,,,Sep02Aloud5,41,2022_Sep_02_1439,ProdSingRedoBetween,2021.2.3,59.93877853
34,0,34,0,,,,,,,,,,,,,,,,,,,,,,,,,,226.8165067,None,state,30,35,aloud,blue,224.8055013,None,None,224.8055013,None,,,,,,,,,,,,,,,,,,,,,,,,,,,,,,,,,,,Sep02Aloud5,41,2022_Sep_02_1439,ProdSingRedoBetween,2021.2.3,59.93877853
35,0,35,0,,,,,,,,,,,,,,,,,,,,,,,,,,229.3356423,None,thing,4,36,aloud,yellow,227.3258799,None,None,227.3258799,None,,,,,,,,,,,,,,,,,,,,,,,,,,,,,,,,,,,Sep02Aloud5,41,2022_Sep_02_1439,ProdSingRedoBetween,2021.2.3,59.93877853
36,0,36,0,,,,,,,,,,,,,,,,,,,,,,,,,,231.8382187,None,article,6,37,aloud,yellow,229.835987,None,None,229.835987,None,,,,,,,,,,,,,,,,,,,,,,,,,,,,,,,,,,,Sep02Aloud5,41,2022_Sep_02_1439,ProdSingRedoBetween,2021.2.3,59.93877853
37,0,37,0,,,,,,,,,,,,,,,,,,,,,,,,,,234.3405357,None,novel,19,38,aloud,yellow,232.3403584,None,None,232.3403584,None,,,,,,,,,,,,,,,,,,,,,,,,,,,,,,,,,,,Sep02Aloud5,41,2022_Sep_02_1439,ProdSingRedoBetween,2021.2.3,59.93877853
38,0,38,0,,,,,,,,,,,,,,,,,,,,,,,,,,236.8596072,None,heavy,10,39,aloud,yellow,234.8470503,None,None,234.8470503,None,,,,,,,,,,,,,,,,,,,,,,,,,,,,,,,,,,,Sep02Aloud5,41,2022_Sep_02_1439,ProdSingRedoBetween,2021.2.3,59.93877853
39,0,39,0,,,,,,,,,,,,,,,,,,,,,,,,,,239.378982,None,territory,43,40,aloud,blue,237.3637969,None,None,237.3637969,None,,,,,,,,,,,,,,,,,,,,,,,,,,,,,,,,,,,Sep02Aloud5,41,2022_Sep_02_1439,ProdSingRedoBetween,2021.2.3,59.93877853
40,0,40,0,,,,,,,,,,,,,,,,,,,,,,,,,,241.8982775,None,message,56,41,aloud,blue,239.8845764,None,None,239.8845764,None,,,,,,,,,,,,,,,,,,,,,,,,,,,,,,,,,,,Sep02Aloud5,41,2022_Sep_02_1439,ProdSingRedoBetween,2021.2.3,59.93877853
41,0,41,0,,,,,,,,,,,,,,,,,,,,,,,,,,244.4006379,None,sound,88,42,aloud,red,242.4001497,None,None,242.4001497,None,,,,,,,,,,,,,,,,,,,,,,,,,,,,,,,,,,,Sep02Aloud5,41,2022_Sep_02_1439,ProdSingRedoBetween,2021.2.3,59.93877853
42,0,42,0,,,,,,,,,,,,,,,,,,,,,,,,,,246.9031769,None,finance,51,43,aloud,blue,244.9017334,None,None,244.9017334,None,,,,,,,,,,,,,,,,,,,,,,,,,,,,,,,,,,,Sep02Aloud5,41,2022_Sep_02_1439,ProdSingRedoBetween,2021.2.3,59.93877853
43,0,43,0,,,,,,,,,,,,,,,,,,,,,,,,,,249.405804,None,direction,87,44,aloud,red,247.4044383,None,None,247.4044383,None,,,,,,,,,,,,,,,,,,,,,,,,,,,,,,,,,,,Sep02Aloud5,41,2022_Sep_02_1439,ProdSingRedoBetween,2021.2.3,59.93877853
44,0,44,0,,,,,,,,,,,,,,,,,,,,,,,,,,251.9249865,None,range,85,45,aloud,red,249.9093029,None,None,249.9093029,None,,,,,,,,,,,,,,,,,,,,,,,,,,,,,,,,,,,Sep02Aloud5,41,2022_Sep_02_1439,ProdSingRedoBetween,2021.2.3,59.93877853
45,0,45,0,,,,,,,,,,,,,,,,,,,,,,,,,,254.4275351,None,incident,74,46,aloud,red,252.425207,None,None,252.425207,None,,,,,,,,,,,,,,,,,,,,,,,,,,,,,,,,,,,Sep02Aloud5,41,2022_Sep_02_1439,ProdSingRedoBetween,2021.2.3,59.93877853
46,0,46,0,,,,,,,,,,,,,,,,,,,,,,,,,,256.9466435,None,owner,77,47,aloud,red,254.9317437,None,None,254.9317437,None,,,,,,,,,,,,,,,,,,,,,,,,,,,,,,,,,,,Sep02Aloud5,41,2022_Sep_02_1439,ProdSingRedoBetween,2021.2.3,59.93877853
47,0,47,0,,,,,,,,,,,,,,,,,,,,,,,,,,259.4490584,None,ground,63,48,aloud,red,257.446995,None,None,257.446995,None,,,,,,,,,,,,,,,,,,,,,,,,,,,,,,,,,,,Sep02Aloud5,41,2022_Sep_02_1439,ProdSingRedoBetween,2021.2.3,59.93877853
48,0,48,0,,,,,,,,,,,,,,,,,,,,,,,,,,261.9683747,None,partner,14,49,aloud,yellow,259.9532819,None,None,259.9532819,None,,,,,,,,,,,,,,,,,,,,,,,,,,,,,,,,,,,Sep02Aloud5,41,2022_Sep_02_1439,ProdSingRedoBetween,2021.2.3,59.93877853
49,0,49,0,,,,,,,,,,,,,,,,,,,,,,,,,,264.4709759,None,emergency,58,50,aloud,blue,262.468677,None,None,262.468677,None,,,,,,,,,,,,,,,,,,,,,,,,,,,,,,,,,,,Sep02Aloud5,41,2022_Sep_02_1439,ProdSingRedoBetween,2021.2.3,59.93877853
50,0,50,0,,,,,,,,,,,,,,,,,,,,,,,,,,266.9733602,None,column,3,51,aloud,yellow,264.9733188,None,None,264.9733188,None,,,,,,,,,,,,,,,,,,,,,,,,,,,,,,,,,,,Sep02Aloud5,41,2022_Sep_02_1439,ProdSingRedoBetween,2021.2.3,59.93877853
51,0,51,0,,,,,,,,,,,,,,,,,,,,,,,,,,269.4922759,None,pattern,7,52,aloud,yellow,267.4772578,None,None,267.4772578,None,,,,,,,,,,,,,,,,,,,,,,,,,,,,,,,,,,,Sep02Aloud5,41,2022_Sep_02_1439,ProdSingRedoBetween,2021.2.3,59.93877853
52,0,52,0,,,,,,,,,,,,,,,,,,,,,,,,,,271.9949723,None,relation,49,53,aloud,blue,269.9930069,None,None,269.9930069,None,,,,,,,,,,,,,,,,,,,,,,,,,,,,,,,,,,,Sep02Aloud5,41,2022_Sep_02_1439,ProdSingRedoBetween,2021.2.3,59.93877853
53,0,53,0,,,,,,,,,,,,,,,,,,,,,,,,,,274.5139436,None,fashion,39,54,aloud,blue,272.4984352,None,None,272.4984352,None,,,,,,,,,,,,,,,,,,,,,,,,,,,,,,,,,,,Sep02Aloud5,41,2022_Sep_02_1439,ProdSingRedoBetween,2021.2.3,59.93877853
54,0,54,0,,,,,,,,,,,,,,,,,,,,,,,,,,277.0331921,None,figure,57,55,aloud,blue,275.0210095,None,None,275.0210095,None,,,,,,,,,,,,,,,,,,,,,,,,,,,,,,,,,,,Sep02Aloud5,41,2022_Sep_02_1439,ProdSingRedoBetween,2021.2.3,59.93877853
55,0,55,0,,,,,,,,,,,,,,,,,,,,,,,,,,279.5359064,None,length,1,56,aloud,yellow,277.5336743,None,None,277.5336743,None,,,,,,,,,,,,,,,,,,,,,,,,,,,,,,,,,,,Sep02Aloud5,41,2022_Sep_02_1439,ProdSingRedoBetween,2021.2.3,59.93877853
56,0,56,0,,,,,,,,,,,,,,,,,,,,,,,,,,282.0384513,None,solution,68,57,aloud,red,280.0379422,None,None,280.0379422,None,,,,,,,,,,,,,,,,,,,,,,,,,,,,,,,,,,,Sep02Aloud5,41,2022_Sep_02_1439,ProdSingRedoBetween,2021.2.3,59.93877853
57,0,57,0,,,,,,,,,,,,,,,,,,,,,,,,,,284.5408022,None,junior,15,58,aloud,yellow,282.5412661,None,None,282.5412661,None,,,,,,,,,,,,,,,,,,,,,,,,,,,,,,,,,,,Sep02Aloud5,41,2022_Sep_02_1439,ProdSingRedoBetween,2021.2.3,59.93877853
58,0,58,0,,,,,,,,,,,,,,,,,,,,,,,,,,287.0598421,None,pretty,26,59,aloud,yellow,285.0480191,None,None,285.0480191,None,,,,,,,,,,,,,,,,,,,,,,,,,,,,,,,,,,,Sep02Aloud5,41,2022_Sep_02_1439,ProdSingRedoBetween,2021.2.3,59.93877853
59,0,59,0,,,,,,,,,,,,,,,,,,,,,,,,,,289.5791169,None,concern,44,60,aloud,blue,287.567522,None,None,287.567522,None,,,,,,,,,,,,,,,,,,,,,,,,,,,,,,,,,,,Sep02Aloud5,41,2022_Sep_02_1439,ProdSingRedoBetween,2021.2.3,59.93877853
60,0,60,0,,,,,,,,,,,,,,,,,,,,,,,,,,292.0982901,None,taste,25,61,aloud,yellow,290.094449,None,None,290.094449,None,,,,,,,,,,,,,,,,,,,,,,,,,,,,,,,,,,,Sep02Aloud5,41,2022_Sep_02_1439,ProdSingRedoBetween,2021.2.3,59.93877853
61,0,61,0,,,,,,,,,,,,,,,,,,,,,,,,,,294.6176242,None,dozen,62,62,aloud,red,292.6026589,None,None,292.6026589,None,,,,,,,,,,,,,,,,,,,,,,,,,,,,,,,,,,,Sep02Aloud5,41,2022_Sep_02_1439,ProdSingRedoBetween,2021.2.3,59.93877853
62,0,62,0,,,,,,,,,,,,,,,,,,,,,,,,,,297.1199674,None,majority,28,63,aloud,yellow,295.1196885,None,None,295.1196885,None,,,,,,,,,,,,,,,,,,,,,,,,,,,,,,,,,,,Sep02Aloud5,41,2022_Sep_02_1439,ProdSingRedoBetween,2021.2.3,59.93877853
63,0,63,0,,,,,,,,,,,,,,,,,,,,,,,,,,299.6390893,None,empty,72,64,aloud,red,297.6251718,None,None,297.6251718,None,,,,,,,,,,,,,,,,,,,,,,,,,,,,,,,,,,,Sep02Aloud5,41,2022_Sep_02_1439,ProdSingRedoBetween,2021.2.3,59.93877853
64,0,64,0,,,,,,,,,,,,,,,,,,,,,,,,,,302.1582656,None,principal,5,65,aloud,yellow,300.152005,None,None,300.152005,None,,,,,,,,,,,,,,,,,,,,,,,,,,,,,,,,,,,Sep02Aloud5,41,2022_Sep_02_1439,ProdSingRedoBetween,2021.2.3,59.93877853
65,0,65,0,,,,,,,,,,,,,,,,,,,,,,,,,,304.667879,None,turkey,27,66,aloud,yellow,302.6589048,None,None,302.6589048,None,,,,,,,,,,,,,,,,,,,,,,,,,,,,,,,,,,,Sep02Aloud5,41,2022_Sep_02_1439,ProdSingRedoBetween,2021.2.3,59.93877853
66,0,66,0,,,,,,,,,,,,,,,,,,,,,,,,,,307.1801903,None,power,52,67,aloud,blue,305.1795443,None,None,305.1795443,None,,,,,,,,,,,,,,,,,,,,,,,,,,,,,,,,,,,Sep02Aloud5,41,2022_Sep_02_1439,ProdSingRedoBetween,2021.2.3,59.93877853
67,0,67,0,,,,,,,,,,,,,,,,,,,,,,,,,,309.6993412,None,store,38,68,aloud,blue,307.6902874,None,None,307.6902874,None,,,,,,,,,,,,,,,,,,,,,,,,,,,,,,,,,,,Sep02Aloud5,41,2022_Sep_02_1439,ProdSingRedoBetween,2021.2.3,59.93877853
68,0,68,0,,,,,,,,,,,,,,,,,,,,,,,,,,312.2018933,None,history,20,69,aloud,yellow,310.1996921,None,None,310.1996921,None,,,,,,,,,,,,,,,,,,,,,,,,,,,,,,,,,,,Sep02Aloud5,41,2022_Sep_02_1439,ProdSingRedoBetween,2021.2.3,59.93877853
69,0,69,0,,,,,,,,,,,,,,,,,,,,,,,,,,314.7042697,None,height,37,70,aloud,blue,312.7043014,None,None,312.7043014,None,,,,,,,,,,,,,,,,,,,,,,,,,,,,,,,,,,,Sep02Aloud5,41,2022_Sep_02_1439,ProdSingRedoBetween,2021.2.3,59.93877853
70,0,70,0,,,,,,,,,,,,,,,,,,,,,,,,,,317.2068153,None,title,0,71,aloud,yellow,315.2049363,None,None,315.2049363,None,,,,,,,,,,,,,,,,,,,,,,,,,,,,,,,,,,,Sep02Aloud5,41,2022_Sep_02_1439,ProdSingRedoBetween,2021.2.3,59.93877853
71,0,71,0,,,,,,,,,,,,,,,,,,,,,,,,,,319.7093619,None,hearing,89,72,aloud,red,317.7087314,None,None,317.7087314,None,,,,,,,,,,,,,,,,,,,,,,,,,,,,,,,,,,,Sep02Aloud5,41,2022_Sep_02_1439,ProdSingRedoBetween,2021.2.3,59.93877853
72,0,72,0,,,,,,,,,,,,,,,,,,,,,,,,,,322.2119657,None,career,22,73,aloud,yellow,320.2104708,None,None,320.2104708,None,,,,,,,,,,,,,,,,,,,,,,,,,,,,,,,,,,,Sep02Aloud5,41,2022_Sep_02_1439,ProdSingRedoBetween,2021.2.3,59.93877853
73,0,73,0,,,,,,,,,,,,,,,,,,,,,,,,,,324.7143195,None,course,73,74,aloud,red,322.7142926,None,None,322.7142926,None,,,,,,,,,,,,,,,,,,,,,,,,,,,,,,,,,,,Sep02Aloud5,41,2022_Sep_02_1439,ProdSingRedoBetween,2021.2.3,59.93877853
74,0,74,0,,,,,,,,,,,,,,,,,,,,,,,,,,327.2168484,None,worker,82,75,aloud,red,325.2168776,None,None,325.2168776,None,,,,,,,,,,,,,,,,,,,,,,,,,,,,,,,,,,,Sep02Aloud5,41,2022_Sep_02_1439,ProdSingRedoBetween,2021.2.3,59.93877853
75,0,75,0,,,,,,,,,,,,,,,,,,,,,,,,,,329.7191334,None,colonel,60,76,aloud,red,327.7180223,None,None,327.7180223,None,,,,,,,,,,,,,,,,,,,,,,,,,,,,,,,,,,,Sep02Aloud5,41,2022_Sep_02_1439,ProdSingRedoBetween,2021.2.3,59.93877853
76,0,76,0,,,,,,,,,,,,,,,,,,,,,,,,,,332.2218821,None,crowd,12,77,aloud,yellow,330.2204647,None,None,330.2204647,None,,,,,,,,,,,,,,,,,,,,,,,,,,,,,,,,,,,Sep02Aloud5,41,2022_Sep_02_1439,ProdSingRedoBetween,2021.2.3,59.93877853
77,0,77,0,,,,,,,,,,,,,,,,,,,,,,,,,,334.7241765,None,atmosphere,45,78,aloud,blue,332.7232019,None,None,332.7232019,None,,,,,,,,,,,,,,,,,,,,,,,,,,,,,,,,,,,Sep02Aloud5,41,2022_Sep_02_1439,ProdSingRedoBetween,2021.2.3,59.93877853
78,0,78,0,,,,,,,,,,,,,,,,,,,,,,,,,,337.2432357,None,period,13,79,aloud,yellow,335.229823,None,None,335.229823,None,,,,,,,,,,,,,,,,,,,,,,,,,,,,,,,,,,,Sep02Aloud5,41,2022_Sep_02_1439,ProdSingRedoBetween,2021.2.3,59.93877853
79,0,79,0,,,,,,,,,,,,,,,,,,,,,,,,,,339.7627431,None,literature,23,80,aloud,yellow,337.7481056,None,None,337.7481056,None,,,,,,,,,,,,,,,,,,,,,,,,,,,,,,,,,,,Sep02Aloud5,41,2022_Sep_02_1439,ProdSingRedoBetween,2021.2.3,59.93877853
80,0,80,0,,,,,,,,,,,,,,,,,,,,,,,,,,342.2819084,None,provision,55,81,aloud,blue,340.2685377,None,None,340.2685377,None,,,,,,,,,,,,,,,,,,,,,,,,,,,,,,,,,,,Sep02Aloud5,41,2022_Sep_02_1439,ProdSingRedoBetween,2021.2.3,59.93877853
81,0,81,0,,,,,,,,,,,,,,,,,,,,,,,,,,344.7841957,None,private,21,82,aloud,yellow,342.784874,None,None,342.784874,None,,,,,,,,,,,,,,,,,,,,,,,,,,,,,,,,,,,Sep02Aloud5,41,2022_Sep_02_1439,ProdSingRedoBetween,2021.2.3,59.93877853
82,0,82,0,,,,,,,,,,,,,,,,,,,,,,,,,,347.3035369,None,marriage,80,83,aloud,red,345.2882263,None,None,345.2882263,None,,,,,,,,,,,,,,,,,,,,,,,,,,,,,,,,,,,Sep02Aloud5,41,2022_Sep_02_1439,ProdSingRedoBetween,2021.2.3,59.93877853
83,0,83,0,,,,,,,,,,,,,,,,,,,,,,,,,,349.8058788,None,commercial,70,84,aloud,red,347.8040884,None,None,347.8040884,None,,,,,,,,,,,,,,,,,,,,,,,,,,,,,,,,,,,Sep02Aloud5,41,2022_Sep_02_1439,ProdSingRedoBetween,2021.2.3,59.93877853
84,0,84,0,,,,,,,,,,,,,,,,,,,,,,,,,,352.3251436,None,century,61,85,aloud,red,350.3100815,None,None,350.3100815,None,,,,,,,,,,,,,,,,,,,,,,,,,,,,,,,,,,,Sep02Aloud5,41,2022_Sep_02_1439,ProdSingRedoBetween,2021.2.3,59.93877853
85,0,85,0,,,,,,,,,,,,,,,,,,,,,,,,,,354.8277581,None,accident,35,86,aloud,blue,352.8257307,None,None,352.8257307,None,,,,,,,,,,,,,,,,,,,,,,,,,,,,,,,,,,,Sep02Aloud5,41,2022_Sep_02_1439,ProdSingRedoBetween,2021.2.3,59.93877853
86,0,86,0,,,,,,,,,,,,,,,,,,,,,,,,,,357.3469992,None,finish,78,87,aloud,red,355.3324448,None,None,355.3324448,None,,,,,,,,,,,,,,,,,,,,,,,,,,,,,,,,,,,Sep02Aloud5,41,2022_Sep_02_1439,ProdSingRedoBetween,2021.2.3,59.93877853
87,0,87,0,,,,,,,,,,,,,,,,,,,,,,,,,,359.8659453,None,youth,83,88,aloud,red,357.8559819,None,None,357.8559819,None,,,,,,,,,,,,,,,,,,,,,,,,,,,,,,,,,,,Sep02Aloud5,41,2022_Sep_02_1439,ProdSingRedoBetween,2021.2.3,59.93877853
88,0,88,0,,,,,,,,,,,,,,,,,,,,,,,,,,362.3684809,None,number,76,89,aloud,red,360.3681765,None,None,360.3681765,None,,,,,,,,,,,,,,,,,,,,,,,,,,,,,,,,,,,Sep02Aloud5,41,2022_Sep_02_1439,ProdSingRedoBetween,2021.2.3,59.93877853
89,0,89,0,,,,,,,,,,,,,,,,,,,,,,,,,,364.8878309,None,motion,47,90,aloud,blue,362.8724267,None,None,362.8724267,None,,,,,,,,,,,,,,,,,,,,,,,,,,,,,,,,,,,Sep02Aloud5,41,2022_Sep_02_1439,ProdSingRedoBetween,2021.2.3,59.93877853
,,,,,,,,,,,,,,,,,,,,,,,,,,,,,,,,,,,,,,,,,365.3883382,None,k,132.377511,365.3883382,None,,,,,,,,,,,,,,,,,,,,,,,,,,,,,Sep02Aloud5,41,2022_Sep_02_1439,ProdSingRedoBetween,2021.2.3,59.93877853
,,,,0,0,0,0,,,,,,,,,,,,,,,,,,,,,,511.717634,None,,,,,,,,,,,,,,,,,command,146,1,aloud,new,null,498.2968232,None,498.2968232,None,6,10.148954,498.2968232,None,10.148954,508.4654865,None,508.9716577,None,508.9716577,None,r,2.7301801,508.9716577,None,2.7301801,,,Sep02Aloud5,41,2022_Sep_02_1439,ProdSingRedoBetween,2021.2.3,59.93877853
,,,,1,0,1,0,,,,,,,,,,,,,,,,,,,,,,516.7393435,None,,,,,,,,,,,,,,,,,range,85,2,aloud,old,red,512.2253149,None,512.2253149,None,6,2.7005257,512.2253149,None,2.7005257,514.9548485,None,515.4552535,None,515.4552535,None,r,1.2625747,515.4552535,None,1.2625747,,,Sep02Aloud5,41,2022_Sep_02_1439,ProdSingRedoBetween,2021.2.3,59.93877853
,,,,2,0,2,0,,,,,,,,,,,,,,,,,,,,,,522.8324896,None,,,,,,,,,,,,,,,,,production,157,3,aloud,new,null,517.2519793,None,517.2519793,None,4,3.2817449,517.2519793,None,3.2817449,520.5632786,None,521.0771745,None,521.0771745,None,f,1.7289271,521.0771745,None,1.7289271,,,Sep02Aloud5,41,2022_Sep_02_1439,ProdSingRedoBetween,2021.2.3,59.93877853
,,,,3,0,3,0,,,,,,,,,,,,,,,,,,,,,,527.3666128,None,,,,,,,,,,,,,,,,,short,143,4,aloud,new,null,523.3505878,None,523.3505878,None,1,1.959339,523.3505878,None,1.959339,525.3371768,None,525.850623,None,525.850623,None,n,1.4991899,525.850623,None,1.4991899,,,Sep02Aloud5,41,2022_Sep_02_1439,ProdSingRedoBetween,2021.2.3,59.93877853
,,,,4,0,4,0,,,,,,,,,,,,,,,,,,,,,,533.4559236,None,,,,,,,,,,,,,,,,,employment,117,5,aloud,new,null,527.8776215,None,527.8776215,None,2,3.7442254,527.8776215,None,3.7442254,531.6386809,None,532.1423257,None,532.1423257,None,n,1.2875697,532.1423257,None,1.2875697,,,Sep02Aloud5,41,2022_Sep_02_1439,ProdSingRedoBetween,2021.2.3,59.93877853
,,,,5,0,5,0,,,,,,,,,,,,,,,,,,,,,,540.035437,None,,,,,,,,,,,,,,,,,hearing,89,6,aloud,old,red,533.9590407,None,533.9590407,None,1,3.9347517,533.9590407,None,3.9347517,537.9114405,None,538.4129727,None,538.4129727,None,n,1.6008976,538.4129727,None,1.6008976,,,Sep02Aloud5,41,2022_Sep_02_1439,ProdSingRedoBetween,2021.2.3,59.93877853
,,,,6,0,6,0,,,,,,,,,,,,,,,,,,,,,,544.3500878,None,,,,,,,,,,,,,,,,,watch,41,7,aloud,old,blue,540.554586,None,540.554586,None,6,2.6434225,540.554586,None,2.6434225,543.2205752,None,543.7330515,None,543.7330515,None,r,0.5928246,543.7330515,None,0.5928246,,,Sep02Aloud5,41,2022_Sep_02_1439,ProdSingRedoBetween,2021.2.3,59.93877853
,,,,7,0,7,0,,,,,,,,,,,,,,,,,,,,,,548.8062007,None,,,,,,,,,,,,,,,,,disease,135,8,aloud,new,null,544.8545756,None,544.8545756,None,1,1.8392991,544.8545756,None,1.8392991,546.7264722,None,547.2366616,None,547.2366616,None,n,1.5452638,547.2366616,None,1.5452638,,,Sep02Aloud5,41,2022_Sep_02_1439,ProdSingRedoBetween,2021.2.3,59.93877853
,,,,8,0,8,0,,,,,,,,,,,,,,,,,,,,,,553.1089848,None,,,,,,,,,,,,,,,,,surface,147,9,aloud,new,null,549.3098065,None,549.3098065,None,1,1.0880195,549.3098065,None,1.0880195,550.4242332,None,550.9236457,None,550.9236457,None,n,2.1542285,550.9236457,None,2.1542285,,,Sep02Aloud5,41,2022_Sep_02_1439,ProdSingRedoBetween,2021.2.3,59.93877853
,,,,9,0,9,0,,,,,,,,,,,,,,,,,,,,,,556.4125534,None,,,,,,,,,,,,,,,,,discussion,64,10,aloud,old,red,553.6110244,None,553.6110244,None,6,1.8028853,553.6110244,None,1.8028853,555.4508289,None,555.9653969,None,555.9653969,None,r,0.4243646,555.9653969,None,0.4243646,,,Sep02Aloud5,41,2022_Sep_02_1439,ProdSingRedoBetween,2021.2.3,59.93877853
,,,,10,0,10,0,,,,,,,,,,,,,,,,,,,,,,560.2159677,None,,,,,,,,,,,,,,,,,husband,137,11,aloud,new,null,556.9130296,None,556.9130296,None,1,1.6287759,556.9130296,None,1.6287759,558.5657324,None,559.0710278,None,559.0710278,None,n,1.126786,559.0710278,None,1.126786,,,Sep02Aloud5,41,2022_Sep_02_1439,ProdSingRedoBetween,2021.2.3,59.93877853
,,,,11,0,11,0,,,,,,,,,,,,,,,,,,,,,,568.0589432,None,,,,,,,,,,,,,,,,,history,20,12,aloud,old,yellow,560.7195605,None,560.7195605,None,5,5.3421659,560.7195605,None,5.3421659,566.0922846,None,566.6058963,None,566.6058963,None,f,1.4320289,566.6058963,None,1.4320289,,,Sep02Aloud5,41,2022_Sep_02_1439,ProdSingRedoBetween,2021.2.3,59.93877853
,,,,12,0,12,0,,,,,,,,,,,,,,,,,,,,,,571.293809,None,,,,,,,,,,,,,,,,,cross,126,13,aloud,new,null,568.5777865,None,568.5777865,None,1,1.6360416,568.5777865,None,1.6360416,570.243846,None,570.7466032,None,570.7466032,None,n,0.5232749,570.7466032,None,0.5232749,,,Sep02Aloud5,41,2022_Sep_02_1439,ProdSingRedoBetween,2021.2.3,59.93877853
,,,,13,0,13,0,,,,,,,,,,,,,,,,,,,,,,574.7638639,None,,,,,,,,,,,,,,,,,partner,14,14,aloud,old,yellow,571.8056932,None,571.8056932,None,6,1.9841326,571.8056932,None,1.9841326,573.8151784,None,574.3335774,None,574.3335774,None,r,0.4002558,574.3335774,None,0.4002558,,,Sep02Aloud5,41,2022_Sep_02_1439,ProdSingRedoBetween,2021.2.3,59.93877853
,,,,14,0,14,0,,,,,,,,,,,,,,,,,,,,,,579.4201249,None,,,,,,,,,,,,,,,,,empty,72,15,aloud,old,red,575.2709908,None,575.2709908,None,6,3.2469386,575.2709908,None,3.2469386,578.5402589,None,579.055588,None,579.055588,None,r,0.342328,579.055588,None,0.342328,,,Sep02Aloud5,41,2022_Sep_02_1439,ProdSingRedoBetween,2021.2.3,59.93877853
,,,,15,0,15,0,,,,,,,,,,,,,,,,,,,,,,582.9553565,None,,,,,,,,,,,,,,,,,government,24,16,aloud,old,yellow,579.9269227,None,579.9269227,None,6,1.3668771,579.9269227,None,1.3668771,581.3219968,None,581.8387068,None,581.8387068,None,r,1.0951001,581.8387068,None,1.0951001,,,Sep02Aloud5,41,2022_Sep_02_1439,ProdSingRedoBetween,2021.2.3,59.93877853
,,,,16,0,16,0,,,,,,,,,,,,,,,,,,,,,,586.0920263,None,,,,,,,,,,,,,,,,,front,136,17,aloud,new,null,583.469924,None,583.469924,None,1,1.6399268,583.469924,None,1.6399268,585.1419626,None,585.6458775,None,585.6458775,None,n,0.4158891,585.6458775,None,0.4158891,,,Sep02Aloud5,41,2022_Sep_02_1439,ProdSingRedoBetween,2021.2.3,59.93877853
,,,,17,0,17,0,,,,,,,,,,,,,,,,,,,,,,589.4619028,None,,,,,,,,,,,,,,,,,testimony,163,18,aloud,new,null,586.6027641,None,586.6027641,None,1,2.0910231,586.6027641,None,2.0910231,588.7123524,None,589.2168988,None,589.2168988,None,n,0.2288538,589.2168988,None,0.2288538,,,Sep02Aloud5,41,2022_Sep_02_1439,ProdSingRedoBetween,2021.2.3,59.93877853
,,,,18,0,18,0,,,,,,,,,,,,,,,,,,,,,,591.9977199,None,,,,,,,,,,,,,,,,,bicycle,110,19,aloud,new,null,589.9640124,None,589.9640124,None,1,0.8497356,589.9640124,None,0.8497356,590.8313979,None,591.3304718,None,591.3304718,None,n,0.6436464,591.3304718,None,0.6436464,,,Sep02Aloud5,41,2022_Sep_02_1439,ProdSingRedoBetween,2021.2.3,59.93877853
,,,,19,0,19,0,,,,,,,,,,,,,,,,,,,,,,594.8275251,None,,,,,,,,,,,,,,,,,private,21,20,aloud,old,yellow,592.5015613,None,592.5015613,None,6,1.4402323,592.5015613,None,1.4402323,593.9688275,None,594.4838125,None,594.4838125,None,r,0.3140505,594.4838125,None,0.3140505,,,Sep02Aloud5,41,2022_Sep_02_1439,ProdSingRedoBetween,2021.2.3,59.93877853
,,,,20,0,20,0,,,,,,,,,,,,,,,,,,,,,,597.1030259,None,,,,,,,,,,,,,,,,,sweet,18,21,aloud,old,yellow,595.3393149,None,595.3393149,None,6,0.8343991,595.3393149,None,0.8343991,596.2075128,None,596.7193794,None,596.7193794,None,r,0.3664416,596.7193794,None,0.3664416,,,Sep02Aloud5,41,2022_Sep_02_1439,ProdSingRedoBetween,2021.2.3,59.93877853
,,,,21,0,21,0,,,,,,,,,,,,,,,,,,,,,,599.2885889,None,,,,,,,,,,,,,,,,,atmosphere,45,22,aloud,old,blue,597.6035452,None,597.6035452,None,6,0.9383599,597.6035452,None,0.9383599,598.5721414,None,599.0753203,None,599.0753203,None,r,0.186465,599.0753203,None,0.186465,,,Sep02Aloud5,41,2022_Sep_02_1439,ProdSingRedoBetween,2021.2.3,59.93877853
,,,,22,0,22,0,,,,,,,,,,,,,,,,,,,,,,601.758929,None,,,,,,,,,,,,,,,,,congress,167,23,aloud,new,null,599.8008654,None,599.8008654,None,1,1.1969258,599.8008654,None,1.1969258,601.0254407,None,601.5408004,None,601.5408004,None,n,0.2010484,601.5408004,None,0.2010484,,,Sep02Aloud5,41,2022_Sep_02_1439,ProdSingRedoBetween,2021.2.3,59.93877853
,,,,23,0,23,0,,,,,,,,,,,,,,,,,,,,,,604.6282991,None,,,,,,,,,,,,,,,,,colonel,60,24,aloud,old,red,602.2623818,None,602.2623818,None,6,1.663429,602.2623818,None,1.663429,603.9431163,None,604.4514819,None,604.4514819,None,r,0.1544163,604.4514819,None,0.1544163,,,Sep02Aloud5,41,2022_Sep_02_1439,ProdSingRedoBetween,2021.2.3,59.93877853
,,,,24,0,24,0,,,,,,,,,,,,,,,,,,,,,,606.6792384,None,,,,,,,,,,,,,,,,,member,81,25,aloud,old,red,605.1304253,None,605.1304253,None,6,0.8274861,605.1304253,None,0.8274861,605.9840918,None,606.4957614,None,606.4957614,None,r,0.1661279,606.4957614,None,0.1661279,,,Sep02Aloud5,41,2022_Sep_02_1439,ProdSingRedoBetween,2021.2.3,59.93877853
,,,,25,0,25,0,,,,,,,,,,,,,,,,,,,,,,610.6832793,None,,,,,,,,,,,,,,,,,weather,79,26,aloud,old,red,607.1877389,None,607.1877389,None,6,2.1462644,607.1877389,None,2.1462644,609.3658689,None,609.8697171,None,609.8697171,None,r,0.7921494,609.8697171,None,0.7921494,,,Sep02Aloud5,41,2022_Sep_02_1439,ProdSingRedoBetween,2021.2.3,59.93877853
,,,,26,0,26,0,,,,,,,,,,,,,,,,,,,,,,613.2029302,None,,,,,,,,,,,,,,,,,education,69,27,aloud,old,red,611.1864078,None,611.1864078,None,6,1.1633815,611.1864078,None,1.1633815,612.3723584,None,612.8900758,None,612.8900758,None,r,0.2839179,612.8900758,None,0.2839179,,,Sep02Aloud5,41,2022_Sep_02_1439,ProdSingRedoBetween,2021.2.3,59.93877853
,,,,27,0,27,0,,,,,,,,,,,,,,,,,,,,,,615.9884454,None,,,,,,,,,,,,,,,,,health,139,28,aloud,new,null,613.7077328,None,613.7077328,None,1,1.4741183,613.7077328,None,1.4741183,615.2043555,None,615.704914,None,615.704914,None,n,0.2689052,615.704914,None,0.2689052,,,Sep02Aloud5,41,2022_Sep_02_1439,ProdSingRedoBetween,2021.2.3,59.93877853
,,,,28,0,28,0,,,,,,,,,,,,,,,,,,,,,,618.6076752,None,,,,,,,,,,,,,,,,,opening,128,29,aloud,new,null,616.4967863,None,616.4967863,None,1,1.2050297,616.4967863,None,1.2050297,617.7245455,None,618.2349472,None,618.2349472,None,n,0.3468288,618.2349472,None,0.3468288,,,Sep02Aloud5,41,2022_Sep_02_1439,ProdSingRedoBetween,2021.2.3,59.93877853
,,,,29,0,29,0,,,,,,,,,,,,,,,,,,,,,,621.0434759,None,,,,,,,,,,,,,,,,,answer,104,30,aloud,new,null,619.1098965,None,619.1098965,None,1,1.2559229,619.1098965,None,1.2559229,620.3961398,None,620.9133218,None,620.9133218,None,n,0.1085637,620.9133218,None,0.1085637,,,Sep02Aloud5,41,2022_Sep_02_1439,ProdSingRedoBetween,2021.2.3,59.93877853
,,,,30,0,30,0,,,,,,,,,,,,,,,,,,,,,,623.612653,None,,,,,,,,,,,,,,,,,touch,9,31,aloud,old,yellow,621.5442859,None,621.5442859,None,6,1.3014342,621.5442859,None,1.3014342,622.8629533,None,623.3627753,None,623.3627753,None,r,0.227111,623.3627753,None,0.227111,,,Sep02Aloud5,41,2022_Sep_02_1439,ProdSingRedoBetween,2021.2.3,59.93877853
,,,,31,0,31,0,,,,,,,,,,,,,,,,,,,,,,627.8001656,None,,,,,,,,,,,,,,,,,pattern,7,32,aloud,old,yellow,624.1161264,None,624.1161264,None,3,2.4335587,624.1161264,None,2.4335587,626.571774,None,627.0828768,None,627.0828768,None,f,0.690959,627.0828768,None,0.690959,,,Sep02Aloud5,41,2022_Sep_02_1439,ProdSingRedoBetween,2021.2.3,59.93877853
,,,,32,0,32,0,,,,,,,,,,,,,,,,,,,,,,631.3723847,None,,,,,,,,,,,,,,,,,color,144,33,aloud,new,null,628.3058203,None,628.3058203,None,4,1.6920519,628.3058203,None,1.6920519,630.0273896,None,630.5364718,None,630.5364718,None,f,0.8134562,630.5364718,None,0.8134562,,,Sep02Aloud5,41,2022_Sep_02_1439,ProdSingRedoBetween,2021.2.3,59.93877853
,,,,33,0,33,0,,,,,,,,,,,,,,,,,,,,,,634.1947895,None,,,,,,,,,,,,,,,,,literature,23,34,aloud,old,yellow,631.894455,None,631.894455,None,6,1.439355,631.894455,None,1.439355,633.3585106,None,633.8773523,None,633.8773523,None,n,0.288625,633.8773523,None,0.288625,,,Sep02Aloud5,41,2022_Sep_02_1439,ProdSingRedoBetween,2021.2.3,59.93877853
,,,,34,0,34,0,,,,,,,,,,,,,,,,,,,,,,638.9781465,None,,,,,,,,,,,,,,,,,court,176,35,aloud,new,null,634.7165009,None,634.7165009,None,1,1.2493208,634.7165009,None,1.2493208,635.9917705,None,636.492442,None,636.492442,None,n,2.4574407,636.492442,None,2.4574407,,,Sep02Aloud5,41,2022_Sep_02_1439,ProdSingRedoBetween,2021.2.3,59.93877853
,,,,35,0,35,0,,,,,,,,,,,,,,,,,,,,,,646.8026008,None,,,,,,,,,,,,,,,,,native,149,36,aloud,new,null,639.485816,None,639.485816,None,1,4.9839825,639.485816,None,4.9839825,644.5001811,None,645.0110925,None,645.0110925,None,n,1.7627191,645.0110925,None,1.7627191,,,Sep02Aloud5,41,2022_Sep_02_1439,ProdSingRedoBetween,2021.2.3,59.93877853
,,,,36,0,36,0,,,,,,,,,,,,,,,,,,,,,,649.4552361,None,,,,,,,,,,,,,,,,,column,3,37,aloud,old,yellow,647.3119465,None,647.3119465,None,1,1.0698227,647.3119465,None,1.0698227,648.4042492,None,648.9071933,None,648.9071933,None,n,0.5307162,648.9071933,None,0.5307162,,,Sep02Aloud5,41,2022_Sep_02_1439,ProdSingRedoBetween,2021.2.3,59.93877853
,,,,37,0,37,0,,,,,,,,,,,,,,,,,,,,,,652.0245209,None,,,,,,,,,,,,,,,,,broad,171,38,aloud,new,null,649.9628962,None,649.9628962,None,1,1.0668325,649.9628962,None,1.0668325,651.057458,None,651.5662224,None,651.5662224,None,n,0.4396783,651.5662224,None,0.4396783,,,Sep02Aloud5,41,2022_Sep_02_1439,ProdSingRedoBetween,2021.2.3,59.93877853
,,,,38,0,38,0,,,,,,,,,,,,,,,,,,,,,,654.7270773,None,,,,,,,,,,,,,,,,,rural,164,39,aloud,new,null,652.5278514,None,652.5278514,None,1,1.3179484,652.5278514,None,1.3179484,653.8762038,None,654.3779039,None,654.3779039,None,n,0.3238954,654.3779039,None,0.3238954,,,Sep02Aloud5,41,2022_Sep_02_1439,ProdSingRedoBetween,2021.2.3,59.93877853
,,,,39,0,39,0,,,,,,,,,,,,,,,,,,,,,,662.2846121,None,,,,,,,,,,,,,,,,,research,153,40,aloud,new,null,655.2381027,None,655.2381027,None,4,6.1358171,655.2381027,None,6.1358171,661.4013916,None,661.9066532,None,661.9066532,None,f,0.3632801,661.9066532,None,0.3632801,,,Sep02Aloud5,41,2022_Sep_02_1439,ProdSingRedoBetween,2021.2.3,59.93877853
,,,,40,0,40,0,,,,,,,,,,,,,,,,,,,,,,665.3709642,None,,,,,,,,,,,,,,,,,youth,83,41,aloud,old,red,662.793243,None,662.793243,None,1,1.804664,662.793243,None,1.804664,664.625351,None,665.1429039,None,665.1429039,None,n,0.206939,665.1429039,None,0.206939,,,Sep02Aloud5,41,2022_Sep_02_1439,ProdSingRedoBetween,2021.2.3,59.93877853
,,,,41,0,41,0,,,,,,,,,,,,,,,,,,,,,,667.8263025,None,,,,,,,,,,,,,,,,,turkey,27,42,aloud,old,yellow,665.8754075,None,665.8754075,None,6,1.258399,665.8754075,None,1.258399,667.1577558,None,667.6627099,None,667.6627099,None,r,0.1431812,667.6627099,None,0.1431812,,,Sep02Aloud5,41,2022_Sep_02_1439,ProdSingRedoBetween,2021.2.3,59.93877853
,,,,42,0,42,0,,,,,,,,,,,,,,,,,,,,,,670.8932038,None,,,,,,,,,,,,,,,,,reach,86,43,aloud,old,red,668.3487583,None,668.3487583,None,1,1.6972929,668.3487583,None,1.6972929,670.081084,None,670.6011112,None,670.6011112,None,n,0.2687182,670.6011112,None,0.2687182,,,Sep02Aloud5,41,2022_Sep_02_1439,ProdSingRedoBetween,2021.2.3,59.93877853
,,,,43,0,43,0,,,,,,,,,,,,,,,,,,,,,,673.7960826,None,,,,,,,,,,,,,,,,,generation,90,44,aloud,new,null,671.4033383,None,671.4033383,None,1,1.7544659,671.4033383,None,1.7544659,673.1799594,None,673.6796205,None,673.6796205,None,n,0.0942492,673.6796205,None,0.0942492,,,Sep02Aloud5,41,2022_Sep_02_1439,ProdSingRedoBetween,2021.2.3,59.93877853
,,,,44,0,44,0,,,,,,,,,,,,,,,,,,,,,,676.2653119,None,,,,,,,,,,,,,,,,,pancakes,116,45,aloud,new,null,674.3007152,None,674.3007152,None,1,1.21715,674.3007152,None,1.21715,675.5509799,None,676.0724338,None,676.0724338,None,n,0.1733896,676.0724338,None,0.1733896,,,Sep02Aloud5,41,2022_Sep_02_1439,ProdSingRedoBetween,2021.2.3,59.93877853
,,,,45,0,45,0,,,,,,,,,,,,,,,,,,,,,,678.4841483,None,,,,,,,,,,,,,,,,,write,130,46,aloud,new,null,676.7665697,None,676.7665697,None,1,0.8792375,676.7665697,None,0.8792375,677.6666588,None,678.1674862,None,678.1674862,None,n,0.2942159,678.1674862,None,0.2942159,,,Sep02Aloud5,41,2022_Sep_02_1439,ProdSingRedoBetween,2021.2.3,59.93877853
,,,,46,0,46,0,,,,,,,,,,,,,,,,,,,,,,680.4195643,None,,,,,,,,,,,,,,,,,south,141,47,aloud,new,null,678.9877469,None,678.9877469,None,1,0.7780852,678.9877469,None,0.7780852,679.7873026,None,680.3027128,None,680.3027128,None,n,0.0871004,680.3027128,None,0.0871004,,,Sep02Aloud5,41,2022_Sep_02_1439,ProdSingRedoBetween,2021.2.3,59.93877853
,,,,47,0,47,0,,,,,,,,,,,,,,,,,,,,,,683.5726301,None,,,,,,,,,,,,,,,,,junior,15,48,aloud,old,yellow,680.9214113,None,680.9214113,None,6,1.1164123,680.9214113,None,1.1164123,682.057528,None,682.577377,None,682.577377,None,r,0.9644435,682.577377,None,0.9644435,,,Sep02Aloud5,41,2022_Sep_02_1439,ProdSingRedoBetween,2021.2.3,59.93877853
,,,,48,0,48,0,,,,,,,,,,,,,,,,,,,,,,685.6913985,None,,,,,,,,,,,,,,,,,shear,120,49,aloud,new,null,684.0815624,None,684.0815624,None,1,0.9722209,684.0815624,None,0.9722209,685.0755236,None,685.5784726,None,685.5784726,None,n,0.0913146,685.5784726,None,0.0913146,,,Sep02Aloud5,41,2022_Sep_02_1439,ProdSingRedoBetween,2021.2.3,59.93877853
,,,,49,0,49,0,,,,,,,,,,,,,,,,,,,,,,688.3941247,None,,,,,,,,,,,,,,,,,committee,151,50,aloud,new,null,686.1931811,None,686.1931811,None,1,1.6126376,686.1931811,None,1.6126376,687.8286668,None,688.3442072,None,688.3442072,None,n,0.029631,688.3442072,None,0.029631,,,Sep02Aloud5,41,2022_Sep_02_1439,ProdSingRedoBetween,2021.2.3,59.93877853
,,,,50,0,50,0,,,,,,,,,,,,,,,,,,,,,,691.4327778,None,,,,,,,,,,,,,,,,,device,100,51,aloud,new,null,688.8972538,None,688.8972538,None,1,1.9086184,688.8972538,None,1.9086184,690.8335229,None,691.3520367,None,691.3520367,None,n,0.0538752,691.3520367,None,0.0538752,,,Sep02Aloud5,41,2022_Sep_02_1439,ProdSingRedoBetween,2021.2.3,59.93877853
,,,,51,0,51,0,,,,,,,,,,,,,,,,,,,,,,694.2834713,None,,,,,,,,,,,,,,,,,course,73,52,aloud,old,red,691.9577333,None,691.9577333,None,6,1.1920709,691.9577333,None,1.1920709,693.170937,None,693.6828694,None,693.6828694,None,r,0.5789364,693.6828694,None,0.5789364,,,Sep02Aloud5,41,2022_Sep_02_1439,ProdSingRedoBetween,2021.2.3,59.93877853
,,,,52,0,52,0,,,,,,,,,,,,,,,,,,,,,,696.5356197,None,,,,,,,,,,,,,,,,,commercial,70,53,aloud,old,red,694.7892632,None,694.7892632,None,6,0.8966709,694.7892632,None,0.8966709,695.7013838,None,696.2054374,None,696.2054374,None,r,0.3043334,696.2054374,None,0.3043334,,,Sep02Aloud5,41,2022_Sep_02_1439,ProdSingRedoBetween,2021.2.3,59.93877853
,,,,53,0,53,0,,,,,,,,,,,,,,,,,,,,,,698.7211985,None,,,,,,,,,,,,,,,,,judge,118,54,aloud,new,null,697.0389882,None,697.0389882,None,1,1.0307765,697.0389882,None,1.0307765,698.08825,None,698.5912413,None,698.5912413,None,n,0.1025059,698.5912413,None,0.1025059,,,Sep02Aloud5,41,2022_Sep_02_1439,ProdSingRedoBetween,2021.2.3,59.93877853
,,,,54,0,54,0,,,,,,,,,,,,,,,,,,,,,,700.8566694,None,,,,,,,,,,,,,,,,,trash,160,55,aloud,new,null,699.2311577,None,699.2311577,None,1,0.9585763,699.2311577,None,0.9585763,700.2060669,None,700.7065761,None,700.7065761,None,n,0.1313089,700.7065761,None,0.1313089,,,Sep02Aloud5,41,2022_Sep_02_1439,ProdSingRedoBetween,2021.2.3,59.93877853
,,,,55,0,55,0,,,,,,,,,,,,,,,,,,,,,,703.025316,None,,,,,,,,,,,,,,,,,concern,44,56,aloud,old,blue,701.3629997,None,701.3629997,None,6,1.0907979,701.3629997,None,1.0907979,702.4749643,None,702.9754472,None,702.9754472,None,r,0.0304751,702.9754472,None,0.0304751,,,Sep02Aloud5,41,2022_Sep_02_1439,ProdSingRedoBetween,2021.2.3,59.93877853
,,,,56,0,56,0,,,,,,,,,,,,,,,,,,,,,,705.0606791,None,,,,,,,,,,,,,,,,,fashion,39,57,aloud,old,blue,703.5286263,None,703.5286263,None,6,0.8051716,703.5286263,None,0.8051716,704.3633685,None,704.8771555,None,704.8771555,None,r,0.1686277,704.8771555,None,0.1686277,,,Sep02Aloud5,41,2022_Sep_02_1439,ProdSingRedoBetween,2021.2.3,59.93877853
,,,,57,0,57,0,,,,,,,,,,,,,,,,,,,,,,707.0126748,None,,,,,,,,,,,,,,,,,article,6,58,aloud,old,yellow,705.5761708,None,705.5761708,None,6,0.6855562,705.5761708,None,0.6855562,706.2836126,None,706.7995914,None,706.7995914,None,r,0.1822387,706.7995914,None,0.1822387,,,Sep02Aloud5,41,2022_Sep_02_1439,ProdSingRedoBetween,2021.2.3,59.93877853
,,,,58,0,58,0,,,,,,,,,,,,,,,,,,,,,,709.0147244,None,,,,,,,,,,,,,,,,,republic,112,59,aloud,new,null,707.5172576,None,707.5172576,None,1,0.8565335,707.5172576,None,0.8565335,708.3986734,None,708.8980346,None,708.8980346,None,n,0.0997217,708.8980346,None,0.0997217,,,Sep02Aloud5,41,2022_Sep_02_1439,ProdSingRedoBetween,2021.2.3,59.93877853
,,,,59,0,59,0,,,,,,,,,,,,,,,,,,,,,,711.3170999,None,,,,,,,,,,,,,,,,,audience,140,60,aloud,new,null,709.5159078,None,709.5159078,None,1,1.1858172,709.5159078,None,1.1858172,710.7165031,None,711.2170854,None,711.2170854,None,n,0.0847679,711.2170854,None,0.0847679,,,Sep02Aloud5,41,2022_Sep_02_1439,ProdSingRedoBetween,2021.2.3,59.93877853
,,,,60,0,60,0,,,,,,,,,,,,,,,,,,,,,,713.4858386,None,,,,,,,,,,,,,,,,,silence,92,61,aloud,new,null,711.8282885,None,711.8282885,None,1,1.0254968,711.8282885,None,1.0254968,712.8700348,None,713.3859787,None,713.3859787,None,n,0.0759365,713.3859787,None,0.0759365,,,Sep02Aloud5,41,2022_Sep_02_1439,ProdSingRedoBetween,2021.2.3,59.93877853
,,,,61,0,61,0,,,,,,,,,,,,,,,,,,,,,,715.5211596,None,,,,,,,,,,,,,,,,,space,156,62,aloud,new,null,713.9879869,None,713.9879869,None,1,0.8898183,713.9879869,None,0.8898183,714.9052588,None,715.4045092,None,715.4045092,None,n,0.089296,715.4045092,None,0.089296,,,Sep02Aloud5,41,2022_Sep_02_1439,ProdSingRedoBetween,2021.2.3,59.93877853
,,,,62,0,62,0,,,,,,,,,,,,,,,,,,,,,,717.7692364,None,,,,,,,,,,,,,,,,,present,158,63,aloud,new,null,716.0217293,None,716.0217293,None,6,1.1360445,716.0217293,None,1.1360445,717.1739806,None,717.6793544,None,717.6793544,None,r,0.0544442,717.6793544,None,0.0544442,,,Sep02Aloud5,41,2022_Sep_02_1439,ProdSingRedoBetween,2021.2.3,59.93877853
,,,,63,0,63,0,,,,,,,,,,,,,,,,,,,,,,719.9257211,None,,,,,,,,,,,,,,,,,majority,28,64,aloud,old,yellow,718.2814562,None,718.2814562,None,6,0.9563166,718.2814562,None,0.9563166,719.2606034,None,719.7790231,None,719.7790231,None,r,0.1228546,719.7790231,None,0.1228546,,,Sep02Aloud5,41,2022_Sep_02_1439,ProdSingRedoBetween,2021.2.3,59.93877853
,,,,64,0,64,0,,,,,,,,,,,,,,,,,,,,,,721.8956022,None,,,,,,,,,,,,,,,,,light,169,65,aloud,new,null,720.433652,None,720.433652,None,1,0.7722842,720.433652,None,0.7722842,721.2334685,None,721.7443937,None,721.7443937,None,n,0.133536,721.7443937,None,0.133536,,,Sep02Aloud5,41,2022_Sep_02_1439,ProdSingRedoBetween,2021.2.3,59.93877853
,,,,65,0,65,0,,,,,,,,,,,,,,,,,,,,,,723.8128008,None,,,,,,,,,,,,,,,,,frank,97,66,aloud,new,null,722.3990312,None,722.3990312,None,1,0.7907676,722.3990312,None,0.7907676,723.2133572,None,723.7175665,None,723.7175665,None,n,0.0802745,723.7175665,None,0.0802745,,,Sep02Aloud5,41,2022_Sep_02_1439,ProdSingRedoBetween,2021.2.3,59.93877853
,,,,66,0,66,0,,,,,,,,,,,,,,,,,,,,,,725.5838245,None,,,,,,,,,,,,,,,,,worker,82,67,aloud,old,red,724.3162835,None,724.3162835,None,1,0.6575511,724.3162835,None,0.6575511,725.0036216,None,725.5202262,None,725.5202262,None,n,0.0376935,725.5202262,None,0.0376935,,,Sep02Aloud5,41,2022_Sep_02_1439,ProdSingRedoBetween,2021.2.3,59.93877853
,,,,67,0,67,0,,,,,,,,,,,,,,,,,,,,,,728.7343809,None,,,,,,,,,,,,,,,,,number,76,68,aloud,old,red,726.1055004,None,726.1055004,None,6,1.0762279,726.1055004,None,1.0762279,727.1994541,None,727.7065007,None,727.7065007,None,r,1.0032948,727.7065007,None,1.0032948,,,Sep02Aloud5,41,2022_Sep_02_1439,ProdSingRedoBetween,2021.2.3,59.93877853
,,,,68,0,68,0,,,,,,,,,,,,,,,,,,,,,,732.5048549,None,,,,,,,,,,,,,,,,,review,124,69,aloud,new,null,729.244382,None,729.244382,None,2,2.6573947,729.244382,None,2.6573947,731.9224207,None,732.4278652,None,732.4278652,None,f,0.0500063,732.4278652,None,0.0500063,,,Sep02Aloud5,41,2022_Sep_02_1439,ProdSingRedoBetween,2021.2.3,59.93877853
,,,,69,0,69,0,,,,,,,,,,,,,,,,,,,,,,735.2749936,None,,,,,,,,,,,,,,,,,entrance,67,70,aloud,old,red,733.009537,None,733.009537,None,6,1.2203373,733.009537,None,1.2203373,734.2635144,None,734.7740239,None,734.7740239,None,r,0.4796909,734.7740239,None,0.4796909,,,Sep02Aloud5,41,2022_Sep_02_1439,ProdSingRedoBetween,2021.2.3,59.93877853
,,,,70,0,70,0,,,,,,,,,,,,,,,,,,,,,,737.5433332,None,,,,,,,,,,,,,,,,,length,1,71,aloud,old,yellow,735.7752364,None,735.7752364,None,6,1.1344947,735.7752364,None,1.1344947,736.9258663,None,737.4265544,None,737.4265544,None,r,0.0992081,737.4265544,None,0.0992081,,,Sep02Aloud5,41,2022_Sep_02_1439,ProdSingRedoBetween,2021.2.3,59.93877853
,,,,71,0,71,0,,,,,,,,,,,,,,,,,,,,,,739.7955303,None,,,,,,,,,,,,,,,,,scene,32,72,aloud,old,blue,738.046588,None,738.046588,None,6,1.0632705,738.046588,None,1.0632705,739.1375039,None,739.6455268,None,739.6455268,None,r,0.1282865,739.6455268,None,0.1282865,,,Sep02Aloud5,41,2022_Sep_02_1439,ProdSingRedoBetween,2021.2.3,59.93877853
,,,,72,0,72,0,,,,,,,,,,,,,,,,,,,,,,742.3145169,None,,,,,,,,,,,,,,,,,direction,87,73,aloud,old,red,740.3083929,None,740.3083929,None,6,0.7293828,740.3083929,None,0.7293828,741.0644581,None,741.5665138,None,741.5665138,None,r,0.7272578,741.5665138,None,0.7272578,,,Sep02Aloud5,41,2022_Sep_02_1439,ProdSingRedoBetween,2021.2.3,59.93877853
,,,,73,0,73,0,,,,,,,,,,,,,,,,,,,,,,747.7867111,None,,,,,,,,,,,,,,,,,guard,53,74,aloud,old,blue,742.8259044,None,742.8259044,None,5,2.6118524,742.8259044,None,2.6118524,745.4679826,None,745.9700779,None,745.9700779,None,f,1.7957023,745.9700779,None,1.7957023,,,Sep02Aloud5,41,2022_Sep_02_1439,ProdSingRedoBetween,2021.2.3,59.93877853
,,,,74,0,74,0,,,,,,,,,,,,,,,,,,,,,,750.7396386,None,,,,,,,,,,,,,,,,,close,94,75,aloud,new,null,748.295181,None,748.295181,None,1,1.3665811,748.295181,None,1.3665811,749.6907609,None,750.2058659,None,750.2058659,None,n,0.5039311,750.2058659,None,0.5039311,,,Sep02Aloud5,41,2022_Sep_02_1439,ProdSingRedoBetween,2021.2.3,59.93877853
,,,,75,0,75,0,,,,,,,,,,,,,,,,,,,,,,754.7436087,None,,,,,,,,,,,,,,,,,territory,43,76,aloud,old,blue,751.2555794,None,751.2555794,None,6,2.2222126,751.2555794,None,2.2222126,753.5100566,None,754.0176881,None,754.0176881,None,r,0.7001344,754.0176881,None,0.7001344,,,Sep02Aloud5,41,2022_Sep_02_1439,ProdSingRedoBetween,2021.2.3,59.93877853
,,,,76,0,76,0,,,,,,,,,,,,,,,,,,,,,,756.7456606,None,,,,,,,,,,,,,,,,,heavy,10,77,aloud,old,yellow,755.2577299,None,755.2577299,None,1,0.8521155,755.2577299,None,0.8521155,756.1333409,None,756.6528556,None,756.6528556,None,n,0.0649368,756.6528556,None,0.0649368,,,Sep02Aloud5,41,2022_Sep_02_1439,ProdSingRedoBetween,2021.2.3,59.93877853
,,,,77,0,77,0,,,,,,,,,,,,,,,,,,,,,,760.5828472,None,,,,,,,,,,,,,,,,,trial,29,78,aloud,old,blue,757.2508638,None,757.2508638,None,5,2.7628333,757.2508638,None,2.7628333,760.0332493,None,760.5352056,None,760.5352056,None,f,0.0226462,760.5352056,None,0.0226462,,,Sep02Aloud5,41,2022_Sep_02_1439,ProdSingRedoBetween,2021.2.3,59.93877853
,,,,78,0,78,0,,,,,,,,,,,,,,,,,,,,,,763.4857969,None,,,,,,,,,,,,,,,,,threat,105,79,aloud,new,null,761.0847606,None,761.0847606,None,1,1.7850181,761.0847606,None,1.7850181,762.8885052,None,763.4053988,None,763.4053988,None,n,0.0564107,763.4053988,None,0.0564107,,,Sep02Aloud5,41,2022_Sep_02_1439,ProdSingRedoBetween,2021.2.3,59.93877853
,,,,79,0,79,0,,,,,,,,,,,,,,,,,,,,,,765.7069109,None,,,,,,,,,,,,,,,,,expansion,175,80,aloud,new,null,763.9889697,None,763.9889697,None,1,0.9848103,763.9889697,None,0.9848103,765.004974,None,765.5113197,None,765.5113197,None,n,0.1665876,765.5113197,None,0.1665876,,,Sep02Aloud5,41,2022_Sep_02_1439,ProdSingRedoBetween,2021.2.3,59.93877853
,,,,80,0,80,0,,,,,,,,,,,,,,,,,,,,,,768.4574027,None,,,,,,,,,,,,,,,,,right,123,81,aloud,new,null,766.2220854,None,766.2220854,None,1,1.6159199,766.2220854,None,1.6159199,767.8578871,None,768.3601426,None,768.3601426,None,n,0.0696317,768.3601426,None,0.0696317,,,Sep02Aloud5,41,2022_Sep_02_1439,ProdSingRedoBetween,2021.2.3,59.93877853
,,,,81,0,81,0,,,,,,,,,,,,,,,,,,,,,,772.3113269,None,,,,,,,,,,,,,,,,,incident,74,82,aloud,old,red,768.9593444,None,768.9593444,None,2,2.1504097,768.9593444,None,2.1504097,771.1290013,None,771.6440084,None,771.6440084,None,n,0.6497128,771.6440084,None,0.6497128,,,Sep02Aloud5,41,2022_Sep_02_1439,ProdSingRedoBetween,2021.2.3,59.93877853
,,,,82,0,82,0,,,,,,,,,,,,,,,,,,,,,,774.9150622,None,,,,,,,,,,,,,,,,,corner,50,83,aloud,old,blue,772.8209185,None,772.8209185,None,5,1.5368739,772.8209185,None,1.5368739,774.3800656,None,774.8806651,None,774.8806651,None,f,0.0053371,774.8806651,None,0.0053371,,,Sep02Aloud5,41,2022_Sep_02_1439,ProdSingRedoBetween,2021.2.3,59.93877853
,,,,83,0,83,0,,,,,,,,,,,,,,,,,,,,,,777.2327607,None,,,,,,,,,,,,,,,,,spoke,174,84,aloud,new,null,775.420496,None,775.420496,None,1,1.2331921,775.420496,None,1.2331921,776.6849383,None,777.199747,None,777.199747,None,n,0.0061074,777.199747,None,0.0061074,,,Sep02Aloud5,41,2022_Sep_02_1439,ProdSingRedoBetween,2021.2.3,59.93877853
,,,,84,0,84,0,,,,,,,,,,,,,,,,,,,,,,779.0554475,None,,,,,,,,,,,,,,,,,bureau,107,85,aloud,new,null,777.7391068,None,777.7391068,None,1,0.6985946,777.7391068,None,0.6985946,778.4674794,None,778.971517,None,778.971517,None,n,0.0585085,778.971517,None,0.0585085,,,Sep02Aloud5,41,2022_Sep_02_1439,ProdSingRedoBetween,2021.2.3,59.93877853
,,,,85,0,85,0,,,,,,,,,,,,,,,,,,,,,,781.8248449,None,,,,,,,,,,,,,,,,,region,109,86,aloud,new,null,779.5765095,None,779.5765095,None,6,1.0535445,779.5765095,None,1.0535445,780.6607693,None,781.1731608,None,781.1731608,None,r,0.6248683,781.1731608,None,0.6248683,,,Sep02Aloud5,41,2022_Sep_02_1439,ProdSingRedoBetween,2021.2.3,59.93877853
,,,,86,0,86,0,,,,,,,,,,,,,,,,,,,,,,783.789438,None,,,,,,,,,,,,,,,,,strength,34,87,aloud,old,blue,782.3458887,None,782.3458887,None,6,0.643872,782.3458887,None,0.643872,783.0064014,None,783.5122937,None,783.5122937,None,r,0.2535411,783.5122937,None,0.2535411,,,Sep02Aloud5,41,2022_Sep_02_1439,ProdSingRedoBetween,2021.2.3,59.93877853
,,,,87,0,87,0,,,,,,,,,,,,,,,,,,,,,,787.3095258,None,,,,,,,,,,,,,,,,,hunger,113,88,aloud,new,null,784.2900316,None,784.2900316,None,1,1.9799581,784.2900316,None,1.9799581,786.2991372,None,786.8092611,None,786.8092611,None,n,0.4845219,786.8092611,None,0.4845219,,,Sep02Aloud5,41,2022_Sep_02_1439,ProdSingRedoBetween,2021.2.3,59.93877853
,,,,88,0,88,0,,,,,,,,,,,,,,,,,,,,,,789.4951065,None,,,,,,,,,,,,,,,,,captain,98,89,aloud,new,null,787.8184669,None,787.8184669,None,1,0.9072278,787.8184669,None,0.9072278,788.745646,None,789.2506757,None,789.2506757,None,n,0.2191664,789.2506757,None,0.2191664,,,Sep02Aloud5,41,2022_Sep_02_1439,ProdSingRedoBetween,2021.2.3,59.93877853
,,,,89,0,89,0,,,,,,,,,,,,,,,,,,,,,,794.9850847,None,,,,,,,,,,,,,,,,,finance,51,90,aloud,old,blue,790.0124803,None,790.0124803,None,5,3.1053772,790.0124803,None,3.1053772,793.1569026,None,793.6661904,None,793.6661904,None,f,1.2996607,793.6661904,None,1.2996607,,,Sep02Aloud5,41,2022_Sep_02_1439,ProdSingRedoBetween,2021.2.3,59.93877853
,,,,90,0,90,0,,,,,,,,,,,,,,,,,,,,,,799.1046804,None,,,,,,,,,,,,,,,,,author,179,91,aloud,new,null,795.4945314,None,795.4945314,None,1,2.6871623,795.4945314,None,2.6871623,798.2068994,None,798.7217192,None,798.7217192,None,n,0.3560068,798.7217192,None,0.3560068,,,Sep02Aloud5,41,2022_Sep_02_1439,ProdSingRedoBetween,2021.2.3,59.93877853
,,,,91,0,91,0,,,,,,,,,,,,,,,,,,,,,,802.5425203,None,,,,,,,,,,,,,,,,,little,8,92,aloud,old,yellow,799.6141792,None,799.6141792,None,6,2.3595516,799.6141792,None,2.3595516,801.9941208,None,802.5081629,None,802.5081629,None,r,0.0175758,802.5081629,None,0.0175758,,,Sep02Aloud5,41,2022_Sep_02_1439,ProdSingRedoBetween,2021.2.3,59.93877853
,,,,92,0,92,0,,,,,,,,,,,,,,,,,,,,,,804.8289925,None,,,,,,,,,,,,,,,,,business,93,93,aloud,new,null,803.0498317,None,803.0498317,None,1,0.9880189,803.0498317,None,0.9880189,804.0607704,None,804.5616729,None,804.5616729,None,n,0.2362084,804.5616729,None,0.2362084,,,Sep02Aloud5,41,2022_Sep_02_1439,ProdSingRedoBetween,2021.2.3,59.93877853
,,,,93,0,93,0,,,,,,,,,,,,,,,,,,,,,,807.6131648,None,,,,,,,,,,,,,,,,,dozen,62,94,aloud,old,red,805.3500826,None,805.3500826,None,6,1.4316325,805.3500826,None,1.4316325,806.8161531,None,807.3351893,None,807.3351893,None,r,0.2626856,807.3351893,None,0.2626856,,,Sep02Aloud5,41,2022_Sep_02_1439,ProdSingRedoBetween,2021.2.3,59.93877853
,,,,94,0,94,0,,,,,,,,,,,,,,,,,,,,,,809.6485248,None,,,,,,,,,,,,,,,,,career,22,95,aloud,old,yellow,808.1284935,None,808.1284935,None,6,0.8373123,808.1284935,None,0.8373123,808.9811525,None,809.4849217,None,809.4849217,None,r,0.1449202,809.4849217,None,0.1449202,,,Sep02Aloud5,41,2022_Sep_02_1439,ProdSingRedoBetween,2021.2.3,59.93877853
,,,,95,0,95,0,,,,,,,,,,,,,,,,,,,,,,812.0343366,None,,,,,,,,,,,,,,,,,force,31,96,aloud,old,blue,810.1491089,None,810.1491089,None,6,0.7686675,810.1491089,None,0.7686675,810.9345434,None,811.4364133,None,811.4364133,None,r,0.5774564,811.4364133,None,0.5774564,,,Sep02Aloud5,41,2022_Sep_02_1439,ProdSingRedoBetween,2021.2.3,59.93877853
,,,,96,0,96,0,,,,,,,,,,,,,,,,,,,,,,814.3865111,None,,,,,,,,,,,,,,,,,scale,101,97,aloud,new,null,812.5368245,None,812.5368245,None,6,1.0208872,812.5368245,None,1.0208872,813.5884446,None,814.1114901,None,814.1114901,None,r,0.2463693,814.1114901,None,0.2463693,,,Sep02Aloud5,41,2022_Sep_02_1439,ProdSingRedoBetween,2021.2.3,59.93877853
,,,,97,0,97,0,,,,,,,,,,,,,,,,,,,,,,816.5220599,None,,,,,,,,,,,,,,,,,enemy,122,98,aloud,new,null,814.8977875,None,814.8977875,None,1,0.9320181,814.8977875,None,0.9320181,815.8584069,None,816.3742759,None,816.3742759,None,n,0.1194833,816.3742759,None,0.1194833,,,Sep02Aloud5,41,2022_Sep_02_1439,ProdSingRedoBetween,2021.2.3,59.93877853
,,,,98,0,98,0,,,,,,,,,,,,,,,,,,,,,,820.5929172,None,,,,,,,,,,,,,,,,,travel,155,99,aloud,new,null,817.0254499,None,817.0254499,None,4,2.8123371,817.0254499,None,2.8123371,819.8587767,None,820.3623899,None,820.3623899,None,f,0.2033162,820.3623899,None,0.2033162,,,Sep02Aloud5,41,2022_Sep_02_1439,ProdSingRedoBetween,2021.2.3,59.93877853
,,,,99,0,99,0,,,,,,,,,,,,,,,,,,,,,,822.7115313,None,,,,,,,,,,,,,,,,,death,152,100,aloud,new,null,821.1008938,None,821.1008938,None,1,0.8729531,821.1008938,None,0.8729531,821.9974633,None,822.5127597,None,822.5127597,None,n,0.1810641,822.5127597,None,0.1810641,,,Sep02Aloud5,41,2022_Sep_02_1439,ProdSingRedoBetween,2021.2.3,59.93877853
,,,,100,0,100,0,,,,,,,,,,,,,,,,,,,,,,825.1806514,None,,,,,,,,,,,,,,,,,beauty,154,101,aloud,new,null,823.2231125,None,823.2231125,None,1,1.2305933,823.2231125,None,1.2305933,824.480023,None,824.9823498,None,824.9823498,None,n,0.1754085,824.9823498,None,0.1754085,,,Sep02Aloud5,41,2022_Sep_02_1439,ProdSingRedoBetween,2021.2.3,59.93877853
,,,,101,0,101,0,,,,,,,,,,,,,,,,,,,,,,828.4839348,None,,,,,,,,,,,,,,,,,sound,88,102,aloud,old,red,825.6892232,None,825.6892232,None,4,2.1805468,825.6892232,None,2.1805468,827.901017,None,828.4007808,None,828.4007808,None,f,0.0610243,828.4007808,None,0.0610243,,,Sep02Aloud5,41,2022_Sep_02_1439,ProdSingRedoBetween,2021.2.3,59.93877853
,,,,102,0,102,0,,,,,,,,,,,,,,,,,,,,,,831.7407518,None,,,,,,,,,,,,,,,,,finish,78,103,aloud,old,red,828.9935879,None,828.9935879,None,1,1.7082987,828.9935879,None,1.7082987,830.7234266,None,831.2390074,None,831.2390074,None,n,0.4708195,831.2390074,None,0.4708195,,,Sep02Aloud5,41,2022_Sep_02_1439,ProdSingRedoBetween,2021.2.3,59.93877853
,,,,103,0,103,0,,,,,,,,,,,,,,,,,,,,,,835.1406299,None,,,,,,,,,,,,,,,,,figure,57,104,aloud,old,blue,832.2604123,None,832.2604123,None,6,1.6334292,832.2604123,None,1.6334292,833.922787,None,834.4288838,None,834.4288838,None,r,0.6808846,834.4288838,None,0.6808846,,,Sep02Aloud5,41,2022_Sep_02_1439,ProdSingRedoBetween,2021.2.3,59.93877853
,,,,104,0,104,0,,,,,,,,,,,,,,,,,,,,,,837.4429877,None,,,,,,,,,,,,,,,,,pretty,26,105,aloud,old,yellow,835.6479843,None,835.6479843,None,1,1.0378163,835.6479843,None,1.0378163,836.7110916,None,837.2306236,None,837.2306236,None,n,0.1830632,837.2306236,None,0.1830632,,,Sep02Aloud5,41,2022_Sep_02_1439,ProdSingRedoBetween,2021.2.3,59.93877853
,,,,105,0,105,0,,,,,,,,,,,,,,,,,,,,,,839.8009433,None,,,,,,,,,,,,,,,,,express,16,106,aloud,old,yellow,837.9456317,None,837.9456317,None,6,1.3001612,837.9456317,None,1.3001612,839.26269,None,839.7666552,None,839.7666552,None,r,0.0151984,839.7666552,None,0.0151984,,,Sep02Aloud5,41,2022_Sep_02_1439,ProdSingRedoBetween,2021.2.3,59.93877853
,,,,106,0,106,0,,,,,,,,,,,,,,,,,,,,,,842.671854,None,,,,,,,,,,,,,,,,,crowd,12,107,aloud,old,yellow,840.3166726,None,840.3166726,None,4,1.761186,840.3166726,None,1.761186,842.1035784,None,842.6148759,None,842.6148759,None,f,0.0070198,842.6148759,None,0.0070198,,,Sep02Aloud5,41,2022_Sep_02_1439,ProdSingRedoBetween,2021.2.3,59.93877853
,,,,107,0,107,0,,,,,,,,,,,,,,,,,,,,,,846.5186646,None,,,,,,,,,,,,,,,,,stranger,40,108,aloud,old,blue,843.1968908,None,843.1968908,None,1,1.1369968,843.1968908,None,1.1369968,844.3587662,None,844.8700568,None,844.8700568,None,n,1.6236964,844.8700568,None,1.6236964,,,Sep02Aloud5,41,2022_Sep_02_1439,ProdSingRedoBetween,2021.2.3,59.93877853
,,,,108,0,108,0,,,,,,,,,,,,,,,,,,,,,,849.3881874,None,,,,,,,,,,,,,,,,,height,37,109,aloud,old,blue,847.0253177,None,847.0253177,None,6,1.6524262,847.0253177,None,1.6524262,848.706005,None,849.2218291,None,849.2218291,None,r,0.1438324,849.2218291,None,0.1438324,,,Sep02Aloud5,41,2022_Sep_02_1439,ProdSingRedoBetween,2021.2.3,59.93877853
,,,,109,0,109,0,,,,,,,,,,,,,,,,,,,,,,851.6403989,None,,,,,,,,,,,,,,,,,council,145,110,aloud,new,null,849.8889342,None,849.8889342,None,1,0.9487906,849.8889342,None,0.9487906,850.8579973,None,851.3593301,None,851.3593301,None,n,0.2543771,851.3593301,None,0.2543771,,,Sep02Aloud5,41,2022_Sep_02_1439,ProdSingRedoBetween,2021.2.3,59.93877853
,,,,110,0,110,0,,,,,,,,,,,,,,,,,,,,,,854.9605206,None,,,,,,,,,,,,,,,,,emergency,58,111,aloud,old,blue,852.1438116,None,852.1438116,None,2,1.6138467,852.1438116,None,1.6138467,853.7770623,None,854.280958,None,854.280958,None,n,0.6527573,854.280958,None,0.6527573,,,Sep02Aloud5,41,2022_Sep_02_1439,ProdSingRedoBetween,2021.2.3,59.93877853
,,,,111,0,111,0,,,,,,,,,,,,,,,,,,,,,,857.6132199,None,,,,,,,,,,,,,,,,,provision,55,112,aloud,old,blue,855.4730479,None,855.4730479,None,1,1.4127648,855.4730479,None,1.4127648,856.9196726,None,857.4336385,None,857.4336385,None,n,0.1562684,857.4336385,None,0.1562684,,,Sep02Aloud5,41,2022_Sep_02_1439,ProdSingRedoBetween,2021.2.3,59.93877853
,,,,112,0,112,0,,,,,,,,,,,,,,,,,,,,,,860.3157782,None,,,,,,,,,,,,,,,,,period,13,113,aloud,old,yellow,858.1192347,None,858.1192347,None,6,1.3105467,858.1192347,None,1.3105467,859.4522671,None,859.968714,None,859.968714,None,r,0.3170524,859.968714,None,0.3170524,,,Sep02Aloud5,41,2022_Sep_02_1439,ProdSingRedoBetween,2021.2.3,59.93877853
,,,,113,0,113,0,,,,,,,,,,,,,,,,,,,,,,862.3176965,None,,,,,,,,,,,,,,,,,state,30,114,aloud,old,blue,860.8277133,None,860.8277133,None,6,0.7460019,860.8277133,None,0.7460019,861.6013435,None,862.1011279,None,862.1011279,None,r,0.1925427,862.1011279,None,0.1925427,,,Sep02Aloud5,41,2022_Sep_02_1439,ProdSingRedoBetween,2021.2.3,59.93877853
,,,,114,0,114,0,,,,,,,,,,,,,,,,,,,,,,864.2376591,None,,,,,,,,,,,,,,,,,taste,25,115,aloud,old,yellow,862.8274328,None,862.8274328,None,6,0.7943388,862.8274328,None,0.7943388,863.6536845,None,864.1555505,None,864.1555505,None,r,0.0503103,864.1555505,None,0.0503103,,,Sep02Aloud5,41,2022_Sep_02_1439,ProdSingRedoBetween,2021.2.3,59.93877853
,,,,115,0,115,0,,,,,,,,,,,,,,,,,,,,,,866.271603,None,,,,,,,,,,,,,,,,,nation,71,116,aloud,old,red,864.7462001,None,864.7462001,None,6,0.7075637,864.7462001,None,0.7075637,865.4755586,None,865.9880555,None,865.9880555,None,r,0.2576086,865.9880555,None,0.2576086,,,Sep02Aloud5,41,2022_Sep_02_1439,ProdSingRedoBetween,2021.2.3,59.93877853
,,,,116,0,116,0,,,,,,,,,,,,,,,,,,,,,,868.3905619,None,,,,,,,,,,,,,,,,,smell,102,117,aloud,new,null,866.7745386,None,866.7745386,None,1,0.8952694,866.7745386,None,0.8952694,867.6911495,None,868.1959392,None,868.1959392,None,n,0.1698359,868.1959392,None,0.1698359,,,Sep02Aloud5,41,2022_Sep_02_1439,ProdSingRedoBetween,2021.2.3,59.93877853
,,,,117,0,117,0,,,,,,,,,,,,,,,,,,,,,,870.4591499,None,,,,,,,,,,,,,,,,,principal,5,118,aloud,old,yellow,868.9039574,None,868.9039574,None,1,0.7818834,868.9039574,None,0.7818834,869.7097135,None,870.2091307,None,870.2091307,None,n,0.2285967,870.2091307,None,0.2285967,,,Sep02Aloud5,41,2022_Sep_02_1439,ProdSingRedoBetween,2021.2.3,59.93877853
,,,,118,0,118,0,,,,,,,,,,,,,,,,,,,,,,874.8303297,None,,,,,,,,,,,,,,,,,trail,108,119,aloud,new,null,870.963628,None,870.963628,None,2,3.27412,870.963628,None,3.27412,874.2630281,None,874.76737,None,874.76737,None,n,0.0464339,874.76737,None,0.0464339,,,Sep02Aloud5,41,2022_Sep_02_1439,ProdSingRedoBetween,2021.2.3,59.93877853
,,,,119,0,119,0,,,,,,,,,,,,,,,,,,,,,,877.6165185,None,,,,,,,,,,,,,,,,,fight,103,120,aloud,new,null,875.3367129,None,875.3367129,None,6,1.7009834,875.3367129,None,1.7009834,877.0715699,None,877.583043,None,877.583043,None,r,0.0146923,877.583043,None,0.0146923,,,Sep02Aloud5,41,2022_Sep_02_1439,ProdSingRedoBetween,2021.2.3,59.93877853
,,,,120,0,120,0,,,,,,,,,,,,,,,,,,,,,,879.835335,None,,,,,,,,,,,,,,,,,title,0,121,aloud,old,yellow,878.1293283,None,878.1293283,None,6,1.0525267,878.1293283,None,1.0525267,879.2059014,None,879.7196396,None,879.7196396,None,r,0.086057,879.7196396,None,0.086057,,,Sep02Aloud5,41,2022_Sep_02_1439,ProdSingRedoBetween,2021.2.3,59.93877853
,,,,121,0,121,0,,,,,,,,,,,,,,,,,,,,,,882.03763,None,,,,,,,,,,,,,,,,,goose,111,122,aloud,new,null,880.3401817,None,880.3401817,None,1,0.8176434,880.3401817,None,0.8176434,881.1899247,None,881.7038469,None,881.7038469,None,n,0.3180317,881.7038469,None,0.3180317,,,Sep02Aloud5,41,2022_Sep_02_1439,ProdSingRedoBetween,2021.2.3,59.93877853
,,,,122,0,122,0,,,,,,,,,,,,,,,,,,,,,,884.6608638,None,,,,,,,,,,,,,,,,,motion,47,123,aloud,old,blue,882.5406387,None,882.5406387,None,6,1.3451984,882.5406387,None,1.3451984,883.9083536,None,884.4232515,None,884.4232515,None,r,0.2148877,884.4232515,None,0.2148877,,,Sep02Aloud5,41,2022_Sep_02_1439,ProdSingRedoBetween,2021.2.3,59.93877853
,,,,123,0,123,0,,,,,,,,,,,,,,,,,,,,,,886.7755971,None,,,,,,,,,,,,,,,,,shape,165,124,aloud,new,null,885.1809349,None,885.1809349,None,1,0.9370349,885.1809349,None,0.9370349,886.1503556,None,886.6589351,None,886.6589351,None,n,0.0988399,886.6589351,None,0.0988399,,,Sep02Aloud5,41,2022_Sep_02_1439,ProdSingRedoBetween,2021.2.3,59.93877853
,,,,124,0,124,0,,,,,,,,,,,,,,,,,,,,,,889.6618941,None,,,,,,,,,,,,,,,,,guide,119,125,aloud,new,null,887.2761973,None,887.2761973,None,5,1.7214945,887.2761973,None,1.7214945,889.0322839,None,889.5553751,None,889.5553751,None,f,0.0822709,889.5553751,None,0.0822709,,,Sep02Aloud5,41,2022_Sep_02_1439,ProdSingRedoBetween,2021.2.3,59.93877853
,,,,125,0,125,0,,,,,,,,,,,,,,,,,,,,,,891.780473,None,,,,,,,,,,,,,,,,,owner,77,126,aloud,old,red,890.1774823,None,890.1774823,None,1,0.8522606,890.1774823,None,0.8522606,891.0524914,None,891.5655233,None,891.5655233,None,n,0.1922102,891.5655233,None,0.1922102,,,Sep02Aloud5,41,2022_Sep_02_1439,ProdSingRedoBetween,2021.2.3,59.93877853
,,,,126,0,126,0,,,,,,,,,,,,,,,,,,,,,,894.0326741,None,,,,,,,,,,,,,,,,,solution,68,127,aloud,old,red,892.2853956,None,892.2853956,None,1,1.1043643,892.2853956,None,1.1043643,893.4167234,None,893.9162137,None,893.9162137,None,n,0.0975851,893.9162137,None,0.0975851,,,Sep02Aloud5,41,2022_Sep_02_1439,ProdSingRedoBetween,2021.2.3,59.93877853
,,,,127,0,127,0,,,,,,,,,,,,,,,,,,,,,,898.4706623,None,,,,,,,,,,,,,,,,,accident,35,128,aloud,old,blue,894.5404862,None,894.5404862,None,6,2.6652695,894.5404862,None,2.6652695,897.2361281,None,897.7393765,None,897.7393765,None,r,0.714334,897.7393765,None,0.714334,,,Sep02Aloud5,41,2022_Sep_02_1439,ProdSingRedoBetween,2021.2.3,59.93877853
,,,,128,0,128,0,,,,,,,,,,,,,,,,,,,,,,901.9573302,None,,,,,,,,,,,,,,,,,power,52,129,aloud,old,blue,898.9769875,None,898.9769875,None,6,1.8208187,898.9769875,None,1.8208187,900.8292527,None,901.3476989,None,901.3476989,None,r,0.5861213,901.3476989,None,0.5861213,,,Sep02Aloud5,41,2022_Sep_02_1439,ProdSingRedoBetween,2021.2.3,59.93877853
,,,,129,0,129,0,,,,,,,,,,,,,,,,,,,,,,904.3096803,None,,,,,,,,,,,,,,,,,search,142,130,aloud,new,null,902.4612273,None,902.4612273,None,1,1.2166756,902.4612273,None,1.2166756,903.7145849,None,904.2263463,None,904.2263463,None,n,0.0594138,904.2263463,None,0.0594138,,,Sep02Aloud5,41,2022_Sep_02_1439,ProdSingRedoBetween,2021.2.3,59.93877853
,,,,130,0,130,0,,,,,,,,,,,,,,,,,,,,,,906.6953519,None,,,,,,,,,,,,,,,,,report,33,131,aloud,old,blue,904.8174687,None,904.8174687,None,6,1.2602152,904.8174687,None,1.2602152,906.0960654,None,906.5999716,None,906.5999716,None,r,0.0777947,906.5999716,None,0.0777947,,,Sep02Aloud5,41,2022_Sep_02_1439,ProdSingRedoBetween,2021.2.3,59.93877853
,,,,131,0,131,0,,,,,,,,,,,,,,,,,,,,,,908.9311209,None,,,,,,,,,,,,,,,,,route,129,132,aloud,new,null,907.1974412,None,907.1974412,None,1,0.9923001,907.1974412,None,0.9923001,908.2146194,None,908.7165913,None,908.7165913,None,n,0.1932302,908.7165913,None,0.1932302,,,Sep02Aloud5,41,2022_Sep_02_1439,ProdSingRedoBetween,2021.2.3,59.93877853
,,,,132,0,132,0,,,,,,,,,,,,,,,,,,,,,,912.0677652,None,,,,,,,,,,,,,,,,,edition,48,133,aloud,old,blue,909.4329425,None,909.4329425,None,6,1.8049337,909.4329425,None,1.8049337,911.2673634,None,911.767701,None,911.767701,None,r,0.2699621,911.767701,None,0.2699621,,,Sep02Aloud5,41,2022_Sep_02_1439,ProdSingRedoBetween,2021.2.3,59.93877853
,,,,133,0,133,0,,,,,,,,,,,,,,,,,,,,,,914.9035569,None,,,,,,,,,,,,,,,,,ground,63,134,aloud,old,red,912.5751609,None,912.5751609,None,1,1.3186253,912.5751609,None,1.3186253,913.9215803,None,914.4387516,None,914.4387516,None,n,0.4469815,914.4387516,None,0.4469815,,,Sep02Aloud5,41,2022_Sep_02_1439,ProdSingRedoBetween,2021.2.3,59.93877853
,,,,134,0,134,0,,,,,,,,,,,,,,,,,,,,,,917.7230347,None,,,,,,,,,,,,,,,,,style,159,135,aloud,new,null,915.4133741,None,915.4133741,None,1,1.6806218,915.4133741,None,1.6806218,917.13096,None,917.6398338,None,917.6398338,None,n,0.06206,917.6398338,None,0.06206,,,Sep02Aloud5,41,2022_Sep_02_1439,ProdSingRedoBetween,2021.2.3,59.93877853
,,,,135,0,135,0,,,,,,,,,,,,,,,,,,,,,,920.025368,None,,,,,,,,,,,,,,,,,leader,75,136,aloud,old,red,918.2247658,None,918.2247658,None,6,1.2290692,918.2247658,None,1.2290692,919.4804695,None,919.9947871,None,919.9947871,None,r,0.010853,919.9947871,None,0.010853,,,Sep02Aloud5,41,2022_Sep_02_1439,ProdSingRedoBetween,2021.2.3,59.93877853
,,,,136,0,136,0,,,,,,,,,,,,,,,,,,,,,,923.5457506,None,,,,,,,,,,,,,,,,,question,115,137,aloud,new,null,920.5340232,None,920.5340232,None,3,2.4317292,920.5340232,None,2.4317292,922.9974175,None,923.5123615,None,923.5123615,None,f,0.013377,923.5123615,None,0.013377,,,Sep02Aloud5,41,2022_Sep_02_1439,ProdSingRedoBetween,2021.2.3,59.93877853
,,,,137,0,137,0,,,,,,,,,,,,,,,,,,,,,,925.8646451,None,,,,,,,,,,,,,,,,,country,168,138,aloud,new,null,924.0562035,None,924.0562035,None,1,1.1814884,924.0562035,None,1.1814884,925.2655762,None,925.7686853,None,925.7686853,None,n,0.0772238,925.7686853,None,0.0772238,,,Sep02Aloud5,41,2022_Sep_02_1439,ProdSingRedoBetween,2021.2.3,59.93877853
,,,,138,0,138,0,,,,,,,,,,,,,,,,,,,,,,928.9010099,None,,,,,,,,,,,,,,,,,thing,4,139,aloud,old,yellow,926.3677822,None,926.3677822,None,6,1.7980051,926.3677822,None,1.7980051,928.1915903,None,928.7009127,None,928.7009127,None,r,0.1768937,928.7009127,None,0.1768937,,,Sep02Aloud5,41,2022_Sep_02_1439,ProdSingRedoBetween,2021.2.3,59.93877853
,,,,139,0,139,0,,,,,,,,,,,,,,,,,,,,,,931.5222948,None,,,,,,,,,,,,,,,,,minor,172,140,aloud,new,null,929.4058729,None,929.4058729,None,1,0.9919943,929.4058729,None,0.9919943,930.4287916,None,930.9366627,None,930.9366627,None,n,0.5571487,930.9366627,None,0.5571487,,,Sep02Aloud5,41,2022_Sep_02_1439,ProdSingRedoBetween,2021.2.3,59.93877853
,,,,140,0,140,0,,,,,,,,,,,,,,,,,,,,,,934.5566062,None,,,,,,,,,,,,,,,,,display,59,141,aloud,old,yellow,932.044824,None,932.044824,None,6,1.8412053,932.044824,None,1.8412053,933.9228611,None,934.4274465,None,934.4274465,None,r,0.1064166,934.4274465,None,0.1064166,,,Sep02Aloud5,41,2022_Sep_02_1439,ProdSingRedoBetween,2021.2.3,59.93877853
,,,,141,0,141,0,,,,,,,,,,,,,,,,,,,,,,936.8755528,None,,,,,,,,,,,,,,,,,meeting,161,142,aloud,new,null,935.0659067,None,935.0659067,None,1,1.0279058,935.0659067,None,1.0279058,936.1248295,None,936.6254758,None,936.6254758,None,n,0.2203247,936.6254758,None,0.2203247,,,Sep02Aloud5,41,2022_Sep_02_1439,ProdSingRedoBetween,2021.2.3,59.93877853
,,,,142,0,142,0,,,,,,,,,,,,,,,,,,,,,,939.7784087,None,,,,,,,,,,,,,,,,,bitter,134,143,aloud,new,null,937.377937,None,937.377937,None,1,1.5798499,937.377937,None,1.5798499,938.9810528,None,939.495555,None,939.495555,None,n,0.2542196,939.495555,None,0.2542196,,,Sep02Aloud5,41,2022_Sep_02_1439,ProdSingRedoBetween,2021.2.3,59.93877853
,,,,143,0,143,0,,,,,,,,,,,,,,,,,,,,,,944.8026198,None,,,,,,,,,,,,,,,,,mankind,42,144,aloud,old,blue,940.2925064,None,940.2925064,None,1,0.6091843,940.2925064,None,0.6091843,940.9305103,None,941.4336383,None,941.4336383,None,r,3.3481608,941.4336383,None,3.3481608,,,Sep02Aloud5,41,2022_Sep_02_1439,ProdSingRedoBetween,2021.2.3,59.93877853
,,,,144,0,144,0,,,,,,,,,,,,,,,,,,,,,,947.1204418,None,,,,,,,,,,,,,,,,,cousin,99,145,aloud,new,null,945.3225247,None,945.3225247,None,1,1.0832023,945.3225247,None,1.0832023,946.435981,None,946.9402601,None,946.9402601,None,n,0.1614716,946.9402601,None,0.1614716,,,Sep02Aloud5,41,2022_Sep_02_1439,ProdSingRedoBetween,2021.2.3,59.93877853
,,,,145,0,145,0,,,,,,,,,,,,,,,,,,,,,,950.9562446,None,,,,,,,,,,,,,,,,,relation,49,146,aloud,old,blue,947.6285303,None,947.6285303,None,6,1.4572732,947.6285303,None,1.4572732,949.10518,None,949.6213412,None,949.6213412,None,r,1.3043891,949.6213412,None,1.3043891,,,Sep02Aloud5,41,2022_Sep_02_1439,ProdSingRedoBetween,2021.2.3,59.93877853
,,,,146,0,146,0,,,,,,,,,,,,,,,,,,,,,,953.0917586,None,,,,,,,,,,,,,,,,,material,148,147,aloud,new,null,951.4721948,None,951.4721948,None,1,0.8934864,951.4721948,None,0.8934864,952.3912865,None,952.8972034,None,952.8972034,None,n,0.1646019,952.8972034,None,0.1646019,,,Sep02Aloud5,41,2022_Sep_02_1439,ProdSingRedoBetween,2021.2.3,59.93877853
,,,,147,0,147,0,,,,,,,,,,,,,,,,,,,,,,956.0187086,None,,,,,,,,,,,,,,,,,appeal,131,148,aloud,new,null,953.5984873,None,953.5984873,None,6,1.6633941,953.5984873,None,1.6633941,955.2870877,None,955.7971697,None,955.7971697,None,r,0.1684802,955.7971697,None,0.1684802,,,Sep02Aloud5,41,2022_Sep_02_1439,ProdSingRedoBetween,2021.2.3,59.93877853
,,,,148,0,148,0,,,,,,,,,,,,,,,,,,,,,,958.2136412,None,,,,,,,,,,,,,,,,,curve,91,149,aloud,new,null,956.5286849,None,956.5286849,None,1,0.7813127,956.5286849,None,0.7813127,957.3440874,None,957.8465952,None,957.8465952,None,n,0.3511202,957.8465952,None,0.3511202,,,Sep02Aloud5,41,2022_Sep_02_1439,ProdSingRedoBetween,2021.2.3,59.93877853
,,,,149,0,149,0,,,,,,,,,,,,,,,,,,,,,,960.465974,None,,,,,,,,,,,,,,,,,contract,173,150,aloud,new,null,958.7212961,None,958.7212961,None,1,1.004523,958.7212961,None,1.004523,959.7485951,None,960.2526314,None,960.2526314,None,n,0.1850537,960.2526314,None,0.1850537,,,Sep02Aloud5,41,2022_Sep_02_1439,ProdSingRedoBetween,2021.2.3,59.93877853
,,,,150,0,150,0,,,,,,,,,,,,,,,,,,,,,,962.4510944,None,,,,,,,,,,,,,,,,,permit,132,151,aloud,new,null,960.975642,None,960.975642,None,1,0.8223308,960.975642,None,0.8223308,961.8261983,None,962.3345243,None,962.3345243,None,n,0.0872532,962.3345243,None,0.0872532,,,Sep02Aloud5,41,2022_Sep_02_1439,ProdSingRedoBetween,2021.2.3,59.93877853
,,,,151,0,151,0,,,,,,,,,,,,,,,,,,,,,,965.4207651,None,,,,,,,,,,,,,,,,,century,61,152,aloud,old,red,962.9700339,None,962.9700339,None,6,1.8117484,962.9700339,None,1.8117484,964.809395,None,965.3207878,None,965.3207878,None,r,0.0769783,965.3207878,None,0.0769783,,,Sep02Aloud5,41,2022_Sep_02_1439,ProdSingRedoBetween,2021.2.3,59.93877853
,,,,152,0,152,0,,,,,,,,,,,,,,,,,,,,,,967.7731295,None,,,,,,,,,,,,,,,,,primary,46,153,aloud,old,blue,965.9338315,None,965.9338315,None,1,1.2158816,965.9338315,None,1.2158816,967.1736578,None,967.6852478,None,967.6852478,None,n,0.0565772,967.6852478,None,0.0565772,,,Sep02Aloud5,41,2022_Sep_02_1439,ProdSingRedoBetween,2021.2.3,59.93877853
,,,,153,0,153,0,,,,,,,,,,,,,,,,,,,,,,969.7751681,None,,,,,,,,,,,,,,,,,track,162,154,aloud,new,null,968.2906996,None,968.2906996,None,1,0.81906,968.2906996,None,0.81906,969.1292233,None,969.641734,None,969.641734,None,n,0.108024,969.641734,None,0.108024,,,Sep02Aloud5,41,2022_Sep_02_1439,ProdSingRedoBetween,2021.2.3,59.93877853
,,,,154,0,154,0,,,,,,,,,,,,,,,,,,,,,,971.8438681,None,,,,,,,,,,,,,,,,,school,127,155,aloud,new,null,970.2887336,None,970.2887336,None,1,0.8930523,970.2887336,None,0.8930523,971.2142264,None,971.7338854,None,971.7338854,None,n,0.0798434,971.7338854,None,0.0798434,,,Sep02Aloud5,41,2022_Sep_02_1439,ProdSingRedoBetween,2021.2.3,59.93877853
,,,,155,0,155,0,,,,,,,,,,,,,,,,,,,,,,974.5299838,None,,,,,,,,,,,,,,,,,subject,66,156,aloud,old,red,972.3572915,None,972.3572915,None,6,1.4965551,972.3572915,None,1.4965551,973.8808033,None,974.3922969,None,974.3922969,None,r,0.1094131,974.3922969,None,0.1094131,,,Sep02Aloud5,41,2022_Sep_02_1439,ProdSingRedoBetween,2021.2.3,59.93877853
,,,,156,0,156,0,,,,,,,,,,,,,,,,,,,,,,976.4818542,None,,,,,,,,,,,,,,,,,whole,54,157,aloud,old,blue,975.0460718,None,975.0460718,None,6,0.6796903,975.0460718,None,0.6796903,975.7543796,None,976.2694315,None,976.2694315,None,r,0.184159,976.2694315,None,0.184159,,,Sep02Aloud5,41,2022_Sep_02_1439,ProdSingRedoBetween,2021.2.3,59.93877853
,,,,157,0,157,0,,,,,,,,,,,,,,,,,,,,,,978.6842486,None,,,,,,,,,,,,,,,,,quarter,178,158,aloud,new,null,976.9823735,None,976.9823735,None,1,1.0155288,976.9823735,None,1.0155288,978.0180775,None,978.5217134,None,978.5217134,None,n,0.1320627,978.5217134,None,0.1320627,,,Sep02Aloud5,41,2022_Sep_02_1439,ProdSingRedoBetween,2021.2.3,59.93877853
,,,,158,0,158,0,,,,,,,,,,,,,,,,,,,,,,980.8050936,None,,,,,,,,,,,,,,,,,graduate,95,159,aloud,new,null,979.1907638,None,979.1907638,None,1,0.8711249,979.1907638,None,0.8711249,980.0957817,None,980.6027115,None,980.6027115,None,n,0.1712405,980.6027115,None,0.1712405,,,Sep02Aloud5,41,2022_Sep_02_1439,ProdSingRedoBetween,2021.2.3,59.93877853
,,,,159,0,159,0,,,,,,,,,,,,,,,,,,,,,,983.9725836,None,,,,,,,,,,,,,,,,,store,38,160,aloud,old,blue,981.3200274,None,981.3200274,None,6,2.0298393,981.3200274,None,2.0298393,983.3726067,None,983.8769223,None,983.8769223,None,r,0.0648968,983.8769223,None,0.0648968,,,Sep02Aloud5,41,2022_Sep_02_1439,ProdSingRedoBetween,2021.2.3,59.93877853
,,,,160,0,160,0,,,,,,,,,,,,,,,,,,,,,,986.3250904,None,,,,,,,,,,,,,,,,,design,177,161,aloud,new,null,984.4761227,None,984.4761227,None,1,1.2417431,984.4761227,None,1.2417431,985.7460421,None,986.2581951,None,986.2581951,None,n,0.0354246,986.2581951,None,0.0354246,,,Sep02Aloud5,41,2022_Sep_02_1439,ProdSingRedoBetween,2021.2.3,59.93877853
,,,,161,0,161,0,,,,,,,,,,,,,,,,,,,,,,988.527226,None,,,,,,,,,,,,,,,,,vision,96,162,aloud,new,null,986.8279798,None,986.8279798,None,1,1.033863,986.8279798,None,1.033863,987.8937813,None,988.399893,None,988.399893,None,n,0.1097743,988.399893,None,0.1097743,,,Sep02Aloud5,41,2022_Sep_02_1439,ProdSingRedoBetween,2021.2.3,59.93877853
,,,,162,0,162,0,,,,,,,,,,,,,,,,,,,,,,990.881871,None,,,,,,,,,,,,,,,,,marriage,80,163,aloud,old,red,989.0422846,None,989.0422846,None,6,1.2194584,989.0422846,None,1.2194584,990.284999,None,990.7961481,None,990.7961481,None,r,0.0576749,990.7961481,None,0.0576749,,,Sep02Aloud5,41,2022_Sep_02_1439,ProdSingRedoBetween,2021.2.3,59.93877853
,,,,163,0,163,0,,,,,,,,,,,,,,,,,,,,,,992.7648929,None,,,,,,,,,,,,,,,,,public,114,164,aloud,new,null,991.3976974,None,991.3976974,None,6,0.7281137,991.3976974,None,0.7281137,992.1594131,None,992.664962,None,992.664962,None,r,0.0847935,992.664962,None,0.0847935,,,Sep02Aloud5,41,2022_Sep_02_1439,ProdSingRedoBetween,2021.2.3,59.93877853
,,,,164,0,164,0,,,,,,,,,,,,,,,,,,,,,,994.5999403,None,,,,,,,,,,,,,,,,,message,56,165,aloud,old,blue,993.2699994,None,993.2699994,None,6,0.7117188,993.2699994,None,0.7117188,994.0005237,None,994.5046283,None,994.5046283,None,r,0.0691105,994.5046283,None,0.0691105,,,Sep02Aloud5,41,2022_Sep_02_1439,ProdSingRedoBetween,2021.2.3,59.93877853
,,,,165,0,165,0,,,,,,,,,,,,,,,,,,,,,,997.0690547,None,,,,,,,,,,,,,,,,,swift,65,166,aloud,old,red,995.1084051,None,995.1084051,None,6,1.2333046,995.1084051,None,1.2333046,996.3715593,None,996.8856735,None,996.8856735,None,r,0.1680487,996.8856735,None,0.1680487,,,Sep02Aloud5,41,2022_Sep_02_1439,ProdSingRedoBetween,2021.2.3,59.93877853
,,,,166,0,166,0,,,,,,,,,,,,,,,,,,,,,,999.8720028,None,,,,,,,,,,,,,,,,,straight,166,167,aloud,new,null,997.572693,None,997.572693,None,1,1.68898,997.572693,None,1.68898,999.2891942,None,999.7903212,None,999.7903212,None,n,0.0633374,999.7903212,None,0.0633374,,,Sep02Aloud5,41,2022_Sep_02_1439,ProdSingRedoBetween,2021.2.3,59.93877853
,,,,167,0,167,0,,,,,,,,,,,,,,,,,,,,,,1002.291051,None,,,,,,,,,,,,,,,,,novel,19,168,aloud,old,yellow,1000.37949,None,1000.37949,None,1,1.1865618,1000.37949,None,1.1865618,1001.602073,None,1002.1121,None,1002.1121,None,n,0.1575314,1002.1121,None,0.1575314,,,Sep02Aloud5,41,2022_Sep_02_1439,ProdSingRedoBetween,2021.2.3,59.93877853
,,,,168,0,168,0,,,,,,,,,,,,,,,,,,,,,,1004.412178,None,,,,,,,,,,,,,,,,,clean,138,169,aloud,new,null,1002.794555,None,1002.794555,None,1,0.8592729,1002.794555,None,0.8592729,1003.681297,None,1004.19295,None,1004.19295,None,n,0.1888804,1004.19295,None,0.1888804,,,Sep02Aloud5,41,2022_Sep_02_1439,ProdSingRedoBetween,2021.2.3,59.93877853
,,,,169,0,169,0,,,,,,,,,,,,,,,,,,,,,,1007.262519,None,,,,,,,,,,,,,,,,,community,121,170,aloud,new,null,1004.931405,None,1004.931405,None,6,1.2103234,1004.931405,None,1.2103234,1006.167417,None,1006.682169,None,1006.682169,None,r,0.5635698,1006.682169,None,0.5635698,,,Sep02Aloud5,41,2022_Sep_02_1439,ProdSingRedoBetween,2021.2.3,59.93877853
,,,,170,0,170,0,,,,,,,,,,,,,,,,,,,,,,1009.331234,None,,,,,,,,,,,,,,,,,appearance,84,171,aloud,old,red,1007.76477,None,1007.76477,None,6,0.7128168,1007.76477,None,0.7128168,1008.502849,None,1009.014471,None,1009.014471,None,r,0.2952755,1009.014471,None,0.2952755,,,Sep02Aloud5,41,2022_Sep_02_1439,ProdSingRedoBetween,2021.2.3,59.93877853
,,,,171,0,171,0,,,,,,,,,,,,,,,,,,,,,,1011.483423,None,,,,,,,,,,,,,,,,,place,106,172,aloud,new,null,1009.843208,None,1009.843208,None,1,0.9865419,1009.843208,None,0.9865419,1010.854495,None,1011.366758,None,1011.366758,None,n,0.094967,1011.366758,None,0.094967,,,Sep02Aloud5,41,2022_Sep_02_1439,ProdSingRedoBetween,2021.2.3,59.93877853
,,,,172,0,172,0,,,,,,,,,,,,,,,,,,,,,,1013.907111,None,,,,,,,,,,,,,,,,,engineer,17,173,aloud,old,yellow,1011.990419,None,1011.990419,None,6,1.2632946,1011.990419,None,1.2632946,1013.269622,None,1013.773678,None,1013.773678,None,r,0.1042146,1013.773678,None,0.1042146,,,Sep02Aloud5,41,2022_Sep_02_1439,ProdSingRedoBetween,2021.2.3,59.93877853
,,,,173,0,173,0,,,,,,,,,,,,,,,,,,,,,,1015.821122,None,,,,,,,,,,,,,,,,,pressure,11,174,aloud,old,yellow,1014.420816,None,1014.420816,None,6,0.6249063,1014.420816,None,0.6249063,1015.070336,None,1015.574676,None,1015.574676,None,r,0.231185,1015.574676,None,0.231185,,,Sep02Aloud5,41,2022_Sep_02_1439,ProdSingRedoBetween,2021.2.3,59.93877853
,,,,174,0,174,0,,,,,,,,,,,,,,,,,,,,,,1017.756408,None,,,,,,,,,,,,,,,,,balance,125,175,aloud,new,null,1016.321712,None,1016.321712,None,6,0.8360034,1016.321712,None,0.8360034,1017.173395,None,1017.673011,None,1017.673011,None,r,0.0607307,1017.673011,None,0.0607307,,,Sep02Aloud5,41,2022_Sep_02_1439,ProdSingRedoBetween,2021.2.3,59.93877853
,,,,175,0,175,0,,,,,,,,,,,,,,,,,,,,,,1020.008634,None,,,,,,,,,,,,,,,,,drove,36,176,aloud,old,blue,1018.258503,None,1018.258503,None,6,0.9553008,1018.258503,None,0.9553008,1019.247967,None,1019.758462,None,1019.758462,None,r,0.2312847,1019.758462,None,0.2312847,,,Sep02Aloud5,41,2022_Sep_02_1439,ProdSingRedoBetween,2021.2.3,59.93877853
,,,,176,0,176,0,,,,,,,,,,,,,,,,,,,,,,1021.943797,None,,,,,,,,,,,,,,,,,discovery,2,177,aloud,old,yellow,1020.51969,None,1020.51969,None,6,0.7742309,1020.51969,None,0.7742309,1021.310148,None,1021.823698,None,1021.823698,None,r,0.1020284,1021.823698,None,0.1020284,,,Sep02Aloud5,41,2022_Sep_02_1439,ProdSingRedoBetween,2021.2.3,59.93877853
,,,,177,0,177,0,,,,,,,,,,,,,,,,,,,,,,1024.196124,None,,,,,,,,,,,,,,,,,patient,133,178,aloud,new,null,1022.45409,None,1022.45409,None,1,0.8478458,1022.45409,None,0.8478458,1023.3288,None,1023.838557,None,1023.838557,None,n,0.3271376,1023.838557,None,0.3271376,,,Sep02Aloud5,41,2022_Sep_02_1439,ProdSingRedoBetween,2021.2.3,59.93877853
,,,,178,0,178,0,,,,,,,,,,,,,,,,,,,,,,1026.665174,None,,,,,,,,,,,,,,,,,count,150,179,aloud,new,null,1024.701634,None,1024.701634,None,6,1.3760754,1024.701634,None,1.3760754,1026.097943,None,1026.601045,None,1026.601045,None,r,0.0366035,1026.601045,None,0.0366035,,,Sep02Aloud5,41,2022_Sep_02_1439,ProdSingRedoBetween,2021.2.3,59.93877853
,,,,179,0,179,0,,,,,,,,,,,,,,,,,,,,,,1028.633767,None,,,,,,,,,,,,,,,,,salary,170,180,aloud,new,null,1027.172297,None,1027.172297,None,1,0.801493,1027.172297,None,0.801493,1028.006919,None,1028.517449,None,1028.517449,None,n,0.0883268,1028.517449,None,0.0883268,,,Sep02Aloud5,41,2022_Sep_02_1439,ProdSingRedoBetween,2021.2.3,59.93877853
,,,,,,,,,,,,,,,,,,,,,,,,,,,,,,,,,,,,,,,,,,,,,,,,,,,,,,,,,,,,,,,,,,,,,,,,,1029.135477,None,,,,,,
