StudyLoop.thisRepN,StudyLoop.thisTrialN,StudyLoop.thisN,StudyLoop.thisIndex,TestLoop.thisRepN,TestLoop.thisTrialN,TestLoop.thisN,TestLoop.thisIndex,textCondition.started,textCondition.stopped,keyCondition.keys,keyCondition.rt,keyCondition.started,keyCondition.stopped,Condition,textWelcome.started,textWelcome.stopped,keyWelcome.keys,keyWelcome.rt,keyWelcome.started,keyWelcome.stopped,textAloud.started,textAloud.stopped,textSilent.started,textSilent.stopped,textSing.started,textSing.stopped,conditional_text.started,conditional_text.stopped,textBlank500.started,textBlank500.stopped,study_word,study_num,study_order,study_type,word_color,textStudy.started,textStudy.stopped,keyStudy.keys,keyStudy.started,keyStudy.stopped,textTestInstructions.started,textTestInstructions.stopped,key_resp_3.keys,key_resp_3.rt,key_resp_3.started,key_resp_3.stopped,test_word,test_num,test_order,test_condition,old_new_test,test_word_original_color,textConf.started,textConf.stopped,textConfScale.started,textConfScale.stopped,keyConf.keys,keyConf.rt,keyConf.started,keyConf.stopped,confidence response time,textTestBlank.started,textTestBlank.stopped,textRKN.started,textRKN.stopped,textRKNScale.started,textRKNScale.stopped,keyRKN.keys,keyRKN.rt,keyRKN.started,keyRKN.stopped,rkn response time,textEnd.started,textEnd.stopped,participant,session,date,expName,psychopyVersion,frameRate,
,,,,,,,,60.746560400002636,None,c,183.92068630002905,60.746560400002636,None,,,,,,,,,,,,,,,,,,,,,,,,,,,,,,,,,,,,,,,,,,,,,,,,,,,,,,,,,,,,,,42 sing,001,2022_Sep_15_1056,ProdSingRedoBetween,2021.2.3,59.94495852472344,
,,,,,,,,,,,,,,SingTest,244.74292340001557,None,space,3.043310399982147,244.74292340001557,None,,,,,,,,,,,,,,,,,,,,,,,,,,,,,,,,,,,,,,,,,,,,,,,,,,,,,,,42 sing,001,2022_Sep_15_1056,ProdSingRedoBetween,2021.2.3,59.94495852472344,
0,0,0,0,,,,,,,,,,,,,,,,,,244.74292340001557,None,244.74292340001557,None,244.74292340001557,None,244.74292340001557,None,250.30382949998602,None,throw,5,1,sing,yellow,248.30321260006167,None,None,248.30321260006167,None,,,,,,,,,,,,,,,,,,,,,,,,,,,,,,,,,,,42 sing,001,2022_Sep_15_1056,ProdSingRedoBetween,2021.2.3,59.94495852472344,
1,0,1,0,,,,,,,,,,,,,,,,,,,,,,,,,,252.82309309998527,None,hearing,11,2,sing,yellow,250.80823059997056,None,None,250.80823059997056,None,,,,,,,,,,,,,,,,,,,,,,,,,,,,,,,,,,,42 sing,001,2022_Sep_15_1056,ProdSingRedoBetween,2021.2.3,59.94495852472344,
2,0,2,0,,,,,,,,,,,,,,,,,,,,,,,,,,255.32828710007016,None,marriage,58,3,sing,blue,253.32547510007862,None,None,253.32547510007862,None,,,,,,,,,,,,,,,,,,,,,,,,,,,,,,,,,,,42 sing,001,2022_Sep_15_1056,ProdSingRedoBetween,2021.2.3,59.94495852472344,
3,0,3,0,,,,,,,,,,,,,,,,,,,,,,,,,,257.84499670006335,None,clean,0,4,sing,yellow,255.84296080004424,None,None,255.84296080004424,None,,,,,,,,,,,,,,,,,,,,,,,,,,,,,,,,,,,42 sing,001,2022_Sep_15_1056,ProdSingRedoBetween,2021.2.3,59.94495852472344,
4,0,4,0,,,,,,,,,,,,,,,,,,,,,,,,,,260.3471097999718,None,evidence,61,5,sing,red,258.34661990008317,None,None,258.34661990008317,None,,,,,,,,,,,,,,,,,,,,,,,,,,,,,,,,,,,42 sing,001,2022_Sep_15_1056,ProdSingRedoBetween,2021.2.3,59.94495852472344,
5,0,5,0,,,,,,,,,,,,,,,,,,,,,,,,,,262.8497613000218,None,passage,43,6,sing,blue,260.8493370000506,None,None,260.8493370000506,None,,,,,,,,,,,,,,,,,,,,,,,,,,,,,,,,,,,42 sing,001,2022_Sep_15_1056,ProdSingRedoBetween,2021.2.3,59.94495852472344,
6,0,6,0,,,,,,,,,,,,,,,,,,,,,,,,,,265.3521604000125,None,threat,51,7,sing,blue,263.35120540007483,None,None,263.35120540007483,None,,,,,,,,,,,,,,,,,,,,,,,,,,,,,,,,,,,42 sing,001,2022_Sep_15_1056,ProdSingRedoBetween,2021.2.3,59.94495852472344,
7,0,7,0,,,,,,,,,,,,,,,,,,,,,,,,,,267.8713078000583,None,trail,26,8,sing,yellow,265.85662430000957,None,None,265.85662430000957,None,,,,,,,,,,,,,,,,,,,,,,,,,,,,,,,,,,,42 sing,001,2022_Sep_15_1056,ProdSingRedoBetween,2021.2.3,59.94495852472344,
8,0,8,0,,,,,,,,,,,,,,,,,,,,,,,,,,270.391699800035,None,school,14,9,sing,yellow,268.3867433000123,None,None,268.3867433000123,None,,,,,,,,,,,,,,,,,,,,,,,,,,,,,,,,,,,42 sing,001,2022_Sep_15_1056,ProdSingRedoBetween,2021.2.3,59.94495852472344,
9,0,9,0,,,,,,,,,,,,,,,,,,,,,,,,,,272.89321370003745,None,community,31,10,sing,blue,270.89181300008204,None,None,270.89181300008204,None,,,,,,,,,,,,,,,,,,,,,,,,,,,,,,,,,,,42 sing,001,2022_Sep_15_1056,ProdSingRedoBetween,2021.2.3,59.94495852472344,
10,0,10,0,,,,,,,,,,,,,,,,,,,,,,,,,,275.4125039000064,None,whole,28,11,sing,yellow,273.39840890001506,None,None,273.39840890001506,None,,,,,,,,,,,,,,,,,,,,,,,,,,,,,,,,,,,42 sing,001,2022_Sep_15_1056,ProdSingRedoBetween,2021.2.3,59.94495852472344,
11,0,11,0,,,,,,,,,,,,,,,,,,,,,,,,,,277.91459150006995,None,household,33,12,sing,blue,275.91287980007473,None,None,275.91287980007473,None,,,,,,,,,,,,,,,,,,,,,,,,,,,,,,,,,,,42 sing,001,2022_Sep_15_1056,ProdSingRedoBetween,2021.2.3,59.94495852472344,
12,0,12,0,,,,,,,,,,,,,,,,,,,,,,,,,,280.41712230001576,None,quarter,78,13,sing,red,278.4171350999968,None,None,278.4171350999968,None,,,,,,,,,,,,,,,,,,,,,,,,,,,,,,,,,,,42 sing,001,2022_Sep_15_1056,ProdSingRedoBetween,2021.2.3,59.94495852472344,
13,0,13,0,,,,,,,,,,,,,,,,,,,,,,,,,,282.9203777000075,None,company,34,14,sing,blue,280.9204574000323,None,None,280.9204574000323,None,,,,,,,,,,,,,,,,,,,,,,,,,,,,,,,,,,,42 sing,001,2022_Sep_15_1056,ProdSingRedoBetween,2021.2.3,59.94495852472344,
14,0,14,0,,,,,,,,,,,,,,,,,,,,,,,,,,285.43899140006397,None,poetry,52,15,sing,blue,283.42462180007715,None,None,283.42462180007715,None,,,,,,,,,,,,,,,,,,,,,,,,,,,,,,,,,,,42 sing,001,2022_Sep_15_1056,ProdSingRedoBetween,2021.2.3,59.94495852472344,
15,0,15,0,,,,,,,,,,,,,,,,,,,,,,,,,,287.9578683000291,None,object,63,16,sing,red,285.94606220000423,None,None,285.94606220000423,None,,,,,,,,,,,,,,,,,,,,,,,,,,,,,,,,,,,42 sing,001,2022_Sep_15_1056,ProdSingRedoBetween,2021.2.3,59.94495852472344,
16,0,16,0,,,,,,,,,,,,,,,,,,,,,,,,,,290.46002640004735,None,surface,46,17,sing,blue,288.4589857000392,None,None,288.4589857000392,None,,,,,,,,,,,,,,,,,,,,,,,,,,,,,,,,,,,42 sing,001,2022_Sep_15_1056,ProdSingRedoBetween,2021.2.3,59.94495852472344,
17,0,17,0,,,,,,,,,,,,,,,,,,,,,,,,,,292.98005880007986,None,production,83,18,sing,red,290.9758158000186,None,None,290.9758158000186,None,,,,,,,,,,,,,,,,,,,,,,,,,,,,,,,,,,,42 sing,001,2022_Sep_15_1056,ProdSingRedoBetween,2021.2.3,59.94495852472344,
18,0,18,0,,,,,,,,,,,,,,,,,,,,,,,,,,295.4819381000707,None,fight,55,19,sing,blue,293.4820653999923,None,None,293.4820653999923,None,,,,,,,,,,,,,,,,,,,,,,,,,,,,,,,,,,,42 sing,001,2022_Sep_15_1056,ProdSingRedoBetween,2021.2.3,59.94495852472344,
19,0,19,0,,,,,,,,,,,,,,,,,,,,,,,,,,297.9845996000804,None,industry,32,20,sing,blue,295.9853098000167,None,None,295.9853098000167,None,,,,,,,,,,,,,,,,,,,,,,,,,,,,,,,,,,,42 sing,001,2022_Sep_15_1056,ProdSingRedoBetween,2021.2.3,59.94495852472344,
20,0,20,0,,,,,,,,,,,,,,,,,,,,,,,,,,300.5036900000414,None,finance,37,21,sing,blue,298.4923278000206,None,None,298.4923278000206,None,,,,,,,,,,,,,,,,,,,,,,,,,,,,,,,,,,,42 sing,001,2022_Sep_15_1056,ProdSingRedoBetween,2021.2.3,59.94495852472344,
21,0,21,0,,,,,,,,,,,,,,,,,,,,,,,,,,303.0063817000482,None,birth,74,22,sing,red,301.00540909997653,None,None,301.00540909997653,None,,,,,,,,,,,,,,,,,,,,,,,,,,,,,,,,,,,42 sing,001,2022_Sep_15_1056,ProdSingRedoBetween,2021.2.3,59.94495852472344,
22,0,22,0,,,,,,,,,,,,,,,,,,,,,,,,,,305.5090405000374,None,volume,20,23,sing,yellow,303.50753220007755,None,None,303.50753220007755,None,,,,,,,,,,,,,,,,,,,,,,,,,,,,,,,,,,,42 sing,001,2022_Sep_15_1056,ProdSingRedoBetween,2021.2.3,59.94495852472344,
23,0,23,0,,,,,,,,,,,,,,,,,,,,,,,,,,308.0115096999798,None,reading,21,24,sing,yellow,306.01236519997474,None,None,306.01236519997474,None,,,,,,,,,,,,,,,,,,,,,,,,,,,,,,,,,,,42 sing,001,2022_Sep_15_1056,ProdSingRedoBetween,2021.2.3,59.94495852472344,
24,0,24,0,,,,,,,,,,,,,,,,,,,,,,,,,,310.5149683000054,None,touch,73,25,sing,red,308.51428860006854,None,None,308.51428860006854,None,,,,,,,,,,,,,,,,,,,,,,,,,,,,,,,,,,,42 sing,001,2022_Sep_15_1056,ProdSingRedoBetween,2021.2.3,59.94495852472344,
25,0,25,0,,,,,,,,,,,,,,,,,,,,,,,,,,313.0165973000694,None,captain,3,26,sing,yellow,311.01723470003344,None,None,311.01723470003344,None,,,,,,,,,,,,,,,,,,,,,,,,,,,,,,,,,,,42 sing,001,2022_Sep_15_1056,ProdSingRedoBetween,2021.2.3,59.94495852472344,
26,0,26,0,,,,,,,,,,,,,,,,,,,,,,,,,,315.53544380003586,None,signal,70,27,sing,red,313.52211660007015,None,None,313.52211660007015,None,,,,,,,,,,,,,,,,,,,,,,,,,,,,,,,,,,,42 sing,001,2022_Sep_15_1056,ProdSingRedoBetween,2021.2.3,59.94495852472344,
27,0,27,0,,,,,,,,,,,,,,,,,,,,,,,,,,318.0386429000646,None,tragedy,15,28,sing,yellow,316.03587330004666,None,None,316.03587330004666,None,,,,,,,,,,,,,,,,,,,,,,,,,,,,,,,,,,,42 sing,001,2022_Sep_15_1056,ProdSingRedoBetween,2021.2.3,59.94495852472344,
28,0,28,0,,,,,,,,,,,,,,,,,,,,,,,,,,320.5408589000581,None,period,25,29,sing,yellow,318.53918550000526,None,None,318.53918550000526,None,,,,,,,,,,,,,,,,,,,,,,,,,,,,,,,,,,,42 sing,001,2022_Sep_15_1056,ProdSingRedoBetween,2021.2.3,59.94495852472344,
29,0,29,0,,,,,,,,,,,,,,,,,,,,,,,,,,323.0596699999878,None,curve,47,30,sing,blue,321.0440920999972,None,None,321.0440920999972,None,,,,,,,,,,,,,,,,,,,,,,,,,,,,,,,,,,,42 sing,001,2022_Sep_15_1056,ProdSingRedoBetween,2021.2.3,59.94495852472344,
30,0,30,0,,,,,,,,,,,,,,,,,,,,,,,,,,325.5656878000591,None,addition,23,31,sing,yellow,323.5633473000489,None,None,323.5633473000489,None,,,,,,,,,,,,,,,,,,,,,,,,,,,,,,,,,,,42 sing,001,2022_Sep_15_1056,ProdSingRedoBetween,2021.2.3,59.94495852472344,
31,0,31,0,,,,,,,,,,,,,,,,,,,,,,,,,,328.0981127000414,None,bucket,69,32,sing,red,326.08449649997056,None,None,326.08449649997056,None,,,,,,,,,,,,,,,,,,,,,,,,,,,,,,,,,,,42 sing,001,2022_Sep_15_1056,ProdSingRedoBetween,2021.2.3,59.94495852472344,
32,0,32,0,,,,,,,,,,,,,,,,,,,,,,,,,,330.60075640003197,None,colonel,64,33,sing,red,328.5991188000189,None,None,328.5991188000189,None,,,,,,,,,,,,,,,,,,,,,,,,,,,,,,,,,,,42 sing,001,2022_Sep_15_1056,ProdSingRedoBetween,2021.2.3,59.94495852472344,
33,0,33,0,,,,,,,,,,,,,,,,,,,,,,,,,,333.10358590004034,None,comfort,48,34,sing,blue,331.1027383999899,None,None,331.1027383999899,None,,,,,,,,,,,,,,,,,,,,,,,,,,,,,,,,,,,42 sing,001,2022_Sep_15_1056,ProdSingRedoBetween,2021.2.3,59.94495852472344,
34,0,34,0,,,,,,,,,,,,,,,,,,,,,,,,,,335.60576800000854,None,opening,4,35,sing,yellow,333.6061580000678,None,None,333.6061580000678,None,,,,,,,,,,,,,,,,,,,,,,,,,,,,,,,,,,,42 sing,001,2022_Sep_15_1056,ProdSingRedoBetween,2021.2.3,59.94495852472344,
35,0,35,0,,,,,,,,,,,,,,,,,,,,,,,,,,338.1080304000061,None,safety,84,36,sing,red,336.1085641999962,None,None,336.1085641999962,None,,,,,,,,,,,,,,,,,,,,,,,,,,,,,,,,,,,42 sing,001,2022_Sep_15_1056,ProdSingRedoBetween,2021.2.3,59.94495852472344,
36,0,36,0,,,,,,,,,,,,,,,,,,,,,,,,,,340.61055650003254,None,institute,39,37,sing,blue,338.61076479998883,None,None,338.61076479998883,None,,,,,,,,,,,,,,,,,,,,,,,,,,,,,,,,,,,42 sing,001,2022_Sep_15_1056,ProdSingRedoBetween,2021.2.3,59.94495852472344,
37,0,37,0,,,,,,,,,,,,,,,,,,,,,,,,,,343.1130075000692,None,relation,29,38,sing,blue,341.1126581999706,None,None,341.1126581999706,None,,,,,,,,,,,,,,,,,,,,,,,,,,,,,,,,,,,42 sing,001,2022_Sep_15_1056,ProdSingRedoBetween,2021.2.3,59.94495852472344,
38,0,38,0,,,,,,,,,,,,,,,,,,,,,,,,,,345.6161971000256,None,discussion,80,39,sing,red,343.6161969000241,None,None,343.6161969000241,None,,,,,,,,,,,,,,,,,,,,,,,,,,,,,,,,,,,42 sing,001,2022_Sep_15_1056,ProdSingRedoBetween,2021.2.3,59.94495852472344,
39,0,39,0,,,,,,,,,,,,,,,,,,,,,,,,,,348.1349705000175,None,public,27,40,sing,yellow,346.13017620006576,None,None,346.13017620006576,None,,,,,,,,,,,,,,,,,,,,,,,,,,,,,,,,,,,42 sing,001,2022_Sep_15_1056,ProdSingRedoBetween,2021.2.3,59.94495852472344,
40,0,40,0,,,,,,,,,,,,,,,,,,,,,,,,,,350.6540450999746,None,smell,87,41,sing,red,348.6396730999695,None,None,348.6396730999695,None,,,,,,,,,,,,,,,,,,,,,,,,,,,,,,,,,,,42 sing,001,2022_Sep_15_1056,ProdSingRedoBetween,2021.2.3,59.94495852472344,
41,0,41,0,,,,,,,,,,,,,,,,,,,,,,,,,,353.1568603999913,None,fashion,72,42,sing,red,351.1549383000238,None,None,351.1549383000238,None,,,,,,,,,,,,,,,,,,,,,,,,,,,,,,,,,,,42 sing,001,2022_Sep_15_1056,ProdSingRedoBetween,2021.2.3,59.94495852472344,
42,0,42,0,,,,,,,,,,,,,,,,,,,,,,,,,,355.6761830999749,None,medicine,38,43,sing,blue,353.6609243999701,None,None,353.6609243999701,None,,,,,,,,,,,,,,,,,,,,,,,,,,,,,,,,,,,42 sing,001,2022_Sep_15_1056,ProdSingRedoBetween,2021.2.3,59.94495852472344,
43,0,43,0,,,,,,,,,,,,,,,,,,,,,,,,,,358.1951404999709,None,empty,81,44,sing,red,356.18207520002034,None,None,356.18207520002034,None,,,,,,,,,,,,,,,,,,,,,,,,,,,,,,,,,,,42 sing,001,2022_Sep_15_1056,ProdSingRedoBetween,2021.2.3,59.94495852472344,
44,0,44,0,,,,,,,,,,,,,,,,,,,,,,,,,,360.69835710001644,None,partner,88,45,sing,red,358.6973101000767,None,None,358.6973101000767,None,,,,,,,,,,,,,,,,,,,,,,,,,,,,,,,,,,,42 sing,001,2022_Sep_15_1056,ProdSingRedoBetween,2021.2.3,59.94495852472344,
45,0,45,0,,,,,,,,,,,,,,,,,,,,,,,,,,363.2166949000675,None,heavy,50,46,sing,blue,361.20497189997695,None,None,361.20497189997695,None,,,,,,,,,,,,,,,,,,,,,,,,,,,,,,,,,,,42 sing,001,2022_Sep_15_1056,ProdSingRedoBetween,2021.2.3,59.94495852472344,
46,0,46,0,,,,,,,,,,,,,,,,,,,,,,,,,,365.7356374000665,None,stand,41,47,sing,blue,363.72906380007043,None,None,363.72906380007043,None,,,,,,,,,,,,,,,,,,,,,,,,,,,,,,,,,,,42 sing,001,2022_Sep_15_1056,ProdSingRedoBetween,2021.2.3,59.94495852472344,
47,0,47,0,,,,,,,,,,,,,,,,,,,,,,,,,,368.2385143999709,None,height,60,48,sing,red,366.23688530002255,None,None,366.23688530002255,None,,,,,,,,,,,,,,,,,,,,,,,,,,,,,,,,,,,42 sing,001,2022_Sep_15_1056,ProdSingRedoBetween,2021.2.3,59.94495852472344,
48,0,48,0,,,,,,,,,,,,,,,,,,,,,,,,,,370.7408670000732,None,interview,62,49,sing,red,368.7408646000549,None,None,368.7408646000549,None,,,,,,,,,,,,,,,,,,,,,,,,,,,,,,,,,,,42 sing,001,2022_Sep_15_1056,ProdSingRedoBetween,2021.2.3,59.94495852472344,
49,0,49,0,,,,,,,,,,,,,,,,,,,,,,,,,,373.26018670003396,None,sound,75,50,sing,red,371.24489570001606,None,None,371.24489570001606,None,,,,,,,,,,,,,,,,,,,,,,,,,,,,,,,,,,,42 sing,001,2022_Sep_15_1056,ProdSingRedoBetween,2021.2.3,59.94495852472344,
50,0,50,0,,,,,,,,,,,,,,,,,,,,,,,,,,375.77938239998184,None,treatment,79,51,sing,red,373.76467230007984,None,None,373.76467230007984,None,,,,,,,,,,,,,,,,,,,,,,,,,,,,,,,,,,,42 sing,001,2022_Sep_15_1056,ProdSingRedoBetween,2021.2.3,59.94495852472344,
51,0,51,0,,,,,,,,,,,,,,,,,,,,,,,,,,378.28224109997973,None,report,65,52,sing,red,376.2823505999986,None,None,376.2823505999986,None,,,,,,,,,,,,,,,,,,,,,,,,,,,,,,,,,,,42 sing,001,2022_Sep_15_1056,ProdSingRedoBetween,2021.2.3,59.94495852472344,
52,0,52,0,,,,,,,,,,,,,,,,,,,,,,,,,,380.7842754999874,None,course,7,53,sing,yellow,378.78468320006505,None,None,378.78468320006505,None,,,,,,,,,,,,,,,,,,,,,,,,,,,,,,,,,,,42 sing,001,2022_Sep_15_1056,ProdSingRedoBetween,2021.2.3,59.94495852472344,
53,0,53,0,,,,,,,,,,,,,,,,,,,,,,,,,,383.28663450002205,None,trash,89,54,sing,red,381.2871766000753,None,None,381.2871766000753,None,,,,,,,,,,,,,,,,,,,,,,,,,,,,,,,,,,,42 sing,001,2022_Sep_15_1056,ProdSingRedoBetween,2021.2.3,59.94495852472344,
54,0,54,0,,,,,,,,,,,,,,,,,,,,,,,,,,385.7896183000412,None,nature,45,55,sing,blue,383.7903556000674,None,None,383.7903556000674,None,,,,,,,,,,,,,,,,,,,,,,,,,,,,,,,,,,,42 sing,001,2022_Sep_15_1056,ProdSingRedoBetween,2021.2.3,59.94495852472344,
55,0,55,0,,,,,,,,,,,,,,,,,,,,,,,,,,388.3084983000299,None,produce,67,56,sing,red,386.29396270005964,None,None,386.29396270005964,None,,,,,,,,,,,,,,,,,,,,,,,,,,,,,,,,,,,42 sing,001,2022_Sep_15_1056,ProdSingRedoBetween,2021.2.3,59.94495852472344,
56,0,56,0,,,,,,,,,,,,,,,,,,,,,,,,,,390.8106542000314,None,grade,19,57,sing,yellow,388.810690500075,None,None,388.810690500075,None,,,,,,,,,,,,,,,,,,,,,,,,,,,,,,,,,,,42 sing,001,2022_Sep_15_1056,ProdSingRedoBetween,2021.2.3,59.94495852472344,
57,0,57,0,,,,,,,,,,,,,,,,,,,,,,,,,,393.3135408000089,None,murder,24,58,sing,yellow,391.3129062000662,None,None,391.3129062000662,None,,,,,,,,,,,,,,,,,,,,,,,,,,,,,,,,,,,42 sing,001,2022_Sep_15_1056,ProdSingRedoBetween,2021.2.3,59.94495852472344,
58,0,58,0,,,,,,,,,,,,,,,,,,,,,,,,,,395.8156604000833,None,bicycle,68,59,sing,red,393.8164055000525,None,None,393.8164055000525,None,,,,,,,,,,,,,,,,,,,,,,,,,,,,,,,,,,,42 sing,001,2022_Sep_15_1056,ProdSingRedoBetween,2021.2.3,59.94495852472344,
59,0,59,0,,,,,,,,,,,,,,,,,,,,,,,,,,398.3182209000224,None,worker,59,60,sing,yellow,396.31876190006733,None,None,396.31876190006733,None,,,,,,,,,,,,,,,,,,,,,,,,,,,,,,,,,,,42 sing,001,2022_Sep_15_1056,ProdSingRedoBetween,2021.2.3,59.94495852472344,
60,0,60,0,,,,,,,,,,,,,,,,,,,,,,,,,,400.837682900019,None,primary,22,61,sing,yellow,398.8215158000821,None,None,398.8215158000821,None,,,,,,,,,,,,,,,,,,,,,,,,,,,,,,,,,,,42 sing,001,2022_Sep_15_1056,ProdSingRedoBetween,2021.2.3,59.94495852472344,
61,0,61,0,,,,,,,,,,,,,,,,,,,,,,,,,,403.34017790004145,None,question,17,62,sing,yellow,401.3407470000675,None,None,401.3407470000675,None,,,,,,,,,,,,,,,,,,,,,,,,,,,,,,,,,,,42 sing,001,2022_Sep_15_1056,ProdSingRedoBetween,2021.2.3,59.94495852472344,
62,0,62,0,,,,,,,,,,,,,,,,,,,,,,,,,,405.84264539997093,None,impact,44,63,sing,blue,403.8434372000629,None,None,403.8434372000629,None,,,,,,,,,,,,,,,,,,,,,,,,,,,,,,,,,,,42 sing,001,2022_Sep_15_1056,ProdSingRedoBetween,2021.2.3,59.94495852472344,
63,0,63,0,,,,,,,,,,,,,,,,,,,,,,,,,,408.3451821000781,None,damage,36,64,sing,blue,406.34488720004447,None,None,406.34488720004447,None,,,,,,,,,,,,,,,,,,,,,,,,,,,,,,,,,,,42 sing,001,2022_Sep_15_1056,ProdSingRedoBetween,2021.2.3,59.94495852472344,
64,0,64,0,,,,,,,,,,,,,,,,,,,,,,,,,,410.86426449997816,None,dozen,71,65,sing,red,408.85387180000544,None,None,408.85387180000544,None,,,,,,,,,,,,,,,,,,,,,,,,,,,,,,,,,,,42 sing,001,2022_Sep_15_1056,ProdSingRedoBetween,2021.2.3,59.94495852472344,
65,0,65,0,,,,,,,,,,,,,,,,,,,,,,,,,,413.3836867000209,None,chief,35,66,sing,blue,411.3753682000097,None,None,411.3753682000097,None,,,,,,,,,,,,,,,,,,,,,,,,,,,,,,,,,,,42 sing,001,2022_Sep_15_1056,ProdSingRedoBetween,2021.2.3,59.94495852472344,
66,0,66,0,,,,,,,,,,,,,,,,,,,,,,,,,,415.9026383999735,None,income,9,67,sing,yellow,413.8920547000598,None,None,413.8920547000598,None,,,,,,,,,,,,,,,,,,,,,,,,,,,,,,,,,,,42 sing,001,2022_Sep_15_1056,ProdSingRedoBetween,2021.2.3,59.94495852472344,
67,0,67,0,,,,,,,,,,,,,,,,,,,,,,,,,,418.42168500006665,None,orchestra,6,68,sing,yellow,416.4070792000275,None,None,416.4070792000275,None,,,,,,,,,,,,,,,,,,,,,,,,,,,,,,,,,,,42 sing,001,2022_Sep_15_1056,ProdSingRedoBetween,2021.2.3,59.94495852472344,
68,0,68,0,,,,,,,,,,,,,,,,,,,,,,,,,,420.9410797000164,None,resistance,53,69,sing,blue,418.93126640003175,None,None,418.93126640003175,None,,,,,,,,,,,,,,,,,,,,,,,,,,,,,,,,,,,42 sing,001,2022_Sep_15_1056,ProdSingRedoBetween,2021.2.3,59.94495852472344,
69,0,69,0,,,,,,,,,,,,,,,,,,,,,,,,,,423.44363900006283,None,department,16,70,sing,yellow,421.443402600009,None,None,421.443402600009,None,,,,,,,,,,,,,,,,,,,,,,,,,,,,,,,,,,,42 sing,001,2022_Sep_15_1056,ProdSingRedoBetween,2021.2.3,59.94495852472344,
70,0,70,0,,,,,,,,,,,,,,,,,,,,,,,,,,425.9461894000415,None,tough,1,71,sing,yellow,423.9472502999706,None,None,423.9472502999706,None,,,,,,,,,,,,,,,,,,,,,,,,,,,,,,,,,,,42 sing,001,2022_Sep_15_1056,ProdSingRedoBetween,2021.2.3,59.94495852472344,
71,0,71,0,,,,,,,,,,,,,,,,,,,,,,,,,,428.4655218999833,None,growth,30,72,sing,blue,426.45023980003316,None,None,426.45023980003316,None,,,,,,,,,,,,,,,,,,,,,,,,,,,,,,,,,,,42 sing,001,2022_Sep_15_1056,ProdSingRedoBetween,2021.2.3,59.94495852472344,
72,0,72,0,,,,,,,,,,,,,,,,,,,,,,,,,,430.96814530005213,None,piece,66,73,sing,red,428.96795269998256,None,None,428.96795269998256,None,,,,,,,,,,,,,,,,,,,,,,,,,,,,,,,,,,,42 sing,001,2022_Sep_15_1056,ProdSingRedoBetween,2021.2.3,59.94495852472344,
73,0,73,0,,,,,,,,,,,,,,,,,,,,,,,,,,433.48702320002485,None,service,54,74,sing,blue,431.4718920000596,None,None,431.4718920000596,None,,,,,,,,,,,,,,,,,,,,,,,,,,,,,,,,,,,42 sing,001,2022_Sep_15_1056,ProdSingRedoBetween,2021.2.3,59.94495852472344,
74,0,74,0,,,,,,,,,,,,,,,,,,,,,,,,,,435.98913750005886,None,thing,40,75,sing,blue,433.9888124000281,None,None,433.9888124000281,None,,,,,,,,,,,,,,,,,,,,,,,,,,,,,,,,,,,42 sing,001,2022_Sep_15_1056,ProdSingRedoBetween,2021.2.3,59.94495852472344,
75,0,75,0,,,,,,,,,,,,,,,,,,,,,,,,,,438.49181659996975,None,account,77,76,sing,red,436.4910354000749,None,None,436.4910354000749,None,,,,,,,,,,,,,,,,,,,,,,,,,,,,,,,,,,,42 sing,001,2022_Sep_15_1056,ProdSingRedoBetween,2021.2.3,59.94495852472344,
76,0,76,0,,,,,,,,,,,,,,,,,,,,,,,,,,440.9951366999885,None,answer,8,77,sing,yellow,438.9949028000701,None,None,438.9949028000701,None,,,,,,,,,,,,,,,,,,,,,,,,,,,,,,,,,,,42 sing,001,2022_Sep_15_1056,ProdSingRedoBetween,2021.2.3,59.94495852472344,
77,0,77,0,,,,,,,,,,,,,,,,,,,,,,,,,,443.51361150003504,None,shear,2,78,sing,yellow,441.5055636999896,None,None,441.5055636999896,None,,,,,,,,,,,,,,,,,,,,,,,,,,,,,,,,,,,42 sing,001,2022_Sep_15_1056,ProdSingRedoBetween,2021.2.3,59.94495852472344,
78,0,78,0,,,,,,,,,,,,,,,,,,,,,,,,,,446.01598779996857,None,travel,76,79,sing,red,444.0147389000049,None,None,444.0147389000049,None,,,,,,,,,,,,,,,,,,,,,,,,,,,,,,,,,,,42 sing,001,2022_Sep_15_1056,ProdSingRedoBetween,2021.2.3,59.94495852472344,
79,0,79,0,,,,,,,,,,,,,,,,,,,,,,,,,,448.51856920006685,None,country,10,80,sing,yellow,446.5193954000715,None,None,446.5193954000715,None,,,,,,,,,,,,,,,,,,,,,,,,,,,,,,,,,,,42 sing,001,2022_Sep_15_1056,ProdSingRedoBetween,2021.2.3,59.94495852472344,
80,0,80,0,,,,,,,,,,,,,,,,,,,,,,,,,,451.02085530001204,None,permit,82,81,sing,red,449.0211641000351,None,None,449.0211641000351,None,,,,,,,,,,,,,,,,,,,,,,,,,,,,,,,,,,,42 sing,001,2022_Sep_15_1056,ProdSingRedoBetween,2021.2.3,59.94495852472344,
81,0,81,0,,,,,,,,,,,,,,,,,,,,,,,,,,453.5236621000804,None,bureau,42,82,sing,blue,451.5233720000833,None,None,451.5233720000833,None,,,,,,,,,,,,,,,,,,,,,,,,,,,,,,,,,,,42 sing,001,2022_Sep_15_1056,ProdSingRedoBetween,2021.2.3,59.94495852472344,
82,0,82,0,,,,,,,,,,,,,,,,,,,,,,,,,,456.0427062000381,None,review,13,83,sing,yellow,454.0333638000302,None,None,454.0333638000302,None,,,,,,,,,,,,,,,,,,,,,,,,,,,,,,,,,,,42 sing,001,2022_Sep_15_1056,ProdSingRedoBetween,2021.2.3,59.94495852472344,
83,0,83,0,,,,,,,,,,,,,,,,,,,,,,,,,,458.5618564999895,None,still,86,84,sing,red,456.55122380005196,None,None,456.55122380005196,None,,,,,,,,,,,,,,,,,,,,,,,,,,,,,,,,,,,42 sing,001,2022_Sep_15_1056,ProdSingRedoBetween,2021.2.3,59.94495852472344,
84,0,84,0,,,,,,,,,,,,,,,,,,,,,,,,,,461.0643088000361,None,profession,49,85,sing,blue,459.06319870008156,None,None,459.06319870008156,None,,,,,,,,,,,,,,,,,,,,,,,,,,,,,,,,,,,42 sing,001,2022_Sep_15_1056,ProdSingRedoBetween,2021.2.3,59.94495852472344,
85,0,85,0,,,,,,,,,,,,,,,,,,,,,,,,,,463.5666309000226,None,shape,18,86,sing,yellow,461.5676714000292,None,None,461.5676714000292,None,,,,,,,,,,,,,,,,,,,,,,,,,,,,,,,,,,,42 sing,001,2022_Sep_15_1056,ProdSingRedoBetween,2021.2.3,59.94495852472344,
86,0,86,0,,,,,,,,,,,,,,,,,,,,,,,,,,466.08881470002234,None,skill,57,87,sing,blue,464.07507140003145,None,None,464.07507140003145,None,,,,,,,,,,,,,,,,,,,,,,,,,,,,,,,,,,,42 sing,001,2022_Sep_15_1056,ProdSingRedoBetween,2021.2.3,59.94495852472344,
87,0,87,0,,,,,,,,,,,,,,,,,,,,,,,,,,468.58889830007683,None,staff,12,88,sing,yellow,466.58793300006073,None,None,466.58793300006073,None,,,,,,,,,,,,,,,,,,,,,,,,,,,,,,,,,,,42 sing,001,2022_Sep_15_1056,ProdSingRedoBetween,2021.2.3,59.94495852472344,
88,0,88,0,,,,,,,,,,,,,,,,,,,,,,,,,,471.1079909000546,None,drama,85,89,sing,red,469.1033752000658,None,None,469.1033752000658,None,,,,,,,,,,,,,,,,,,,,,,,,,,,,,,,,,,,42 sing,001,2022_Sep_15_1056,ProdSingRedoBetween,2021.2.3,59.94495852472344,
89,0,89,0,,,,,,,,,,,,,,,,,,,,,,,,,,473.6100439999718,None,benefit,56,90,sing,blue,471.61025759996846,None,None,471.61025759996846,None,,,,,,,,,,,,,,,,,,,,,,,,,,,,,,,,,,,42 sing,001,2022_Sep_15_1056,ProdSingRedoBetween,2021.2.3,59.94495852472344,
,,,,,,,,,,,,,,,,,,,,,,,,,,,,,,,,,,,,,,,,,474.11053920001723,None,k,52.76478870003484,474.11053920001723,None,,,,,,,,,,,,,,,,,,,,,,,,,,,,,42 sing,001,2022_Sep_15_1056,ProdSingRedoBetween,2021.2.3,59.94495852472344,
,,,,0,0,0,0,,,,,,,,,,,,,,,,,,,,,,537.8932720000157,None,,,,,,,,,,,,,,,,,comedy,134,1,sing,new,null,527.4013359000674,None,527.4013359000674,None,1,5.535600400064141,527.4013359000674,None,5.535600400064141,532.9584240000695,None,533.4741198000265,None,533.4741198000265,None,f,4.393700600019656,533.4741198000265,None,4.393700600019656,,,42 sing,001,2022_Sep_15_1056,ProdSingRedoBetween,2021.2.3,59.94495852472344,
,,,,1,0,1,0,,,,,,,,,,,,,,,,,,,,,,547.8191441000672,None,,,,,,,,,,,,,,,,,dance,104,2,sing,new,null,538.409757400048,None,538.409757400048,None,1,2.6546066999435425,538.409757400048,None,2.6546066999435425,541.095943900058,None,541.6122694000369,None,541.6122694000369,None,n,6.182644599932246,541.6122694000369,None,6.182644599932246,,,42 sing,001,2022_Sep_15_1056,ProdSingRedoBetween,2021.2.3,59.94495852472344,
,,,,2,0,2,0,,,,,,,,,,,,,,,,,,,,,,554.977118800045,None,,,,,,,,,,,,,,,,,passage,43,3,sing,old,blue,548.3210546000628,None,548.3210546000628,None,6,3.7984286000719294,548.3210546000628,None,3.7984286000719294,552.1417418000055,None,552.6566191000165,None,552.6566191000165,None,r,2.29183539992664,552.6566191000165,None,2.29183539992664,,,42 sing,001,2022_Sep_15_1056,ProdSingRedoBetween,2021.2.3,59.94495852472344,
,,,,3,0,3,0,,,,,,,,,,,,,,,,,,,,,,562.516948100063,None,,,,,,,,,,,,,,,,,republic,92,4,sing,new,null,555.4941735999892,None,555.4941735999892,None,6,4.194874200038612,555.4941735999892,None,4.194874200038612,559.7160132999998,None,560.230458999984,None,560.230458999984,None,r,2.259736099978909,560.230458999984,None,2.259736099978909,,,42 sing,001,2022_Sep_15_1056,ProdSingRedoBetween,2021.2.3,59.94495852472344,
,,,,4,0,4,0,,,,,,,,,,,,,,,,,,,,,,570.7594716000604,None,,,,,,,,,,,,,,,,,reading,21,5,sing,old,yellow,563.029113000026,None,563.029113000026,None,1,2.8800281999865547,563.029113000026,None,2.8800281999865547,565.9381066000788,None,566.449942599982,None,566.449942599982,None,n,4.27568040008191,566.449942599982,None,4.27568040008191,,,42 sing,001,2022_Sep_15_1056,ProdSingRedoBetween,2021.2.3,59.94495852472344,
,,,,5,0,5,0,,,,,,,,,,,,,,,,,,,,,,576.8316331000533,None,,,,,,,,,,,,,,,,,block,160,6,sing,new,null,571.2814117000671,None,571.2814117000671,None,1,3.362452199915424,571.2814117000671,None,3.362452199915424,574.6639158000471,None,575.1824005000526,None,575.1824005000526,None,n,1.6253227000124753,575.1824005000526,None,1.6253227000124753,,,42 sing,001,2022_Sep_15_1056,ProdSingRedoBetween,2021.2.3,59.94495852472344,
,,,,6,0,6,0,,,,,,,,,,,,,,,,,,,,,,581.6350062000565,None,,,,,,,,,,,,,,,,,safety,84,7,sing,old,red,577.3394064999884,None,577.3394064999884,None,6,2.7327072999905795,577.3394064999884,None,2.7327072999905795,580.1029601000482,None,580.6324108999688,None,580.6324108999688,None,f,0.9726047000149265,580.6324108999688,None,0.9726047000149265,,,42 sing,001,2022_Sep_15_1056,ProdSingRedoBetween,2021.2.3,59.94495852472344,
,,,,7,0,7,0,,,,,,,,,,,,,,,,,,,,,,587.2590545000276,None,,,,,,,,,,,,,,,,,rapid,166,8,sing,new,null,582.1380935000489,None,582.1380935000489,None,1,2.414268200052902,582.1380935000489,None,2.414268200052902,584.5746931000613,None,585.0887699000305,None,585.0887699000305,None,n,2.1382773999357596,585.0887699000305,None,2.1382773999357596,,,42 sing,001,2022_Sep_15_1056,ProdSingRedoBetween,2021.2.3,59.94495852472344,
,,,,8,0,8,0,,,,,,,,,,,,,,,,,,,,,,593.0801632000366,None,,,,,,,,,,,,,,,,,mechanical,119,9,sing,new,null,587.7799143000739,None,587.7799143000739,None,1,2.5316861999453977,587.7799143000739,None,2.5316861999453977,590.3285443000495,None,590.8448574000504,None,590.8448574000504,None,n,2.205839999951422,590.8448574000504,None,2.205839999951422,,,42 sing,001,2022_Sep_15_1056,ProdSingRedoBetween,2021.2.3,59.94495852472344,
,,,,9,0,9,0,,,,,,,,,,,,,,,,,,,,,,598.437308600056,None,,,,,,,,,,,,,,,,,match,100,10,sing,new,null,593.5833496999694,None,593.5833496999694,None,6,3.467953799990937,593.5833496999694,None,3.467953799990937,597.0685800000792,None,597.5734763999935,None,597.5734763999935,None,f,0.8320369999855757,597.5734763999935,None,0.8320369999855757,,,42 sing,001,2022_Sep_15_1056,ProdSingRedoBetween,2021.2.3,59.94495852472344,
,,,,10,0,10,0,,,,,,,,,,,,,,,,,,,,,,604.3591864000773,None,,,,,,,,,,,,,,,,,death,140,11,sing,new,null,598.9617218000349,None,598.9617218000349,None,6,2.8053316000150517,598.9617218000349,None,2.8053316000150517,601.7931654000422,None,602.3059240999864,None,602.3059240999864,None,f,2.029208500054665,602.3059240999864,None,2.029208500054665,,,42 sing,001,2022_Sep_15_1056,ProdSingRedoBetween,2021.2.3,59.94495852472344,
,,,,11,0,11,0,,,,,,,,,,,,,,,,,,,,,,608.7638975000009,None,,,,,,,,,,,,,,,,,turkey,112,12,sing,new,null,604.8822799000191,None,604.8822799000191,None,6,2.016609500045888,604.8822799000191,None,2.016609500045888,606.9300363999791,None,607.4452710000332,None,607.4452710000332,None,f,1.2948068999685347,607.4452710000332,None,1.2948068999685347,,,42 sing,001,2022_Sep_15_1056,ProdSingRedoBetween,2021.2.3,59.94495852472344,
,,,,12,0,12,0,,,,,,,,,,,,,,,,,,,,,,614.8528458999936,None,,,,,,,,,,,,,,,,,profession,49,13,sing,old,blue,609.2858043999877,None,609.2858043999877,None,6,2.3336021000286564,609.2858043999877,None,2.3336021000286564,611.6505325000035,None,612.1659323000349,None,612.1659323000349,None,r,2.6683735999977216,612.1659323000349,None,2.6683735999977216,,,42 sing,001,2022_Sep_15_1056,ProdSingRedoBetween,2021.2.3,59.94495852472344,
,,,,13,0,13,0,,,,,,,,,,,,,,,,,,,,,,618.8400497999974,None,,,,,,,,,,,,,,,,,staff,12,14,sing,old,yellow,615.3701783000724,None,615.3701783000724,None,6,2.0827449000207707,615.3701783000724,None,2.0827449000207707,617.4741875000764,None,617.9882956000511,None,617.9882956000511,None,r,0.8314474000362679,617.9882956000511,None,0.8314474000362679,,,42 sing,001,2022_Sep_15_1056,ProdSingRedoBetween,2021.2.3,59.94495852472344,
,,,,14,0,14,0,,,,,,,,,,,,,,,,,,,,,,622.2259008000838,None,,,,,,,,,,,,,,,,,question,17,15,sing,old,yellow,619.349239800009,None,619.349239800009,None,6,1.6677079999353737,619.349239800009,None,1.6677079999353737,621.0449930999894,None,621.5603428999893,None,621.5603428999893,None,r,0.648561800015159,621.5603428999893,None,0.648561800015159,,,42 sing,001,2022_Sep_15_1056,ProdSingRedoBetween,2021.2.3,59.94495852472344,
,,,,15,0,15,0,,,,,,,,,,,,,,,,,,,,,,627.8658796000527,None,,,,,,,,,,,,,,,,,whole,28,16,sing,old,yellow,622.7286633000476,None,622.7286633000476,None,3,3.381805200013332,622.7286633000476,None,3.381805200013332,626.1318352000089,None,626.6471358999843,None,626.6471358999843,None,f,1.1913460999494419,626.6471358999843,None,1.1913460999494419,,,42 sing,001,2022_Sep_15_1056,ProdSingRedoBetween,2021.2.3,59.94495852472344,
,,,,16,0,16,0,,,,,,,,,,,,,,,,,,,,,,633.7544415000593,None,,,,,,,,,,,,,,,,,conference,110,17,sing,new,null,628.3839525000658,None,628.3839525000658,None,3,4.11927080003079,628.3839525000658,None,4.11927080003079,632.5223645999795,None,633.0553253000835,None,633.0553253000835,None,f,0.6730903000570834,633.0553253000835,None,0.6730903000570834,,,42 sing,001,2022_Sep_15_1056,ProdSingRedoBetween,2021.2.3,59.94495852472344,
,,,,17,0,17,0,,,,,,,,,,,,,,,,,,,,,,638.0439251000062,None,,,,,,,,,,,,,,,,,skill,57,18,sing,old,blue,634.2660852000117,None,634.2660852000117,None,6,2.0790443998994306,634.2660852000117,None,2.0790443998994306,636.3766387000214,None,636.8914069000166,None,636.8914069000166,None,r,1.1256194999441504,636.8914069000166,None,1.1256194999441504,,,42 sing,001,2022_Sep_15_1056,ProdSingRedoBetween,2021.2.3,59.94495852472344,
,,,,18,0,18,0,,,,,,,,,,,,,,,,,,,,,,641.2027400999796,None,,,,,,,,,,,,,,,,,comfort,48,19,sing,old,blue,638.5625985000515,None,638.5625985000515,None,6,1.5541281999321654,638.5625985000515,None,1.5541281999321654,640.1462497999892,None,640.6611797000514,None,640.6611797000514,None,r,0.5151303999591619,640.6611797000514,None,0.5151303999591619,,,42 sing,001,2022_Sep_15_1056,ProdSingRedoBetween,2021.2.3,59.94495852472344,
,,,,19,0,19,0,,,,,,,,,,,,,,,,,,,,,,647.6689372999826,None,,,,,,,,,,,,,,,,,sound,75,20,sing,old,red,641.7171462000115,None,641.7171462000115,None,1,4.146161200013012,641.7171462000115,None,4.146161200013012,645.8877512000035,None,646.4131815000437,None,646.4131815000437,None,f,1.2359118999447674,646.4131815000437,None,1.2359118999447674,,,42 sing,001,2022_Sep_15_1056,ProdSingRedoBetween,2021.2.3,59.94495852472344,
,,,,20,0,20,0,,,,,,,,,,,,,,,,,,,,,,651.4630163999973,None,,,,,,,,,,,,,,,,,sleep,143,21,sing,new,null,648.2036946000298,None,648.2036946000298,None,1,2.1584451999515295,648.2036946000298,None,2.1584451999515295,650.3904087999836,None,650.9041183000663,None,650.9041183000663,None,n,0.5223420000402257,650.9041183000663,None,0.5223420000402257,,,42 sing,001,2022_Sep_15_1056,ProdSingRedoBetween,2021.2.3,59.94495852472344,
,,,,21,0,21,0,,,,,,,,,,,,,,,,,,,,,,654.8418586000334,None,,,,,,,,,,,,,,,,,marriage,58,22,sing,old,blue,651.9783356999978,None,651.9783356999978,None,6,1.3567348999204114,651.9783356999978,None,1.3567348999204114,653.3605174999684,None,653.8742028999841,None,653.8742028999841,None,r,0.9506019999971613,653.8742028999841,None,0.9506019999971613,,,42 sing,001,2022_Sep_15_1056,ProdSingRedoBetween,2021.2.3,59.94495852472344,
,,,,22,0,22,0,,,,,,,,,,,,,,,,,,,,,,657.8961934000254,None,,,,,,,,,,,,,,,,,bureau,42,23,sing,old,blue,655.3444018000737,None,655.3444018000737,None,6,1.3558100999798626,655.3444018000737,None,1.3558100999798626,656.7297481000423,None,657.2482744000154,None,657.2482744000154,None,r,0.6147941000526771,657.2482744000154,None,0.6147941000526771,,,42 sing,001,2022_Sep_15_1056,ProdSingRedoBetween,2021.2.3,59.94495852472344,
,,,,23,0,23,0,,,,,,,,,,,,,,,,,,,,,,661.2151549999835,None,,,,,,,,,,,,,,,,,impact,44,24,sing,old,blue,658.4136032999959,None,658.4136032999959,None,6,1.2764066000236198,658.4136032999959,None,1.2764066000236198,659.7161772000836,None,660.2309251000406,None,660.2309251000406,None,r,0.9681443999288604,660.2309251000406,None,0.9681443999288604,,,42 sing,001,2022_Sep_15_1056,ProdSingRedoBetween,2021.2.3,59.94495852472344,
,,,,24,0,24,0,,,,,,,,,,,,,,,,,,,,,,665.5874678000109,None,,,,,,,,,,,,,,,,,angle,141,25,sing,new,null,661.7168603000464,None,661.7168603000464,None,3,2.648419800098054,661.7168603000464,None,2.648419800098054,664.3856407999992,None,664.886794900056,None,664.886794900056,None,f,0.675543799996376,664.886794900056,None,0.675543799996376,,,42 sing,001,2022_Sep_15_1056,ProdSingRedoBetween,2021.2.3,59.94495852472344,
,,,,25,0,25,0,,,,,,,,,,,,,,,,,,,,,,669.4735880000517,None,,,,,,,,,,,,,,,,,pancakes,135,26,sing,new,null,666.1043770000106,None,666.1043770000106,None,1,1.4448059999849647,666.1043770000106,None,1.4448059999849647,667.5743259000592,None,668.089357500081,None,668.089357500081,None,n,1.3644621000858024,668.089357500081,None,1.3644621000858024,,,42 sing,001,2022_Sep_15_1056,ProdSingRedoBetween,2021.2.3,59.94495852472344,
,,,,26,0,26,0,,,,,,,,,,,,,,,,,,,,,,672.6855528000742,None,,,,,,,,,,,,,,,,,damage,36,27,sing,old,blue,669.9761065000203,None,669.9761065000203,None,6,1.273456700029783,669.9761065000203,None,1.273456700029783,671.2764752000803,None,671.7959814000642,None,671.7959814000642,None,r,0.848943299963139,671.7959814000642,None,0.848943299963139,,,42 sing,001,2022_Sep_15_1056,ProdSingRedoBetween,2021.2.3,59.94495852472344,
,,,,27,0,27,0,,,,,,,,,,,,,,,,,,,,,,676.647415400017,None,,,,,,,,,,,,,,,,,school,14,28,sing,old,yellow,673.2013095000293,None,673.2013095000293,None,6,2.0977619000477716,673.2013095000293,None,2.0977619000477716,675.3399621000281,None,675.8462677000789,None,675.8462677000789,None,r,0.7852560000028461,675.8462677000789,None,0.7852560000028461,,,42 sing,001,2022_Sep_15_1056,ProdSingRedoBetween,2021.2.3,59.94495852472344,
,,,,28,0,28,0,,,,,,,,,,,,,,,,,,,,,,681.4453438000055,None,,,,,,,,,,,,,,,,,bucket,69,29,sing,old,red,677.1563009000383,None,677.1563009000383,None,3,3.0647767999907956,677.1563009000383,None,3.0647767999907956,680.252268900047,None,680.7693960000761,None,680.7693960000761,None,f,0.6358364999759942,680.7693960000761,None,0.6358364999759942,,,42 sing,001,2022_Sep_15_1056,ProdSingRedoBetween,2021.2.3,59.94495852472344,
,,,,29,0,29,0,,,,,,,,,,,,,,,,,,,,,,687.6418694000458,None,,,,,,,,,,,,,,,,,voice,146,30,sing,new,null,681.9576738000615,None,681.9576738000615,None,4,4.223046200000681,681.9576738000615,None,4.223046200000681,686.208465600037,None,686.7234296000097,None,686.7234296000097,None,f,0.8925930999685079,686.7234296000097,None,0.8925930999685079,,,42 sing,001,2022_Sep_15_1056,ProdSingRedoBetween,2021.2.3,59.94495852472344,
,,,,30,0,30,0,,,,,,,,,,,,,,,,,,,,,,692.4806406999705,None,,,,,,,,,,,,,,,,,display,149,31,sing,new,null,688.1440648999996,None,688.1440648999996,None,1,2.634561099926941,688.1440648999996,None,2.634561099926941,690.7960719000548,None,691.3116672000615,None,691.3116672000615,None,n,1.149002999998629,691.3116672000615,None,1.149002999998629,,,42 sing,001,2022_Sep_15_1056,ProdSingRedoBetween,2021.2.3,59.94495852472344,
,,,,31,0,31,0,,,,,,,,,,,,,,,,,,,,,,696.6019767000107,None,,,,,,,,,,,,,,,,,universal,109,32,sing,new,null,692.9843242000788,None,692.9843242000788,None,3,2.204576199990697,692.9843242000788,None,2.204576199990697,695.2184887999902,None,695.733364899992,None,695.733364899992,None,f,0.8475796999409795,695.733364899992,None,0.8475796999409795,,,42 sing,001,2022_Sep_15_1056,ProdSingRedoBetween,2021.2.3,59.94495852472344,
,,,,32,0,32,0,,,,,,,,,,,,,,,,,,,,,,701.5720596000319,None,,,,,,,,,,,,,,,,,capital,173,33,sing,new,null,697.1192710000323,None,697.1192710000323,None,5,3.237622399930842,697.1192710000323,None,3.237622399930842,700.3918934999965,None,700.9045962999808,None,700.9045962999808,None,f,0.6448379999492317,700.9045962999808,None,0.6448379999492317,,,42 sing,001,2022_Sep_15_1056,ProdSingRedoBetween,2021.2.3,59.94495852472344,
,,,,33,0,33,0,,,,,,,,,,,,,,,,,,,,,,706.1608017999679,None,,,,,,,,,,,,,,,,,shape,18,34,sing,old,yellow,702.0750462000724,None,702.0750462000724,None,6,1.6865330999717116,702.0750462000724,None,1.6865330999717116,703.7930635000812,None,704.308200599975,None,704.308200599975,None,r,1.8284345000283793,704.308200599975,None,1.8284345000283793,,,42 sing,001,2022_Sep_15_1056,ProdSingRedoBetween,2021.2.3,59.94495852472344,
,,,,34,0,34,0,,,,,,,,,,,,,,,,,,,,,,712.9337507999735,None,,,,,,,,,,,,,,,,,track,159,35,sing,new,null,706.6907031000592,None,706.6907031000592,None,2,4.310463600093499,706.6907031000592,None,4.310463600093499,711.0328462000471,None,711.5502228999976,None,711.5502228999976,None,n,1.361068900092505,711.5502228999976,None,1.361068900092505,,,42 sing,001,2022_Sep_15_1056,ProdSingRedoBetween,2021.2.3,59.94495852472344,
,,,,35,0,35,0,,,,,,,,,,,,,,,,,,,,,,717.0725191000383,None,,,,,,,,,,,,,,,,,empty,81,36,sing,old,red,713.4539295000723,None,713.4539295000723,None,6,1.863490500021726,713.4539295000723,None,1.863490500021726,715.3372906000586,None,715.8531143000582,None,715.8531143000582,None,r,1.2007637000642717,715.8531143000582,None,1.2007637000642717,,,42 sing,001,2022_Sep_15_1056,ProdSingRedoBetween,2021.2.3,59.94495852472344,
,,,,36,0,36,0,,,,,,,,,,,,,,,,,,,,,,724.598118300084,None,,,,,,,,,,,,,,,,,weather,153,37,sing,new,null,717.5918192000827,None,717.5918192000827,None,2,3.7224295999621972,717.5918192000827,None,3.7224295999621972,721.3468677999917,None,721.8652399000712,None,721.8652399000712,None,n,2.7037513999966905,721.8652399000712,None,2.7037513999966905,,,42 sing,001,2022_Sep_15_1056,ProdSingRedoBetween,2021.2.3,59.94495852472344,
,,,,37,0,37,0,,,,,,,,,,,,,,,,,,,,,,728.917097400059,None,,,,,,,,,,,,,,,,,murder,24,38,sing,old,yellow,725.118012299994,None,725.118012299994,None,3,2.288391700014472,725.118012299994,None,2.288391700014472,727.4351199000375,None,727.9482589000836,None,727.9482589000836,None,f,0.9457395999925211,727.9482589000836,None,0.9457395999925211,,,42 sing,001,2022_Sep_15_1056,ProdSingRedoBetween,2021.2.3,59.94495852472344,
,,,,38,0,38,0,,,,,,,,,,,,,,,,,,,,,,733.5766330000479,None,,,,,,,,,,,,,,,,,accident,113,39,sing,new,null,729.4332452000817,None,729.4332452000817,None,1,1.8799440000439063,729.4332452000817,None,1.8799440000439063,731.3380707000615,None,731.8517815000378,None,731.8517815000378,None,n,1.6905481999274343,731.8517815000378,None,1.6905481999274343,,,42 sing,001,2022_Sep_15_1056,ProdSingRedoBetween,2021.2.3,59.94495852472344,
,,,,39,0,39,0,,,,,,,,,,,,,,,,,,,,,,737.8091064000037,None,,,,,,,,,,,,,,,,,period,25,40,sing,old,yellow,734.0930495000212,None,734.0930495000212,None,6,1.4990493999794126,734.0930495000212,None,1.4990493999794126,735.6297742000315,None,736.1534314000746,None,736.1534314000746,None,r,1.6354577000020072,736.1534314000746,None,1.6354577000020072,,,42 sing,001,2022_Sep_15_1056,ProdSingRedoBetween,2021.2.3,59.94495852472344,
,,,,40,0,40,0,,,,,,,,,,,,,,,,,,,,,,742.6308937000576,None,,,,,,,,,,,,,,,,,piece,66,41,sing,old,red,738.3112949000206,None,738.3112949000206,None,2,3.051022299914621,738.3112949000206,None,3.051022299914621,741.4075908000814,None,741.91233010008,None,741.91233010008,None,f,0.6901510000461712,741.91233010008,None,0.6901510000461712,,,42 sing,001,2022_Sep_15_1056,ProdSingRedoBetween,2021.2.3,59.94495852472344,
,,,,41,0,41,0,,,,,,,,,,,,,,,,,,,,,,747.501462800079,None,,,,,,,,,,,,,,,,,birth,74,42,sing,old,red,743.1359817000339,None,743.1359817000339,None,6,1.8738417000276968,743.1359817000339,None,1.8738417000276968,745.0334619000787,None,745.5467929000733,None,745.5467929000733,None,r,1.9303581999847665,745.5467929000733,None,1.9303581999847665,,,42 sing,001,2022_Sep_15_1056,ProdSingRedoBetween,2021.2.3,59.94495852472344,
,,,,42,0,42,0,,,,,,,,,,,,,,,,,,,,,,752.7240959000774,None,,,,,,,,,,,,,,,,,treatment,79,43,sing,old,red,748.0151088000275,None,748.0151088000275,None,6,3.109072000021115,748.0151088000275,None,3.109072000021115,751.1561138000106,None,751.6734000999713,None,751.6734000999713,None,r,1.021752699976787,751.6734000999713,None,1.021752699976787,,,42 sing,001,2022_Sep_15_1056,ProdSingRedoBetween,2021.2.3,59.94495852472344,
,,,,43,0,43,0,,,,,,,,,,,,,,,,,,,,,,755.6924008000642,None,,,,,,,,,,,,,,,,,growth,30,44,sing,old,blue,753.2442723000422,None,753.2442723000422,None,6,1.5390507000265643,753.2442723000422,None,1.5390507000265643,754.809740900062,None,755.325785699999,None,755.325785699999,None,r,0.3395784000167623,755.325785699999,None,0.3395784000167623,,,42 sing,001,2022_Sep_15_1056,ProdSingRedoBetween,2021.2.3,59.94495852472344,
,,,,44,0,44,0,,,,,,,,,,,,,,,,,,,,,,759.164102400071,None,,,,,,,,,,,,,,,,,tough,1,45,sing,old,yellow,756.2015522000147,None,756.2015522000147,None,1,1.5444681999506429,756.2015522000147,None,1.5444681999506429,757.7788995000301,None,758.2788005999755,None,758.2788005999755,None,n,0.8684960999526083,758.2788005999755,None,0.8684960999526083,,,42 sing,001,2022_Sep_15_1056,ProdSingRedoBetween,2021.2.3,59.94495852472344,
,,,,45,0,45,0,,,,,,,,,,,,,,,,,,,,,,762.7841795000713,None,,,,,,,,,,,,,,,,,throw,5,46,sing,old,yellow,759.692959100008,None,759.692959100008,None,6,1.9801226001000032,759.692959100008,None,1.9801226001000032,761.7015832000179,None,762.2162250999827,None,762.2162250999827,None,r,0.5431422999827191,762.2162250999827,None,0.5431422999827191,,,42 sing,001,2022_Sep_15_1056,ProdSingRedoBetween,2021.2.3,59.94495852472344,
,,,,46,0,46,0,,,,,,,,,,,,,,,,,,,,,,768.2052196000004,None,,,,,,,,,,,,,,,,,narrow,105,47,sing,new,null,763.2866799000185,None,763.2866799000185,None,2,3.351257300004363,763.2866799000185,None,3.351257300004363,766.6552460000385,None,767.1712138999719,None,767.1712138999719,None,f,1.0053038999903947,767.1712138999719,None,1.0053038999903947,,,42 sing,001,2022_Sep_15_1056,ProdSingRedoBetween,2021.2.3,59.94495852472344,
,,,,47,0,47,0,,,,,,,,,,,,,,,,,,,,,,774.5631829000777,None,,,,,,,,,,,,,,,,,production,83,48,sing,old,red,768.710898600053,None,768.710898600053,None,6,5.157315199961886,768.710898600053,None,5.157315199961886,773.8967858999968,None,774.4114875000669,None,774.4114875000669,None,r,0.1256324000423774,774.4114875000669,None,0.1256324000423774,,,42 sing,001,2022_Sep_15_1056,ProdSingRedoBetween,2021.2.3,59.94495852472344,
,,,,48,0,48,0,,,,,,,,,,,,,,,,,,,,,,780.6174341000151,None,,,,,,,,,,,,,,,,,sweet,107,49,sing,new,null,775.0803060000762,None,775.0803060000762,None,2,1.9516443000175059,775.0803060000762,None,1.9516443000175059,777.0566376000643,None,777.5643728000578,None,777.5643728000578,None,n,3.022240800084546,777.5643728000578,None,3.022240800084546,,,42 sing,001,2022_Sep_15_1056,ProdSingRedoBetween,2021.2.3,59.94495852472344,
,,,,49,0,49,0,,,,,,,,,,,,,,,,,,,,,,783.354953299975,None,,,,,,,,,,,,,,,,,guest,102,50,sing,new,null,781.1275190999731,None,781.1275190999731,None,6,1.512127000023611,781.1275190999731,None,1.512127000023611,782.6716799000278,None,783.1900121000363,None,783.1900121000363,None,r,0.128388800076209,783.1900121000363,None,0.128388800076209,,,42 sing,001,2022_Sep_15_1056,ProdSingRedoBetween,2021.2.3,59.94495852472344,
,,,,50,0,50,0,,,,,,,,,,,,,,,,,,,,,,787.3404369000345,None,,,,,,,,,,,,,,,,,symbol,178,51,sing,new,null,783.8689066000516,None,783.8689066000516,None,6,2.003419400076382,783.8689066000516,None,2.003419400076382,785.9161176000489,None,786.4280971999979,None,786.4280971999979,None,r,0.8906007000477985,786.4280971999979,None,0.8906007000477985,,,42 sing,001,2022_Sep_15_1056,ProdSingRedoBetween,2021.2.3,59.94495852472344,
,,,,51,0,51,0,,,,,,,,,,,,,,,,,,,,,,789.8215477999765,None,,,,,,,,,,,,,,,,,country,10,52,sing,old,yellow,787.8512606000295,None,787.8512606000295,None,6,1.390353300026618,787.8512606000295,None,1.390353300026618,789.2780791000696,None,789.7940520000411,None,789.7940520000411,None,r,0.0027850999031215906,789.7940520000411,None,0.0027850999031215906,,,42 sing,001,2022_Sep_15_1056,ProdSingRedoBetween,2021.2.3,59.94495852472344,
,,,,52,0,52,0,,,,,,,,,,,,,,,,,,,,,,794.2982648999896,None,,,,,,,,,,,,,,,,,partner,88,53,sing,old,red,790.332766000065,None,790.332766000065,None,3,2.5119313000468537,790.332766000065,None,2.5119313000468537,792.8659971000161,None,793.3795487000607,None,793.3795487000607,None,f,0.8936075000092387,793.3795487000607,None,0.8936075000092387,,,42 sing,001,2022_Sep_15_1056,ProdSingRedoBetween,2021.2.3,59.94495852472344,
,,,,53,0,53,0,,,,,,,,,,,,,,,,,,,,,,801.1384452000493,None,,,,,,,,,,,,,,,,,season,118,54,sing,new,null,794.8012734000804,None,794.8012734000804,None,4,4.724786099977791,794.8012734000804,None,4.724786099977791,799.5556398000335,None,800.0744632000569,None,800.0744632000569,None,f,1.0435569999972358,800.0744632000569,None,1.0435569999972358,,,42 sing,001,2022_Sep_15_1056,ProdSingRedoBetween,2021.2.3,59.94495852472344,
,,,,54,0,54,0,,,,,,,,,,,,,,,,,,,,,,804.2244342999766,None,,,,,,,,,,,,,,,,,subject,171,55,sing,new,null,801.6427426000591,None,801.6427426000591,None,5,1.7346172999823466,801.6427426000591,None,1.7346172999823466,803.4107209000504,None,803.9343402000377,None,803.9343402000377,None,f,0.26550579990725964,803.9343402000377,None,0.26550579990725964,,,42 sing,001,2022_Sep_15_1056,ProdSingRedoBetween,2021.2.3,59.94495852472344,
,,,,55,0,55,0,,,,,,,,,,,,,,,,,,,,,,808.2292348999763,None,,,,,,,,,,,,,,,,,charter,93,56,sing,new,null,804.7403962999815,None,804.7403962999815,None,1,1.8164331000298262,804.7403962999815,None,1.8164331000298262,806.5780653000111,None,807.0843428000808,None,807.0843428000808,None,n,1.1257852000417188,807.0843428000808,None,1.1257852000417188,,,42 sing,001,2022_Sep_15_1056,ProdSingRedoBetween,2021.2.3,59.94495852472344,
,,,,56,0,56,0,,,,,,,,,,,,,,,,,,,,,,814.4524022000842,None,,,,,,,,,,,,,,,,,rough,124,57,sing,new,null,808.7314244000008,None,808.7314244000008,None,3,2.4528228000272065,808.7314244000008,None,2.4528228000272065,811.217341599986,None,811.7315969000338,None,811.7315969000338,None,f,2.6978365998947993,811.7315969000338,None,2.6978365998947993,,,42 sing,001,2022_Sep_15_1056,ProdSingRedoBetween,2021.2.3,59.94495852472344,
,,,,57,0,57,0,,,,,,,,,,,,,,,,,,,,,,818.8221654000226,None,,,,,,,,,,,,,,,,,grade,19,58,sing,old,yellow,814.9731086000102,None,814.9731086000102,None,5,1.9749356999527663,814.9731086000102,None,1.9749356999527663,816.9741331000114,None,817.488666200079,None,817.488666200079,None,r,1.3047453999752179,817.488666200079,None,1.3047453999752179,,,42 sing,001,2022_Sep_15_1056,ProdSingRedoBetween,2021.2.3,59.94495852472344,
,,,,58,0,58,0,,,,,,,,,,,,,,,,,,,,,,822.9934672000818,None,,,,,,,,,,,,,,,,,health,163,59,sing,new,null,819.3248742000433,None,819.3248742000433,None,3,2.379074600059539,819.3248742000433,None,2.379074600059539,821.7264515999705,None,822.2424534000456,None,822.2424534000456,None,f,0.7281239000149071,822.2424534000456,None,0.7281239000149071,,,42 sing,001,2022_Sep_15_1056,ProdSingRedoBetween,2021.2.3,59.94495852472344,
,,,,59,0,59,0,,,,,,,,,,,,,,,,,,,,,,826.2813665000722,None,,,,,,,,,,,,,,,,,threat,51,60,sing,old,blue,823.4961853000568,None,823.4961853000568,None,6,1.746984300087206,823.4961853000568,None,1.746984300087206,825.2638645999832,None,825.7796588999918,None,825.7796588999918,None,r,0.4784059999510646,825.7796588999918,None,0.4784059999510646,,,42 sing,001,2022_Sep_15_1056,ProdSingRedoBetween,2021.2.3,59.94495852472344,
,,,,60,0,60,0,,,,,,,,,,,,,,,,,,,,,,830.7023260999704,None,,,,,,,,,,,,,,,,,story,161,61,sing,new,null,826.7994789000368,None,826.7994789000368,None,3,2.283623099909164,826.7994789000368,None,2.283623099909164,829.100942100049,None,829.6179735000478,None,829.6179735000478,None,f,1.0591637999750674,829.6179735000478,None,1.0591637999750674,,,42 sing,001,2022_Sep_15_1056,ProdSingRedoBetween,2021.2.3,59.94495852472344,
,,,,61,0,61,0,,,,,,,,,,,,,,,,,,,,,,834.0040853000246,None,,,,,,,,,,,,,,,,,institute,39,62,sing,old,blue,831.2197781000286,None,831.2197781000286,None,6,1.366873599938117,831.2197781000286,None,1.366873599938117,832.6085495000007,None,833.1228786000283,None,833.1228786000283,None,r,0.8623588000191376,833.1228786000283,None,0.8623588000191376,,,42 sing,001,2022_Sep_15_1056,ProdSingRedoBetween,2021.2.3,59.94495852472344,
,,,,62,0,62,0,,,,,,,,,,,,,,,,,,,,,,836.8037728000199,None,,,,,,,,,,,,,,,,,dispute,91,63,sing,new,null,834.5086843000026,None,834.5086843000026,None,6,1.4539469999726862,834.5086843000026,None,1.4539469999726862,835.9920510000084,None,836.5064686000114,None,836.5064686000114,None,r,0.2640440999530256,836.5064686000114,None,0.2640440999530256,,,42 sing,001,2022_Sep_15_1056,ProdSingRedoBetween,2021.2.3,59.94495852472344,
,,,,63,0,63,0,,,,,,,,,,,,,,,,,,,,,,839.7770156000042,None,,,,,,,,,,,,,,,,,surface,46,64,sing,old,blue,837.3138692000648,None,837.3138692000648,None,6,1.2290538999950513,837.3138692000648,None,1.2290538999950513,838.5603808000451,None,839.0763751000632,None,839.0763751000632,None,r,0.6764581000898033,839.0763751000632,None,0.6764581000898033,,,42 sing,001,2022_Sep_15_1056,ProdSingRedoBetween,2021.2.3,59.94495852472344,
,,,,64,0,64,0,,,,,,,,,,,,,,,,,,,,,,842.2974567000056,None,,,,,,,,,,,,,,,,,quarter,78,65,sing,old,red,840.2810776999686,None,840.2810776999686,None,6,1.0831851999973878,840.2810776999686,None,1.0831851999973878,841.3983953000279,None,841.9304008000763,None,841.9304008000763,None,r,0.34909299993887544,841.9304008000763,None,0.34909299993887544,,,42 sing,001,2022_Sep_15_1056,ProdSingRedoBetween,2021.2.3,59.94495852472344,
,,,,65,0,65,0,,,,,,,,,,,,,,,,,,,,,,845.4504014999839,None,,,,,,,,,,,,,,,,,worker,59,66,sing,old,yellow,842.817690200056,None,842.817690200056,None,6,1.7373915000353009,842.817690200056,None,1.7373915000353009,844.5831001000479,None,845.10062380007,None,845.10062380007,None,r,0.3304387000389397,845.10062380007,None,0.3304387000389397,,,42 sing,001,2022_Sep_15_1056,ProdSingRedoBetween,2021.2.3,59.94495852472344,
,,,,66,0,66,0,,,,,,,,,,,,,,,,,,,,,,848.0037250000751,None,,,,,,,,,,,,,,,,,colonel,64,67,sing,old,red,845.9666214999743,None,845.9666214999743,None,6,1.1152002000017092,845.9666214999743,None,1.1152002000017092,847.1023014000384,None,847.6171990999719,None,847.6171990999719,None,r,0.36467469995841384,847.6171990999719,None,0.36467469995841384,,,42 sing,001,2022_Sep_15_1056,ProdSingRedoBetween,2021.2.3,59.94495852472344,
,,,,67,0,67,0,,,,,,,,,,,,,,,,,,,,,,853.091163199977,None,,,,,,,,,,,,,,,,,company,34,68,sing,old,blue,848.5336359000066,None,848.5336359000066,None,5,3.7319488000357524,848.5336359000066,None,3.7319488000357524,852.291801000014,None,852.8061543999938,None,852.8061543999938,None,r,0.2549665999831632,852.8061543999938,None,0.2549665999831632,,,42 sing,001,2022_Sep_15_1056,ProdSingRedoBetween,2021.2.3,59.94495852472344,
,,,,68,0,68,0,,,,,,,,,,,,,,,,,,,,,,857.0831111000152,None,,,,,,,,,,,,,,,,,point,94,69,sing,new,null,853.5939489000011,None,853.5939489000011,None,4,2.4406363000161946,853.5939489000011,None,2.4406363000161946,856.0614145,None,856.5823766000103,None,856.5823766000103,None,r,0.4658533000620082,856.5823766000103,None,0.4658533000620082,,,42 sing,001,2022_Sep_15_1056,ProdSingRedoBetween,2021.2.3,59.94495852472344,
,,,,69,0,69,0,,,,,,,,,,,,,,,,,,,,,,861.0158656999702,None,,,,,,,,,,,,,,,,,resistance,53,70,sing,old,blue,857.6025349000702,None,857.6025349000702,None,6,2.60111060005147,857.6025349000702,None,2.60111060005147,860.2325162000488,None,860.7473434000276,None,860.7473434000276,None,r,0.24569939996581525,860.7473434000276,None,0.24569939996581525,,,42 sing,001,2022_Sep_15_1056,ProdSingRedoBetween,2021.2.3,59.94495852472344,
,,,,70,0,70,0,,,,,,,,,,,,,,,,,,,,,,867.4888697999995,None,,,,,,,,,,,,,,,,,state,114,71,sing,new,null,861.5184973999858,None,861.5184973999858,None,2,2.595747100072913,861.5184973999858,None,2.595747100072913,864.1361679000547,None,864.6503674000269,None,864.6503674000269,None,n,2.8131970999529585,864.6503674000269,None,2.8131970999529585,,,42 sing,001,2022_Sep_15_1056,ProdSingRedoBetween,2021.2.3,59.94495852472344,
,,,,71,0,71,0,,,,,,,,,,,,,,,,,,,,,,870.8254816000117,None,,,,,,,,,,,,,,,,,plane,101,72,sing,new,null,868.0075348999817,None,868.0075348999817,None,1,1.5751995000755414,868.0075348999817,None,1.5751995000755414,869.6096237000311,None,870.1264596000547,None,870.1264596000547,None,n,0.6671654999954626,870.1264596000547,None,0.6671654999954626,,,42 sing,001,2022_Sep_15_1056,ProdSingRedoBetween,2021.2.3,59.94495852472344,
,,,,72,0,72,0,,,,,,,,,,,,,,,,,,,,,,873.479086700012,None,,,,,,,,,,,,,,,,,tennis,177,73,sing,new,null,871.3431118000299,None,871.3431118000299,None,1,1.244438900030218,871.3431118000299,None,1.244438900030218,872.6121080999728,None,873.126910299994,None,873.126910299994,None,n,0.32261899998411536,873.126910299994,None,0.32261899998411536,,,42 sing,001,2022_Sep_15_1056,ProdSingRedoBetween,2021.2.3,59.94495852472344,
,,,,73,0,73,0,,,,,,,,,,,,,,,,,,,,,,877.9326550000114,None,,,,,,,,,,,,,,,,,estate,145,74,sing,new,null,873.995720100007,None,873.995720100007,None,2,3.129721899982542,873.995720100007,None,3.129721899982542,877.1533560000826,None,877.6643233000068,None,877.6643233000068,None,n,0.23682809993624687,877.6643233000068,None,0.23682809993624687,,,42 sing,001,2022_Sep_15_1056,ProdSingRedoBetween,2021.2.3,59.94495852472344,
,,,,74,0,74,0,,,,,,,,,,,,,,,,,,,,,,881.8701254000189,None,,,,,,,,,,,,,,,,,chief,35,75,sing,old,blue,878.435521400068,None,878.435521400068,None,2,2.5749301000032574,878.435521400068,None,2.5749301000032574,881.040557899978,None,881.5597821000265,None,881.5597821000265,None,n,0.2827173999976367,881.5597821000265,None,0.2827173999976367,,,42 sing,001,2022_Sep_15_1056,ProdSingRedoBetween,2021.2.3,59.94495852472344,
,,,,75,0,75,0,,,,,,,,,,,,,,,,,,,,,,885.474284099997,None,,,,,,,,,,,,,,,,,curve,47,76,sing,old,blue,882.3873833999969,None,882.3873833999969,None,2,2.224345099995844,882.3873833999969,None,2.224345099995844,884.640029800008,None,885.1582819999894,None,885.1582819999894,None,n,0.2885846000863239,885.1582819999894,None,0.2885846000863239,,,42 sing,001,2022_Sep_15_1056,ProdSingRedoBetween,2021.2.3,59.94495852472344,
,,,,76,0,76,0,,,,,,,,,,,,,,,,,,,,,,888.7425384999951,None,,,,,,,,,,,,,,,,,trail,26,77,sing,old,yellow,885.9900763999904,None,885.9900763999904,None,2,1.9665843000402674,885.9900763999904,None,1.9665843000402674,887.9797027000459,None,888.4921042000642,None,888.4921042000642,None,n,0.22657850000541657,888.4921042000642,None,0.22657850000541657,,,42 sing,001,2022_Sep_15_1056,ProdSingRedoBetween,2021.2.3,59.94495852472344,
,,,,77,0,77,0,,,,,,,,,,,,,,,,,,,,,,892.2454460000154,None,,,,,,,,,,,,,,,,,ground,157,78,sing,new,null,889.2440569000319,None,889.2440569000319,None,2,2.0955968000926077,889.2440569000319,None,2.0955968000926077,891.3626858000644,None,891.8632282000035,None,891.8632282000035,None,n,0.3633980000158772,891.8632282000035,None,0.3633980000158772,,,42 sing,001,2022_Sep_15_1056,ProdSingRedoBetween,2021.2.3,59.94495852472344,
,,,,78,0,78,0,,,,,,,,,,,,,,,,,,,,,,895.1493910000427,None,,,,,,,,,,,,,,,,,dozen,71,79,sing,old,red,892.7485626999987,None,892.7485626999987,None,6,1.5338999000377953,892.7485626999987,None,1.5338999000377953,894.3024462000467,None,894.815967499977,None,894.815967499977,None,r,0.30250729992985725,894.815967499977,None,0.30250729992985725,,,42 sing,001,2022_Sep_15_1056,ProdSingRedoBetween,2021.2.3,59.94495852472344,
,,,,79,0,79,0,,,,,,,,,,,,,,,,,,,,,,899.5947273999918,None,,,,,,,,,,,,,,,,,dream,179,80,sing,new,null,895.6510878000408,None,895.6510878000408,None,4,1.9738285999046639,895.6510878000408,None,1.9738285999046639,897.653846799978,None,898.1683287000051,None,898.1683287000051,None,r,1.4003147999756038,898.1683287000051,None,1.4003147999756038,,,42 sing,001,2022_Sep_15_1056,ProdSingRedoBetween,2021.2.3,59.94495852472344,
,,,,80,0,80,0,,,,,,,,,,,,,,,,,,,,,,904.4413547000149,None,,,,,,,,,,,,,,,,,poetry,52,81,sing,old,blue,900.1073282000143,None,900.1073282000143,None,6,3.4577896000118926,900.1073282000143,None,3.4577896000118926,903.5927259000018,None,904.1074228000361,None,904.1074228000361,None,r,0.31746189994737506,904.1074228000361,None,0.31746189994737506,,,42 sing,001,2022_Sep_15_1056,ProdSingRedoBetween,2021.2.3,59.94495852472344,
,,,,81,0,81,0,,,,,,,,,,,,,,,,,,,,,,908.0782618999947,None,,,,,,,,,,,,,,,,,brilliant,174,82,sing,new,null,904.9439753000624,None,904.9439753000624,None,1,1.6690888999728486,904.9439753000624,None,1.6690888999728486,906.6504894000245,None,907.1621637999779,None,907.1621637999779,None,n,0.8915556999854743,907.1621637999779,None,0.8915556999854743,,,42 sing,001,2022_Sep_15_1056,ProdSingRedoBetween,2021.2.3,59.94495852472344,
,,,,82,0,82,0,,,,,,,,,,,,,,,,,,,,,,912.6831672000699,None,,,,,,,,,,,,,,,,,clean,0,83,sing,old,yellow,908.5809378999984,None,908.5809378999984,None,1,2.800558999995701,908.5809378999984,None,2.800558999995701,911.4005670000333,None,911.91550620005,None,911.91550620005,None,n,0.7402289001038298,911.91550620005,None,0.7402289001038298,,,42 sing,001,2022_Sep_15_1056,ProdSingRedoBetween,2021.2.3,59.94495852472344,
,,,,83,0,83,0,,,,,,,,,,,,,,,,,,,,,,916.1499199999962,None,,,,,,,,,,,,,,,,,finance,37,84,sing,old,blue,913.1864487000275,None,913.1864487000275,None,5,1.9730829999316484,913.1864487000275,None,1.9730829999316484,915.186885299976,None,915.7023116999771,None,915.7023116999771,None,r,0.4142486999044195,915.7023116999771,None,0.4142486999044195,,,42 sing,001,2022_Sep_15_1056,ProdSingRedoBetween,2021.2.3,59.94495852472344,
,,,,84,0,84,0,,,,,,,,,,,,,,,,,,,,,,920.0905296000419,None,,,,,,,,,,,,,,,,,guide,130,85,sing,new,null,916.6562187999953,None,916.6562187999953,None,2,1.608135399990715,916.6562187999953,None,1.608135399990715,918.2925820000237,None,918.8058084000368,None,918.8058084000368,None,n,1.2531436000717804,918.8058084000368,None,1.2531436000717804,,,42 sing,001,2022_Sep_15_1056,ProdSingRedoBetween,2021.2.3,59.94495852472344,
,,,,85,0,85,0,,,,,,,,,,,,,,,,,,,,,,927.2780557000078,None,,,,,,,,,,,,,,,,,nature,45,86,sing,old,blue,920.5924641999882,None,920.5924641999882,None,5,5.597539499984123,920.5924641999882,None,5.597539499984123,926.2149567999877,None,926.729663999984,None,926.729663999984,None,r,0.5136503999819979,926.729663999984,None,0.5136503999819979,,,42 sing,001,2022_Sep_15_1056,ProdSingRedoBetween,2021.2.3,59.94495852472344,
,,,,86,0,86,0,,,,,,,,,,,,,,,,,,,,,,933.2710382000078,None,,,,,,,,,,,,,,,,,account,77,87,sing,old,red,927.7968326000264,None,927.7968326000264,None,4,4.655618500080891,927.7968326000264,None,4.655618500080891,932.4705581000308,None,932.9889784000115,None,932.9889784000115,None,r,0.262032900005579,932.9889784000115,None,0.262032900005579,,,42 sing,001,2022_Sep_15_1056,ProdSingRedoBetween,2021.2.3,59.94495852472344,
,,,,87,0,87,0,,,,,,,,,,,,,,,,,,,,,,941.9452713000355,None,,,,,,,,,,,,,,,,,working,117,88,sing,new,null,933.7964748999802,None,933.7964748999802,None,3,6.91241039999295,933.7964748999802,None,6.91241039999295,940.7307834000094,None,941.2446793999989,None,941.2446793999989,None,f,0.6756184999831021,941.2446793999989,None,0.6756184999831021,,,42 sing,001,2022_Sep_15_1056,ProdSingRedoBetween,2021.2.3,59.94495852472344,
,,,,88,0,88,0,,,,,,,,,,,,,,,,,,,,,,945.3823745000409,None,,,,,,,,,,,,,,,,,discussion,80,89,sing,old,red,942.4488070000662,None,942.4488070000662,None,6,1.342967399978079,942.4488070000662,None,1.342967399978079,943.8160224000458,None,944.3319214000367,None,944.3319214000367,None,r,1.0330070999916643,944.3319214000367,None,1.0330070999916643,,,42 sing,001,2022_Sep_15_1056,ProdSingRedoBetween,2021.2.3,59.94495852472344,
,,,,89,0,89,0,,,,,,,,,,,,,,,,,,,,,,955.2930964999832,None,,,,,,,,,,,,,,,,,rural,96,90,sing,new,null,945.8932196000824,None,945.8932196000824,None,6,8.612918099970557,945.8932196000824,None,8.612918099970557,954.5272899999982,None,955.0424138000235,None,955.0424138000235,None,r,0.22588489996269345,955.0424138000235,None,0.22588489996269345,,,42 sing,001,2022_Sep_15_1056,ProdSingRedoBetween,2021.2.3,59.94495852472344,
,,,,90,0,90,0,,,,,,,,,,,,,,,,,,,,,,958.4623297000071,None,,,,,,,,,,,,,,,,,straight,136,91,sing,new,null,955.8019492999883,None,955.8019492999883,None,3,1.852219199994579,955.8019492999883,None,1.852219199994579,957.6807528000791,None,958.1944775000447,None,958.1944775000447,None,f,0.2382512999465689,958.1944775000447,None,0.2382512999465689,,,42 sing,001,2022_Sep_15_1056,ProdSingRedoBetween,2021.2.3,59.94495852472344,
,,,,91,0,91,0,,,,,,,,,,,,,,,,,,,,,,962.5852115000598,None,,,,,,,,,,,,,,,,,industry,32,92,sing,old,blue,958.9647978000576,None,958.9647978000576,None,6,2.4464368999470025,958.9647978000576,None,2.4464368999470025,961.4338709000731,None,961.9498322000727,None,961.9498322000727,None,r,0.6164581999182701,961.9498322000727,None,0.6164581999182701,,,42 sing,001,2022_Sep_15_1056,ProdSingRedoBetween,2021.2.3,59.94495852472344,
,,,,92,0,92,0,,,,,,,,,,,,,,,,,,,,,,966.7203451000387,None,,,,,,,,,,,,,,,,,medicine,38,93,sing,old,blue,963.1162941000657,None,963.1162941000657,None,6,2.651834800024517,963.1162941000657,None,2.651834800024517,965.787256599986,None,966.302553000045,None,966.302553000045,None,r,0.39278819994069636,966.302553000045,None,0.39278819994069636,,,42 sing,001,2022_Sep_15_1056,ProdSingRedoBetween,2021.2.3,59.94495852472344,
,,,,93,0,93,0,,,,,,,,,,,,,,,,,,,,,,969.6073077999754,None,,,,,,,,,,,,,,,,,bicycle,68,94,sing,old,red,967.2371227999683,None,967.2371227999683,None,1,1.603335399995558,967.2371227999683,None,1.603335399995558,968.8733742000768,None,969.3778466000222,None,969.3778466000222,None,n,0.2022783999564126,969.3778466000222,None,0.2022783999564126,,,42 sing,001,2022_Sep_15_1056,ProdSingRedoBetween,2021.2.3,59.94495852472344,
,,,,94,0,94,0,,,,,,,,,,,,,,,,,,,,,,974.8130748000694,None,,,,,,,,,,,,,,,,,touch,73,95,sing,old,red,970.1241336000385,None,970.1241336000385,None,6,3.903037700103596,970.1241336000385,None,3.903037700103596,974.0453815000365,None,974.5700281000463,None,974.5700281000463,None,r,0.2103528999723494,974.5700281000463,None,0.2103528999723494,,,42 sing,001,2022_Sep_15_1056,ProdSingRedoBetween,2021.2.3,59.94495852472344,
,,,,95,0,95,0,,,,,,,,,,,,,,,,,,,,,,979.5507293000119,None,,,,,,,,,,,,,,,,,stand,41,96,sing,old,blue,975.3358140999917,None,975.3358140999917,None,3,3.4816688999999315,975.3358140999917,None,3.4816688999999315,978.8514123000205,None,979.3656359000597,None,979.3656359000597,None,f,0.1566655000206083,979.3656359000597,None,0.1566655000206083,,,42 sing,001,2022_Sep_15_1056,ProdSingRedoBetween,2021.2.3,59.94495852472344,
,,,,96,0,96,0,,,,,,,,,,,,,,,,,,,,,,990.8620415000478,None,,,,,,,,,,,,,,,,,guard,106,97,sing,new,null,980.0544665000634,None,980.0544665000634,None,3,9.906040100031532,980.0544665000634,None,9.906040100031532,989.9779274000321,None,990.4933344000019,None,990.4933344000019,None,f,0.339194200001657,990.4933344000019,None,0.339194200001657,,,42 sing,001,2022_Sep_15_1056,ProdSingRedoBetween,2021.2.3,59.94495852472344,
,,,,97,0,97,0,,,,,,,,,,,,,,,,,,,,,,995.1998506999807,None,,,,,,,,,,,,,,,,,figure,175,98,sing,new,null,991.3641853000736,None,991.3641853000736,None,2,3.201952700037509,991.3641853000736,None,3.201952700037509,994.5995995000703,None,995.1153466000687,None,995.1153466000687,None,n,0.05823259998578578,995.1153466000687,None,0.05823259998578578,,,42 sing,001,2022_Sep_15_1056,ProdSingRedoBetween,2021.2.3,59.94495852472344,
,,,,98,0,98,0,,,,,,,,,,,,,,,,,,,,,,998.4351080000633,None,,,,,,,,,,,,,,,,,opening,4,99,sing,old,yellow,995.708313500043,None,995.708313500043,None,3,1.918974999920465,995.708313500043,None,1.918974999920465,997.6603016000008,None,998.1693457000656,None,998.1693457000656,None,f,0.23870180000085384,998.1693457000656,None,0.23870180000085384,,,42 sing,001,2022_Sep_15_1056,ProdSingRedoBetween,2021.2.3,59.94495852472344,
,,,,99,0,99,0,,,,,,,,,,,,,,,,,,,,,,1001.0069179000566,None,,,,,,,,,,,,,,,,,message,148,100,sing,new,null,998.9426579000428,None,998.9426579000428,None,3,1.442613400053233,998.9426579000428,None,1.442613400053233,1000.4101997000398,None,1000.9225692000473,None,1000.9225692000473,None,f,0.051546100061386824,1000.9225692000473,None,0.051546100061386824,,,42 sing,001,2022_Sep_15_1056,ProdSingRedoBetween,2021.2.3,59.94495852472344,
,,,,100,0,100,0,,,,,,,,,,,,,,,,,,,,,,1005.59293360007,None,,,,,,,,,,,,,,,,,court,165,101,sing,new,null,1001.5241834999761,None,1001.5241834999761,None,6,2.1766606000019237,1001.5241834999761,None,2.1766606000019237,1003.7286299000261,None,1004.2405743000563,None,1004.2405743000563,None,r,1.32336210005451,1004.2405743000563,None,1.32336210005451,,,42 sing,001,2022_Sep_15_1056,ProdSingRedoBetween,2021.2.3,59.94495852472344,
,,,,101,0,101,0,,,,,,,,,,,,,,,,,,,,,,1008.71413019998,None,,,,,,,,,,,,,,,,,solution,121,102,sing,new,null,1006.094930900028,None,1006.094930900028,None,5,1.7837146999081597,1006.094930900028,None,1.7837146999081597,1007.896409500041,None,1008.4136518000159,None,1008.4136518000159,None,r,0.267333900090307,1008.4136518000159,None,0.267333900090307,,,42 sing,001,2022_Sep_15_1056,ProdSingRedoBetween,2021.2.3,59.94495852472344,
,,,,102,0,102,0,,,,,,,,,,,,,,,,,,,,,,1014.7362638000632,None,,,,,,,,,,,,,,,,,master,127,103,sing,new,null,1009.2430813000537,None,1009.2430813000537,None,5,4.7292663000989705,1009.2430813000537,None,4.7292663000989705,1014.0030020000413,None,1014.5184071999975,None,1014.5184071999975,None,r,0.19213400001171976,1014.5184071999975,None,0.19213400001171976,,,42 sing,001,2022_Sep_15_1056,ProdSingRedoBetween,2021.2.3,59.94495852472344,
,,,,103,0,103,0,,,,,,,,,,,,,,,,,,,,,,1017.2212574000005,None,,,,,,,,,,,,,,,,,incident,150,104,sing,new,null,1015.2585283999797,None,1015.2585283999797,None,6,0.9725058000767604,1015.2585283999797,None,0.9725058000767604,1016.2547683999874,None,1016.7697911000578,None,1016.7697911000578,None,r,0.4276316000614315,1016.7697911000578,None,0.4276316000614315,,,42 sing,001,2022_Sep_15_1056,ProdSingRedoBetween,2021.2.3,59.94495852472344,
,,,,104,0,104,0,,,,,,,,,,,,,,,,,,,,,,1019.9403367000632,None,,,,,,,,,,,,,,,,,shear,2,105,sing,old,yellow,1017.7238328000531,None,1017.7238328000531,None,1,1.4423822000389919,1017.7238328000531,None,1.4423822000389919,1019.1915271000471,None,1019.706397300004,None,1019.706397300004,None,n,0.212185199954547,1019.706397300004,None,0.212185199954547,,,42 sing,001,2022_Sep_15_1056,ProdSingRedoBetween,2021.2.3,59.94495852472344,
,,,,105,0,105,0,,,,,,,,,,,,,,,,,,,,,,1023.7291495000245,None,,,,,,,,,,,,,,,,,employment,116,106,sing,new,null,1020.4430324999848,None,1020.4430324999848,None,5,1.838740700040944,1020.4430324999848,None,1.838740700040944,1022.313040100038,None,1022.8261955999769,None,1022.8261955999769,None,r,0.8766397000290453,1022.8261955999769,None,0.8766397000290453,,,42 sing,001,2022_Sep_15_1056,ProdSingRedoBetween,2021.2.3,59.94495852472344,
,,,,106,0,106,0,,,,,,,,,,,,,,,,,,,,,,1026.1833754000254,None,,,,,,,,,,,,,,,,,interview,62,107,sing,old,red,1024.2579981000163,None,1024.2579981000163,None,6,1.120435299933888,1024.2579981000163,None,1.120435299933888,1025.3977730000624,None,1025.9143306000624,None,1025.9143306000624,None,r,0.249187899986282,1025.9143306000624,None,0.249187899986282,,,42 sing,001,2022_Sep_15_1056,ProdSingRedoBetween,2021.2.3,59.94495852472344,
,,,,107,0,107,0,,,,,,,,,,,,,,,,,,,,,,1029.0129871000536,None,,,,,,,,,,,,,,,,,tragedy,15,108,sing,old,yellow,1026.6984177000122,None,1026.6984177000122,None,5,1.4669272999744862,1026.6984177000122,None,1.4669272999744862,1028.184116300079,None,1028.7136465000222,None,1028.7136465000222,None,r,0.2537290999898687,1028.7136465000222,None,0.2537290999898687,,,42 sing,001,2022_Sep_15_1056,ProdSingRedoBetween,2021.2.3,59.94495852472344,
,,,,108,0,108,0,,,,,,,,,,,,,,,,,,,,,,1033.72378260002,None,,,,,,,,,,,,,,,,,military,115,109,sing,new,null,1029.525372000062,None,1029.525372000062,None,4,2.932105300016701,1029.525372000062,None,2.932105300016701,1032.488324600039,None,1033.00354960002,None,1033.00354960002,None,f,0.7005655999528244,1033.00354960002,None,0.7005655999528244,,,42 sing,001,2022_Sep_15_1056,ProdSingRedoBetween,2021.2.3,59.94495852472344,
,,,,109,0,109,0,,,,,,,,,,,,,,,,,,,,,,1038.9394168000435,None,,,,,,,,,,,,,,,,,object,63,110,sing,old,red,1034.2409462999785,None,1034.2409462999785,None,6,3.930742399999872,1034.2409462999785,None,3.930742399999872,1038.195216500084,None,1038.7097861000802,None,1038.7097861000802,None,r,0.1916767000220716,1038.7097861000802,None,0.1916767000220716,,,42 sing,001,2022_Sep_15_1056,ProdSingRedoBetween,2021.2.3,59.94495852472344,
,,,,110,0,110,0,,,,,,,,,,,,,,,,,,,,,,1041.4430483999895,None,,,,,,,,,,,,,,,,,community,31,111,sing,old,blue,1039.456587600056,None,1039.456587600056,None,6,1.1990373000735417,1039.456587600056,None,1.1990373000735417,1040.6789716000203,None,1041.1946915000444,None,1041.1946915000444,None,r,0.21538530010730028,1041.1946915000444,None,0.21538530010730028,,,42 sing,001,2022_Sep_15_1056,ProdSingRedoBetween,2021.2.3,59.94495852472344,
,,,,111,0,111,0,,,,,,,,,,,,,,,,,,,,,,1044.4163990999805,None,,,,,,,,,,,,,,,,,enemy,162,112,sing,new,null,1041.9502589000622,None,1041.9502589000622,None,3,1.8234253000700846,1041.9502589000622,None,1.8234253000700846,1043.7992524000583,None,1044.3164103999734,None,1044.3164103999734,None,f,0.06634200003463775,1044.3164103999734,None,0.06634200003463775,,,42 sing,001,2022_Sep_15_1056,ProdSingRedoBetween,2021.2.3,59.94495852472344,
,,,,112,0,112,0,,,,,,,,,,,,,,,,,,,,,,1047.3692301000701,None,,,,,,,,,,,,,,,,,direction,176,113,sing,new,null,1044.9334550000494,None,1044.9334550000494,None,3,1.6801587000954896,1044.9334550000494,None,1.6801587000954896,1046.6380677999696,None,1047.1515394999878,None,1047.1515394999878,None,f,0.19594689994119108,1047.1515394999878,None,0.19594689994119108,,,42 sing,001,2022_Sep_15_1056,ProdSingRedoBetween,2021.2.3,59.94495852472344,
,,,,113,0,113,0,,,,,,,,,,,,,,,,,,,,,,1050.7406531000743,None,,,,,,,,,,,,,,,,,captain,3,114,sing,old,yellow,1047.8934830999933,None,1047.8934830999933,None,6,2.0890465000411496,1047.8934830999933,None,2.0890465000411496,1050.0133916999912,None,1050.5344607000006,None,1050.5344607000006,None,r,0.17842609994113445,1050.5344607000006,None,0.17842609994113445,,,42 sing,001,2022_Sep_15_1056,ProdSingRedoBetween,2021.2.3,59.94495852472344,
,,,,114,0,114,0,,,,,,,,,,,,,,,,,,,,,,1053.8970121999737,None,,,,,,,,,,,,,,,,,hearing,11,115,sing,old,yellow,1051.2568861000473,None,1051.2568861000473,None,5,1.8614024000708014,1051.2568861000473,None,1.8614024000708014,1053.1424562999746,None,1053.6584813999943,None,1053.6584813999943,None,r,0.2104336000047624,1053.6584813999943,None,0.2104336000047624,,,42 sing,001,2022_Sep_15_1056,ProdSingRedoBetween,2021.2.3,59.94495852472344,
,,,,115,0,115,0,,,,,,,,,,,,,,,,,,,,,,1056.6642630000133,None,,,,,,,,,,,,,,,,,order,122,116,sing,new,null,1054.4112931999844,None,1054.4112931999844,None,6,1.5851178000448272,1054.4112931999844,None,1.5851178000448272,1056.0388756999746,None,1056.5441535999998,None,1056.5441535999998,None,r,0.09410540002863854,1056.5441535999998,None,0.09410540002863854,,,42 sing,001,2022_Sep_15_1056,ProdSingRedoBetween,2021.2.3,59.94495852472344,
,,,,116,0,116,0,,,,,,,,,,,,,,,,,,,,,,1060.230563600082,None,,,,,,,,,,,,,,,,,individual,170,117,sing,new,null,1057.179191000061,None,1057.179191000061,None,6,1.484936600085348,1057.179191000061,None,1.484936600085348,1058.6964996000752,None,1059.2125027000438,None,1059.2125027000438,None,r,1.0004861000925303,1059.2125027000438,None,1.0004861000925303,,,42 sing,001,2022_Sep_15_1056,ProdSingRedoBetween,2021.2.3,59.94495852472344,
,,,,117,0,117,0,,,,,,,,,,,,,,,,,,,,,,1063.4684685000684,None,,,,,,,,,,,,,,,,,thick,139,118,sing,new,null,1060.733715499984,None,1060.733715499984,None,1,1.58106889994815,1060.733715499984,None,1.58106889994815,1062.3345491000218,None,1062.84921200003,None,1062.84921200003,None,n,0.5996155999600887,1062.84921200003,None,0.5996155999600887,,,42 sing,001,2022_Sep_15_1056,ProdSingRedoBetween,2021.2.3,59.94495852472344,
,,,,118,0,118,0,,,,,,,,,,,,,,,,,,,,,,1066.3373776000226,None,,,,,,,,,,,,,,,,,blind,90,119,sing,new,null,1063.9868785999715,None,1063.9868785999715,None,6,1.4566549999872223,1063.9868785999715,None,1.4566549999872223,1065.4703981999774,None,1065.9941549000796,None,1065.9941549000796,None,r,0.3148824000963941,1065.9941549000796,None,0.3148824000963941,,,42 sing,001,2022_Sep_15_1056,ProdSingRedoBetween,2021.2.3,59.94495852472344,
,,,,119,0,119,0,,,,,,,,,,,,,,,,,,,,,,1070.0911181999836,None,,,,,,,,,,,,,,,,,corner,103,120,sing,new,null,1066.8489703000523,None,1066.8489703000523,None,2,2.5282626999542117,1066.8489703000523,None,2.5282626999542117,1069.4082230000058,None,1069.9234048000071,None,1069.9234048000071,None,n,0.14385989995207638,1069.9234048000071,None,0.14385989995207638,,,42 sing,001,2022_Sep_15_1056,ProdSingRedoBetween,2021.2.3,59.94495852472344,
,,,,120,0,120,0,,,,,,,,,,,,,,,,,,,,,,1072.241680099978,None,,,,,,,,,,,,,,,,,department,16,121,sing,old,yellow,1070.6033869000385,None,1070.6033869000385,None,6,1.0022723000729457,1070.6033869000385,None,1.0022723000729457,1071.6357534000417,None,1072.1422762000002,None,1072.1422762000002,None,r,0.07736910006497055,1072.1422762000002,None,0.07736910006497055,,,42 sing,001,2022_Sep_15_1056,ProdSingRedoBetween,2021.2.3,59.94495852472344,
,,,,121,0,121,0,,,,,,,,,,,,,,,,,,,,,,1075.196194200078,None,,,,,,,,,,,,,,,,,place,120,122,sing,new,null,1072.745256699971,None,1072.745256699971,None,3,1.7343087999615818,1072.745256699971,None,1.7343087999615818,1074.5133478000062,None,1075.0322112999856,None,1075.0322112999856,None,f,0.1345675999764353,1075.0322112999856,None,0.1345675999764353,,,42 sing,001,2022_Sep_15_1056,ProdSingRedoBetween,2021.2.3,59.94495852472344,
,,,,122,0,122,0,,,,,,,,,,,,,,,,,,,,,,1078.2662194999866,None,,,,,,,,,,,,,,,,,fashion,72,123,sing,old,red,1075.698297600029,None,1075.698297600029,None,5,1.8852751998929307,1075.698297600029,None,1.8852751998929307,1077.6160441000247,None,1078.1315307000186,None,1078.1315307000186,None,r,0.1042375999968499,1078.1315307000186,None,0.1042375999968499,,,42 sing,001,2022_Sep_15_1056,ProdSingRedoBetween,2021.2.3,59.94495852472344,
,,,,123,0,123,0,,,,,,,,,,,,,,,,,,,,,,1081.002401900012,None,,,,,,,,,,,,,,,,,public,27,124,sing,old,yellow,1078.7836700000335,None,1078.7836700000335,None,3,1.5614600999979302,1078.7836700000335,None,1.5614600999979302,1080.3697071999777,None,1080.8844094000524,None,1080.8844094000524,None,f,0.09258090006187558,1080.8844094000524,None,0.09258090006187558,,,42 sing,001,2022_Sep_15_1056,ProdSingRedoBetween,2021.2.3,59.94495852472344,
,,,,124,0,124,0,,,,,,,,,,,,,,,,,,,,,,1084.4850680000382,None,,,,,,,,,,,,,,,,,evidence,61,125,sing,old,red,1081.5195147000486,None,1081.5195147000486,None,5,1.7057999999960884,1081.5195147000486,None,1.7057999999960884,1083.2548857000656,None,1083.7709371000528,None,1083.7709371000528,None,r,0.6756838000146672,1083.7709371000528,None,0.6756838000146672,,,42 sing,001,2022_Sep_15_1056,ProdSingRedoBetween,2021.2.3,59.94495852472344,
,,,,125,0,125,0,,,,,,,,,,,,,,,,,,,,,,1088.0245361999841,None,,,,,,,,,,,,,,,,,income,9,126,sing,old,yellow,1084.9884161000373,None,1084.9884161000373,None,6,2.1052418999606743,1084.9884161000373,None,2.1052418999606743,1087.1262302000541,None,1087.640202700044,None,1087.640202700044,None,r,0.3686253000050783,1087.640202700044,None,0.3686253000050783,,,42 sing,001,2022_Sep_15_1056,ProdSingRedoBetween,2021.2.3,59.94495852472344,
,,,,126,0,126,0,,,,,,,,,,,,,,,,,,,,,,1092.3295293999836,None,,,,,,,,,,,,,,,,,review,13,127,sing,old,yellow,1088.5339630000526,None,1088.5339630000526,None,4,2.9254397000186145,1088.5339630000526,None,2.9254397000186145,1091.4806888999883,None,1091.9955757000716,None,1091.9955757000716,None,f,0.3098289000336081,1091.9955757000716,None,0.3098289000336081,,,42 sing,001,2022_Sep_15_1056,ProdSingRedoBetween,2021.2.3,59.94495852472344,
,,,,127,0,127,0,,,,,,,,,,,,,,,,,,,,,,1096.4671447,None,,,,,,,,,,,,,,,,,thing,40,128,sing,old,blue,1092.8404877000721,None,1092.8404877000721,None,3,2.8539289000909775,1092.8404877000721,None,2.8539289000909775,1095.717035299982,None,1096.2325109000085,None,1096.2325109000085,None,f,0.20569959993008524,1096.2325109000085,None,0.20569959993008524,,,42 sing,001,2022_Sep_15_1056,ProdSingRedoBetween,2021.2.3,59.94495852472344,
,,,,128,0,128,0,,,,,,,,,,,,,,,,,,,,,,1100.2534878000151,None,,,,,,,,,,,,,,,,,smell,87,129,sing,old,red,1096.974466899992,None,1096.974466899992,None,1,1.8454818000318483,1096.974466899992,None,1.8454818000318483,1098.8366397999926,None,1099.3371063000523,None,1099.3371063000523,None,n,0.8854367999592796,1099.3371063000523,None,0.8854367999592796,,,42 sing,001,2022_Sep_15_1056,ProdSingRedoBetween,2021.2.3,59.94495852472344,
,,,,129,0,129,0,,,,,,,,,,,,,,,,,,,,,,1102.6904733000556,None,,,,,,,,,,,,,,,,,volume,20,130,sing,old,yellow,1100.7746798000298,None,1100.7746798000298,None,6,1.1294981999089941,1100.7746798000298,None,1.1294981999089941,1101.9321534000337,None,1102.439230500022,None,1102.439230500022,None,r,0.22472199995536357,1102.439230500022,None,0.22472199995536357,,,42 sing,001,2022_Sep_15_1056,ProdSingRedoBetween,2021.2.3,59.94495852472344,
,,,,130,0,130,0,,,,,,,,,,,,,,,,,,,,,,1105.4265627000714,None,,,,,,,,,,,,,,,,,primary,22,131,sing,old,yellow,1103.1927825000603,None,1103.1927825000603,None,6,1.5491170000750571,1103.1927825000603,None,1.5491170000750571,1104.7603956999956,None,1105.2747470000759,None,1105.2747470000759,None,r,0.12048100004903972,1105.2747470000759,None,0.12048100004903972,,,42 sing,001,2022_Sep_15_1056,ProdSingRedoBetween,2021.2.3,59.94495852472344,
,,,,131,0,131,0,,,,,,,,,,,,,,,,,,,,,,1110.283420199994,None,,,,,,,,,,,,,,,,,route,169,132,sing,new,null,1105.927480500075,None,1105.927480500075,None,1,3.7296459999633953,1105.927480500075,None,3.7296459999633953,1109.6855894000037,None,1110.1968412999995,None,1110.1968412999995,None,n,0.057131499983370304,1110.1968412999995,None,0.057131499983370304,,,42 sing,001,2022_Sep_15_1056,ProdSingRedoBetween,2021.2.3,59.94495852472344,
,,,,132,0,132,0,,,,,,,,,,,,,,,,,,,,,,1113.4848448999692,None,,,,,,,,,,,,,,,,,drama,85,133,sing,old,red,1110.8171869000653,None,1110.8171869000653,None,2,1.8301478999201208,1110.8171869000653,None,1.8301478999201208,1112.6684921999695,None,1113.1972042999696,None,1113.1972042999696,None,n,0.2621351999696344,1113.1972042999696,None,0.2621351999696344,,,42 sing,001,2022_Sep_15_1056,ProdSingRedoBetween,2021.2.3,59.94495852472344,
,,,,133,0,133,0,,,,,,,,,,,,,,,,,,,,,,1118.52202090004,None,,,,,,,,,,,,,,,,,heavy,50,134,sing,old,blue,1114.0020348000107,None,1114.0020348000107,None,2,3.76363569998648,1114.0020348000107,None,3.76363569998648,1117.7916166000068,None,1118.3053477000212,None,1118.3053477000212,None,n,0.19963079993613064,1118.3053477000212,None,0.19963079993613064,,,42 sing,001,2022_Sep_15_1056,ProdSingRedoBetween,2021.2.3,59.94495852472344,
,,,,134,0,134,0,,,,,,,,,,,,,,,,,,,,,,1121.2244121000404,None,,,,,,,,,,,,,,,,,people,152,135,sing,new,null,1119.026277499972,None,1119.026277499972,None,2,1.513327999971807,1119.026277499972,None,1.513327999971807,1120.5686230000574,None,1121.0752197999973,None,1121.0752197999973,None,n,0.12967459997162223,1121.0752197999973,None,0.12967459997162223,,,42 sing,001,2022_Sep_15_1056,ProdSingRedoBetween,2021.2.3,59.94495852472344,
,,,,135,0,135,0,,,,,,,,,,,,,,,,,,,,,,1123.5020817000186,None,,,,,,,,,,,,,,,,,theme,99,136,sing,new,null,1121.7321172000375,None,1121.7321172000375,None,3,1.1707481999183074,1121.7321172000375,None,1.1707481999183074,1122.929033900029,None,1123.4531117000151,None,1123.4531117000151,None,f,0.021715100039727986,1123.4531117000151,None,0.021715100039727986,,,42 sing,001,2022_Sep_15_1056,ProdSingRedoBetween,2021.2.3,59.94495852472344,
,,,,136,0,136,0,,,,,,,,,,,,,,,,,,,,,,1126.797573100077,None,,,,,,,,,,,,,,,,,cousin,98,137,sing,new,null,1124.0154225999722,None,1124.0154225999722,None,1,2.012057999963872,1124.0154225999722,None,2.012057999963872,1126.047861100058,None,1126.5633271000115,None,1126.5633271000115,None,n,0.21667390002403408,1126.5633271000115,None,0.21667390002403408,,,42 sing,001,2022_Sep_15_1056,ProdSingRedoBetween,2021.2.3,59.94495852472344,
,,,,137,0,137,0,,,,,,,,,,,,,,,,,,,,,,1133.1977295000106,None,,,,,,,,,,,,,,,,,silence,111,138,sing,new,null,1127.2995673000114,None,1127.2995673000114,None,2,5.0872608999488875,1127.2995673000114,None,5.0872608999488875,1132.4088915999746,None,1132.9334289999679,None,1132.9334289999679,None,n,0.24201140005607158,1132.9334289999679,None,0.24201140005607158,,,42 sing,001,2022_Sep_15_1056,ProdSingRedoBetween,2021.2.3,59.94495852472344,
,,,,138,0,138,0,,,,,,,,,,,,,,,,,,,,,,1136.006223400007,None,,,,,,,,,,,,,,,,,alert,131,139,sing,new,null,1133.7051022000378,None,1133.7051022000378,None,1,1.504330400028266,1133.7051022000378,None,1.504330400028266,1135.2398931999924,None,1135.748954400071,None,1135.748954400071,None,n,0.23564209998585284,1135.748954400071,None,0.23564209998585284,,,42 sing,001,2022_Sep_15_1056,ProdSingRedoBetween,2021.2.3,59.94495852472344,
,,,,139,0,139,0,,,,,,,,,,,,,,,,,,,,,,1138.9272056000773,None,,,,,,,,,,,,,,,,,orchestra,6,140,sing,old,yellow,1136.5088704000227,None,1136.5088704000227,None,6,1.3932095000054687,1136.5088704000227,None,1.3932095000054687,1137.9276913000504,None,1138.4425170000177,None,1138.4425170000177,None,r,0.451203600037843,1138.4425170000177,None,0.451203600037843,,,42 sing,001,2022_Sep_15_1056,ProdSingRedoBetween,2021.2.3,59.94495852472344,
,,,,140,0,140,0,,,,,,,,,,,,,,,,,,,,,,1142.0302694999846,None,,,,,,,,,,,,,,,,,height,60,141,sing,old,red,1139.4479327000445,None,1139.4479327000445,None,3,1.7401554000098258,1139.4479327000445,None,1.7401554000098258,1141.2181952000828,None,1141.7297067000763,None,1141.7297067000763,None,f,0.27258420002181083,1141.7297067000763,None,0.27258420002181083,,,42 sing,001,2022_Sep_15_1056,ProdSingRedoBetween,2021.2.3,59.94495852472344,
,,,,141,0,141,0,,,,,,,,,,,,,,,,,,,,,,1144.7491409999784,None,,,,,,,,,,,,,,,,,still,86,142,sing,old,red,1142.5475589999696,None,1142.5475589999696,None,1,1.1341395999770612,1142.5475589999696,None,1.1341395999770612,1143.6984533000505,None,1144.2140053000767,None,1144.2140053000767,None,n,0.517396799987182,1144.2140053000767,None,0.517396799987182,,,42 sing,001,2022_Sep_15_1056,ProdSingRedoBetween,2021.2.3,59.94495852472344,
,,,,142,0,142,0,,,,,,,,,,,,,,,,,,,,,,1147.2861670000711,None,,,,,,,,,,,,,,,,,drink,95,143,sing,new,null,1145.266970800003,None,1145.266970800003,None,1,1.2706390999956056,1145.266970800003,None,1.2706390999956056,1146.5690464000218,None,1147.091515099979,None,1147.091515099979,None,n,0.16193830000702292,1147.091515099979,None,0.16193830000702292,,,42 sing,001,2022_Sep_15_1056,ProdSingRedoBetween,2021.2.3,59.94495852472344,
,,,,143,0,143,0,,,,,,,,,,,,,,,,,,,,,,1149.7373445000267,None,,,,,,,,,,,,,,,,,oxygen,154,144,sing,new,null,1147.8100244000088,None,1147.8100244000088,None,1,1.133220500079915,1147.8100244000088,None,1.133220500079915,1148.969908399973,None,1149.4861099000555,None,1149.4861099000555,None,n,0.22012369998265058,1149.4861099000555,None,0.22012369998265058,,,42 sing,001,2022_Sep_15_1056,ProdSingRedoBetween,2021.2.3,59.94495852472344,
,,,,144,0,144,0,,,,,,,,,,,,,,,,,,,,,,1152.0717609999701,None,,,,,,,,,,,,,,,,,answer,8,145,sing,old,yellow,1150.2392571000382,None,1150.2392571000382,None,1,1.1610854000318795,1150.2392571000382,None,1.1610854000318795,1151.4235318000428,None,1151.9381011000369,None,1151.9381011000369,None,n,0.10452900000382215,1151.9381011000369,None,0.10452900000382215,,,42 sing,001,2022_Sep_15_1056,ProdSingRedoBetween,2021.2.3,59.94495852472344,
,,,,145,0,145,0,,,,,,,,,,,,,,,,,,,,,,1154.8103279999923,None,,,,,,,,,,,,,,,,,household,33,146,sing,old,blue,1152.574953100062,None,1152.574953100062,None,1,1.4835412000538781,1152.574953100062,None,1.4835412000538781,1154.0763827000046,None,1154.591688000015,None,1154.591688000015,None,n,0.18931279995013028,1154.591688000015,None,0.18931279995013028,,,42 sing,001,2022_Sep_15_1056,ProdSingRedoBetween,2021.2.3,59.94495852472344,
,,,,146,0,146,0,,,,,,,,,,,,,,,,,,,,,,1158.3123793000123,None,,,,,,,,,,,,,,,,,course,7,147,sing,old,yellow,1155.339219500078,None,1155.339219500078,None,2,2.0438473999965936,1155.339219500078,None,2.0438473999965936,1157.4125324999914,None,1157.9285042000702,None,1157.9285042000702,None,n,0.36371810000855476,1157.9285042000702,None,0.36371810000855476,,,42 sing,001,2022_Sep_15_1056,ProdSingRedoBetween,2021.2.3,59.94495852472344,
,,,,147,0,147,0,,,,,,,,,,,,,,,,,,,,,,1161.4540526000783,None,,,,,,,,,,,,,,,,,signal,70,148,sing,old,red,1158.821576400078,None,1158.821576400078,None,4,1.8770700000459328,1158.821576400078,None,1.8770700000459328,1160.7316973999841,None,1161.2322686000261,None,1161.2322686000261,None,f,0.19889839994721115,1161.2322686000261,None,0.19889839994721115,,,42 sing,001,2022_Sep_15_1056,ProdSingRedoBetween,2021.2.3,59.94495852472344,
,,,,148,0,148,0,,,,,,,,,,,,,,,,,,,,,,1165.219253999996,None,,,,,,,,,,,,,,,,,equipment,137,149,sing,new,null,1161.9711300000781,None,1161.9711300000781,None,2,2.6074732000706717,1161.9711300000781,None,2.6074732000706717,1164.606138400035,None,1165.1193351000547,None,1165.1193351000547,None,n,0.07205850002355874,1165.1193351000547,None,0.07205850002355874,,,42 sing,001,2022_Sep_15_1056,ProdSingRedoBetween,2021.2.3,59.94495852472344,
,,,,149,0,149,0,,,,,,,,,,,,,,,,,,,,,,1169.589407499996,None,,,,,,,,,,,,,,,,,leader,97,150,sing,new,null,1165.721895399969,None,1165.721895399969,None,2,3.0494212000630796,1165.721895399969,None,3.0494212000630796,1168.790012900019,None,1169.289655199973,None,1169.289655199973,None,n,0.275408299989067,1169.289655199973,None,0.275408299989067,,,42 sing,001,2022_Sep_15_1056,ProdSingRedoBetween,2021.2.3,59.94495852472344,
,,,,150,0,150,0,,,,,,,,,,,,,,,,,,,,,,1172.009406200028,None,,,,,,,,,,,,,,,,,produce,67,151,sing,old,red,1170.0997345000505,None,1170.0997345000505,None,6,1.1574548999778926,1170.0997345000505,None,1.1574548999778926,1171.2764386000345,None,1171.7928739000345,None,1171.7928739000345,None,r,0.1964256000937894,1171.7928739000345,None,0.1964256000937894,,,42 sing,001,2022_Sep_15_1056,ProdSingRedoBetween,2021.2.3,59.94495852472344,
,,,,151,0,151,0,,,,,,,,,,,,,,,,,,,,,,1175.4917297000065,None,,,,,,,,,,,,,,,,,number,164,152,sing,new,null,1172.5151468999684,None,1172.5151468999684,None,5,2.1233445000834763,1172.5151468999684,None,2.1233445000834763,1174.663156200084,None,1175.177749400027,None,1175.177749400027,None,r,0.2740859999321401,1175.177749400027,None,0.2740859999321401,,,42 sing,001,2022_Sep_15_1056,ProdSingRedoBetween,2021.2.3,59.94495852472344,
,,,,152,0,152,0,,,,,,,,,,,,,,,,,,,,,,1178.7339755999856,None,,,,,,,,,,,,,,,,,disease,147,153,sing,new,null,1175.9994093000423,None,1175.9994093000423,None,5,1.8782685999758542,1175.9994093000423,None,1.8782685999758542,1177.9006850000005,None,1178.415219800081,None,1178.415219800081,None,r,0.30107250006403774,1178.415219800081,None,0.30107250006403774,,,42 sing,001,2022_Sep_15_1056,ProdSingRedoBetween,2021.2.3,59.94495852472344,
,,,,153,0,153,0,,,,,,,,,,,,,,,,,,,,,,1185.60698520008,None,,,,,,,,,,,,,,,,,report,65,154,sing,old,red,1179.2510323000606,None,1179.2510323000606,None,5,5.67911849997472,1179.2510323000606,None,5.67911849997472,1184.9576604000758,None,1185.4723160000285,None,1185.4723160000285,None,r,0.11694159999024123,1185.4723160000285,None,0.11694159999024123,,,42 sing,001,2022_Sep_15_1056,ProdSingRedoBetween,2021.2.3,59.94495852472344,
,,,,154,0,154,0,,,,,,,,,,,,,,,,,,,,,,1188.6413821000606,None,,,,,,,,,,,,,,,,,portion,144,155,sing,new,null,1186.1292565000476,None,1186.1292565000476,None,3,1.730915499967523,1186.1292565000476,None,1.730915499967523,1187.8930527999764,None,1188.4084770000773,None,1188.4084770000773,None,f,0.20871949999127537,1188.4084770000773,None,0.20871949999127537,,,42 sing,001,2022_Sep_15_1056,ProdSingRedoBetween,2021.2.3,59.94495852472344,
,,,,155,0,155,0,,,,,,,,,,,,,,,,,,,,,,1190.946386500029,None,,,,,,,,,,,,,,,,,problem,167,156,sing,new,null,1189.1455384000437,None,1189.1455384000437,None,5,1.130336400005035,1189.1455384000437,None,1.130336400005035,1190.2970302000176,None,1190.8102458000649,None,1190.8102458000649,None,r,0.11542030004784465,1190.8102458000649,None,0.11542030004784465,,,42 sing,001,2022_Sep_15_1056,ProdSingRedoBetween,2021.2.3,59.94495852472344,
,,,,156,0,156,0,,,,,,,,,,,,,,,,,,,,,,1193.847109699971,None,,,,,,,,,,,,,,,,,distance,172,157,sing,new,null,1191.462823400041,None,1191.462823400041,None,6,1.5146145999897271,1191.462823400041,None,1.5146145999897271,1192.9993390999734,None,1193.516710900003,None,1193.516710900003,None,r,0.31329389999154955,1193.516710900003,None,0.31329389999154955,,,42 sing,001,2022_Sep_15_1056,ProdSingRedoBetween,2021.2.3,59.94495852472344,
,,,,157,0,157,0,,,,,,,,,,,,,,,,,,,,,,1196.451215500012,None,,,,,,,,,,,,,,,,,election,123,158,sing,new,null,1194.3555267000338,None,1194.3555267000338,None,5,1.284649599925615,1194.3555267000338,None,1.284649599925615,1195.6692420999752,None,1196.1835371999769,None,1196.1835371999769,None,r,0.24839099997188896,1196.1835371999769,None,0.24839099997188896,,,42 sing,001,2022_Sep_15_1056,ProdSingRedoBetween,2021.2.3,59.94495852472344,
,,,,158,0,158,0,,,,,,,,,,,,,,,,,,,,,,1203.1406855999958,None,,,,,,,,,,,,,,,,,beginning,151,159,sing,new,null,1196.9691030000104,None,1196.9691030000104,None,3,5.526348799932748,1196.9691030000104,None,5.526348799932748,1202.523873600061,None,1203.038904300076,None,1203.038904300076,None,f,0.07566039997618645,1203.038904300076,None,0.07566039997618645,,,42 sing,001,2022_Sep_15_1056,ProdSingRedoBetween,2021.2.3,59.94495852472344,
,,,,159,0,159,0,,,,,,,,,,,,,,,,,,,,,,1205.5435100999894,None,,,,,,,,,,,,,,,,,force,126,160,sing,new,null,1203.6603378000436,None,1203.6603378000436,None,3,1.16849509999156,1203.6603378000436,None,1.16849509999156,1204.8598452999722,None,1205.3754087999696,None,1205.3754087999696,None,f,0.15090909996069968,1205.3754087999696,None,0.15090909996069968,,,42 sing,001,2022_Sep_15_1056,ProdSingRedoBetween,2021.2.3,59.94495852472344,
,,,,160,0,160,0,,,,,,,,,,,,,,,,,,,,,,1211.1490960000083,None,,,,,,,,,,,,,,,,,fight,55,161,sing,old,blue,1206.0456022999715,None,1206.0456022999715,None,6,4.504221900017001,1206.0456022999715,None,4.504221900017001,1210.5838421999943,None,1211.0979730000254,None,1211.0979730000254,None,r,0.020188599941320717,1211.0979730000254,None,0.020188599941320717,,,42 sing,001,2022_Sep_15_1056,ProdSingRedoBetween,2021.2.3,59.94495852472344,
,,,,161,0,161,0,,,,,,,,,,,,,,,,,,,,,,1215.5201828000136,None,,,,,,,,,,,,,,,,,benefit,56,162,sing,old,blue,1211.6680027999682,None,1211.6680027999682,None,6,2.3677535998867825,1211.6680027999682,None,2.3677535998867825,1214.0686278999783,None,1214.5842024000594,None,1214.5842024000594,None,r,0.9119014000752941,1214.5842024000594,None,0.9119014000752941,,,42 sing,001,2022_Sep_15_1056,ProdSingRedoBetween,2021.2.3,59.94495852472344,
,,,,162,0,162,0,,,,,,,,,,,,,,,,,,,,,,1219.6401888000546,None,,,,,,,,,,,,,,,,,junior,129,163,sing,new,null,1216.0372205000604,None,1216.0372205000604,None,3,1.5567321999697015,1216.0372205000604,None,1.5567321999697015,1217.62590860005,None,1218.1374947000295,None,1218.1374947000295,None,f,1.4731075000017881,1218.1374947000295,None,1.4731075000017881,,,42 sing,001,2022_Sep_15_1056,ProdSingRedoBetween,2021.2.3,59.94495852472344,
,,,,163,0,163,0,,,,,,,,,,,,,,,,,,,,,,1222.3776829000562,None,,,,,,,,,,,,,,,,,permit,82,164,sing,old,red,1220.1424654000439,None,1220.1424654000439,None,6,1.1637645000591874,1220.1424654000439,None,1.1637645000591874,1221.3264863999793,None,1221.8417794000125,None,1221.8417794000125,None,r,0.5099060999928042,1221.8417794000125,None,0.5099060999928042,,,42 sing,001,2022_Sep_15_1056,ProdSingRedoBetween,2021.2.3,59.94495852472344,
,,,,164,0,164,0,,,,,,,,,,,,,,,,,,,,,,1225.1294463999802,None,,,,,,,,,,,,,,,,,trend,125,165,sing,new,null,1222.8935297999997,None,1222.8935297999997,None,3,1.367782299988903,1222.8935297999997,None,1.367782299988903,1224.2796982000582,None,1224.7958850000286,None,1224.7958850000286,None,f,0.30289449996780604,1224.7958850000286,None,0.30289449996780604,,,42 sing,001,2022_Sep_15_1056,ProdSingRedoBetween,2021.2.3,59.94495852472344,
,,,,165,0,165,0,,,,,,,,,,,,,,,,,,,,,,1228.9670489999698,None,,,,,,,,,,,,,,,,,balance,156,166,sing,new,null,1225.6471831999952,None,1225.6471831999952,None,2,2.5119576000142843,1225.6471831999952,None,2.5119576000142843,1228.1840864999685,None,1228.698433500016,None,1228.698433500016,None,n,0.23594639997463673,1228.698433500016,None,0.23594639997463673,,,42 sing,001,2022_Sep_15_1056,ProdSingRedoBetween,2021.2.3,59.94495852472344,
,,,,166,0,166,0,,,,,,,,,,,,,,,,,,,,,,1232.1354447000194,None,,,,,,,,,,,,,,,,,service,54,167,sing,old,blue,1229.4847071999684,None,1229.4847071999684,None,6,1.7746030000271276,1229.4847071999684,None,1.7746030000271276,1231.286693800008,None,1231.8101813000394,None,1231.8101813000394,None,r,0.3094674999592826,1231.8101813000394,None,0.3094674999592826,,,42 sing,001,2022_Sep_15_1056,ProdSingRedoBetween,2021.2.3,59.94495852472344,
,,,,167,0,167,0,,,,,,,,,,,,,,,,,,,,,,1237.5582096000435,None,,,,,,,,,,,,,,,,,trash,89,168,sing,old,red,1232.63838150003,None,1232.63838150003,None,5,4.087086300016381,1232.63838150003,None,4.087086300016381,1236.7585855000652,None,1237.273403499974,None,1237.273403499974,None,r,0.26605199999175966,1237.273403499974,None,0.26605199999175966,,,42 sing,001,2022_Sep_15_1056,ProdSingRedoBetween,2021.2.3,59.94495852472344,
,,,,168,0,168,0,,,,,,,,,,,,,,,,,,,,,,1240.1777100000763,None,,,,,,,,,,,,,,,,,addition,23,169,sing,old,yellow,1238.0597170999972,None,1238.0597170999972,None,1,1.36159129999578,1238.0597170999972,None,1.36159129999578,1239.4456285000779,None,1239.9617950000102,None,1239.9617950000102,None,n,0.19757990003563464,1239.9617950000102,None,0.19757990003563464,,,42 sing,001,2022_Sep_15_1056,ProdSingRedoBetween,2021.2.3,59.94495852472344,
,,,,169,0,169,0,,,,,,,,,,,,,,,,,,,,,,1242.8629503999837,None,,,,,,,,,,,,,,,,,waste,138,170,sing,new,null,1240.6953723999904,None,1240.6953723999904,None,1,1.4339792999671772,1240.6953723999904,None,1.4339792999671772,1242.148086400004,None,1242.662773200078,None,1242.662773200078,None,n,0.1751961000263691,1242.662773200078,None,0.1751961000263691,,,42 sing,001,2022_Sep_15_1056,ProdSingRedoBetween,2021.2.3,59.94495852472344,
,,,,170,0,170,0,,,,,,,,,,,,,,,,,,,,,,1246.4848458999768,None,,,,,,,,,,,,,,,,,taste,155,171,sing,new,null,1243.3662731000222,None,1243.3662731000222,None,5,2.250478099915199,1243.3662731000222,None,2.250478099915199,1245.6348077000584,None,1246.1490441000788,None,1246.1490441000788,None,r,0.30991039995569736,1246.1490441000788,None,0.30991039995569736,,,42 sing,001,2022_Sep_15_1056,ProdSingRedoBetween,2021.2.3,59.94495852472344,
,,,,171,0,171,0,,,,,,,,,,,,,,,,,,,,,,1249.904403100023,None,,,,,,,,,,,,,,,,,measure,108,172,sing,new,null,1247.0100639000302,None,1247.0100639000302,None,5,2.092351399944164,1247.0100639000302,None,2.092351399944164,1249.1222544000484,None,1249.635845300043,None,1249.635845300043,None,r,0.25171960005536675,1249.635845300043,None,0.25171960005536675,,,42 sing,001,2022_Sep_15_1056,ProdSingRedoBetween,2021.2.3,59.94495852472344,
,,,,172,0,172,0,,,,,,,,,,,,,,,,,,,,,,1256.210629499983,None,,,,,,,,,,,,,,,,,relation,29,173,sing,old,blue,1250.4214426000835,None,1250.4214426000835,None,3,4.9765322000021115,1250.4214426000835,None,4.9765322000021115,1255.427835999988,None,1255.9426987000043,None,1255.9426987000043,None,f,0.24713289993815124,1255.9426987000043,None,0.24713289993815124,,,42 sing,001,2022_Sep_15_1056,ProdSingRedoBetween,2021.2.3,59.94495852472344,
,,,,173,0,173,0,,,,,,,,,,,,,,,,,,,,,,1258.812992400024,None,,,,,,,,,,,,,,,,,research,133,174,sing,new,null,1256.7279218999902,None,1256.7279218999902,None,5,1.3427595000248402,1256.7279218999902,None,1.3427595000248402,1258.0973222000757,None,1258.6114917000523,None,1258.6114917000523,None,r,0.1812850000569597,1258.6114917000523,None,0.1812850000569597,,,42 sing,001,2022_Sep_15_1056,ProdSingRedoBetween,2021.2.3,59.94495852472344,
,,,,174,0,174,0,,,,,,,,,,,,,,,,,,,,,,1261.6908028000034,None,,,,,,,,,,,,,,,,,expansion,158,175,sing,new,null,1259.3431434000377,None,1259.3431434000377,None,1,1.486404399969615,1259.3431434000377,None,1.486404399969615,1260.8522252000403,None,1261.3651094000088,None,1261.3651094000088,None,n,0.2950627999380231,1261.3651094000088,None,0.2950627999380231,,,42 sing,001,2022_Sep_15_1056,ProdSingRedoBetween,2021.2.3,59.94495852472344,
,,,,175,0,175,0,,,,,,,,,,,,,,,,,,,,,,1266.8043531000149,None,,,,,,,,,,,,,,,,,command,128,176,sing,new,null,1262.2019419000717,None,1262.2019419000717,None,2,3.886337099946104,1262.2019419000717,None,3.886337099946104,1266.1206475000363,None,1266.6211580000818,None,1266.6211580000818,None,n,0.15904579998459667,1266.6211580000818,None,0.15904579998459667,,,42 sing,001,2022_Sep_15_1056,ProdSingRedoBetween,2021.2.3,59.94495852472344,
,,,,176,0,176,0,,,,,,,,,,,,,,,,,,,,,,1269.774437700049,None,,,,,,,,,,,,,,,,,surprise,168,177,sing,new,null,1267.310213400051,None,1267.310213400051,None,2,1.6305745999561623,1267.310213400051,None,1.6305745999561623,1268.9735399000347,None,1269.4764671999728,None,1269.4764671999728,None,n,0.27167579997330904,1269.4764671999728,None,0.27167579997330904,,,42 sing,001,2022_Sep_15_1056,ProdSingRedoBetween,2021.2.3,59.94495852472344,
,,,,177,0,177,0,,,,,,,,,,,,,,,,,,,,,,1276.7484207000816,None,,,,,,,,,,,,,,,,,revolution,132,178,sing,new,null,1270.3041080000112,None,1270.3041080000112,None,2,5.645881999982521,1270.3041080000112,None,5.645881999982521,1275.9819538000738,None,1276.4979822000023,None,1276.4979822000023,None,n,0.2182353000389412,1276.4979822000023,None,0.2182353000389412,,,42 sing,001,2022_Sep_15_1056,ProdSingRedoBetween,2021.2.3,59.94495852472344,
