StudyLoop.thisRepN,StudyLoop.thisTrialN,StudyLoop.thisN,StudyLoop.thisIndex,TestLoop.thisRepN,TestLoop.thisTrialN,TestLoop.thisN,TestLoop.thisIndex,textCondition.started,textCondition.stopped,keyCondition.keys,keyCondition.rt,keyCondition.started,keyCondition.stopped,Condition,textWelcome.started,textWelcome.stopped,keyWelcome.keys,keyWelcome.rt,keyWelcome.started,keyWelcome.stopped,textAloud.started,textAloud.stopped,textSilent.started,textSilent.stopped,textSing.started,textSing.stopped,conditional_text.started,conditional_text.stopped,textBlank500.started,textBlank500.stopped,study_word,study_num,study_order,study_type,word_color,textStudy.started,textStudy.stopped,keyStudy.keys,keyStudy.started,keyStudy.stopped,textTestInstructions.started,textTestInstructions.stopped,key_resp_3.keys,key_resp_3.rt,key_resp_3.started,key_resp_3.stopped,test_word,test_num,test_order,test_condition,old_new_test,test_word_original_color,textConf.started,textConf.stopped,textConfScale.started,textConfScale.stopped,keyConf.keys,keyConf.rt,keyConf.started,keyConf.stopped,confidence response time,textTestBlank.started,textTestBlank.stopped,textRKN.started,textRKN.stopped,textRKNScale.started,textRKNScale.stopped,keyRKN.keys,keyRKN.rt,keyRKN.started,keyRKN.stopped,rkn response time,textEnd.started,textEnd.stopped,participant,session,date,expName,psychopyVersion,frameRate,
,,,,,,,,21.475969100000015,None,a,4.244172099999986,21.475969100000015,None,,,,,,,,,,,,,,,,,,,,,,,,,,,,,,,,,,,,,,,,,,,,,,,,,,,,,,,,,,,,,,43Silent,001,2022_Sep_05_0956,ProdSingRedoBetween,2021.2.3,59.99631622618414,
,,,,,,,,,,,,,,SilentTest,25.781171900000004,None,space,233.3791414,25.781171900000004,None,,,,,,,,,,,,,,,,,,,,,,,,,,,,,,,,,,,,,,,,,,,,,,,,,,,,,,,43Silent,001,2022_Sep_05_0956,ProdSingRedoBetween,2021.2.3,59.99631622618414,
0,0,0,0,,,,,,,,,,,,,,,,,,25.781171900000004,None,25.781171900000004,None,25.781171900000004,None,25.781171900000004,None,261.70709639999995,None,command,88,1,silent,red,259.6926287,None,None,259.6926287,None,,,,,,,,,,,,,,,,,,,,,,,,,,,,,,,,,,,43Silent,001,2022_Sep_05_0956,ProdSingRedoBetween,2021.2.3,59.99631622618414,
1,0,1,0,,,,,,,,,,,,,,,,,,,,,,,,,,264.20966869999995,None,distance,82,2,silent,red,262.2077848,None,None,262.2077848,None,,,,,,,,,,,,,,,,,,,,,,,,,,,,,,,,,,,43Silent,001,2022_Sep_05_0956,ProdSingRedoBetween,2021.2.3,59.99631622618414,
2,0,2,0,,,,,,,,,,,,,,,,,,,,,,,,,,266.71214829999997,None,production,69,3,silent,red,264.7108214,None,None,264.7108214,None,,,,,,,,,,,,,,,,,,,,,,,,,,,,,,,,,,,43Silent,001,2022_Sep_05_0956,ProdSingRedoBetween,2021.2.3,59.99631622618414,
3,0,3,0,,,,,,,,,,,,,,,,,,,,,,,,,,269.21443999999997,None,captain,52,4,silent,blue,267.2132802,None,None,267.2132802,None,,,,,,,,,,,,,,,,,,,,,,,,,,,,,,,,,,,43Silent,001,2022_Sep_05_0956,ProdSingRedoBetween,2021.2.3,59.99631622618414,
4,0,4,0,,,,,,,,,,,,,,,,,,,,,,,,,,271.7338125,None,orchestra,71,5,silent,red,269.7209037,None,None,269.7209037,None,,,,,,,,,,,,,,,,,,,,,,,,,,,,,,,,,,,43Silent,001,2022_Sep_05_0956,ProdSingRedoBetween,2021.2.3,59.99631622618414,
5,0,5,0,,,,,,,,,,,,,,,,,,,,,,,,,,274.23633889999996,None,atmosphere,30,6,silent,blue,272.23440790000006,None,None,272.23440790000006,None,,,,,,,,,,,,,,,,,,,,,,,,,,,,,,,,,,,43Silent,001,2022_Sep_05_0956,ProdSingRedoBetween,2021.2.3,59.99631622618414,
6,0,6,0,,,,,,,,,,,,,,,,,,,,,,,,,,276.7388671,None,drama,24,7,silent,yellow,274.73754510000003,None,None,274.73754510000003,None,,,,,,,,,,,,,,,,,,,,,,,,,,,,,,,,,,,43Silent,001,2022_Sep_05_0956,ProdSingRedoBetween,2021.2.3,59.99631622618414,
7,0,7,0,,,,,,,,,,,,,,,,,,,,,,,,,,279.25789740000005,None,discovery,1,8,silent,yellow,277.24944600000003,None,None,277.24944600000003,None,,,,,,,,,,,,,,,,,,,,,,,,,,,,,,,,,,,43Silent,001,2022_Sep_05_0956,ProdSingRedoBetween,2021.2.3,59.99631622618414,
8,0,8,0,,,,,,,,,,,,,,,,,,,,,,,,,,281.7602988,None,stand,89,9,silent,red,279.76039760000003,None,None,279.76039760000003,None,,,,,,,,,,,,,,,,,,,,,,,,,,,,,,,,,,,43Silent,001,2022_Sep_05_0956,ProdSingRedoBetween,2021.2.3,59.99631622618414,
9,0,9,0,,,,,,,,,,,,,,,,,,,,,,,,,,284.26265490000003,None,pancakes,39,10,silent,blue,282.2622265,None,None,282.2622265,None,,,,,,,,,,,,,,,,,,,,,,,,,,,,,,,,,,,43Silent,001,2022_Sep_05_0956,ProdSingRedoBetween,2021.2.3,59.99631622618414,
10,0,10,0,,,,,,,,,,,,,,,,,,,,,,,,,,286.7820581,None,write,23,11,silent,yellow,284.77266910000003,None,None,284.77266910000003,None,,,,,,,,,,,,,,,,,,,,,,,,,,,,,,,,,,,43Silent,001,2022_Sep_05_0956,ProdSingRedoBetween,2021.2.3,59.99631622618414,
11,0,11,0,,,,,,,,,,,,,,,,,,,,,,,,,,289.2846777,None,character,74,12,silent,red,287.2825772,None,None,287.2825772,None,,,,,,,,,,,,,,,,,,,,,,,,,,,,,,,,,,,43Silent,001,2022_Sep_05_0956,ProdSingRedoBetween,2021.2.3,59.99631622618414,
12,0,12,0,,,,,,,,,,,,,,,,,,,,,,,,,,291.78722690000006,None,pattern,25,13,silent,yellow,289.78503120000005,None,None,289.78503120000005,None,,,,,,,,,,,,,,,,,,,,,,,,,,,,,,,,,,,43Silent,001,2022_Sep_05_0956,ProdSingRedoBetween,2021.2.3,59.99631622618414,
13,0,13,0,,,,,,,,,,,,,,,,,,,,,,,,,,294.28978659999996,None,principal,70,14,silent,red,292.2905085,None,None,292.2905085,None,,,,,,,,,,,,,,,,,,,,,,,,,,,,,,,,,,,43Silent,001,2022_Sep_05_0956,ProdSingRedoBetween,2021.2.3,59.99631622618414,
14,0,14,0,,,,,,,,,,,,,,,,,,,,,,,,,,296.7923456,None,drove,72,15,silent,red,294.7910009,None,None,294.7910009,None,,,,,,,,,,,,,,,,,,,,,,,,,,,,,,,,,,,43Silent,001,2022_Sep_05_0956,ProdSingRedoBetween,2021.2.3,59.99631622618414,
15,0,15,0,,,,,,,,,,,,,,,,,,,,,,,,,,299.31136619999995,None,welcome,43,16,silent,blue,297.2977089,None,None,297.2977089,None,,,,,,,,,,,,,,,,,,,,,,,,,,,,,,,,,,,43Silent,001,2022_Sep_05_0956,ProdSingRedoBetween,2021.2.3,59.99631622618414,
16,0,16,0,,,,,,,,,,,,,,,,,,,,,,,,,,301.81605720000005,None,taste,51,17,silent,blue,299.81374730000005,None,None,299.81374730000005,None,,,,,,,,,,,,,,,,,,,,,,,,,,,,,,,,,,,43Silent,001,2022_Sep_05_0956,ProdSingRedoBetween,2021.2.3,59.99631622618414,
17,0,17,0,,,,,,,,,,,,,,,,,,,,,,,,,,304.3330936,None,session,35,18,silent,blue,302.33134959999995,None,None,302.33134959999995,None,,,,,,,,,,,,,,,,,,,,,,,,,,,,,,,,,,,43Silent,001,2022_Sep_05_0956,ProdSingRedoBetween,2021.2.3,59.99631622618414,
18,0,18,0,,,,,,,,,,,,,,,,,,,,,,,,,,306.8524506,None,bureau,86,19,silent,red,304.83932200000004,None,None,304.83932200000004,None,,,,,,,,,,,,,,,,,,,,,,,,,,,,,,,,,,,43Silent,001,2022_Sep_05_0956,ProdSingRedoBetween,2021.2.3,59.99631622618414,
19,0,19,0,,,,,,,,,,,,,,,,,,,,,,,,,,309.354693,None,crowd,60,20,silent,red,307.3525006,None,None,307.3525006,None,,,,,,,,,,,,,,,,,,,,,,,,,,,,,,,,,,,43Silent,001,2022_Sep_05_0956,ProdSingRedoBetween,2021.2.3,59.99631622618414,
20,0,20,0,,,,,,,,,,,,,,,,,,,,,,,,,,311.8734998,None,people,34,21,silent,blue,309.8594677,None,None,309.8594677,None,,,,,,,,,,,,,,,,,,,,,,,,,,,,,,,,,,,43Silent,001,2022_Sep_05_0956,ProdSingRedoBetween,2021.2.3,59.99631622618414,
21,0,21,0,,,,,,,,,,,,,,,,,,,,,,,,,,314.3764897000001,None,guard,32,22,silent,blue,312.37452740000003,None,None,312.37452740000003,None,,,,,,,,,,,,,,,,,,,,,,,,,,,,,,,,,,,43Silent,001,2022_Sep_05_0956,ProdSingRedoBetween,2021.2.3,59.99631622618414,
22,0,22,0,,,,,,,,,,,,,,,,,,,,,,,,,,316.8791105,None,order,73,23,silent,red,314.8774698000001,None,None,314.8774698000001,None,,,,,,,,,,,,,,,,,,,,,,,,,,,,,,,,,,,43Silent,001,2022_Sep_05_0956,ProdSingRedoBetween,2021.2.3,59.99631622618414,
23,0,23,0,,,,,,,,,,,,,,,,,,,,,,,,,,319.3814066,None,brief,29,24,silent,blue,317.37936290000005,None,None,317.37936290000005,None,,,,,,,,,,,,,,,,,,,,,,,,,,,,,,,,,,,43Silent,001,2022_Sep_05_0956,ProdSingRedoBetween,2021.2.3,59.99631622618414,
24,0,24,0,,,,,,,,,,,,,,,,,,,,,,,,,,321.9005827000001,None,career,5,25,silent,yellow,319.8853871,None,None,319.8853871,None,,,,,,,,,,,,,,,,,,,,,,,,,,,,,,,,,,,43Silent,001,2022_Sep_05_0956,ProdSingRedoBetween,2021.2.3,59.99631622618414,
25,0,25,0,,,,,,,,,,,,,,,,,,,,,,,,,,324.41972450000003,None,quantity,36,26,silent,blue,322.4071549,None,None,322.4071549,None,,,,,,,,,,,,,,,,,,,,,,,,,,,,,,,,,,,43Silent,001,2022_Sep_05_0956,ProdSingRedoBetween,2021.2.3,59.99631622618414,
26,0,26,0,,,,,,,,,,,,,,,,,,,,,,,,,,326.9390953000001,None,addition,13,27,silent,yellow,324.9251111,None,None,324.9251111,None,,,,,,,,,,,,,,,,,,,,,,,,,,,,,,,,,,,43Silent,001,2022_Sep_05_0956,ProdSingRedoBetween,2021.2.3,59.99631622618414,
27,0,27,0,,,,,,,,,,,,,,,,,,,,,,,,,,329.4415451,None,member,31,28,silent,blue,327.44017800000006,None,None,327.44017800000006,None,,,,,,,,,,,,,,,,,,,,,,,,,,,,,,,,,,,43Silent,001,2022_Sep_05_0956,ProdSingRedoBetween,2021.2.3,59.99631622618414,
28,0,28,0,,,,,,,,,,,,,,,,,,,,,,,,,,331.9441008,None,bicycle,75,29,silent,red,329.9417099000001,None,None,329.9417099000001,None,,,,,,,,,,,,,,,,,,,,,,,,,,,,,,,,,,,43Silent,001,2022_Sep_05_0956,ProdSingRedoBetween,2021.2.3,59.99631622618414,
29,0,29,0,,,,,,,,,,,,,,,,,,,,,,,,,,334.4632508000001,None,worker,46,30,silent,blue,332.45505460000004,None,None,332.45505460000004,None,,,,,,,,,,,,,,,,,,,,,,,,,,,,,,,,,,,43Silent,001,2022_Sep_05_0956,ProdSingRedoBetween,2021.2.3,59.99631622618414,
30,0,30,0,,,,,,,,,,,,,,,,,,,,,,,,,,336.98238160000005,None,republic,18,31,silent,yellow,334.9730664,None,None,334.9730664,None,,,,,,,,,,,,,,,,,,,,,,,,,,,,,,,,,,,43Silent,001,2022_Sep_05_0956,ProdSingRedoBetween,2021.2.3,59.99631622618414,
31,0,31,0,,,,,,,,,,,,,,,,,,,,,,,,,,339.48489530000006,None,suspect,7,32,silent,yellow,337.4829277,None,None,337.4829277,None,,,,,,,,,,,,,,,,,,,,,,,,,,,,,,,,,,,43Silent,001,2022_Sep_05_0956,ProdSingRedoBetween,2021.2.3,59.99631622618414,
32,0,32,0,,,,,,,,,,,,,,,,,,,,,,,,,,341.9871269,None,pressure,11,33,silent,yellow,339.9869999,None,None,339.9869999,None,,,,,,,,,,,,,,,,,,,,,,,,,,,,,,,,,,,43Silent,001,2022_Sep_05_0956,ProdSingRedoBetween,2021.2.3,59.99631622618414,
33,0,33,0,,,,,,,,,,,,,,,,,,,,,,,,,,344.4898657,None,place,12,34,silent,yellow,342.48745510000003,None,None,342.48745510000003,None,,,,,,,,,,,,,,,,,,,,,,,,,,,,,,,,,,,43Silent,001,2022_Sep_05_0956,ProdSingRedoBetween,2021.2.3,59.99631622618414,
34,0,34,0,,,,,,,,,,,,,,,,,,,,,,,,,,347.0090114000001,None,charter,49,35,silent,blue,344.9935760000001,None,None,344.9935760000001,None,,,,,,,,,,,,,,,,,,,,,,,,,,,,,,,,,,,43Silent,001,2022_Sep_05_0956,ProdSingRedoBetween,2021.2.3,59.99631622618414,
35,0,35,0,,,,,,,,,,,,,,,,,,,,,,,,,,349.5115908,None,balance,37,36,silent,blue,347.51081220000003,None,None,347.51081220000003,None,,,,,,,,,,,,,,,,,,,,,,,,,,,,,,,,,,,43Silent,001,2022_Sep_05_0956,ProdSingRedoBetween,2021.2.3,59.99631622618414,
36,0,36,0,,,,,,,,,,,,,,,,,,,,,,,,,,352.030798,None,dance,84,37,silent,red,350.01540580000005,None,None,350.01540580000005,None,,,,,,,,,,,,,,,,,,,,,,,,,,,,,,,,,,,43Silent,001,2022_Sep_05_0956,ProdSingRedoBetween,2021.2.3,59.99631622618414,
37,0,37,0,,,,,,,,,,,,,,,,,,,,,,,,,,354.533224,None,health,21,38,silent,yellow,352.5310895,None,None,352.5310895,None,,,,,,,,,,,,,,,,,,,,,,,,,,,,,,,,,,,43Silent,001,2022_Sep_05_0956,ProdSingRedoBetween,2021.2.3,59.99631622618414,
38,0,38,0,,,,,,,,,,,,,,,,,,,,,,,,,,357.0524752,None,entrance,76,39,silent,red,355.0387184,None,None,355.0387184,None,,,,,,,,,,,,,,,,,,,,,,,,,,,,,,,,,,,43Silent,001,2022_Sep_05_0956,ProdSingRedoBetween,2021.2.3,59.99631622618414,
39,0,39,0,,,,,,,,,,,,,,,,,,,,,,,,,,359.5549522,None,emergency,14,40,silent,yellow,357.5527135,None,None,357.5527135,None,,,,,,,,,,,,,,,,,,,,,,,,,,,,,,,,,,,43Silent,001,2022_Sep_05_0956,ProdSingRedoBetween,2021.2.3,59.99631622618414,
40,0,40,0,,,,,,,,,,,,,,,,,,,,,,,,,,362.074337,None,division,59,41,silent,yellow,360.0618472,None,None,360.0618472,None,,,,,,,,,,,,,,,,,,,,,,,,,,,,,,,,,,,43Silent,001,2022_Sep_05_0956,ProdSingRedoBetween,2021.2.3,59.99631622618414,
41,0,41,0,,,,,,,,,,,,,,,,,,,,,,,,,,364.57672750000006,None,series,20,42,silent,yellow,362.57675000000006,None,None,362.57675000000006,None,,,,,,,,,,,,,,,,,,,,,,,,,,,,,,,,,,,43Silent,001,2022_Sep_05_0956,ProdSingRedoBetween,2021.2.3,59.99631622618414,
42,0,42,0,,,,,,,,,,,,,,,,,,,,,,,,,,367.07887100000005,None,trial,10,43,silent,yellow,365.0801094000001,None,None,365.0801094000001,None,,,,,,,,,,,,,,,,,,,,,,,,,,,,,,,,,,,43Silent,001,2022_Sep_05_0956,ProdSingRedoBetween,2021.2.3,59.99631622618414,
43,0,43,0,,,,,,,,,,,,,,,,,,,,,,,,,,369.5816225,None,author,57,44,silent,blue,367.5800647000001,None,None,367.5800647000001,None,,,,,,,,,,,,,,,,,,,,,,,,,,,,,,,,,,,43Silent,001,2022_Sep_05_0956,ProdSingRedoBetween,2021.2.3,59.99631622618414,
44,0,44,0,,,,,,,,,,,,,,,,,,,,,,,,,,372.0840677,None,tough,4,45,silent,yellow,370.0822035,None,None,370.0822035,None,,,,,,,,,,,,,,,,,,,,,,,,,,,,,,,,,,,43Silent,001,2022_Sep_05_0956,ProdSingRedoBetween,2021.2.3,59.99631622618414,
45,0,45,0,,,,,,,,,,,,,,,,,,,,,,,,,,374.5866539,None,oxygen,42,46,silent,blue,372.58474590000003,None,None,372.58474590000003,None,,,,,,,,,,,,,,,,,,,,,,,,,,,,,,,,,,,43Silent,001,2022_Sep_05_0956,ProdSingRedoBetween,2021.2.3,59.99631622618414,
46,0,46,0,,,,,,,,,,,,,,,,,,,,,,,,,,377.0891769,None,nature,78,47,silent,red,375.08920320000004,None,None,375.08920320000004,None,,,,,,,,,,,,,,,,,,,,,,,,,,,,,,,,,,,43Silent,001,2022_Sep_05_0956,ProdSingRedoBetween,2021.2.3,59.99631622618414,
47,0,47,0,,,,,,,,,,,,,,,,,,,,,,,,,,379.5914573,None,religion,44,48,silent,blue,377.5894981,None,None,377.5894981,None,,,,,,,,,,,,,,,,,,,,,,,,,,,,,,,,,,,43Silent,001,2022_Sep_05_0956,ProdSingRedoBetween,2021.2.3,59.99631622618414,
48,0,48,0,,,,,,,,,,,,,,,,,,,,,,,,,,382.0942249000001,None,foundation,54,49,silent,blue,380.0922286,None,None,380.0922286,None,,,,,,,,,,,,,,,,,,,,,,,,,,,,,,,,,,,43Silent,001,2022_Sep_05_0956,ProdSingRedoBetween,2021.2.3,59.99631622618414,
49,0,49,0,,,,,,,,,,,,,,,,,,,,,,,,,,384.6134012,None,conference,62,50,silent,red,382.60159350000004,None,None,382.60159350000004,None,,,,,,,,,,,,,,,,,,,,,,,,,,,,,,,,,,,43Silent,001,2022_Sep_05_0956,ProdSingRedoBetween,2021.2.3,59.99631622618414,
50,0,50,0,,,,,,,,,,,,,,,,,,,,,,,,,,387.1326093,None,account,22,51,silent,yellow,385.1203908,None,None,385.1203908,None,,,,,,,,,,,,,,,,,,,,,,,,,,,,,,,,,,,43Silent,001,2022_Sep_05_0956,ProdSingRedoBetween,2021.2.3,59.99631622618414,
51,0,51,0,,,,,,,,,,,,,,,,,,,,,,,,,,389.63510830000007,None,piece,28,52,silent,yellow,387.6358537,None,None,387.6358537,None,,,,,,,,,,,,,,,,,,,,,,,,,,,,,,,,,,,43Silent,001,2022_Sep_05_0956,ProdSingRedoBetween,2021.2.3,59.99631622618414,
52,0,52,0,,,,,,,,,,,,,,,,,,,,,,,,,,392.13776070000006,None,angle,48,53,silent,blue,390.13565100000005,None,None,390.13565100000005,None,,,,,,,,,,,,,,,,,,,,,,,,,,,,,,,,,,,43Silent,001,2022_Sep_05_0956,ProdSingRedoBetween,2021.2.3,59.99631622618414,
53,0,53,0,,,,,,,,,,,,,,,,,,,,,,,,,,394.65678660000003,None,commercial,45,54,silent,blue,392.641336,None,None,392.641336,None,,,,,,,,,,,,,,,,,,,,,,,,,,,,,,,,,,,43Silent,001,2022_Sep_05_0956,ProdSingRedoBetween,2021.2.3,59.99631622618414,
54,0,54,0,,,,,,,,,,,,,,,,,,,,,,,,,,397.17592820000004,None,majority,0,55,silent,yellow,395.16792210000006,None,None,395.16792210000006,None,,,,,,,,,,,,,,,,,,,,,,,,,,,,,,,,,,,43Silent,001,2022_Sep_05_0956,ProdSingRedoBetween,2021.2.3,59.99631622618414,
55,0,55,0,,,,,,,,,,,,,,,,,,,,,,,,,,399.6782019000001,None,minute,41,56,silent,blue,397.6765127,None,None,397.6765127,None,,,,,,,,,,,,,,,,,,,,,,,,,,,,,,,,,,,43Silent,001,2022_Sep_05_0956,ProdSingRedoBetween,2021.2.3,59.99631622618414,
56,0,56,0,,,,,,,,,,,,,,,,,,,,,,,,,,402.18095890000006,None,committee,65,57,silent,red,400.18147280000005,None,None,400.18147280000005,None,,,,,,,,,,,,,,,,,,,,,,,,,,,,,,,,,,,43Silent,001,2022_Sep_05_0956,ProdSingRedoBetween,2021.2.3,59.99631622618414,
57,0,57,0,,,,,,,,,,,,,,,,,,,,,,,,,,404.6833745,None,direction,15,58,silent,yellow,402.68414700000005,None,None,402.68414700000005,None,,,,,,,,,,,,,,,,,,,,,,,,,,,,,,,,,,,43Silent,001,2022_Sep_05_0956,ProdSingRedoBetween,2021.2.3,59.99631622618414,
58,0,58,0,,,,,,,,,,,,,,,,,,,,,,,,,,407.185915,None,still,8,59,silent,yellow,405.1859501,None,None,405.1859501,None,,,,,,,,,,,,,,,,,,,,,,,,,,,,,,,,,,,43Silent,001,2022_Sep_05_0956,ProdSingRedoBetween,2021.2.3,59.99631622618414,
59,0,59,0,,,,,,,,,,,,,,,,,,,,,,,,,,409.70515420000004,None,agency,50,60,silent,blue,407.69008370000006,None,None,407.69008370000006,None,,,,,,,,,,,,,,,,,,,,,,,,,,,,,,,,,,,43Silent,001,2022_Sep_05_0956,ProdSingRedoBetween,2021.2.3,59.99631622618414,
60,0,60,0,,,,,,,,,,,,,,,,,,,,,,,,,,412.2240805,None,government,53,61,silent,blue,410.20942590000004,None,None,410.20942590000004,None,,,,,,,,,,,,,,,,,,,,,,,,,,,,,,,,,,,43Silent,001,2022_Sep_05_0956,ProdSingRedoBetween,2021.2.3,59.99631622618414,
61,0,61,0,,,,,,,,,,,,,,,,,,,,,,,,,,414.74350200000003,None,afternoon,61,62,silent,red,412.7300073,None,None,412.7300073,None,,,,,,,,,,,,,,,,,,,,,,,,,,,,,,,,,,,43Silent,001,2022_Sep_05_0956,ProdSingRedoBetween,2021.2.3,59.99631622618414,
62,0,62,0,,,,,,,,,,,,,,,,,,,,,,,,,,417.245984,None,voice,56,63,silent,blue,415.24395030000005,None,None,415.24395030000005,None,,,,,,,,,,,,,,,,,,,,,,,,,,,,,,,,,,,43Silent,001,2022_Sep_05_0956,ProdSingRedoBetween,2021.2.3,59.99631622618414,
63,0,63,0,,,,,,,,,,,,,,,,,,,,,,,,,,419.7481958000001,None,harmony,67,64,silent,red,417.74732560000007,None,None,417.74732560000007,None,,,,,,,,,,,,,,,,,,,,,,,,,,,,,,,,,,,43Silent,001,2022_Sep_05_0956,ProdSingRedoBetween,2021.2.3,59.99631622618414,
64,0,64,0,,,,,,,,,,,,,,,,,,,,,,,,,,422.251039,None,concern,38,65,silent,blue,420.2489971,None,None,420.2489971,None,,,,,,,,,,,,,,,,,,,,,,,,,,,,,,,,,,,43Silent,001,2022_Sep_05_0956,ProdSingRedoBetween,2021.2.3,59.99631622618414,
65,0,65,0,,,,,,,,,,,,,,,,,,,,,,,,,,424.75335600000005,None,finance,83,66,silent,red,422.751353,None,None,422.751353,None,,,,,,,,,,,,,,,,,,,,,,,,,,,,,,,,,,,43Silent,001,2022_Sep_05_0956,ProdSingRedoBetween,2021.2.3,59.99631622618414,
66,0,66,0,,,,,,,,,,,,,,,,,,,,,,,,,,427.27268190000007,None,private,2,67,silent,yellow,425.2682725000001,None,None,425.2682725000001,None,,,,,,,,,,,,,,,,,,,,,,,,,,,,,,,,,,,43Silent,001,2022_Sep_05_0956,ProdSingRedoBetween,2021.2.3,59.99631622618414,
67,0,67,0,,,,,,,,,,,,,,,,,,,,,,,,,,429.77500240000006,None,region,63,68,silent,red,427.7729461,None,None,427.7729461,None,,,,,,,,,,,,,,,,,,,,,,,,,,,,,,,,,,,43Silent,001,2022_Sep_05_0956,ProdSingRedoBetween,2021.2.3,59.99631622618414,
68,0,68,0,,,,,,,,,,,,,,,,,,,,,,,,,,432.2775374,None,literature,58,69,silent,blue,430.2754165,None,None,430.2754165,None,,,,,,,,,,,,,,,,,,,,,,,,,,,,,,,,,,,43Silent,001,2022_Sep_05_0956,ProdSingRedoBetween,2021.2.3,59.99631622618414,
69,0,69,0,,,,,,,,,,,,,,,,,,,,,,,,,,434.7969325,None,victory,87,70,silent,red,432.7830619,None,None,432.7830619,None,,,,,,,,,,,,,,,,,,,,,,,,,,,,,,,,,,,43Silent,001,2022_Sep_05_0956,ProdSingRedoBetween,2021.2.3,59.99631622618414,
70,0,70,0,,,,,,,,,,,,,,,,,,,,,,,,,,437.2994267,None,debate,81,71,silent,red,435.29726230000006,None,None,435.29726230000006,None,,,,,,,,,,,,,,,,,,,,,,,,,,,,,,,,,,,43Silent,001,2022_Sep_05_0956,ProdSingRedoBetween,2021.2.3,59.99631622618414,
71,0,71,0,,,,,,,,,,,,,,,,,,,,,,,,,,439.8017414000001,None,chief,85,72,silent,red,437.7997917,None,None,437.7997917,None,,,,,,,,,,,,,,,,,,,,,,,,,,,,,,,,,,,43Silent,001,2022_Sep_05_0956,ProdSingRedoBetween,2021.2.3,59.99631622618414,
72,0,72,0,,,,,,,,,,,,,,,,,,,,,,,,,,442.3040942,None,household,26,73,silent,yellow,440.30253920000007,None,None,440.30253920000007,None,,,,,,,,,,,,,,,,,,,,,,,,,,,,,,,,,,,43Silent,001,2022_Sep_05_0956,ProdSingRedoBetween,2021.2.3,59.99631622618414,
73,0,73,0,,,,,,,,,,,,,,,,,,,,,,,,,,444.8069922000001,None,school,79,74,silent,red,442.8046924,None,None,442.8046924,None,,,,,,,,,,,,,,,,,,,,,,,,,,,,,,,,,,,43Silent,001,2022_Sep_05_0956,ProdSingRedoBetween,2021.2.3,59.99631622618414,
74,0,74,0,,,,,,,,,,,,,,,,,,,,,,,,,,447.3093384,None,power,17,75,silent,yellow,445.3072836,None,None,445.3072836,None,,,,,,,,,,,,,,,,,,,,,,,,,,,,,,,,,,,43Silent,001,2022_Sep_05_0956,ProdSingRedoBetween,2021.2.3,59.99631622618414,
75,0,75,0,,,,,,,,,,,,,,,,,,,,,,,,,,449.8118766,None,discussion,40,76,silent,blue,447.8097200000001,None,None,447.8097200000001,None,,,,,,,,,,,,,,,,,,,,,,,,,,,,,,,,,,,43Silent,001,2022_Sep_05_0956,ProdSingRedoBetween,2021.2.3,59.99631622618414,
76,0,76,0,,,,,,,,,,,,,,,,,,,,,,,,,,452.3311248,None,rural,55,77,silent,blue,450.3154888,None,None,450.3154888,None,,,,,,,,,,,,,,,,,,,,,,,,,,,,,,,,,,,43Silent,001,2022_Sep_05_0956,ProdSingRedoBetween,2021.2.3,59.99631622618414,
77,0,77,0,,,,,,,,,,,,,,,,,,,,,,,,,,454.83351400000004,None,reach,3,78,silent,yellow,452.8314073,None,None,452.8314073,None,,,,,,,,,,,,,,,,,,,,,,,,,,,,,,,,,,,43Silent,001,2022_Sep_05_0956,ProdSingRedoBetween,2021.2.3,59.99631622618414,
78,0,78,0,,,,,,,,,,,,,,,,,,,,,,,,,,457.3360931000001,None,point,16,79,silent,yellow,455.3364352,None,None,455.3364352,None,,,,,,,,,,,,,,,,,,,,,,,,,,,,,,,,,,,43Silent,001,2022_Sep_05_0956,ProdSingRedoBetween,2021.2.3,59.99631622618414,
79,0,79,0,,,,,,,,,,,,,,,,,,,,,,,,,,459.85526920000007,None,council,6,80,silent,yellow,457.84101710000004,None,None,457.84101710000004,None,,,,,,,,,,,,,,,,,,,,,,,,,,,,,,,,,,,43Silent,001,2022_Sep_05_0956,ProdSingRedoBetween,2021.2.3,59.99631622618414,
80,0,80,0,,,,,,,,,,,,,,,,,,,,,,,,,,462.3741163000001,None,present,77,81,silent,red,460.3585004,None,None,460.3585004,None,,,,,,,,,,,,,,,,,,,,,,,,,,,,,,,,,,,43Silent,001,2022_Sep_05_0956,ProdSingRedoBetween,2021.2.3,59.99631622618414,
81,0,81,0,,,,,,,,,,,,,,,,,,,,,,,,,,464.87690900000007,None,weather,33,82,silent,blue,462.87476460000005,None,None,462.87476460000005,None,,,,,,,,,,,,,,,,,,,,,,,,,,,,,,,,,,,43Silent,001,2022_Sep_05_0956,ProdSingRedoBetween,2021.2.3,59.99631622618414,
82,0,82,0,,,,,,,,,,,,,,,,,,,,,,,,,,467.379418,None,volume,66,83,silent,red,465.37750630000005,None,None,465.37750630000005,None,,,,,,,,,,,,,,,,,,,,,,,,,,,,,,,,,,,43Silent,001,2022_Sep_05_0956,ProdSingRedoBetween,2021.2.3,59.99631622618414,
83,0,83,0,,,,,,,,,,,,,,,,,,,,,,,,,,469.8983287000001,None,weight,68,84,silent,red,467.88421500000004,None,None,467.88421500000004,None,,,,,,,,,,,,,,,,,,,,,,,,,,,,,,,,,,,43Silent,001,2022_Sep_05_0956,ProdSingRedoBetween,2021.2.3,59.99631622618414,
84,0,84,0,,,,,,,,,,,,,,,,,,,,,,,,,,472.4011146,None,solution,64,85,silent,red,470.3991191,None,None,470.3991191,None,,,,,,,,,,,,,,,,,,,,,,,,,,,,,,,,,,,43Silent,001,2022_Sep_05_0956,ProdSingRedoBetween,2021.2.3,59.99631622618414,
85,0,85,0,,,,,,,,,,,,,,,,,,,,,,,,,,474.90344230000005,None,judge,27,86,silent,yellow,472.90166610000006,None,None,472.90166610000006,None,,,,,,,,,,,,,,,,,,,,,,,,,,,,,,,,,,,43Silent,001,2022_Sep_05_0956,ProdSingRedoBetween,2021.2.3,59.99631622618414,
86,0,86,0,,,,,,,,,,,,,,,,,,,,,,,,,,477.4061725,None,design,47,87,silent,blue,475.404223,None,None,475.404223,None,,,,,,,,,,,,,,,,,,,,,,,,,,,,,,,,,,,43Silent,001,2022_Sep_05_0956,ProdSingRedoBetween,2021.2.3,59.99631622618414,
87,0,87,0,,,,,,,,,,,,,,,,,,,,,,,,,,479.9082807000001,None,engineer,19,88,silent,yellow,477.90636430000006,None,None,477.90636430000006,None,,,,,,,,,,,,,,,,,,,,,,,,,,,,,,,,,,,43Silent,001,2022_Sep_05_0956,ProdSingRedoBetween,2021.2.3,59.99631622618414,
88,0,88,0,,,,,,,,,,,,,,,,,,,,,,,,,,482.4110793,None,agreement,80,89,silent,red,480.40892110000004,None,None,480.40892110000004,None,,,,,,,,,,,,,,,,,,,,,,,,,,,,,,,,,,,43Silent,001,2022_Sep_05_0956,ProdSingRedoBetween,2021.2.3,59.99631622618414,
89,0,89,0,,,,,,,,,,,,,,,,,,,,,,,,,,484.9137095,None,cousin,9,90,silent,yellow,482.9115987,None,None,482.9115987,None,,,,,,,,,,,,,,,,,,,,,,,,,,,,,,,,,,,43Silent,001,2022_Sep_05_0956,ProdSingRedoBetween,2021.2.3,59.99631622618414,
,,,,,,,,,,,,,,,,,,,,,,,,,,,,,,,,,,,,,,,,,485.4144298,None,k,139.95413659999997,485.4144298,None,,,,,,,,,,,,,,,,,,,,,,,,,,,,,43Silent,001,2022_Sep_05_0956,ProdSingRedoBetween,2021.2.3,59.99631622618414,
,,,,0,0,0,0,,,,,,,,,,,,,,,,,,,,,,636.9655952,None,,,,,,,,,,,,,,,,,taste,51,1,silent,old,blue,625.9022367,None,625.9022367,None,6,6.402253099999939,625.9022367,None,6.402253099999939,632.3294233,None,632.8450836000001,None,632.8450836000001,None,f,4.091446000000019,632.8450836000001,None,4.091446000000019,,,43Silent,001,2022_Sep_05_0956,ProdSingRedoBetween,2021.2.3,59.99631622618414,
,,,,1,0,1,0,,,,,,,,,,,,,,,,,,,,,,644.4897627,None,,,,,,,,,,,,,,,,,alert,169,2,silent,new,null,637.4704847,None,637.4704847,None,6,3.657939000000056,637.4704847,None,3.657939000000056,641.1529727000001,None,641.6533983,None,641.6533983,None,r,2.8190523999999186,641.6533983,None,2.8190523999999186,,,43Silent,001,2022_Sep_05_0956,ProdSingRedoBetween,2021.2.3,59.99631622618414,
,,,,2,0,2,0,,,,,,,,,,,,,,,,,,,,,,649.4112265,None,,,,,,,,,,,,,,,,,shear,166,3,silent,new,null,645.0007370000001,None,645.0007370000001,None,1,1.82382240000004,645.0007370000001,None,1.82382240000004,646.8433066,None,647.3473507,None,647.3473507,None,n,2.03719609999996,647.3473507,None,2.03719609999996,,,43Silent,001,2022_Sep_05_0956,ProdSingRedoBetween,2021.2.3,59.99631622618414,
,,,,3,0,3,0,,,,,,,,,,,,,,,,,,,,,,668.5137071,None,,,,,,,,,,,,,,,,,leader,140,4,silent,new,null,649.9247381,None,649.9247381,None,4,15.403698899999995,649.9247381,None,15.403698899999995,665.3436931,None,665.8442967000001,None,665.8442967000001,None,n,2.6522074000000657,665.8442967000001,None,2.6522074000000657,,,43Silent,001,2022_Sep_05_0956,ProdSingRedoBetween,2021.2.3,59.99631622618414,
,,,,4,0,4,0,,,,,,,,,,,,,,,,,,,,,,679.0742999,None,,,,,,,,,,,,,,,,,bureau,86,5,silent,old,red,669.016143,None,669.016143,None,6,6.168391400000019,669.016143,None,6.168391400000019,675.2064207000001,None,675.7231666,None,675.7231666,None,f,3.3334425000000465,675.7231666,None,3.3334425000000465,,,43Silent,001,2022_Sep_05_0956,ProdSingRedoBetween,2021.2.3,59.99631622618414,
,,,,5,0,5,0,,,,,,,,,,,,,,,,,,,,,,688.8919502,None,,,,,,,,,,,,,,,,,discovery,1,6,silent,old,yellow,679.588389,None,679.588389,None,5,5.916119200000026,679.588389,None,5.916119200000026,685.5337175000001,None,686.0478859,None,686.0478859,None,f,2.8087961999999607,686.0478859,None,2.8087961999999607,,,43Silent,001,2022_Sep_05_0956,ProdSingRedoBetween,2021.2.3,59.99631622618414,
,,,,6,0,6,0,,,,,,,,,,,,,,,,,,,,,,695.6738459000001,None,,,,,,,,,,,,,,,,,cross,157,7,silent,new,null,689.4141208000001,None,689.4141208000001,None,1,3.706383599999981,689.4141208000001,None,3.706383599999981,693.1381838000001,None,693.6390437,None,693.6390437,None,n,2.0094914999999673,693.6390437,None,2.0094914999999673,,,43Silent,001,2022_Sep_05_0956,ProdSingRedoBetween,2021.2.3,59.99631622618414,
,,,,7,0,7,0,,,,,,,,,,,,,,,,,,,,,,709.5879517000001,None,,,,,,,,,,,,,,,,,health,21,8,silent,old,yellow,696.1763589000001,None,696.1763589000001,None,2,11.608116699999982,696.1763589000001,None,11.608116699999982,707.8048614,None,708.3203278000001,None,708.3203278000001,None,n,1.2482402000000548,708.3203278000001,None,1.2482402000000548,,,43Silent,001,2022_Sep_05_0956,ProdSingRedoBetween,2021.2.3,59.99631622618414,
,,,,8,0,8,0,,,,,,,,,,,,,,,,,,,,,,714.0593122,None,,,,,,,,,,,,,,,,,machinery,131,9,silent,new,null,710.0888045,None,710.0888045,None,1,2.535684100000026,710.0888045,None,2.535684100000026,712.6422756000001,None,713.1419918,None,713.1419918,None,n,0.8904658000000154,713.1419918,None,0.8904658000000154,,,43Silent,001,2022_Sep_05_0956,ProdSingRedoBetween,2021.2.3,59.99631622618414,
,,,,9,0,9,0,,,,,,,,,,,,,,,,,,,,,,722.6678241000001,None,,,,,,,,,,,,,,,,,estate,143,10,silent,new,null,714.5630464000001,None,714.5630464000001,None,2,5.765400399999976,714.5630464000001,None,5.765400399999976,720.3584439,None,720.865902,None,720.865902,None,n,1.774524700000029,720.865902,None,1.774524700000029,,,43Silent,001,2022_Sep_05_0956,ProdSingRedoBetween,2021.2.3,59.99631622618414,
,,,,10,0,10,0,,,,,,,,,,,,,,,,,,,,,,731.8769449,None,,,,,,,,,,,,,,,,,volume,66,11,silent,old,red,723.1797073,None,723.1797073,None,6,4.004771000000005,723.1797073,None,4.004771000000005,727.2122035,None,727.7294703,None,727.7294703,None,r,4.126956600000085,727.7294703,None,4.126956600000085,,,43Silent,001,2022_Sep_05_0956,ProdSingRedoBetween,2021.2.3,59.99631622618414,
,,,,11,0,11,0,,,,,,,,,,,,,,,,,,,,,,741.9037228000001,None,,,,,,,,,,,,,,,,,commercial,45,12,silent,old,blue,732.3786271,None,732.3786271,None,6,2.3259305999999924,732.3786271,None,2.3259305999999924,734.7322881,None,735.2491826,None,735.2491826,None,f,6.631384500000081,735.2491826,None,6.631384500000081,,,43Silent,001,2022_Sep_05_0956,ProdSingRedoBetween,2021.2.3,59.99631622618414,
,,,,12,0,12,0,,,,,,,,,,,,,,,,,,,,,,749.2110953,None,,,,,,,,,,,,,,,,,rough,130,13,silent,new,null,742.4042527,None,742.4042527,None,2,4.700299500000028,742.4042527,None,4.700299500000028,747.1258112,None,747.6289643,None,747.6289643,None,n,1.5554792000000361,747.6289643,None,1.5554792000000361,,,43Silent,001,2022_Sep_05_0956,ProdSingRedoBetween,2021.2.3,59.99631622618414,
,,,,13,0,13,0,,,,,,,,,,,,,,,,,,,,,,764.2428005,None,,,,,,,,,,,,,,,,,crowd,60,14,silent,old,red,749.7117883000001,None,749.7117883000001,None,2,12.70468619999997,749.7117883000001,None,12.70468619999997,762.4491538000001,None,762.9581015,None,762.9581015,None,n,1.2583594000000176,762.9581015,None,1.2583594000000176,,,43Silent,001,2022_Sep_05_0956,ProdSingRedoBetween,2021.2.3,59.99631622618414,
,,,,14,0,14,0,,,,,,,,,,,,,,,,,,,,,,774.0716116,None,,,,,,,,,,,,,,,,,bicycle,75,15,silent,old,red,764.7499467,None,764.7499467,None,6,7.218592000000058,764.7499467,None,7.218592000000058,771.9848938,None,772.4845176,None,772.4845176,None,f,1.5639421999999286,772.4845176,None,1.5639421999999286,,,43Silent,001,2022_Sep_05_0956,ProdSingRedoBetween,2021.2.3,59.99631622618414,
,,,,15,0,15,0,,,,,,,,,,,,,,,,,,,,,,782.3142351,None,,,,,,,,,,,,,,,,,debate,81,16,silent,old,red,774.5864555,None,774.5864555,None,2,6.054002399999945,774.5864555,None,6.054002399999945,780.6652004,None,781.1760571,None,781.1760571,None,n,1.112411800000018,781.1760571,None,1.112411800000018,,,43Silent,001,2022_Sep_05_0956,ProdSingRedoBetween,2021.2.3,59.99631622618414,
,,,,16,0,16,0,,,,,,,,,,,,,,,,,,,,,,787.5518841,None,,,,,,,,,,,,,,,,,primary,90,17,silent,new,null,782.8278404,None,782.8278404,None,1,3.148705399999926,782.8278404,None,3.148705399999926,785.9983336,None,786.4983364000001,None,786.4983364000001,None,n,1.0301695999999083,786.4983364000001,None,1.0301695999999083,,,43Silent,001,2022_Sep_05_0956,ProdSingRedoBetween,2021.2.3,59.99631622618414,
,,,,17,0,17,0,,,,,,,,,,,,,,,,,,,,,,791.5532407000001,None,,,,,,,,,,,,,,,,,theme,150,18,silent,new,null,788.0663706,None,788.0663706,None,1,1.9420903999999837,788.0663706,None,1.9420903999999837,790.0352359000001,None,790.5357771,None,790.5357771,None,n,1.0006672999999182,790.5357771,None,1.0006672999999182,,,43Silent,001,2022_Sep_05_0956,ProdSingRedoBetween,2021.2.3,59.99631622618414,
,,,,18,0,18,0,,,,,,,,,,,,,,,,,,,,,,797.8260723000001,None,,,,,,,,,,,,,,,,,people,34,19,silent,old,blue,792.0568352,None,792.0568352,None,1,3.863643199999956,792.0568352,None,3.863643199999956,795.9409366,None,796.4415702,None,796.4415702,None,n,1.3669532999999774,796.4415702,None,1.3669532999999774,,,43Silent,001,2022_Sep_05_0956,ProdSingRedoBetween,2021.2.3,59.99631622618414,
,,,,19,0,19,0,,,,,,,,,,,,,,,,,,,,,,805.4337761,None,,,,,,,,,,,,,,,,,ground,170,20,silent,new,null,798.3268233,None,798.3268233,None,1,5.6017398000000185,798.3268233,None,5.6017398000000185,803.9505413,None,804.4557111,None,804.4557111,None,n,0.9528492000000597,804.4557111,None,0.9528492000000597,,,43Silent,001,2022_Sep_05_0956,ProdSingRedoBetween,2021.2.3,59.99631622618414,
,,,,20,0,20,0,,,,,,,,,,,,,,,,,,,,,,810.4554748,None,,,,,,,,,,,,,,,,,pancakes,39,21,silent,old,blue,805.9392672,None,805.9392672,None,6,2.2133144999999104,805.9392672,None,2.2133144999999104,808.1741657,None,808.6872834000001,None,808.6872834000001,None,r,1.7453446000000667,808.6872834000001,None,1.7453446000000667,,,43Silent,001,2022_Sep_05_0956,ProdSingRedoBetween,2021.2.3,59.99631622618414,
,,,,21,0,21,0,,,,,,,,,,,,,,,,,,,,,,814.2594909000001,None,,,,,,,,,,,,,,,,,store,178,22,silent,new,null,810.9697885,None,810.9697885,None,1,1.590684900000042,810.9697885,None,1.590684900000042,812.5922684000001,None,813.0975433,None,813.0975433,None,n,1.1350486000000046,813.0975433,None,1.1350486000000046,,,43Silent,001,2022_Sep_05_0956,ProdSingRedoBetween,2021.2.3,59.99631622618414,
,,,,22,0,22,0,,,,,,,,,,,,,,,,,,,,,,820.2986141,None,,,,,,,,,,,,,,,,,block,110,23,silent,new,null,814.7698222,None,814.7698222,None,1,3.614826600000015,814.7698222,None,3.614826600000015,818.4142395,None,818.9180274,None,818.9180274,None,n,1.3545233999999482,818.9180274,None,1.3545233999999482,,,43Silent,001,2022_Sep_05_0956,ProdSingRedoBetween,2021.2.3,59.99631622618414,
,,,,23,0,23,0,,,,,,,,,,,,,,,,,,,,,,824.7708657000001,None,,,,,,,,,,,,,,,,,oxygen,42,24,silent,old,blue,820.8080287,None,820.8080287,None,6,1.8166848000000755,820.8080287,None,1.8166848000000755,822.6513162,None,823.1517894,None,823.1517894,None,f,1.592892499999948,823.1517894,None,1.592892499999948,,,43Silent,001,2022_Sep_05_0956,ProdSingRedoBetween,2021.2.3,59.99631622618414,
,,,,24,0,24,0,,,,,,,,,,,,,,,,,,,,,,828.840687,None,,,,,,,,,,,,,,,,,principal,70,25,silent,old,red,825.2853129,None,825.2853129,None,6,1.7072780999999395,825.2853129,None,1.7072780999999395,827.0274840000001,None,827.5394411999999,None,827.5394411999999,None,f,1.277331600000025,827.5394411999999,None,1.277331600000025,,,43Silent,001,2022_Sep_05_0956,ProdSingRedoBetween,2021.2.3,59.99631622618414,
,,,,25,0,25,0,,,,,,,,,,,,,,,,,,,,,,834.2127855,None,,,,,,,,,,,,,,,,,edition,116,26,silent,new,null,829.3415219,None,829.3415219,None,1,2.7151538999999048,829.3415219,None,2.7151538999999048,832.085477,None,832.5962731000001,None,832.5962731000001,None,n,1.5883612000000085,832.5962731000001,None,1.5883612000000085,,,43Silent,001,2022_Sep_05_0956,ProdSingRedoBetween,2021.2.3,59.99631622618414,
,,,,26,0,26,0,,,,,,,,,,,,,,,,,,,,,,849.3945434000001,None,,,,,,,,,,,,,,,,,reach,3,27,silent,old,yellow,834.7218790000001,None,834.7218790000001,None,2,12.686699900000121,834.7218790000001,None,12.686699900000121,847.4274303999999,None,847.9431757000001,None,847.9431757000001,None,n,1.4253990000001977,847.9431757000001,None,1.4253990000001977,,,43Silent,001,2022_Sep_05_0956,ProdSingRedoBetween,2021.2.3,59.99631622618414,
,,,,27,0,27,0,,,,,,,,,,,,,,,,,,,,,,855.8844234,None,,,,,,,,,,,,,,,,,under,122,28,silent,new,null,849.8959601,None,849.8959601,None,2,4.880714399999988,849.8959601,None,4.880714399999988,854.8089186000001,None,855.3172211,None,855.3172211,None,n,0.5393544999999449,855.3172211,None,0.5393544999999449,,,43Silent,001,2022_Sep_05_0956,ProdSingRedoBetween,2021.2.3,59.99631622618414,
,,,,28,0,28,0,,,,,,,,,,,,,,,,,,,,,,882.8780305000001,None,,,,,,,,,,,,,,,,,point,16,29,silent,old,yellow,856.3927471000001,None,856.3927471000001,None,3,24.479896899999858,856.3927471000001,None,24.479896899999858,880.8987245,None,881.4135400000001,None,881.4135400000001,None,n,1.4430597999999009,881.4135400000001,None,1.4430597999999009,,,43Silent,001,2022_Sep_05_0956,ProdSingRedoBetween,2021.2.3,59.99631622618414,
,,,,29,0,29,0,,,,,,,,,,,,,,,,,,,,,,886.9654271,None,,,,,,,,,,,,,,,,,charter,49,30,silent,old,blue,883.3865164,None,883.3865164,None,6,2.5982274000000416,883.3865164,None,2.5982274000000416,886.0183799,None,886.5383122,None,886.5383122,None,r,0.3983071000000109,886.5383122,None,0.3983071000000109,,,43Silent,001,2022_Sep_05_0956,ProdSingRedoBetween,2021.2.3,59.99631622618414,
,,,,30,0,30,0,,,,,,,,,,,,,,,,,,,,,,892.1206485000001,None,,,,,,,,,,,,,,,,,course,92,31,silent,new,null,887.4759846000001,None,887.4759846000001,None,2,2.980707000000166,887.4759846000001,None,2.980707000000166,890.4874673,None,891.0027946000001,None,891.0027946000001,None,n,1.0938277000000198,891.0027946000001,None,1.0938277000000198,,,43Silent,001,2022_Sep_05_0956,ProdSingRedoBetween,2021.2.3,59.99631622618414,
,,,,31,0,31,0,,,,,,,,,,,,,,,,,,,,,,898.6437553,None,,,,,,,,,,,,,,,,,victory,87,32,silent,old,red,892.6247128000001,None,892.6247128000001,None,6,2.183827000000065,892.6247128000001,None,2.183827000000065,894.8435892000001,None,895.3627587,None,895.3627587,None,r,3.2619064000000435,895.3627587,None,3.2619064000000435,,,43Silent,001,2022_Sep_05_0956,ProdSingRedoBetween,2021.2.3,59.99631622618414,
,,,,32,0,32,0,,,,,,,,,,,,,,,,,,,,,,912.9247080000001,None,,,,,,,,,,,,,,,,,youth,94,33,silent,new,null,899.1566979,None,899.1566979,None,1,11.139804800000093,899.1566979,None,11.139804800000093,910.3271341000001,None,910.8394,None,910.8394,None,n,2.0572389000001294,910.8394,None,2.0572389000001294,,,43Silent,001,2022_Sep_05_0956,ProdSingRedoBetween,2021.2.3,59.99631622618414,
,,,,33,0,33,0,,,,,,,,,,,,,,,,,,,,,,918.4969443000001,None,,,,,,,,,,,,,,,,,testimony,112,34,silent,new,null,913.4323485000001,None,913.4323485000001,None,5,3.2082441000000017,913.4323485000001,None,3.2082441000000017,916.6619469000001,None,917.1698216000001,None,917.1698216000001,None,f,1.3027786000000106,917.1698216000001,None,1.3027786000000106,,,43Silent,001,2022_Sep_05_0956,ProdSingRedoBetween,2021.2.3,59.99631622618414,
,,,,34,0,34,0,,,,,,,,,,,,,,,,,,,,,,922.4685270000001,None,,,,,,,,,,,,,,,,,command,88,35,silent,old,red,919.0041473,None,919.0041473,None,6,2.212545699999964,919.0041473,None,2.212545699999964,921.2328651000001,None,921.7389443000001,None,921.7389443000001,None,f,0.7017780000001039,921.7389443000001,None,0.7017780000001039,,,43Silent,001,2022_Sep_05_0956,ProdSingRedoBetween,2021.2.3,59.99631622618414,
,,,,35,0,35,0,,,,,,,,,,,,,,,,,,,,,,927.5224181,None,,,,,,,,,,,,,,,,,production,69,36,silent,old,red,922.9779563999999,None,922.9779563999999,None,1,2.886790900000051,922.9779563999999,None,2.886790900000051,925.8977056,None,926.4094590999999,None,926.4094590999999,None,n,1.0871543000000656,926.4094590999999,None,1.0871543000000656,,,43Silent,001,2022_Sep_05_0956,ProdSingRedoBetween,2021.2.3,59.99631622618414,
,,,,36,0,36,0,,,,,,,,,,,,,,,,,,,,,,931.1763385,None,,,,,,,,,,,,,,,,,childhood,177,37,silent,new,null,928.0260165999999,None,928.0260165999999,None,1,1.694642599999952,928.0260165999999,None,1.694642599999952,929.7433632999999,None,930.2587881000001,None,930.2587881000001,None,n,0.893929099999923,930.2587881000001,None,0.893929099999923,,,43Silent,001,2022_Sep_05_0956,ProdSingRedoBetween,2021.2.3,59.99631622618414,
,,,,37,0,37,0,,,,,,,,,,,,,,,,,,,,,,959.3813941,None,,,,,,,,,,,,,,,,,literature,58,38,silent,old,blue,931.6924475,None,931.6924475,None,4,21.412142500000073,931.6924475,None,21.412142500000073,953.1322519000001,None,953.6322279,None,953.6322279,None,f,5.720327300000008,953.6322279,None,5.720327300000008,,,43Silent,001,2022_Sep_05_0956,ProdSingRedoBetween,2021.2.3,59.99631622618414,
,,,,38,0,38,0,,,,,,,,,,,,,,,,,,,,,,965.4102816000001,None,,,,,,,,,,,,,,,,,career,5,39,silent,old,yellow,959.8883035,None,959.8883035,None,1,2.032334500000161,959.8883035,None,2.032334500000161,961.9401566,None,962.4437013,None,962.4437013,None,n,2.9490269999998873,962.4437013,None,2.9490269999998873,,,43Silent,001,2022_Sep_05_0956,ProdSingRedoBetween,2021.2.3,59.99631622618414,
,,,,39,0,39,0,,,,,,,,,,,,,,,,,,,,,,969.6814301000001,None,,,,,,,,,,,,,,,,,running,129,40,silent,new,null,965.9135924000001,None,965.9135924000001,None,1,1.8790842999999313,965.9135924000001,None,1.8790842999999313,967.8137883,None,968.3174953000001,None,968.3174953000001,None,n,1.339148600000044,968.3174953000001,None,1.339148600000044,,,43Silent,001,2022_Sep_05_0956,ProdSingRedoBetween,2021.2.3,59.99631622618414,
,,,,40,0,40,0,,,,,,,,,,,,,,,,,,,,,,985.0467972,None,,,,,,,,,,,,,,,,,discussion,40,41,silent,old,blue,970.1910518999999,None,970.1910518999999,None,5,13.75356480000005,970.1910518999999,None,13.75356480000005,983.9634148000001,None,984.4629697000001,None,984.4629697000001,None,f,0.5538438999999471,984.4629697000001,None,0.5538438999999471,,,43Silent,001,2022_Sep_05_0956,ProdSingRedoBetween,2021.2.3,59.99631622618414,
,,,,41,0,41,0,,,,,,,,,,,,,,,,,,,,,,988.7354388,None,,,,,,,,,,,,,,,,,candidate,123,42,silent,new,null,985.5569037000001,None,985.5569037000001,None,1,1.6437808000000587,985.5569037000001,None,1.6437808000000587,987.2201878,None,987.7337202,None,987.7337202,None,n,0.9710487000002104,987.7337202,None,0.9710487000002104,,,43Silent,001,2022_Sep_05_0956,ProdSingRedoBetween,2021.2.3,59.99631622618414,
,,,,42,0,42,0,,,,,,,,,,,,,,,,,,,,,,992.5876081,None,,,,,,,,,,,,,,,,,government,53,43,silent,old,blue,989.2619047,None,989.2619047,None,6,2.418739599999981,989.2619047,None,2.418739599999981,991.7046220000001,None,992.2061480000001,None,992.2061480000001,None,f,0.3544661000000815,992.2061480000001,None,0.3544661000000815,,,43Silent,001,2022_Sep_05_0956,ProdSingRedoBetween,2021.2.3,59.99631622618414,
,,,,43,0,43,0,,,,,,,,,,,,,,,,,,,,,,1002.4307681000001,None,,,,,,,,,,,,,,,,,tough,4,44,silent,old,yellow,993.0943864,None,993.0943864,None,5,7.538336100000151,993.0943864,None,7.538336100000151,1000.6668834999999,None,1001.1804434,None,1001.1804434,None,f,1.228186899999855,1001.1804434,None,1.228186899999855,,,43Silent,001,2022_Sep_05_0956,ProdSingRedoBetween,2021.2.3,59.99631622618414,
,,,,44,0,44,0,,,,,,,,,,,,,,,,,,,,,,1005.8008312000001,None,,,,,,,,,,,,,,,,,weather,33,45,silent,old,blue,1002.9408905000001,None,1002.9408905000001,None,1,1.2677627000000484,1002.9408905000001,None,1.2677627000000484,1004.2338475,None,1004.7374218000001,None,1004.7374218000001,None,n,1.0471005000001696,1004.7374218000001,None,1.0471005000001696,,,43Silent,001,2022_Sep_05_0956,ProdSingRedoBetween,2021.2.3,59.99631622618414,
,,,,45,0,45,0,,,,,,,,,,,,,,,,,,,,,,1010.0384751,None,,,,,,,,,,,,,,,,,enemy,117,46,silent,new,null,1006.3151956,None,1006.3151956,None,1,2.0135195999998814,1006.3151956,None,2.0135195999998814,1008.3606285,None,1008.8707968,None,1008.8707968,None,n,1.1378574999998818,1008.8707968,None,1.1378574999998818,,,43Silent,001,2022_Sep_05_0956,ProdSingRedoBetween,2021.2.3,59.99631622618414,
,,,,46,0,46,0,,,,,,,,,,,,,,,,,,,,,,1016.895361,None,,,,,,,,,,,,,,,,,pressure,11,47,silent,old,yellow,1010.5443607000001,None,1010.5443607000001,None,5,5.4483330999999,1010.5443607000001,None,5.4483330999999,1016.0161737,None,1016.5313504,None,1016.5313504,None,f,0.3333141999999043,1016.5313504,None,0.3333141999999043,,,43Silent,001,2022_Sep_05_0956,ProdSingRedoBetween,2021.2.3,59.99631622618414,
,,,,47,0,47,0,,,,,,,,,,,,,,,,,,,,,,1021.4331399000001,None,,,,,,,,,,,,,,,,,orchestra,71,48,silent,old,red,1017.4070342000001,None,1017.4070342000001,None,6,2.345649500000036,1017.4070342000001,None,2.345649500000036,1019.7833065000001,None,1020.3044957000001,None,1020.3044957000001,None,r,1.112125399999968,1020.3044957000001,None,1.112125399999968,,,43Silent,001,2022_Sep_05_0956,ProdSingRedoBetween,2021.2.3,59.99631622618414,
,,,,48,0,48,0,,,,,,,,,,,,,,,,,,,,,,1026.0391496,None,,,,,,,,,,,,,,,,,poetry,104,49,silent,new,null,1021.9418936999999,None,1021.9418936999999,None,1,2.258861999999908,1021.9418936999999,None,2.258861999999908,1024.2256502,None,1024.736488,None,1024.736488,None,n,1.2802690999999413,1024.736488,None,1.2802690999999413,,,43Silent,001,2022_Sep_05_0956,ProdSingRedoBetween,2021.2.3,59.99631622618414,
,,,,49,0,49,0,,,,,,,,,,,,,,,,,,,,,,1054.0822498999999,None,,,,,,,,,,,,,,,,,still,8,50,silent,old,yellow,1026.5423352,None,1026.5423352,None,4,26.426413499999853,1026.5423352,None,26.426413499999853,1053.0054039,None,1053.5218138999999,None,1053.5218138999999,None,f,0.5429142000000411,1053.5218138999999,None,0.5429142000000411,,,43Silent,001,2022_Sep_05_0956,ProdSingRedoBetween,2021.2.3,59.99631622618414,
,,,,50,0,50,0,,,,,,,,,,,,,,,,,,,,,,1059.6044034,None,,,,,,,,,,,,,,,,,material,102,51,silent,new,null,1054.5885377,None,1054.5885377,None,1,3.1561881000000085,1054.5885377,None,3.1561881000000085,1057.7704305,None,1058.2736095999999,None,1058.2736095999999,None,n,1.3110724000000573,1058.2736095999999,None,1.3110724000000573,,,43Silent,001,2022_Sep_05_0956,ProdSingRedoBetween,2021.2.3,59.99631622618414,
,,,,51,0,51,0,,,,,,,,,,,,,,,,,,,,,,1074.9032131,None,,,,,,,,,,,,,,,,,silence,120,52,silent,new,null,1060.1165899999999,None,1060.1165899999999,None,4,12.716036700000132,1060.1165899999999,None,12.716036700000132,1072.8532751999999,None,1073.3714862,None,1073.3714862,None,f,1.509248800000023,1073.3714862,None,1.509248800000023,,,43Silent,001,2022_Sep_05_0956,ProdSingRedoBetween,2021.2.3,59.99631622618414,
,,,,52,0,52,0,,,,,,,,,,,,,,,,,,,,,,1081.5479495999998,None,,,,,,,,,,,,,,,,,dance,84,53,silent,old,red,1075.4102776,None,1075.4102776,None,2,4.446570399999928,1075.4102776,None,4.446570399999928,1079.8859401,None,1080.3921847,None,1080.3921847,None,n,1.1285048000002007,1080.3921847,None,1.1285048000002007,,,43Silent,001,2022_Sep_05_0956,ProdSingRedoBetween,2021.2.3,59.99631622618414,
,,,,53,0,53,0,,,,,,,,,,,,,,,,,,,,,,1085.9642469,None,,,,,,,,,,,,,,,,,danger,91,54,silent,new,null,1082.0609674999998,None,1082.0609674999998,None,1,2.0679810999999972,1082.0609674999998,None,2.0679810999999972,1084.1458496999999,None,1084.6584194,None,1084.6584194,None,n,1.2782402999998794,1084.6584194,None,1.2782402999998794,,,43Silent,001,2022_Sep_05_0956,ProdSingRedoBetween,2021.2.3,59.99631622618414,
,,,,54,0,54,0,,,,,,,,,,,,,,,,,,,,,,1089.784671,None,,,,,,,,,,,,,,,,,agency,50,55,silent,old,blue,1086.4754709,None,1086.4754709,None,6,2.085166699999945,1086.4754709,None,2.085166699999945,1088.5846451999998,None,1089.0888464,None,1089.0888464,None,f,0.6797567999999501,1089.0888464,None,0.6797567999999501,,,43Silent,001,2022_Sep_05_0956,ProdSingRedoBetween,2021.2.3,59.99631622618414,
,,,,55,0,55,0,,,,,,,,,,,,,,,,,,,,,,1093.5890748,None,,,,,,,,,,,,,,,,,income,176,56,silent,new,null,1090.2911855,None,1090.2911855,None,1,1.38940290000005,1090.2911855,None,1.38940290000005,1091.7126997,None,1092.2206861,None,1092.2206861,None,n,1.348033100000066,1092.2206861,None,1.348033100000066,,,43Silent,001,2022_Sep_05_0956,ProdSingRedoBetween,2021.2.3,59.99631622618414,
,,,,56,0,56,0,,,,,,,,,,,,,,,,,,,,,,1100.7142677,None,,,,,,,,,,,,,,,,,object,154,57,silent,new,null,1094.096961,None,1094.096961,None,4,5.751725599999872,1094.096961,None,5.751725599999872,1099.8802452999998,None,1100.3999460999999,None,1100.3999460999999,None,f,0.28880679999997483,1100.3999460999999,None,0.28880679999997483,,,43Silent,001,2022_Sep_05_0956,ProdSingRedoBetween,2021.2.3,59.99631622618414,
,,,,57,0,57,0,,,,,,,,,,,,,,,,,,,,,,1104.0323965,None,,,,,,,,,,,,,,,,,committee,65,58,silent,old,red,1101.2330846999998,None,1101.2330846999998,None,6,1.879726699999992,1101.2330846999998,None,1.879726699999992,1103.132232,None,1103.634875,None,1103.634875,None,r,0.3738493999999264,1103.634875,None,0.3738493999999264,,,43Silent,001,2022_Sep_05_0956,ProdSingRedoBetween,2021.2.3,59.99631622618414,
,,,,58,0,58,0,,,,,,,,,,,,,,,,,,,,,,1122.4344893999998,None,,,,,,,,,,,,,,,,,stand,89,59,silent,old,red,1104.5400903999998,None,1104.5400903999998,None,4,16.860688499999924,1104.5400903999998,None,16.860688499999924,1121.4174894,None,1121.9168227999999,None,1121.9168227999999,None,f,0.499839399999928,1121.9168227999999,None,0.499839399999928,,,43Silent,001,2022_Sep_05_0956,ProdSingRedoBetween,2021.2.3,59.99631622618414,
,,,,59,0,59,0,,,,,,,,,,,,,,,,,,,,,,1126.6216749999999,None,,,,,,,,,,,,,,,,,route,168,60,silent,new,null,1122.9407967999998,None,1122.9407967999998,None,1,1.5240014999999403,1122.9407967999998,None,1.5240014999999403,1124.4928957,None,1125.0064814999998,None,1125.0064814999998,None,n,1.5942190000000664,1125.0064814999998,None,1.5942190000000664,,,43Silent,001,2022_Sep_05_0956,ProdSingRedoBetween,2021.2.3,59.99631622618414,
,,,,60,0,60,0,,,,,,,,,,,,,,,,,,,,,,1130.3920807,None,,,,,,,,,,,,,,,,,history,142,61,silent,new,null,1127.1324124999999,None,1127.1324124999999,None,1,1.708404499999915,1127.1324124999999,None,1.708404499999915,1128.8584776,None,1129.3577352,None,1129.3577352,None,n,1.0110003000002052,1129.3577352,None,1.0110003000002052,,,43Silent,001,2022_Sep_05_0956,ProdSingRedoBetween,2021.2.3,59.99631622618414,
,,,,61,0,61,0,,,,,,,,,,,,,,,,,,,,,,1143.2716039,None,,,,,,,,,,,,,,,,,nature,78,62,silent,old,red,1130.9001299,None,1130.9001299,None,2,10.748618699999952,1130.9001299,None,10.748618699999952,1141.67094,None,1142.1745503,None,1142.1745503,None,n,1.0822073000001637,1142.1745503,None,1.0822073000001637,,,43Silent,001,2022_Sep_05_0956,ProdSingRedoBetween,2021.2.3,59.99631622618414,
,,,,62,0,62,0,,,,,,,,,,,,,,,,,,,,,,1148.0097472,None,,,,,,,,,,,,,,,,,instrument,141,63,silent,new,null,1143.7790456999999,None,1143.7790456999999,None,6,2.021697000000131,1143.7790456999999,None,2.021697000000131,1145.8252475,None,1146.3289267,None,1146.3289267,None,f,1.6637905000000046,1146.3289267,None,1.6637905000000046,,,43Silent,001,2022_Sep_05_0956,ProdSingRedoBetween,2021.2.3,59.99631622618414,
,,,,63,0,63,0,,,,,,,,,,,,,,,,,,,,,,1153.064668,None,,,,,,,,,,,,,,,,,guard,32,64,silent,old,blue,1148.5101447,None,1148.5101447,None,2,3.490500799999836,1148.5101447,None,3.490500799999836,1152.0334237999998,None,1152.5475795999998,None,1152.5475795999998,None,n,0.4931399000001875,1152.5475795999998,None,0.4931399000001875,,,43Silent,001,2022_Sep_05_0956,ProdSingRedoBetween,2021.2.3,59.99631622618414,
,,,,64,0,64,0,,,,,,,,,,,,,,,,,,,,,,1155.9020248,None,,,,,,,,,,,,,,,,,chief,85,65,silent,old,red,1153.5742318999999,None,1153.5742318999999,None,1,1.3704855000000862,1153.5742318999999,None,1.3704855000000862,1154.967101,None,1155.46964,None,1155.46964,None,n,0.4032194999999774,1155.46964,None,0.4032194999999774,,,43Silent,001,2022_Sep_05_0956,ProdSingRedoBetween,2021.2.3,59.99631622618414,
,,,,65,0,65,0,,,,,,,,,,,,,,,,,,,,,,1163.8422037999999,None,,,,,,,,,,,,,,,,,message,99,66,silent,new,null,1156.4075392,None,1156.4075392,None,2,6.5531963000000815,1156.4075392,None,6.5531963000000815,1162.9931213,None,1163.5085838999998,None,1163.5085838999998,None,n,0.3161872000000585,1163.5085838999998,None,0.3161872000000585,,,43Silent,001,2022_Sep_05_0956,ProdSingRedoBetween,2021.2.3,59.99631622618414,
,,,,66,0,66,0,,,,,,,,,,,,,,,,,,,,,,1168.0797332999998,None,,,,,,,,,,,,,,,,,brief,29,67,silent,old,blue,1164.3510001,None,1164.3510001,None,2,2.841796499999873,1164.3510001,None,2.841796499999873,1167.2159299,None,1167.7344828,None,1167.7344828,None,n,0.33026509999990594,1167.7344828,None,0.33026509999990594,,,43Silent,001,2022_Sep_05_0956,ProdSingRedoBetween,2021.2.3,59.99631622618414,
,,,,67,0,67,0,,,,,,,,,,,,,,,,,,,,,,1171.850139,None,,,,,,,,,,,,,,,,,scale,153,68,silent,new,null,1168.5882012,None,1168.5882012,None,2,2.492557300000044,1168.5882012,None,2.492557300000044,1171.1005100999998,None,1171.6045872,None,1171.6045872,None,n,0.22811690000003182,1171.6045872,None,0.22811690000003182,,,43Silent,001,2022_Sep_05_0956,ProdSingRedoBetween,2021.2.3,59.99631622618414,
,,,,68,0,68,0,,,,,,,,,,,,,,,,,,,,,,1175.8374681999999,None,,,,,,,,,,,,,,,,,signal,162,69,silent,new,null,1172.3602606,None,1172.3602606,None,2,0.9844941999999719,1172.3602606,None,0.9844941999999719,1173.3712984,None,1173.8877376,None,1173.8877376,None,n,1.9210244999999304,1173.8877376,None,1.9210244999999304,,,43Silent,001,2022_Sep_05_0956,ProdSingRedoBetween,2021.2.3,59.99631622618414,
,,,,69,0,69,0,,,,,,,,,,,,,,,,,,,,,,1178.0730336,None,,,,,,,,,,,,,,,,,trash,103,70,silent,new,null,1176.3406803999999,None,1176.3406803999999,None,2,1.0040231000000404,1176.3406803999999,None,1.0040231000000404,1177.3732467,None,1177.8789735,None,1177.8789735,None,n,0.16977799999995113,1177.8789735,None,0.16977799999995113,,,43Silent,001,2022_Sep_05_0956,ProdSingRedoBetween,2021.2.3,59.99631622618414,
,,,,70,0,70,0,,,,,,,,,,,,,,,,,,,,,,1181.5933780999999,None,,,,,,,,,,,,,,,,,weight,68,71,silent,old,red,1178.5816135999999,None,1178.5816135999999,None,2,0.843132500000138,1178.5816135999999,None,0.843132500000138,1179.4424431,None,1179.9416967999998,None,1179.9416967999998,None,n,1.6269159999999374,1179.9416967999998,None,1.6269159999999374,,,43Silent,001,2022_Sep_05_0956,ProdSingRedoBetween,2021.2.3,59.99631622618414,
,,,,71,0,71,0,,,,,,,,,,,,,,,,,,,,,,1184.5628112,None,,,,,,,,,,,,,,,,,business,118,72,silent,new,null,1182.0983691,None,1182.0983691,None,2,1.5662947000000713,1182.0983691,None,1.5662947000000713,1183.6961992,None,1184.210238,None,1184.210238,None,n,0.3265589000000091,1184.210238,None,0.3265589000000091,,,43Silent,001,2022_Sep_05_0956,ProdSingRedoBetween,2021.2.3,59.99631622618414,
,,,,72,0,72,0,,,,,,,,,,,,,,,,,,,,,,1186.8151764,None,,,,,,,,,,,,,,,,,scene,109,73,silent,new,null,1185.0671452,None,1185.0671452,None,2,1.1415942999999515,1185.0671452,None,1.1415942999999515,1186.2331963,None,1186.748406,None,1186.748406,None,n,0.03633829999989757,1186.748406,None,0.03633829999989757,,,43Silent,001,2022_Sep_05_0956,ProdSingRedoBetween,2021.2.3,59.99631622618414,
,,,,73,0,73,0,,,,,,,,,,,,,,,,,,,,,,1191.2529737999998,None,,,,,,,,,,,,,,,,,religion,44,74,silent,old,blue,1187.3183124,None,1187.3183124,None,6,1.6904485999998542,1187.3183124,None,1.6904485999998542,1189.0378947,None,1189.5537113999999,None,1189.5537113999999,None,f,1.6790340000000015,1189.5537113999999,None,1.6790340000000015,,,43Silent,001,2022_Sep_05_0956,ProdSingRedoBetween,2021.2.3,59.99631622618414,
,,,,74,0,74,0,,,,,,,,,,,,,,,,,,,,,,1195.0066031,None,,,,,,,,,,,,,,,,,school,79,75,silent,old,red,1191.7645605,None,1191.7645605,None,1,2.388192300000128,1191.7645605,None,2.388192300000128,1194.1735340999999,None,1194.6731745,None,1194.6731745,None,n,0.30359999999996035,1194.6731745,None,0.30359999999996035,,,43Silent,001,2022_Sep_05_0956,ProdSingRedoBetween,2021.2.3,59.99631622618414,
,,,,75,0,75,0,,,,,,,,,,,,,,,,,,,,,,1206.8017399999999,None,,,,,,,,,,,,,,,,,character,74,76,silent,old,red,1195.5113959999999,None,1195.5113959999999,None,2,10.081375600000001,1195.5113959999999,None,10.081375600000001,1205.6171868,None,1206.1212504999999,None,1206.1212504999999,None,n,0.6555313000001206,1206.1212504999999,None,0.6555313000001206,,,43Silent,001,2022_Sep_05_0956,ProdSingRedoBetween,2021.2.3,59.99631622618414,
,,,,76,0,76,0,,,,,,,,,,,,,,,,,,,,,,1225.2201513999998,None,,,,,,,,,,,,,,,,,power,17,77,silent,old,yellow,1207.3060226,None,1207.3060226,None,2,16.80674429999999,1207.3060226,None,16.80674429999999,1224.1379190999999,None,1224.6530668999999,None,1224.6530668999999,None,n,0.5397235000000364,1224.6530668999999,None,0.5397235000000364,,,43Silent,001,2022_Sep_05_0956,ProdSingRedoBetween,2021.2.3,59.99631622618414,
,,,,77,0,77,0,,,,,,,,,,,,,,,,,,,,,,1232.8779043,None,,,,,,,,,,,,,,,,,design,47,78,silent,old,blue,1225.7225781999998,None,1225.7225781999998,None,6,2.262242199999946,1225.7225781999998,None,2.262242199999946,1228.0117711,None,1228.5258102999999,None,1228.5258102999999,None,f,4.330954499999962,1228.5258102999999,None,4.330954499999962,,,43Silent,001,2022_Sep_05_0956,ProdSingRedoBetween,2021.2.3,59.99631622618414,
,,,,78,0,78,0,,,,,,,,,,,,,,,,,,,,,,1236.6146913999999,None,,,,,,,,,,,,,,,,,angle,48,79,silent,old,blue,1233.3798213999999,None,1233.3798213999999,None,6,2.4608687999998438,1233.3798213999999,None,2.4608687999998438,1235.8687063,None,1236.3880431,None,1236.3880431,None,r,0.1968735000000379,1236.3880431,None,0.1968735000000379,,,43Silent,001,2022_Sep_05_0956,ProdSingRedoBetween,2021.2.3,59.99631622618414,
,,,,79,0,79,0,,,,,,,,,,,,,,,,,,,,,,1244.5394870999999,None,,,,,,,,,,,,,,,,,citizen,95,80,silent,new,null,1237.1227632999999,None,1237.1227632999999,None,2,5.253924099999949,1237.1227632999999,None,5.253924099999949,1242.4038921,None,1242.9046853,None,1242.9046853,None,n,1.6080641999999443,1242.9046853,None,1.6080641999999443,,,43Silent,001,2022_Sep_05_0956,ProdSingRedoBetween,2021.2.3,59.99631622618414,
,,,,80,0,80,0,,,,,,,,,,,,,,,,,,,,,,1252.8478481,None,,,,,,,,,,,,,,,,,dream,174,81,silent,new,null,1245.0486303999999,None,1245.0486303999999,None,1,5.288106599999992,1245.0486303999999,None,5.288106599999992,1250.3619456,None,1250.8682482,None,1250.8682482,None,n,1.956502799999953,1250.8682482,None,1.956502799999953,,,43Silent,001,2022_Sep_05_0956,ProdSingRedoBetween,2021.2.3,59.99631622618414,
,,,,81,0,81,0,,,,,,,,,,,,,,,,,,,,,,1279.9079691,None,,,,,,,,,,,,,,,,,author,57,82,silent,old,blue,1253.3544072999998,None,1253.3544072999998,None,3,23.84637870000006,1253.3544072999998,None,23.84637870000006,1277.2220138999999,None,1277.7253339,None,1277.7253339,None,n,2.1553870999998708,1277.7253339,None,2.1553870999998708,,,43Silent,001,2022_Sep_05_0956,ProdSingRedoBetween,2021.2.3,59.99631622618414,
,,,,82,0,82,0,,,,,,,,,,,,,,,,,,,,,,1287.0486214999999,None,,,,,,,,,,,,,,,,,addition,13,83,silent,old,yellow,1280.4153887,None,1280.4153887,None,5,5.577493500000173,1280.4153887,None,5.577493500000173,1286.0241274,None,1286.534074,None,1286.534074,None,f,0.49871779999989485,1286.534074,None,0.49871779999989485,,,43Silent,001,2022_Sep_05_0956,ProdSingRedoBetween,2021.2.3,59.99631622618414,
,,,,83,0,83,0,,,,,,,,,,,,,,,,,,,,,,1290.5688226,None,,,,,,,,,,,,,,,,,finance,83,84,silent,old,red,1287.5571599,None,1287.5571599,None,6,1.7236244000000625,1287.5571599,None,1.7236244000000625,1289.3021374,None,1289.8050832,None,1289.8050832,None,f,0.739829699999973,1289.8050832,None,0.739829699999973,,,43Silent,001,2022_Sep_05_0956,ProdSingRedoBetween,2021.2.3,59.99631622618414,
,,,,84,0,84,0,,,,,,,,,,,,,,,,,,,,,,1304.0155482,None,,,,,,,,,,,,,,,,,story,151,85,silent,new,null,1291.0702554,None,1291.0702554,None,2,10.962431800000104,1291.0702554,None,10.962431800000104,1302.0642182,None,1302.5644461,None,1302.5644461,None,n,1.4283686999999645,1302.5644461,None,1.4283686999999645,,,43Silent,001,2022_Sep_05_0956,ProdSingRedoBetween,2021.2.3,59.99631622618414,
,,,,85,0,85,0,,,,,,,,,,,,,,,,,,,,,,1307.4356516,None,,,,,,,,,,,,,,,,,country,107,86,silent,new,null,1304.5266978999998,None,1304.5266978999998,None,2,1.9941579999999703,1304.5266978999998,None,1.9941579999999703,1306.5512737,None,1307.052098,None,1307.052098,None,n,0.36473800000021583,1307.052098,None,0.36473800000021583,,,43Silent,001,2022_Sep_05_0956,ProdSingRedoBetween,2021.2.3,59.99631622618414,
,,,,86,0,86,0,,,,,,,,,,,,,,,,,,,,,,1310.8224106,None,,,,,,,,,,,,,,,,,couch,125,87,silent,new,null,1307.9375016,None,1307.9375016,None,1,2.0873189000001275,1307.9375016,None,2.0873189000001275,1310.0555542999998,None,1310.5676807,None,1310.5676807,None,n,0.23311100000000806,1310.5676807,None,0.23311100000000806,,,43Silent,001,2022_Sep_05_0956,ProdSingRedoBetween,2021.2.3,59.99631622618414,
,,,,87,0,87,0,,,,,,,,,,,,,,,,,,,,,,1314.2758474,None,,,,,,,,,,,,,,,,,clear,124,88,silent,new,null,1311.3307774,None,1311.3307774,None,1,2.0140327000001434,1311.3307774,None,2.0140327000001434,1313.3758665999999,None,1313.8761616,None,1313.8761616,None,n,0.37264189999996233,1313.8761616,None,0.37264189999996233,,,43Silent,001,2022_Sep_05_0956,ProdSingRedoBetween,2021.2.3,59.99631622618414,
,,,,88,0,88,0,,,,,,,,,,,,,,,,,,,,,,1317.8794506,None,,,,,,,,,,,,,,,,,platform,108,89,silent,new,null,1314.778867,None,1314.778867,None,1,1.6540709999999308,1314.778867,None,1.6540709999999308,1316.4668136,None,1316.9787651,None,1316.9787651,None,n,0.8700463999998647,1316.9787651,None,0.8700463999998647,,,43Silent,001,2022_Sep_05_0956,ProdSingRedoBetween,2021.2.3,59.99631622618414,
,,,,89,0,89,0,,,,,,,,,,,,,,,,,,,,,,1320.1484624999998,None,,,,,,,,,,,,,,,,,recall,138,90,silent,new,null,1318.3919231999998,None,1318.3919231999998,None,1,1.0248699000001125,1318.3919231999998,None,1.0248699000001125,1319.4477117,None,1319.9523436,None,1319.9523436,None,n,0.16842909999991207,1319.9523436,None,0.16842909999991207,,,43Silent,001,2022_Sep_05_0956,ProdSingRedoBetween,2021.2.3,59.99631622618414,
,,,,90,0,90,0,,,,,,,,,,,,,,,,,,,,,,1322.0836571,None,,,,,,,,,,,,,,,,,tennis,133,91,silent,new,null,1320.6547753999998,None,1320.6547753999998,None,1,0.754106800000045,1320.6547753999998,None,0.754106800000045,1321.4406331,None,1321.9502843,None,1321.9502843,None,n,0.10647049999988667,1321.9502843,None,0.10647049999988667,,,43Silent,001,2022_Sep_05_0956,ProdSingRedoBetween,2021.2.3,59.99631622618414,
,,,,91,0,91,0,,,,,,,,,,,,,,,,,,,,,,1327.4557166999998,None,,,,,,,,,,,,,,,,,second,148,92,silent,new,null,1322.5853716,None,1322.5853716,None,1,4.031446999999844,1322.5853716,None,4.031446999999844,1326.640619,None,1327.1608092,None,1327.1608092,None,n,0.2639615999999023,1327.1608092,None,0.2639615999999023,,,43Silent,001,2022_Sep_05_0956,ProdSingRedoBetween,2021.2.3,59.99631622618414,
,,,,92,0,92,0,,,,,,,,,,,,,,,,,,,,,,1332.1768462999999,None,,,,,,,,,,,,,,,,,medicine,144,93,silent,new,null,1327.9647593,None,1327.9647593,None,1,3.268015500000047,1327.9647593,None,3.268015500000047,1331.2595512,None,1331.7795910999998,None,1331.7795910999998,None,n,0.37309700000014345,1331.7795910999998,None,0.37309700000014345,,,43Silent,001,2022_Sep_05_0956,ProdSingRedoBetween,2021.2.3,59.99631622618414,
,,,,93,0,93,0,,,,,,,,,,,,,,,,,,,,,,1337.0319696,None,,,,,,,,,,,,,,,,,thick,105,94,silent,new,null,1332.6786674,None,1332.6786674,None,1,3.4581312000000253,1332.6786674,None,3.4581312000000253,1336.1662271999999,None,1336.6841551,None,1336.6841551,None,n,0.33263140000008207,1336.6841551,None,0.33263140000008207,,,43Silent,001,2022_Sep_05_0956,ProdSingRedoBetween,2021.2.3,59.99631622618414,
,,,,94,0,94,0,,,,,,,,,,,,,,,,,,,,,,1346.5581278,None,,,,,,,,,,,,,,,,,foundation,54,95,silent,old,blue,1337.5340414,None,1337.5340414,None,2,7.330892899999981,1337.5340414,None,7.330892899999981,1344.8956967,None,1345.4111229,None,1345.4111229,None,n,1.1176946999999018,1345.4111229,None,1.1176946999999018,,,43Silent,001,2022_Sep_05_0956,ProdSingRedoBetween,2021.2.3,59.99631622618414,
,,,,95,0,95,0,,,,,,,,,,,,,,,,,,,,,,1364.9261857,None,,,,,,,,,,,,,,,,,build,159,96,silent,new,null,1347.0679226,None,1347.0679226,None,2,16.340829400000075,1347.0679226,None,16.340829400000075,1363.4250290999998,None,1363.928176,None,1363.928176,None,n,0.9766374000000724,1363.928176,None,0.9766374000000724,,,43Silent,001,2022_Sep_05_0956,ProdSingRedoBetween,2021.2.3,59.99631622618414,
,,,,96,0,96,0,,,,,,,,,,,,,,,,,,,,,,1368.446723,None,,,,,,,,,,,,,,,,,household,26,97,silent,old,yellow,1365.4358135999998,None,1365.4358135999998,None,1,2.1490014000000883,1365.4358135999998,None,2.1490014000000883,1367.6145708,None,1368.1297611,None,1368.1297611,None,n,0.29507940000007693,1368.1297611,None,0.29507940000007693,,,43Silent,001,2022_Sep_05_0956,ProdSingRedoBetween,2021.2.3,59.99631622618414,
,,,,97,0,97,0,,,,,,,,,,,,,,,,,,,,,,1373.2847735,None,,,,,,,,,,,,,,,,,majority,0,98,silent,old,yellow,1368.9536747999998,None,1368.9536747999998,None,6,1.7592062999999598,1368.9536747999998,None,1.7592062999999598,1370.7403838999999,None,1371.2496035,None,1371.2496035,None,f,2.015235500000017,1371.2496035,None,2.015235500000017,,,43Silent,001,2022_Sep_05_0956,ProdSingRedoBetween,2021.2.3,59.99631622618414,
,,,,98,0,98,0,,,,,,,,,,,,,,,,,,,,,,1377.5056981999999,None,,,,,,,,,,,,,,,,,prime,106,99,silent,new,null,1373.7946600999999,None,1373.7946600999999,None,2,2.646155500000077,1373.7946600999999,None,2.646155500000077,1376.4746206,None,1376.9885398,None,1376.9885398,None,n,0.5002908999999818,1376.9885398,None,0.5002908999999818,,,43Silent,001,2022_Sep_05_0956,ProdSingRedoBetween,2021.2.3,59.99631622618414,
,,,,99,0,99,0,,,,,,,,,,,,,,,,,,,,,,1412.8244244,None,,,,,,,,,,,,,,,,,division,59,100,silent,old,yellow,1378.0156144999999,None,1378.0156144999999,None,4,32.94527449999987,1378.0156144999999,None,32.94527449999987,1410.9912783999998,None,1411.5065323,None,1411.5065323,None,f,1.3023757000000842,1411.5065323,None,1.3023757000000842,,,43Silent,001,2022_Sep_05_0956,ProdSingRedoBetween,2021.2.3,59.99631622618414,
,,,,100,0,100,0,,,,,,,,,,,,,,,,,,,,,,1417.9460808,None,,,,,,,,,,,,,,,,,distance,82,101,silent,old,red,1413.3268214,None,1413.3268214,None,6,3.690066900000147,1413.3268214,None,3.690066900000147,1417.0461140999998,None,1417.5459187,None,1417.5459187,None,f,0.37484489999997095,1417.5459187,None,0.37484489999997095,,,43Silent,001,2022_Sep_05_0956,ProdSingRedoBetween,2021.2.3,59.99631622618414,
,,,,101,0,101,0,,,,,,,,,,,,,,,,,,,,,,1431.3261592,None,,,,,,,,,,,,,,,,,match,149,102,silent,new,null,1418.4512774999998,None,1418.4512774999998,None,4,10.829591400000027,1418.4512774999998,None,10.829591400000027,1429.3086976,None,1429.8078428,None,1429.8078428,None,f,1.489061300000003,1429.8078428,None,1.489061300000003,,,43Silent,001,2022_Sep_05_0956,ProdSingRedoBetween,2021.2.3,59.99631622618414,
,,,,102,0,102,0,,,,,,,,,,,,,,,,,,,,,,1434.9130996,None,,,,,,,,,,,,,,,,,interior,179,103,silent,new,null,1431.8282213,None,1431.8282213,None,1,2.0606364000000212,1431.8282213,None,2.0606364000000212,1433.9136718,None,1434.4165538999998,None,1434.4165538999998,None,n,0.47234629999979916,1434.4165538999998,None,0.47234629999979916,,,43Silent,001,2022_Sep_05_0956,ProdSingRedoBetween,2021.2.3,59.99631622618414,
,,,,103,0,103,0,,,,,,,,,,,,,,,,,,,,,,1439.4009019999999,None,,,,,,,,,,,,,,,,,atmosphere,30,104,silent,old,blue,1435.4302799999998,None,1435.4302799999998,None,6,3.2747259000000213,1435.4302799999998,None,3.2747259000000213,1438.7404471,None,1439.254773,None,1439.254773,None,r,0.1300395999999182,1439.254773,None,0.1300395999999182,,,43Silent,001,2022_Sep_05_0956,ProdSingRedoBetween,2021.2.3,59.99631622618414,
,,,,104,0,104,0,,,,,,,,,,,,,,,,,,,,,,1445.9074455999998,None,,,,,,,,,,,,,,,,,rural,55,105,silent,old,blue,1439.9168390999998,None,1439.9168390999998,None,5,4.924023799999986,1439.9168390999998,None,4.924023799999986,1444.8573552,None,1445.3595587999998,None,1445.3595587999998,None,f,0.5293411000000106,1445.3595587999998,None,0.5293411000000106,,,43Silent,001,2022_Sep_05_0956,ProdSingRedoBetween,2021.2.3,59.99631622618414,
,,,,105,0,105,0,,,,,,,,,,,,,,,,,,,,,,1453.831989,None,,,,,,,,,,,,,,,,,shape,128,106,silent,new,null,1446.4154591,None,1446.4154591,None,2,5.5054095999998935,1446.4154591,None,5.5054095999998935,1451.9518993,None,1452.4639491,None,1452.4639491,None,n,1.3529398999999103,1452.4639491,None,1.3529398999999103,,,43Silent,001,2022_Sep_05_0956,ProdSingRedoBetween,2021.2.3,59.99631622618414,
,,,,106,0,106,0,,,,,,,,,,,,,,,,,,,,,,1458.6366137,None,,,,,,,,,,,,,,,,,drove,72,107,silent,old,red,1454.3403334999998,None,1454.3403334999998,None,2,3.1568260000001374,1454.3403334999998,None,3.1568260000001374,1457.5304291999998,None,1458.0408378,None,1458.0408378,None,n,0.5761477000000923,1458.0408378,None,0.5761477000000923,,,43Silent,001,2022_Sep_05_0956,ProdSingRedoBetween,2021.2.3,59.99631622618414,
,,,,107,0,107,0,,,,,,,,,,,,,,,,,,,,,,1463.308177,None,,,,,,,,,,,,,,,,,solution,64,108,silent,old,red,1459.1374314999998,None,1459.1374314999998,None,5,3.2154512999998133,1459.1374314999998,None,3.2154512999998133,1462.3749008999998,None,1462.8791829,None,1462.8791829,None,f,0.40166740000017853,1462.8791829,None,0.40166740000017853,,,43Silent,001,2022_Sep_05_0956,ProdSingRedoBetween,2021.2.3,59.99631622618414,
,,,,108,0,108,0,,,,,,,,,,,,,,,,,,,,,,1466.3445058999998,None,,,,,,,,,,,,,,,,,spoke,93,109,silent,new,null,1463.8179771,None,1463.8179771,None,1,1.5668974999998682,1463.8179771,None,1.5668974999998682,1465.4113673,None,1465.9194103,None,1465.9194103,None,n,0.4014710000001287,1465.9194103,None,0.4014710000001287,,,43Silent,001,2022_Sep_05_0956,ProdSingRedoBetween,2021.2.3,59.99631622618414,
,,,,109,0,109,0,,,,,,,,,,,,,,,,,,,,,,1470.114949,None,,,,,,,,,,,,,,,,,appeal,164,110,silent,new,null,1466.8540942999998,None,1466.8540942999998,None,2,2.2827718000000914,1466.8540942999998,None,2.2827718000000914,1469.1802258999999,None,1469.6814218,None,1469.6814218,None,n,0.41554589999987,1469.6814218,None,0.41554589999987,,,43Silent,001,2022_Sep_05_0956,ProdSingRedoBetween,2021.2.3,59.99631622618414,
,,,,110,0,110,0,,,,,,,,,,,,,,,,,,,,,,1477.8892412,None,,,,,,,,,,,,,,,,,worker,46,111,silent,old,blue,1470.6243164,None,1470.6243164,None,1,6.208563299999923,1470.6243164,None,6.208563299999923,1476.8583657,None,1477.3744981,None,1477.3744981,None,n,0.49039140000013504,1477.3744981,None,0.49039140000013504,,,43Silent,001,2022_Sep_05_0956,ProdSingRedoBetween,2021.2.3,59.99631622618414,
,,,,111,0,111,0,,,,,,,,,,,,,,,,,,,,,,1480.6307015,None,,,,,,,,,,,,,,,,,place,12,112,silent,old,yellow,1478.3999219999998,None,1478.3999219999998,None,1,1.4329726999999366,1478.3999219999998,None,1.4329726999999366,1479.8604057999999,None,1480.3793798,None,1480.3793798,None,n,0.2216117000000395,1480.3793798,None,0.2216117000000395,,,43Silent,001,2022_Sep_05_0956,ProdSingRedoBetween,2021.2.3,59.99631622618414,
,,,,112,0,112,0,,,,,,,,,,,,,,,,,,,,,,1489.0837743999998,None,,,,,,,,,,,,,,,,,listen,115,113,silent,new,null,1481.1446958,None,1481.1446958,None,4,6.952192600000217,1481.1446958,None,6.952192600000217,1488.1172688,None,1488.616933,None,1488.616933,None,f,0.4399267000001146,1488.616933,None,0.4399267000001146,,,43Silent,001,2022_Sep_05_0956,ProdSingRedoBetween,2021.2.3,59.99631622618414,
,,,,113,0,113,0,,,,,,,,,,,,,,,,,,,,,,1493.5217438,None,,,,,,,,,,,,,,,,,judge,27,114,silent,old,yellow,1489.5918485999998,None,1489.5918485999998,None,6,3.137000199999875,1489.5918485999998,None,3.137000199999875,1492.7554822,None,1493.2624154999999,None,1493.2624154999999,None,f,0.24246610000000146,1493.2624154999999,None,0.24246610000000146,,,43Silent,001,2022_Sep_05_0956,ProdSingRedoBetween,2021.2.3,59.99631622618414,
,,,,114,0,114,0,,,,,,,,,,,,,,,,,,,,,,1496.2747548,None,,,,,,,,,,,,,,,,,light,175,115,silent,new,null,1494.0274462999998,None,1494.0274462999998,None,1,1.5334362999999485,1494.0274462999998,None,1.5334362999999485,1495.5929687999999,None,1496.1117586999999,None,1496.1117586999999,None,n,0.13734120000003713,1496.1117586999999,None,0.13734120000003713,,,43Silent,001,2022_Sep_05_0956,ProdSingRedoBetween,2021.2.3,59.99631622618414,
,,,,115,0,115,0,,,,,,,,,,,,,,,,,,,,,,1501.3462301,None,,,,,,,,,,,,,,,,,drama,24,116,silent,old,yellow,1496.7794824999999,None,1496.7794824999999,None,6,3.2614321000000928,1496.7794824999999,None,3.2614321000000928,1500.0613167,None,1500.5622767,None,1500.5622767,None,f,0.758636400000114,1500.5622767,None,0.758636400000114,,,43Silent,001,2022_Sep_05_0956,ProdSingRedoBetween,2021.2.3,59.99631622618414,
,,,,116,0,116,0,,,,,,,,,,,,,,,,,,,,,,1504.5336866,None,,,,,,,,,,,,,,,,,device,114,117,silent,new,null,1501.8559071,None,1501.8559071,None,2,1.8089454000000842,1501.8559071,None,1.8089454000000842,1503.683597,None,1504.199607,None,1504.199607,None,n,0.31334910000009586,1504.199607,None,0.31334910000009586,,,43Silent,001,2022_Sep_05_0956,ProdSingRedoBetween,2021.2.3,59.99631622618414,
,,,,117,0,117,0,,,,,,,,,,,,,,,,,,,,,,1510.5053639999999,None,,,,,,,,,,,,,,,,,review,97,118,silent,new,null,1505.0494116,None,1505.0494116,None,1,4.543495899999925,1505.0494116,None,4.543495899999925,1509.6228644999999,None,1510.1383759999999,None,1510.1383759999999,None,n,0.3505416000000423,1510.1383759999999,None,0.3505416000000423,,,43Silent,001,2022_Sep_05_0956,ProdSingRedoBetween,2021.2.3,59.99631622618414,
,,,,118,0,118,0,,,,,,,,,,,,,,,,,,,,,,1515.0432074,None,,,,,,,,,,,,,,,,,subject,160,119,silent,new,null,1511.0105561,None,1511.0105561,None,5,2.870316199999934,1511.0105561,None,2.870316199999934,1513.9129487999999,None,1514.4317520999998,None,1514.4317520999998,None,f,0.5851953000001231,1514.4317520999998,None,0.5851953000001231,,,43Silent,001,2022_Sep_05_0956,ProdSingRedoBetween,2021.2.3,59.99631622618414,
,,,,119,0,119,0,,,,,,,,,,,,,,,,,,,,,,1519.2307506999998,None,,,,,,,,,,,,,,,,,whole,113,120,silent,new,null,1515.5552269,None,1515.5552269,None,2,2.9896618000000217,1515.5552269,None,2.9896618000000217,1518.5695068999999,None,1519.0874654,None,1519.0874654,None,n,0.11341140000013183,1519.0874654,None,0.11341140000013183,,,43Silent,001,2022_Sep_05_0956,ProdSingRedoBetween,2021.2.3,59.99631622618414,
,,,,120,0,120,0,,,,,,,,,,,,,,,,,,,,,,1522.2834398,None,,,,,,,,,,,,,,,,,agreement,80,121,silent,old,red,1519.7372172,None,1519.7372172,None,1,1.6077379999999266,1519.7372172,None,1.6077379999999266,1521.3701561,None,1521.8834413,None,1521.8834413,None,n,0.37342839999996613,1521.8834413,None,0.37342839999996613,,,43Silent,001,2022_Sep_05_0956,ProdSingRedoBetween,2021.2.3,59.99631622618414,
,,,,121,0,121,0,,,,,,,,,,,,,,,,,,,,,,1525.1366471,None,,,,,,,,,,,,,,,,,staff,121,122,silent,new,null,1522.7898295,None,1522.7898295,None,1,1.227098099999921,1522.7898295,None,1.227098099999921,1524.0367231999999,None,1524.536192,None,1524.536192,None,n,0.5847705999999562,1524.536192,None,0.5847705999999562,,,43Silent,001,2022_Sep_05_0956,ProdSingRedoBetween,2021.2.3,59.99631622618414,
,,,,122,0,122,0,,,,,,,,,,,,,,,,,,,,,,1528.9571634,None,,,,,,,,,,,,,,,,,music,119,123,silent,new,null,1525.6378588,None,1525.6378588,None,1,2.387245699999994,1525.6378588,None,2.387245699999994,1528.0627648999998,None,1528.5735151,None,1528.5735151,None,n,0.35541460000013103,1528.5735151,None,0.35541460000013103,,,43Silent,001,2022_Sep_05_0956,ProdSingRedoBetween,2021.2.3,59.99631622618414,
,,,,123,0,123,0,,,,,,,,,,,,,,,,,,,,,,1533.4963289999998,None,,,,,,,,,,,,,,,,,master,126,124,silent,new,null,1529.4679508,None,1529.4679508,None,1,3.4129132999999,1529.4679508,None,3.4129132999999,1532.9132358,None,1533.4321266,None,1533.4321266,None,n,0.03293630000007397,1533.4321266,None,0.03293630000007397,,,43Silent,001,2022_Sep_05_0956,ProdSingRedoBetween,2021.2.3,59.99631622618414,
,,,,124,0,124,0,,,,,,,,,,,,,,,,,,,,,,1536.4146359,None,,,,,,,,,,,,,,,,,goose,136,125,silent,new,null,1533.9970976999998,None,1533.9970976999998,None,1,1.6678199999998924,1533.9970976999998,None,1.6678199999998924,1535.6802533999999,None,1536.1833534,None,1536.1833534,None,n,0.20154520000005505,1536.1833534,None,0.20154520000005505,,,43Silent,001,2022_Sep_05_0956,ProdSingRedoBetween,2021.2.3,59.99631622618414,
,,,,125,0,125,0,,,,,,,,,,,,,,,,,,,,,,1551.9832135,None,,,,,,,,,,,,,,,,,produce,163,126,silent,new,null,1536.9260547,None,1536.9260547,None,1,11.626923499999975,1536.9260547,None,11.626923499999975,1548.5774913,None,1549.0840974999999,None,1549.0840974999999,None,n,2.8689140999999836,1549.0840974999999,None,2.8689140999999836,,,43Silent,001,2022_Sep_05_0956,ProdSingRedoBetween,2021.2.3,59.99631622618414,
,,,,126,0,126,0,,,,,,,,,,,,,,,,,,,,,,1560.1555323,None,,,,,,,,,,,,,,,,,speech,135,127,silent,new,null,1552.4974562999998,None,1552.4974562999998,None,1,6.063529600000038,1552.4974562999998,None,6.063529600000038,1558.5909364,None,1559.1040404,None,1559.1040404,None,n,1.032843400000047,1559.1040404,None,1.032843400000047,,,43Silent,001,2022_Sep_05_0956,ProdSingRedoBetween,2021.2.3,59.99631622618414,
,,,,127,0,127,0,,,,,,,,,,,,,,,,,,,,,,1571.1993679999998,None,,,,,,,,,,,,,,,,,figure,152,128,silent,new,null,1560.6618942999999,None,1560.6618942999999,None,1,9.762935599999992,1560.6618942999999,None,9.762935599999992,1570.4504915999999,None,1570.9655951999998,None,1570.9655951999998,None,n,0.20332460000008723,1570.9655951999998,None,0.20332460000008723,,,43Silent,001,2022_Sep_05_0956,ProdSingRedoBetween,2021.2.3,59.99631622618414,
,,,,128,0,128,0,,,,,,,,,,,,,,,,,,,,,,1573.7686205,None,,,,,,,,,,,,,,,,,watch,145,129,silent,new,null,1571.7108911999999,None,1571.7108911999999,None,1,0.9219823999999335,1571.7108911999999,None,0.9219823999999335,1572.6508628,None,1573.1554348999998,None,1573.1554348999998,None,n,0.589486099999931,1573.1554348999998,None,0.589486099999931,,,43Silent,001,2022_Sep_05_0956,ProdSingRedoBetween,2021.2.3,59.99631622618414,
,,,,129,0,129,0,,,,,,,,,,,,,,,,,,,,,,1576.604719,None,,,,,,,,,,,,,,,,,passage,100,130,silent,new,null,1574.2722345,None,1574.2722345,None,1,1.400621499999943,1574.2722345,None,1.400621499999943,1575.7066943999998,None,1576.2230402,None,1576.2230402,None,n,0.3620180000000346,1576.2230402,None,0.3620180000000346,,,43Silent,001,2022_Sep_05_0956,ProdSingRedoBetween,2021.2.3,59.99631622618414,
,,,,130,0,130,0,,,,,,,,,,,,,,,,,,,,,,1579.2091791,None,,,,,,,,,,,,,,,,,council,6,131,silent,old,yellow,1577.1142699,None,1577.1142699,None,1,1.2226929000000837,1577.1142699,None,1.2226929000000837,1578.3619884999998,None,1578.8836187,None,1578.8836187,None,n,0.3013278999999329,1578.8836187,None,0.3013278999999329,,,43Silent,001,2022_Sep_05_0956,ProdSingRedoBetween,2021.2.3,59.99631622618414,
,,,,131,0,131,0,,,,,,,,,,,,,,,,,,,,,,1581.2260457999998,None,,,,,,,,,,,,,,,,,escape,134,132,silent,new,null,1579.7265744,None,1579.7265744,None,1,0.7543834000000516,1579.7265744,None,0.7543834000000516,1580.5113943,None,1581.0292795,None,1581.0292795,None,n,0.17967120000002978,1581.0292795,None,0.17967120000002978,,,43Silent,001,2022_Sep_05_0956,ProdSingRedoBetween,2021.2.3,59.99631622618414,
,,,,132,0,132,0,,,,,,,,,,,,,,,,,,,,,,1583.4448636999998,None,,,,,,,,,,,,,,,,,reading,172,133,silent,new,null,1581.7435504999999,None,1581.7435504999999,None,1,1.0015521000000263,1581.7435504999999,None,1.0015521000000263,1582.7700492,None,1583.2782361999998,None,1583.2782361999998,None,n,0.1386761999999635,1583.2782361999998,None,0.1386761999999635,,,43Silent,001,2022_Sep_05_0956,ProdSingRedoBetween,2021.2.3,59.99631622618414,
,,,,133,0,133,0,,,,,,,,,,,,,,,,,,,,,,1585.9806898,None,,,,,,,,,,,,,,,,,session,35,134,silent,old,blue,1583.9515572999999,None,1583.9515572999999,None,1,1.2654468000000634,1583.9515572999999,None,1.2654468000000634,1585.2512144999998,None,1585.7652435999998,None,1585.7652435999998,None,n,0.18763359999979912,1585.7652435999998,None,0.18763359999979912,,,43Silent,001,2022_Sep_05_0956,ProdSingRedoBetween,2021.2.3,59.99631622618414,
,,,,134,0,134,0,,,,,,,,,,,,,,,,,,,,,,1588.8836629,None,,,,,,,,,,,,,,,,,welcome,43,135,silent,old,blue,1586.4897727,None,1586.4897727,None,1,1.2550301999999647,1586.4897727,None,1.2550301999999647,1587.7700727,None,1588.282949,None,1588.282949,None,n,0.5738870000000134,1588.282949,None,0.5738870000000134,,,43Silent,001,2022_Sep_05_0956,ProdSingRedoBetween,2021.2.3,59.99631622618414,
,,,,135,0,135,0,,,,,,,,,,,,,,,,,,,,,,1594.5601173,None,,,,,,,,,,,,,,,,,balance,37,136,silent,old,blue,1589.3912458,None,1589.3912458,None,5,4.297758799999883,1589.3912458,None,4.297758799999883,1593.7143288999998,None,1594.2224477999998,None,1594.2224477999998,None,f,0.30657019999989643,1594.2224477999998,None,0.30657019999989643,,,43Silent,001,2022_Sep_05_0956,ProdSingRedoBetween,2021.2.3,59.99631622618414,
,,,,136,0,136,0,,,,,,,,,,,,,,,,,,,,,,1598.8436064999999,None,,,,,,,,,,,,,,,,,concern,38,137,silent,old,blue,1595.0750073,None,1595.0750073,None,2,2.749964699999964,1595.0750073,None,2.749964699999964,1597.8501007999998,None,1598.3599448999998,None,1598.3599448999998,None,n,0.4650289999999586,1598.3599448999998,None,0.4650289999999586,,,43Silent,001,2022_Sep_05_0956,ProdSingRedoBetween,2021.2.3,59.99631622618414,
,,,,137,0,137,0,,,,,,,,,,,,,,,,,,,,,,1601.9153043,None,,,,,,,,,,,,,,,,,attack,165,138,silent,new,null,1599.3504570999999,None,1599.3504570999999,None,1,1.8424826000000394,1599.3504570999999,None,1.8424826000000394,1601.2156525999999,None,1601.7464149,None,1601.7464149,None,n,0.14238249999993968,1601.7464149,None,0.14238249999993968,,,43Silent,001,2022_Sep_05_0956,ProdSingRedoBetween,2021.2.3,59.99631622618414,
,,,,138,0,138,0,,,,,,,,,,,,,,,,,,,,,,1605.2497128,None,,,,,,,,,,,,,,,,,symbol,132,139,silent,new,null,1602.4335529,None,1602.4335529,None,1,1.9434025999998994,1602.4335529,None,1.9434025999998994,1604.4005032,None,1604.9025388999999,None,1604.9025388999999,None,n,0.3224714000000404,1604.9025388999999,None,0.3224714000000404,,,43Silent,001,2022_Sep_05_0956,ProdSingRedoBetween,2021.2.3,59.99631622618414,
,,,,139,0,139,0,,,,,,,,,,,,,,,,,,,,,,1609.8379221,None,,,,,,,,,,,,,,,,,engineer,19,140,silent,old,yellow,1605.7624194,None,1605.7624194,None,5,3.398510299999998,1605.7624194,None,3.398510299999998,1609.1893122,None,1609.7045724999998,None,1609.7045724999998,None,f,0.11241419999987556,1609.7045724999998,None,0.11241419999987556,,,43Silent,001,2022_Sep_05_0956,ProdSingRedoBetween,2021.2.3,59.99631622618414,
,,,,140,0,140,0,,,,,,,,,,,,,,,,,,,,,,1613.6750925,None,,,,,,,,,,,,,,,,,surface,161,141,silent,new,null,1610.3417365,None,1610.3417365,None,1,2.691221900000073,1610.3417365,None,2.691221900000073,1613.0639397999998,None,1613.578397,None,1613.578397,None,n,0.07850559999997131,1613.578397,None,0.07850559999997131,,,43Silent,001,2022_Sep_05_0956,ProdSingRedoBetween,2021.2.3,59.99631622618414,
,,,,141,0,141,0,,,,,,,,,,,,,,,,,,,,,,1650.6120111999999,None,,,,,,,,,,,,,,,,,count,158,142,silent,new,null,1614.1771560999998,None,1614.1771560999998,None,1,34.96774740000001,1614.1771560999998,None,34.96774740000001,1649.1643476,None,1649.6775781,None,1649.6775781,None,n,0.9153905000000577,1649.6775781,None,0.9153905000000577,,,43Silent,001,2022_Sep_05_0956,ProdSingRedoBetween,2021.2.3,59.99631622618414,
,,,,142,0,142,0,,,,,,,,,,,,,,,,,,,,,,1653.4315442,None,,,,,,,,,,,,,,,,,fellow,147,143,silent,new,null,1651.119442,None,1651.119442,None,1,1.313512899999978,1651.119442,None,1.313512899999978,1652.4647532,None,1652.9700051,None,1652.9700051,None,n,0.4389638999998624,1652.9700051,None,0.4389638999998624,,,43Silent,001,2022_Sep_05_0956,ProdSingRedoBetween,2021.2.3,59.99631622618414,
,,,,143,0,143,0,,,,,,,,,,,,,,,,,,,,,,1655.8689439,None,,,,,,,,,,,,,,,,,budget,156,144,silent,new,null,1653.9346865,None,1653.9346865,None,1,1.1702738999999838,1653.9346865,None,1.1702738999999838,1655.1331839,None,1655.6338804,None,1655.6338804,None,n,0.20713630000000194,1655.6338804,None,0.20713630000000194,,,43Silent,001,2022_Sep_05_0956,ProdSingRedoBetween,2021.2.3,59.99631622618414,
,,,,144,0,144,0,,,,,,,,,,,,,,,,,,,,,,1659.1538790999998,None,,,,,,,,,,,,,,,,,cousin,9,145,silent,old,yellow,1656.3937589999998,None,1656.3937589999998,None,1,1.831195100000059,1656.3937589999998,None,1.831195100000059,1658.2540408,None,1658.758144,None,1658.758144,None,n,0.3708398999999645,1658.758144,None,0.3708398999999645,,,43Silent,001,2022_Sep_05_0956,ProdSingRedoBetween,2021.2.3,59.99631622618414,
,,,,145,0,145,0,,,,,,,,,,,,,,,,,,,,,,1661.3893687,None,,,,,,,,,,,,,,,,,series,20,146,silent,old,yellow,1659.6646750999998,None,1659.6646750999998,None,1,0.7363084999999501,1659.6646750999998,None,0.7363084999999501,1660.4228219,None,1660.9278766,None,1660.9278766,None,n,0.43309529999987717,1660.9278766,None,0.43309529999987717,,,43Silent,001,2022_Sep_05_0956,ProdSingRedoBetween,2021.2.3,59.99631622618414,
,,,,146,0,146,0,,,,,,,,,,,,,,,,,,,,,,1670.4316033,None,,,,,,,,,,,,,,,,,appearance,98,147,silent,new,null,1661.8899764999999,None,1661.8899764999999,None,1,7.503019600000016,1661.8899764999999,None,7.503019600000016,1669.4154257999999,None,1669.9157183999998,None,1669.9157183999998,None,n,0.49312540000005356,1669.9157183999998,None,0.49312540000005356,,,43Silent,001,2022_Sep_05_0956,ProdSingRedoBetween,2021.2.3,59.99631622618414,
,,,,147,0,147,0,,,,,,,,,,,,,,,,,,,,,,1674.235533,None,,,,,,,,,,,,,,,,,population,101,148,silent,new,null,1670.9355467,None,1670.9355467,None,1,2.1534572999999,1670.9355467,None,2.1534572999999,1673.1188269,None,1673.6231833,None,1673.6231833,None,n,0.5937857999999778,1673.6231833,None,0.5937857999999778,,,43Silent,001,2022_Sep_05_0956,ProdSingRedoBetween,2021.2.3,59.99631622618414,
,,,,148,0,148,0,,,,,,,,,,,,,,,,,,,,,,1679.2090862999999,None,,,,,,,,,,,,,,,,,direction,15,149,silent,old,yellow,1674.7361833999998,None,1674.7361833999998,None,4,3.624825299999884,1674.7361833999998,None,3.624825299999884,1678.3922822,None,1678.9070714,None,1678.9070714,None,f,0.27798059999986435,1678.9070714,None,0.27798059999986435,,,43Silent,001,2022_Sep_05_0956,ProdSingRedoBetween,2021.2.3,59.99631622618414,
,,,,149,0,149,0,,,,,,,,,,,,,,,,,,,,,,1685.1132384999999,None,,,,,,,,,,,,,,,,,present,77,150,silent,old,red,1679.7246484,None,1679.7246484,None,1,3.420240799999874,1679.7246484,None,3.420240799999874,1683.162271,None,1683.6653342999998,None,1683.6653342999998,None,n,1.4236283000000185,1683.6653342999998,None,1.4236283000000185,,,43Silent,001,2022_Sep_05_0956,ProdSingRedoBetween,2021.2.3,59.99631622618414,
,,,,150,0,150,0,,,,,,,,,,,,,,,,,,,,,,1691.736128,None,,,,,,,,,,,,,,,,,region,63,151,silent,old,red,1685.6206705,None,1685.6206705,None,1,4.780285699999922,1685.6206705,None,4.780285699999922,1690.4211702,None,1690.9381564,None,1690.9381564,None,n,0.7748599999999897,1690.9381564,None,0.7748599999999897,,,43Silent,001,2022_Sep_05_0956,ProdSingRedoBetween,2021.2.3,59.99631622618414,
,,,,151,0,151,0,,,,,,,,,,,,,,,,,,,,,,1698.4431565999998,None,,,,,,,,,,,,,,,,,entrance,76,152,silent,old,red,1692.2369515,None,1692.2369515,None,3,4.676054799999974,1692.2369515,None,4.676054799999974,1696.94479,None,1697.4606006,None,1697.4606006,None,n,0.95629810000014,1697.4606006,None,0.95629810000014,,,43Silent,001,2022_Sep_05_0956,ProdSingRedoBetween,2021.2.3,59.99631622618414,
,,,,152,0,152,0,,,,,,,,,,,,,,,,,,,,,,1706.701466,None,,,,,,,,,,,,,,,,,suspect,7,153,silent,old,yellow,1698.9628853,None,1698.9628853,None,5,6.638091000000031,1698.9628853,None,6.638091000000031,1705.6174451,None,1706.1199798,None,1706.1199798,None,f,0.5610277999999198,1706.1199798,None,0.5610277999999198,,,43Silent,001,2022_Sep_05_0956,ProdSingRedoBetween,2021.2.3,59.99631622618414,
,,,,153,0,153,0,,,,,,,,,,,,,,,,,,,,,,1710.3903788,None,,,,,,,,,,,,,,,,,voice,56,154,silent,old,blue,1707.2107105,None,1707.2107105,None,6,2.0702739999999267,1707.2107105,None,2.0702739999999267,1709.3061120999998,None,1709.8213853,None,1709.8213853,None,f,0.5476503999998386,1709.8213853,None,0.5476503999998386,,,43Silent,001,2022_Sep_05_0956,ProdSingRedoBetween,2021.2.3,59.99631622618414,
,,,,154,0,154,0,,,,,,,,,,,,,,,,,,,,,,1713.5080494,None,,,,,,,,,,,,,,,,,minute,41,155,silent,old,blue,1710.905479,None,1710.905479,None,6,1.7275417000000743,1710.905479,None,1.7275417000000743,1712.6573171999999,None,1713.1619378,None,1713.1619378,None,f,0.32708949999982906,1713.1619378,None,0.32708949999982906,,,43Silent,001,2022_Sep_05_0956,ProdSingRedoBetween,2021.2.3,59.99631622618414,
,,,,155,0,155,0,,,,,,,,,,,,,,,,,,,,,,1716.6781128999999,None,,,,,,,,,,,,,,,,,captain,52,156,silent,old,blue,1714.0117874999999,None,1714.0117874999999,None,6,1.901170799999818,1714.0117874999999,None,1.901170799999818,1715.9439748999998,None,1716.449437,None,1716.449437,None,f,0.1996712000000116,1716.449437,None,0.1996712000000116,,,43Silent,001,2022_Sep_05_0956,ProdSingRedoBetween,2021.2.3,59.99631622618414,
,,,,156,0,156,0,,,,,,,,,,,,,,,,,,,,,,1723.8685807,None,,,,,,,,,,,,,,,,,account,22,157,silent,old,yellow,1717.1882291,None,1717.1882291,None,5,5.660752799999955,1717.1882291,None,5.660752799999955,1722.8673479,None,1723.3768338999998,None,1723.3768338999998,None,f,0.47217829999999594,1723.3768338999998,None,0.47217829999999594,,,43Silent,001,2022_Sep_05_0956,ProdSingRedoBetween,2021.2.3,59.99631622618414,
,,,,157,0,157,0,,,,,,,,,,,,,,,,,,,,,,1727.4264776999999,None,,,,,,,,,,,,,,,,,rapid,146,158,silent,new,null,1724.3757309,None,1724.3757309,None,1,1.369334600000002,1724.3757309,None,1.369334600000002,1725.7704623999998,None,1726.2842423999998,None,1726.2842423999998,None,n,1.1168185999999878,1726.2842423999998,None,1.1168185999999878,,,43Silent,001,2022_Sep_05_0956,ProdSingRedoBetween,2021.2.3,59.99631622618414,
,,,,158,0,158,0,,,,,,,,,,,,,,,,,,,,,,1730.4418409999998,None,,,,,,,,,,,,,,,,,generation,173,159,silent,new,null,1727.9394647,None,1727.9394647,None,1,1.4855448999999226,1727.9394647,None,1.4855448999999226,1729.4417277999999,None,1729.9427810999998,None,1729.9427810999998,None,n,0.4741402999998172,1729.9427810999998,None,0.4741402999998172,,,43Silent,001,2022_Sep_05_0956,ProdSingRedoBetween,2021.2.3,59.99631622618414,
,,,,159,0,159,0,,,,,,,,,,,,,,,,,,,,,,1733.4281572,None,,,,,,,,,,,,,,,,,piece,28,160,silent,old,yellow,1730.9545511,None,1730.9545511,None,1,1.4783961000000545,1730.9545511,None,1.4783961000000545,1732.4621817999998,None,1732.9776674999998,None,1732.9776674999998,None,n,0.423398700000007,1732.9776674999998,None,0.423398700000007,,,43Silent,001,2022_Sep_05_0956,ProdSingRedoBetween,2021.2.3,59.99631622618414,
,,,,160,0,160,0,,,,,,,,,,,,,,,,,,,,,,1738.2329598,None,,,,,,,,,,,,,,,,,emergency,14,161,silent,old,yellow,1733.9398233,None,1733.9398233,None,1,3.229206799999929,1733.9398233,None,3.229206799999929,1737.1994233,None,1737.6991280999998,None,1737.6991280999998,None,n,0.5098875999999564,1737.6991280999998,None,0.5098875999999564,,,43Silent,001,2022_Sep_05_0956,ProdSingRedoBetween,2021.2.3,59.99631622618414,
,,,,161,0,161,0,,,,,,,,,,,,,,,,,,,,,,1742.4538651,None,,,,,,,,,,,,,,,,,quantity,36,162,silent,old,blue,1738.7446731999999,None,1738.7446731999999,None,1,2.2963265000000774,1738.7446731999999,None,2.2963265000000774,1741.0703784,None,1741.577239,None,1741.577239,None,n,0.8558504999998604,1741.577239,None,0.8558504999998604,,,43Silent,001,2022_Sep_05_0956,ProdSingRedoBetween,2021.2.3,59.99631622618414,
,,,,162,0,162,0,,,,,,,,,,,,,,,,,,,,,,1757.3853844,None,,,,,,,,,,,,,,,,,member,31,163,silent,old,blue,1742.9588193999998,None,1742.9588193999998,None,2,11.426189499999964,1742.9588193999998,None,11.426189499999964,1754.4172701,None,1754.92114,None,1754.92114,None,n,2.447872299999972,1754.92114,None,2.447872299999972,,,43Silent,001,2022_Sep_05_0956,ProdSingRedoBetween,2021.2.3,59.99631622618414,
,,,,163,0,163,0,,,,,,,,,,,,,,,,,,,,,,1762.4914222,None,,,,,,,,,,,,,,,,,order,73,164,silent,old,red,1757.8857901,None,1757.8857901,None,5,3.8832901999999194,1757.8857901,None,3.8832901999999194,1761.7940694,None,1762.3116968,None,1762.3116968,None,f,0.15346960000010768,1762.3116968,None,0.15346960000010768,,,43Silent,001,2022_Sep_05_0956,ProdSingRedoBetween,2021.2.3,59.99631622618414,
,,,,164,0,164,0,,,,,,,,,,,,,,,,,,,,,,1772.0351798,None,,,,,,,,,,,,,,,,,impact,167,165,silent,new,null,1762.9954813,None,1762.9954813,None,4,8.101630599999908,1762.9954813,None,8.101630599999908,1771.1168582999999,None,1771.620643,None,1771.620643,None,f,0.3883281999999326,1771.620643,None,0.3883281999999326,,,43Silent,001,2022_Sep_05_0956,ProdSingRedoBetween,2021.2.3,59.99631622618414,
,,,,165,0,165,0,,,,,,,,,,,,,,,,,,,,,,1776.3377383,None,,,,,,,,,,,,,,,,,novel,171,166,silent,new,null,1772.5549641999999,None,1772.5549641999999,None,1,2.478048200000103,1772.5549641999999,None,2.478048200000103,1775.0551838,None,1775.5715821,None,1775.5715821,None,n,0.749491799999987,1775.5715821,None,0.749491799999987,,,43Silent,001,2022_Sep_05_0956,ProdSingRedoBetween,2021.2.3,59.99631622618414,
,,,,166,0,166,0,,,,,,,,,,,,,,,,,,,,,,1781.4928166999998,None,,,,,,,,,,,,,,,,,suggestion,137,167,silent,new,null,1776.8456262,None,1776.8456262,None,1,3.7553932999999233,1776.8456262,None,3.7553932999999233,1780.6263526,None,1781.1259095999999,None,1781.1259095999999,None,n,0.3390929000001961,1781.1259095999999,None,0.3390929000001961,,,43Silent,001,2022_Sep_05_0956,ProdSingRedoBetween,2021.2.3,59.99631622618414,
,,,,167,0,167,0,,,,,,,,,,,,,,,,,,,,,,1786.4477881999999,None,,,,,,,,,,,,,,,,,conference,62,168,silent,old,red,1781.9984187,None,1781.9984187,None,1,2.322627399999874,1781.9984187,None,2.322627399999874,1784.3466548,None,1784.8496523,None,1784.8496523,None,n,1.575354500000003,1784.8496523,None,1.575354500000003,,,43Silent,001,2022_Sep_05_0956,ProdSingRedoBetween,2021.2.3,59.99631622618414,
,,,,168,0,168,0,,,,,,,,,,,,,,,,,,,,,,1789.0377028,None,,,,,,,,,,,,,,,,,management,111,169,silent,new,null,1786.9589185,None,1786.9589185,None,1,1.2100920000000315,1786.9589185,None,1.2100920000000315,1788.1992629,None,1788.7065608,None,1788.7065608,None,n,0.302493499999855,1788.7065608,None,0.302493499999855,,,43Silent,001,2022_Sep_05_0956,ProdSingRedoBetween,2021.2.3,59.99631622618414,
,,,,169,0,169,0,,,,,,,,,,,,,,,,,,,,,,1794.8403724,None,,,,,,,,,,,,,,,,,afternoon,61,170,silent,old,red,1789.5510608,None,1789.5510608,None,6,2.914020500000106,1789.5510608,None,2.914020500000106,1792.4906469,None,1793.0044366,None,1793.0044366,None,f,1.8126580999999078,1793.0044366,None,1.8126580999999078,,,43Silent,001,2022_Sep_05_0956,ProdSingRedoBetween,2021.2.3,59.99631622618414,
,,,,170,0,170,0,,,,,,,,,,,,,,,,,,,,,,1799.3106191,None,,,,,,,,,,,,,,,,,swift,139,171,silent,new,null,1795.3501615999999,None,1795.3501615999999,None,1,3.0988998000000265,1795.3501615999999,None,3.0988998000000265,1798.4816498999999,None,1798.9934913999998,None,1798.9934913999998,None,n,0.287543899999946,1798.9934913999998,None,0.287543899999946,,,43Silent,001,2022_Sep_05_0956,ProdSingRedoBetween,2021.2.3,59.99631622618414,
,,,,171,0,171,0,,,,,,,,,,,,,,,,,,,,,,1804.6326763,None,,,,,,,,,,,,,,,,,write,23,172,silent,old,yellow,1799.8134363,None,1799.8134363,None,1,4.075620500000014,1799.8134363,None,4.075620500000014,1803.9203794,None,1804.4324838,None,1804.4324838,None,n,0.18456829999990987,1804.4324838,None,0.18456829999990987,,,43Silent,001,2022_Sep_05_0956,ProdSingRedoBetween,2021.2.3,59.99631622618414,
,,,,172,0,172,0,,,,,,,,,,,,,,,,,,,,,,1809.2538656,None,,,,,,,,,,,,,,,,,republic,18,173,silent,old,yellow,1805.1441939,None,1805.1441939,None,6,1.6569515000001047,1805.1441939,None,1.6569515000001047,1806.8246617999998,None,1807.3354431,None,1807.3354431,None,r,1.889694899999995,1807.3354431,None,1.889694899999995,,,43Silent,001,2022_Sep_05_0956,ProdSingRedoBetween,2021.2.3,59.99631622618414,
,,,,173,0,173,0,,,,,,,,,,,,,,,,,,,,,,1814.1254222999999,None,,,,,,,,,,,,,,,,,private,2,174,silent,old,yellow,1809.7542695999998,None,1809.7542695999998,None,5,2.8706802000001517,1809.7542695999998,None,2.8706802000001517,1812.6441453999998,None,1813.1592656999999,None,1813.1592656999999,None,f,0.9458001999998942,1813.1592656999999,None,0.9458001999998942,,,43Silent,001,2022_Sep_05_0956,ProdSingRedoBetween,2021.2.3,59.99631622618414,
,,,,174,0,174,0,,,,,,,,,,,,,,,,,,,,,,1818.4795244,None,,,,,,,,,,,,,,,,,general,96,175,silent,new,null,1814.6375868999999,None,1814.6375868999999,None,5,3.003426200000149,1814.6375868999999,None,3.003426200000149,1817.6632932,None,1818.1651004,None,1818.1651004,None,f,0.2919328000000405,1818.1651004,None,0.2919328000000405,,,43Silent,001,2022_Sep_05_0956,ProdSingRedoBetween,2021.2.3,59.99631622618414,
,,,,175,0,175,0,,,,,,,,,,,,,,,,,,,,,,1822.2524609999998,None,,,,,,,,,,,,,,,,,trial,10,176,silent,old,yellow,1818.9864556999999,None,1818.9864556999999,None,5,2.5346296000000166,1818.9864556999999,None,2.5346296000000166,1821.5496234999998,None,1822.0527682,None,1822.0527682,None,f,0.1724358999999822,1822.0527682,None,0.1724358999999822,,,43Silent,001,2022_Sep_05_0956,ProdSingRedoBetween,2021.2.3,59.99631622618414,
,,,,176,0,176,0,,,,,,,,,,,,,,,,,,,,,,1826.9716082,None,,,,,,,,,,,,,,,,,patient,127,177,silent,new,null,1822.7743354,None,1822.7743354,None,5,3.46674999999982,1822.7743354,None,3.46674999999982,1826.2753513,None,1826.7881814999998,None,1826.7881814999998,None,f,0.1648149000000103,1826.7881814999998,None,0.1648149000000103,,,43Silent,001,2022_Sep_05_0956,ProdSingRedoBetween,2021.2.3,59.99631622618414,
,,,,177,0,177,0,,,,,,,,,,,,,,,,,,,,,,1831.8618144,None,,,,,,,,,,,,,,,,,harmony,67,178,silent,old,red,1827.4925564,None,1827.4925564,None,5,3.3085393999999724,1827.4925564,None,3.3085393999999724,1830.8290746,None,1831.3454631999998,None,1831.3454631999998,None,f,0.4957346000001053,1831.3454631999998,None,0.4957346000001053,,,43Silent,001,2022_Sep_05_0956,ProdSingRedoBetween,2021.2.3,59.99631622618414,
,,,,178,0,178,0,,,,,,,,,,,,,,,,,,,,,,1834.7460872,None,,,,,,,,,,,,,,,,,space,155,179,silent,new,null,1832.389764,None,1832.389764,None,6,1.6191513000001123,1832.389764,None,1.6191513000001123,1834.0398281,None,1834.5459408,None,1834.5459408,None,f,0.1750369999999748,1834.5459408,None,0.1750369999999748,,,43Silent,001,2022_Sep_05_0956,ProdSingRedoBetween,2021.2.3,59.99631622618414,
,,,,179,0,179,0,,,,,,,,,,,,,,,,,,,,,,1839.3837592,None,,,,,,,,,,,,,,,,,pattern,25,180,silent,old,yellow,1835.2567135,None,1835.2567135,None,6,1.824321399999917,1835.2567135,None,1.824321399999917,1837.1019497,None,1837.6252666999999,None,1837.6252666999999,None,r,1.7278343000000405,1837.6252666999999,None,1.7278343000000405,,,43Silent,001,2022_Sep_05_0956,ProdSingRedoBetween,2021.2.3,59.99631622618414,
,,,,,,,,,,,,,,,,,,,,,,,,,,,,,,,,,,,,,,,,,,,,,,,,,,,,,,,,,,,,,,,,,,,,,,,,,1839.8851863999998,None,,,,,,,
