StudyLoop.thisRepN,StudyLoop.thisTrialN,StudyLoop.thisN,StudyLoop.thisIndex,TestLoop.thisRepN,TestLoop.thisTrialN,TestLoop.thisN,TestLoop.thisIndex,textCondition.started,textCondition.stopped,keyCondition.keys,keyCondition.rt,keyCondition.started,keyCondition.stopped,Condition,textWelcome.started,textWelcome.stopped,keyWelcome.keys,keyWelcome.rt,keyWelcome.started,keyWelcome.stopped,textAloud.started,textAloud.stopped,textSilent.started,textSilent.stopped,textSing.started,textSing.stopped,conditional_text.started,conditional_text.stopped,textBlank500.started,textBlank500.stopped,study_word,study_num,study_order,study_type,word_color,textStudy.started,textStudy.stopped,keyStudy.keys,keyStudy.started,keyStudy.stopped,textTestInstructions.started,textTestInstructions.stopped,key_resp_3.keys,key_resp_3.rt,key_resp_3.started,key_resp_3.stopped,test_word,test_num,test_order,test_condition,old_new_test,test_word_original_color,textConf.started,textConf.stopped,textConfScale.started,textConfScale.stopped,keyConf.keys,keyConf.rt,keyConf.started,keyConf.stopped,confidence response time,textTestBlank.started,textTestBlank.stopped,textRKN.started,textRKN.stopped,textRKNScale.started,textRKNScale.stopped,keyRKN.keys,keyRKN.rt,keyRKN.started,keyRKN.stopped,rkn response time,textEnd.started,textEnd.stopped,participant,session,date,expName,psychopyVersion,frameRate,
,,,,,,,,17.01222149998648,None,b,0.5824510999955237,17.01222149998648,None,,,,,,,,,,,,,,,,,,,,,,,,,,,,,,,,,,,,,,,,,,,,,,,,,,,,,,,,,,,,,,44Aloud,001,2022_Sep_05_0902,ProdSingRedoBetween,2021.2.3,59.96415343535271,
,,,,,,,,,,,,,,AloudTest,17.651614099973813,None,space,154.49479219998466,17.651614099973813,None,,,,,,,,,,,,,,,,,,,,,,,,,,,,,,,,,,,,,,,,,,,,,,,,,,,,,,,44Aloud,001,2022_Sep_05_0902,ProdSingRedoBetween,2021.2.3,59.96415343535271,
0,0,0,0,,,,,,,,,,,,,,,,,,17.651614099973813,None,17.651614099973813,None,17.651614099973813,None,17.651614099973813,None,174.68520289997105,None,volume,79,1,aloud,red,172.68637650000164,None,None,172.68637650000164,None,,,,,,,,,,,,,,,,,,,,,,,,,,,,,,,,,,,44Aloud,001,2022_Sep_05_0902,ProdSingRedoBetween,2021.2.3,59.96415343535271,
1,0,1,0,,,,,,,,,,,,,,,,,,,,,,,,,,177.20432509999955,None,beauty,54,2,aloud,blue,175.18939529999625,None,None,175.18939529999625,None,,,,,,,,,,,,,,,,,,,,,,,,,,,,,,,,,,,44Aloud,001,2022_Sep_05_0902,ProdSingRedoBetween,2021.2.3,59.96415343535271,
2,0,2,0,,,,,,,,,,,,,,,,,,,,,,,,,,179.72352070000488,None,touch,63,3,aloud,red,177.71006710000802,None,None,177.71006710000802,None,,,,,,,,,,,,,,,,,,,,,,,,,,,,,,,,,,,44Aloud,001,2022_Sep_05_0902,ProdSingRedoBetween,2021.2.3,59.96415343535271,
3,0,3,0,,,,,,,,,,,,,,,,,,,,,,,,,,182.22602419997565,None,minor,30,4,aloud,blue,180.22403969999868,None,None,180.22403969999868,None,,,,,,,,,,,,,,,,,,,,,,,,,,,,,,,,,,,44Aloud,001,2022_Sep_05_0902,ProdSingRedoBetween,2021.2.3,59.96415343535271,
4,0,4,0,,,,,,,,,,,,,,,,,,,,,,,,,,184.7285264999955,None,comedy,42,5,aloud,blue,182.72847519995412,None,None,182.72847519995412,None,,,,,,,,,,,,,,,,,,,,,,,,,,,,,,,,,,,44Aloud,001,2022_Sep_05_0902,ProdSingRedoBetween,2021.2.3,59.96415343535271,
5,0,5,0,,,,,,,,,,,,,,,,,,,,,,,,,,187.2310469999793,None,company,22,6,aloud,yellow,185.23137419996783,None,None,185.23137419996783,None,,,,,,,,,,,,,,,,,,,,,,,,,,,,,,,,,,,44Aloud,001,2022_Sep_05_0902,ProdSingRedoBetween,2021.2.3,59.96415343535271,
6,0,6,0,,,,,,,,,,,,,,,,,,,,,,,,,,189.7335260999971,None,space,7,7,aloud,yellow,187.73402119998354,None,None,187.73402119998354,None,,,,,,,,,,,,,,,,,,,,,,,,,,,,,,,,,,,44Aloud,001,2022_Sep_05_0902,ProdSingRedoBetween,2021.2.3,59.96415343535271,
7,0,7,0,,,,,,,,,,,,,,,,,,,,,,,,,,192.2360768999788,None,watch,87,8,aloud,red,190.23642079997808,None,None,190.23642079997808,None,,,,,,,,,,,,,,,,,,,,,,,,,,,,,,,,,,,44Aloud,001,2022_Sep_05_0902,ProdSingRedoBetween,2021.2.3,59.96415343535271,
8,0,8,0,,,,,,,,,,,,,,,,,,,,,,,,,,194.73854109999957,None,account,56,9,aloud,blue,192.73949029995129,None,None,192.73949029995129,None,,,,,,,,,,,,,,,,,,,,,,,,,,,,,,,,,,,44Aloud,001,2022_Sep_05_0902,ProdSingRedoBetween,2021.2.3,59.96415343535271,
9,0,9,0,,,,,,,,,,,,,,,,,,,,,,,,,,197.24106319999555,None,debate,80,10,aloud,red,195.24106420000317,None,None,195.24106420000317,None,,,,,,,,,,,,,,,,,,,,,,,,,,,,,,,,,,,44Aloud,001,2022_Sep_05_0902,ProdSingRedoBetween,2021.2.3,59.96415343535271,
10,0,10,0,,,,,,,,,,,,,,,,,,,,,,,,,,199.76028089999454,None,message,60,11,aloud,red,197.74579889996676,None,None,197.74579889996676,None,,,,,,,,,,,,,,,,,,,,,,,,,,,,,,,,,,,44Aloud,001,2022_Sep_05_0902,ProdSingRedoBetween,2021.2.3,59.96415343535271,
11,0,11,0,,,,,,,,,,,,,,,,,,,,,,,,,,202.27926179999486,None,history,29,12,aloud,blue,200.26783749996684,None,None,200.26783749996684,None,,,,,,,,,,,,,,,,,,,,,,,,,,,,,,,,,,,44Aloud,001,2022_Sep_05_0902,ProdSingRedoBetween,2021.2.3,59.96415343535271,
12,0,12,0,,,,,,,,,,,,,,,,,,,,,,,,,,204.7818362999824,None,block,38,13,aloud,blue,202.78051589999814,None,None,202.78051589999814,None,,,,,,,,,,,,,,,,,,,,,,,,,,,,,,,,,,,44Aloud,001,2022_Sep_05_0902,ProdSingRedoBetween,2021.2.3,59.96415343535271,
13,0,13,0,,,,,,,,,,,,,,,,,,,,,,,,,,207.301292499993,None,broad,52,14,aloud,blue,205.29121369996574,None,None,205.29121369996574,None,,,,,,,,,,,,,,,,,,,,,,,,,,,,,,,,,,,44Aloud,001,2022_Sep_05_0902,ProdSingRedoBetween,2021.2.3,59.96415343535271,
14,0,14,0,,,,,,,,,,,,,,,,,,,,,,,,,,209.82028569997055,None,still,53,15,aloud,blue,207.8099768999964,None,None,207.8099768999964,None,,,,,,,,,,,,,,,,,,,,,,,,,,,,,,,,,,,44Aloud,001,2022_Sep_05_0902,ProdSingRedoBetween,2021.2.3,59.96415343535271,
15,0,15,0,,,,,,,,,,,,,,,,,,,,,,,,,,212.3227501999936,None,worker,45,16,aloud,blue,210.32230020000134,None,None,210.32230020000134,None,,,,,,,,,,,,,,,,,,,,,,,,,,,,,,,,,,,44Aloud,001,2022_Sep_05_0902,ProdSingRedoBetween,2021.2.3,59.96415343535271,
16,0,16,0,,,,,,,,,,,,,,,,,,,,,,,,,,214.84200879995478,None,majority,73,17,aloud,red,212.83114839997143,None,None,212.83114839997143,None,,,,,,,,,,,,,,,,,,,,,,,,,,,,,,,,,,,44Aloud,001,2022_Sep_05_0902,ProdSingRedoBetween,2021.2.3,59.96415343535271,
17,0,17,0,,,,,,,,,,,,,,,,,,,,,,,,,,217.34440780000295,None,pattern,74,18,aloud,red,215.34238359995652,None,None,215.34238359995652,None,,,,,,,,,,,,,,,,,,,,,,,,,,,,,,,,,,,44Aloud,001,2022_Sep_05_0902,ProdSingRedoBetween,2021.2.3,59.96415343535271,
18,0,18,0,,,,,,,,,,,,,,,,,,,,,,,,,,219.84691969997948,None,leader,71,19,aloud,red,217.84509620000608,None,None,217.84509620000608,None,,,,,,,,,,,,,,,,,,,,,,,,,,,,,,,,,,,44Aloud,001,2022_Sep_05_0902,ProdSingRedoBetween,2021.2.3,59.96415343535271,
19,0,19,0,,,,,,,,,,,,,,,,,,,,,,,,,,222.34948599996278,None,broke,0,20,aloud,yellow,220.3497790999827,None,None,220.3497790999827,None,,,,,,,,,,,,,,,,,,,,,,,,,,,,,,,,,,,44Aloud,001,2022_Sep_05_0902,ProdSingRedoBetween,2021.2.3,59.96415343535271,
20,0,20,0,,,,,,,,,,,,,,,,,,,,,,,,,,224.8520170999691,None,meeting,67,21,aloud,red,222.8515373999835,None,None,222.8515373999835,None,,,,,,,,,,,,,,,,,,,,,,,,,,,,,,,,,,,44Aloud,001,2022_Sep_05_0902,ProdSingRedoBetween,2021.2.3,59.96415343535271,
21,0,21,0,,,,,,,,,,,,,,,,,,,,,,,,,,227.37103229999775,None,passage,36,22,aloud,blue,225.358818699955,None,None,225.358818699955,None,,,,,,,,,,,,,,,,,,,,,,,,,,,,,,,,,,,44Aloud,001,2022_Sep_05_0902,ProdSingRedoBetween,2021.2.3,59.96415343535271,
22,0,22,0,,,,,,,,,,,,,,,,,,,,,,,,,,229.89045800000895,None,danger,86,23,aloud,red,227.87693929998204,None,None,227.87693929998204,None,,,,,,,,,,,,,,,,,,,,,,,,,,,,,,,,,,,44Aloud,001,2022_Sep_05_0902,ProdSingRedoBetween,2021.2.3,59.96415343535271,
23,0,23,0,,,,,,,,,,,,,,,,,,,,,,,,,,232.40959449997172,None,government,37,24,aloud,blue,230.3945588999777,None,None,230.3945588999777,None,,,,,,,,,,,,,,,,,,,,,,,,,,,,,,,,,,,44Aloud,001,2022_Sep_05_0902,ProdSingRedoBetween,2021.2.3,59.96415343535271,
24,0,24,0,,,,,,,,,,,,,,,,,,,,,,,,,,234.92887489998247,None,signal,46,25,aloud,blue,232.91520669998135,None,None,232.91520669998135,None,,,,,,,,,,,,,,,,,,,,,,,,,,,,,,,,,,,44Aloud,001,2022_Sep_05_0902,ProdSingRedoBetween,2021.2.3,59.96415343535271,
25,0,25,0,,,,,,,,,,,,,,,,,,,,,,,,,,237.44786709995242,None,bucket,82,26,aloud,red,235.436258599977,None,None,235.436258599977,None,,,,,,,,,,,,,,,,,,,,,,,,,,,,,,,,,,,44Aloud,001,2022_Sep_05_0902,ProdSingRedoBetween,2021.2.3,59.96415343535271,
26,0,26,0,,,,,,,,,,,,,,,,,,,,,,,,,,239.95036119996803,None,command,5,27,aloud,yellow,237.94980869995197,None,None,237.94980869995197,None,,,,,,,,,,,,,,,,,,,,,,,,,,,,,,,,,,,44Aloud,001,2022_Sep_05_0902,ProdSingRedoBetween,2021.2.3,59.96415343535271,
27,0,27,0,,,,,,,,,,,,,,,,,,,,,,,,,,242.45286019996274,None,couch,34,28,aloud,blue,240.45254639995983,None,None,240.45254639995983,None,,,,,,,,,,,,,,,,,,,,,,,,,,,,,,,,,,,44Aloud,001,2022_Sep_05_0902,ProdSingRedoBetween,2021.2.3,59.96415343535271,
28,0,28,0,,,,,,,,,,,,,,,,,,,,,,,,,,244.97204039996723,None,enemy,26,29,aloud,yellow,242.95696300000418,None,None,242.95696300000418,None,,,,,,,,,,,,,,,,,,,,,,,,,,,,,,,,,,,44Aloud,001,2022_Sep_05_0902,ProdSingRedoBetween,2021.2.3,59.96415343535271,
29,0,29,0,,,,,,,,,,,,,,,,,,,,,,,,,,247.49127149995184,None,safety,16,30,aloud,yellow,245.4792524999939,None,None,245.4792524999939,None,,,,,,,,,,,,,,,,,,,,,,,,,,,,,,,,,,,44Aloud,001,2022_Sep_05_0902,ProdSingRedoBetween,2021.2.3,59.96415343535271,
30,0,30,0,,,,,,,,,,,,,,,,,,,,,,,,,,250.01043589995243,None,sight,35,31,aloud,blue,247.99797059997218,None,None,247.99797059997218,None,,,,,,,,,,,,,,,,,,,,,,,,,,,,,,,,,,,44Aloud,001,2022_Sep_05_0902,ProdSingRedoBetween,2021.2.3,59.96415343535271,
31,0,31,0,,,,,,,,,,,,,,,,,,,,,,,,,,252.51295720000053,None,damage,49,32,aloud,blue,250.5119479999994,None,None,250.5119479999994,None,,,,,,,,,,,,,,,,,,,,,,,,,,,,,,,,,,,44Aloud,001,2022_Sep_05_0902,ProdSingRedoBetween,2021.2.3,59.96415343535271,
32,0,32,0,,,,,,,,,,,,,,,,,,,,,,,,,,255.03206150000915,None,smell,18,33,aloud,yellow,253.01952410000376,None,None,253.01952410000376,None,,,,,,,,,,,,,,,,,,,,,,,,,,,,,,,,,,,44Aloud,001,2022_Sep_05_0902,ProdSingRedoBetween,2021.2.3,59.96415343535271,
33,0,33,0,,,,,,,,,,,,,,,,,,,,,,,,,,257.5512813999667,None,heavy,57,34,aloud,blue,255.54038009996293,None,None,255.54038009996293,None,,,,,,,,,,,,,,,,,,,,,,,,,,,,,,,,,,,44Aloud,001,2022_Sep_05_0902,ProdSingRedoBetween,2021.2.3,59.96415343535271,
34,0,34,0,,,,,,,,,,,,,,,,,,,,,,,,,,260.0704775999766,None,provision,2,35,aloud,yellow,258.0551593999844,None,None,258.0551593999844,None,,,,,,,,,,,,,,,,,,,,,,,,,,,,,,,,,,,44Aloud,001,2022_Sep_05_0902,ProdSingRedoBetween,2021.2.3,59.96415343535271,
35,0,35,0,,,,,,,,,,,,,,,,,,,,,,,,,,262.57288950000657,None,point,51,36,aloud,blue,260.57219049998093,None,None,260.57219049998093,None,,,,,,,,,,,,,,,,,,,,,,,,,,,,,,,,,,,44Aloud,001,2022_Sep_05_0902,ProdSingRedoBetween,2021.2.3,59.96415343535271,
36,0,36,0,,,,,,,,,,,,,,,,,,,,,,,,,,265.09227849997114,None,interior,75,37,aloud,red,263.0793228999828,None,None,263.0793228999828,None,,,,,,,,,,,,,,,,,,,,,,,,,,,,,,,,,,,44Aloud,001,2022_Sep_05_0902,ProdSingRedoBetween,2021.2.3,59.96415343535271,
37,0,37,0,,,,,,,,,,,,,,,,,,,,,,,,,,267.6114351999713,None,finish,11,38,aloud,yellow,265.5994233000092,None,None,265.5994233000092,None,,,,,,,,,,,,,,,,,,,,,,,,,,,,,,,,,,,44Aloud,001,2022_Sep_05_0902,ProdSingRedoBetween,2021.2.3,59.96415343535271,
38,0,38,0,,,,,,,,,,,,,,,,,,,,,,,,,,270.1306062999647,None,figure,48,39,aloud,blue,268.11741109995637,None,None,268.11741109995637,None,,,,,,,,,,,,,,,,,,,,,,,,,,,,,,,,,,,44Aloud,001,2022_Sep_05_0902,ProdSingRedoBetween,2021.2.3,59.96415343535271,
39,0,39,0,,,,,,,,,,,,,,,,,,,,,,,,,,272.6331586999586,None,title,24,40,aloud,yellow,270.63097279996146,None,None,270.63097279996146,None,,,,,,,,,,,,,,,,,,,,,,,,,,,,,,,,,,,44Aloud,001,2022_Sep_05_0902,ProdSingRedoBetween,2021.2.3,59.96415343535271,
40,0,40,0,,,,,,,,,,,,,,,,,,,,,,,,,,275.1522150999517,None,quantity,77,41,aloud,red,273.1420676999842,None,None,273.1420676999842,None,,,,,,,,,,,,,,,,,,,,,,,,,,,,,,,,,,,44Aloud,001,2022_Sep_05_0902,ProdSingRedoBetween,2021.2.3,59.96415343535271,
41,0,41,0,,,,,,,,,,,,,,,,,,,,,,,,,,277.654677399958,None,height,3,42,aloud,yellow,275.65372909995494,None,None,275.65372909995494,None,,,,,,,,,,,,,,,,,,,,,,,,,,,,,,,,,,,44Aloud,001,2022_Sep_05_0902,ProdSingRedoBetween,2021.2.3,59.96415343535271,
42,0,42,0,,,,,,,,,,,,,,,,,,,,,,,,,,280.1738989999867,None,suggestion,78,43,aloud,red,278.15875339997,None,None,278.15875339997,None,,,,,,,,,,,,,,,,,,,,,,,,,,,,,,,,,,,44Aloud,001,2022_Sep_05_0902,ProdSingRedoBetween,2021.2.3,59.96415343535271,
43,0,43,0,,,,,,,,,,,,,,,,,,,,,,,,,,282.67638809996424,None,split,10,44,aloud,yellow,280.6761109000072,None,None,280.6761109000072,None,,,,,,,,,,,,,,,,,,,,,,,,,,,,,,,,,,,44Aloud,001,2022_Sep_05_0902,ProdSingRedoBetween,2021.2.3,59.96415343535271,
44,0,44,0,,,,,,,,,,,,,,,,,,,,,,,,,,285.1789324999554,None,state,31,45,aloud,blue,283.17908430000534,None,None,283.17908430000534,None,,,,,,,,,,,,,,,,,,,,,,,,,,,,,,,,,,,44Aloud,001,2022_Sep_05_0902,ProdSingRedoBetween,2021.2.3,59.96415343535271,
45,0,45,0,,,,,,,,,,,,,,,,,,,,,,,,,,287.6979798999964,None,working,72,46,aloud,red,285.6883733999566,None,None,285.6883733999566,None,,,,,,,,,,,,,,,,,,,,,,,,,,,,,,,,,,,44Aloud,001,2022_Sep_05_0902,ProdSingRedoBetween,2021.2.3,59.96415343535271,
46,0,46,0,,,,,,,,,,,,,,,,,,,,,,,,,,290.21720089996234,None,junior,59,47,aloud,yellow,288.2070278999745,None,None,288.2070278999745,None,,,,,,,,,,,,,,,,,,,,,,,,,,,,,,,,,,,44Aloud,001,2022_Sep_05_0902,ProdSingRedoBetween,2021.2.3,59.96415343535271,
47,0,47,0,,,,,,,,,,,,,,,,,,,,,,,,,,292.7197084999643,None,whole,13,48,aloud,yellow,290.71768159995554,None,None,290.71768159995554,None,,,,,,,,,,,,,,,,,,,,,,,,,,,,,,,,,,,44Aloud,001,2022_Sep_05_0902,ProdSingRedoBetween,2021.2.3,59.96415343535271,
48,0,48,0,,,,,,,,,,,,,,,,,,,,,,,,,,295.23903060000157,None,suspect,12,49,aloud,yellow,293.2322393999784,None,None,293.2322393999784,None,,,,,,,,,,,,,,,,,,,,,,,,,,,,,,,,,,,44Aloud,001,2022_Sep_05_0902,ProdSingRedoBetween,2021.2.3,59.96415343535271,
49,0,49,0,,,,,,,,,,,,,,,,,,,,,,,,,,297.7581790999975,None,plane,21,50,aloud,yellow,295.7519820999587,None,None,295.7519820999587,None,,,,,,,,,,,,,,,,,,,,,,,,,,,,,,,,,,,44Aloud,001,2022_Sep_05_0902,ProdSingRedoBetween,2021.2.3,59.96415343535271,
50,0,50,0,,,,,,,,,,,,,,,,,,,,,,,,,,300.2772787999711,None,mankind,70,51,aloud,red,298.26334579999093,None,None,298.26334579999093,None,,,,,,,,,,,,,,,,,,,,,,,,,,,,,,,,,,,44Aloud,001,2022_Sep_05_0902,ProdSingRedoBetween,2021.2.3,59.96415343535271,
51,0,51,0,,,,,,,,,,,,,,,,,,,,,,,,,,302.79659079998964,None,youth,50,52,aloud,blue,300.7840309999883,None,None,300.7840309999883,None,,,,,,,,,,,,,,,,,,,,,,,,,,,,,,,,,,,44Aloud,001,2022_Sep_05_0902,ProdSingRedoBetween,2021.2.3,59.96415343535271,
52,0,52,0,,,,,,,,,,,,,,,,,,,,,,,,,,305.31585630000336,None,staff,76,53,aloud,red,303.30253190000076,None,None,303.30253190000076,None,,,,,,,,,,,,,,,,,,,,,,,,,,,,,,,,,,,44Aloud,001,2022_Sep_05_0902,ProdSingRedoBetween,2021.2.3,59.96415343535271,
53,0,53,0,,,,,,,,,,,,,,,,,,,,,,,,,,307.83479120000266,None,close,84,54,aloud,red,305.82485579996137,None,None,305.82485579996137,None,,,,,,,,,,,,,,,,,,,,,,,,,,,,,,,,,,,44Aloud,001,2022_Sep_05_0902,ProdSingRedoBetween,2021.2.3,59.96415343535271,
54,0,54,0,,,,,,,,,,,,,,,,,,,,,,,,,,310.3372967999894,None,gesture,28,55,aloud,yellow,308.3366939999978,None,None,308.3366939999978,None,,,,,,,,,,,,,,,,,,,,,,,,,,,,,,,,,,,44Aloud,001,2022_Sep_05_0902,ProdSingRedoBetween,2021.2.3,59.96415343535271,
55,0,55,0,,,,,,,,,,,,,,,,,,,,,,,,,,312.83988990000216,None,resistance,1,56,aloud,yellow,310.84086939995177,None,None,310.84086939995177,None,,,,,,,,,,,,,,,,,,,,,,,,,,,,,,,,,,,44Aloud,001,2022_Sep_05_0902,ProdSingRedoBetween,2021.2.3,59.96415343535271,
56,0,56,0,,,,,,,,,,,,,,,,,,,,,,,,,,315.3590877999668,None,payment,68,57,aloud,red,313.3464306999813,None,None,313.3464306999813,None,,,,,,,,,,,,,,,,,,,,,,,,,,,,,,,,,,,44Aloud,001,2022_Sep_05_0902,ProdSingRedoBetween,2021.2.3,59.96415343535271,
57,0,57,0,,,,,,,,,,,,,,,,,,,,,,,,,,317.861597399984,None,material,8,58,aloud,yellow,315.86202010000125,None,None,315.86202010000125,None,,,,,,,,,,,,,,,,,,,,,,,,,,,,,,,,,,,44Aloud,001,2022_Sep_05_0902,ProdSingRedoBetween,2021.2.3,59.96415343535271,
58,0,58,0,,,,,,,,,,,,,,,,,,,,,,,,,,320.3809085999965,None,break,14,59,aloud,yellow,318.3672726000077,None,None,318.3672726000077,None,,,,,,,,,,,,,,,,,,,,,,,,,,,,,,,,,,,44Aloud,001,2022_Sep_05_0902,ProdSingRedoBetween,2021.2.3,59.96415343535271,
59,0,59,0,,,,,,,,,,,,,,,,,,,,,,,,,,322.8999655999942,None,patient,64,60,aloud,red,320.88857829995686,None,None,320.88857829995686,None,,,,,,,,,,,,,,,,,,,,,,,,,,,,,,,,,,,44Aloud,001,2022_Sep_05_0902,ProdSingRedoBetween,2021.2.3,59.96415343535271,
60,0,60,0,,,,,,,,,,,,,,,,,,,,,,,,,,325.402408999973,None,display,23,61,aloud,yellow,323.40040059998864,None,None,323.40040059998864,None,,,,,,,,,,,,,,,,,,,,,,,,,,,,,,,,,,,44Aloud,001,2022_Sep_05_0902,ProdSingRedoBetween,2021.2.3,59.96415343535271,
61,0,61,0,,,,,,,,,,,,,,,,,,,,,,,,,,327.90488950000145,None,stranger,39,62,aloud,blue,325.904677399958,None,None,325.904677399958,None,,,,,,,,,,,,,,,,,,,,,,,,,,,,,,,,,,,44Aloud,001,2022_Sep_05_0902,ProdSingRedoBetween,2021.2.3,59.96415343535271,
62,0,62,0,,,,,,,,,,,,,,,,,,,,,,,,,,330.40739469998516,None,guest,89,63,aloud,red,328.4071816999931,None,None,328.4071816999931,None,,,,,,,,,,,,,,,,,,,,,,,,,,,,,,,,,,,44Aloud,001,2022_Sep_05_0902,ProdSingRedoBetween,2021.2.3,59.96415343535271,
63,0,63,0,,,,,,,,,,,,,,,,,,,,,,,,,,332.90988960000686,None,orchestra,44,64,aloud,blue,330.90999699995155,None,None,330.90999699995155,None,,,,,,,,,,,,,,,,,,,,,,,,,,,,,,,,,,,44Aloud,001,2022_Sep_05_0902,ProdSingRedoBetween,2021.2.3,59.96415343535271,
64,0,64,0,,,,,,,,,,,,,,,,,,,,,,,,,,335.4124579000054,None,crisis,65,65,aloud,red,333.4120255999733,None,None,333.4120255999733,None,,,,,,,,,,,,,,,,,,,,,,,,,,,,,,,,,,,44Aloud,001,2022_Sep_05_0902,ProdSingRedoBetween,2021.2.3,59.96415343535271,
65,0,65,0,,,,,,,,,,,,,,,,,,,,,,,,,,337.91497209999943,None,sound,27,66,aloud,yellow,335.9137812999543,None,None,335.9137812999543,None,,,,,,,,,,,,,,,,,,,,,,,,,,,,,,,,,,,44Aloud,001,2022_Sep_05_0902,ProdSingRedoBetween,2021.2.3,59.96415343535271,
66,0,66,0,,,,,,,,,,,,,,,,,,,,,,,,,,340.4173953999998,None,skill,6,67,aloud,yellow,338.4173374999664,None,None,338.4173374999664,None,,,,,,,,,,,,,,,,,,,,,,,,,,,,,,,,,,,44Aloud,001,2022_Sep_05_0902,ProdSingRedoBetween,2021.2.3,59.96415343535271,
67,0,67,0,,,,,,,,,,,,,,,,,,,,,,,,,,342.91989560000366,None,hunger,40,68,aloud,blue,340.9182996999589,None,None,340.9182996999589,None,,,,,,,,,,,,,,,,,,,,,,,,,,,,,,,,,,,44Aloud,001,2022_Sep_05_0902,ProdSingRedoBetween,2021.2.3,59.96415343535271,
68,0,68,0,,,,,,,,,,,,,,,,,,,,,,,,,,345.4224293999723,None,light,41,69,aloud,blue,343.42074729996966,None,None,343.42074729996966,None,,,,,,,,,,,,,,,,,,,,,,,,,,,,,,,,,,,44Aloud,001,2022_Sep_05_0902,ProdSingRedoBetween,2021.2.3,59.96415343535271,
69,0,69,0,,,,,,,,,,,,,,,,,,,,,,,,,,347.941717299982,None,edition,58,70,aloud,blue,345.93284379999386,None,None,345.93284379999386,None,,,,,,,,,,,,,,,,,,,,,,,,,,,,,,,,,,,44Aloud,001,2022_Sep_05_0902,ProdSingRedoBetween,2021.2.3,59.96415343535271,
70,0,70,0,,,,,,,,,,,,,,,,,,,,,,,,,,350.44422730000224,None,route,69,71,aloud,red,348.44490949995816,None,None,348.44490949995816,None,,,,,,,,,,,,,,,,,,,,,,,,,,,,,,,,,,,44Aloud,001,2022_Sep_05_0902,ProdSingRedoBetween,2021.2.3,59.96415343535271,
71,0,71,0,,,,,,,,,,,,,,,,,,,,,,,,,,352.96332179999445,None,grade,4,72,aloud,yellow,350.95346269995207,None,None,350.95346269995207,None,,,,,,,,,,,,,,,,,,,,,,,,,,,,,,,,,,,44Aloud,001,2022_Sep_05_0902,ProdSingRedoBetween,2021.2.3,59.96415343535271,
72,0,72,0,,,,,,,,,,,,,,,,,,,,,,,,,,355.4825302999816,None,rough,66,73,aloud,red,353.46781820000615,None,None,353.46781820000615,None,,,,,,,,,,,,,,,,,,,,,,,,,,,,,,,,,,,44Aloud,001,2022_Sep_05_0902,ProdSingRedoBetween,2021.2.3,59.96415343535271,
73,0,73,0,,,,,,,,,,,,,,,,,,,,,,,,,,357.9849987999769,None,goose,32,74,aloud,blue,355.9857312999666,None,None,355.9857312999666,None,,,,,,,,,,,,,,,,,,,,,,,,,,,,,,,,,,,44Aloud,001,2022_Sep_05_0902,ProdSingRedoBetween,2021.2.3,59.96415343535271,
74,0,74,0,,,,,,,,,,,,,,,,,,,,,,,,,,360.50410199997714,None,course,25,75,aloud,yellow,358.48980629997095,None,None,358.48980629997095,None,,,,,,,,,,,,,,,,,,,,,,,,,,,,,,,,,,,44Aloud,001,2022_Sep_05_0902,ProdSingRedoBetween,2021.2.3,59.96415343535271,
75,0,75,0,,,,,,,,,,,,,,,,,,,,,,,,,,363.02343189995736,None,stand,83,76,aloud,red,361.0089922999614,None,None,361.0089922999614,None,,,,,,,,,,,,,,,,,,,,,,,,,,,,,,,,,,,44Aloud,001,2022_Sep_05_0902,ProdSingRedoBetween,2021.2.3,59.96415343535271,
76,0,76,0,,,,,,,,,,,,,,,,,,,,,,,,,,365.5426035999553,None,background,17,77,aloud,yellow,363.5289553999901,None,None,363.5289553999901,None,,,,,,,,,,,,,,,,,,,,,,,,,,,,,,,,,,,44Aloud,001,2022_Sep_05_0902,ProdSingRedoBetween,2021.2.3,59.96415343535271,
77,0,77,0,,,,,,,,,,,,,,,,,,,,,,,,,,368.06165359995794,None,recall,47,78,aloud,blue,366.0471157999709,None,None,366.0471157999709,None,,,,,,,,,,,,,,,,,,,,,,,,,,,,,,,,,,,44Aloud,001,2022_Sep_05_0902,ProdSingRedoBetween,2021.2.3,59.96415343535271,
78,0,78,0,,,,,,,,,,,,,,,,,,,,,,,,,,370.5641879999894,None,atmosphere,88,79,aloud,red,368.564584799984,None,None,368.564584799984,None,,,,,,,,,,,,,,,,,,,,,,,,,,,,,,,,,,,44Aloud,001,2022_Sep_05_0902,ProdSingRedoBetween,2021.2.3,59.96415343535271,
79,0,79,0,,,,,,,,,,,,,,,,,,,,,,,,,,373.06675539998105,None,health,61,80,aloud,red,371.064803199959,None,None,371.064803199959,None,,,,,,,,,,,,,,,,,,,,,,,,,,,,,,,,,,,44Aloud,001,2022_Sep_05_0902,ProdSingRedoBetween,2021.2.3,59.96415343535271,
80,0,80,0,,,,,,,,,,,,,,,,,,,,,,,,,,375.5692051000078,None,bitter,15,81,aloud,yellow,373.56718899996486,None,None,373.56718899996486,None,,,,,,,,,,,,,,,,,,,,,,,,,,,,,,,,,,,44Aloud,001,2022_Sep_05_0902,ProdSingRedoBetween,2021.2.3,59.96415343535271,
81,0,81,0,,,,,,,,,,,,,,,,,,,,,,,,,,378.07166289997986,None,fellow,20,82,aloud,yellow,376.0708669999731,None,None,376.0708669999731,None,,,,,,,,,,,,,,,,,,,,,,,,,,,,,,,,,,,44Aloud,001,2022_Sep_05_0902,ProdSingRedoBetween,2021.2.3,59.96415343535271,
82,0,82,0,,,,,,,,,,,,,,,,,,,,,,,,,,380.59092719998443,None,cousin,81,83,aloud,red,378.5853477999917,None,None,378.5853477999917,None,,,,,,,,,,,,,,,,,,,,,,,,,,,,,,,,,,,44Aloud,001,2022_Sep_05_0902,ProdSingRedoBetween,2021.2.3,59.96415343535271,
83,0,83,0,,,,,,,,,,,,,,,,,,,,,,,,,,383.11016809998546,None,individual,33,84,aloud,blue,381.106581799977,None,None,381.106581799977,None,,,,,,,,,,,,,,,,,,,,,,,,,,,,,,,,,,,44Aloud,001,2022_Sep_05_0902,ProdSingRedoBetween,2021.2.3,59.96415343535271,
84,0,84,0,,,,,,,,,,,,,,,,,,,,,,,,,,385.62932939996244,None,welcome,85,85,aloud,red,383.6167258999776,None,None,383.6167258999776,None,,,,,,,,,,,,,,,,,,,,,,,,,,,,,,,,,,,44Aloud,001,2022_Sep_05_0902,ProdSingRedoBetween,2021.2.3,59.96415343535271,
85,0,85,0,,,,,,,,,,,,,,,,,,,,,,,,,,388.1318088999833,None,surface,19,86,aloud,yellow,386.1297304999898,None,None,386.1297304999898,None,,,,,,,,,,,,,,,,,,,,,,,,,,,,,,,,,,,44Aloud,001,2022_Sep_05_0902,ProdSingRedoBetween,2021.2.3,59.96415343535271,
86,0,86,0,,,,,,,,,,,,,,,,,,,,,,,,,,390.65095119999023,None,military,9,87,aloud,yellow,388.638131899992,None,None,388.638131899992,None,,,,,,,,,,,,,,,,,,,,,,,,,,,,,,,,,,,44Aloud,001,2022_Sep_05_0902,ProdSingRedoBetween,2021.2.3,59.96415343535271,
87,0,87,0,,,,,,,,,,,,,,,,,,,,,,,,,,393.1535518000019,None,rapid,55,88,aloud,blue,391.15324479999254,None,None,391.15324479999254,None,,,,,,,,,,,,,,,,,,,,,,,,,,,,,,,,,,,44Aloud,001,2022_Sep_05_0902,ProdSingRedoBetween,2021.2.3,59.96415343535271,
88,0,88,0,,,,,,,,,,,,,,,,,,,,,,,,,,395.6727634999552,None,review,62,89,aloud,red,393.6582675999962,None,None,393.6582675999962,None,,,,,,,,,,,,,,,,,,,,,,,,,,,,,,,,,,,44Aloud,001,2022_Sep_05_0902,ProdSingRedoBetween,2021.2.3,59.96415343535271,
89,0,89,0,,,,,,,,,,,,,,,,,,,,,,,,,,398.17507120000664,None,region,43,90,aloud,blue,396.17405699996743,None,None,396.17405699996743,None,,,,,,,,,,,,,,,,,,,,,,,,,,,,,,,,,,,44Aloud,001,2022_Sep_05_0902,ProdSingRedoBetween,2021.2.3,59.96415343535271,
,,,,,,,,,,,,,,,,,,,,,,,,,,,,,,,,,,,,,,,,,398.67587239999557,None,k,193.39872240001569,398.67587239999557,None,,,,,,,,,,,,,,,,,,,,,,,,,,,,,44Aloud,001,2022_Sep_05_0902,ProdSingRedoBetween,2021.2.3,59.96415343535271,
,,,,0,0,0,0,,,,,,,,,,,,,,,,,,,,,,631.5922226999537,None,,,,,,,,,,,,,,,,,generation,91,1,aloud,new,null,592.6104769000085,None,592.6104769000085,None,3,6.480152300035115,592.6104769000085,None,6.480152300035115,599.115589699999,None,599.6290001999587,None,599.6290001999587,None,f,31.933580600016285,599.6290001999587,None,31.933580600016285,,,44Aloud,001,2022_Sep_05_0902,ProdSingRedoBetween,2021.2.3,59.96415343535271,
,,,,1,0,1,0,,,,,,,,,,,,,,,,,,,,,,647.60763579997,None,,,,,,,,,,,,,,,,,sound,27,2,aloud,old,yellow,632.1058656999958,None,632.1058656999958,None,5,11.608640599995852,632.1058656999958,None,11.608640599995852,643.7395891000051,None,644.2597287999815,None,644.2597287999815,None,r,3.3267813000129536,644.2597287999815,None,3.3267813000129536,,,44Aloud,001,2022_Sep_05_0902,ProdSingRedoBetween,2021.2.3,59.96415343535271,
,,,,2,0,2,0,,,,,,,,,,,,,,,,,,,,,,656.4868123999913,None,,,,,,,,,,,,,,,,,graduate,154,3,aloud,new,null,648.1096191999968,None,648.1096191999968,None,5,4.940889099962078,648.1096191999968,None,4.940889099962078,653.0837067999528,None,653.5969468999538,None,653.5969468999538,None,r,2.869743000017479,653.5969468999538,None,2.869743000017479,,,44Aloud,001,2022_Sep_05_0902,ProdSingRedoBetween,2021.2.3,59.96415343535271,
,,,,3,0,3,0,,,,,,,,,,,,,,,,,,,,,,669.3125921000028,None,,,,,,,,,,,,,,,,,quick,101,4,aloud,new,null,657.005789799965,None,657.005789799965,None,5,9.332839499984402,657.005789799965,None,9.332839499984402,666.3723134999746,None,666.8814034999814,None,666.8814034999814,None,r,2.401092099957168,666.8814034999814,None,2.401092099957168,,,44Aloud,001,2022_Sep_05_0902,ProdSingRedoBetween,2021.2.3,59.96415343535271,
,,,,4,0,4,0,,,,,,,,,,,,,,,,,,,,,,675.2213732000091,None,,,,,,,,,,,,,,,,,broke,0,5,aloud,old,yellow,669.8273542999523,None,669.8273542999523,None,5,3.215122700028587,669.8273542999523,None,3.215122700028587,673.0690570999868,None,673.5872031999752,None,673.5872031999752,None,r,1.6153744000475854,673.5872031999752,None,1.6153744000475854,,,44Aloud,001,2022_Sep_05_0902,ProdSingRedoBetween,2021.2.3,59.96415343535271,
,,,,5,0,5,0,,,,,,,,,,,,,,,,,,,,,,695.7724575999891,None,,,,,,,,,,,,,,,,,shear,102,6,aloud,new,null,675.7435571999522,None,675.7435571999522,None,1,2.1629516999819316,675.7435571999522,None,2.1629516999819316,677.9248855999904,None,678.4423039999674,None,678.4423039999674,None,n,17.30425980000291,678.4423039999674,None,17.30425980000291,,,44Aloud,001,2022_Sep_05_0902,ProdSingRedoBetween,2021.2.3,59.96415343535271,
,,,,6,0,6,0,,,,,,,,,,,,,,,,,,,,,,729.1557704999577,None,,,,,,,,,,,,,,,,,message,60,7,aloud,old,red,696.2868409999646,None,696.2868409999646,None,6,3.4676648000022396,696.2868409999646,None,3.4676648000022396,699.7801145999692,None,700.3003622999531,None,700.3003622999531,None,f,28.830026800045744,700.3003622999531,None,28.830026800045744,,,44Aloud,001,2022_Sep_05_0902,ProdSingRedoBetween,2021.2.3,59.96415343535271,
,,,,7,0,7,0,,,,,,,,,,,,,,,,,,,,,,736.5965190999559,None,,,,,,,,,,,,,,,,,agency,145,8,aloud,new,null,729.6624797999975,None,729.6624797999975,None,1,4.996043799968902,729.6624797999975,None,4.996043799968902,734.6825117999688,None,735.1990065999562,None,735.1990065999562,None,n,1.3794930999865755,735.1990065999562,None,1.3794930999865755,,,44Aloud,001,2022_Sep_05_0902,ProdSingRedoBetween,2021.2.3,59.96415343535271,
,,,,8,0,8,0,,,,,,,,,,,,,,,,,,,,,,745.7556654000073,None,,,,,,,,,,,,,,,,,course,25,9,aloud,old,yellow,737.1115701999515,None,737.1115701999515,None,3,3.522819800011348,737.1115701999515,None,3.522819800011348,740.6553932999959,None,741.1696837999625,None,741.1696837999625,None,r,4.560809099988546,741.1696837999625,None,4.560809099988546,,,44Aloud,001,2022_Sep_05_0902,ProdSingRedoBetween,2021.2.3,59.96415343535271,
,,,,9,0,9,0,,,,,,,,,,,,,,,,,,,,,,756.250837199972,None,,,,,,,,,,,,,,,,,union,160,10,aloud,new,null,746.2679963999544,None,746.2679963999544,None,1,1.9745013000210747,746.2679963999544,None,1.9745013000210747,748.2614766999613,None,748.7836096999818,None,748.7836096999818,None,f,7.450951999984682,748.7836096999818,None,7.450951999984682,,,44Aloud,001,2022_Sep_05_0902,ProdSingRedoBetween,2021.2.3,59.96415343535271,
,,,,10,0,10,0,,,,,,,,,,,,,,,,,,,,,,768.7457680999651,None,,,,,,,,,,,,,,,,,rough,66,11,aloud,old,red,756.7531141999643,None,756.7531141999643,None,4,6.657507599971723,756.7531141999643,None,6.657507599971723,763.449129799963,None,763.9596045999788,None,763.9596045999788,None,r,4.754765699966811,763.9596045999788,None,4.754765699966811,,,44Aloud,001,2022_Sep_05_0902,ProdSingRedoBetween,2021.2.3,59.96415343535271,
,,,,11,0,11,0,,,,,,,,,,,,,,,,,,,,,,773.7837477999856,None,,,,,,,,,,,,,,,,,recall,47,12,aloud,old,blue,769.2474433999741,None,769.2474433999741,None,4,2.891200000012759,769.2474433999741,None,2.891200000012759,772.1743553999695,None,772.6869866999914,None,772.6869866999914,None,r,1.0675810999819078,772.6869866999914,None,1.0675810999819078,,,44Aloud,001,2022_Sep_05_0902,ProdSingRedoBetween,2021.2.3,59.96415343535271,
,,,,12,0,12,0,,,,,,,,,,,,,,,,,,,,,,778.805420699995,None,,,,,,,,,,,,,,,,,corner,122,13,aloud,new,null,774.293554999982,None,774.293554999982,None,3,3.0210096000228077,774.293554999982,None,3.0210096000228077,777.3418496999657,None,777.854784199968,None,777.854784199968,None,f,0.9237620999920182,777.854784199968,None,0.9237620999920182,,,44Aloud,001,2022_Sep_05_0902,ProdSingRedoBetween,2021.2.3,59.96415343535271,
,,,,13,0,13,0,,,,,,,,,,,,,,,,,,,,,,788.3981959999655,None,,,,,,,,,,,,,,,,,cover,164,14,aloud,new,null,779.3205041000037,None,779.3205041000037,None,3,7.281982899992727,779.3205041000037,None,7.281982899992727,786.6328595999512,None,787.147129799996,None,787.147129799996,None,f,1.2314004000509158,787.147129799996,None,1.2314004000509158,,,44Aloud,001,2022_Sep_05_0902,ProdSingRedoBetween,2021.2.3,59.96415343535271,
,,,,14,0,14,0,,,,,,,,,,,,,,,,,,,,,,792.5857988999924,None,,,,,,,,,,,,,,,,,mayor,116,15,aloud,new,null,788.9142411999637,None,788.9142411999637,None,2,1.472296699997969,788.9142411999637,None,1.472296699997969,790.423574699962,None,790.9361587999738,None,790.9361587999738,None,n,1.6343062000232749,790.9361587999738,None,1.6343062000232749,,,44Aloud,001,2022_Sep_05_0902,ProdSingRedoBetween,2021.2.3,59.96415343535271,
,,,,15,0,15,0,,,,,,,,,,,,,,,,,,,,,,800.0264963000081,None,,,,,,,,,,,,,,,,,break,14,16,aloud,old,yellow,793.0984240999678,None,793.0984240999678,None,3,5.56824960000813,793.0984240999678,None,5.56824960000813,798.7016865999904,None,799.2156867999583,None,799.2156867999583,None,f,0.7868401000159793,799.2156867999583,None,0.7868401000159793,,,44Aloud,001,2022_Sep_05_0902,ProdSingRedoBetween,2021.2.3,59.96415343535271,
,,,,16,0,16,0,,,,,,,,,,,,,,,,,,,,,,804.6144295999547,None,,,,,,,,,,,,,,,,,nation,99,17,aloud,new,null,800.5396863999777,None,800.5396863999777,None,4,2.3428129000240006,800.5396863999777,None,2.3428129000240006,802.9127789000049,None,803.4160159999738,None,803.4160159999738,None,r,1.1785254999995232,803.4160159999738,None,1.1785254999995232,,,44Aloud,001,2022_Sep_05_0902,ProdSingRedoBetween,2021.2.3,59.96415343535271,
,,,,17,0,17,0,,,,,,,,,,,,,,,,,,,,,,812.5222976999939,None,,,,,,,,,,,,,,,,,figure,48,18,aloud,old,blue,805.1276977999951,None,805.1276977999951,None,3,5.786820799985435,805.1276977999951,None,5.786820799985435,810.9409887999645,None,811.4600892000017,None,811.4600892000017,None,f,1.046479799959343,811.4600892000017,None,1.046479799959343,,,44Aloud,001,2022_Sep_05_0902,ProdSingRedoBetween,2021.2.3,59.96415343535271,
,,,,18,0,18,0,,,,,,,,,,,,,,,,,,,,,,817.5607890999527,None,,,,,,,,,,,,,,,,,history,29,19,aloud,old,blue,813.0399005999789,None,813.0399005999789,None,5,2.9626467000343837,813.0399005999789,None,2.9626467000343837,816.033176500001,None,816.5501957999659,None,816.5501957999659,None,r,0.9801874000113457,816.5501957999659,None,0.9801874000113457,,,44Aloud,001,2022_Sep_05_0902,ProdSingRedoBetween,2021.2.3,59.96415343535271,
,,,,19,0,19,0,,,,,,,,,,,,,,,,,,,,,,824.1005280999816,None,,,,,,,,,,,,,,,,,touch,63,20,aloud,old,red,818.0731396999909,None,818.0731396999909,None,4,4.497422399988864,818.0731396999909,None,4.497422399988864,822.6017178999609,None,823.1164483999601,None,823.1164483999601,None,r,0.966066499997396,823.1164483999601,None,0.966066499997396,,,44Aloud,001,2022_Sep_05_0902,ProdSingRedoBetween,2021.2.3,59.96415343535271,
,,,,20,0,20,0,,,,,,,,,,,,,,,,,,,,,,829.9731583999819,None,,,,,,,,,,,,,,,,,court,119,21,aloud,new,null,824.608955899952,None,824.608955899952,None,3,3.9695622000144795,824.608955899952,None,3.9695622000144795,828.6077893999754,None,829.128682599985,None,829.128682599985,None,f,0.8258692999952473,829.128682599985,None,0.8258692999952473,,,44Aloud,001,2022_Sep_05_0902,ProdSingRedoBetween,2021.2.3,59.96415343535271,
,,,,21,0,21,0,,,,,,,,,,,,,,,,,,,,,,835.0448797999998,None,,,,,,,,,,,,,,,,,resistance,1,22,aloud,old,yellow,830.4851595999789,None,830.4851595999789,None,5,2.8453774000518024,830.4851595999789,None,2.8453774000518024,833.3653631999623,None,833.8816206000047,None,833.8816206000047,None,r,1.144830200006254,833.8816206000047,None,1.144830200006254,,,44Aloud,001,2022_Sep_05_0902,ProdSingRedoBetween,2021.2.3,59.96415343535271,
,,,,22,0,22,0,,,,,,,,,,,,,,,,,,,,,,839.652581900009,None,,,,,,,,,,,,,,,,,government,37,23,aloud,old,blue,835.5556663000025,None,835.5556663000025,None,5,2.622876700013876,835.5556663000025,None,2.622876700013876,838.2027575999964,None,838.7198143999558,None,838.7198143999558,None,r,0.9149016999872401,838.7198143999558,None,0.9149016999872401,,,44Aloud,001,2022_Sep_05_0902,ProdSingRedoBetween,2021.2.3,59.96415343535271,
,,,,23,0,23,0,,,,,,,,,,,,,,,,,,,,,,847.2905214999919,None,,,,,,,,,,,,,,,,,carry,148,24,aloud,new,null,840.1703733999748,None,840.1703733999748,None,2,5.59214800002519,840.1703733999748,None,5.59214800002519,845.7923333999934,None,846.3095045000082,None,846.3095045000082,None,n,0.9570158999995328,846.3095045000082,None,0.9570158999995328,,,44Aloud,001,2022_Sep_05_0902,ProdSingRedoBetween,2021.2.3,59.96415343535271,
,,,,24,0,24,0,,,,,,,,,,,,,,,,,,,,,,851.8617111999774,None,,,,,,,,,,,,,,,,,revolution,117,25,aloud,new,null,847.7982105999836,None,847.7982105999836,None,2,2.5643888999475166,847.7982105999836,None,2.5643888999475166,850.3977323999861,None,850.9157307999558,None,850.9157307999558,None,n,0.9187343000085093,850.9157307999558,None,0.9187343000085093,,,44Aloud,001,2022_Sep_05_0902,ProdSingRedoBetween,2021.2.3,59.96415343535271,
,,,,25,0,25,0,,,,,,,,,,,,,,,,,,,,,,856.2994412999833,None,,,,,,,,,,,,,,,,,couch,34,26,aloud,old,blue,852.369907299988,None,852.369907299988,None,5,2.144688500033226,852.369907299988,None,2.144688500033226,854.5362394999829,None,855.0503568999702,None,855.0503568999702,None,r,1.2241870999569073,855.0503568999702,None,1.2241870999569073,,,44Aloud,001,2022_Sep_05_0902,ProdSingRedoBetween,2021.2.3,59.96415343535271,
,,,,26,0,26,0,,,,,,,,,,,,,,,,,,,,,,865.8758291999693,None,,,,,,,,,,,,,,,,,master,157,27,aloud,new,null,856.8145543999854,None,856.8145543999854,None,3,7.963928300014231,856.8145543999854,None,7.963928300014231,864.8087393000023,None,865.3111285999767,None,865.3111285999767,None,f,0.5315062000299804,865.3111285999767,None,0.5315062000299804,,,44Aloud,001,2022_Sep_05_0902,ProdSingRedoBetween,2021.2.3,59.96415343535271,
,,,,27,0,27,0,,,,,,,,,,,,,,,,,,,,,,870.4802882999647,None,,,,,,,,,,,,,,,,,service,139,28,aloud,new,null,866.3927400999819,None,866.3927400999819,None,4,2.674002500018105,866.3927400999819,None,2.674002500018105,869.1011923999758,None,869.6213801999693,None,869.6213801999693,None,r,0.8291622999822721,869.6213801999693,None,0.8291622999822721,,,44Aloud,001,2022_Sep_05_0902,ProdSingRedoBetween,2021.2.3,59.96415343535271,
,,,,28,0,28,0,,,,,,,,,,,,,,,,,,,,,,874.9013389999745,None,,,,,,,,,,,,,,,,,volume,79,29,aloud,old,red,871.0037377999979,None,871.0037377999979,None,5,2.7989328999537975,871.0037377999979,None,2.7989328999537975,873.8380408000085,None,874.352364099992,None,874.352364099992,None,r,0.5300713999895379,874.352364099992,None,0.5300713999895379,,,44Aloud,001,2022_Sep_05_0902,ProdSingRedoBetween,2021.2.3,59.96415343535271,
,,,,29,0,29,0,,,,,,,,,,,,,,,,,,,,,,878.8886987000005,None,,,,,,,,,,,,,,,,,strength,125,30,aloud,new,null,875.4135076999664,None,875.4135076999664,None,6,2.516981400025543,875.4135076999664,None,2.516981400025543,877.9587186999852,None,878.4786044000066,None,878.4786044000066,None,r,0.3879232000326738,878.4786044000066,None,0.3879232000326738,,,44Aloud,001,2022_Sep_05_0902,ProdSingRedoBetween,2021.2.3,59.96415343535271,
,,,,30,0,30,0,,,,,,,,,,,,,,,,,,,,,,883.8103405999718,None,,,,,,,,,,,,,,,,,month,166,31,aloud,new,null,879.3981380999903,None,879.3981380999903,None,4,2.8283857999485917,879.3981380999903,None,2.8283857999485917,882.2453082999564,None,882.7665022999863,None,882.7665022999863,None,r,1.0200403000344522,882.7665022999863,None,1.0200403000344522,,,44Aloud,001,2022_Sep_05_0902,ProdSingRedoBetween,2021.2.3,59.96415343535271,
,,,,31,0,31,0,,,,,,,,,,,,,,,,,,,,,,888.3982461999985,None,,,,,,,,,,,,,,,,,cousin,81,32,aloud,old,red,884.3334459000034,None,884.3334459000034,None,6,2.405047200038098,884.3334459000034,None,2.405047200038098,886.7666089999839,None,887.2805351999705,None,887.2805351999705,None,f,1.0899805999943055,887.2805351999705,None,1.0899805999943055,,,44Aloud,001,2022_Sep_05_0902,ProdSingRedoBetween,2021.2.3,59.96415343535271,
,,,,32,0,32,0,,,,,,,,,,,,,,,,,,,,,,892.8193238999811,None,,,,,,,,,,,,,,,,,orchestra,44,33,aloud,old,blue,888.9131654999801,None,888.9131654999801,None,6,2.513392399996519,888.9131654999801,None,2.513392399996519,891.4561325999675,None,891.9787074999767,None,891.9787074999767,None,r,0.8158467999892309,891.9787074999767,None,0.8158467999892309,,,44Aloud,001,2022_Sep_05_0902,ProdSingRedoBetween,2021.2.3,59.96415343535271,
,,,,33,0,33,0,,,,,,,,,,,,,,,,,,,,,,896.6747084999806,None,,,,,,,,,,,,,,,,,region,43,34,aloud,old,blue,893.3302438999526,None,893.3302438999526,None,6,2.1044269999838434,893.3302438999526,None,2.1044269999838434,895.4629322999972,None,895.9753430999699,None,895.9753430999699,None,r,0.6752662000362761,895.9753430999699,None,0.6752662000362761,,,44Aloud,001,2022_Sep_05_0902,ProdSingRedoBetween,2021.2.3,59.96415343535271,
,,,,34,0,34,0,,,,,,,,,,,,,,,,,,,,,,901.3111554000061,None,,,,,,,,,,,,,,,,,passage,36,35,aloud,old,blue,897.180770899984,None,897.180770899984,None,5,2.4461944000213407,897.180770899984,None,2.4461944000213407,899.655471200007,None,900.164153699996,None,900.164153699996,None,r,1.1263404000201263,900.164153699996,None,1.1263404000201263,,,44Aloud,001,2022_Sep_05_0902,ProdSingRedoBetween,2021.2.3,59.96415343535271,
,,,,35,0,35,0,,,,,,,,,,,,,,,,,,,,,,905.4486609000014,None,,,,,,,,,,,,,,,,,beginning,135,36,aloud,new,null,901.8198330999585,None,901.8198330999585,None,5,2.6227020000224,901.8198330999585,None,2.6227020000224,904.4674155999674,None,904.9868198999902,None,904.9868198999902,None,r,0.4317103999783285,904.9868198999902,None,0.4317103999783285,,,44Aloud,001,2022_Sep_05_0902,ProdSingRedoBetween,2021.2.3,59.96415343535271,
,,,,36,0,36,0,,,,,,,,,,,,,,,,,,,,,,909.6694215000025,None,,,,,,,,,,,,,,,,,still,53,37,aloud,old,blue,905.961641700007,None,905.961641700007,None,5,2.705086600035429,905.961641700007,None,2.705086600035429,908.6888745999895,None,909.2052099999855,None,909.2052099999855,None,r,0.4372986000380479,909.2052099999855,None,0.4372986000380479,,,44Aloud,001,2022_Sep_05_0902,ProdSingRedoBetween,2021.2.3,59.96415343535271,
,,,,37,0,37,0,,,,,,,,,,,,,,,,,,,,,,914.3574818999623,None,,,,,,,,,,,,,,,,,distance,178,38,aloud,new,null,910.1863381000003,None,910.1863381000003,None,5,2.4881657999940217,910.1863381000003,None,2.4881657999940217,912.7088347999961,None,913.2232244999614,None,913.2232244999614,None,r,1.115324700018391,913.2232244999614,None,1.115324700018391,,,44Aloud,001,2022_Sep_05_0902,ProdSingRedoBetween,2021.2.3,59.96415343535271,
,,,,38,0,38,0,,,,,,,,,,,,,,,,,,,,,,929.3404779999983,None,,,,,,,,,,,,,,,,,voice,108,39,aloud,new,null,914.8656575999921,None,914.8656575999921,None,4,3.937028000014834,914.8656575999921,None,3.937028000014834,918.8360715999734,None,919.3538852999918,None,919.3538852999918,None,r,9.96869519999018,919.3538852999918,None,9.96869519999018,,,44Aloud,001,2022_Sep_05_0902,ProdSingRedoBetween,2021.2.3,59.96415343535271,
,,,,39,0,39,0,,,,,,,,,,,,,,,,,,,,,,934.0605536999647,None,,,,,,,,,,,,,,,,,machinery,174,40,aloud,new,null,929.8453936000005,None,929.8453936000005,None,1,2.42906579998089,929.8453936000005,None,2.42906579998089,932.2933387999656,None,932.8003541000071,None,932.8003541000071,None,n,1.2341570000280626,932.8003541000071,None,1.2341570000280626,,,44Aloud,001,2022_Sep_05_0902,ProdSingRedoBetween,2021.2.3,59.96415343535271,
,,,,40,0,40,0,,,,,,,,,,,,,,,,,,,,,,938.1145381999668,None,,,,,,,,,,,,,,,,,tennis,109,41,aloud,new,null,934.5737951999763,None,934.5737951999763,None,1,2.1008352000499144,934.5737951999763,None,2.1008352000499144,936.7078465999803,None,937.2155600999831,None,937.2155600999831,None,n,0.8749393000034615,937.2155600999831,None,0.8749393000034615,,,44Aloud,001,2022_Sep_05_0902,ProdSingRedoBetween,2021.2.3,59.96415343535271,
,,,,41,0,41,0,,,,,,,,,,,,,,,,,,,,,,943.5544588000048,None,,,,,,,,,,,,,,,,,watch,87,42,aloud,old,red,938.6271726999548,None,938.6271726999548,None,4,3.599521600001026,938.6271726999548,None,3.599521600001026,942.2610901999869,None,942.7703623999842,None,942.7703623999842,None,r,0.752234400017187,942.7703623999842,None,0.752234400017187,,,44Aloud,001,2022_Sep_05_0902,ProdSingRedoBetween,2021.2.3,59.96415343535271,
,,,,42,0,42,0,,,,,,,,,,,,,,,,,,,,,,949.075995799969,None,,,,,,,,,,,,,,,,,edition,58,43,aloud,old,blue,944.0588322999538,None,944.0588322999538,None,1,3.5917246000026353,944.0588322999538,None,3.5917246000026353,947.6763497999636,None,948.1992914999719,None,948.1992914999719,None,n,0.8513570000068285,948.1992914999719,None,0.8513570000068285,,,44Aloud,001,2022_Sep_05_0902,ProdSingRedoBetween,2021.2.3,59.96415343535271,
,,,,43,0,43,0,,,,,,,,,,,,,,,,,,,,,,952.1286305999965,None,,,,,,,,,,,,,,,,,leader,71,44,aloud,old,red,949.5882119999733,None,949.5882119999733,None,1,1.4624609999591485,949.5882119999733,None,1.4624609999591485,951.082944499969,None,951.5984150999575,None,951.5984150999575,None,n,0.5081531000323594,951.5984150999575,None,0.5081531000323594,,,44Aloud,001,2022_Sep_05_0902,ProdSingRedoBetween,2021.2.3,59.96415343535271,
,,,,44,0,44,0,,,,,,,,,,,,,,,,,,,,,,961.9840560999583,None,,,,,,,,,,,,,,,,,position,137,45,aloud,new,null,952.6420933000045,None,952.6420933000045,None,4,7.920620399992913,952.6420933000045,None,7.920620399992913,960.5945014999597,None,961.1070051999995,None,961.1070051999995,None,r,0.8396580999833532,961.1070051999995,None,0.8396580999833532,,,44Aloud,001,2022_Sep_05_0902,ProdSingRedoBetween,2021.2.3,59.96415343535271,
,,,,45,0,45,0,,,,,,,,,,,,,,,,,,,,,,967.3801135999965,None,,,,,,,,,,,,,,,,,benefit,163,46,aloud,new,null,962.4978953999816,None,962.4978953999816,None,4,2.3767389999702573,962.4978953999816,None,2.3767389999702573,964.9042603999842,None,965.4129660999752,None,965.4129660999752,None,f,1.941705400007777,965.4129660999752,None,1.941705400007777,,,44Aloud,001,2022_Sep_05_0902,ProdSingRedoBetween,2021.2.3,59.96415343535271,
,,,,46,0,46,0,,,,,,,,,,,,,,,,,,,,,,975.0015158999595,None,,,,,,,,,,,,,,,,,public,177,47,aloud,new,null,967.9065086999908,None,967.9065086999908,None,4,5.695988400024362,967.9065086999908,None,5.695988400024362,973.6377372999559,None,974.1544920000015,None,974.1544920000015,None,r,0.8240592000074685,974.1544920000015,None,0.8240592000074685,,,44Aloud,001,2022_Sep_05_0902,ProdSingRedoBetween,2021.2.3,59.96415343535271,
,,,,47,0,47,0,,,,,,,,,,,,,,,,,,,,,,982.7451607999974,None,,,,,,,,,,,,,,,,,command,5,48,aloud,old,yellow,975.5137169999653,None,975.5137169999653,None,4,2.5928601999767125,975.5137169999653,None,2.5928601999767125,978.1406830999767,None,978.6568685999955,None,978.6568685999955,None,f,4.065753399976529,978.6568685999955,None,4.065753399976529,,,44Aloud,001,2022_Sep_05_0902,ProdSingRedoBetween,2021.2.3,59.96415343535271,
,,,,48,0,48,0,,,,,,,,,,,,,,,,,,,,,,987.0467735999846,None,,,,,,,,,,,,,,,,,profession,161,49,aloud,new,null,983.2662482999731,None,983.2662482999731,None,2,2.4882654000539333,983.2662482999731,None,2.4882654000539333,985.7799681999604,None,986.2897991999635,None,986.2897991999635,None,n,0.7287696999846958,986.2897991999635,None,0.7287696999846958,,,44Aloud,001,2022_Sep_05_0902,ProdSingRedoBetween,2021.2.3,59.96415343535271,
,,,,49,0,49,0,,,,,,,,,,,,,,,,,,,,,,991.7716736999573,None,,,,,,,,,,,,,,,,,impact,167,50,aloud,new,null,987.5595476999879,None,987.5595476999879,None,2,1.4670274999807589,987.5595476999879,None,1.4670274999807589,989.0522478999919,None,989.5691554999794,None,989.5691554999794,None,n,2.1695394999696873,989.5691554999794,None,2.1695394999696873,,,44Aloud,001,2022_Sep_05_0902,ProdSingRedoBetween,2021.2.3,59.96415343535271,
,,,,50,0,50,0,,,,,,,,,,,,,,,,,,,,,,997.9242883999832,None,,,,,,,,,,,,,,,,,gesture,28,51,aloud,old,yellow,992.2970681999577,None,992.2970681999577,None,3,4.033447600028012,992.2970681999577,None,4.033447600028012,996.3594460999593,None,996.8734756999766,None,996.8734756999766,None,f,1.0330463999998756,996.8734756999766,None,1.0330463999998756,,,44Aloud,001,2022_Sep_05_0902,ProdSingRedoBetween,2021.2.3,59.96415343535271,
,,,,51,0,51,0,,,,,,,,,,,,,,,,,,,,,,1008.0678283000016,None,,,,,,,,,,,,,,,,,detective,128,52,aloud,new,null,998.440559599956,None,998.440559599956,None,3,8.265950200031511,998.440559599956,None,8.265950200031511,1006.761492599966,None,1007.2690714999917,None,1007.2690714999917,None,f,0.7734738999861293,1007.2690714999917,None,0.7734738999861293,,,44Aloud,001,2022_Sep_05_0902,ProdSingRedoBetween,2021.2.3,59.96415343535271,
,,,,52,0,52,0,,,,,,,,,,,,,,,,,,,,,,1019.696026199963,None,,,,,,,,,,,,,,,,,damage,49,53,aloud,old,blue,1008.5780275999568,None,1008.5780275999568,None,3,9.512550099985674,1008.5780275999568,None,9.512550099985674,1018.1155759999529,None,1018.638702599972,None,1018.638702599972,None,f,1.0279678999795578,1018.638702599972,None,1.0279678999795578,,,44Aloud,001,2022_Sep_05_0902,ProdSingRedoBetween,2021.2.3,59.96415343535271,
,,,,53,0,53,0,,,,,,,,,,,,,,,,,,,,,,1024.0170188999618,None,,,,,,,,,,,,,,,,,hunger,40,54,aloud,old,blue,1020.1994047999615,None,1020.1994047999615,None,6,2.1952522000065073,1020.1994047999615,None,2.1952522000065073,1022.4210079999757,None,1022.9356769999722,None,1022.9356769999722,None,r,1.0588930000085384,1022.9356769999722,None,1.0588930000085384,,,44Aloud,001,2022_Sep_05_0902,ProdSingRedoBetween,2021.2.3,59.96415343535271,
,,,,54,0,54,0,,,,,,,,,,,,,,,,,,,,,,1031.5913631999865,None,,,,,,,,,,,,,,,,,agreement,121,55,aloud,new,null,1024.5274231999647,None,1024.5274231999647,None,4,4.563295100000687,1024.5274231999647,None,4.563295100000687,1029.1262969999807,None,1029.6396377999918,None,1029.6396377999918,None,f,1.9308770999778062,1029.6396377999918,None,1.9308770999778062,,,44Aloud,001,2022_Sep_05_0902,ProdSingRedoBetween,2021.2.3,59.96415343535271,
,,,,55,0,55,0,,,,,,,,,,,,,,,,,,,,,,1042.8043872999842,None,,,,,,,,,,,,,,,,,height,3,56,aloud,old,yellow,1032.1004779000068,None,1032.1004779000068,None,5,6.294096699974034,1032.1004779000068,None,6.294096699974034,1038.417007299955,None,1038.9369501000037,None,1038.9369501000037,None,r,3.849647700029891,1038.9369501000037,None,3.849647700029891,,,44Aloud,001,2022_Sep_05_0902,ProdSingRedoBetween,2021.2.3,59.96415343535271,
,,,,56,0,56,0,,,,,,,,,,,,,,,,,,,,,,1046.9084830000065,None,,,,,,,,,,,,,,,,,piece,95,57,aloud,new,null,1043.3321558999596,None,1043.3321558999596,None,3,2.03045329998713,1043.3321558999596,None,2.03045329998713,1045.3942269999534,None,1045.9105866999598,None,1045.9105866999598,None,r,0.9799825999652967,1045.9105866999598,None,0.9799825999652967,,,44Aloud,001,2022_Sep_05_0902,ProdSingRedoBetween,2021.2.3,59.96415343535271,
,,,,57,0,57,0,,,,,,,,,,,,,,,,,,,,,,1052.1285325000063,None,,,,,,,,,,,,,,,,,right,176,58,aloud,new,null,1047.426306999987,None,1047.426306999987,None,1,3.0723294999916106,1047.426306999987,None,3.0723294999916106,1050.5309138000011,None,1051.0486566000036,None,1051.0486566000036,None,n,1.0499861999996938,1051.0486566000036,None,1.0499861999996938,,,44Aloud,001,2022_Sep_05_0902,ProdSingRedoBetween,2021.2.3,59.96415343535271,
,,,,58,0,58,0,,,,,,,,,,,,,,,,,,,,,,1056.870322999952,None,,,,,,,,,,,,,,,,,range,104,59,aloud,new,null,1052.6392935999902,None,1052.6392935999902,None,1,2.5633689999813214,1052.6392935999902,None,2.5633689999813214,1055.2316788999597,None,1055.7326733999653,None,1055.7326733999653,None,n,1.1099978999700397,1055.7326733999653,None,1.1099978999700397,,,44Aloud,001,2022_Sep_05_0902,ProdSingRedoBetween,2021.2.3,59.96415343535271,
,,,,59,0,59,0,,,,,,,,,,,,,,,,,,,,,,1061.6054826999898,None,,,,,,,,,,,,,,,,,youth,50,60,aloud,old,blue,1057.3955902999733,None,1057.3955902999733,None,2,2.5350777999847196,1057.3955902999733,None,2.5350777999847196,1059.963254900009,None,1060.4740031999536,None,1060.4740031999536,None,n,1.1125608999864198,1060.4740031999536,None,1.1125608999864198,,,44Aloud,001,2022_Sep_05_0902,ProdSingRedoBetween,2021.2.3,59.96415343535271,
,,,,60,0,60,0,,,,,,,,,,,,,,,,,,,,,,1067.8607930999715,None,,,,,,,,,,,,,,,,,state,31,61,aloud,old,blue,1062.1152900999878,None,1062.1152900999878,None,2,4.463426999980584,1062.1152900999878,None,4.463426999980584,1066.619694699999,None,1067.1306941999937,None,1067.1306941999937,None,n,0.7037815999938175,1067.1306941999937,None,0.7037815999938175,,,44Aloud,001,2022_Sep_05_0902,ProdSingRedoBetween,2021.2.3,59.96415343535271,
,,,,61,0,61,0,,,,,,,,,,,,,,,,,,,,,,1073.4331256999867,None,,,,,,,,,,,,,,,,,whole,13,62,aloud,old,yellow,1068.3705767999636,None,1068.3705767999636,None,2,3.6000937999924645,1068.3705767999636,None,3.6000937999924645,1072.008166799962,None,1072.5178196000052,None,1072.5178196000052,None,n,0.8847489999607205,1072.5178196000052,None,0.8847489999607205,,,44Aloud,001,2022_Sep_05_0902,ProdSingRedoBetween,2021.2.3,59.96415343535271,
,,,,62,0,62,0,,,,,,,,,,,,,,,,,,,,,,1089.8328424000065,None,,,,,,,,,,,,,,,,,birth,97,63,aloud,new,null,1073.9367445999524,None,1073.9367445999524,None,3,10.5539420999703,1073.9367445999524,None,10.5539420999703,1084.5194678999833,None,1085.029666699993,None,1085.029666699993,None,r,4.780930500011891,1085.029666699993,None,4.780930500011891,,,44Aloud,001,2022_Sep_05_0902,ProdSingRedoBetween,2021.2.3,59.96415343535271,
,,,,63,0,63,0,,,,,,,,,,,,,,,,,,,,,,1095.9222850999795,None,,,,,,,,,,,,,,,,,period,127,64,aloud,new,null,1090.3453666999703,None,1090.3453666999703,None,3,4.137209600012284,1090.3453666999703,None,4.137209600012284,1094.5088094999664,None,1095.0251718999934,None,1095.0251718999934,None,n,0.881414000003133,1095.0251718999934,None,0.881414000003133,,,44Aloud,001,2022_Sep_05_0902,ProdSingRedoBetween,2021.2.3,59.96415343535271,
,,,,64,0,64,0,,,,,,,,,,,,,,,,,,,,,,1105.6319773999858,None,,,,,,,,,,,,,,,,,broad,52,65,aloud,old,blue,1096.4323897999711,None,1096.4323897999711,None,3,5.426251500030048,1096.4323897999711,None,5.426251500030048,1101.884100699972,None,1102.3955822999706,None,1102.3955822999706,None,n,3.2149873999878764,1102.3955822999706,None,3.2149873999878764,,,44Aloud,001,2022_Sep_05_0902,ProdSingRedoBetween,2021.2.3,59.96415343535271,
,,,,65,0,65,0,,,,,,,,,,,,,,,,,,,,,,1111.1541713000042,None,,,,,,,,,,,,,,,,,staff,76,66,aloud,old,red,1106.149201799999,None,1106.149201799999,None,3,2.89338389999466,1106.149201799999,None,2.89338389999466,1109.0732429999625,None,1109.591634399956,None,1109.591634399956,None,n,1.5388865999993868,1109.591634399956,None,1.5388865999993868,,,44Aloud,001,2022_Sep_05_0902,ProdSingRedoBetween,2021.2.3,59.96415343535271,
,,,,66,0,66,0,,,,,,,,,,,,,,,,,,,,,,1116.8463948999997,None,,,,,,,,,,,,,,,,,surface,19,67,aloud,old,yellow,1111.6641002999968,None,1111.6641002999968,None,3,3.6345794000080787,1111.6641002999968,None,3.6345794000080787,1115.325781099964,None,1115.8293410000042,None,1115.8293410000042,None,n,0.98930700001074,1115.8293410000042,None,0.98930700001074,,,44Aloud,001,2022_Sep_05_0902,ProdSingRedoBetween,2021.2.3,59.96415343535271,
,,,,67,0,67,0,,,,,,,,,,,,,,,,,,,,,,1121.631266099983,None,,,,,,,,,,,,,,,,,executive,150,68,aloud,new,null,1117.3682080999715,None,1117.3682080999715,None,4,3.0503687000018544,1117.3682080999715,None,3.0503687000018544,1120.4479480999871,None,1120.9545253999531,None,1120.9545253999531,None,f,0.6480281999683939,1120.9545253999531,None,0.6480281999683939,,,44Aloud,001,2022_Sep_05_0902,ProdSingRedoBetween,2021.2.3,59.96415343535271,
,,,,68,0,68,0,,,,,,,,,,,,,,,,,,,,,,1131.1639439999708,None,,,,,,,,,,,,,,,,,title,24,69,aloud,old,yellow,1122.1389257999836,None,1122.1389257999836,None,3,6.447609599970747,1122.1389257999836,None,6.447609599970747,1128.6080815999885,None,1129.127997500007,None,1129.127997500007,None,f,2.010989700036589,1129.127997500007,None,2.010989700036589,,,44Aloud,001,2022_Sep_05_0902,ProdSingRedoBetween,2021.2.3,59.96415343535271,
,,,,69,0,69,0,,,,,,,,,,,,,,,,,,,,,,1138.2479359999998,None,,,,,,,,,,,,,,,,,education,120,70,aloud,new,null,1131.6849324000068,None,1131.6849324000068,None,3,4.941832799988333,1131.6849324000068,None,4.941832799988333,1136.6602609999827,None,1137.1664749999763,None,1137.1664749999763,None,r,1.0521017999853939,1137.1664749999763,None,1.0521017999853939,,,44Aloud,001,2022_Sep_05_0902,ProdSingRedoBetween,2021.2.3,59.96415343535271,
,,,,70,0,70,0,,,,,,,,,,,,,,,,,,,,,,1147.6913726999774,None,,,,,,,,,,,,,,,,,clear,123,71,aloud,new,null,1138.7607325999998,None,1138.7607325999998,None,4,7.3458234000136144,1138.7607325999998,None,7.3458234000136144,1146.1269851999823,None,1146.6397717999644,None,1146.6397717999644,None,r,1.0347850999678485,1146.6397717999644,None,1.0347850999678485,,,44Aloud,001,2022_Sep_05_0902,ProdSingRedoBetween,2021.2.3,59.96415343535271,
,,,,71,0,71,0,,,,,,,,,,,,,,,,,,,,,,1157.77169699996,None,,,,,,,,,,,,,,,,,device,143,72,aloud,new,null,1148.2103720000014,None,1148.2103720000014,None,4,7.432210500002839,1148.2103720000014,None,7.432210500002839,1155.668791199976,None,1156.1916328999796,None,1156.1916328999796,None,r,1.5550726999645121,1156.1916328999796,None,1.5550726999645121,,,44Aloud,001,2022_Sep_05_0902,ProdSingRedoBetween,2021.2.3,59.96415343535271,
,,,,72,0,72,0,,,,,,,,,,,,,,,,,,,,,,1161.471107099962,None,,,,,,,,,,,,,,,,,salary,153,73,aloud,new,null,1158.2913280999637,None,1158.2913280999637,None,1,1.879216900037136,1158.2913280999637,None,1.879216900037136,1160.1914098999696,None,1160.7106682999874,None,1160.7106682999874,None,n,0.7319376999512315,1160.7106682999874,None,0.7319376999512315,,,44Aloud,001,2022_Sep_05_0902,ProdSingRedoBetween,2021.2.3,59.96415343535271,
,,,,73,0,73,0,,,,,,,,,,,,,,,,,,,,,,1168.0944106999668,None,,,,,,,,,,,,,,,,,dispute,136,74,aloud,new,null,1161.9823535999749,None,1161.9823535999749,None,4,5.00424809998367,1161.9823535999749,None,5.00424809998367,1167.015787799959,None,1167.530525399954,None,1167.530525399954,None,r,0.5440764000522904,1167.530525399954,None,0.5440764000522904,,,44Aloud,001,2022_Sep_05_0902,ProdSingRedoBetween,2021.2.3,59.96415343535271,
,,,,74,0,74,0,,,,,,,,,,,,,,,,,,,,,,1175.0846555999597,None,,,,,,,,,,,,,,,,,property,141,75,aloud,new,null,1168.6091931999545,None,1168.6091931999545,None,2,5.6173485000035726,1168.6091931999545,None,5.6173485000035726,1174.2518011999782,None,1174.7579610999674,None,1174.7579610999674,None,n,0.3005243000225164,1174.7579610999674,None,0.3005243000225164,,,44Aloud,001,2022_Sep_05_0902,ProdSingRedoBetween,2021.2.3,59.96415343535271,
,,,,75,0,75,0,,,,,,,,,,,,,,,,,,,,,,1189.3822120999685,None,,,,,,,,,,,,,,,,,material,8,76,aloud,old,yellow,1175.5937451999635,None,1175.5937451999635,None,4,12.440785699989647,1175.5937451999635,None,12.440785699989647,1188.0643553999835,None,1188.570447199978,None,1188.570447199978,None,r,0.7921199999982491,1188.570447199978,None,0.7921199999982491,,,44Aloud,001,2022_Sep_05_0902,ProdSingRedoBetween,2021.2.3,59.96415343535271,
,,,,76,0,76,0,,,,,,,,,,,,,,,,,,,,,,1196.0221028999658,None,,,,,,,,,,,,,,,,,payment,68,77,aloud,old,red,1189.8962136000046,None,1189.8962136000046,None,2,4.70633200003067,1189.8962136000046,None,4.70633200003067,1194.62849979999,None,1195.138116999995,None,1195.138116999995,None,n,0.8644101000390947,1195.138116999995,None,0.8644101000390947,,,44Aloud,001,2022_Sep_05_0902,ProdSingRedoBetween,2021.2.3,59.96415343535271,
,,,,77,0,77,0,,,,,,,,,,,,,,,,,,,,,,1199.593839499983,None,,,,,,,,,,,,,,,,,write,173,78,aloud,new,null,1196.5315702999942,None,1196.5315702999942,None,5,2.174956700007897,1196.5315702999942,None,2.174956700007897,1198.7274491999997,None,1199.2459286999656,None,1199.2459286999656,None,r,0.3247952999663539,1199.2459286999656,None,0.3247952999663539,,,44Aloud,001,2022_Sep_05_0902,ProdSingRedoBetween,2021.2.3,59.96415343535271,
,,,,78,0,78,0,,,,,,,,,,,,,,,,,,,,,,1205.2146567999735,None,,,,,,,,,,,,,,,,,route,69,79,aloud,old,red,1200.0960747000063,None,1200.0960747000063,None,5,3.522658500005491,1200.0960747000063,None,3.522658500005491,1203.6529779999983,None,1204.1676931999973,None,1204.1676931999973,None,r,1.0268663000315428,1204.1676931999973,None,1.0268663000315428,,,44Aloud,001,2022_Sep_05_0902,ProdSingRedoBetween,2021.2.3,59.96415343535271,
,,,,79,0,79,0,,,,,,,,,,,,,,,,,,,,,,1211.1873232999933,None,,,,,,,,,,,,,,,,,speech,175,80,aloud,new,null,1205.72649239999,None,1205.72649239999,None,3,4.5721601999830455,1205.72649239999,None,4.5721601999830455,1210.3276923999656,None,1210.8386524000089,None,1210.8386524000089,None,r,0.3318435999681242,1210.8386524000089,None,0.3318435999681242,,,44Aloud,001,2022_Sep_05_0902,ProdSingRedoBetween,2021.2.3,59.96415343535271,
,,,,80,0,80,0,,,,,,,,,,,,,,,,,,,,,,1214.7409078999772,None,,,,,,,,,,,,,,,,,thing,106,81,aloud,new,null,1211.6946868999512,None,1211.6946868999512,None,1,1.947925899992697,1211.6946868999512,None,1.947925899992697,1213.6782638999866,None,1214.1904958999949,None,1214.1904958999949,None,n,0.5320542000117712,1214.1904958999949,None,0.5320542000117712,,,44Aloud,001,2022_Sep_05_0902,ProdSingRedoBetween,2021.2.3,59.96415343535271,
,,,,81,0,81,0,,,,,,,,,,,,,,,,,,,,,,1218.5448223999701,None,,,,,,,,,,,,,,,,,trend,171,82,aloud,new,null,1215.248577899998,None,1215.248577899998,None,1,1.994073199981358,1215.248577899998,None,1.994073199981358,1217.263511099969,None,1217.779172599956,None,1217.779172599956,None,n,0.7435079000424594,1217.779172599956,None,0.7435079000424594,,,44Aloud,001,2022_Sep_05_0902,ProdSingRedoBetween,2021.2.3,59.96415343535271,
,,,,82,0,82,0,,,,,,,,,,,,,,,,,,,,,,1228.2378057999886,None,,,,,,,,,,,,,,,,,guest,89,83,aloud,old,red,1219.0621446999721,None,1219.0621446999721,None,3,2.5325117000029422,1219.0621446999721,None,2.5325117000029422,1221.6200104999589,None,1222.1340556999785,None,1222.1340556999785,None,n,6.08453410002403,1222.1340556999785,None,6.08453410002403,,,44Aloud,001,2022_Sep_05_0902,ProdSingRedoBetween,2021.2.3,59.96415343535271,
,,,,83,0,83,0,,,,,,,,,,,,,,,,,,,,,,1238.0808235000004,None,,,,,,,,,,,,,,,,,block,38,84,aloud,old,blue,1228.7514656999847,None,1228.7514656999847,None,3,7.067018500005361,1228.7514656999847,None,7.067018500005361,1235.8454263999593,None,1236.3507457999513,None,1236.3507457999513,None,r,1.707872300001327,1236.3507457999513,None,1.707872300001327,,,44Aloud,001,2022_Sep_05_0902,ProdSingRedoBetween,2021.2.3,59.96415343535271,
,,,,84,0,84,0,,,,,,,,,,,,,,,,,,,,,,1241.4690842999844,None,,,,,,,,,,,,,,,,,trash,93,85,aloud,new,null,1238.599618599983,None,1238.599618599983,None,2,1.5229868000023998,1238.599618599983,None,1.5229868000023998,1240.1542850999977,None,1240.6726635000086,None,1240.6726635000086,None,n,0.7780330000096001,1240.6726635000086,None,0.7780330000096001,,,44Aloud,001,2022_Sep_05_0902,ProdSingRedoBetween,2021.2.3,59.96415343535271,
,,,,85,0,85,0,,,,,,,,,,,,,,,,,,,,,,1260.3697793000028,None,,,,,,,,,,,,,,,,,present,131,86,aloud,new,null,1241.9728566999547,None,1241.9728566999547,None,3,4.517850700009149,1241.9728566999547,None,4.517850700009149,1246.5180159999873,None,1247.026751599973,None,1247.026751599973,None,r,13.327759200008586,1247.026751599973,None,13.327759200008586,,,44Aloud,001,2022_Sep_05_0902,ProdSingRedoBetween,2021.2.3,59.96415343535271,
,,,,86,0,86,0,,,,,,,,,,,,,,,,,,,,,,1264.0608211999643,None,,,,,,,,,,,,,,,,,provision,2,87,aloud,old,yellow,1260.880387799989,None,1260.880387799989,None,3,2.1543231999967247,1260.880387799989,None,2.1543231999967247,1263.0709454999887,None,1263.5746895999764,None,1263.5746895999764,None,r,0.46010510000633076,1263.5746895999764,None,0.46010510000633076,,,44Aloud,001,2022_Sep_05_0902,ProdSingRedoBetween,2021.2.3,59.96415343535271,
,,,,87,0,87,0,,,,,,,,,,,,,,,,,,,,,,1270.6801988999941,None,,,,,,,,,,,,,,,,,smell,18,88,aloud,old,yellow,1264.5834955999744,None,1264.5834955999744,None,4,4.9632274999748915,1264.5834955999744,None,4.9632274999748915,1269.5722352999728,None,1270.0822975999909,None,1270.0822975999909,None,r,0.5763119999901392,1270.0822975999909,None,0.5763119999901392,,,44Aloud,001,2022_Sep_05_0902,ProdSingRedoBetween,2021.2.3,59.96415343535271,
,,,,88,0,88,0,,,,,,,,,,,,,,,,,,,,,,1276.3691550999647,None,,,,,,,,,,,,,,,,,crisis,65,89,aloud,old,red,1271.1914235999575,None,1271.1914235999575,None,6,1.8991356000187807,1271.1914235999575,None,1.8991356000187807,1273.1185582999606,None,1273.6409381999983,None,1273.6409381999983,None,f,2.70566969999345,1273.6409381999983,None,2.70566969999345,,,44Aloud,001,2022_Sep_05_0902,ProdSingRedoBetween,2021.2.3,59.96415343535271,
,,,,89,0,89,0,,,,,,,,,,,,,,,,,,,,,,1280.0895588999847,None,,,,,,,,,,,,,,,,,mechanical,138,90,aloud,new,null,1276.8795081999851,None,1276.8795081999851,None,2,1.7070662999758497,1276.8795081999851,None,1.7070662999758497,1278.6056973999948,None,1279.1089491999592,None,1279.1089491999592,None,n,0.9496222999878228,1279.1089491999592,None,0.9496222999878228,,,44Aloud,001,2022_Sep_05_0902,ProdSingRedoBetween,2021.2.3,59.96415343535271,
,,,,90,0,90,0,,,,,,,,,,,,,,,,,,,,,,1283.876682800008,None,,,,,,,,,,,,,,,,,disease,168,91,aloud,new,null,1280.6029324999545,None,1280.6029324999545,None,2,1.847674000018742,1280.6029324999545,None,1.847674000018742,1282.4800138999708,None,1282.997060899972,None,1282.997060899972,None,n,0.8534316999721341,1282.997060899972,None,0.8534316999721341,,,44Aloud,001,2022_Sep_05_0902,ProdSingRedoBetween,2021.2.3,59.96415343535271,
,,,,91,0,91,0,,,,,,,,,,,,,,,,,,,,,,1290.1845294999657,None,,,,,,,,,,,,,,,,,growth,103,92,aloud,new,null,1284.3867133999593,None,1284.3867133999593,None,6,1.7281890999875031,1284.3867133999593,None,1.7281890999875031,1286.1532033999683,None,1286.662977800006,None,1286.662977800006,None,r,3.49967489996925,1286.662977800006,None,3.49967489996925,,,44Aloud,001,2022_Sep_05_0902,ProdSingRedoBetween,2021.2.3,59.96415343535271,
,,,,92,0,92,0,,,,,,,,,,,,,,,,,,,,,,1300.127595399972,None,,,,,,,,,,,,,,,,,enemy,26,93,aloud,old,yellow,1290.6872743999702,None,1290.6872743999702,None,3,4.555345800006762,1290.6872743999702,None,4.555345800006762,1295.2731184999575,None,1295.7804585999693,None,1295.7804585999693,None,r,4.326193499960937,1295.7804585999693,None,4.326193499960937,,,44Aloud,001,2022_Sep_05_0902,ProdSingRedoBetween,2021.2.3,59.96415343535271,
,,,,93,0,93,0,,,,,,,,,,,,,,,,,,,,,,1314.7741858999943,None,,,,,,,,,,,,,,,,,capital,134,94,aloud,new,null,1300.6319468999864,None,1300.6319468999864,None,5,11.770658200024627,1300.6319468999864,None,11.770658200024627,1312.4253794999677,None,1312.9413353999844,None,1312.9413353999844,None,r,1.80527119996259,1312.9413353999844,None,1.80527119996259,,,44Aloud,001,2022_Sep_05_0902,ProdSingRedoBetween,2021.2.3,59.96415343535271,
,,,,94,0,94,0,,,,,,,,,,,,,,,,,,,,,,1321.5142960000085,None,,,,,,,,,,,,,,,,,little,105,95,aloud,new,null,1315.2818356999778,None,1315.2818356999778,None,4,4.94485629996052,1315.2818356999778,None,4.94485629996052,1320.2559150999878,None,1320.7692037999514,None,1320.7692037999514,None,r,0.7214022999978624,1320.7692037999514,None,0.7214022999978624,,,44Aloud,001,2022_Sep_05_0902,ProdSingRedoBetween,2021.2.3,59.96415343535271,
,,,,95,0,95,0,,,,,,,,,,,,,,,,,,,,,,1336.6962224000017,None,,,,,,,,,,,,,,,,,south,132,96,aloud,new,null,1322.0273443000042,None,1322.0273443000042,None,3,8.511322799953632,1322.0273443000042,None,8.511322799953632,1330.561665199988,None,1331.0776730999933,None,1331.0776730999933,None,r,5.588934600003995,1331.0776730999933,None,5.588934600003995,,,44Aloud,001,2022_Sep_05_0902,ProdSingRedoBetween,2021.2.3,59.96415343535271,
,,,,96,0,96,0,,,,,,,,,,,,,,,,,,,,,,1342.3184558000066,None,,,,,,,,,,,,,,,,,bucket,82,97,aloud,old,red,1337.2089373999625,None,1337.2089373999625,None,2,3.8016814999864437,1337.2089373999625,None,3.8016814999864437,1341.0382422999828,None,1341.559842699964,None,1341.559842699964,None,n,0.7387750999769196,1341.559842699964,None,0.7387750999769196,,,44Aloud,001,2022_Sep_05_0902,ProdSingRedoBetween,2021.2.3,59.96415343535271,
,,,,97,0,97,0,,,,,,,,,,,,,,,,,,,,,,1346.640292499971,None,,,,,,,,,,,,,,,,,smooth,113,98,aloud,new,null,1342.8322437999886,None,1342.8322437999886,None,4,2.642451899999287,1342.8322437999886,None,2.642451899999287,1345.5177827999578,None,1346.0295597999939,None,1346.0295597999939,None,r,0.581155400024727,1346.0295597999939,None,0.581155400024727,,,44Aloud,001,2022_Sep_05_0902,ProdSingRedoBetween,2021.2.3,59.96415343535271,
,,,,98,0,98,0,,,,,,,,,,,,,,,,,,,,,,1356.9663972999551,None,,,,,,,,,,,,,,,,,victory,118,99,aloud,new,null,1347.144703799975,None,1347.144703799975,None,3,8.16188449994661,1347.144703799975,None,8.16188449994661,1355.3329447999713,None,1355.8389596999623,None,1355.8389596999623,None,r,1.099638200015761,1355.8389596999623,None,1.099638200015761,,,44Aloud,001,2022_Sep_05_0902,ProdSingRedoBetween,2021.2.3,59.96415343535271,
,,,,99,0,99,0,,,,,,,,,,,,,,,,,,,,,,1362.1092085999553,None,,,,,,,,,,,,,,,,,close,84,100,aloud,old,red,1357.4798717999947,None,1357.4798717999947,None,6,2.842805899970699,1357.4798717999947,None,2.842805899970699,1360.3611702999915,None,1360.8719722999958,None,1360.8719722999958,None,r,1.210763400013093,1360.8719722999958,None,1.210763400013093,,,44Aloud,001,2022_Sep_05_0902,ProdSingRedoBetween,2021.2.3,59.96415343535271,
,,,,100,0,100,0,,,,,,,,,,,,,,,,,,,,,,1367.194409299991,None,,,,,,,,,,,,,,,,,fashion,94,101,aloud,new,null,1362.625911799958,None,1362.625911799958,None,2,2.1367380999727175,1362.625911799958,None,2.1367380999727175,1364.7937902999693,None,1365.3171676999773,None,1365.3171676999773,None,n,1.8614227999933064,1365.3171676999773,None,1.8614227999933064,,,44Aloud,001,2022_Sep_05_0902,ProdSingRedoBetween,2021.2.3,59.96415343535271,
,,,,101,0,101,0,,,,,,,,,,,,,,,,,,,,,,1372.4151996999863,None,,,,,,,,,,,,,,,,,health,61,102,aloud,old,red,1367.6967592999572,None,1367.6967592999572,None,2,2.6579310999950394,1367.6967592999572,None,2.6579310999950394,1370.3844659999595,None,1370.8998174999724,None,1370.8998174999724,None,n,1.4868468000204302,1370.8998174999724,None,1.4868468000204302,,,44Aloud,001,2022_Sep_05_0902,ProdSingRedoBetween,2021.2.3,59.96415343535271,
,,,,102,0,102,0,,,,,,,,,,,,,,,,,,,,,,1377.6370070999837,None,,,,,,,,,,,,,,,,,dance,110,103,aloud,new,null,1372.927878699964,None,1372.927878699964,None,3,2.6027295000385493,1372.927878699964,None,2.6027295000385493,1375.5549310999922,None,1376.0690931999707,None,1376.0690931999707,None,n,1.5416742999805138,1376.0690931999707,None,1.5416742999805138,,,44Aloud,001,2022_Sep_05_0902,ProdSingRedoBetween,2021.2.3,59.96415343535271,
,,,,103,0,103,0,,,,,,,,,,,,,,,,,,,,,,1402.5786001999513,None,,,,,,,,,,,,,,,,,plane,21,104,aloud,old,yellow,1378.151621899975,None,1378.151621899975,None,3,14.35507069999585,1378.151621899975,None,14.35507069999585,1392.5374273000052,None,1393.0629851999693,None,1393.0629851999693,None,r,9.491704699990805,1393.0629851999693,None,9.491704699990805,,,44Aloud,001,2022_Sep_05_0902,ProdSingRedoBetween,2021.2.3,59.96415343535271,
,,,,104,0,104,0,,,,,,,,,,,,,,,,,,,,,,1406.6337652999791,None,,,,,,,,,,,,,,,,,charter,147,105,aloud,new,null,1403.0910664999974,None,1403.0910664999974,None,1,2.5675755999982357,1403.0910664999974,None,2.5675755999982357,1405.6849427999696,None,1406.2084008999518,None,1406.2084008999518,None,n,0.39442540000891313,1406.2084008999518,None,0.39442540000891313,,,44Aloud,001,2022_Sep_05_0902,ProdSingRedoBetween,2021.2.3,59.96415343535271,
,,,,105,0,105,0,,,,,,,,,,,,,,,,,,,,,,1411.4875711000059,None,,,,,,,,,,,,,,,,,produce,98,106,aloud,new,null,1407.1387575999834,None,1407.1387575999834,None,1,2.5199333999771625,1407.1387575999834,None,2.5199333999771625,1409.6922613999923,None,1410.203127799963,None,1410.203127799963,None,n,1.263472999969963,1410.203127799963,None,1.263472999969963,,,44Aloud,001,2022_Sep_05_0902,ProdSingRedoBetween,2021.2.3,59.96415343535271,
,,,,106,0,106,0,,,,,,,,,,,,,,,,,,,,,,1417.9953687000088,None,,,,,,,,,,,,,,,,,level,155,107,aloud,new,null,1411.999287499988,None,1411.999287499988,None,1,4.499429700023029,1411.999287499988,None,4.499429700023029,1416.534177499998,None,1417.0463981999783,None,1417.0463981999783,None,n,0.9322713000001386,1417.0463981999783,None,0.9322713000001386,,,44Aloud,001,2022_Sep_05_0902,ProdSingRedoBetween,2021.2.3,59.96415343535271,
,,,,107,0,107,0,,,,,,,,,,,,,,,,,,,,,,1422.5013907999964,None,,,,,,,,,,,,,,,,,death,142,108,aloud,new,null,1418.4985958999605,None,1418.4985958999605,None,3,2.6002269000164233,1418.4985958999605,None,2.6002269000164233,1421.1224195999675,None,1421.6313328999677,None,1421.6313328999677,None,n,0.8433797999750823,1421.6313328999677,None,0.8433797999750823,,,44Aloud,001,2022_Sep_05_0902,ProdSingRedoBetween,2021.2.3,59.96415343535271,
,,,,108,0,108,0,,,,,,,,,,,,,,,,,,,,,,1431.5576299999957,None,,,,,,,,,,,,,,,,,republic,179,109,aloud,new,null,1423.020704799972,None,1423.020704799972,None,3,7.389961200009566,1423.020704799972,None,7.389961200009566,1430.442928000004,None,1430.9594348999672,None,1430.9594348999672,None,r,0.571126299968455,1430.9594348999672,None,0.571126299968455,,,44Aloud,001,2022_Sep_05_0902,ProdSingRedoBetween,2021.2.3,59.96415343535271,
,,,,109,0,109,0,,,,,,,,,,,,,,,,,,,,,,1441.1338591999956,None,,,,,,,,,,,,,,,,,stranger,39,110,aloud,old,blue,1432.0697799999616,None,1432.0697799999616,None,3,7.02081299998099,1432.0697799999616,None,7.02081299998099,1439.1163012000034,None,1439.6202034999733,None,1439.6202034999733,None,n,1.4863220999832265,1439.6202034999733,None,1.4863220999832265,,,44Aloud,001,2022_Sep_05_0902,ProdSingRedoBetween,2021.2.3,59.96415343535271,
,,,,110,0,110,0,,,,,,,,,,,,,,,,,,,,,,1448.2075922999647,None,,,,,,,,,,,,,,,,,motion,146,111,aloud,new,null,1441.64349399996,None,1441.64349399996,None,5,5.27108129998669,1441.64349399996,None,5.27108129998669,1446.9395467999857,None,1447.4457399999956,None,1447.4457399999956,None,r,0.7329220999963582,1447.4457399999956,None,0.7329220999963582,,,44Aloud,001,2022_Sep_05_0902,ProdSingRedoBetween,2021.2.3,59.96415343535271,
,,,,111,0,111,0,,,,,,,,,,,,,,,,,,,,,,1450.9602371999645,None,,,,,,,,,,,,,,,,,medicine,124,112,aloud,new,null,1448.718247599958,None,1448.718247599958,None,2,1.308574300026521,1448.718247599958,None,1.308574300026521,1450.0490512999822,None,1450.5599901999813,None,1450.5599901999813,None,n,0.37873339996440336,1450.5599901999813,None,0.37873339996440336,,,44Aloud,001,2022_Sep_05_0902,ProdSingRedoBetween,2021.2.3,59.96415343535271,
,,,,112,0,112,0,,,,,,,,,,,,,,,,,,,,,,1455.1979295999627,None,,,,,,,,,,,,,,,,,display,23,113,aloud,old,yellow,1451.469276799995,None,1451.469276799995,None,5,2.4053428000188433,1451.469276799995,None,2.4053428000188433,1453.9002248999896,None,1454.417824700009,None,1454.417824700009,None,r,0.7607875000103377,1454.417824700009,None,0.7607875000103377,,,44Aloud,001,2022_Sep_05_0902,ProdSingRedoBetween,2021.2.3,59.96415343535271,
,,,,113,0,113,0,,,,,,,,,,,,,,,,,,,,,,1467.6122855999856,None,,,,,,,,,,,,,,,,,committee,112,114,aloud,new,null,1455.7095457999967,None,1455.7095457999967,None,2,4.709086199989542,1455.7095457999967,None,4.709086199989542,1460.4460677999887,None,1460.9538532999577,None,1460.9538532999577,None,f,6.632776200014632,1460.9538532999577,None,6.632776200014632,,,44Aloud,001,2022_Sep_05_0902,ProdSingRedoBetween,2021.2.3,59.96415343535271,
,,,,114,0,114,0,,,,,,,,,,,,,,,,,,,,,,1477.4033185999724,None,,,,,,,,,,,,,,,,,comedy,42,115,aloud,old,blue,1468.1365141999559,None,1468.1365141999559,None,5,6.2901520999730565,1468.1365141999559,None,6.2901520999730565,1474.4586004999583,None,1474.971128999954,None,1474.971128999954,None,r,2.4075192000018433,1474.971128999954,None,2.4075192000018433,,,44Aloud,001,2022_Sep_05_0902,ProdSingRedoBetween,2021.2.3,59.96415343535271,
,,,,115,0,115,0,,,,,,,,,,,,,,,,,,,,,,1495.9052502999548,None,,,,,,,,,,,,,,,,,light,41,116,aloud,old,blue,1477.915253299987,None,1477.915253299987,None,5,8.391480499994941,1477.915253299987,None,8.391480499994941,1486.3382815999794,None,1486.846337999974,None,1486.846337999974,None,f,9.028293399955146,1486.846337999974,None,9.028293399955146,,,44Aloud,001,2022_Sep_05_0902,ProdSingRedoBetween,2021.2.3,59.96415343535271,
,,,,116,0,116,0,,,,,,,,,,,,,,,,,,,,,,1499.581111699983,None,,,,,,,,,,,,,,,,,military,9,117,aloud,old,yellow,1496.4190746999811,None,1496.4190746999811,None,2,1.8155971000087447,1496.4190746999811,None,1.8155971000087447,1498.2631804999546,None,1498.7767353999661,None,1498.7767353999661,None,n,0.7701552999787964,1498.7767353999661,None,0.7701552999787964,,,44Aloud,001,2022_Sep_05_0902,ProdSingRedoBetween,2021.2.3,59.96415343535271,
,,,,117,0,117,0,,,,,,,,,,,,,,,,,,,,,,1504.497163699998,None,,,,,,,,,,,,,,,,,bureau,169,118,aloud,new,null,1500.1056554999668,None,1500.1056554999668,None,1,1.6490096999914385,1500.1056554999668,None,1.6490096999914385,1501.7834984000074,None,1502.2951115999604,None,1502.2951115999604,None,n,2.1715587999788113,1502.2951115999604,None,2.1715587999788113,,,44Aloud,001,2022_Sep_05_0902,ProdSingRedoBetween,2021.2.3,59.96415343535271,
,,,,118,0,118,0,,,,,,,,,,,,,,,,,,,,,,1514.3747800999554,None,,,,,,,,,,,,,,,,,working,72,119,aloud,old,red,1505.0118223999743,None,1505.0118223999743,None,3,6.518998100014869,1505.0118223999743,None,6.518998100014869,1511.5693489999976,None,1512.080775999988,None,1512.080775999988,None,r,2.273890999960713,1512.080775999988,None,2.273890999960713,,,44Aloud,001,2022_Sep_05_0902,ProdSingRedoBetween,2021.2.3,59.96415343535271,
,,,,119,0,119,0,,,,,,,,,,,,,,,,,,,,,,1523.1331847999827,None,,,,,,,,,,,,,,,,,angle,115,120,aloud,new,null,1514.8786394000053,None,1514.8786394000053,None,3,5.19602939998731,1514.8786394000053,None,5.19602939998731,1520.100665099977,None,1520.6134932999848,None,1520.6134932999848,None,r,2.4931701000314206,1520.6134932999848,None,2.4931701000314206,,,44Aloud,001,2022_Sep_05_0902,ProdSingRedoBetween,2021.2.3,59.96415343535271,
,,,,120,0,120,0,,,,,,,,,,,,,,,,,,,,,,1536.7485396999982,None,,,,,,,,,,,,,,,,,travel,90,121,aloud,new,null,1523.6541659999639,None,1523.6541659999639,None,5,12.036511300015263,1523.6541659999639,None,12.036511300015263,1535.7192008999991,None,1536.2289909999818,None,1536.2289909999818,None,r,0.4937950000166893,1536.2289909999818,None,0.4937950000166893,,,44Aloud,001,2022_Sep_05_0902,ProdSingRedoBetween,2021.2.3,59.96415343535271,
,,,,121,0,121,0,,,,,,,,,,,,,,,,,,,,,,1540.5832048999728,None,,,,,,,,,,,,,,,,,individual,33,122,aloud,old,blue,1537.2683913999936,None,1537.2683913999936,None,5,2.326348200032953,1537.2683913999936,None,2.326348200032953,1539.6233315999852,None,1540.1342782999855,None,1540.1342782999855,None,r,0.4283092999830842,1540.1342782999855,None,0.4283092999830842,,,44Aloud,001,2022_Sep_05_0902,ProdSingRedoBetween,2021.2.3,59.96415343535271,
,,,,122,0,122,0,,,,,,,,,,,,,,,,,,,,,,1544.5204329999979,None,,,,,,,,,,,,,,,,,harmony,165,123,aloud,new,null,1541.0926053999574,None,1541.0926053999574,None,2,1.6540688999812119,1541.0926053999574,None,1.6540688999812119,1542.7745636999607,None,1543.286071199982,None,1543.286071199982,None,n,1.2126001000287943,1543.286071199982,None,1.2126001000287943,,,44Aloud,001,2022_Sep_05_0902,ProdSingRedoBetween,2021.2.3,59.96415343535271,
,,,,123,0,123,0,,,,,,,,,,,,,,,,,,,,,,1547.8071003999794,None,,,,,,,,,,,,,,,,,congress,107,124,aloud,new,null,1545.0242652999586,None,1545.0242652999586,None,2,1.6503918999806046,1545.0242652999586,None,1.6503918999806046,1546.7116827999707,None,1547.2287095999927,None,1547.2287095999927,None,n,0.5499489000067115,1547.2287095999927,None,0.5499489000067115,,,44Aloud,001,2022_Sep_05_0902,ProdSingRedoBetween,2021.2.3,59.96415343535271,
,,,,124,0,124,0,,,,,,,,,,,,,,,,,,,,,,1559.271050099982,None,,,,,,,,,,,,,,,,,notice,156,125,aloud,new,null,1548.318779299967,None,1548.318779299967,None,5,8.131888400006574,1548.318779299967,None,8.131888400006574,1556.4688919999753,None,1556.9830501999822,None,1556.9830501999822,None,r,2.2597846999997273,1556.9830501999822,None,2.2597846999997273,,,44Aloud,001,2022_Sep_05_0902,ProdSingRedoBetween,2021.2.3,59.96415343535271,
,,,,125,0,125,0,,,,,,,,,,,,,,,,,,,,,,1568.080849699967,None,,,,,,,,,,,,,,,,,signal,46,126,aloud,old,blue,1559.797217299987,None,1559.797217299987,None,4,6.11740499996813,1559.797217299987,None,6.11740499996813,1565.9451139000012,None,1566.4633674999932,None,1566.4633674999932,None,r,1.5874186000437476,1566.4633674999932,None,1.5874186000437476,,,44Aloud,001,2022_Sep_05_0902,ProdSingRedoBetween,2021.2.3,59.96415343535271,
,,,,126,0,126,0,,,,,,,,,,,,,,,,,,,,,,1571.965384799987,None,,,,,,,,,,,,,,,,,minor,30,127,aloud,old,blue,1568.6009165999712,None,1568.6009165999712,None,6,1.9298545999918133,1568.6009165999712,None,1.9298545999918133,1570.553116199968,None,1571.0638240999542,None,1571.0638240999542,None,r,0.8748852999997325,1571.0638240999542,None,0.8748852999997325,,,44Aloud,001,2022_Sep_05_0902,ProdSingRedoBetween,2021.2.3,59.96415343535271,
,,,,127,0,127,0,,,,,,,,,,,,,,,,,,,,,,1575.401141499984,None,,,,,,,,,,,,,,,,,atmosphere,88,128,aloud,old,red,1572.4706211999874,None,1572.4706211999874,None,6,1.8521808000514284,1572.4706211999874,None,1.8521808000514284,1574.3609098999877,None,1574.870590000006,None,1574.870590000006,None,r,0.5000600999919698,1574.870590000006,None,0.5000600999919698,,,44Aloud,001,2022_Sep_05_0902,ProdSingRedoBetween,2021.2.3,59.96415343535271,
,,,,128,0,128,0,,,,,,,,,,,,,,,,,,,,,,1586.9962527999887,None,,,,,,,,,,,,,,,,,career,152,129,aloud,new,null,1575.9136037999997,None,1575.9136037999997,None,2,1.5370304000098258,1575.9136037999997,None,1.5370304000098258,1577.473180699977,None,1577.98899719998,None,1577.98899719998,None,n,8.981558699975722,1577.98899719998,None,8.981558699975722,,,44Aloud,001,2022_Sep_05_0902,ProdSingRedoBetween,2021.2.3,59.96415343535271,
,,,,129,0,129,0,,,,,,,,,,,,,,,,,,,,,,1595.171109399991,None,,,,,,,,,,,,,,,,,company,22,130,aloud,old,yellow,1587.506055500009,None,1587.506055500009,None,3,3.1286899000406265,1587.506055500009,None,3.1286899000406265,1590.659884499968,None,1591.1762495999574,None,1591.1762495999574,None,n,3.9703843999886885,1591.1762495999574,None,3.9703843999886885,,,44Aloud,001,2022_Sep_05_0902,ProdSingRedoBetween,2021.2.3,59.96415343535271,
,,,,130,0,130,0,,,,,,,,,,,,,,,,,,,,,,1599.8091044999892,None,,,,,,,,,,,,,,,,,dream,96,131,aloud,new,null,1595.6833343000035,None,1595.6833343000035,None,3,2.575303999998141,1595.6833343000035,None,2.575303999998141,1598.2772231999552,None,1598.7971305999672,None,1598.7971305999672,None,n,0.9814826999790967,1598.7971305999672,None,0.9814826999790967,,,44Aloud,001,2022_Sep_05_0902,ProdSingRedoBetween,2021.2.3,59.96415343535271,
,,,,131,0,131,0,,,,,,,,,,,,,,,,,,,,,,1604.9141003999976,None,,,,,,,,,,,,,,,,,fight,162,132,aloud,new,null,1600.3251288000029,None,1600.3251288000029,None,3,3.2214839999796823,1600.3251288000029,None,3.2214839999796823,1603.5666035999893,None,1604.080140599981,None,1604.080140599981,None,n,0.8105248000356369,1604.080140599981,None,0.8105248000356369,,,44Aloud,001,2022_Sep_05_0902,ProdSingRedoBetween,2021.2.3,59.96415343535271,
,,,,132,0,132,0,,,,,,,,,,,,,,,,,,,,,,1609.985851000005,None,,,,,,,,,,,,,,,,,meeting,67,133,aloud,old,red,1605.4292561999755,None,1605.4292561999755,None,4,2.365396299981512,1605.4292561999755,None,2.365396299981512,1607.8214316999656,None,1608.341498499969,None,1608.341498499969,None,r,1.6291321000317112,1608.341498499969,None,1.6291321000317112,,,44Aloud,001,2022_Sep_05_0902,ProdSingRedoBetween,2021.2.3,59.96415343535271,
,,,,133,0,133,0,,,,,,,,,,,,,,,,,,,,,,1613.6228432999924,None,,,,,,,,,,,,,,,,,patient,64,134,aloud,old,red,1610.5044889999554,None,1610.5044889999554,None,6,2.034283699991647,1610.5044889999554,None,2.034283699991647,1612.5620371999685,None,1613.0724427999812,None,1613.0724427999812,None,r,0.5302237000432797,1613.0724427999812,None,0.5302237000432797,,,44Aloud,001,2022_Sep_05_0902,ProdSingRedoBetween,2021.2.3,59.96415343535271,
,,,,134,0,134,0,,,,,,,,,,,,,,,,,,,,,,1627.1234409000026,None,,,,,,,,,,,,,,,,,rapid,55,135,aloud,old,blue,1614.13838259998,None,1614.13838259998,None,4,4.328113899973687,1614.13838259998,None,4.328113899973687,1618.5006741999532,None,1619.0117727000033,None,1619.0117727000033,None,n,8.086999299994204,1619.0117727000033,None,8.086999299994204,,,44Aloud,001,2022_Sep_05_0902,ProdSingRedoBetween,2021.2.3,59.96415343535271,
,,,,135,0,135,0,,,,,,,,,,,,,,,,,,,,,,1634.1934179999516,None,,,,,,,,,,,,,,,,,phrase,151,136,aloud,new,null,1627.6401966999983,None,1627.6401966999983,None,4,4.202466599992476,1627.6401966999983,None,4.202466599992476,1631.859224899963,None,1632.358407099964,None,1632.358407099964,None,r,1.8121967000188306,1632.358407099964,None,1.8121967000188306,,,44Aloud,001,2022_Sep_05_0902,ProdSingRedoBetween,2021.2.3,59.96415343535271,
,,,,136,0,136,0,,,,,,,,,,,,,,,,,,,,,,1649.7100051000016,None,,,,,,,,,,,,,,,,,skill,6,137,aloud,old,yellow,1634.7077783999848,None,1634.7077783999848,None,3,3.830784499994479,1634.7077783999848,None,3.830784499994479,1638.5659912999836,None,1639.0854689999833,None,1639.0854689999833,None,f,10.59704269998474,1639.0854689999833,None,10.59704269998474,,,44Aloud,001,2022_Sep_05_0902,ProdSingRedoBetween,2021.2.3,59.96415343535271,
,,,,137,0,137,0,,,,,,,,,,,,,,,,,,,,,,1653.2956777999643,None,,,,,,,,,,,,,,,,,goose,32,138,aloud,old,blue,1650.2121332999668,None,1650.2121332999668,None,6,1.9824971000198275,1650.2121332999668,None,1.9824971000198275,1652.2112729999935,None,1652.7119459999958,None,1652.7119459999958,None,r,0.5545600000186823,1652.7119459999958,None,0.5545600000186823,,,44Aloud,001,2022_Sep_05_0902,ProdSingRedoBetween,2021.2.3,59.96415343535271,
,,,,138,0,138,0,,,,,,,,,,,,,,,,,,,,,,1657.766937599983,None,,,,,,,,,,,,,,,,,engineer,111,139,aloud,new,null,1653.7978475999553,None,1653.7978475999553,None,2,1.6446713999612257,1653.7978475999553,None,1.6446713999612257,1655.4645913999993,None,1655.9689437999623,None,1655.9689437999623,None,n,1.7696939000161365,1655.9689437999623,None,1.7696939000161365,,,44Aloud,001,2022_Sep_05_0902,ProdSingRedoBetween,2021.2.3,59.96415343535271,
,,,,139,0,139,0,,,,,,,,,,,,,,,,,,,,,,1679.5053556999774,None,,,,,,,,,,,,,,,,,bitter,15,140,aloud,old,yellow,1658.2735846999567,None,1658.2735846999567,None,3,5.985073700023349,1658.2735846999567,None,5.985073700023349,1664.2733725999715,None,1664.7740510999574,None,1664.7740510999574,None,r,14.71655540005304,1664.7740510999574,None,14.71655540005304,,,44Aloud,001,2022_Sep_05_0902,ProdSingRedoBetween,2021.2.3,59.96415343535271,
,,,,140,0,140,0,,,,,,,,,,,,,,,,,,,,,,1695.3211940999608,None,,,,,,,,,,,,,,,,,space,7,141,aloud,old,yellow,1680.0115838999627,None,1680.0115838999627,None,5,14.327021799981594,1680.0115838999627,None,14.327021799981594,1694.354633799987,None,1694.8569633999723,None,1694.8569633999723,None,r,0.44182100001489744,1694.8569633999723,None,0.44182100001489744,,,44Aloud,001,2022_Sep_05_0902,ProdSingRedoBetween,2021.2.3,59.96415343535271,
,,,,141,0,141,0,,,,,,,,,,,,,,,,,,,,,,1698.9747744000051,None,,,,,,,,,,,,,,,,,permit,100,142,aloud,new,null,1695.8217487999937,None,1695.8217487999937,None,3,1.90898730000481,1695.8217487999937,None,1.90898730000481,1697.7662471999647,None,1698.2767338999547,None,1698.2767338999547,None,r,0.6779018000233918,1698.2767338999547,None,0.6779018000233918,,,44Aloud,001,2022_Sep_05_0902,ProdSingRedoBetween,2021.2.3,59.96415343535271,
,,,,142,0,142,0,,,,,,,,,,,,,,,,,,,,,,1702.611727599986,None,,,,,,,,,,,,,,,,,interior,75,143,aloud,old,red,1699.4854422999779,None,1699.4854422999779,None,6,1.9970835999702103,1699.4854422999779,None,1.9970835999702103,1701.511233599973,None,1702.0134036999661,None,1702.0134036999661,None,r,0.5812516000005417,1702.0134036999661,None,0.5812516000005417,,,44Aloud,001,2022_Sep_05_0902,ProdSingRedoBetween,2021.2.3,59.96415343535271,
,,,,143,0,143,0,,,,,,,,,,,,,,,,,,,,,,1712.0377640000079,None,,,,,,,,,,,,,,,,,heavy,57,144,aloud,old,blue,1703.1210563000059,None,1703.1210563000059,None,3,2.4735875999904238,1703.1210563000059,None,2.4735875999904238,1705.6162745999754,None,1706.1204166999669,None,1706.1204166999669,None,f,5.8901472999714315,1706.1204166999669,None,5.8901472999714315,,,44Aloud,001,2022_Sep_05_0902,ProdSingRedoBetween,2021.2.3,59.96415343535271,
,,,,144,0,144,0,,,,,,,,,,,,,,,,,,,,,,1717.0260961999884,None,,,,,,,,,,,,,,,,,curve,92,145,aloud,new,null,1712.546160799975,None,1712.546160799975,None,3,3.60042999999132,1712.546160799975,None,3.60042999999132,1716.1752312000026,None,1716.6835741999676,None,1716.6835741999676,None,n,0.3190722000435926,1716.6835741999676,None,0.3190722000435926,,,44Aloud,001,2022_Sep_05_0902,ProdSingRedoBetween,2021.2.3,59.96415343535271,
,,,,145,0,145,0,,,,,,,,,,,,,,,,,,,,,,1721.8808740999666,None,,,,,,,,,,,,,,,,,beauty,54,146,aloud,old,blue,1717.526674099965,None,1717.526674099965,None,6,2.908227599982638,1717.526674099965,None,2.908227599982638,1720.4692372999853,None,1720.9803352999734,None,1720.9803352999734,None,r,0.8701808000332676,1720.9803352999734,None,0.8701808000332676,,,44Aloud,001,2022_Sep_05_0902,ProdSingRedoBetween,2021.2.3,59.96415343535271,
,,,,146,0,146,0,,,,,,,,,,,,,,,,,,,,,,1731.2235137999523,None,,,,,,,,,,,,,,,,,tough,172,147,aloud,new,null,1722.3918280999642,None,1722.3918280999642,None,3,2.2348351000109687,1722.3918280999642,None,2.2348351000109687,1724.6503702999908,None,1725.1571002999553,None,1725.1571002999553,None,r,6.045465899980627,1725.1571002999553,None,6.045465899980627,,,44Aloud,001,2022_Sep_05_0902,ProdSingRedoBetween,2021.2.3,59.96415343535271,
,,,,147,0,147,0,,,,,,,,,,,,,,,,,,,,,,1738.5501989999902,None,,,,,,,,,,,,,,,,,instrument,149,148,aloud,new,null,1731.7385061999667,None,1731.7385061999667,None,2,4.984139600011986,1731.7385061999667,None,4.984139600011986,1736.7469620999764,None,1737.2518442999572,None,1737.2518442999572,None,n,1.2788418999989517,1737.2518442999572,None,1.2788418999989517,,,44Aloud,001,2022_Sep_05_0902,ProdSingRedoBetween,2021.2.3,59.96415343535271,
,,,,148,0,148,0,,,,,,,,,,,,,,,,,,,,,,1741.5017259999877,None,,,,,,,,,,,,,,,,,count,126,149,aloud,new,null,1739.0690945999813,None,1739.0690945999813,None,2,1.5575821999809705,1739.0690945999813,None,1.5575821999809705,1740.6546450000023,None,1741.1739333999576,None,1741.1739333999576,None,n,0.3007309999666177,1741.1739333999576,None,0.3007309999666177,,,44Aloud,001,2022_Sep_05_0902,ProdSingRedoBetween,2021.2.3,59.96415343535271,
,,,,149,0,149,0,,,,,,,,,,,,,,,,,,,,,,1753.629253299965,None,,,,,,,,,,,,,,,,,suggestion,78,150,aloud,old,red,1742.0129086999805,None,1742.0129086999805,None,5,2.269860400003381,1742.0129086999805,None,2.269860400003381,1744.3140222000075,None,1744.8245629000012,None,1744.8245629000012,None,r,8.777962499996647,1744.8245629000012,None,8.777962499996647,,,44Aloud,001,2022_Sep_05_0902,ProdSingRedoBetween,2021.2.3,59.96415343535271,
,,,,150,0,150,0,,,,,,,,,,,,,,,,,,,,,,1758.1839508999838,None,,,,,,,,,,,,,,,,,relation,129,151,aloud,new,null,1754.141032799962,None,1754.141032799962,None,2,2.1335908999899402,1754.141032799962,None,2.1335908999899402,1756.2996117000002,None,1756.8013406999526,None,1756.8013406999526,None,n,1.353309900034219,1756.8013406999526,None,1.353309900034219,,,44Aloud,001,2022_Sep_05_0902,ProdSingRedoBetween,2021.2.3,59.96415343535271,
,,,,151,0,151,0,,,,,,,,,,,,,,,,,,,,,,1761.6375481999712,None,,,,,,,,,,,,,,,,,debate,80,152,aloud,old,red,1758.6903965999954,None,1758.6903965999954,None,4,1.6802992000011727,1758.6903965999954,None,1.6802992000011727,1760.386174299987,None,1760.8891246999847,None,1760.8891246999847,None,r,0.7294003999559209,1760.8891246999847,None,0.7294003999559209,,,44Aloud,001,2022_Sep_05_0902,ProdSingRedoBetween,2021.2.3,59.96415343535271,
,,,,152,0,152,0,,,,,,,,,,,,,,,,,,,,,,1764.5235906000016,None,,,,,,,,,,,,,,,,,suspect,12,153,aloud,old,yellow,1762.1463131000055,None,1762.1463131000055,None,5,1.5844094000058249,1762.1463131000055,None,1.5844094000058249,1763.7635821999866,None,1764.2808203999884,None,1764.2808203999884,None,r,0.2178062000311911,1764.2808203999884,None,0.2178062000311911,,,44Aloud,001,2022_Sep_05_0902,ProdSingRedoBetween,2021.2.3,59.96415343535271,
,,,,153,0,153,0,,,,,,,,,,,,,,,,,,,,,,1768.3607626999728,None,,,,,,,,,,,,,,,,,point,51,154,aloud,old,blue,1765.0312090999796,None,1765.0312090999796,None,3,2.595447100000456,1765.0312090999796,None,2.595447100000456,1767.6446873999666,None,1768.152598799963,None,1768.152598799963,None,n,0.18604329996742308,1768.152598799963,None,0.18604329996742308,,,44Aloud,001,2022_Sep_05_0902,ProdSingRedoBetween,2021.2.3,59.96415343535271,
,,,,154,0,154,0,,,,,,,,,,,,,,,,,,,,,,1771.1135438999627,None,,,,,,,,,,,,,,,,,worker,45,155,aloud,old,blue,1768.8772440999746,None,1768.8772440999746,None,3,1.3814342000405304,1768.8772440999746,None,1.3814342000405304,1770.2793463999988,None,1770.7800689999713,None,1770.7800689999713,None,n,0.3185975000378676,1770.7800689999713,None,0.3185975000378676,,,44Aloud,001,2022_Sep_05_0902,ProdSingRedoBetween,2021.2.3,59.96415343535271,
,,,,155,0,155,0,,,,,,,,,,,,,,,,,,,,,,1781.0067292999593,None,,,,,,,,,,,,,,,,,shock,133,156,aloud,new,null,1771.6194932999788,None,1771.6194932999788,None,4,8.095325199945364,1771.6194932999788,None,8.095325199945364,1779.747583999997,None,1780.2596363999764,None,1780.2596363999764,None,r,0.7190589000238106,1780.2596363999764,None,0.7190589000238106,,,44Aloud,001,2022_Sep_05_0902,ProdSingRedoBetween,2021.2.3,59.96415343535271,
,,,,156,0,156,0,,,,,,,,,,,,,,,,,,,,,,1783.6260626000003,None,,,,,,,,,,,,,,,,,exchange,114,157,aloud,new,null,1781.514788499975,None,1781.514788499975,None,2,1.4399944999604486,1781.514788499975,None,1.4399944999604486,1782.9834024999873,None,1783.4958226999734,None,1783.4958226999734,None,n,0.11491479998221621,1783.4958226999734,None,0.11491479998221621,,,44Aloud,001,2022_Sep_05_0902,ProdSingRedoBetween,2021.2.3,59.96415343535271,
,,,,157,0,157,0,,,,,,,,,,,,,,,,,,,,,,1787.9841574999737,None,,,,,,,,,,,,,,,,,stand,83,158,aloud,old,red,1784.1394580999622,None,1784.1394580999622,None,3,2.0634157999884337,1784.1394580999622,None,2.0634157999884337,1786.2286160999793,None,1786.7293102999683,None,1786.7293102999683,None,n,1.233483600022737,1786.7293102999683,None,1.233483600022737,,,44Aloud,001,2022_Sep_05_0902,ProdSingRedoBetween,2021.2.3,59.96415343535271,
,,,,158,0,158,0,,,,,,,,,,,,,,,,,,,,,,1794.7204358999734,None,,,,,,,,,,,,,,,,,owner,158,159,aloud,new,null,1788.5085898999823,None,1788.5085898999823,None,3,3.006154799950309,1788.5085898999823,None,3.006154799950309,1791.5431077999528,None,1792.0529668999952,None,1792.0529668999952,None,n,2.645638999994844,1792.0529668999952,None,2.645638999994844,,,44Aloud,001,2022_Sep_05_0902,ProdSingRedoBetween,2021.2.3,59.96415343535271,
,,,,159,0,159,0,,,,,,,,,,,,,,,,,,,,,,1798.5574553000042,None,,,,,,,,,,,,,,,,,danger,86,160,aloud,old,red,1795.2319011999643,None,1795.2319011999643,None,6,1.706743600021582,1795.2319011999643,None,1.706743600021582,1796.9560170999612,None,1797.4604140999727,None,1797.4604140999727,None,r,1.0701741999946535,1797.4604140999727,None,1.0701741999946535,,,44Aloud,001,2022_Sep_05_0902,ProdSingRedoBetween,2021.2.3,59.96415343535271,
,,,,160,0,160,0,,,,,,,,,,,,,,,,,,,,,,1807.3830887000076,None,,,,,,,,,,,,,,,,,background,17,161,aloud,old,yellow,1799.071366899996,None,1799.071366899996,None,5,7.73931699997047,1799.071366899996,None,7.73931699997047,1806.8357883999706,None,1807.350910899986,None,1807.350910899986,None,r,0.0038526999996975064,1807.350910899986,None,0.0038526999996975064,,,44Aloud,001,2022_Sep_05_0902,ProdSingRedoBetween,2021.2.3,59.96415343535271,
,,,,161,0,161,0,,,,,,,,,,,,,,,,,,,,,,1814.0230442999746,None,,,,,,,,,,,,,,,,,sight,35,162,aloud,old,blue,1807.891092500009,None,1807.891092500009,None,3,2.295655500027351,1807.891092500009,None,2.295655500027351,1810.21295929997,None,1810.7199420999968,None,1810.7199420999968,None,r,3.282723199983593,1810.7199420999968,None,3.282723199983593,,,44Aloud,001,2022_Sep_05_0902,ProdSingRedoBetween,2021.2.3,59.96415343535271,
,,,,162,0,162,0,,,,,,,,,,,,,,,,,,,,,,1818.8278300999664,None,,,,,,,,,,,,,,,,,session,140,163,aloud,new,null,1814.523766600003,None,1814.523766600003,None,4,3.030911699985154,1814.523766600003,None,3.030911699985154,1817.5777399999788,None,1818.0812414999818,None,1818.0812414999818,None,r,0.7293828999972902,1818.0812414999818,None,0.7293828999972902,,,44Aloud,001,2022_Sep_05_0902,ProdSingRedoBetween,2021.2.3,59.96415343535271,
,,,,163,0,163,0,,,,,,,,,,,,,,,,,,,,,,1822.348039400007,None,,,,,,,,,,,,,,,,,majority,73,164,aloud,old,red,1819.3420604999992,None,1819.3420604999992,None,5,2.1485937999677844,1819.3420604999992,None,2.1485937999677844,1821.5153658000054,None,1822.0240973999607,None,1822.0240973999607,None,r,0.3064553000149317,1822.0240973999607,None,0.3064553000149317,,,44Aloud,001,2022_Sep_05_0902,ProdSingRedoBetween,2021.2.3,59.96415343535271,
,,,,164,0,164,0,,,,,,,,,,,,,,,,,,,,,,1832.5415118999663,None,,,,,,,,,,,,,,,,,season,170,165,aloud,new,null,1822.8601519999793,None,1822.8601519999793,None,3,7.846460300032049,1822.8601519999793,None,7.846460300032049,1830.72299499996,None,1831.223796599952,None,1831.223796599952,None,r,1.298798599978909,1831.223796599952,None,1.298798599978909,,,44Aloud,001,2022_Sep_05_0902,ProdSingRedoBetween,2021.2.3,59.96415343535271,
,,,,165,0,165,0,,,,,,,,,,,,,,,,,,,,,,1841.7689677999588,None,,,,,,,,,,,,,,,,,finish,11,166,aloud,old,yellow,1833.0420303999563,None,1833.0420303999563,None,3,4.456817900005262,1833.0420303999563,None,4.456817900005262,1837.5307958999765,None,1838.0366888999706,None,1838.0366888999706,None,r,3.7100648000487126,1838.0366888999706,None,3.7100648000487126,,,44Aloud,001,2022_Sep_05_0902,ProdSingRedoBetween,2021.2.3,59.96415343535271,
,,,,166,0,166,0,,,,,,,,,,,,,,,,,,,,,,1847.423070299963,None,,,,,,,,,,,,,,,,,afternoon,159,167,aloud,new,null,1842.2768471000018,None,1842.2768471000018,None,3,3.669778299983591,1842.2768471000018,None,3.669778299983591,1845.9726873000036,None,1846.4758462999598,None,1846.4758462999598,None,n,0.9188157999888062,1846.4758462999598,None,0.9188157999888062,,,44Aloud,001,2022_Sep_05_0902,ProdSingRedoBetween,2021.2.3,59.96415343535271,
,,,,167,0,167,0,,,,,,,,,,,,,,,,,,,,,,1851.0603946999763,None,,,,,,,,,,,,,,,,,judge,130,168,aloud,new,null,1847.928295699996,None,1847.928295699996,None,4,2.394556700019166,1847.928295699996,None,2.394556700019166,1850.3525786999962,None,1850.8600731999613,None,1850.8600731999613,None,r,0.174514000013005,1850.8600731999613,None,0.174514000013005,,,44Aloud,001,2022_Sep_05_0902,ProdSingRedoBetween,2021.2.3,59.96415343535271,
,,,,168,0,168,0,,,,,,,,,,,,,,,,,,,,,,1854.296712499985,None,,,,,,,,,,,,,,,,,account,56,169,aloud,old,blue,1851.5707105000038,None,1851.5707105000038,None,4,1.8959841000032611,1851.5707105000038,None,1.8959841000032611,1853.4958195000072,None,1853.9965521999984,None,1853.9965521999984,None,r,0.2780215999810025,1853.9965521999984,None,0.2780215999810025,,,44Aloud,001,2022_Sep_05_0902,ProdSingRedoBetween,2021.2.3,59.96415343535271,
,,,,169,0,169,0,,,,,,,,,,,,,,,,,,,,,,1863.672589499969,None,,,,,,,,,,,,,,,,,junior,59,170,aloud,old,yellow,1854.8062724999618,None,1854.8062724999618,None,3,7.452370600018185,1854.8062724999618,None,7.452370600018185,1862.2889754999778,None,1862.792467799969,None,1862.792467799969,None,r,0.850080500007607,1862.792467799969,None,0.850080500007607,,,44Aloud,001,2022_Sep_05_0902,ProdSingRedoBetween,2021.2.3,59.96415343535271,
,,,,170,0,170,0,,,,,,,,,,,,,,,,,,,,,,1872.4980827999534,None,,,,,,,,,,,,,,,,,pattern,74,171,aloud,old,red,1864.1791655999841,None,1864.1791655999841,None,5,7.4555353000178,1864.1791655999841,None,7.4555353000178,1871.664814299962,None,1872.1684208000079,None,1872.1684208000079,None,r,0.3141938999760896,1872.1684208000079,None,0.3141938999760896,,,44Aloud,001,2022_Sep_05_0902,ProdSingRedoBetween,2021.2.3,59.96415343535271,
,,,,171,0,171,0,,,,,,,,,,,,,,,,,,,,,,1875.0840438999585,None,,,,,,,,,,,,,,,,,grade,4,172,aloud,old,yellow,1873.0041662000003,None,1873.0041662000003,None,2,1.398446899955161,1873.0041662000003,None,1.398446899955161,1874.43346749997,None,1874.9338857999537,None,1874.9338857999537,None,n,0.13272319996031,1874.9338857999537,None,0.13272319996031,,,44Aloud,001,2022_Sep_05_0902,ProdSingRedoBetween,2021.2.3,59.96415343535271,
,,,,172,0,172,0,,,,,,,,,,,,,,,,,,,,,,1878.354067599983,None,,,,,,,,,,,,,,,,,safety,16,173,aloud,old,yellow,1875.5907729999744,None,1875.5907729999744,None,5,2.011958399962168,1875.5907729999744,None,2.011958399962168,1877.6213283999823,None,1878.1284006999922,None,1878.1284006999922,None,r,0.19417239999165758,1878.1284006999922,None,0.19417239999165758,,,44Aloud,001,2022_Sep_05_0902,ProdSingRedoBetween,2021.2.3,59.96415343535271,
,,,,173,0,173,0,,,,,,,,,,,,,,,,,,,,,,1882.3247667999822,None,,,,,,,,,,,,,,,,,mankind,70,174,aloud,old,red,1878.8712022999534,None,1878.8712022999534,None,2,1.8033457000274211,1878.8712022999534,None,1.8033457000274211,1880.7064659000025,None,1881.2070564999594,None,1881.2070564999594,None,n,1.0996655999915674,1881.2070564999594,None,1.0996655999915674,,,44Aloud,001,2022_Sep_05_0902,ProdSingRedoBetween,2021.2.3,59.96415343535271,
,,,,174,0,174,0,,,,,,,,,,,,,,,,,,,,,,1885.8781509999535,None,,,,,,,,,,,,,,,,,employment,144,175,aloud,new,null,1882.8334600999951,None,1882.8334600999951,None,5,2.1131970999995247,1882.8334600999951,None,2.1131970999995247,1884.9781360999914,None,1885.4813107000082,None,1885.4813107000082,None,r,0.36931010003900155,1885.4813107000082,None,0.36931010003900155,,,44Aloud,001,2022_Sep_05_0902,ProdSingRedoBetween,2021.2.3,59.96415343535271,
,,,,175,0,175,0,,,,,,,,,,,,,,,,,,,,,,1891.7506891000085,None,,,,,,,,,,,,,,,,,quantity,77,176,aloud,old,red,1886.378781699983,None,1886.378781699983,None,3,2.0319880000315607,1886.378781699983,None,2.0319880000315607,1888.444472400006,None,1888.9497451999923,None,1888.9497451999923,None,n,2.7809015000239015,1888.9497451999923,None,2.7809015000239015,,,44Aloud,001,2022_Sep_05_0902,ProdSingRedoBetween,2021.2.3,59.96415343535271,
,,,,176,0,176,0,,,,,,,,,,,,,,,,,,,,,,1901.1959496999625,None,,,,,,,,,,,,,,,,,review,62,177,aloud,old,red,1892.2591286999523,None,1892.2591286999523,None,3,6.407518399995752,1892.2591286999523,None,6.407518399995752,1898.6909704999998,None,1899.1959470000002,None,1899.1959470000002,None,n,1.9827984999865294,1899.1959470000002,None,1.9827984999865294,,,44Aloud,001,2022_Sep_05_0902,ProdSingRedoBetween,2021.2.3,59.96415343535271,
