StudyLoop.thisRepN,StudyLoop.thisTrialN,StudyLoop.thisN,StudyLoop.thisIndex,TestLoop.thisRepN,TestLoop.thisTrialN,TestLoop.thisN,TestLoop.thisIndex,textCondition.started,textCondition.stopped,keyCondition.keys,keyCondition.rt,keyCondition.started,keyCondition.stopped,Condition,textWelcome.started,textWelcome.stopped,keyWelcome.keys,keyWelcome.rt,keyWelcome.started,keyWelcome.stopped,textAloud.started,textAloud.stopped,textSilent.started,textSilent.stopped,textSing.started,textSing.stopped,conditional_text.started,conditional_text.stopped,textBlank500.started,textBlank500.stopped,study_word,study_num,study_order,study_type,word_color,textStudy.started,textStudy.stopped,keyStudy.keys,keyStudy.started,keyStudy.stopped,textTestInstructions.started,textTestInstructions.stopped,key_resp_3.keys,key_resp_3.rt,key_resp_3.started,key_resp_3.stopped,test_word,test_num,test_order,test_condition,old_new_test,test_word_original_color,textConf.started,textConf.stopped,textConfScale.started,textConfScale.stopped,keyConf.keys,keyConf.rt,keyConf.started,keyConf.stopped,confidence response time,textTestBlank.started,textTestBlank.stopped,textRKN.started,textRKN.stopped,textRKNScale.started,textRKNScale.stopped,keyRKN.keys,keyRKN.rt,keyRKN.started,keyRKN.stopped,rkn response time,textEnd.started,textEnd.stopped,participant,session,date,expName,psychopyVersion,frameRate
,,,,,,,,40.2375225,None,c,761.522439,40.2375225,None,,,,,,,,,,,,,,,,,,,,,,,,,,,,,,,,,,,,,,,,,,,,,,,,,,,,,,,,,,,,,,45SingSep063,1,2022_Sep_06_1054,ProdSingRedoBetween,2021.2.3,59.99721613
,,,,,,,,,,,,,,SingTest,801.8135458,None,space,4.8501949,801.8135458,None,,,,,,,,,,,,,,,,,,,,,,,,,,,,,,,,,,,,,,,,,,,,,,,,,,,,,,,45SingSep063,1,2022_Sep_06_1054,ProdSingRedoBetween,2021.2.3,59.99721613
0,0,0,0,,,,,,,,,,,,,,,,,,801.8135458,None,801.8135458,None,801.8135458,None,801.8135458,None,809.2012016,None,century,17,1,sing,yellow,807.1894203,None,None,807.1894203,None,,,,,,,,,,,,,,,,,,,,,,,,,,,,,,,,,,,45SingSep063,1,2022_Sep_06_1054,ProdSingRedoBetween,2021.2.3,59.99721613
1,0,1,0,,,,,,,,,,,,,,,,,,,,,,,,,,811.7034314,None,shape,60,2,sing,red,809.7022538,None,None,809.7022538,None,,,,,,,,,,,,,,,,,,,,,,,,,,,,,,,,,,,45SingSep063,1,2022_Sep_06_1054,ProdSingRedoBetween,2021.2.3,59.99721613
2,0,2,0,,,,,,,,,,,,,,,,,,,,,,,,,,814.2057573,None,trend,81,3,sing,red,812.2045748,None,None,812.2045748,None,,,,,,,,,,,,,,,,,,,,,,,,,,,,,,,,,,,45SingSep063,1,2022_Sep_06_1054,ProdSingRedoBetween,2021.2.3,59.99721613
3,0,3,0,,,,,,,,,,,,,,,,,,,,,,,,,,816.7252228,None,clear,31,4,sing,blue,814.7101383,None,None,814.7101383,None,,,,,,,,,,,,,,,,,,,,,,,,,,,,,,,,,,,45SingSep063,1,2022_Sep_06_1054,ProdSingRedoBetween,2021.2.3,59.99721613
4,0,4,0,,,,,,,,,,,,,,,,,,,,,,,,,,819.2279752,None,still,39,5,sing,blue,817.2280173,None,None,817.2280173,None,,,,,,,,,,,,,,,,,,,,,,,,,,,,,,,,,,,45SingSep063,1,2022_Sep_06_1054,ProdSingRedoBetween,2021.2.3,59.99721613
5,0,5,0,,,,,,,,,,,,,,,,,,,,,,,,,,821.7300651,None,tennis,3,6,sing,yellow,819.7304458,None,None,819.7304458,None,,,,,,,,,,,,,,,,,,,,,,,,,,,,,,,,,,,45SingSep063,1,2022_Sep_06_1054,ProdSingRedoBetween,2021.2.3,59.99721613
6,0,6,0,,,,,,,,,,,,,,,,,,,,,,,,,,824.2327224,None,youth,0,7,sing,yellow,822.2332601,None,None,822.2332601,None,,,,,,,,,,,,,,,,,,,,,,,,,,,,,,,,,,,45SingSep063,1,2022_Sep_06_1054,ProdSingRedoBetween,2021.2.3,59.99721613
7,0,7,0,,,,,,,,,,,,,,,,,,,,,,,,,,826.7350894,None,center,64,8,sing,red,824.733637,None,None,824.733637,None,,,,,,,,,,,,,,,,,,,,,,,,,,,,,,,,,,,45SingSep063,1,2022_Sep_06_1054,ProdSingRedoBetween,2021.2.3,59.99721613
8,0,8,0,,,,,,,,,,,,,,,,,,,,,,,,,,829.2544977,None,write,88,9,sing,red,827.2402758,None,None,827.2402758,None,,,,,,,,,,,,,,,,,,,,,,,,,,,,,,,,,,,45SingSep063,1,2022_Sep_06_1054,ProdSingRedoBetween,2021.2.3,59.99721613
9,0,9,0,,,,,,,,,,,,,,,,,,,,,,,,,,831.7570249,None,worker,29,10,sing,blue,829.7578236,None,None,829.7578236,None,,,,,,,,,,,,,,,,,,,,,,,,,,,,,,,,,,,45SingSep063,1,2022_Sep_06_1054,ProdSingRedoBetween,2021.2.3,59.99721613
10,0,10,0,,,,,,,,,,,,,,,,,,,,,,,,,,834.2596845,None,number,57,11,sing,blue,832.2596425,None,None,832.2596425,None,,,,,,,,,,,,,,,,,,,,,,,,,,,,,,,,,,,45SingSep063,1,2022_Sep_06_1054,ProdSingRedoBetween,2021.2.3,59.99721613
11,0,11,0,,,,,,,,,,,,,,,,,,,,,,,,,,836.7785842,None,primary,6,12,sing,yellow,834.7639458,None,None,834.7639458,None,,,,,,,,,,,,,,,,,,,,,,,,,,,,,,,,,,,45SingSep063,1,2022_Sep_06_1054,ProdSingRedoBetween,2021.2.3,59.99721613
12,0,12,0,,,,,,,,,,,,,,,,,,,,,,,,,,839.2813433,None,chief,59,13,sing,yellow,837.2794879,None,None,837.2794879,None,,,,,,,,,,,,,,,,,,,,,,,,,,,,,,,,,,,45SingSep063,1,2022_Sep_06_1054,ProdSingRedoBetween,2021.2.3,59.99721613
13,0,13,0,,,,,,,,,,,,,,,,,,,,,,,,,,841.7835906,None,passage,45,14,sing,blue,839.7838178,None,None,839.7838178,None,,,,,,,,,,,,,,,,,,,,,,,,,,,,,,,,,,,45SingSep063,1,2022_Sep_06_1054,ProdSingRedoBetween,2021.2.3,59.99721613
14,0,14,0,,,,,,,,,,,,,,,,,,,,,,,,,,844.2862877,None,incident,22,15,sing,yellow,842.2851901,None,None,842.2851901,None,,,,,,,,,,,,,,,,,,,,,,,,,,,,,,,,,,,45SingSep063,1,2022_Sep_06_1054,ProdSingRedoBetween,2021.2.3,59.99721613
15,0,15,0,,,,,,,,,,,,,,,,,,,,,,,,,,846.8051994,None,guide,77,16,sing,red,844.7908838,None,None,844.7908838,None,,,,,,,,,,,,,,,,,,,,,,,,,,,,,,,,,,,45SingSep063,1,2022_Sep_06_1054,ProdSingRedoBetween,2021.2.3,59.99721613
16,0,16,0,,,,,,,,,,,,,,,,,,,,,,,,,,849.3244646,None,dance,1,17,sing,yellow,847.3110432,None,None,847.3110432,None,,,,,,,,,,,,,,,,,,,,,,,,,,,,,,,,,,,45SingSep063,1,2022_Sep_06_1054,ProdSingRedoBetween,2021.2.3,59.99721613
17,0,17,0,,,,,,,,,,,,,,,,,,,,,,,,,,851.8269461,None,private,68,18,sing,red,849.8271831,None,None,849.8271831,None,,,,,,,,,,,,,,,,,,,,,,,,,,,,,,,,,,,45SingSep063,1,2022_Sep_06_1054,ProdSingRedoBetween,2021.2.3,59.99721613
18,0,18,0,,,,,,,,,,,,,,,,,,,,,,,,,,854.3293,None,edition,4,19,sing,yellow,852.3290111,None,None,852.3290111,None,,,,,,,,,,,,,,,,,,,,,,,,,,,,,,,,,,,45SingSep063,1,2022_Sep_06_1054,ProdSingRedoBetween,2021.2.3,59.99721613
19,0,19,0,,,,,,,,,,,,,,,,,,,,,,,,,,856.8321281,None,conference,14,20,sing,yellow,854.8312016,None,None,854.8312016,None,,,,,,,,,,,,,,,,,,,,,,,,,,,,,,,,,,,45SingSep063,1,2022_Sep_06_1054,ProdSingRedoBetween,2021.2.3,59.99721613
20,0,20,0,,,,,,,,,,,,,,,,,,,,,,,,,,859.3512302,None,account,71,21,sing,red,857.3361044,None,None,857.3361044,None,,,,,,,,,,,,,,,,,,,,,,,,,,,,,,,,,,,45SingSep063,1,2022_Sep_06_1054,ProdSingRedoBetween,2021.2.3,59.99721613
21,0,21,0,,,,,,,,,,,,,,,,,,,,,,,,,,861.8536509,None,property,26,22,sing,yellow,859.8520869,None,None,859.8520869,None,,,,,,,,,,,,,,,,,,,,,,,,,,,,,,,,,,,45SingSep063,1,2022_Sep_06_1054,ProdSingRedoBetween,2021.2.3,59.99721613
22,0,22,0,,,,,,,,,,,,,,,,,,,,,,,,,,864.3562826,None,measure,9,23,sing,yellow,862.3571128,None,None,862.3571128,None,,,,,,,,,,,,,,,,,,,,,,,,,,,,,,,,,,,45SingSep063,1,2022_Sep_06_1054,ProdSingRedoBetween,2021.2.3,59.99721613
23,0,23,0,,,,,,,,,,,,,,,,,,,,,,,,,,866.858626,None,scale,74,24,sing,red,864.8596137,None,None,864.8596137,None,,,,,,,,,,,,,,,,,,,,,,,,,,,,,,,,,,,45SingSep063,1,2022_Sep_06_1054,ProdSingRedoBetween,2021.2.3,59.99721613
24,0,24,0,,,,,,,,,,,,,,,,,,,,,,,,,,869.3617591,None,route,87,25,sing,red,867.3605605,None,None,867.3605605,None,,,,,,,,,,,,,,,,,,,,,,,,,,,,,,,,,,,45SingSep063,1,2022_Sep_06_1054,ProdSingRedoBetween,2021.2.3,59.99721613
25,0,25,0,,,,,,,,,,,,,,,,,,,,,,,,,,871.8637176,None,debate,52,26,sing,blue,869.8623121,None,None,869.8623121,None,,,,,,,,,,,,,,,,,,,,,,,,,,,,,,,,,,,45SingSep063,1,2022_Sep_06_1054,ProdSingRedoBetween,2021.2.3,59.99721613
26,0,26,0,,,,,,,,,,,,,,,,,,,,,,,,,,874.3829332,None,title,49,27,sing,blue,872.3685563,None,None,872.3685563,None,,,,,,,,,,,,,,,,,,,,,,,,,,,,,,,,,,,45SingSep063,1,2022_Sep_06_1054,ProdSingRedoBetween,2021.2.3,59.99721613
27,0,27,0,,,,,,,,,,,,,,,,,,,,,,,,,,876.8857105,None,income,41,28,sing,blue,874.8856205,None,None,874.8856205,None,,,,,,,,,,,,,,,,,,,,,,,,,,,,,,,,,,,45SingSep063,1,2022_Sep_06_1054,ProdSingRedoBetween,2021.2.3,59.99721613
28,0,28,0,,,,,,,,,,,,,,,,,,,,,,,,,,879.3879337,None,pretty,21,29,sing,yellow,877.3881815,None,None,877.3881815,None,,,,,,,,,,,,,,,,,,,,,,,,,,,,,,,,,,,45SingSep063,1,2022_Sep_06_1054,ProdSingRedoBetween,2021.2.3,59.99721613
29,0,29,0,,,,,,,,,,,,,,,,,,,,,,,,,,881.8901567,None,career,40,30,sing,blue,879.8887232,None,None,879.8887232,None,,,,,,,,,,,,,,,,,,,,,,,,,,,,,,,,,,,45SingSep063,1,2022_Sep_06_1054,ProdSingRedoBetween,2021.2.3,59.99721613
30,0,30,0,,,,,,,,,,,,,,,,,,,,,,,,,,884.3934266,None,employment,80,31,sing,red,882.3932551,None,None,882.3932551,None,,,,,,,,,,,,,,,,,,,,,,,,,,,,,,,,,,,45SingSep063,1,2022_Sep_06_1054,ProdSingRedoBetween,2021.2.3,59.99721613
31,0,31,0,,,,,,,,,,,,,,,,,,,,,,,,,,886.8954572,None,budget,83,32,sing,red,884.8944842,None,None,884.8944842,None,,,,,,,,,,,,,,,,,,,,,,,,,,,,,,,,,,,45SingSep063,1,2022_Sep_06_1054,ProdSingRedoBetween,2021.2.3,59.99721613
32,0,32,0,,,,,,,,,,,,,,,,,,,,,,,,,,889.3978726,None,track,30,33,sing,blue,887.3981653,None,None,887.3981653,None,,,,,,,,,,,,,,,,,,,,,,,,,,,,,,,,,,,45SingSep063,1,2022_Sep_06_1054,ProdSingRedoBetween,2021.2.3,59.99721613
33,0,33,0,,,,,,,,,,,,,,,,,,,,,,,,,,891.9004531,None,balance,8,34,sing,yellow,889.8997917,None,None,889.8997917,None,,,,,,,,,,,,,,,,,,,,,,,,,,,,,,,,,,,45SingSep063,1,2022_Sep_06_1054,ProdSingRedoBetween,2021.2.3,59.99721613
34,0,34,0,,,,,,,,,,,,,,,,,,,,,,,,,,894.4028967,None,shear,2,35,sing,yellow,892.402344,None,None,892.402344,None,,,,,,,,,,,,,,,,,,,,,,,,,,,,,,,,,,,45SingSep063,1,2022_Sep_06_1054,ProdSingRedoBetween,2021.2.3,59.99721613
35,0,35,0,,,,,,,,,,,,,,,,,,,,,,,,,,896.9051986,None,capital,10,36,sing,yellow,894.9052735,None,None,894.9052735,None,,,,,,,,,,,,,,,,,,,,,,,,,,,,,,,,,,,45SingSep063,1,2022_Sep_06_1054,ProdSingRedoBetween,2021.2.3,59.99721613
36,0,36,0,,,,,,,,,,,,,,,,,,,,,,,,,,899.4244922,None,emergency,23,37,sing,yellow,897.4094201,None,None,897.4094201,None,,,,,,,,,,,,,,,,,,,,,,,,,,,,,,,,,,,45SingSep063,1,2022_Sep_06_1054,ProdSingRedoBetween,2021.2.3,59.99721613
37,0,37,0,,,,,,,,,,,,,,,,,,,,,,,,,,901.9435202,None,bucket,78,38,sing,red,899.9282704,None,None,899.9282704,None,,,,,,,,,,,,,,,,,,,,,,,,,,,,,,,,,,,45SingSep063,1,2022_Sep_06_1054,ProdSingRedoBetween,2021.2.3,59.99721613
38,0,38,0,,,,,,,,,,,,,,,,,,,,,,,,,,904.4458133,None,benefit,27,39,sing,yellow,902.4455997,None,None,902.4455997,None,,,,,,,,,,,,,,,,,,,,,,,,,,,,,,,,,,,45SingSep063,1,2022_Sep_06_1054,ProdSingRedoBetween,2021.2.3,59.99721613
39,0,39,0,,,,,,,,,,,,,,,,,,,,,,,,,,906.9484491,None,sweet,15,40,sing,yellow,904.9481007,None,None,904.9481007,None,,,,,,,,,,,,,,,,,,,,,,,,,,,,,,,,,,,45SingSep063,1,2022_Sep_06_1054,ProdSingRedoBetween,2021.2.3,59.99721613
40,0,40,0,,,,,,,,,,,,,,,,,,,,,,,,,,909.4517524,None,patient,12,41,sing,yellow,907.4510909,None,None,907.4510909,None,,,,,,,,,,,,,,,,,,,,,,,,,,,,,,,,,,,45SingSep063,1,2022_Sep_06_1054,ProdSingRedoBetween,2021.2.3,59.99721613
41,0,41,0,,,,,,,,,,,,,,,,,,,,,,,,,,911.9535264,None,poetry,73,42,sing,red,909.9522202,None,None,909.9522202,None,,,,,,,,,,,,,,,,,,,,,,,,,,,,,,,,,,,45SingSep063,1,2022_Sep_06_1054,ProdSingRedoBetween,2021.2.3,59.99721613
42,0,42,0,,,,,,,,,,,,,,,,,,,,,,,,,,914.4559749,None,school,70,43,sing,red,912.4555477,None,None,912.4555477,None,,,,,,,,,,,,,,,,,,,,,,,,,,,,,,,,,,,45SingSep063,1,2022_Sep_06_1054,ProdSingRedoBetween,2021.2.3,59.99721613
43,0,43,0,,,,,,,,,,,,,,,,,,,,,,,,,,916.9591684,None,build,76,44,sing,red,914.9568206,None,None,914.9568206,None,,,,,,,,,,,,,,,,,,,,,,,,,,,,,,,,,,,45SingSep063,1,2022_Sep_06_1054,ProdSingRedoBetween,2021.2.3,59.99721613
44,0,44,0,,,,,,,,,,,,,,,,,,,,,,,,,,919.4609027,None,judge,37,45,sing,blue,917.4618346,None,None,917.4618346,None,,,,,,,,,,,,,,,,,,,,,,,,,,,,,,,,,,,45SingSep063,1,2022_Sep_06_1054,ProdSingRedoBetween,2021.2.3,59.99721613
45,0,45,0,,,,,,,,,,,,,,,,,,,,,,,,,,921.9635345,None,afternoon,36,46,sing,blue,919.9616811,None,None,919.9616811,None,,,,,,,,,,,,,,,,,,,,,,,,,,,,,,,,,,,45SingSep063,1,2022_Sep_06_1054,ProdSingRedoBetween,2021.2.3,59.99721613
46,0,46,0,,,,,,,,,,,,,,,,,,,,,,,,,,924.4658914,None,comedy,35,47,sing,blue,922.4637919,None,None,922.4637919,None,,,,,,,,,,,,,,,,,,,,,,,,,,,,,,,,,,,45SingSep063,1,2022_Sep_06_1054,ProdSingRedoBetween,2021.2.3,59.99721613
47,0,47,0,,,,,,,,,,,,,,,,,,,,,,,,,,926.9683851,None,expansion,34,48,sing,blue,924.9665897,None,None,924.9665897,None,,,,,,,,,,,,,,,,,,,,,,,,,,,,,,,,,,,45SingSep063,1,2022_Sep_06_1054,ProdSingRedoBetween,2021.2.3,59.99721613
48,0,48,0,,,,,,,,,,,,,,,,,,,,,,,,,,929.4707298,None,agency,48,49,sing,blue,927.4699164,None,None,927.4699164,None,,,,,,,,,,,,,,,,,,,,,,,,,,,,,,,,,,,45SingSep063,1,2022_Sep_06_1054,ProdSingRedoBetween,2021.2.3,59.99721613
49,0,49,0,,,,,,,,,,,,,,,,,,,,,,,,,,931.9734876,None,general,16,50,sing,yellow,929.9717066,None,None,929.9717066,None,,,,,,,,,,,,,,,,,,,,,,,,,,,,,,,,,,,45SingSep063,1,2022_Sep_06_1054,ProdSingRedoBetween,2021.2.3,59.99721613
50,0,50,0,,,,,,,,,,,,,,,,,,,,,,,,,,934.4764257,None,symbol,84,51,sing,red,932.4761271,None,None,932.4761271,None,,,,,,,,,,,,,,,,,,,,,,,,,,,,,,,,,,,45SingSep063,1,2022_Sep_06_1054,ProdSingRedoBetween,2021.2.3,59.99721613
51,0,51,0,,,,,,,,,,,,,,,,,,,,,,,,,,936.9791065,None,touch,7,52,sing,yellow,934.9798406,None,None,934.9798406,None,,,,,,,,,,,,,,,,,,,,,,,,,,,,,,,,,,,45SingSep063,1,2022_Sep_06_1054,ProdSingRedoBetween,2021.2.3,59.99721613
52,0,52,0,,,,,,,,,,,,,,,,,,,,,,,,,,939.4976207,None,election,50,53,sing,blue,937.4867333,None,None,937.4867333,None,,,,,,,,,,,,,,,,,,,,,,,,,,,,,,,,,,,45SingSep063,1,2022_Sep_06_1054,ProdSingRedoBetween,2021.2.3,59.99721613
53,0,53,0,,,,,,,,,,,,,,,,,,,,,,,,,,942.0003877,None,problem,75,54,sing,red,940.0006052,None,None,940.0006052,None,,,,,,,,,,,,,,,,,,,,,,,,,,,,,,,,,,,45SingSep063,1,2022_Sep_06_1054,ProdSingRedoBetween,2021.2.3,59.99721613
54,0,54,0,,,,,,,,,,,,,,,,,,,,,,,,,,944.5029098,None,crowd,65,55,sing,red,942.5029068,None,None,942.5029068,None,,,,,,,,,,,,,,,,,,,,,,,,,,,,,,,,,,,45SingSep063,1,2022_Sep_06_1054,ProdSingRedoBetween,2021.2.3,59.99721613
55,0,55,0,,,,,,,,,,,,,,,,,,,,,,,,,,947.0054768,None,pattern,43,56,sing,blue,945.0049642,None,None,945.0049642,None,,,,,,,,,,,,,,,,,,,,,,,,,,,,,,,,,,,45SingSep063,1,2022_Sep_06_1054,ProdSingRedoBetween,2021.2.3,59.99721613
56,0,56,0,,,,,,,,,,,,,,,,,,,,,,,,,,949.5080317,None,machinery,56,57,sing,blue,947.5082828,None,None,947.5082828,None,,,,,,,,,,,,,,,,,,,,,,,,,,,,,,,,,,,45SingSep063,1,2022_Sep_06_1054,ProdSingRedoBetween,2021.2.3,59.99721613
57,0,57,0,,,,,,,,,,,,,,,,,,,,,,,,,,952.0102311,None,corner,42,58,sing,blue,950.0111297,None,None,950.0111297,None,,,,,,,,,,,,,,,,,,,,,,,,,,,,,,,,,,,45SingSep063,1,2022_Sep_06_1054,ProdSingRedoBetween,2021.2.3,59.99721613
58,0,58,0,,,,,,,,,,,,,,,,,,,,,,,,,,954.5140478,None,detective,54,59,sing,blue,952.5132974,None,None,952.5132974,None,,,,,,,,,,,,,,,,,,,,,,,,,,,,,,,,,,,45SingSep063,1,2022_Sep_06_1054,ProdSingRedoBetween,2021.2.3,59.99721613
59,0,59,0,,,,,,,,,,,,,,,,,,,,,,,,,,957.0320472,None,cover,44,60,sing,blue,955.0259091,None,None,955.0259091,None,,,,,,,,,,,,,,,,,,,,,,,,,,,,,,,,,,,45SingSep063,1,2022_Sep_06_1054,ProdSingRedoBetween,2021.2.3,59.99721613
60,0,60,0,,,,,,,,,,,,,,,,,,,,,,,,,,959.535423,None,drove,82,61,sing,red,957.5335382,None,None,957.5335382,None,,,,,,,,,,,,,,,,,,,,,,,,,,,,,,,,,,,45SingSep063,1,2022_Sep_06_1054,ProdSingRedoBetween,2021.2.3,59.99721613
61,0,61,0,,,,,,,,,,,,,,,,,,,,,,,,,,962.0369699,None,state,55,62,sing,blue,960.0372058,None,None,960.0372058,None,,,,,,,,,,,,,,,,,,,,,,,,,,,,,,,,,,,45SingSep063,1,2022_Sep_06_1054,ProdSingRedoBetween,2021.2.3,59.99721613
62,0,62,0,,,,,,,,,,,,,,,,,,,,,,,,,,964.5394817,None,weight,24,63,sing,yellow,962.5396701,None,None,962.5396701,None,,,,,,,,,,,,,,,,,,,,,,,,,,,,,,,,,,,45SingSep063,1,2022_Sep_06_1054,ProdSingRedoBetween,2021.2.3,59.99721613
63,0,63,0,,,,,,,,,,,,,,,,,,,,,,,,,,967.0420221,None,whole,18,64,sing,yellow,965.0408245,None,None,965.0408245,None,,,,,,,,,,,,,,,,,,,,,,,,,,,,,,,,,,,45SingSep063,1,2022_Sep_06_1054,ProdSingRedoBetween,2021.2.3,59.99721613
64,0,64,0,,,,,,,,,,,,,,,,,,,,,,,,,,969.5616916,None,fashion,32,65,sing,blue,967.5565087,None,None,967.5565087,None,,,,,,,,,,,,,,,,,,,,,,,,,,,,,,,,,,,45SingSep063,1,2022_Sep_06_1054,ProdSingRedoBetween,2021.2.3,59.99721613
65,0,65,0,,,,,,,,,,,,,,,,,,,,,,,,,,972.0642886,None,growth,69,66,sing,red,970.062417,None,None,970.062417,None,,,,,,,,,,,,,,,,,,,,,,,,,,,,,,,,,,,45SingSep063,1,2022_Sep_06_1054,ProdSingRedoBetween,2021.2.3,59.99721613
66,0,66,0,,,,,,,,,,,,,,,,,,,,,,,,,,974.5661224,None,waste,53,67,sing,blue,972.5666505,None,None,972.5666505,None,,,,,,,,,,,,,,,,,,,,,,,,,,,,,,,,,,,45SingSep063,1,2022_Sep_06_1054,ProdSingRedoBetween,2021.2.3,59.99721613
67,0,67,0,,,,,,,,,,,,,,,,,,,,,,,,,,977.085492,None,crisis,38,68,sing,blue,975.0725112,None,None,975.0725112,None,,,,,,,,,,,,,,,,,,,,,,,,,,,,,,,,,,,45SingSep063,1,2022_Sep_06_1054,ProdSingRedoBetween,2021.2.3,59.99721613
68,0,68,0,,,,,,,,,,,,,,,,,,,,,,,,,,979.5880101,None,alert,20,69,sing,yellow,977.587851,None,None,977.587851,None,,,,,,,,,,,,,,,,,,,,,,,,,,,,,,,,,,,45SingSep063,1,2022_Sep_06_1054,ProdSingRedoBetween,2021.2.3,59.99721613
69,0,69,0,,,,,,,,,,,,,,,,,,,,,,,,,,982.1070602,None,motion,62,70,sing,red,980.1038185,None,None,980.1038185,None,,,,,,,,,,,,,,,,,,,,,,,,,,,,,,,,,,,45SingSep063,1,2022_Sep_06_1054,ProdSingRedoBetween,2021.2.3,59.99721613
70,0,70,0,,,,,,,,,,,,,,,,,,,,,,,,,,984.6266085,None,suggestion,28,71,sing,yellow,982.6116229,None,None,982.6116229,None,,,,,,,,,,,,,,,,,,,,,,,,,,,,,,,,,,,45SingSep063,1,2022_Sep_06_1054,ProdSingRedoBetween,2021.2.3,59.99721613
71,0,71,0,,,,,,,,,,,,,,,,,,,,,,,,,,987.1288493,None,agreement,66,72,sing,red,985.1266377,None,None,985.1266377,None,,,,,,,,,,,,,,,,,,,,,,,,,,,,,,,,,,,45SingSep063,1,2022_Sep_06_1054,ProdSingRedoBetween,2021.2.3,59.99721613
72,0,72,0,,,,,,,,,,,,,,,,,,,,,,,,,,989.6481169,None,phrase,86,73,sing,red,987.6387818,None,None,987.6387818,None,,,,,,,,,,,,,,,,,,,,,,,,,,,,,,,,,,,45SingSep063,1,2022_Sep_06_1054,ProdSingRedoBetween,2021.2.3,59.99721613
73,0,73,0,,,,,,,,,,,,,,,,,,,,,,,,,,992.1511747,None,broke,67,74,sing,red,990.1500623,None,None,990.1500623,None,,,,,,,,,,,,,,,,,,,,,,,,,,,,,,,,,,,45SingSep063,1,2022_Sep_06_1054,ProdSingRedoBetween,2021.2.3,59.99721613
74,0,74,0,,,,,,,,,,,,,,,,,,,,,,,,,,994.6531035,None,drama,13,75,sing,yellow,992.6521314,None,None,992.6521314,None,,,,,,,,,,,,,,,,,,,,,,,,,,,,,,,,,,,45SingSep063,1,2022_Sep_06_1054,ProdSingRedoBetween,2021.2.3,59.99721613
75,0,75,0,,,,,,,,,,,,,,,,,,,,,,,,,,997.1555539,None,commercial,72,76,sing,red,995.1561623,None,None,995.1561623,None,,,,,,,,,,,,,,,,,,,,,,,,,,,,,,,,,,,45SingSep063,1,2022_Sep_06_1054,ProdSingRedoBetween,2021.2.3,59.99721613
76,0,76,0,,,,,,,,,,,,,,,,,,,,,,,,,,999.6580922,None,people,33,77,sing,blue,997.6588528,None,None,997.6588528,None,,,,,,,,,,,,,,,,,,,,,,,,,,,,,,,,,,,45SingSep063,1,2022_Sep_06_1054,ProdSingRedoBetween,2021.2.3,59.99721613
77,0,77,0,,,,,,,,,,,,,,,,,,,,,,,,,,1002.160715,None,music,19,78,sing,yellow,1000.159471,None,None,1000.159471,None,,,,,,,,,,,,,,,,,,,,,,,,,,,,,,,,,,,45SingSep063,1,2022_Sep_06_1054,ProdSingRedoBetween,2021.2.3,59.99721613
78,0,78,0,,,,,,,,,,,,,,,,,,,,,,,,,,1004.680306,None,block,11,79,sing,yellow,1002.675071,None,None,1002.675071,None,,,,,,,,,,,,,,,,,,,,,,,,,,,,,,,,,,,45SingSep063,1,2022_Sep_06_1054,ProdSingRedoBetween,2021.2.3,59.99721613
79,0,79,0,,,,,,,,,,,,,,,,,,,,,,,,,,1007.182258,None,finance,63,80,sing,red,1005.182325,None,None,1005.182325,None,,,,,,,,,,,,,,,,,,,,,,,,,,,,,,,,,,,45SingSep063,1,2022_Sep_06_1054,ProdSingRedoBetween,2021.2.3,59.99721613
80,0,80,0,,,,,,,,,,,,,,,,,,,,,,,,,,1009.684791,None,season,79,81,sing,red,1007.685131,None,None,1007.685131,None,,,,,,,,,,,,,,,,,,,,,,,,,,,,,,,,,,,45SingSep063,1,2022_Sep_06_1054,ProdSingRedoBetween,2021.2.3,59.99721613
81,0,81,0,,,,,,,,,,,,,,,,,,,,,,,,,,1012.187313,None,graduate,61,82,sing,red,1010.187869,None,None,1010.187869,None,,,,,,,,,,,,,,,,,,,,,,,,,,,,,,,,,,,45SingSep063,1,2022_Sep_06_1054,ProdSingRedoBetween,2021.2.3,59.99721613
82,0,82,0,,,,,,,,,,,,,,,,,,,,,,,,,,1014.689679,None,interview,46,83,sing,blue,1012.690067,None,None,1012.690067,None,,,,,,,,,,,,,,,,,,,,,,,,,,,,,,,,,,,45SingSep063,1,2022_Sep_06_1054,ProdSingRedoBetween,2021.2.3,59.99721613
83,0,83,0,,,,,,,,,,,,,,,,,,,,,,,,,,1017.192227,None,dispute,47,84,sing,blue,1015.193048,None,None,1015.193048,None,,,,,,,,,,,,,,,,,,,,,,,,,,,,,,,,,,,45SingSep063,1,2022_Sep_06_1054,ProdSingRedoBetween,2021.2.3,59.99721613
84,0,84,0,,,,,,,,,,,,,,,,,,,,,,,,,,1019.711822,None,captain,85,85,sing,red,1017.695522,None,None,1017.695522,None,,,,,,,,,,,,,,,,,,,,,,,,,,,,,,,,,,,45SingSep063,1,2022_Sep_06_1054,ProdSingRedoBetween,2021.2.3,59.99721613
85,0,85,0,,,,,,,,,,,,,,,,,,,,,,,,,,1022.213922,None,bitter,51,86,sing,blue,1020.212423,None,None,1020.212423,None,,,,,,,,,,,,,,,,,,,,,,,,,,,,,,,,,,,45SingSep063,1,2022_Sep_06_1054,ProdSingRedoBetween,2021.2.3,59.99721613
86,0,86,0,,,,,,,,,,,,,,,,,,,,,,,,,,1024.733242,None,strength,25,87,sing,yellow,1022.716958,None,None,1022.716958,None,,,,,,,,,,,,,,,,,,,,,,,,,,,,,,,,,,,45SingSep063,1,2022_Sep_06_1054,ProdSingRedoBetween,2021.2.3,59.99721613
87,0,87,0,,,,,,,,,,,,,,,,,,,,,,,,,,1027.252885,None,scene,5,88,sing,yellow,1025.244568,None,None,1025.244568,None,,,,,,,,,,,,,,,,,,,,,,,,,,,,,,,,,,,45SingSep063,1,2022_Sep_06_1054,ProdSingRedoBetween,2021.2.3,59.99721613
88,0,88,0,,,,,,,,,,,,,,,,,,,,,,,,,,1029.754741,None,addition,58,89,sing,blue,1027.752653,None,None,1027.752653,None,,,,,,,,,,,,,,,,,,,,,,,,,,,,,,,,,,,45SingSep063,1,2022_Sep_06_1054,ProdSingRedoBetween,2021.2.3,59.99721613
89,0,89,0,,,,,,,,,,,,,,,,,,,,,,,,,,1032.257241,None,candidate,89,90,sing,red,1030.257222,None,None,1030.257222,None,,,,,,,,,,,,,,,,,,,,,,,,,,,,,,,,,,,45SingSep063,1,2022_Sep_06_1054,ProdSingRedoBetween,2021.2.3,59.99721613
,,,,,,,,,,,,,,,,,,,,,,,,,,,,,,,,,,,,,,,,,1032.757875,None,k,68.8181338,1032.757875,None,,,,,,,,,,,,,,,,,,,,,,,,,,,,,45SingSep063,1,2022_Sep_06_1054,ProdSingRedoBetween,2021.2.3,59.99721613
,,,,0,0,0,0,,,,,,,,,,,,,,,,,,,,,,1111.771594,None,,,,,,,,,,,,,,,,,instrument,130,1,sing,new,null,1102.112305,None,1102.112305,None,6,6.9915483,1102.112305,None,6.9915483,1109.13636,None,1109.653547,None,1109.653547,None,r,2.0903101,1109.653547,None,2.0903101,,,45SingSep063,1,2022_Sep_06_1054,ProdSingRedoBetween,2021.2.3,59.99721613
,,,,1,0,1,0,,,,,,,,,,,,,,,,,,,,,,1119.029161,None,,,,,,,,,,,,,,,,,shear,2,2,sing,old,yellow,1112.290679,None,1112.290679,None,6,3.7091508,1112.290679,None,3.7091508,1116.028279,None,1116.54116,None,1116.54116,None,r,2.4586228,1116.54116,None,2.4586228,,,45SingSep063,1,2022_Sep_06_1054,ProdSingRedoBetween,2021.2.3,59.99721613
,,,,2,0,2,0,,,,,,,,,,,,,,,,,,,,,,1125.119187,None,,,,,,,,,,,,,,,,,department,164,3,sing,new,null,1119.530138,None,1119.530138,None,4,3.5577875,1119.530138,None,3.5577875,1123.129068,None,1123.632273,None,1123.632273,None,f,1.4634867,1123.632273,None,1.4634867,,,45SingSep063,1,2022_Sep_06_1054,ProdSingRedoBetween,2021.2.3,59.99721613
,,,,3,0,3,0,,,,,,,,,,,,,,,,,,,,,,1135.277365,None,,,,,,,,,,,,,,,,,mayor,121,4,sing,new,null,1125.630866,None,1125.630866,None,2,6.4810526,1125.630866,None,6.4810526,1132.148873,None,1132.657743,None,1132.657743,None,r,2.5901389,1132.657743,None,2.5901389,,,45SingSep063,1,2022_Sep_06_1054,ProdSingRedoBetween,2021.2.3,59.99721613
,,,,4,0,4,0,,,,,,,,,,,,,,,,,,,,,,1140.969137,None,,,,,,,,,,,,,,,,,executive,171,5,sing,new,null,1135.794392,None,1135.794392,None,2,4.0774215,1135.794392,None,4.0774215,1139.900093,None,1140.420271,None,1140.420271,None,f,0.5155027,1140.420271,None,0.5155027,,,45SingSep063,1,2022_Sep_06_1054,ProdSingRedoBetween,2021.2.3,59.99721613
,,,,5,0,5,0,,,,,,,,,,,,,,,,,,,,,,1144.820461,None,,,,,,,,,,,,,,,,,straight,106,6,sing,new,null,1141.485675,None,1141.485675,None,3,2.2823974,1141.485675,None,2.2823974,1143.787215,None,1144.302469,None,1144.302469,None,f,0.4893147,1144.302469,None,0.4893147,,,45SingSep063,1,2022_Sep_06_1054,ProdSingRedoBetween,2021.2.3,59.99721613
,,,,6,0,6,0,,,,,,,,,,,,,,,,,,,,,,1150.909277,None,,,,,,,,,,,,,,,,,suggestion,28,7,sing,old,yellow,1145.322685,None,1145.322685,None,6,3.3413954,1145.322685,None,3.3413954,1148.692613,None,1149.216705,None,1149.216705,None,r,1.663176,1149.216705,None,1.663176,,,45SingSep063,1,2022_Sep_06_1054,ProdSingRedoBetween,2021.2.3,59.99721613
,,,,7,0,7,0,,,,,,,,,,,,,,,,,,,,,,1157.515694,None,,,,,,,,,,,,,,,,,problem,75,8,sing,old,red,1151.41199,None,1151.41199,None,4,4.3641019,1151.41199,None,4.3641019,1155.80048,None,1156.316403,None,1156.316403,None,f,1.1797658,1156.316403,None,1.1797658,,,45SingSep063,1,2022_Sep_06_1054,ProdSingRedoBetween,2021.2.3,59.99721613
,,,,8,0,8,0,,,,,,,,,,,,,,,,,,,,,,1165.341496,None,,,,,,,,,,,,,,,,,suspect,173,9,sing,new,null,1158.019602,None,1158.019602,None,2,3.2842411,1158.019602,None,3.2842411,1161.323083,None,1161.837295,None,1161.837295,None,f,3.4829498,1161.837295,None,3.4829498,,,45SingSep063,1,2022_Sep_06_1054,ProdSingRedoBetween,2021.2.3,59.99721613
,,,,9,0,9,0,,,,,,,,,,,,,,,,,,,,,,1171.267077,None,,,,,,,,,,,,,,,,,personnel,134,10,sing,new,null,1165.844129,None,1165.844129,None,1,3.2117616,1165.844129,None,3.2117616,1169.079822,None,1169.594828,None,1169.594828,None,n,1.6450974,1169.594828,None,1.6450974,,,45SingSep063,1,2022_Sep_06_1054,ProdSingRedoBetween,2021.2.3,59.99721613
,,,,10,0,10,0,,,,,,,,,,,,,,,,,,,,,,1177.302691,None,,,,,,,,,,,,,,,,,relation,135,11,sing,new,null,1171.78179,None,1171.78179,None,1,2.5940914,1171.78179,None,2.5940914,1174.402056,None,1174.916865,None,1174.916865,None,n,2.3549217,1174.916865,None,2.3549217,,,45SingSep063,1,2022_Sep_06_1054,ProdSingRedoBetween,2021.2.3,59.99721613
,,,,11,0,11,0,,,,,,,,,,,,,,,,,,,,,,1184.544827,None,,,,,,,,,,,,,,,,,detective,54,12,sing,old,blue,1177.805568,None,1177.805568,None,6,4.3863278,1177.805568,None,4.3863278,1182.209423,None,1182.724955,None,1182.724955,None,r,1.7868416,1182.724955,None,1.7868416,,,45SingSep063,1,2022_Sep_06_1054,ProdSingRedoBetween,2021.2.3,59.99721613
,,,,12,0,12,0,,,,,,,,,,,,,,,,,,,,,,1190.065123,None,,,,,,,,,,,,,,,,,weight,24,13,sing,old,yellow,1185.055397,None,1185.055397,None,6,2.4887065,1185.055397,None,2.4887065,1187.564774,None,1188.080304,None,1188.080304,None,r,1.9676955,1188.080304,None,1.9676955,,,45SingSep063,1,2022_Sep_06_1054,ProdSingRedoBetween,2021.2.3,59.99721613
,,,,13,0,13,0,,,,,,,,,,,,,,,,,,,,,,1195.7723,None,,,,,,,,,,,,,,,,,author,108,14,sing,new,null,1190.567339,None,1190.567339,None,4,3.3846819,1190.567339,None,3.3846819,1193.97072,None,1194.485813,None,1194.485813,None,f,1.2662814,1194.485813,None,1.2662814,,,45SingSep063,1,2022_Sep_06_1054,ProdSingRedoBetween,2021.2.3,59.99721613
,,,,14,0,14,0,,,,,,,,,,,,,,,,,,,,,,1200.376762,None,,,,,,,,,,,,,,,,,pattern,43,15,sing,old,blue,1196.290248,None,1196.290248,None,4,2.6536478,1196.290248,None,2.6536478,1198.976393,None,1199.49142,None,1199.49142,None,f,0.852384,1199.49142,None,0.852384,,,45SingSep063,1,2022_Sep_06_1054,ProdSingRedoBetween,2021.2.3,59.99721613
,,,,15,0,15,0,,,,,,,,,,,,,,,,,,,,,,1205.08135,None,,,,,,,,,,,,,,,,,community,139,16,sing,new,null,1200.882756,None,1200.882756,None,4,3.0532885,1200.882756,None,3.0532885,1203.96446,None,1204.479369,None,1204.479369,None,f,0.5765279,1204.479369,None,0.5765279,,,45SingSep063,1,2022_Sep_06_1054,ProdSingRedoBetween,2021.2.3,59.99721613
,,,,16,0,16,0,,,,,,,,,,,,,,,,,,,,,,1212.988662,None,,,,,,,,,,,,,,,,,drove,82,17,sing,old,red,1205.583735,None,1205.583735,None,1,3.3201619,1205.583735,None,3.3201619,1208.937323,None,1209.451086,None,1209.451086,None,n,3.5170433,1209.451086,None,3.5170433,,,45SingSep063,1,2022_Sep_06_1054,ProdSingRedoBetween,2021.2.3,59.99721613
,,,,17,0,17,0,,,,,,,,,,,,,,,,,,,,,,1220.278944,None,,,,,,,,,,,,,,,,,finance,63,18,sing,old,red,1213.494505,None,1213.494505,None,6,2.825371,1213.494505,None,2.825371,1216.343368,None,1216.860493,None,1216.860493,None,r,3.3874167,1216.860493,None,3.3874167,,,45SingSep063,1,2022_Sep_06_1054,ProdSingRedoBetween,2021.2.3,59.99721613
,,,,18,0,18,0,,,,,,,,,,,,,,,,,,,,,,1224.967098,None,,,,,,,,,,,,,,,,,election,50,19,sing,old,blue,1220.793146,None,1220.793146,None,6,2.5428636,1220.793146,None,2.5428636,1223.367,None,1223.882065,None,1223.882065,None,r,1.06184,1223.882065,None,1.06184,,,45SingSep063,1,2022_Sep_06_1054,ProdSingRedoBetween,2021.2.3,59.99721613
,,,,19,0,19,0,,,,,,,,,,,,,,,,,,,,,,1230.431841,None,,,,,,,,,,,,,,,,,industry,162,20,sing,new,null,1225.470201,None,1225.470201,None,2,2.4017041,1225.470201,None,2.4017041,1227.904745,None,1228.423699,None,1228.423699,None,f,1.9681403,1228.423699,None,1.9681403,,,45SingSep063,1,2022_Sep_06_1054,ProdSingRedoBetween,2021.2.3,59.99721613
,,,,20,0,20,0,,,,,,,,,,,,,,,,,,,,,,1234.810632,None,,,,,,,,,,,,,,,,,trash,166,21,sing,new,null,1230.944954,None,1230.944954,None,1,1.4309577,1230.944954,None,1.4309577,1232.393598,None,1232.907918,None,1232.907918,None,n,1.8840714,1232.907918,None,1.8840714,,,45SingSep063,1,2022_Sep_06_1054,ProdSingRedoBetween,2021.2.3,59.99721613
,,,,21,0,21,0,,,,,,,,,,,,,,,,,,,,,,1243.853147,None,,,,,,,,,,,,,,,,,couch,96,22,sing,new,null,1235.317202,None,1235.317202,None,3,6.602688,1235.317202,None,6.602688,1241.952336,None,1242.467269,None,1242.467269,None,f,1.3655722,1242.467269,None,1.3655722,,,45SingSep063,1,2022_Sep_06_1054,ProdSingRedoBetween,2021.2.3,59.99721613
,,,,22,0,22,0,,,,,,,,,,,,,,,,,,,,,,1248.808233,None,,,,,,,,,,,,,,,,,crisis,38,23,sing,old,blue,1244.357796,None,1244.357796,None,5,2.6741283,1244.357796,None,2.6741283,1247.059878,None,1247.572517,None,1247.572517,None,f,1.2115004,1247.572517,None,1.2115004,,,45SingSep063,1,2022_Sep_06_1054,ProdSingRedoBetween,2021.2.3,59.99721613
,,,,23,0,23,0,,,,,,,,,,,,,,,,,,,,,,1254.164336,None,,,,,,,,,,,,,,,,,pressure,158,24,sing,new,null,1249.310455,None,1249.310455,None,3,4.0015567,1249.310455,None,4.0015567,1253.330377,None,1253.845242,None,1253.845242,None,f,0.2988851,1253.845242,None,0.2988851,,,45SingSep063,1,2022_Sep_06_1054,ProdSingRedoBetween,2021.2.3,59.99721613
,,,,24,0,24,0,,,,,,,,,,,,,,,,,,,,,,1259.185393,None,,,,,,,,,,,,,,,,,track,30,25,sing,old,blue,1254.682347,None,1254.682347,None,2,2.7978341,1254.682347,None,2.7978341,1257.501679,None,1258.016109,None,1258.016109,None,f,1.1437388,1258.016109,None,1.1437388,,,45SingSep063,1,2022_Sep_06_1054,ProdSingRedoBetween,2021.2.3,59.99721613
,,,,25,0,25,0,,,,,,,,,,,,,,,,,,,,,,1270.378613,None,,,,,,,,,,,,,,,,,skill,93,26,sing,new,null,1259.68821,None,1259.68821,None,5,5.7277557,1259.68821,None,5.7277557,1265.442852,None,1265.958136,None,1265.958136,None,f,4.393801,1265.958136,None,4.393801,,,45SingSep063,1,2022_Sep_06_1054,ProdSingRedoBetween,2021.2.3,59.99721613
,,,,26,0,26,0,,,,,,,,,,,,,,,,,,,,,,1275.000651,None,,,,,,,,,,,,,,,,,whole,18,27,sing,old,yellow,1270.881877,None,1270.881877,None,6,2.2462621,1270.881877,None,2.2462621,1273.150036,None,1273.665777,None,1273.665777,None,r,1.3101677,1273.665777,None,1.3101677,,,45SingSep063,1,2022_Sep_06_1054,ProdSingRedoBetween,2021.2.3,59.99721613
,,,,27,0,27,0,,,,,,,,,,,,,,,,,,,,,,1279.522278,None,,,,,,,,,,,,,,,,,contract,119,28,sing,new,null,1275.502253,None,1275.502253,None,6,2.3536681,1275.502253,None,2.3536681,1277.888057,None,1278.403744,None,1278.403744,None,r,1.0922194,1278.403744,None,1.0922194,,,45SingSep063,1,2022_Sep_06_1054,ProdSingRedoBetween,2021.2.3,59.99721613
,,,,28,0,28,0,,,,,,,,,,,,,,,,,,,,,,1284.109595,None,,,,,,,,,,,,,,,,,little,170,29,sing,new,null,1280.02419,None,1280.02419,None,2,2.1596571,1280.02419,None,2.1596571,1282.209136,None,1282.724344,None,1282.724344,None,f,1.3556172,1282.724344,None,1.3556172,,,45SingSep063,1,2022_Sep_06_1054,ProdSingRedoBetween,2021.2.3,59.99721613
,,,,29,0,29,0,,,,,,,,,,,,,,,,,,,,,,1289.249696,None,,,,,,,,,,,,,,,,,waste,53,30,sing,old,blue,1284.612608,None,1284.612608,None,6,2.2273043,1284.612608,None,2.2273043,1286.864723,None,1287.379599,None,1287.379599,None,r,1.8523275,1287.379599,None,1.8523275,,,45SingSep063,1,2022_Sep_06_1054,ProdSingRedoBetween,2021.2.3,59.99721613
,,,,30,0,30,0,,,,,,,,,,,,,,,,,,,,,,1294.00272,None,,,,,,,,,,,,,,,,,command,112,31,sing,new,null,1289.767008,None,1289.767008,None,5,2.4888817,1289.767008,None,2.4888817,1292.285437,None,1292.801126,None,1292.801126,None,f,1.1747755,1292.801126,None,1.1747755,,,45SingSep063,1,2022_Sep_06_1054,ProdSingRedoBetween,2021.2.3,59.99721613
,,,,31,0,31,0,,,,,,,,,,,,,,,,,,,,,,1298.490687,None,,,,,,,,,,,,,,,,,agency,48,32,sing,old,blue,1294.505475,None,1294.505475,None,6,2.2544792,1294.505475,None,2.2544792,1296.790979,None,1297.305696,None,1297.305696,None,r,1.1662444,1297.305696,None,1.1662444,,,45SingSep063,1,2022_Sep_06_1054,ProdSingRedoBetween,2021.2.3,59.99721613
,,,,32,0,32,0,,,,,,,,,,,,,,,,,,,,,,1301.576401,None,,,,,,,,,,,,,,,,,symbol,84,33,sing,old,red,1298.993688,None,1298.993688,None,6,1.6063231,1298.993688,None,1.6063231,1300.627415,None,1301.142449,None,1301.142449,None,r,0.4094812,1301.142449,None,0.4094812,,,45SingSep063,1,2022_Sep_06_1054,ProdSingRedoBetween,2021.2.3,59.99721613
,,,,33,0,33,0,,,,,,,,,,,,,,,,,,,,,,1304.930855,None,,,,,,,,,,,,,,,,,country,125,34,sing,new,null,1302.07979,None,1302.07979,None,5,1.9441634,1302.07979,None,1.9441634,1304.048039,None,1304.56344,None,1304.56344,None,f,0.3485013,1304.56344,None,0.3485013,,,45SingSep063,1,2022_Sep_06_1054,ProdSingRedoBetween,2021.2.3,59.99721613
,,,,34,0,34,0,,,,,,,,,,,,,,,,,,,,,,1307.966773,None,,,,,,,,,,,,,,,,,meeting,155,35,sing,new,null,1305.433252,None,1305.433252,None,5,1.5906937,1305.433252,None,1.5906937,1307.050692,None,1307.565899,None,1307.565899,None,f,0.3699972,1307.565899,None,0.3699972,,,45SingSep063,1,2022_Sep_06_1054,ProdSingRedoBetween,2021.2.3,59.99721613
,,,,35,0,35,0,,,,,,,,,,,,,,,,,,,,,,1313.088646,None,,,,,,,,,,,,,,,,,balance,8,36,sing,old,yellow,1308.476631,None,1308.476631,None,2,2.235295,1308.476631,None,2.235295,1310.749885,None,1311.253898,None,1311.253898,None,n,1.8179591,1311.253898,None,1.8179591,,,45SingSep063,1,2022_Sep_06_1054,ProdSingRedoBetween,2021.2.3,59.99721613
,,,,36,0,36,0,,,,,,,,,,,,,,,,,,,,,,1316.392134,None,,,,,,,,,,,,,,,,,block,11,37,sing,old,yellow,1313.591114,None,1313.591114,None,5,1.7292332,1313.591114,None,1.7292332,1315.342709,None,1315.857826,None,1315.857826,None,f,0.5181377,1315.857826,None,0.5181377,,,45SingSep063,1,2022_Sep_06_1054,ProdSingRedoBetween,2021.2.3,59.99721613
,,,,37,0,37,0,,,,,,,,,,,,,,,,,,,,,,1320.830845,None,,,,,,,,,,,,,,,,,guard,126,38,sing,new,null,1316.894131,None,1316.894131,None,1,2.3698661,1316.894131,None,2.3698661,1319.296325,None,1319.811754,None,1319.811754,None,n,0.9881681,1319.811754,None,0.9881681,,,45SingSep063,1,2022_Sep_06_1054,ProdSingRedoBetween,2021.2.3,59.99721613
,,,,38,0,38,0,,,,,,,,,,,,,,,,,,,,,,1324.441249,None,,,,,,,,,,,,,,,,,build,76,39,sing,old,red,1321.349788,None,1321.349788,None,5,1.9784245,1321.349788,None,1.9784245,1323.350514,None,1323.867084,None,1323.867084,None,r,0.5490018,1323.867084,None,0.5490018,,,45SingSep063,1,2022_Sep_06_1054,ProdSingRedoBetween,2021.2.3,59.99721613
,,,,39,0,39,0,,,,,,,,,,,,,,,,,,,,,,1329.27122,None,,,,,,,,,,,,,,,,,household,129,40,sing,new,null,1324.957616,None,1324.957616,None,1,1.7064145,1324.957616,None,1.7064145,1326.6917,None,1327.202595,None,1327.202595,None,r,2.0373942,1327.202595,None,2.0373942,,,45SingSep063,1,2022_Sep_06_1054,ProdSingRedoBetween,2021.2.3,59.99721613
,,,,40,0,40,0,,,,,,,,,,,,,,,,,,,,,,1340.599438,None,,,,,,,,,,,,,,,,,sunset,153,41,sing,new,null,1329.7742,None,1329.7742,None,5,4.2017215,1329.7742,None,4.2017215,1333.994442,None,1334.50984,None,1334.50984,None,r,6.0581324,1334.50984,None,6.0581324,,,45SingSep063,1,2022_Sep_06_1054,ProdSingRedoBetween,2021.2.3,59.99721613
,,,,41,0,41,0,,,,,,,,,,,,,,,,,,,,,,1344.854567,None,,,,,,,,,,,,,,,,,machinery,56,42,sing,old,blue,1341.110617,None,1341.110617,None,6,1.9612326,1341.110617,None,1.9612326,1343.10326,None,1343.618523,None,1343.618523,None,r,1.2133876,1343.618523,None,1.2133876,,,45SingSep063,1,2022_Sep_06_1054,ProdSingRedoBetween,2021.2.3,59.99721613
,,,,42,0,42,0,,,,,,,,,,,,,,,,,,,,,,1348.758671,None,,,,,,,,,,,,,,,,,pretty,21,43,sing,old,yellow,1345.365166,None,1345.365166,None,6,2.371001,1345.365166,None,2.371001,1347.758713,None,1348.273465,None,1348.273465,None,r,0.4545263,1348.273465,None,0.4545263,,,45SingSep063,1,2022_Sep_06_1054,ProdSingRedoBetween,2021.2.3,59.99721613
,,,,43,0,43,0,,,,,,,,,,,,,,,,,,,,,,1352.66214,None,,,,,,,,,,,,,,,,,question,179,44,sing,new,null,1349.277842,None,1349.277842,None,5,2.3540492,1349.277842,None,2.3540492,1351.669445,None,1352.1798,None,1352.1798,None,f,0.452172,1352.1798,None,0.452172,,,45SingSep063,1,2022_Sep_06_1054,ProdSingRedoBetween,2021.2.3,59.99721613
,,,,44,0,44,0,,,,,,,,,,,,,,,,,,,,,,1357.517379,None,,,,,,,,,,,,,,,,,general,16,45,sing,old,yellow,1353.164259,None,1353.164259,None,4,3.4117033,1353.164259,None,3.4117033,1356.600056,None,1357.1161,None,1357.1161,None,f,0.3802664,1357.1161,None,0.3802664,,,45SingSep063,1,2022_Sep_06_1054,ProdSingRedoBetween,2021.2.3,59.99721613
,,,,45,0,45,0,,,,,,,,,,,,,,,,,,,,,,1361.920559,None,,,,,,,,,,,,,,,,,tennis,3,46,sing,old,yellow,1358.035558,None,1358.035558,None,3,2.5646135,1358.035558,None,2.5646135,1360.621527,None,1361.136633,None,1361.136633,None,f,0.7673025,1361.136633,None,0.7673025,,,45SingSep063,1,2022_Sep_06_1054,ProdSingRedoBetween,2021.2.3,59.99721613
,,,,46,0,46,0,,,,,,,,,,,,,,,,,,,,,,1365.908629,None,,,,,,,,,,,,,,,,,management,117,47,sing,new,null,1362.423241,None,1362.423241,None,6,1.8887021,1362.423241,None,1.8887021,1364.340631,None,1364.84127,None,1364.84127,None,r,1.0469235,1364.84127,None,1.0469235,,,45SingSep063,1,2022_Sep_06_1054,ProdSingRedoBetween,2021.2.3,59.99721613
,,,,47,0,47,0,,,,,,,,,,,,,,,,,,,,,,1371.2674,None,,,,,,,,,,,,,,,,,trial,175,48,sing,new,null,1366.41342,None,1366.41342,None,2,3.0985298,1366.41342,None,3.0985298,1369.529526,None,1370.033697,None,1370.033697,None,f,1.1983001,1370.033697,None,1.1983001,,,45SingSep063,1,2022_Sep_06_1054,ProdSingRedoBetween,2021.2.3,59.99721613
,,,,48,0,48,0,,,,,,,,,,,,,,,,,,,,,,1375.168462,None,,,,,,,,,,,,,,,,,impact,142,49,sing,new,null,1371.784411,None,1371.784411,None,2,2.4715376,1371.784411,None,2.4715376,1374.284815,None,1374.799504,None,1374.799504,None,f,0.3364985,1374.799504,None,0.3364985,,,45SingSep063,1,2022_Sep_06_1054,ProdSingRedoBetween,2021.2.3,59.99721613
,,,,49,0,49,0,,,,,,,,,,,,,,,,,,,,,,1380.190458,None,,,,,,,,,,,,,,,,,still,39,50,sing,old,blue,1375.686096,None,1375.686096,None,5,3.7058747,1375.686096,None,3.7058747,1379.423341,None,1379.938852,None,1379.938852,None,f,0.2292836,1379.938852,None,0.2292836,,,45SingSep063,1,2022_Sep_06_1054,ProdSingRedoBetween,2021.2.3,59.99721613
,,,,50,0,50,0,,,,,,,,,,,,,,,,,,,,,,1385.477567,None,,,,,,,,,,,,,,,,,emergency,23,51,sing,old,yellow,1380.711609,None,1380.711609,None,6,1.8645733,1380.711609,None,1.8645733,1382.609177,None,1383.124813,None,1383.124813,None,r,2.3310987,1383.124813,None,2.3310987,,,45SingSep063,1,2022_Sep_06_1054,ProdSingRedoBetween,2021.2.3,59.99721613
,,,,51,0,51,0,,,,,,,,,,,,,,,,,,,,,,1390.24801,None,,,,,,,,,,,,,,,,,private,68,52,sing,old,red,1385.980371,None,1385.980371,None,6,2.8435703,1385.980371,None,2.8435703,1388.849539,None,1389.365568,None,1389.365568,None,r,0.8663498,1389.365568,None,0.8663498,,,45SingSep063,1,2022_Sep_06_1054,ProdSingRedoBetween,2021.2.3,59.99721613
,,,,52,0,52,0,,,,,,,,,,,,,,,,,,,,,,1394.069714,None,,,,,,,,,,,,,,,,,chief,59,53,sing,old,yellow,1390.751387,None,1390.751387,None,3,2.4165912,1390.751387,None,2.4165912,1393.187,None,1393.702484,None,1393.702484,None,f,0.3375266,1393.702484,None,0.3375266,,,45SingSep063,1,2022_Sep_06_1054,ProdSingRedoBetween,2021.2.3,59.99721613
,,,,53,0,53,0,,,,,,,,,,,,,,,,,,,,,,1398.057002,None,,,,,,,,,,,,,,,,,comfort,100,54,sing,new,null,1394.572754,None,1394.572754,None,6,2.4832489,1394.572754,None,2.4832489,1397.074314,None,1397.589679,None,1397.589679,None,r,0.4422889,1397.589679,None,0.4422889,,,45SingSep063,1,2022_Sep_06_1054,ProdSingRedoBetween,2021.2.3,59.99721613
,,,,54,0,54,0,,,,,,,,,,,,,,,,,,,,,,1407.818669,None,,,,,,,,,,,,,,,,,income,41,55,sing,old,blue,1398.558793,None,1398.558793,None,4,7.1771167,1398.558793,None,7.1771167,1405.765605,None,1406.281217,None,1406.281217,None,n,1.5187746,1406.281217,None,1.5187746,,,45SingSep063,1,2022_Sep_06_1054,ProdSingRedoBetween,2021.2.3,59.99721613
,,,,55,0,55,0,,,,,,,,,,,,,,,,,,,,,,1413.071888,None,,,,,,,,,,,,,,,,,surprise,122,56,sing,new,null,1408.335626,None,1408.335626,None,4,3.3923164,1408.335626,None,3.3923164,1411.758098,None,1412.270625,None,1412.270625,None,f,0.7693479,1412.270625,None,0.7693479,,,45SingSep063,1,2022_Sep_06_1054,ProdSingRedoBetween,2021.2.3,59.99721613
,,,,56,0,56,0,,,,,,,,,,,,,,,,,,,,,,1417.409884,None,,,,,,,,,,,,,,,,,clear,31,57,sing,old,blue,1413.574033,None,1413.574033,None,4,2.9779676,1413.574033,None,2.9779676,1416.589058,None,1417.092094,None,1417.092094,None,f,0.2919048,1417.092094,None,0.2919048,,,45SingSep063,1,2022_Sep_06_1054,ProdSingRedoBetween,2021.2.3,59.99721613
,,,,57,0,57,0,,,,,,,,,,,,,,,,,,,,,,1420.680263,None,,,,,,,,,,,,,,,,,surface,160,58,sing,new,null,1417.912316,None,1417.912316,None,5,1.5756642,1417.912316,None,1.5756642,1419.513289,None,1420.028671,None,1420.028671,None,f,0.6193362,1420.028671,None,0.6193362,,,45SingSep063,1,2022_Sep_06_1054,ProdSingRedoBetween,2021.2.3,59.99721613
,,,,58,0,58,0,,,,,,,,,,,,,,,,,,,,,,1424.566464,None,,,,,,,,,,,,,,,,,revolution,133,59,sing,new,null,1421.197982,None,1421.197982,None,1,1.7060419,1421.197982,None,1.7060419,1422.934283,None,1423.448155,None,1423.448155,None,n,1.0878475,1423.448155,None,1.0878475,,,45SingSep063,1,2022_Sep_06_1054,ProdSingRedoBetween,2021.2.3,59.99721613
,,,,59,0,59,0,,,,,,,,,,,,,,,,,,,,,,1428.604936,None,,,,,,,,,,,,,,,,,dispute,47,60,sing,old,blue,1425.069677,None,1425.069677,None,5,2.2984677,1425.069677,None,2.2984677,1427.387842,None,1427.903479,None,1427.903479,None,f,0.6724644,1427.903479,None,0.6724644,,,45SingSep063,1,2022_Sep_06_1054,ProdSingRedoBetween,2021.2.3,59.99721613
,,,,60,0,60,0,,,,,,,,,,,,,,,,,,,,,,1432.142648,None,,,,,,,,,,,,,,,,,graduate,61,61,sing,old,red,1429.106322,None,1429.106322,None,6,1.4857637,1429.106322,None,1.4857637,1430.625285,None,1431.139837,None,1431.139837,None,r,0.9720981,1431.139837,None,0.9720981,,,45SingSep063,1,2022_Sep_06_1054,ProdSingRedoBetween,2021.2.3,59.99721613
,,,,61,0,61,0,,,,,,,,,,,,,,,,,,,,,,1435.644955,None,,,,,,,,,,,,,,,,,benefit,27,62,sing,old,yellow,1432.662078,None,1432.662078,None,6,2.0338636,1432.662078,None,2.0338636,1434.729339,None,1435.243791,None,1435.243791,None,r,0.3805921,1435.243791,None,0.3805921,,,45SingSep063,1,2022_Sep_06_1054,ProdSingRedoBetween,2021.2.3,59.99721613
,,,,62,0,62,0,,,,,,,,,,,,,,,,,,,,,,1438.380633,None,,,,,,,,,,,,,,,,,century,17,63,sing,old,yellow,1436.146402,None,1436.146402,None,6,1.4055479,1436.146402,None,1.4055479,1437.583259,None,1438.098187,None,1438.098187,None,r,0.2620505,1438.098187,None,0.2620505,,,45SingSep063,1,2022_Sep_06_1054,ProdSingRedoBetween,2021.2.3,59.99721613
,,,,63,0,63,0,,,,,,,,,,,,,,,,,,,,,,1440.968643,None,,,,,,,,,,,,,,,,,career,40,64,sing,old,blue,1438.882865,None,1438.882865,None,6,1.221064,1438.882865,None,1.221064,1440.133751,None,1440.649696,None,1440.649696,None,r,0.294264,1440.649696,None,0.294264,,,45SingSep063,1,2022_Sep_06_1054,ProdSingRedoBetween,2021.2.3,59.99721613
,,,,64,0,64,0,,,,,,,,,,,,,,,,,,,,,,1445.370663,None,,,,,,,,,,,,,,,,,attack,156,65,sing,new,null,1441.485528,None,1441.485528,None,3,2.0424903,1441.485528,None,2.0424903,1443.554541,None,1444.068903,None,1444.068903,None,f,1.2832721,1444.068903,None,1.2832721,,,45SingSep063,1,2022_Sep_06_1054,ProdSingRedoBetween,2021.2.3,59.99721613
,,,,65,0,65,0,,,,,,,,,,,,,,,,,,,,,,1448.306913,None,,,,,,,,,,,,,,,,,addition,58,66,sing,old,blue,1445.873862,None,1445.873862,None,6,1.6787421,1445.873862,None,1.6787421,1447.574512,None,1448.089402,None,1448.089402,None,r,0.1989672,1448.089402,None,0.1989672,,,45SingSep063,1,2022_Sep_06_1054,ProdSingRedoBetween,2021.2.3,59.99721613
,,,,66,0,66,0,,,,,,,,,,,,,,,,,,,,,,1452.814158,None,,,,,,,,,,,,,,,,,frank,104,67,sing,new,null,1448.809891,None,1448.809891,None,1,1.5020365,1448.809891,None,1.5020365,1450.344463,None,1450.859565,None,1450.859565,None,n,1.9326605,1450.859565,None,1.9326605,,,45SingSep063,1,2022_Sep_06_1054,ProdSingRedoBetween,2021.2.3,59.99721613
,,,,67,0,67,0,,,,,,,,,,,,,,,,,,,,,,1456.664639,None,,,,,,,,,,,,,,,,,orchestra,150,68,sing,new,null,1453.330507,None,1453.330507,None,1,1.7815257,1453.330507,None,1.7815257,1455.133449,None,1455.647148,None,1455.647148,None,n,1.0008225,1455.647148,None,1.0008225,,,45SingSep063,1,2022_Sep_06_1054,ProdSingRedoBetween,2021.2.3,59.99721613
,,,,68,0,68,0,,,,,,,,,,,,,,,,,,,,,,1460.872071,None,,,,,,,,,,,,,,,,,broke,67,69,sing,old,red,1457.166211,None,1457.166211,None,1,2.817963,1457.166211,None,2.817963,1460.004248,None,1460.520328,None,1460.520328,None,n,0.3196803,1460.520328,None,0.3196803,,,45SingSep063,1,2022_Sep_06_1054,ProdSingRedoBetween,2021.2.3,59.99721613
,,,,69,0,69,0,,,,,,,,,,,,,,,,,,,,,,1466.091375,None,,,,,,,,,,,,,,,,,partner,145,70,sing,new,null,1461.389117,None,1461.389117,None,3,2.4990539,1461.389117,None,2.4990539,1463.907724,None,1464.422516,None,1464.422516,None,f,1.6414794,1464.422516,None,1.6414794,,,45SingSep063,1,2022_Sep_06_1054,ProdSingRedoBetween,2021.2.3,59.99721613
,,,,70,0,70,0,,,,,,,,,,,,,,,,,,,,,,1469.912066,None,,,,,,,,,,,,,,,,,poetry,73,71,sing,old,red,1466.594569,None,1466.594569,None,6,1.9414655,1466.594569,None,1.9414655,1468.56213,None,1469.081645,None,1469.081645,None,r,0.8063316,1469.081645,None,0.8063316,,,45SingSep063,1,2022_Sep_06_1054,ProdSingRedoBetween,2021.2.3,59.99721613
,,,,71,0,71,0,,,,,,,,,,,,,,,,,,,,,,1473.732442,None,,,,,,,,,,,,,,,,,period,141,72,sing,new,null,1470.419352,None,1470.419352,None,5,2.0446599,1470.419352,None,2.0446599,1472.483711,None,1472.999117,None,1472.999117,None,f,0.704833,1472.999117,None,0.704833,,,45SingSep063,1,2022_Sep_06_1054,ProdSingRedoBetween,2021.2.3,59.99721613
,,,,72,0,72,0,,,,,,,,,,,,,,,,,,,,,,1478.137098,None,,,,,,,,,,,,,,,,,light,163,73,sing,new,null,1474.235081,None,1474.235081,None,2,1.67697,1474.235081,None,1.67697,1475.936806,None,1476.451247,None,1476.451247,None,n,1.6687319,1476.451247,None,1.6687319,,,45SingSep063,1,2022_Sep_06_1054,ProdSingRedoBetween,2021.2.3,59.99721613
,,,,73,0,73,0,,,,,,,,,,,,,,,,,,,,,,1483.392022,None,,,,,,,,,,,,,,,,,broad,113,74,sing,new,null,1478.63955,None,1478.63955,None,3,2.7124028,1478.63955,None,2.7124028,1481.374654,None,1481.890564,None,1481.890564,None,f,1.4854133,1481.890564,None,1.4854133,,,45SingSep063,1,2022_Sep_06_1054,ProdSingRedoBetween,2021.2.3,59.99721613
,,,,74,0,74,0,,,,,,,,,,,,,,,,,,,,,,1486.811733,None,,,,,,,,,,,,,,,,,scale,74,75,sing,old,red,1483.893729,None,1483.893729,None,5,1.9942095,1483.893729,None,1.9942095,1485.912701,None,1486.426741,None,1486.426741,None,f,0.3655378,1486.426741,None,0.3655378,,,45SingSep063,1,2022_Sep_06_1054,ProdSingRedoBetween,2021.2.3,59.99721613
,,,,75,0,75,0,,,,,,,,,,,,,,,,,,,,,,1490.500492,None,,,,,,,,,,,,,,,,,people,33,76,sing,old,blue,1487.315357,None,1487.315357,None,4,2.2288037,1487.315357,None,2.2288037,1489.566881,None,1490.081542,None,1490.081542,None,f,0.3904536,1490.081542,None,0.3904536,,,45SingSep063,1,2022_Sep_06_1054,ProdSingRedoBetween,2021.2.3,59.99721613
,,,,76,0,76,0,,,,,,,,,,,,,,,,,,,,,,1494.520683,None,,,,,,,,,,,,,,,,,motion,62,77,sing,old,red,1491.017433,None,1491.017433,None,1,1.9746226,1491.017433,None,1.9746226,1493.019601,None,1493.534711,None,1493.534711,None,n,0.9612394,1493.534711,None,0.9612394,,,45SingSep063,1,2022_Sep_06_1054,ProdSingRedoBetween,2021.2.3,59.99721613
,,,,77,0,77,0,,,,,,,,,,,,,,,,,,,,,,1497.673183,None,,,,,,,,,,,,,,,,,property,26,78,sing,old,yellow,1495.022748,None,1495.022748,None,5,1.7051469,1495.022748,None,1.7051469,1496.757635,None,1497.272744,None,1497.272744,None,f,0.3834117,1497.272744,None,0.3834117,,,45SingSep063,1,2022_Sep_06_1054,ProdSingRedoBetween,2021.2.3,59.99721613
,,,,78,0,78,0,,,,,,,,,,,,,,,,,,,,,,1501.410323,None,,,,,,,,,,,,,,,,,committee,167,79,sing,new,null,1498.181794,None,1498.181794,None,4,2.3381724,1498.181794,None,2.3381724,1500.548559,None,1501.059208,None,1501.059208,None,f,0.3328452,1501.059208,None,0.3328452,,,45SingSep063,1,2022_Sep_06_1054,ProdSingRedoBetween,2021.2.3,59.99721613
,,,,79,0,79,0,,,,,,,,,,,,,,,,,,,,,,1504.614052,None,,,,,,,,,,,,,,,,,comedy,35,80,sing,old,blue,1501.915036,None,1501.915036,None,5,1.909046,1501.915036,None,1.909046,1503.847646,None,1504.363615,None,1504.363615,None,f,0.2204896,1504.363615,None,0.2204896,,,45SingSep063,1,2022_Sep_06_1054,ProdSingRedoBetween,2021.2.3,59.99721613
,,,,80,0,80,0,,,,,,,,,,,,,,,,,,,,,,1510.769671,None,,,,,,,,,,,,,,,,,bitter,51,81,sing,old,blue,1505.131455,None,1505.131455,None,2,3.6766101,1505.131455,None,3.6766101,1508.835364,None,1509.350879,None,1509.350879,None,n,1.3931781,1509.350879,None,1.3931781,,,45SingSep063,1,2022_Sep_06_1054,ProdSingRedoBetween,2021.2.3,59.99721613
,,,,81,0,81,0,,,,,,,,,,,,,,,,,,,,,,1514.656339,None,,,,,,,,,,,,,,,,,primary,6,82,sing,old,yellow,1511.271027,None,1511.271027,None,6,1.7691129,1511.271027,None,1.7691129,1513.074302,None,1513.588767,None,1513.588767,None,r,1.0432749,1513.588767,None,1.0432749,,,45SingSep063,1,2022_Sep_06_1054,ProdSingRedoBetween,2021.2.3,59.99721613
,,,,82,0,82,0,,,,,,,,,,,,,,,,,,,,,,1518.328585,None,,,,,,,,,,,,,,,,,treatment,92,83,sing,new,null,1515.167506,None,1515.167506,None,6,2.2246371,1515.167506,None,2.2246371,1517.410781,None,1517.926497,None,1517.926497,None,r,0.3695537,1517.926497,None,0.3695537,,,45SingSep063,1,2022_Sep_06_1054,ProdSingRedoBetween,2021.2.3,59.99721613
,,,,83,0,83,0,,,,,,,,,,,,,,,,,,,,,,1522.84848,None,,,,,,,,,,,,,,,,,clean,116,84,sing,new,null,1518.845434,None,1518.845434,None,4,2.906577,1518.845434,None,2.906577,1521.781775,None,1522.297678,None,1522.297678,None,f,0.5263749,1522.297678,None,0.5263749,,,45SingSep063,1,2022_Sep_06_1054,ProdSingRedoBetween,2021.2.3,59.99721613
,,,,84,0,84,0,,,,,,,,,,,,,,,,,,,,,,1527.286351,None,,,,,,,,,,,,,,,,,majority,90,85,sing,new,null,1523.351592,None,1523.351592,None,1,2.7364351,1523.351592,None,2.7364351,1526.119672,None,1526.635508,None,1526.635508,None,n,0.6286337,1526.635508,None,0.6286337,,,45SingSep063,1,2022_Sep_06_1054,ProdSingRedoBetween,2021.2.3,59.99721613
,,,,85,0,85,0,,,,,,,,,,,,,,,,,,,,,,1530.523124,None,,,,,,,,,,,,,,,,,thick,99,86,sing,new,null,1527.78895,None,1527.78895,None,1,1.8513006,1527.78895,None,1.8513006,1529.674309,None,1530.188775,None,1530.188775,None,n,0.3072103,1530.188775,None,0.3072103,,,45SingSep063,1,2022_Sep_06_1054,ProdSingRedoBetween,2021.2.3,59.99721613
,,,,86,0,86,0,,,,,,,,,,,,,,,,,,,,,,1534.576721,None,,,,,,,,,,,,,,,,,split,174,87,sing,new,null,1531.024157,None,1531.024157,None,2,1.7439014,1531.024157,None,1.7439014,1532.794053,None,1533.308705,None,1533.308705,None,n,1.251334,1533.308705,None,1.251334,,,45SingSep063,1,2022_Sep_06_1054,ProdSingRedoBetween,2021.2.3,59.99721613
,,,,87,0,87,0,,,,,,,,,,,,,,,,,,,,,,1538.029881,None,,,,,,,,,,,,,,,,,bicycle,147,88,sing,new,null,1535.079664,None,1535.079664,None,1,1.9364064,1535.079664,None,1.9364064,1537.04674,None,1537.562803,None,1537.562803,None,n,0.4372919,1537.562803,None,0.4372919,,,45SingSep063,1,2022_Sep_06_1054,ProdSingRedoBetween,2021.2.3,59.99721613
,,,,88,0,88,0,,,,,,,,,,,,,,,,,,,,,,1541.416657,None,,,,,,,,,,,,,,,,,crowd,65,89,sing,old,red,1538.532929,None,1538.532929,None,5,2.0190822,1538.532929,None,2.0190822,1540.583938,None,1541.100691,None,1541.100691,None,f,0.2993259,1541.100691,None,0.2993259,,,45SingSep063,1,2022_Sep_06_1054,ProdSingRedoBetween,2021.2.3,59.99721613
,,,,89,0,89,0,,,,,,,,,,,,,,,,,,,,,,1544.969893,None,,,,,,,,,,,,,,,,,agreement,66,90,sing,old,red,1541.919766,None,1541.919766,None,4,2.2643179,1541.919766,None,2.2643179,1544.204303,None,1544.719424,None,1544.719424,None,f,0.2246637,1544.719424,None,0.2246637,,,45SingSep063,1,2022_Sep_06_1054,ProdSingRedoBetween,2021.2.3,59.99721613
,,,,90,0,90,0,,,,,,,,,,,,,,,,,,,,,,1549.726438,None,,,,,,,,,,,,,,,,,resistance,137,91,sing,new,null,1545.473002,None,1545.473002,None,3,3.6071169,1545.473002,None,3.6071169,1549.109247,None,1549.624662,None,1549.624662,None,f,0.0797252,1549.624662,None,0.0797252,,,45SingSep063,1,2022_Sep_06_1054,ProdSingRedoBetween,2021.2.3,59.99721613
,,,,91,0,91,0,,,,,,,,,,,,,,,,,,,,,,1553.962519,None,,,,,,,,,,,,,,,,,empty,176,92,sing,new,null,1550.245427,None,1550.245427,None,4,1.962838,1550.245427,None,1.962838,1552.228649,None,1552.744772,None,1552.744772,None,f,1.1912985,1552.744772,None,1.1912985,,,45SingSep063,1,2022_Sep_06_1054,ProdSingRedoBetween,2021.2.3,59.99721613
,,,,92,0,92,0,,,,,,,,,,,,,,,,,,,,,,1558.367638,None,,,,,,,,,,,,,,,,,fellow,140,93,sing,new,null,1554.465385,None,1554.465385,None,2,2.9586576,1554.465385,None,2.9586576,1557.452446,None,1557.966682,None,1557.966682,None,n,0.369436,1557.966682,None,0.369436,,,45SingSep063,1,2022_Sep_06_1054,ProdSingRedoBetween,2021.2.3,59.99721613
,,,,93,0,93,0,,,,,,,,,,,,,,,,,,,,,,1562.522197,None,,,,,,,,,,,,,,,,,republic,114,94,sing,new,null,1558.872037,None,1558.872037,None,1,2.9600799,1558.872037,None,2.9600799,1561.855589,None,1562.371053,None,1562.371053,None,n,0.1330285,1562.371053,None,0.1330285,,,45SingSep063,1,2022_Sep_06_1054,ProdSingRedoBetween,2021.2.3,59.99721613
,,,,94,0,94,0,,,,,,,,,,,,,,,,,,,,,,1567.742998,None,,,,,,,,,,,,,,,,,school,70,95,sing,old,red,1563.027614,None,1563.027614,None,1,3.2606335,1563.027614,None,3.2606335,1566.31017,None,1566.825814,None,1566.825814,None,n,0.8942389,1566.825814,None,0.8942389,,,45SingSep063,1,2022_Sep_06_1054,ProdSingRedoBetween,2021.2.3,59.99721613
,,,,95,0,95,0,,,,,,,,,,,,,,,,,,,,,,1571.44681,None,,,,,,,,,,,,,,,,,passage,45,96,sing,old,blue,1568.252649,None,1568.252649,None,4,2.1474346,1568.252649,None,2.1474346,1570.430899,None,1570.959798,None,1570.959798,None,f,0.4642732,1570.959798,None,0.4642732,,,45SingSep063,1,2022_Sep_06_1054,ProdSingRedoBetween,2021.2.3,59.99721613
,,,,96,0,96,0,,,,,,,,,,,,,,,,,,,,,,1574.983988,None,,,,,,,,,,,,,,,,,corner,42,97,sing,old,blue,1571.949689,None,1571.949689,None,6,1.7944091,1571.949689,None,1.7944091,1573.770281,None,1574.282822,None,1574.282822,None,r,0.6852618,1574.282822,None,0.6852618,,,45SingSep063,1,2022_Sep_06_1054,ProdSingRedoBetween,2021.2.3,59.99721613
,,,,97,0,97,0,,,,,,,,,,,,,,,,,,,,,,1578.221195,None,,,,,,,,,,,,,,,,,notice,144,98,sing,new,null,1575.497859,None,1575.497859,None,5,1.8222661,1575.497859,None,1.8222661,1577.340733,None,1577.852758,None,1577.852758,None,r,0.3476098,1577.852758,None,0.3476098,,,45SingSep063,1,2022_Sep_06_1054,ProdSingRedoBetween,2021.2.3,59.99721613
,,,,98,0,98,0,,,,,,,,,,,,,,,,,,,,,,1582.225049,None,,,,,,,,,,,,,,,,,answer,138,99,sing,new,null,1578.731254,None,1578.731254,None,4,2.6287231,1578.731254,None,2.6287231,1581.391617,None,1581.90657,None,1581.90657,None,r,0.2935174,1581.90657,None,0.2935174,,,45SingSep063,1,2022_Sep_06_1054,ProdSingRedoBetween,2021.2.3,59.99721613
,,,,99,0,99,0,,,,,,,,,,,,,,,,,,,,,,1587.028958,None,,,,,,,,,,,,,,,,,equipment,143,100,sing,new,null,1582.730423,None,1582.730423,None,5,3.4375899,1582.730423,None,3.4375899,1586.196887,None,1586.711947,None,1586.711947,None,r,0.2881622,1586.711947,None,0.2881622,,,45SingSep063,1,2022_Sep_06_1054,ProdSingRedoBetween,2021.2.3,59.99721613
,,,,100,0,100,0,,,,,,,,,,,,,,,,,,,,,,1589.61202,None,,,,,,,,,,,,,,,,,accident,123,101,sing,new,null,1587.53157,None,1587.53157,None,5,1.2044171,1587.53157,None,1.2044171,1588.765213,None,1589.280762,None,1589.280762,None,r,0.2953303,1589.280762,None,0.2953303,,,45SingSep063,1,2022_Sep_06_1054,ProdSingRedoBetween,2021.2.3,59.99721613
,,,,101,0,101,0,,,,,,,,,,,,,,,,,,,,,,1592.468891,None,,,,,,,,,,,,,,,,,judge,37,102,sing,old,blue,1590.116671,None,1590.116671,None,5,1.2353104,1590.116671,None,1.2353104,1591.390026,None,1591.900642,None,1591.900642,None,r,0.5394033,1591.900642,None,0.5394033,,,45SingSep063,1,2022_Sep_06_1054,ProdSingRedoBetween,2021.2.3,59.99721613
,,,,102,0,102,0,,,,,,,,,,,,,,,,,,,,,,1595.8544,None,,,,,,,,,,,,,,,,,guide,77,103,sing,old,red,1592.970022,None,1592.970022,None,5,1.9580584,1592.970022,None,1.9580584,1594.954508,None,1595.470497,None,1595.470497,None,r,0.3535779,1595.470497,None,0.3535779,,,45SingSep063,1,2022_Sep_06_1054,ProdSingRedoBetween,2021.2.3,59.99721613
,,,,103,0,103,0,,,,,,,,,,,,,,,,,,,,,,1600.458843,None,,,,,,,,,,,,,,,,,alert,20,104,sing,old,yellow,1596.356528,None,1596.356528,None,3,2.8115544,1596.356528,None,2.8115544,1599.192595,None,1599.707849,None,1599.707849,None,f,0.7241668,1599.707849,None,0.7241668,,,45SingSep063,1,2022_Sep_06_1054,ProdSingRedoBetween,2021.2.3,59.99721613
,,,,104,0,104,0,,,,,,,,,,,,,,,,,,,,,,1604.279846,None,,,,,,,,,,,,,,,,,raise,169,105,sing,new,null,1600.962793,None,1600.962793,None,1,2.2052576,1600.962793,None,2.2052576,1603.19641,None,1603.712486,None,1603.712486,None,n,0.5515671,1603.712486,None,0.5515671,,,45SingSep063,1,2022_Sep_06_1054,ProdSingRedoBetween,2021.2.3,59.99721613
,,,,105,0,105,0,,,,,,,,,,,,,,,,,,,,,,1608.233751,None,,,,,,,,,,,,,,,,,account,71,106,sing,old,red,1604.789743,None,1604.789743,None,2,1.8904371,1604.789743,None,1.8904371,1606.69973,None,1607.198454,None,1607.198454,None,n,1.0096497,1607.198454,None,1.0096497,,,45SingSep063,1,2022_Sep_06_1054,ProdSingRedoBetween,2021.2.3,59.99721613
,,,,106,0,106,0,,,,,,,,,,,,,,,,,,,,,,1613.939305,None,,,,,,,,,,,,,,,,,cover,44,107,sing,old,blue,1608.736837,None,1608.736837,None,4,2.9831756,1608.736837,None,2.9831756,1611.738469,None,1612.253461,None,1612.253461,None,f,1.6668361,1612.253461,None,1.6668361,,,45SingSep063,1,2022_Sep_06_1054,ProdSingRedoBetween,2021.2.3,59.99721613
,,,,107,0,107,0,,,,,,,,,,,,,,,,,,,,,,1618.73326,None,,,,,,,,,,,,,,,,,commercial,72,108,sing,old,red,1614.444592,None,1614.444592,None,5,2.4594172,1614.444592,None,2.4594172,1616.92775,None,1617.446288,None,1617.446288,None,r,1.2577495,1617.446288,None,1.2577495,,,45SingSep063,1,2022_Sep_06_1054,ProdSingRedoBetween,2021.2.3,59.99721613
,,,,108,0,108,0,,,,,,,,,,,,,,,,,,,,,,1621.896642,None,,,,,,,,,,,,,,,,,capital,10,109,sing,old,yellow,1619.249599,None,1619.249599,None,6,1.622495,1619.249599,None,1.622495,1620.902697,None,1621.412699,None,1621.412699,None,r,0.4594337,1621.412699,None,0.4594337,,,45SingSep063,1,2022_Sep_06_1054,ProdSingRedoBetween,2021.2.3,59.99721613
,,,,109,0,109,0,,,,,,,,,,,,,,,,,,,,,,1624.900511,None,,,,,,,,,,,,,,,,,territory,111,110,sing,new,null,1622.40014,None,1622.40014,None,4,1.8400434,1622.40014,None,1.8400434,1624.268545,None,1624.782777,None,1624.782777,None,f,0.0892654,1624.782777,None,0.0892654,,,45SingSep063,1,2022_Sep_06_1054,ProdSingRedoBetween,2021.2.3,59.99721613
,,,,110,0,110,0,,,,,,,,,,,,,,,,,,,,,,1629.321359,None,,,,,,,,,,,,,,,,,afternoon,36,111,sing,old,blue,1625.403858,None,1625.403858,None,5,3.0602295,1625.403858,None,3.0602295,1628.489035,None,1629.004201,None,1629.004201,None,r,0.2918884,1629.004201,None,0.2918884,,,45SingSep063,1,2022_Sep_06_1054,ProdSingRedoBetween,2021.2.3,59.99721613
,,,,111,0,111,0,,,,,,,,,,,,,,,,,,,,,,1632.54331,None,,,,,,,,,,,,,,,,,title,49,112,sing,old,blue,1629.824182,None,1629.824182,None,5,1.7678704,1629.824182,None,1.7678704,1631.625486,None,1632.145021,None,1632.145021,None,r,0.3750367,1632.145021,None,0.3750367,,,45SingSep063,1,2022_Sep_06_1054,ProdSingRedoBetween,2021.2.3,59.99721613
,,,,112,0,112,0,,,,,,,,,,,,,,,,,,,,,,1636.694881,None,,,,,,,,,,,,,,,,,watch,132,113,sing,new,null,1633.060455,None,1633.060455,None,2,2.579886,1633.060455,None,2.579886,1635.665752,None,1636.179491,None,1636.179491,None,f,0.4845887,1636.179491,None,0.4845887,,,45SingSep063,1,2022_Sep_06_1054,ProdSingRedoBetween,2021.2.3,59.99721613
,,,,113,0,113,0,,,,,,,,,,,,,,,,,,,,,,1639.682367,None,,,,,,,,,,,,,,,,,route,87,114,sing,old,red,1637.200742,None,1637.200742,None,4,1.4633445,1637.200742,None,1.4633445,1638.68232,None,1639.197324,None,1639.197324,None,f,0.4669231,1639.197324,None,0.4669231,,,45SingSep063,1,2022_Sep_06_1054,ProdSingRedoBetween,2021.2.3,59.99721613
,,,,114,0,114,0,,,,,,,,,,,,,,,,,,,,,,1643.285295,None,,,,,,,,,,,,,,,,,count,115,115,sing,new,null,1640.200122,None,1640.200122,None,3,1.7040383,1640.200122,None,1.7040383,1641.935399,None,1642.450687,None,1642.450687,None,f,0.8053461,1642.450687,None,0.8053461,,,45SingSep063,1,2022_Sep_06_1054,ProdSingRedoBetween,2021.2.3,59.99721613
,,,,115,0,115,0,,,,,,,,,,,,,,,,,,,,,,1647.589938,None,,,,,,,,,,,,,,,,,group,136,116,sing,new,null,1643.787674,None,1643.787674,None,4,3.0044554,1643.787674,None,3.0044554,1646.823165,None,1647.326514,None,1647.326514,None,f,0.2415262,1647.326514,None,0.2415262,,,45SingSep063,1,2022_Sep_06_1054,ProdSingRedoBetween,2021.2.3,59.99721613
,,,,116,0,116,0,,,,,,,,,,,,,,,,,,,,,,1653.328035,None,,,,,,,,,,,,,,,,,history,103,117,sing,new,null,1648.100796,None,1648.100796,None,5,3.2591806,1648.100796,None,3.2591806,1651.385014,None,1651.893852,None,1651.893852,None,r,1.4102366,1651.893852,None,1.4102366,,,45SingSep063,1,2022_Sep_06_1054,ProdSingRedoBetween,2021.2.3,59.99721613
,,,,117,0,117,0,,,,,,,,,,,,,,,,,,,,,,1656.482212,None,,,,,,,,,,,,,,,,,measure,9,118,sing,old,yellow,1653.83192,None,1653.83192,None,6,1.5362098,1653.83192,None,1.5362098,1655.398771,None,1655.914501,None,1655.914501,None,r,0.5497376,1655.914501,None,0.5497376,,,45SingSep063,1,2022_Sep_06_1054,ProdSingRedoBetween,2021.2.3,59.99721613
,,,,118,0,118,0,,,,,,,,,,,,,,,,,,,,,,1663.371706,None,,,,,,,,,,,,,,,,,bucket,78,119,sing,old,red,1656.984265,None,1656.984265,None,4,3.7599115,1656.984265,None,3.7599115,1660.771134,None,1661.288564,None,1661.288564,None,f,2.0637121,1661.288564,None,2.0637121,,,45SingSep063,1,2022_Sep_06_1054,ProdSingRedoBetween,2021.2.3,59.99721613
,,,,119,0,119,0,,,,,,,,,,,,,,,,,,,,,,1666.326152,None,,,,,,,,,,,,,,,,,expansion,34,120,sing,old,blue,1663.877281,None,1663.877281,None,5,1.8668047,1663.877281,None,1.8668047,1665.775876,None,1666.29199,None,1666.29199,None,f,0.012417,1666.29199,None,0.012417,,,45SingSep063,1,2022_Sep_06_1054,ProdSingRedoBetween,2021.2.3,59.99721613
,,,,120,0,120,0,,,,,,,,,,,,,,,,,,,,,,1669.677874,None,,,,,,,,,,,,,,,,,season,79,121,sing,old,red,1666.843838,None,1666.843838,None,1,1.5882105,1666.843838,None,1.5882105,1668.463731,None,1668.977639,None,1668.977639,None,n,0.6704704,1668.977639,None,0.6704704,,,45SingSep063,1,2022_Sep_06_1054,ProdSingRedoBetween,2021.2.3,59.99721613
,,,,121,0,121,0,,,,,,,,,,,,,,,,,,,,,,1673.783618,None,,,,,,,,,,,,,,,,,congress,127,122,sing,new,null,1670.181031,None,1670.181031,None,2,2.9151574,1670.181031,None,2.9151574,1673.116896,None,1673.63161,None,1673.63161,None,n,0.1205481,1673.63161,None,0.1205481,,,45SingSep063,1,2022_Sep_06_1054,ProdSingRedoBetween,2021.2.3,59.99721613
,,,,122,0,122,0,,,,,,,,,,,,,,,,,,,,,,1678.102939,None,,,,,,,,,,,,,,,,,shape,60,123,sing,old,red,1674.301143,None,1674.301143,None,3,2.6269671,1674.301143,None,2.6269671,1676.9555,None,1677.469605,None,1677.469605,None,f,0.6105201,1677.469605,None,0.6105201,,,45SingSep063,1,2022_Sep_06_1054,ProdSingRedoBetween,2021.2.3,59.99721613
,,,,123,0,123,0,,,,,,,,,,,,,,,,,,,,,,1680.975648,None,,,,,,,,,,,,,,,,,patient,12,124,sing,old,yellow,1678.606421,None,1678.606421,None,4,1.5215922,1678.606421,None,1.5215922,1680.158604,None,1680.671875,None,1680.671875,None,f,0.2801767,1680.671875,None,0.2801767,,,45SingSep063,1,2022_Sep_06_1054,ProdSingRedoBetween,2021.2.3,59.99721613
,,,,124,0,124,0,,,,,,,,,,,,,,,,,,,,,,1683.677195,None,,,,,,,,,,,,,,,,,employment,80,125,sing,old,red,1681.492722,None,1681.492722,None,6,1.2913946,1681.492722,None,1.2913946,1682.809826,None,1683.32524,None,1683.32524,None,r,0.3311502,1683.32524,None,0.3311502,,,45SingSep063,1,2022_Sep_06_1054,ProdSingRedoBetween,2021.2.3,59.99721613
,,,,125,0,125,0,,,,,,,,,,,,,,,,,,,,,,1687.363004,None,,,,,,,,,,,,,,,,,number,57,126,sing,old,blue,1684.194687,None,1684.194687,None,4,2.4136343,1684.194687,None,2.4136343,1686.630283,None,1687.148438,None,1687.148438,None,f,0.1877245,1687.148438,None,0.1877245,,,45SingSep063,1,2022_Sep_06_1054,ProdSingRedoBetween,2021.2.3,59.99721613
,,,,126,0,126,0,,,,,,,,,,,,,,,,,,,,,,1691.216709,None,,,,,,,,,,,,,,,,,swift,124,127,sing,new,null,1687.865847,None,1687.865847,None,1,2.2542336,1687.865847,None,2.2542336,1690.150125,None,1690.666003,None,1690.666003,None,n,0.5261322,1690.666003,None,0.5261322,,,45SingSep063,1,2022_Sep_06_1054,ProdSingRedoBetween,2021.2.3,59.99721613
,,,,127,0,127,0,,,,,,,,,,,,,,,,,,,,,,1694.536118,None,,,,,,,,,,,,,,,,,incident,22,128,sing,old,yellow,1691.720584,None,1691.720584,None,5,1.8637043,1691.720584,None,1.8637043,1693.604648,None,1694.11974,None,1694.11974,None,r,0.4003706,1694.11974,None,0.4003706,,,45SingSep063,1,2022_Sep_06_1054,ProdSingRedoBetween,2021.2.3,59.99721613
,,,,128,0,128,0,,,,,,,,,,,,,,,,,,,,,,1698.774238,None,,,,,,,,,,,,,,,,,touch,7,129,sing,old,yellow,1695.039821,None,1695.039821,None,2,2.760287,1695.039821,None,2.760287,1697.824378,None,1698.339903,None,1698.339903,None,n,0.4042391,1698.339903,None,0.4042391,,,45SingSep063,1,2022_Sep_06_1054,ProdSingRedoBetween,2021.2.3,59.99721613
,,,,129,0,129,0,,,,,,,,,,,,,,,,,,,,,,1704.94756,None,,,,,,,,,,,,,,,,,scene,5,130,sing,old,yellow,1699.277087,None,1699.277087,None,4,4.8030346,1699.277087,None,4.8030346,1704.097649,None,1704.612765,None,1704.612765,None,f,0.3155,1704.612765,None,0.3155,,,45SingSep063,1,2022_Sep_06_1054,ProdSingRedoBetween,2021.2.3,59.99721613
,,,,130,0,130,0,,,,,,,,,,,,,,,,,,,,,,1710.448597,None,,,,,,,,,,,,,,,,,member,107,131,sing,new,null,1705.453555,None,1705.453555,None,5,2.6107738,1705.453555,None,2.6107738,1708.08467,None,1708.599985,None,1708.599985,None,r,1.8164237,1708.599985,None,1.8164237,,,45SingSep063,1,2022_Sep_06_1054,ProdSingRedoBetween,2021.2.3,59.99721613
,,,,131,0,131,0,,,,,,,,,,,,,,,,,,,,,,1714.722763,None,,,,,,,,,,,,,,,,,blind,118,132,sing,new,null,1710.95686,None,1710.95686,None,2,3.0112969,1710.95686,None,3.0112969,1713.990478,None,1714.505609,None,1714.505609,None,n,0.1904817,1714.505609,None,0.1904817,,,45SingSep063,1,2022_Sep_06_1054,ProdSingRedoBetween,2021.2.3,59.99721613
,,,,132,0,132,0,,,,,,,,,,,,,,,,,,,,,,1721.013769,None,,,,,,,,,,,,,,,,,stranger,146,133,sing,new,null,1715.226303,None,1715.226303,None,4,5.1257728,1715.226303,None,5.1257728,1720.380809,None,1720.896043,None,1720.896043,None,f,0.0881874,1720.896043,None,0.0881874,,,45SingSep063,1,2022_Sep_06_1054,ProdSingRedoBetween,2021.2.3,59.99721613
,,,,133,0,133,0,,,,,,,,,,,,,,,,,,,,,,1724.384412,None,,,,,,,,,,,,,,,,,write,88,134,sing,old,red,1721.521318,None,1721.521318,None,4,2.2148199,1721.521318,None,2.2148199,1723.767193,None,1724.283206,None,1724.283206,None,r,0.0689362,1724.283206,None,0.0689362,,,45SingSep063,1,2022_Sep_06_1054,ProdSingRedoBetween,2021.2.3,59.99721613
,,,,134,0,134,0,,,,,,,,,,,,,,,,,,,,,,1729.838571,None,,,,,,,,,,,,,,,,,right,168,135,sing,new,null,1724.885398,None,1724.885398,None,4,2.9947383,1724.885398,None,2.9947383,1727.916773,None,1728.419834,None,1728.419834,None,r,1.3883185,1728.419834,None,1.3883185,,,45SingSep063,1,2022_Sep_06_1054,ProdSingRedoBetween,2021.2.3,59.99721613
,,,,135,0,135,0,,,,,,,,,,,,,,,,,,,,,,1732.87493,None,,,,,,,,,,,,,,,,,growth,69,136,sing,old,red,1730.342908,None,1730.342908,None,5,1.4652392,1730.342908,None,1.4652392,1731.82556,None,1732.340667,None,1732.340667,None,r,0.5155607,1732.340667,None,0.5155607,,,45SingSep063,1,2022_Sep_06_1054,ProdSingRedoBetween,2021.2.3,59.99721613
,,,,136,0,136,0,,,,,,,,,,,,,,,,,,,,,,1736.277825,None,,,,,,,,,,,,,,,,,phrase,86,137,sing,old,red,1733.378034,None,1733.378034,None,6,1.9180946,1733.378034,None,1.9180946,1735.328456,None,1735.843886,None,1735.843886,None,r,0.404157,1735.843886,None,0.404157,,,45SingSep063,1,2022_Sep_06_1054,ProdSingRedoBetween,2021.2.3,59.99721613
,,,,137,0,137,0,,,,,,,,,,,,,,,,,,,,,,1739.832713,None,,,,,,,,,,,,,,,,,dance,1,138,sing,old,yellow,1736.789918,None,1736.789918,None,4,2.162176,1736.789918,None,2.162176,1738.981949,None,1739.49747,None,1739.49747,None,f,0.318678,1739.49747,None,0.318678,,,45SingSep063,1,2022_Sep_06_1054,ProdSingRedoBetween,2021.2.3,59.99721613
,,,,138,0,138,0,,,,,,,,,,,,,,,,,,,,,,1743.286336,None,,,,,,,,,,,,,,,,,novel,98,139,sing,new,null,1740.354019,None,1740.354019,None,1,1.3660631,1740.354019,None,1.3660631,1741.762131,None,1742.271235,None,1742.271235,None,n,0.9849386,1742.271235,None,0.9849386,,,45SingSep063,1,2022_Sep_06_1054,ProdSingRedoBetween,2021.2.3,59.99721613
,,,,139,0,139,0,,,,,,,,,,,,,,,,,,,,,,1746.638917,None,,,,,,,,,,,,,,,,,state,55,140,sing,old,blue,1743.803656,None,1743.803656,None,5,1.8444794,1743.803656,None,1.8444794,1745.672665,None,1746.187954,None,1746.187954,None,r,0.4281473,1746.187954,None,0.4281473,,,45SingSep063,1,2022_Sep_06_1054,ProdSingRedoBetween,2021.2.3,59.99721613
,,,,140,0,140,0,,,,,,,,,,,,,,,,,,,,,,1750.659771,None,,,,,,,,,,,,,,,,,generation,101,141,sing,new,null,1747.142128,None,1747.142128,None,4,2.8821612,1747.142128,None,2.8821612,1750.045001,None,1750.559343,None,1750.559343,None,f,0.072799,1750.559343,None,0.072799,,,45SingSep063,1,2022_Sep_06_1054,ProdSingRedoBetween,2021.2.3,59.99721613
,,,,141,0,141,0,,,,,,,,,,,,,,,,,,,,,,1754.447398,None,,,,,,,,,,,,,,,,,conference,14,142,sing,old,yellow,1751.161869,None,1751.161869,None,3,2.3342017,1751.161869,None,2.3342017,1753.519535,None,1754.029448,None,1754.029448,None,f,0.3946863,1754.029448,None,0.3946863,,,45SingSep063,1,2022_Sep_06_1054,ProdSingRedoBetween,2021.2.3,59.99721613
,,,,142,0,142,0,,,,,,,,,,,,,,,,,,,,,,1758.08467,None,,,,,,,,,,,,,,,,,position,161,143,sing,new,null,1754.964954,None,1754.964954,None,1,2.1552152,1754.964954,None,2.1552152,1757.151449,None,1757.665824,None,1757.665824,None,n,0.3985378,1757.665824,None,0.3985378,,,45SingSep063,1,2022_Sep_06_1054,ProdSingRedoBetween,2021.2.3,59.99721613
,,,,143,0,143,0,,,,,,,,,,,,,,,,,,,,,,1760.886359,None,,,,,,,,,,,,,,,,,series,94,144,sing,new,null,1758.601398,None,1758.601398,None,1,1.4470844,1758.601398,None,1.4470844,1760.072932,None,1760.585289,None,1760.585289,None,n,0.278873,1760.585289,None,0.278873,,,45SingSep063,1,2022_Sep_06_1054,ProdSingRedoBetween,2021.2.3,59.99721613
,,,,144,0,144,0,,,,,,,,,,,,,,,,,,,,,,1769.078485,None,,,,,,,,,,,,,,,,,break,110,145,sing,new,null,1761.389077,None,1761.389077,None,4,6.1391097,1761.389077,None,6.1391097,1767.560743,None,1768.076628,None,1768.076628,None,f,0.9715567,1768.076628,None,0.9715567,,,45SingSep063,1,2022_Sep_06_1054,ProdSingRedoBetween,2021.2.3,59.99721613
,,,,145,0,145,0,,,,,,,,,,,,,,,,,,,,,,1772.531315,None,,,,,,,,,,,,,,,,,display,97,146,sing,new,null,1769.596401,None,1769.596401,None,3,2.34795,1769.596401,None,2.34795,1771.970238,None,1772.481103,None,1772.481103,None,f,0.031191,1772.481103,None,0.031191,,,45SingSep063,1,2022_Sep_06_1054,ProdSingRedoBetween,2021.2.3,59.99721613
,,,,146,0,146,0,,,,,,,,,,,,,,,,,,,,,,1777.152133,None,,,,,,,,,,,,,,,,,worker,29,147,sing,old,blue,1773.034462,None,1773.034462,None,4,2.1817544,1773.034462,None,2.1817544,1775.235984,None,1775.751257,None,1775.751257,None,f,1.3768892,1775.751257,None,1.3768892,,,45SingSep063,1,2022_Sep_06_1054,ProdSingRedoBetween,2021.2.3,59.99721613
,,,,147,0,147,0,,,,,,,,,,,,,,,,,,,,,,1781.307534,None,,,,,,,,,,,,,,,,,object,95,148,sing,new,null,1777.666535,None,1777.666535,None,2,2.741565,1777.666535,None,2.741565,1780.440065,None,1780.947277,None,1780.947277,None,n,0.3328936,1780.947277,None,0.3328936,,,45SingSep063,1,2022_Sep_06_1054,ProdSingRedoBetween,2021.2.3,59.99721613
,,,,148,0,148,0,,,,,,,,,,,,,,,,,,,,,,1785.944837,None,,,,,,,,,,,,,,,,,music,19,149,sing,old,yellow,1781.825776,None,1781.825776,None,5,1.4465841,1781.825776,None,1.4465841,1783.296507,None,1783.810518,None,1783.810518,None,r,2.1097068,1783.810518,None,2.1097068,,,45SingSep063,1,2022_Sep_06_1054,ProdSingRedoBetween,2021.2.3,59.99721613
,,,,149,0,149,0,,,,,,,,,,,,,,,,,,,,,,1789.080759,None,,,,,,,,,,,,,,,,,entrance,149,150,sing,new,null,1786.447164,None,1786.447164,None,4,1.7610805,1786.447164,None,1.7610805,1788.231264,None,1788.746504,None,1788.746504,None,r,0.3096885,1788.746504,None,0.3096885,,,45SingSep063,1,2022_Sep_06_1054,ProdSingRedoBetween,2021.2.3,59.99721613
,,,,150,0,150,0,,,,,,,,,,,,,,,,,,,,,,1792.585466,None,,,,,,,,,,,,,,,,,center,64,151,sing,old,red,1789.587305,None,1789.587305,None,4,2.356854,1789.587305,None,2.356854,1791.968913,None,1792.483824,None,1792.483824,None,f,0.0763004,1792.483824,None,0.0763004,,,45SingSep063,1,2022_Sep_06_1054,ProdSingRedoBetween,2021.2.3,59.99721613
,,,,151,0,151,0,,,,,,,,,,,,,,,,,,,,,,1796.17236,None,,,,,,,,,,,,,,,,,staff,105,152,sing,new,null,1793.103178,None,1793.103178,None,1,2.2009548,1793.103178,None,2.2009548,1795.322477,None,1795.837238,None,1795.837238,None,n,0.3069296,1795.837238,None,0.3069296,,,45SingSep063,1,2022_Sep_06_1054,ProdSingRedoBetween,2021.2.3,59.99721613
,,,,152,0,152,0,,,,,,,,,,,,,,,,,,,,,,1798.87539,None,,,,,,,,,,,,,,,,,distance,120,153,sing,new,null,1796.690239,None,1796.690239,None,2,1.4059186,1796.690239,None,1.4059186,1798.125079,None,1798.639945,None,1798.639945,None,n,0.2082706,1798.639945,None,0.2082706,,,45SingSep063,1,2022_Sep_06_1054,ProdSingRedoBetween,2021.2.3,59.99721613
,,,,153,0,153,0,,,,,,,,,,,,,,,,,,,,,,1804.264436,None,,,,,,,,,,,,,,,,,quiet,154,154,sing,new,null,1799.392834,None,1799.392834,None,3,3.751552,1799.392834,None,3.751552,1803.175922,None,1803.684288,None,1803.684288,None,f,0.5478215,1803.684288,None,0.5478215,,,45SingSep063,1,2022_Sep_06_1054,ProdSingRedoBetween,2021.2.3,59.99721613
,,,,154,0,154,0,,,,,,,,,,,,,,,,,,,,,,1809.018369,None,,,,,,,,,,,,,,,,,drama,13,155,sing,old,yellow,1804.772637,None,1804.772637,None,3,3.675624,1804.772637,None,3.675624,1808.468679,None,1808.983483,None,1808.983483,None,f,0.0087196,1808.983483,None,0.0087196,,,45SingSep063,1,2022_Sep_06_1054,ProdSingRedoBetween,2021.2.3,59.99721613
,,,,155,0,155,0,,,,,,,,,,,,,,,,,,,,,,1812.60554,None,,,,,,,,,,,,,,,,,direction,128,156,sing,new,null,1809.535422,None,1809.535422,None,3,1.5447753,1809.535422,None,1.5447753,1811.104423,None,1811.620567,None,1811.620567,None,f,0.9638098,1811.620567,None,0.9638098,,,45SingSep063,1,2022_Sep_06_1054,ProdSingRedoBetween,2021.2.3,59.99721613
,,,,156,0,156,0,,,,,,,,,,,,,,,,,,,,,,1815.324824,None,,,,,,,,,,,,,,,,,budget,83,157,sing,old,red,1813.121926,None,1813.121926,None,1,1.3983461,1813.121926,None,1.3983461,1814.541376,None,1815.05645,None,1815.05645,None,n,0.2397022,1815.05645,None,0.2397022,,,45SingSep063,1,2022_Sep_06_1054,ProdSingRedoBetween,2021.2.3,59.99721613
,,,,157,0,157,0,,,,,,,,,,,,,,,,,,,,,,1818.876781,None,,,,,,,,,,,,,,,,,tragedy,177,158,sing,new,null,1815.829692,None,1815.829692,None,1,1.6665038,1815.829692,None,1.6665038,1817.527524,None,1818.042576,None,1818.042576,None,n,0.8056369,1818.042576,None,0.8056369,,,45SingSep063,1,2022_Sep_06_1054,ProdSingRedoBetween,2021.2.3,59.99721613
,,,,158,0,158,0,,,,,,,,,,,,,,,,,,,,,,1821.397331,None,,,,,,,,,,,,,,,,,session,91,159,sing,new,null,1819.380958,None,1819.380958,None,1,1.1473007,1819.380958,None,1.1473007,1820.547734,None,1821.062661,None,1821.062661,None,n,0.3055128,1821.062661,None,0.3055128,,,45SingSep063,1,2022_Sep_06_1054,ProdSingRedoBetween,2021.2.3,59.99721613
,,,,159,0,159,0,,,,,,,,,,,,,,,,,,,,,,1825.551459,None,,,,,,,,,,,,,,,,,debate,52,160,sing,old,blue,1821.898623,None,1821.898623,None,4,1.5095823,1821.898623,None,1.5095823,1823.434263,None,1823.94945,None,1823.94945,None,f,1.5707374,1823.94945,None,1.5707374,,,45SingSep063,1,2022_Sep_06_1054,ProdSingRedoBetween,2021.2.3,59.99721613
,,,,160,0,160,0,,,,,,,,,,,,,,,,,,,,,,1829.98875,None,,,,,,,,,,,,,,,,,union,159,161,sing,new,null,1826.053452,None,1826.053452,None,1,3.0747837,1826.053452,None,3.0747837,1829.167995,None,1829.670713,None,1829.670713,None,n,0.2978583,1829.670713,None,0.2978583,,,45SingSep063,1,2022_Sep_06_1054,ProdSingRedoBetween,2021.2.3,59.99721613
,,,,161,0,161,0,,,,,,,,,,,,,,,,,,,,,,1832.858505,None,,,,,,,,,,,,,,,,,thing,152,162,sing,new,null,1830.494901,None,1830.494901,None,1,1.401174,1830.494901,None,1.401174,1831.925759,None,1832.440353,None,1832.440353,None,n,0.3999452,1832.440353,None,0.3999452,,,45SingSep063,1,2022_Sep_06_1054,ProdSingRedoBetween,2021.2.3,59.99721613
,,,,162,0,162,0,,,,,,,,,,,,,,,,,,,,,,1835.844202,None,,,,,,,,,,,,,,,,,fashion,32,163,sing,old,blue,1833.361266,None,1833.361266,None,1,1.4709235,1833.361266,None,1.4709235,1834.862059,None,1835.379484,None,1835.379484,None,n,0.4366251,1835.379484,None,0.4366251,,,45SingSep063,1,2022_Sep_06_1054,ProdSingRedoBetween,2021.2.3,59.99721613
,,,,163,0,163,0,,,,,,,,,,,,,,,,,,,,,,1840.381816,None,,,,,,,,,,,,,,,,,leader,165,164,sing,new,null,1836.358524,None,1836.358524,None,1,1.5136391,1836.358524,None,1.5136391,1837.898874,None,1838.413421,None,1838.413421,None,n,1.9388684,1838.413421,None,1.9388684,,,45SingSep063,1,2022_Sep_06_1054,ProdSingRedoBetween,2021.2.3,59.99721613
,,,,164,0,164,0,,,,,,,,,,,,,,,,,,,,,,1843.119591,None,,,,,,,,,,,,,,,,,individual,109,165,sing,new,null,1840.884974,None,1840.884974,None,3,1.6272312,1840.884974,None,1.6272312,1842.536002,None,1843.05163,None,1843.05163,None,f,0.0446112,1843.05163,None,0.0446112,,,45SingSep063,1,2022_Sep_06_1054,ProdSingRedoBetween,2021.2.3,59.99721613
,,,,165,0,165,0,,,,,,,,,,,,,,,,,,,,,,1847.589105,None,,,,,,,,,,,,,,,,,trend,81,166,sing,old,red,1843.63651,None,1843.63651,None,4,1.7478861,1843.63651,None,1.7478861,1845.405112,None,1845.920531,None,1845.920531,None,f,1.6396856,1845.920531,None,1.6396856,,,45SingSep063,1,2022_Sep_06_1054,ProdSingRedoBetween,2021.2.3,59.99721613
,,,,166,0,166,0,,,,,,,,,,,,,,,,,,,,,,1853.279464,None,,,,,,,,,,,,,,,,,interview,46,167,sing,old,blue,1848.0932,None,1848.0932,None,5,4.2672028,1848.0932,None,4.2672028,1852.381707,None,1852.894753,None,1852.894753,None,f,0.3613766,1852.894753,None,0.3613766,,,45SingSep063,1,2022_Sep_06_1054,ProdSingRedoBetween,2021.2.3,59.99721613
,,,,167,0,167,0,,,,,,,,,,,,,,,,,,,,,,1856.014252,None,,,,,,,,,,,,,,,,,edition,4,168,sing,old,yellow,1853.797563,None,1853.797563,None,5,1.3629534,1853.797563,None,1.3629534,1855.181855,None,1855.697081,None,1855.697081,None,f,0.2951325,1855.697081,None,0.2951325,,,45SingSep063,1,2022_Sep_06_1054,ProdSingRedoBetween,2021.2.3,59.99721613
,,,,168,0,168,0,,,,,,,,,,,,,,,,,,,,,,1860.186056,None,,,,,,,,,,,,,,,,,marriage,157,169,sing,new,null,1856.51679,None,1856.51679,None,5,2.5553753,1856.51679,None,2.5553753,1859.114386,None,1859.617953,None,1859.617953,None,f,0.5503559,1859.617953,None,0.5503559,,,45SingSep063,1,2022_Sep_06_1054,ProdSingRedoBetween,2021.2.3,59.99721613
,,,,169,0,169,0,,,,,,,,,,,,,,,,,,,,,,1863.539565,None,,,,,,,,,,,,,,,,,escape,148,170,sing,new,null,1860.690842,None,1860.690842,None,4,1.8935326,1860.690842,None,1.8935326,1862.606421,None,1863.12172,None,1863.12172,None,f,0.3904899,1863.12172,None,0.3904899,,,45SingSep063,1,2022_Sep_06_1054,ProdSingRedoBetween,2021.2.3,59.99721613
,,,,170,0,170,0,,,,,,,,,,,,,,,,,,,,,,1866.559698,None,,,,,,,,,,,,,,,,,cross,178,171,sing,new,null,1864.057273,None,1864.057273,None,1,1.3189403,1864.057273,None,1.3189403,1865.409798,None,1865.92374,None,1865.92374,None,n,0.6124558,1865.92374,None,0.6124558,,,45SingSep063,1,2022_Sep_06_1054,ProdSingRedoBetween,2021.2.3,59.99721613
,,,,171,0,171,0,,,,,,,,,,,,,,,,,,,,,,1869.478209,None,,,,,,,,,,,,,,,,,voice,172,172,sing,new,null,1867.077716,None,1867.077716,None,1,1.3466931,1867.077716,None,1.3466931,1868.444933,None,1868.960757,None,1868.960757,None,n,0.495474,1868.960757,None,0.495474,,,45SingSep063,1,2022_Sep_06_1054,ProdSingRedoBetween,2021.2.3,59.99721613
,,,,172,0,172,0,,,,,,,,,,,,,,,,,,,,,,1873.549583,None,,,,,,,,,,,,,,,,,strength,25,173,sing,old,yellow,1869.980759,None,1869.980759,None,2,2.4354215,1869.980759,None,2.4354215,1872.448403,None,1872.949595,None,1872.949595,None,f,0.5788967,1872.949595,None,0.5788967,,,45SingSep063,1,2022_Sep_06_1054,ProdSingRedoBetween,2021.2.3,59.99721613
,,,,173,0,173,0,,,,,,,,,,,,,,,,,,,,,,1875.919986,None,,,,,,,,,,,,,,,,,sweet,15,174,sing,old,yellow,1874.056353,None,1874.056353,None,3,1.1599474,1874.056353,None,1.1599474,1875.23588,None,1875.750414,None,1875.750414,None,f,0.1457353,1875.750414,None,0.1457353,,,45SingSep063,1,2022_Sep_06_1054,ProdSingRedoBetween,2021.2.3,59.99721613
,,,,174,0,174,0,,,,,,,,,,,,,,,,,,,,,,1879.505719,None,,,,,,,,,,,,,,,,,captain,85,175,sing,old,red,1876.448651,None,1876.448651,None,5,1.4635466,1876.448651,None,1.4635466,1877.938451,None,1878.453738,None,1878.453738,None,f,1.0344983,1878.453738,None,1.0344983,,,45SingSep063,1,2022_Sep_06_1054,ProdSingRedoBetween,2021.2.3,59.99721613
,,,,175,0,175,0,,,,,,,,,,,,,,,,,,,,,,1883.125445,None,,,,,,,,,,,,,,,,,youth,0,176,sing,old,yellow,1880.024237,None,1880.024237,None,4,2.239978,1880.024237,None,2.239978,1882.292591,None,1882.807896,None,1882.807896,None,f,0.2969043,1882.807896,None,0.2969043,,,45SingSep063,1,2022_Sep_06_1054,ProdSingRedoBetween,2021.2.3,59.99721613
,,,,176,0,176,0,,,,,,,,,,,,,,,,,,,,,,1886.329481,None,,,,,,,,,,,,,,,,,candidate,89,177,sing,old,red,1883.62765,None,1883.62765,None,6,1.7005563,1883.62765,None,1.7005563,1885.34595,None,1885.860619,None,1885.860619,None,r,0.4515852,1885.860619,None,0.4515852,,,45SingSep063,1,2022_Sep_06_1054,ProdSingRedoBetween,2021.2.3,59.99721613
,,,,177,0,177,0,,,,,,,,,,,,,,,,,,,,,,1891.168014,None,,,,,,,,,,,,,,,,,military,131,178,sing,new,null,1886.846959,None,1886.846959,None,3,2.6654573,1886.846959,None,2.6654573,1889.533523,None,1890.048034,None,1890.048034,None,f,1.0881039,1890.048034,None,1.0881039,,,45SingSep063,1,2022_Sep_06_1054,ProdSingRedoBetween,2021.2.3,59.99721613
,,,,178,0,178,0,,,,,,,,,,,,,,,,,,,,,,1894.171194,None,,,,,,,,,,,,,,,,,childhood,102,179,sing,new,null,1891.684292,None,1891.684292,None,1,1.6758611,1891.684292,None,1.6758611,1893.386301,None,1893.90197,None,1893.90197,None,n,0.2504287,1893.90197,None,0.2504287,,,45SingSep063,1,2022_Sep_06_1054,ProdSingRedoBetween,2021.2.3,59.99721613
,,,,179,0,179,0,,,,,,,,,,,,,,,,,,,,,,1897.970073,None,,,,,,,,,,,,,,,,,force,151,180,sing,new,null,1894.687993,None,1894.687993,None,1,1.7121832,1894.687993,None,1.7121832,1896.42523,None,1896.938753,None,1896.938753,None,n,0.9976633,1896.938753,None,0.9976633,,,45SingSep063,1,2022_Sep_06_1054,ProdSingRedoBetween,2021.2.3,59.99721613
,,,,,,,,,,,,,,,,,,,,,,,,,,,,,,,,,,,,,,,,,,,,,,,,,,,,,,,,,,,,,,,,,,,,,,,,,1898.473125,None,,,,,,
