StudyLoop.thisRepN,StudyLoop.thisTrialN,StudyLoop.thisN,StudyLoop.thisIndex,TestLoop.thisRepN,TestLoop.thisTrialN,TestLoop.thisN,TestLoop.thisIndex,textCondition.started,textCondition.stopped,keyCondition.keys,keyCondition.rt,keyCondition.started,keyCondition.stopped,Condition,textWelcome.started,textWelcome.stopped,keyWelcome.keys,keyWelcome.rt,keyWelcome.started,keyWelcome.stopped,textAloud.started,textAloud.stopped,textSilent.started,textSilent.stopped,textSing.started,textSing.stopped,conditional_text.started,conditional_text.stopped,textBlank500.started,textBlank500.stopped,study_word,study_num,study_order,study_type,word_color,textStudy.started,textStudy.stopped,keyStudy.keys,keyStudy.started,keyStudy.stopped,textTestInstructions.started,textTestInstructions.stopped,key_resp_3.keys,key_resp_3.rt,key_resp_3.started,key_resp_3.stopped,test_word,test_num,test_order,test_condition,old_new_test,test_word_original_color,textConf.started,textConf.stopped,textConfScale.started,textConfScale.stopped,keyConf.keys,keyConf.rt,keyConf.started,keyConf.stopped,confidence response time,textTestBlank.started,textTestBlank.stopped,textRKN.started,textRKN.stopped,textRKNScale.started,textRKNScale.stopped,keyRKN.keys,keyRKN.rt,keyRKN.started,keyRKN.stopped,rkn response time,textEnd.started,textEnd.stopped,participant,session,date,expName,psychopyVersion,frameRate,
,,,,,,,,50.50165200000629,None,a,4.4412791000067955,50.50165200000629,None,,,,,,,,,,,,,,,,,,,,,,,,,,,,,,,,,,,,,,,,,,,,,,,,,,,,,,,,,,,,,,47aloud,001,2022_Sep_06_1553,ProdSingRedoBetween,2021.2.3,59.96778530303226,
,,,,,,,,,,,,,,SilentTest,54.976970500007155,None,space,471.64624850000837,54.976970500007155,None,,,,,,,,,,,,,,,,,,,,,,,,,,,,,,,,,,,,,,,,,,,,,,,,,,,,,,,47aloud,001,2022_Sep_06_1553,ProdSingRedoBetween,2021.2.3,59.96778530303226,
0,0,0,0,,,,,,,,,,,,,,,,,,54.976970500007155,None,54.976970500007155,None,54.976970500007155,None,54.976970500007155,None,529.1725833999953,None,series,69,1,silent,red,527.1613069000014,None,None,527.1613069000014,None,,,,,,,,,,,,,,,,,,,,,,,,,,,,,,,,,,,47aloud,001,2022_Sep_06_1553,ProdSingRedoBetween,2021.2.3,59.96778530303226,
1,0,1,0,,,,,,,,,,,,,,,,,,,,,,,,,,531.6752724999969,None,blind,77,2,silent,red,529.6753093000007,None,None,529.6753093000007,None,,,,,,,,,,,,,,,,,,,,,,,,,,,,,,,,,,,47aloud,001,2022_Sep_06_1553,ProdSingRedoBetween,2021.2.3,59.96778530303226,
2,0,2,0,,,,,,,,,,,,,,,,,,,,,,,,,,534.1943456000008,None,count,50,3,silent,blue,532.1790612000041,None,None,532.1790612000041,None,,,,,,,,,,,,,,,,,,,,,,,,,,,,,,,,,,,47aloud,001,2022_Sep_06_1553,ProdSingRedoBetween,2021.2.3,59.96778530303226,
3,0,3,0,,,,,,,,,,,,,,,,,,,,,,,,,,536.6969508000038,None,audience,65,4,silent,red,534.6955659999949,None,None,534.6955659999949,None,,,,,,,,,,,,,,,,,,,,,,,,,,,,,,,,,,,47aloud,001,2022_Sep_06_1553,ProdSingRedoBetween,2021.2.3,59.96778530303226,
4,0,4,0,,,,,,,,,,,,,,,,,,,,,,,,,,539.1993442999956,None,close,82,5,silent,red,537.1999397000036,None,None,537.1999397000036,None,,,,,,,,,,,,,,,,,,,,,,,,,,,,,,,,,,,47aloud,001,2022_Sep_06_1553,ProdSingRedoBetween,2021.2.3,59.96778530303226,
5,0,5,0,,,,,,,,,,,,,,,,,,,,,,,,,,541.7018449000025,None,payment,16,6,silent,yellow,539.7002697999997,None,None,539.7002697999997,None,,,,,,,,,,,,,,,,,,,,,,,,,,,,,,,,,,,47aloud,001,2022_Sep_06_1553,ProdSingRedoBetween,2021.2.3,59.96778530303226,
6,0,6,0,,,,,,,,,,,,,,,,,,,,,,,,,,544.2207249000057,None,majority,47,7,silent,blue,542.205952999997,None,None,542.205952999997,None,,,,,,,,,,,,,,,,,,,,,,,,,,,,,,,,,,,47aloud,001,2022_Sep_06_1553,ProdSingRedoBetween,2021.2.3,59.96778530303226,
7,0,7,0,,,,,,,,,,,,,,,,,,,,,,,,,,546.7234929999977,None,touch,72,8,silent,red,544.7215266999992,None,None,544.7215266999992,None,,,,,,,,,,,,,,,,,,,,,,,,,,,,,,,,,,,47aloud,001,2022_Sep_06_1553,ProdSingRedoBetween,2021.2.3,59.96778530303226,
8,0,8,0,,,,,,,,,,,,,,,,,,,,,,,,,,549.2260586000048,None,trail,84,9,silent,red,547.2240757999971,None,None,547.2240757999971,None,,,,,,,,,,,,,,,,,,,,,,,,,,,,,,,,,,,47aloud,001,2022_Sep_06_1553,ProdSingRedoBetween,2021.2.3,59.96778530303226,
9,0,9,0,,,,,,,,,,,,,,,,,,,,,,,,,,551.728560500007,None,union,40,10,silent,blue,549.7284237999993,None,None,549.7284237999993,None,,,,,,,,,,,,,,,,,,,,,,,,,,,,,,,,,,,47aloud,001,2022_Sep_06_1553,ProdSingRedoBetween,2021.2.3,59.96778530303226,
10,0,10,0,,,,,,,,,,,,,,,,,,,,,,,,,,554.2477533000056,None,shape,13,11,silent,yellow,552.2357870999986,None,None,552.2357870999986,None,,,,,,,,,,,,,,,,,,,,,,,,,,,,,,,,,,,47aloud,001,2022_Sep_06_1553,ProdSingRedoBetween,2021.2.3,59.96778530303226,
11,0,11,0,,,,,,,,,,,,,,,,,,,,,,,,,,556.7502585000038,None,murder,53,12,silent,blue,554.7483265000046,None,None,554.7483265000046,None,,,,,,,,,,,,,,,,,,,,,,,,,,,,,,,,,,,47aloud,001,2022_Sep_06_1553,ProdSingRedoBetween,2021.2.3,59.96778530303226,
12,0,12,0,,,,,,,,,,,,,,,,,,,,,,,,,,559.2527433000068,None,smooth,56,13,silent,blue,557.2511704000062,None,None,557.2511704000062,None,,,,,,,,,,,,,,,,,,,,,,,,,,,,,,,,,,,47aloud,001,2022_Sep_06_1553,ProdSingRedoBetween,2021.2.3,59.96778530303226,
13,0,13,0,,,,,,,,,,,,,,,,,,,,,,,,,,561.7553126999992,None,population,14,14,silent,yellow,559.7532577999955,None,None,559.7532577999955,None,,,,,,,,,,,,,,,,,,,,,,,,,,,,,,,,,,,47aloud,001,2022_Sep_06_1553,ProdSingRedoBetween,2021.2.3,59.96778530303226,
14,0,14,0,,,,,,,,,,,,,,,,,,,,,,,,,,564.2741233999986,None,sleep,49,15,silent,blue,562.2603705000074,None,None,562.2603705000074,None,,,,,,,,,,,,,,,,,,,,,,,,,,,,,,,,,,,47aloud,001,2022_Sep_06_1553,ProdSingRedoBetween,2021.2.3,59.96778530303226,
15,0,15,0,,,,,,,,,,,,,,,,,,,,,,,,,,566.7769436999952,None,marriage,30,16,silent,blue,564.776394200002,None,None,564.776394200002,None,,,,,,,,,,,,,,,,,,,,,,,,,,,,,,,,,,,47aloud,001,2022_Sep_06_1553,ProdSingRedoBetween,2021.2.3,59.96778530303226,
16,0,16,0,,,,,,,,,,,,,,,,,,,,,,,,,,569.2794119000027,None,opening,89,17,silent,red,567.2774784000067,None,None,567.2774784000067,None,,,,,,,,,,,,,,,,,,,,,,,,,,,,,,,,,,,47aloud,001,2022_Sep_06_1553,ProdSingRedoBetween,2021.2.3,59.96778530303226,
17,0,17,0,,,,,,,,,,,,,,,,,,,,,,,,,,571.7982883999939,None,budget,59,18,silent,yellow,569.7833535999962,None,None,569.7833535999962,None,,,,,,,,,,,,,,,,,,,,,,,,,,,,,,,,,,,47aloud,001,2022_Sep_06_1553,ProdSingRedoBetween,2021.2.3,59.96778530303226,
18,0,18,0,,,,,,,,,,,,,,,,,,,,,,,,,,574.3010651999939,None,weight,33,19,silent,blue,572.2991668000031,None,None,572.2991668000031,None,,,,,,,,,,,,,,,,,,,,,,,,,,,,,,,,,,,47aloud,001,2022_Sep_06_1553,ProdSingRedoBetween,2021.2.3,59.96778530303226,
19,0,19,0,,,,,,,,,,,,,,,,,,,,,,,,,,576.8203018000058,None,victory,51,20,silent,blue,574.8062544999993,None,None,574.8062544999993,None,,,,,,,,,,,,,,,,,,,,,,,,,,,,,,,,,,,47aloud,001,2022_Sep_06_1553,ProdSingRedoBetween,2021.2.3,59.96778530303226,
20,0,20,0,,,,,,,,,,,,,,,,,,,,,,,,,,579.339518599998,None,universal,24,21,silent,yellow,577.327242600004,None,None,577.327242600004,None,,,,,,,,,,,,,,,,,,,,,,,,,,,,,,,,,,,47aloud,001,2022_Sep_06_1553,ProdSingRedoBetween,2021.2.3,59.96778530303226,
21,0,21,0,,,,,,,,,,,,,,,,,,,,,,,,,,581.8420772999962,None,foundation,66,22,silent,red,579.8429693000071,None,None,579.8429693000071,None,,,,,,,,,,,,,,,,,,,,,,,,,,,,,,,,,,,47aloud,001,2022_Sep_06_1553,ProdSingRedoBetween,2021.2.3,59.96778530303226,
22,0,22,0,,,,,,,,,,,,,,,,,,,,,,,,,,584.3444716999948,None,direction,18,23,silent,yellow,582.3453998000041,None,None,582.3453998000041,None,,,,,,,,,,,,,,,,,,,,,,,,,,,,,,,,,,,47aloud,001,2022_Sep_06_1553,ProdSingRedoBetween,2021.2.3,59.96778530303226,
23,0,23,0,,,,,,,,,,,,,,,,,,,,,,,,,,586.8469372999971,None,dispute,12,24,silent,yellow,584.8449660000042,None,None,584.8449660000042,None,,,,,,,,,,,,,,,,,,,,,,,,,,,,,,,,,,,47aloud,001,2022_Sep_06_1553,ProdSingRedoBetween,2021.2.3,59.96778530303226,
24,0,24,0,,,,,,,,,,,,,,,,,,,,,,,,,,589.3661736000067,None,fellow,27,25,silent,yellow,587.3516681000037,None,None,587.3516681000037,None,,,,,,,,,,,,,,,,,,,,,,,,,,,,,,,,,,,47aloud,001,2022_Sep_06_1553,ProdSingRedoBetween,2021.2.3,59.96778530303226,
25,0,25,0,,,,,,,,,,,,,,,,,,,,,,,,,,591.8685452000063,None,produce,20,26,silent,yellow,589.8667178000032,None,None,589.8667178000032,None,,,,,,,,,,,,,,,,,,,,,,,,,,,,,,,,,,,47aloud,001,2022_Sep_06_1553,ProdSingRedoBetween,2021.2.3,59.96778530303226,
26,0,26,0,,,,,,,,,,,,,,,,,,,,,,,,,,594.3711560000083,None,debate,23,27,silent,yellow,592.3689199000073,None,None,592.3689199000073,None,,,,,,,,,,,,,,,,,,,,,,,,,,,,,,,,,,,47aloud,001,2022_Sep_06_1553,ProdSingRedoBetween,2021.2.3,59.96778530303226,
27,0,27,0,,,,,,,,,,,,,,,,,,,,,,,,,,596.8736500999948,None,entrance,41,28,silent,blue,594.8715198999998,None,None,594.8715198999998,None,,,,,,,,,,,,,,,,,,,,,,,,,,,,,,,,,,,47aloud,001,2022_Sep_06_1553,ProdSingRedoBetween,2021.2.3,59.96778530303226,
28,0,28,0,,,,,,,,,,,,,,,,,,,,,,,,,,599.376253399998,None,production,88,29,silent,red,597.3756305999996,None,None,597.3756305999996,None,,,,,,,,,,,,,,,,,,,,,,,,,,,,,,,,,,,47aloud,001,2022_Sep_06_1553,ProdSingRedoBetween,2021.2.3,59.96778530303226,
29,0,29,0,,,,,,,,,,,,,,,,,,,,,,,,,,601.8953564999974,None,question,45,30,silent,blue,599.8806730000069,None,None,599.8806730000069,None,,,,,,,,,,,,,,,,,,,,,,,,,,,,,,,,,,,47aloud,001,2022_Sep_06_1553,ProdSingRedoBetween,2021.2.3,59.96778530303226,
30,0,30,0,,,,,,,,,,,,,,,,,,,,,,,,,,604.3975933000038,None,tennis,64,31,silent,red,602.3982640000031,None,None,602.3982640000031,None,,,,,,,,,,,,,,,,,,,,,,,,,,,,,,,,,,,47aloud,001,2022_Sep_06_1553,ProdSingRedoBetween,2021.2.3,59.96778530303226,
31,0,31,0,,,,,,,,,,,,,,,,,,,,,,,,,,606.917031200006,None,industry,26,32,silent,yellow,604.9038387000037,None,None,604.9038387000037,None,,,,,,,,,,,,,,,,,,,,,,,,,,,,,,,,,,,47aloud,001,2022_Sep_06_1553,ProdSingRedoBetween,2021.2.3,59.96778530303226,
32,0,32,0,,,,,,,,,,,,,,,,,,,,,,,,,,609.4195132000023,None,theme,71,33,silent,red,607.4184443999984,None,None,607.4184443999984,None,,,,,,,,,,,,,,,,,,,,,,,,,,,,,,,,,,,47aloud,001,2022_Sep_06_1553,ProdSingRedoBetween,2021.2.3,59.96778530303226,
33,0,33,0,,,,,,,,,,,,,,,,,,,,,,,,,,611.9387228999985,None,birth,15,34,silent,yellow,609.9234350000042,None,None,609.9234350000042,None,,,,,,,,,,,,,,,,,,,,,,,,,,,,,,,,,,,47aloud,001,2022_Sep_06_1553,ProdSingRedoBetween,2021.2.3,59.96778530303226,
34,0,34,0,,,,,,,,,,,,,,,,,,,,,,,,,,614.4409857999999,None,meeting,17,35,silent,yellow,612.4401127000019,None,None,612.4401127000019,None,,,,,,,,,,,,,,,,,,,,,,,,,,,,,,,,,,,47aloud,001,2022_Sep_06_1553,ProdSingRedoBetween,2021.2.3,59.96778530303226,
35,0,35,0,,,,,,,,,,,,,,,,,,,,,,,,,,616.9437298999983,None,pressure,67,36,silent,red,614.9447354000004,None,None,614.9447354000004,None,,,,,,,,,,,,,,,,,,,,,,,,,,,,,,,,,,,47aloud,001,2022_Sep_06_1553,ProdSingRedoBetween,2021.2.3,59.96778530303226,
36,0,36,0,,,,,,,,,,,,,,,,,,,,,,,,,,619.4462862000073,None,grade,74,37,silent,red,617.4439755000058,None,None,617.4439755000058,None,,,,,,,,,,,,,,,,,,,,,,,,,,,,,,,,,,,47aloud,001,2022_Sep_06_1553,ProdSingRedoBetween,2021.2.3,59.96778530303226,
37,0,37,0,,,,,,,,,,,,,,,,,,,,,,,,,,621.9486584999977,None,employment,0,38,silent,yellow,619.9471693999949,None,None,619.9471693999949,None,,,,,,,,,,,,,,,,,,,,,,,,,,,,,,,,,,,47aloud,001,2022_Sep_06_1553,ProdSingRedoBetween,2021.2.3,59.96778530303226,
38,0,38,0,,,,,,,,,,,,,,,,,,,,,,,,,,624.4512402999972,None,light,35,39,silent,blue,622.4511181999987,None,None,622.4511181999987,None,,,,,,,,,,,,,,,,,,,,,,,,,,,,,,,,,,,47aloud,001,2022_Sep_06_1553,ProdSingRedoBetween,2021.2.3,59.96778530303226,
39,0,39,0,,,,,,,,,,,,,,,,,,,,,,,,,,626.9703614000027,None,welcome,7,40,silent,yellow,624.9622726999951,None,None,624.9622726999951,None,,,,,,,,,,,,,,,,,,,,,,,,,,,,,,,,,,,47aloud,001,2022_Sep_06_1553,ProdSingRedoBetween,2021.2.3,59.96778530303226,
40,0,40,0,,,,,,,,,,,,,,,,,,,,,,,,,,629.4729765000084,None,beginning,25,41,silent,yellow,627.470896800005,None,None,627.470896800005,None,,,,,,,,,,,,,,,,,,,,,,,,,,,,,,,,,,,47aloud,001,2022_Sep_06_1553,ProdSingRedoBetween,2021.2.3,59.96778530303226,
41,0,41,0,,,,,,,,,,,,,,,,,,,,,,,,,,631.9920480000001,None,permit,43,42,silent,blue,629.981767300007,None,None,629.981767300007,None,,,,,,,,,,,,,,,,,,,,,,,,,,,,,,,,,,,47aloud,001,2022_Sep_06_1553,ProdSingRedoBetween,2021.2.3,59.96778530303226,
42,0,42,0,,,,,,,,,,,,,,,,,,,,,,,,,,634.5113009000052,None,symbol,62,43,silent,red,632.4961230000044,None,None,632.4961230000044,None,,,,,,,,,,,,,,,,,,,,,,,,,,,,,,,,,,,47aloud,001,2022_Sep_06_1553,ProdSingRedoBetween,2021.2.3,59.96778530303226,
43,0,43,0,,,,,,,,,,,,,,,,,,,,,,,,,,637.0304612000036,None,listen,2,44,silent,yellow,635.0187145999953,None,None,635.0187145999953,None,,,,,,,,,,,,,,,,,,,,,,,,,,,,,,,,,,,47aloud,001,2022_Sep_06_1553,ProdSingRedoBetween,2021.2.3,59.96778530303226,
44,0,44,0,,,,,,,,,,,,,,,,,,,,,,,,,,639.5329615999945,None,danger,58,45,silent,blue,637.5309909000061,None,None,637.5309909000061,None,,,,,,,,,,,,,,,,,,,,,,,,,,,,,,,,,,,47aloud,001,2022_Sep_06_1553,ProdSingRedoBetween,2021.2.3,59.96778530303226,
45,0,45,0,,,,,,,,,,,,,,,,,,,,,,,,,,642.0352070000081,None,short,1,46,silent,yellow,640.0334923000046,None,None,640.0334923000046,None,,,,,,,,,,,,,,,,,,,,,,,,,,,,,,,,,,,47aloud,001,2022_Sep_06_1553,ProdSingRedoBetween,2021.2.3,59.96778530303226,
46,0,46,0,,,,,,,,,,,,,,,,,,,,,,,,,,644.5377600000065,None,drama,5,47,silent,yellow,642.5359683999995,None,None,642.5359683999995,None,,,,,,,,,,,,,,,,,,,,,,,,,,,,,,,,,,,47aloud,001,2022_Sep_06_1553,ProdSingRedoBetween,2021.2.3,59.96778530303226,
47,0,47,0,,,,,,,,,,,,,,,,,,,,,,,,,,647.0404338999942,None,season,83,48,silent,red,645.0393216999946,None,None,645.0393216999946,None,,,,,,,,,,,,,,,,,,,,,,,,,,,,,,,,,,,47aloud,001,2022_Sep_06_1553,ProdSingRedoBetween,2021.2.3,59.96778530303226,
48,0,48,0,,,,,,,,,,,,,,,,,,,,,,,,,,649.5430266000039,None,captain,6,49,silent,yellow,647.541715600004,None,None,647.541715600004,None,,,,,,,,,,,,,,,,,,,,,,,,,,,,,,,,,,,47aloud,001,2022_Sep_06_1553,ProdSingRedoBetween,2021.2.3,59.96778530303226,
49,0,49,0,,,,,,,,,,,,,,,,,,,,,,,,,,652.0621140000003,None,damage,21,50,silent,yellow,650.0465474999946,None,None,650.0465474999946,None,,,,,,,,,,,,,,,,,,,,,,,,,,,,,,,,,,,47aloud,001,2022_Sep_06_1553,ProdSingRedoBetween,2021.2.3,59.96778530303226,
50,0,50,0,,,,,,,,,,,,,,,,,,,,,,,,,,654.5646637000027,None,charter,38,51,silent,blue,652.5628852999944,None,None,652.5628852999944,None,,,,,,,,,,,,,,,,,,,,,,,,,,,,,,,,,,,47aloud,001,2022_Sep_06_1553,ProdSingRedoBetween,2021.2.3,59.96778530303226,
51,0,51,0,,,,,,,,,,,,,,,,,,,,,,,,,,657.0838343000069,None,partner,54,52,silent,blue,655.0693384000042,None,None,655.0693384000042,None,,,,,,,,,,,,,,,,,,,,,,,,,,,,,,,,,,,47aloud,001,2022_Sep_06_1553,ProdSingRedoBetween,2021.2.3,59.96778530303226,
52,0,52,0,,,,,,,,,,,,,,,,,,,,,,,,,,659.5863132999948,None,career,61,53,silent,red,657.5844058000075,None,None,657.5844058000075,None,,,,,,,,,,,,,,,,,,,,,,,,,,,,,,,,,,,47aloud,001,2022_Sep_06_1553,ProdSingRedoBetween,2021.2.3,59.96778530303226,
53,0,53,0,,,,,,,,,,,,,,,,,,,,,,,,,,662.0887967000017,None,ground,60,54,silent,red,660.0868306000048,None,None,660.0868306000048,None,,,,,,,,,,,,,,,,,,,,,,,,,,,,,,,,,,,47aloud,001,2022_Sep_06_1553,ProdSingRedoBetween,2021.2.3,59.96778530303226,
54,0,54,0,,,,,,,,,,,,,,,,,,,,,,,,,,664.5914113000035,None,brilliant,76,55,silent,red,662.5908659999986,None,None,662.5908659999986,None,,,,,,,,,,,,,,,,,,,,,,,,,,,,,,,,,,,47aloud,001,2022_Sep_06_1553,ProdSingRedoBetween,2021.2.3,59.96778530303226,
55,0,55,0,,,,,,,,,,,,,,,,,,,,,,,,,,667.0934764999984,None,curve,73,56,silent,red,665.0918450000026,None,None,665.0918450000026,None,,,,,,,,,,,,,,,,,,,,,,,,,,,,,,,,,,,47aloud,001,2022_Sep_06_1553,ProdSingRedoBetween,2021.2.3,59.96778530303226,
56,0,56,0,,,,,,,,,,,,,,,,,,,,,,,,,,669.5962914999982,None,split,86,57,silent,red,667.5943226999952,None,None,667.5943226999952,None,,,,,,,,,,,,,,,,,,,,,,,,,,,,,,,,,,,47aloud,001,2022_Sep_06_1553,ProdSingRedoBetween,2021.2.3,59.96778530303226,
57,0,57,0,,,,,,,,,,,,,,,,,,,,,,,,,,672.1154705999943,None,break,87,58,silent,red,670.1082409000082,None,None,670.1082409000082,None,,,,,,,,,,,,,,,,,,,,,,,,,,,,,,,,,,,47aloud,001,2022_Sep_06_1553,ProdSingRedoBetween,2021.2.3,59.96778530303226,
58,0,58,0,,,,,,,,,,,,,,,,,,,,,,,,,,674.6182280000066,None,passage,28,59,silent,yellow,672.6160029000021,None,None,672.6160029000021,None,,,,,,,,,,,,,,,,,,,,,,,,,,,,,,,,,,,47aloud,001,2022_Sep_06_1553,ProdSingRedoBetween,2021.2.3,59.96778530303226,
59,0,59,0,,,,,,,,,,,,,,,,,,,,,,,,,,677.137224399994,None,store,79,60,silent,red,675.1220239999966,None,None,675.1220239999966,None,,,,,,,,,,,,,,,,,,,,,,,,,,,,,,,,,,,47aloud,001,2022_Sep_06_1553,ProdSingRedoBetween,2021.2.3,59.96778530303226,
60,0,60,0,,,,,,,,,,,,,,,,,,,,,,,,,,679.640971300003,None,clear,32,61,silent,blue,677.6377172000066,None,None,677.6377172000066,None,,,,,,,,,,,,,,,,,,,,,,,,,,,,,,,,,,,47aloud,001,2022_Sep_06_1553,ProdSingRedoBetween,2021.2.3,59.96778530303226,
61,0,61,0,,,,,,,,,,,,,,,,,,,,,,,,,,682.1422292000061,None,benefit,68,62,silent,red,680.1402046000003,None,None,680.1402046000003,None,,,,,,,,,,,,,,,,,,,,,,,,,,,,,,,,,,,47aloud,001,2022_Sep_06_1553,ProdSingRedoBetween,2021.2.3,59.96778530303226,
62,0,62,0,,,,,,,,,,,,,,,,,,,,,,,,,,684.6447730000073,None,private,80,63,silent,red,682.6444658999972,None,None,682.6444658999972,None,,,,,,,,,,,,,,,,,,,,,,,,,,,,,,,,,,,47aloud,001,2022_Sep_06_1553,ProdSingRedoBetween,2021.2.3,59.96778530303226,
63,0,63,0,,,,,,,,,,,,,,,,,,,,,,,,,,687.1472401000065,None,gesture,78,64,silent,red,685.1452935999987,None,None,685.1452935999987,None,,,,,,,,,,,,,,,,,,,,,,,,,,,,,,,,,,,47aloud,001,2022_Sep_06_1553,ProdSingRedoBetween,2021.2.3,59.96778530303226,
64,0,64,0,,,,,,,,,,,,,,,,,,,,,,,,,,689.6494292999996,None,subject,81,65,silent,red,687.6477193000028,None,None,687.6477193000028,None,,,,,,,,,,,,,,,,,,,,,,,,,,,,,,,,,,,47aloud,001,2022_Sep_06_1553,ProdSingRedoBetween,2021.2.3,59.96778530303226,
65,0,65,0,,,,,,,,,,,,,,,,,,,,,,,,,,692.1689144999982,None,tough,29,66,silent,blue,690.154022600007,None,None,690.154022600007,None,,,,,,,,,,,,,,,,,,,,,,,,,,,,,,,,,,,47aloud,001,2022_Sep_06_1553,ProdSingRedoBetween,2021.2.3,59.96778530303226,
66,0,66,0,,,,,,,,,,,,,,,,,,,,,,,,,,694.6715037999966,None,concern,39,67,silent,blue,692.6717388999969,None,None,692.6717388999969,None,,,,,,,,,,,,,,,,,,,,,,,,,,,,,,,,,,,47aloud,001,2022_Sep_06_1553,ProdSingRedoBetween,2021.2.3,59.96778530303226,
67,0,67,0,,,,,,,,,,,,,,,,,,,,,,,,,,697.1906106999959,None,device,70,68,silent,red,695.1782935000083,None,None,695.1782935000083,None,,,,,,,,,,,,,,,,,,,,,,,,,,,,,,,,,,,47aloud,001,2022_Sep_06_1553,ProdSingRedoBetween,2021.2.3,59.96778530303226,
68,0,68,0,,,,,,,,,,,,,,,,,,,,,,,,,,699.6930651000002,None,taste,44,69,silent,blue,697.6911679000041,None,None,697.6911679000041,None,,,,,,,,,,,,,,,,,,,,,,,,,,,,,,,,,,,47aloud,001,2022_Sep_06_1553,ProdSingRedoBetween,2021.2.3,59.96778530303226,
69,0,69,0,,,,,,,,,,,,,,,,,,,,,,,,,,702.2122625000047,None,orchestra,3,70,silent,yellow,700.1996320000035,None,None,700.1996320000035,None,,,,,,,,,,,,,,,,,,,,,,,,,,,,,,,,,,,47aloud,001,2022_Sep_06_1553,ProdSingRedoBetween,2021.2.3,59.96778530303226,
70,0,70,0,,,,,,,,,,,,,,,,,,,,,,,,,,704.7147325999977,None,growth,55,71,silent,blue,702.7127609000017,None,None,702.7127609000017,None,,,,,,,,,,,,,,,,,,,,,,,,,,,,,,,,,,,47aloud,001,2022_Sep_06_1553,ProdSingRedoBetween,2021.2.3,59.96778530303226,
71,0,71,0,,,,,,,,,,,,,,,,,,,,,,,,,,707.233963000006,None,fashion,75,72,silent,red,705.2209537000017,None,None,705.2209537000017,None,,,,,,,,,,,,,,,,,,,,,,,,,,,,,,,,,,,47aloud,001,2022_Sep_06_1553,ProdSingRedoBetween,2021.2.3,59.96778530303226,
72,0,72,0,,,,,,,,,,,,,,,,,,,,,,,,,,709.7364362999942,None,safety,11,73,silent,yellow,707.7364317000029,None,None,707.7364317000029,None,,,,,,,,,,,,,,,,,,,,,,,,,,,,,,,,,,,47aloud,001,2022_Sep_06_1553,ProdSingRedoBetween,2021.2.3,59.96778530303226,
73,0,73,0,,,,,,,,,,,,,,,,,,,,,,,,,,712.2555755000067,None,crisis,63,74,silent,red,710.2487083000015,None,None,710.2487083000015,None,,,,,,,,,,,,,,,,,,,,,,,,,,,,,,,,,,,47aloud,001,2022_Sep_06_1553,ProdSingRedoBetween,2021.2.3,59.96778530303226,
74,0,74,0,,,,,,,,,,,,,,,,,,,,,,,,,,714.7578951000032,None,carry,48,75,silent,blue,712.7559379000013,None,None,712.7559379000013,None,,,,,,,,,,,,,,,,,,,,,,,,,,,,,,,,,,,47aloud,001,2022_Sep_06_1553,ProdSingRedoBetween,2021.2.3,59.96778530303226,
75,0,75,0,,,,,,,,,,,,,,,,,,,,,,,,,,717.2771442999947,None,congress,46,76,silent,blue,715.2692165000044,None,None,715.2692165000044,None,,,,,,,,,,,,,,,,,,,,,,,,,,,,,,,,,,,47aloud,001,2022_Sep_06_1553,ProdSingRedoBetween,2021.2.3,59.96778530303226,
76,0,76,0,,,,,,,,,,,,,,,,,,,,,,,,,,719.7798686000024,None,cross,85,77,silent,red,717.7778199000022,None,None,717.7778199000022,None,,,,,,,,,,,,,,,,,,,,,,,,,,,,,,,,,,,47aloud,001,2022_Sep_06_1553,ProdSingRedoBetween,2021.2.3,59.96778530303226,
77,0,77,0,,,,,,,,,,,,,,,,,,,,,,,,,,722.2823435000028,None,substance,57,78,silent,blue,720.280331300004,None,None,720.280331300004,None,,,,,,,,,,,,,,,,,,,,,,,,,,,,,,,,,,,47aloud,001,2022_Sep_06_1553,ProdSingRedoBetween,2021.2.3,59.96778530303226,
78,0,78,0,,,,,,,,,,,,,,,,,,,,,,,,,,724.8015601000079,None,education,10,79,silent,yellow,722.7864922000008,None,None,722.7864922000008,None,,,,,,,,,,,,,,,,,,,,,,,,,,,,,,,,,,,47aloud,001,2022_Sep_06_1553,ProdSingRedoBetween,2021.2.3,59.96778530303226,
79,0,79,0,,,,,,,,,,,,,,,,,,,,,,,,,,727.320693200003,None,frank,34,80,silent,blue,725.305698600001,None,None,725.305698600001,None,,,,,,,,,,,,,,,,,,,,,,,,,,,,,,,,,,,47aloud,001,2022_Sep_06_1553,ProdSingRedoBetween,2021.2.3,59.96778530303226,
80,0,80,0,,,,,,,,,,,,,,,,,,,,,,,,,,729.8231489000027,None,court,42,81,silent,blue,727.8208886000066,None,None,727.8208886000066,None,,,,,,,,,,,,,,,,,,,,,,,,,,,,,,,,,,,47aloud,001,2022_Sep_06_1553,ProdSingRedoBetween,2021.2.3,59.96778530303226,
81,0,81,0,,,,,,,,,,,,,,,,,,,,,,,,,,732.3424054000061,None,suspect,4,82,silent,yellow,730.3316631000052,None,None,730.3316631000052,None,,,,,,,,,,,,,,,,,,,,,,,,,,,,,,,,,,,47aloud,001,2022_Sep_06_1553,ProdSingRedoBetween,2021.2.3,59.96778530303226,
82,0,82,0,,,,,,,,,,,,,,,,,,,,,,,,,,734.8615993999992,None,minor,37,83,silent,blue,732.8465842000005,None,None,732.8465842000005,None,,,,,,,,,,,,,,,,,,,,,,,,,,,,,,,,,,,47aloud,001,2022_Sep_06_1553,ProdSingRedoBetween,2021.2.3,59.96778530303226,
83,0,83,0,,,,,,,,,,,,,,,,,,,,,,,,,,737.3640046000073,None,nature,31,84,silent,blue,735.363372199994,None,None,735.363372199994,None,,,,,,,,,,,,,,,,,,,,,,,,,,,,,,,,,,,47aloud,001,2022_Sep_06_1553,ProdSingRedoBetween,2021.2.3,59.96778530303226,
84,0,84,0,,,,,,,,,,,,,,,,,,,,,,,,,,739.883270300008,None,appearance,22,85,silent,yellow,737.8729125999962,None,None,737.8729125999962,None,,,,,,,,,,,,,,,,,,,,,,,,,,,,,,,,,,,47aloud,001,2022_Sep_06_1553,ProdSingRedoBetween,2021.2.3,59.96778530303226,
85,0,85,0,,,,,,,,,,,,,,,,,,,,,,,,,,742.3857308000006,None,attack,19,86,silent,yellow,740.3852984999976,None,None,740.3852984999976,None,,,,,,,,,,,,,,,,,,,,,,,,,,,,,,,,,,,47aloud,001,2022_Sep_06_1553,ProdSingRedoBetween,2021.2.3,59.96778530303226,
86,0,86,0,,,,,,,,,,,,,,,,,,,,,,,,,,744.9049834000034,None,problem,36,87,silent,blue,742.8904741000006,None,None,742.8904741000006,None,,,,,,,,,,,,,,,,,,,,,,,,,,,,,,,,,,,47aloud,001,2022_Sep_06_1553,ProdSingRedoBetween,2021.2.3,59.96778530303226,
87,0,87,0,,,,,,,,,,,,,,,,,,,,,,,,,,747.4074256000022,None,member,52,88,silent,blue,745.406719599996,None,None,745.406719599996,None,,,,,,,,,,,,,,,,,,,,,,,,,,,,,,,,,,,47aloud,001,2022_Sep_06_1553,ProdSingRedoBetween,2021.2.3,59.96778530303226,
88,0,88,0,,,,,,,,,,,,,,,,,,,,,,,,,,749.9265770000056,None,personnel,9,89,silent,yellow,747.9132036000083,None,None,747.9132036000083,None,,,,,,,,,,,,,,,,,,,,,,,,,,,,,,,,,,,47aloud,001,2022_Sep_06_1553,ProdSingRedoBetween,2021.2.3,59.96778530303226,
89,0,89,0,,,,,,,,,,,,,,,,,,,,,,,,,,752.4291502999986,None,comedy,8,90,silent,yellow,750.428840499997,None,None,750.428840499997,None,,,,,,,,,,,,,,,,,,,,,,,,,,,,,,,,,,,47aloud,001,2022_Sep_06_1553,ProdSingRedoBetween,2021.2.3,59.96778530303226,
,,,,,,,,,,,,,,,,,,,,,,,,,,,,,,,,,,,,,,,,,752.9298350000026,None,k,226.141629500009,752.9298350000026,None,,,,,,,,,,,,,,,,,,,,,,,,,,,,,47aloud,001,2022_Sep_06_1553,ProdSingRedoBetween,2021.2.3,59.96778530303226,
,,,,0,0,0,0,,,,,,,,,,,,,,,,,,,,,,986.2794878999994,None,,,,,,,,,,,,,,,,,payment,16,1,silent,old,yellow,979.6013358000055,None,979.6013358000055,None,5,4.118178699995042,979.6013358000055,None,4.118178699995042,983.745650900004,None,984.2670154999942,None,984.2670154999942,None,r,1.9884377000125824,984.2670154999942,None,1.9884377000125824,,,47aloud,001,2022_Sep_06_1553,ProdSingRedoBetween,2021.2.3,59.96778530303226,
,,,,1,0,1,0,,,,,,,,,,,,,,,,,,,,,,992.0685363999946,None,,,,,,,,,,,,,,,,,trash,119,2,silent,new,null,986.7820401000063,None,986.7820401000063,None,1,3.1934229000034975,986.7820401000063,None,3.1934229000034975,990.0007799000014,None,990.5029452000017,None,990.5029452000017,None,n,1.5444634000014048,990.5029452000017,None,1.5444634000014048,,,47aloud,001,2022_Sep_06_1553,ProdSingRedoBetween,2021.2.3,59.96778530303226,
,,,,2,0,2,0,,,,,,,,,,,,,,,,,,,,,,997.9076328000083,None,,,,,,,,,,,,,,,,,beginning,25,3,silent,old,yellow,992.576115799995,None,992.576115799995,None,6,2.7913407999876654,992.576115799995,None,2.7913407999876654,995.3895327000064,None,995.8891790000052,None,995.8891790000052,None,r,1.9982882000040263,995.8891790000052,None,1.9982882000040263,,,47aloud,001,2022_Sep_06_1553,ProdSingRedoBetween,2021.2.3,59.96778530303226,
,,,,3,0,3,0,,,,,,,,,,,,,,,,,,,,,,1002.7476840000018,None,,,,,,,,,,,,,,,,,light,35,4,silent,old,blue,998.4085016000026,None,998.4085016000026,None,6,2.470846000011079,998.4085016000026,None,2.470846000011079,1000.9106979000062,None,1001.4113457000058,None,1001.4113457000058,None,r,1.3080971000017598,1001.4113457000058,None,1.3080971000017598,,,47aloud,001,2022_Sep_06_1553,ProdSingRedoBetween,2021.2.3,59.96778530303226,
,,,,4,0,4,0,,,,,,,,,,,,,,,,,,,,,,1007.2334987000067,None,,,,,,,,,,,,,,,,,signal,147,5,silent,new,null,1003.2630326000071,None,1003.2630326000071,None,4,2.192381300003035,1003.2630326000071,None,2.192381300003035,1005.4818691999972,None,1005.9823921000061,None,1005.9823921000061,None,f,1.225007100001676,1005.9823921000061,None,1.225007100001676,,,47aloud,001,2022_Sep_06_1553,ProdSingRedoBetween,2021.2.3,59.96778530303226,
,,,,5,0,5,0,,,,,,,,,,,,,,,,,,,,,,1013.0392842000001,None,,,,,,,,,,,,,,,,,crime,138,6,silent,new,null,1007.7343013000063,None,1007.7343013000063,None,5,3.7291407999873627,1007.7343013000063,None,3.7291407999873627,1011.4878281999991,None,1011.9884828000068,None,1011.9884828000068,None,f,1.0348416999913752,1011.9884828000068,None,1.0348416999913752,,,47aloud,001,2022_Sep_06_1553,ProdSingRedoBetween,2021.2.3,59.96778530303226,
,,,,6,0,6,0,,,,,,,,,,,,,,,,,,,,,,1018.0287538999983,None,,,,,,,,,,,,,,,,,break,87,7,silent,old,red,1013.540147599997,None,1013.540147599997,None,4,2.68330469999637,1013.540147599997,None,2.68330469999637,1016.2425268999941,None,1016.743184299994,None,1016.743184299994,None,f,1.248195800013491,1016.743184299994,None,1.248195800013491,,,47aloud,001,2022_Sep_06_1553,ProdSingRedoBetween,2021.2.3,59.96778530303226,
,,,,7,0,7,0,,,,,,,,,,,,,,,,,,,,,,1022.5822036000027,None,,,,,,,,,,,,,,,,,empty,124,8,silent,new,null,1018.5302358000044,None,1018.5302358000044,None,2,2.2532518999942113,1018.5302358000044,None,2.2532518999942113,1020.8149768000003,None,1021.3218137000076,None,1021.3218137000076,None,n,1.2376850000000559,1021.3218137000076,None,1.2376850000000559,,,47aloud,001,2022_Sep_06_1553,ProdSingRedoBetween,2021.2.3,59.96778530303226,
,,,,8,0,8,0,,,,,,,,,,,,,,,,,,,,,,1026.220094999997,None,,,,,,,,,,,,,,,,,broke,131,9,silent,new,null,1023.0856897000049,None,1023.0856897000049,None,1,1.6419884000060847,1023.0856897000049,None,1.6419884000060847,1024.756329099997,None,1025.2785947999946,None,1025.2785947999946,None,n,0.9129390000016429,1025.2785947999946,None,0.9129390000016429,,,47aloud,001,2022_Sep_06_1553,ProdSingRedoBetween,2021.2.3,59.96778530303226,
,,,,9,0,9,0,,,,,,,,,,,,,,,,,,,,,,1030.2233976999996,None,,,,,,,,,,,,,,,,,people,114,10,silent,new,null,1026.7240727000026,None,1026.7240727000026,None,4,1.9713405000075,1026.7240727000026,None,1.9713405000075,1028.7232183000015,None,1029.2225424000062,None,1029.2225424000062,None,f,0.9849682000058237,1029.2225424000062,None,0.9849682000058237,,,47aloud,001,2022_Sep_06_1553,ProdSingRedoBetween,2021.2.3,59.96778530303226,
,,,,10,0,10,0,,,,,,,,,,,,,,,,,,,,,,1034.0272013000067,None,,,,,,,,,,,,,,,,,partner,54,11,silent,old,blue,1030.7333153000072,None,1030.7333153000072,None,4,1.6420564000000013,1030.7333153000072,None,1.6420564000000013,1032.394044200002,None,1032.9129931000061,None,1032.9129931000061,None,f,1.0865342999895802,1032.9129931000061,None,1.0865342999895802,,,47aloud,001,2022_Sep_06_1553,ProdSingRedoBetween,2021.2.3,59.96778530303226,
,,,,11,0,11,0,,,,,,,,,,,,,,,,,,,,,,1038.0510652999947,None,,,,,,,,,,,,,,,,,incident,162,12,silent,new,null,1034.5293377000053,None,1034.5293377000053,None,4,2.046200900003896,1034.5293377000053,None,2.046200900003896,1036.6004297000036,None,1037.1136754000036,None,1037.1136754000036,None,f,0.9177807999949437,1037.1136754000036,None,0.9177807999949437,,,47aloud,001,2022_Sep_06_1553,ProdSingRedoBetween,2021.2.3,59.96778530303226,
,,,,12,0,12,0,,,,,,,,,,,,,,,,,,,,,,1042.2687814999954,None,,,,,,,,,,,,,,,,,question,45,13,silent,old,blue,1038.5702423000039,None,1038.5702423000039,None,6,1.7731798000022536,1038.5702423000039,None,1.7731798000022536,1040.3692025000055,None,1040.8884368,None,1040.8884368,None,r,1.3590639000030933,1040.8884368,None,1.3590639000030933,,,47aloud,001,2022_Sep_06_1553,ProdSingRedoBetween,2021.2.3,59.96778530303226,
,,,,13,0,13,0,,,,,,,,,,,,,,,,,,,,,,1046.3561214000074,None,,,,,,,,,,,,,,,,,industry,26,14,silent,old,yellow,1042.7789045999962,None,1042.7789045999962,None,3,1.5730821999895852,1042.7789045999962,None,1.5730821999895852,1044.3706506000017,None,1044.8808212000004,None,1044.8808212000004,None,f,1.4546830000035698,1044.8808212000004,None,1.4546830000035698,,,47aloud,001,2022_Sep_06_1553,ProdSingRedoBetween,2021.2.3,59.96778530303226,
,,,,14,0,14,0,,,,,,,,,,,,,,,,,,,,,,1050.1265743999975,None,,,,,,,,,,,,,,,,,session,136,15,silent,new,null,1046.8638449999999,None,1046.8638449999999,None,4,1.7275268000084907,1046.8638449999999,None,1.7275268000084907,1048.611548300003,None,1049.1256797999959,None,1049.1256797999959,None,f,0.9699086999899009,1049.1256797999959,None,0.9699086999899009,,,47aloud,001,2022_Sep_06_1553,ProdSingRedoBetween,2021.2.3,59.96778530303226,
,,,,15,0,15,0,,,,,,,,,,,,,,,,,,,,,,1053.8469775999984,None,,,,,,,,,,,,,,,,,piece,91,16,silent,new,null,1050.637482799997,None,1050.637482799997,None,1,1.682036500002141,1050.637482799997,None,1.682036500002141,1052.3482358000037,None,1052.8628327000042,None,1052.8628327000042,None,n,0.9605951999983517,1052.8628327000042,None,0.9605951999983517,,,47aloud,001,2022_Sep_06_1553,ProdSingRedoBetween,2021.2.3,59.96778530303226,
,,,,16,0,16,0,,,,,,,,,,,,,,,,,,,,,,1057.0343816999957,None,,,,,,,,,,,,,,,,,touch,72,17,silent,old,red,1054.354738599999,None,1054.354738599999,None,2,1.7329546000109985,1054.354738599999,None,1.7329546000109985,1056.126122600006,None,1056.634595800002,None,1056.634595800002,None,n,0.38083570000890177,1056.634595800002,None,0.38083570000890177,,,47aloud,001,2022_Sep_06_1553,ProdSingRedoBetween,2021.2.3,59.96778530303226,
,,,,17,0,17,0,,,,,,,,,,,,,,,,,,,,,,1060.6037704000046,None,,,,,,,,,,,,,,,,,passage,28,18,silent,old,yellow,1057.5361177000013,None,1057.5361177000013,None,4,1.5993448000081116,1057.5361177000013,None,1.5993448000081116,1059.1542801000032,None,1059.6722722999984,None,1059.6722722999984,None,f,0.9112724000005983,1059.6722722999984,None,0.9112724000005983,,,47aloud,001,2022_Sep_06_1553,ProdSingRedoBetween,2021.2.3,59.96778530303226,
,,,,18,0,18,0,,,,,,,,,,,,,,,,,,,,,,1064.841204299999,None,,,,,,,,,,,,,,,,,blind,77,19,silent,old,red,1061.1060447000054,None,1061.1060447000054,None,1,1.2774995999934617,1061.1060447000054,None,1.2774995999934617,1062.4064184000017,None,1062.9093958000012,None,1062.9093958000012,None,n,1.906175500000245,1062.9093958000012,None,1.906175500000245,,,47aloud,001,2022_Sep_06_1553,ProdSingRedoBetween,2021.2.3,59.96778530303226,
,,,,19,0,19,0,,,,,,,,,,,,,,,,,,,,,,1069.3458379000076,None,,,,,,,,,,,,,,,,,subject,81,20,silent,old,red,1065.3549150000035,None,1065.3549150000035,None,4,2.17256809999526,1065.3549150000035,None,2.17256809999526,1067.5506530999992,None,1068.0614451000001,None,1068.0614451000001,None,f,1.2580696999939391,1068.0614451000001,None,1.2580696999939391,,,47aloud,001,2022_Sep_06_1553,ProdSingRedoBetween,2021.2.3,59.96778530303226,
,,,,20,0,20,0,,,,,,,,,,,,,,,,,,,,,,1072.6498328000016,None,,,,,,,,,,,,,,,,,express,103,21,silent,new,null,1069.8490243999986,None,1069.8490243999986,None,1,1.5264013999985764,1069.8490243999986,None,1.5264013999985764,1071.3979005,None,1071.9085180999973,None,1071.9085180999973,None,n,0.715279099997133,1071.9085180999973,None,0.715279099997133,,,47aloud,001,2022_Sep_06_1553,ProdSingRedoBetween,2021.2.3,59.96778530303226,
,,,,21,0,21,0,,,,,,,,,,,,,,,,,,,,,,1076.6392575000064,None,,,,,,,,,,,,,,,,,taste,44,22,silent,old,blue,1073.1523859000008,None,1073.1523859000008,None,4,1.879355699988082,1073.1523859000008,None,1.879355699988082,1075.0596243000036,None,1075.572092100003,None,1075.572092100003,None,f,1.0436509999999544,1075.572092100003,None,1.0436509999999544,,,47aloud,001,2022_Sep_06_1553,ProdSingRedoBetween,2021.2.3,59.96778530303226,
,,,,22,0,22,0,,,,,,,,,,,,,,,,,,,,,,1080.340174900004,None,,,,,,,,,,,,,,,,,trail,84,23,silent,old,red,1077.1536804000061,None,1077.1536804000061,None,4,1.717779699989478,1077.1536804000061,None,1.717779699989478,1078.8923895000044,None,1079.4057690000045,None,1079.4057690000045,None,f,0.913745799989556,1079.4057690000045,None,0.913745799989556,,,47aloud,001,2022_Sep_06_1553,ProdSingRedoBetween,2021.2.3,59.96778530303226,
,,,,23,0,23,0,,,,,,,,,,,,,,,,,,,,,,1084.5285453999968,None,,,,,,,,,,,,,,,,,couch,173,24,silent,new,null,1080.8467777000042,None,1080.8467777000042,None,5,2.360818699991796,1080.8467777000042,None,2.360818699991796,1083.2366301000002,None,1083.745351599995,None,1083.745351599995,None,r,0.766239200005657,1083.745351599995,None,0.766239200005657,,,47aloud,001,2022_Sep_06_1553,ProdSingRedoBetween,2021.2.3,59.96778530303226,
,,,,24,0,24,0,,,,,,,,,,,,,,,,,,,,,,1089.866352500001,None,,,,,,,,,,,,,,,,,conference,146,25,silent,new,null,1085.0442833999987,None,1085.0442833999987,None,6,3.227302899991628,1085.0442833999987,None,3.227302899991628,1088.2999552999972,None,1088.8205234000052,None,1088.8205234000052,None,r,1.0270755999954417,1088.8205234000052,None,1.0270755999954417,,,47aloud,001,2022_Sep_06_1553,ProdSingRedoBetween,2021.2.3,59.96778530303226,
,,,,25,0,25,0,,,,,,,,,,,,,,,,,,,,,,1093.4365866000007,None,,,,,,,,,,,,,,,,,society,151,26,silent,new,null,1090.369772399994,None,1090.369772399994,None,3,1.6377549999888288,1090.369772399994,None,1.6377549999888288,1092.038197700007,None,1092.5524154000013,None,1092.5524154000013,None,f,0.8551906000066083,1092.5524154000013,None,0.8551906000066083,,,47aloud,001,2022_Sep_06_1553,ProdSingRedoBetween,2021.2.3,59.96778530303226,
,,,,26,0,26,0,,,,,,,,,,,,,,,,,,,,,,1097.6743566000077,None,,,,,,,,,,,,,,,,,material,150,27,silent,new,null,1093.9460313000018,None,1093.9460313000018,None,2,2.061490899999626,1093.9460313000018,None,2.061490899999626,1096.0233233000035,None,1096.5249717999977,None,1096.5249717999977,None,f,1.122478700010106,1096.5249717999977,None,1.122478700010106,,,47aloud,001,2022_Sep_06_1553,ProdSingRedoBetween,2021.2.3,59.96778530303226,
,,,,27,0,27,0,,,,,,,,,,,,,,,,,,,,,,1101.6114220000018,None,,,,,,,,,,,,,,,,,career,61,28,silent,old,red,1098.176212499995,None,1098.176212499995,None,5,1.959239500007243,1098.176212499995,None,1.959239500007243,1100.161055500008,None,1100.6614826000005,None,1100.6614826000005,None,f,0.9299736000102712,1100.6614826000005,None,0.9299736000102712,,,47aloud,001,2022_Sep_06_1553,ProdSingRedoBetween,2021.2.3,59.96778530303226,
,,,,28,0,28,0,,,,,,,,,,,,,,,,,,,,,,1107.0168780999957,None,,,,,,,,,,,,,,,,,throw,122,29,silent,new,null,1102.1194717000035,None,1102.1194717000035,None,3,2.2960278000100516,1102.1194717000035,None,2.2960278000100516,1104.4321097000065,None,1104.9356414000067,None,1104.9356414000067,None,f,2.0638527999981306,1104.9356414000067,None,2.0638527999981306,,,47aloud,001,2022_Sep_06_1553,ProdSingRedoBetween,2021.2.3,59.96778530303226,
,,,,29,0,29,0,,,,,,,,,,,,,,,,,,,,,,1110.5037566999963,None,,,,,,,,,,,,,,,,,dispute,12,30,silent,old,yellow,1107.5240204000002,None,1107.5240204000002,None,5,1.5475427000055788,1107.5240204000002,None,1.5475427000055788,1109.103883200005,None,1109.6195339999977,None,1109.6195339999977,None,f,0.859997999999905,1109.6195339999977,None,0.859997999999905,,,47aloud,001,2022_Sep_06_1553,ProdSingRedoBetween,2021.2.3,59.96778530303226,
,,,,30,0,30,0,,,,,,,,,,,,,,,,,,,,,,1114.7634398000082,None,,,,,,,,,,,,,,,,,benefit,68,31,silent,old,red,1111.009851499999,None,1111.009851499999,None,3,1.9576555000094231,1111.009851499999,None,1.9576555000094231,1112.990596500007,None,1113.4960044000036,None,1113.4960044000036,None,f,1.2396127999963937,1113.4960044000036,None,1.2396127999963937,,,47aloud,001,2022_Sep_06_1553,ProdSingRedoBetween,2021.2.3,59.96778530303226,
,,,,31,0,31,0,,,,,,,,,,,,,,,,,,,,,,1118.3614626000053,None,,,,,,,,,,,,,,,,,expansion,111,32,silent,new,null,1115.2866138999962,None,1115.2866138999962,None,1,1.520903599986923,1115.2866138999962,None,1.520903599986923,1116.8285467999958,None,1117.3488567000022,None,1117.3488567000022,None,n,0.986671100006788,1117.3488567000022,None,0.986671100006788,,,47aloud,001,2022_Sep_06_1553,ProdSingRedoBetween,2021.2.3,59.96778530303226,
,,,,32,0,32,0,,,,,,,,,,,,,,,,,,,,,,1122.8157586000016,None,,,,,,,,,,,,,,,,,direction,18,33,silent,old,yellow,1118.8620835000038,None,1118.8620835000038,None,4,2.1695268000039505,1118.8620835000038,None,2.1695268000039505,1121.0473362000048,None,1121.5544965000008,None,1121.5544965000008,None,f,1.2451086999935796,1121.5544965000008,None,1.2451086999935796,,,47aloud,001,2022_Sep_06_1553,ProdSingRedoBetween,2021.2.3,59.96778530303226,
,,,,33,0,33,0,,,,,,,,,,,,,,,,,,,,,,1126.936698000005,None,,,,,,,,,,,,,,,,,substance,57,34,silent,old,blue,1123.3193592000025,None,1123.3193592000025,None,5,1.7441662999917753,1123.3193592000025,None,1.7441662999917753,1125.0870414999954,None,1125.606793400002,None,1125.606793400002,None,r,1.3047735000000102,1125.606793400002,None,1.3047735000000102,,,47aloud,001,2022_Sep_06_1553,ProdSingRedoBetween,2021.2.3,59.96778530303226,
,,,,34,0,34,0,,,,,,,,,,,,,,,,,,,,,,1131.541236799996,None,,,,,,,,,,,,,,,,,straight,139,35,silent,new,null,1127.4473484000046,None,1127.4473484000046,None,2,2.280083299992839,1127.4473484000046,None,2.280083299992839,1129.7597774000023,None,1130.273589000004,None,1130.273589000004,None,f,1.2379203000018606,1130.273589000004,None,1.2379203000018606,,,47aloud,001,2022_Sep_06_1553,ProdSingRedoBetween,2021.2.3,59.96778530303226,
,,,,35,0,35,0,,,,,,,,,,,,,,,,,,,,,,1135.0130120999966,None,,,,,,,,,,,,,,,,,block,143,36,silent,new,null,1132.0507486999995,None,1132.0507486999995,None,1,1.8207443999999668,1132.0507486999995,None,1.8207443999999668,1133.8980815999967,None,1134.4109712000063,None,1134.4109712000063,None,n,0.5806288000021596,1134.4109712000063,None,0.5806288000021596,,,47aloud,001,2022_Sep_06_1553,ProdSingRedoBetween,2021.2.3,59.96778530303226,
,,,,36,0,36,0,,,,,,,,,,,,,,,,,,,,,,1138.7988546999986,None,,,,,,,,,,,,,,,,,minor,37,37,silent,old,blue,1135.5296985000023,None,1135.5296985000023,None,6,1.8538465000019642,1135.5296985000023,None,1.8538465000019642,1137.4203200000047,None,1137.937075599999,None,1137.937075599999,None,r,0.8303488999954425,1137.937075599999,None,0.8303488999954425,,,47aloud,001,2022_Sep_06_1553,ProdSingRedoBetween,2021.2.3,59.96778530303226,
,,,,37,0,37,0,,,,,,,,,,,,,,,,,,,,,,1142.3020178000006,None,,,,,,,,,,,,,,,,,comedy,8,38,silent,old,yellow,1139.3078495999944,None,1139.3078495999944,None,5,1.7716586999886204,1139.3078495999944,None,1.7716586999886204,1141.1018970000005,None,1141.6069926000055,None,1141.6069926000055,None,r,0.6725321999983862,1141.6069926000055,None,0.6725321999983862,,,47aloud,001,2022_Sep_06_1553,ProdSingRedoBetween,2021.2.3,59.96778530303226,
,,,,38,0,38,0,,,,,,,,,,,,,,,,,,,,,,1145.872337599998,None,,,,,,,,,,,,,,,,,threat,128,39,silent,new,null,1142.8061375999969,None,1142.8061375999969,None,6,1.6494266999943648,1142.8061375999969,None,1.6494266999943648,1144.4779724999971,None,1144.9882126000011,None,1144.9882126000011,None,r,0.8673128999944311,1144.9882126000011,None,0.8673128999944311,,,47aloud,001,2022_Sep_06_1553,ProdSingRedoBetween,2021.2.3,59.96778530303226,
,,,,39,0,39,0,,,,,,,,,,,,,,,,,,,,,,1149.2423445000022,None,,,,,,,,,,,,,,,,,short,1,40,silent,old,yellow,1146.3800039000052,None,1146.3800039000052,None,4,1.7235289999953238,1146.3800039000052,None,1.7235289999953238,1148.1261298000027,None,1148.6252177999995,None,1148.6252177999995,None,f,0.5983991999964928,1148.6252177999995,None,0.5983991999964928,,,47aloud,001,2022_Sep_06_1553,ProdSingRedoBetween,2021.2.3,59.96778530303226,
,,,,40,0,40,0,,,,,,,,,,,,,,,,,,,,,,1153.9804200000071,None,,,,,,,,,,,,,,,,,revolution,156,41,silent,new,null,1149.7440180999984,None,1149.7440180999984,None,2,1.8955207999970298,1149.7440180999984,None,1.8955207999970298,1151.6625573000056,None,1152.1660896999965,None,1152.1660896999965,None,n,1.7934412999893539,1152.1660896999965,None,1.7934412999893539,,,47aloud,001,2022_Sep_06_1553,ProdSingRedoBetween,2021.2.3,59.96778530303226,
,,,,41,0,41,0,,,,,,,,,,,,,,,,,,,,,,1158.351484800005,None,,,,,,,,,,,,,,,,,drama,5,42,silent,old,yellow,1154.4907620000013,None,1154.4907620000013,None,2,2.020769399998244,1154.4907620000013,None,2.020769399998244,1156.5329571000038,None,1157.0336212999973,None,1157.0336212999973,None,f,1.2939397000009194,1157.0336212999973,None,1.2939397000009194,,,47aloud,001,2022_Sep_06_1553,ProdSingRedoBetween,2021.2.3,59.96778530303226,
,,,,42,0,42,0,,,,,,,,,,,,,,,,,,,,,,1163.2898017999978,None,,,,,,,,,,,,,,,,,safety,11,43,silent,old,yellow,1158.8547087000043,None,1158.8547087000043,None,4,1.800932099999045,1158.8547087000043,None,1.800932099999045,1160.6903005000058,None,1161.2044009999954,None,1161.2044009999954,None,f,2.0592092000006232,1161.2044009999954,None,2.0592092000006232,,,47aloud,001,2022_Sep_06_1553,ProdSingRedoBetween,2021.2.3,59.96778530303226,
,,,,43,0,43,0,,,,,,,,,,,,,,,,,,,,,,1166.9268782,None,,,,,,,,,,,,,,,,,pretty,176,44,silent,new,null,1163.7997162999964,None,1163.7997162999964,None,1,1.7038549999997485,1163.7997162999964,None,1.7038549999997485,1165.5334597000037,None,1166.0470452000009,None,1166.0470452000009,None,n,0.8485854000027757,1166.0470452000009,None,0.8485854000027757,,,47aloud,001,2022_Sep_06_1553,ProdSingRedoBetween,2021.2.3,59.96778530303226,
,,,,44,0,44,0,,,,,,,,,,,,,,,,,,,,,,1170.697124600003,None,,,,,,,,,,,,,,,,,produce,20,45,silent,old,yellow,1167.4407772999984,None,1167.4407772999984,None,5,1.8067661999957636,1167.4407772999984,None,1.8067661999957636,1169.2636304000043,None,1169.7678917000012,None,1169.7678917000012,None,f,0.9035742000123719,1169.7678917000012,None,0.9035742000123719,,,47aloud,001,2022_Sep_06_1553,ProdSingRedoBetween,2021.2.3,59.96778530303226,
,,,,45,0,45,0,,,,,,,,,,,,,,,,,,,,,,1174.067158100006,None,,,,,,,,,,,,,,,,,birth,15,46,silent,old,yellow,1171.2046371000033,None,1171.2046371000033,None,5,1.634835100005148,1171.2046371000033,None,1.634835100005148,1172.866569100006,None,1173.3687949000014,None,1173.3687949000014,None,f,0.6787636999943061,1173.3687949000014,None,0.6787636999943061,,,47aloud,001,2022_Sep_06_1553,ProdSingRedoBetween,2021.2.3,59.96778530303226,
,,,,46,0,46,0,,,,,,,,,,,,,,,,,,,,,,1177.5206465000083,None,,,,,,,,,,,,,,,,,universal,24,47,silent,old,yellow,1174.5843807000056,None,1174.5843807000056,None,6,1.7831950000108918,1174.5843807000056,None,1.7831950000108918,1176.387938400003,None,1176.9032718999952,None,1176.9032718999952,None,r,0.5923592000035569,1176.9032718999952,None,0.5923592000035569,,,47aloud,001,2022_Sep_06_1553,ProdSingRedoBetween,2021.2.3,59.96778530303226,
,,,,47,0,47,0,,,,,,,,,,,,,,,,,,,,,,1180.740508899995,None,,,,,,,,,,,,,,,,,brilliant,76,48,silent,old,red,1178.0399404000054,None,1178.0399404000054,None,5,1.7035807000065688,1178.0399404000054,None,1.7035807000065688,1179.773523900003,None,1180.2769949000067,None,1180.2769949000067,None,r,0.434683400002541,1180.2769949000067,None,0.434683400002541,,,47aloud,001,2022_Sep_06_1553,ProdSingRedoBetween,2021.2.3,59.96778530303226,
,,,,48,0,48,0,,,,,,,,,,,,,,,,,,,,,,1184.4775692999974,None,,,,,,,,,,,,,,,,,display,90,49,silent,new,null,1181.2566984000005,None,1181.2566984000005,None,1,1.662831499997992,1181.2566984000005,None,1.662831499997992,1182.9436564000061,None,1183.443377500007,None,1183.443377500007,None,n,1.0041864999948302,1183.443377500007,None,1.0041864999948302,,,47aloud,001,2022_Sep_06_1553,ProdSingRedoBetween,2021.2.3,59.96778530303226,
,,,,49,0,49,0,,,,,,,,,,,,,,,,,,,,,,1187.7974279000045,None,,,,,,,,,,,,,,,,,phrase,165,50,silent,new,null,1184.989437600001,None,1184.989437600001,None,1,1.570111499997438,1184.989437600001,None,1.570111499997438,1186.5819537000061,None,1187.1051290000032,None,1187.1051290000032,None,n,0.6624967999960063,1187.1051290000032,None,0.6624967999960063,,,47aloud,001,2022_Sep_06_1553,ProdSingRedoBetween,2021.2.3,59.96778530303226,
,,,,50,0,50,0,,,,,,,,,,,,,,,,,,,,,,1191.6020250000001,None,,,,,,,,,,,,,,,,,little,171,51,silent,new,null,1188.3082198000047,None,1188.3082198000047,None,2,2.0274229000060586,1188.3082198000047,None,2.0274229000060586,1190.3751633000065,None,1190.8839485000062,None,1190.8839485000062,None,n,0.6995650000026217,1190.8839485000062,None,0.6995650000026217,,,47aloud,001,2022_Sep_06_1553,ProdSingRedoBetween,2021.2.3,59.96778530303226,
,,,,51,0,51,0,,,,,,,,,,,,,,,,,,,,,,1195.421891399994,None,,,,,,,,,,,,,,,,,shape,13,52,silent,old,yellow,1192.1021307000046,None,1192.1021307000046,None,4,1.8173972000076901,1192.1021307000046,None,1.8173972000076901,1193.937016900003,None,1194.4425776999997,None,1194.4425776999997,None,f,0.9569534999900497,1194.4425776999997,None,0.9569534999900497,,,47aloud,001,2022_Sep_06_1553,ProdSingRedoBetween,2021.2.3,59.96778530303226,
,,,,52,0,52,0,,,,,,,,,,,,,,,,,,,,,,1198.975918199998,None,,,,,,,,,,,,,,,,,weight,33,53,silent,old,blue,1195.9298095999984,None,1195.9298095999984,None,1,1.797742200011271,1195.9298095999984,None,1.797742200011271,1197.7592554000003,None,1198.2747419999941,None,1198.2747419999941,None,n,0.6847572999977274,1198.2747419999941,None,0.6847572999977274,,,47aloud,001,2022_Sep_06_1553,ProdSingRedoBetween,2021.2.3,59.96778530303226,
,,,,53,0,53,0,,,,,,,,,,,,,,,,,,,,,,1203.4798753000068,None,,,,,,,,,,,,,,,,,device,70,54,silent,old,red,1199.4846392000036,None,1199.4846392000036,None,3,1.7868370000069262,1199.4846392000036,None,1.7868370000069262,1201.298663499998,None,1201.8117284000036,None,1201.8117284000036,None,n,1.6437218000064604,1201.8117284000036,None,1.6437218000064604,,,47aloud,001,2022_Sep_06_1553,ProdSingRedoBetween,2021.2.3,59.96778530303226,
,,,,54,0,54,0,,,,,,,,,,,,,,,,,,,,,,1207.4678099000012,None,,,,,,,,,,,,,,,,,distance,129,55,silent,new,null,1203.9860922999942,None,1203.9860922999942,None,1,2.1894810999947367,1203.9860922999942,None,2.1894810999947367,1206.2022465000045,None,1206.7166586999956,None,1206.7166586999956,None,n,0.7309396999917226,1206.7166586999956,None,0.7309396999917226,,,47aloud,001,2022_Sep_06_1553,ProdSingRedoBetween,2021.2.3,59.96778530303226,
,,,,55,0,55,0,,,,,,,,,,,,,,,,,,,,,,1210.8370004000026,None,,,,,,,,,,,,,,,,,staff,161,56,silent,new,null,1207.9764347000018,None,1207.9764347000018,None,1,1.4471929999999702,1207.9764347000018,None,1.4471929999999702,1209.4543842999992,None,1209.9732651999948,None,1209.9732651999948,None,n,0.8423050999990664,1209.9732651999948,None,0.8423050999990664,,,47aloud,001,2022_Sep_06_1553,ProdSingRedoBetween,2021.2.3,59.96778530303226,
,,,,56,0,56,0,,,,,,,,,,,,,,,,,,,,,,1214.207299200003,None,,,,,,,,,,,,,,,,,frank,34,57,silent,old,blue,1211.3419461000012,None,1211.3419461000012,None,6,1.6255558999982895,1211.3419461000012,None,1.6255558999982895,1212.9910673999984,None,1213.5067049000063,None,1213.5067049000063,None,r,0.6849296000000322,1213.5067049000063,None,0.6849296000000322,,,47aloud,001,2022_Sep_06_1553,ProdSingRedoBetween,2021.2.3,59.96778530303226,
,,,,57,0,57,0,,,,,,,,,,,,,,,,,,,,,,1217.9609674999956,None,,,,,,,,,,,,,,,,,point,127,58,silent,new,null,1214.7151641999953,None,1214.7151641999953,None,1,2.028362700002617,1214.7151641999953,None,2.028362700002617,1216.760870500002,None,1217.2647236000048,None,1217.2647236000048,None,n,0.6708915999915916,1217.2647236000048,None,0.6708915999915916,,,47aloud,001,2022_Sep_06_1553,ProdSingRedoBetween,2021.2.3,59.96778530303226,
,,,,58,0,58,0,,,,,,,,,,,,,,,,,,,,,,1222.032894200005,None,,,,,,,,,,,,,,,,,series,69,59,silent,old,red,1218.4647108000063,None,1218.4647108000063,None,2,1.7589350000052946,1218.4647108000063,None,1.7589350000052946,1220.255821800005,None,1220.766076400003,None,1220.766076400003,None,n,1.2496826999995392,1220.766076400003,None,1.2496826999995392,,,47aloud,001,2022_Sep_06_1553,ProdSingRedoBetween,2021.2.3,59.96778530303226,
,,,,59,0,59,0,,,,,,,,,,,,,,,,,,,,,,1225.320292599994,None,,,,,,,,,,,,,,,,,surprise,178,60,silent,new,null,1222.5386244999972,None,1222.5386244999972,None,1,1.644863699999405,1222.5386244999972,None,1.644863699999405,1224.2021386999986,None,1224.717778300008,None,1224.717778300008,None,n,0.5858399999997346,1224.717778300008,None,0.5858399999997346,,,47aloud,001,2022_Sep_06_1553,ProdSingRedoBetween,2021.2.3,59.96778530303226,
,,,,60,0,60,0,,,,,,,,,,,,,,,,,,,,,,1231.7581609000044,None,,,,,,,,,,,,,,,,,private,80,61,silent,old,red,1225.836963499998,None,1225.836963499998,None,3,3.778601500001969,1225.836963499998,None,3.778601500001969,1229.6417812,None,1230.156745100001,None,1230.156745100001,None,f,1.578844499992556,1230.156745100001,None,1.578844499992556,,,47aloud,001,2022_Sep_06_1553,ProdSingRedoBetween,2021.2.3,59.96778530303226,
,,,,61,0,61,0,,,,,,,,,,,,,,,,,,,,,,1235.3617279000027,None,,,,,,,,,,,,,,,,,beauty,108,62,silent,new,null,1232.2707100999978,None,1232.2707100999978,None,2,1.62487549999787,1232.2707100999978,None,1.62487549999787,1233.9123867000017,None,1234.427618200003,None,1234.427618200003,None,n,0.9081468999938807,1234.427618200003,None,0.9081468999938807,,,47aloud,001,2022_Sep_06_1553,ProdSingRedoBetween,2021.2.3,59.96778530303226,
,,,,62,0,62,0,,,,,,,,,,,,,,,,,,,,,,1238.7819247000007,None,,,,,,,,,,,,,,,,,turkey,130,63,silent,new,null,1235.8729065999942,None,1235.8729065999942,None,1,1.5426748000027146,1235.8729065999942,None,1.5426748000027146,1237.432074700002,None,1237.937791599994,None,1237.937791599994,None,n,0.8216806999989785,1237.937791599994,None,0.8216806999989785,,,47aloud,001,2022_Sep_06_1553,ProdSingRedoBetween,2021.2.3,59.96778530303226,
,,,,63,0,63,0,,,,,,,,,,,,,,,,,,,,,,1242.321696400002,None,,,,,,,,,,,,,,,,,center,112,64,silent,new,null,1239.2903946000006,None,1239.2903946000006,None,4,1.6132240999868372,1239.2903946000006,None,1.6132240999868372,1240.9401947000006,None,1241.4513717999944,None,1241.4513717999944,None,f,0.8442702000029385,1241.4513717999944,None,0.8442702000029385,,,47aloud,001,2022_Sep_06_1553,ProdSingRedoBetween,2021.2.3,59.96778530303226,
,,,,64,0,64,0,,,,,,,,,,,,,,,,,,,,,,1246.556568400003,None,,,,,,,,,,,,,,,,,native,125,65,silent,new,null,1242.8376629999984,None,1242.8376629999984,None,1,2.4259135000029346,1242.8376629999984,None,2.4259135000029346,1245.2894299000036,None,1245.7889414999954,None,1245.7889414999954,None,n,0.7386566999921342,1245.7889414999954,None,0.7386566999921342,,,47aloud,001,2022_Sep_06_1553,ProdSingRedoBetween,2021.2.3,59.96778530303226,
,,,,65,0,65,0,,,,,,,,,,,,,,,,,,,,,,1250.7104626000073,None,,,,,,,,,,,,,,,,,danger,58,66,silent,old,blue,1247.0641332999949,None,1247.0641332999949,None,5,1.8714951000001747,1247.0641332999949,None,1.8714951000001747,1248.9664072000014,None,1249.4772074000066,None,1249.4772074000066,None,r,1.202381900002365,1249.4772074000066,None,1.202381900002365,,,47aloud,001,2022_Sep_06_1553,ProdSingRedoBetween,2021.2.3,59.96778530303226,
,,,,66,0,66,0,,,,,,,,,,,,,,,,,,,,,,1253.964284600006,None,,,,,,,,,,,,,,,,,marriage,30,67,silent,old,blue,1251.2150069000054,None,1251.2150069000054,None,1,1.5365817999991123,1251.2150069000054,None,1.5365817999991123,1252.7797559000028,None,1253.2826003000082,None,1253.2826003000082,None,n,0.6610744999925373,1253.2826003000082,None,0.6610744999925373,,,47aloud,001,2022_Sep_06_1553,ProdSingRedoBetween,2021.2.3,59.96778530303226,
,,,,67,0,67,0,,,,,,,,,,,,,,,,,,,,,,1258.5869189000077,None,,,,,,,,,,,,,,,,,force,93,68,silent,new,null,1254.4743820000003,None,1254.4743820000003,None,2,1.8372445999993943,1254.4743820000003,None,1.8372445999993943,1256.3408484999964,None,1256.852540100008,None,1256.852540100008,None,f,1.7069436999881873,1256.852540100008,None,1.7069436999881873,,,47aloud,001,2022_Sep_06_1553,ProdSingRedoBetween,2021.2.3,59.96778530303226,
,,,,68,0,68,0,,,,,,,,,,,,,,,,,,,,,,1262.091245100004,None,,,,,,,,,,,,,,,,,message,105,69,silent,new,null,1259.102251999997,None,1259.102251999997,None,4,1.8493276000081096,1259.102251999997,None,1.8493276000081096,1260.9726305999939,None,1261.4880398999958,None,1261.4880398999958,None,f,0.5757738000102108,1261.4880398999958,None,0.5757738000102108,,,47aloud,001,2022_Sep_06_1553,ProdSingRedoBetween,2021.2.3,59.96778530303226,
,,,,69,0,69,0,,,,,,,,,,,,,,,,,,,,,,1265.1748688999942,None,,,,,,,,,,,,,,,,,season,83,70,silent,old,red,1262.6121480000002,None,1262.6121480000002,None,5,1.611464600006002,1262.6121480000002,None,1.611464600006002,1264.246948800006,None,1264.757952800006,None,1264.757952800006,None,f,0.3856633000104921,1264.757952800006,None,0.3856633000104921,,,47aloud,001,2022_Sep_06_1553,ProdSingRedoBetween,2021.2.3,59.96778530303226,
,,,,70,0,70,0,,,,,,,,,,,,,,,,,,,,,,1268.7450660000031,None,,,,,,,,,,,,,,,,,concern,39,71,silent,old,blue,1265.6844482000015,None,1265.6844482000015,None,3,2.0671222999953898,1265.6844482000015,None,2.0671222999953898,1267.7801959000062,None,1268.2947477999987,None,1268.2947477999987,None,f,0.43282110001018737,1268.2947477999987,None,0.43282110001018737,,,47aloud,001,2022_Sep_06_1553,ProdSingRedoBetween,2021.2.3,59.96778530303226,
,,,,71,0,71,0,,,,,,,,,,,,,,,,,,,,,,1273.232950000005,None,,,,,,,,,,,,,,,,,period,166,72,silent,new,null,1269.252718799995,None,1269.252718799995,None,2,2.266894100001082,1269.252718799995,None,2.266894100001082,1271.5506468999956,None,1272.0710486000025,None,1272.0710486000025,None,n,1.1446450000075856,1272.0710486000025,None,1.1446450000075856,,,47aloud,001,2022_Sep_06_1553,ProdSingRedoBetween,2021.2.3,59.96778530303226,
,,,,72,0,72,0,,,,,,,,,,,,,,,,,,,,,,1276.9215423999995,None,,,,,,,,,,,,,,,,,permit,43,73,silent,old,blue,1273.7371704999969,None,1273.7371704999969,None,5,2.0944722999993246,1273.7371704999969,None,2.0944722999993246,1275.855474099997,None,1276.3693769999954,None,1276.3693769999954,None,r,0.5262640000000829,1276.3693769999954,None,0.5262640000000829,,,47aloud,001,2022_Sep_06_1553,ProdSingRedoBetween,2021.2.3,59.96778530303226,
,,,,73,0,73,0,,,,,,,,,,,,,,,,,,,,,,1280.5580791999964,None,,,,,,,,,,,,,,,,,country,118,74,silent,new,null,1277.4403072999994,None,1277.4403072999994,None,1,1.8392966999963392,1277.4403072999994,None,1.8392966999963392,1279.307079399994,None,1279.8229863000015,None,1279.8229863000015,None,n,0.7126739999948768,1279.8229863000015,None,0.7126739999948768,,,47aloud,001,2022_Sep_06_1553,ProdSingRedoBetween,2021.2.3,59.96778530303226,
,,,,74,0,74,0,,,,,,,,,,,,,,,,,,,,,,1283.9267993999965,None,,,,,,,,,,,,,,,,,silence,152,75,silent,new,null,1281.0635620999965,None,1281.0635620999965,None,1,1.6080399000056786,1281.0635620999965,None,1.6080399000056786,1282.6946624999982,None,1283.2097527000005,None,1283.2097527000005,None,n,0.7017141999967862,1283.2097527000005,None,0.7017141999967862,,,47aloud,001,2022_Sep_06_1553,ProdSingRedoBetween,2021.2.3,59.96778530303226,
,,,,75,0,75,0,,,,,,,,,,,,,,,,,,,,,,1287.5306048000057,None,,,,,,,,,,,,,,,,,victory,51,76,silent,old,blue,1284.4424061000027,None,1284.4424061000027,None,6,1.6290866000053938,1284.4424061000027,None,1.6290866000053938,1286.0968581000052,None,1286.5986165000068,None,1286.5986165000068,None,r,0.9130465999915032,1286.5986165000068,None,0.9130465999915032,,,47aloud,001,2022_Sep_06_1553,ProdSingRedoBetween,2021.2.3,59.96778530303226,
,,,,76,0,76,0,,,,,,,,,,,,,,,,,,,,,,1292.4353543000034,None,,,,,,,,,,,,,,,,,voice,148,77,silent,new,null,1288.0353578000068,None,1288.0353578000068,None,2,2.4521680000034394,1288.0353578000068,None,2.4521680000034394,1290.5253121999995,None,1291.036885900001,None,1291.036885900001,None,n,1.3787544000078924,1291.036885900001,None,1.3787544000078924,,,47aloud,001,2022_Sep_06_1553,ProdSingRedoBetween,2021.2.3,59.96778530303226,
,,,,77,0,77,0,,,,,,,,,,,,,,,,,,,,,,1295.8391269999993,None,,,,,,,,,,,,,,,,,problem,36,78,silent,old,blue,1292.9398210000072,None,1292.9398210000072,None,6,1.73191190000216,1292.9398210000072,None,1.73191190000216,1294.6939776000072,None,1295.2156279000046,None,1295.2156279000046,None,r,0.5919992999988608,1295.2156279000046,None,0.5919992999988608,,,47aloud,001,2022_Sep_06_1553,ProdSingRedoBetween,2021.2.3,59.96778530303226,
,,,,78,0,78,0,,,,,,,,,,,,,,,,,,,,,,1299.2755515000026,None,,,,,,,,,,,,,,,,,count,50,79,silent,old,blue,1296.343875599996,None,1296.343875599996,None,4,1.839721800002735,1296.343875599996,None,1.839721800002735,1298.2105137000035,None,1298.7272229000082,None,1298.7272229000082,None,f,0.5203771999949822,1298.7272229000082,None,0.5203771999949822,,,47aloud,001,2022_Sep_06_1553,ProdSingRedoBetween,2021.2.3,59.96778530303226,
,,,,79,0,79,0,,,,,,,,,,,,,,,,,,,,,,1302.645715599996,None,,,,,,,,,,,,,,,,,crowd,123,80,silent,new,null,1299.7901090999949,None,1299.7901090999949,None,1,1.55359199999657,1299.7901090999949,None,1.55359199999657,1301.363910400003,None,1301.8832000999973,None,1301.8832000999973,None,n,0.7405708000005689,1301.8832000999973,None,0.7405708000005689,,,47aloud,001,2022_Sep_06_1553,ProdSingRedoBetween,2021.2.3,59.96778530303226,
,,,,80,0,80,0,,,,,,,,,,,,,,,,,,,,,,1305.5841158999974,None,,,,,,,,,,,,,,,,,opening,89,81,silent,old,red,1303.1469834000018,None,1303.1469834000018,None,1,1.4606278999999631,1303.1469834000018,None,1.4606278999999631,1304.6322235999978,None,1305.1347853000043,None,1305.1347853000043,None,n,0.4248544000001857,1305.1347853000043,None,0.4248544000001857,,,47aloud,001,2022_Sep_06_1553,ProdSingRedoBetween,2021.2.3,59.96778530303226,
,,,,81,0,81,0,,,,,,,,,,,,,,,,,,,,,,1308.9186178999953,None,,,,,,,,,,,,,,,,,corner,126,82,silent,new,null,1306.0996741999988,None,1306.0996741999988,None,3,2.0278742000082275,1306.0996741999988,None,2.0278742000082275,1308.152843600008,None,1308.6542564999982,None,1308.6542564999982,None,f,0.24932970000372734,1308.6542564999982,None,0.24932970000372734,,,47aloud,001,2022_Sep_06_1553,ProdSingRedoBetween,2021.2.3,59.96778530303226,
,,,,82,0,82,0,,,,,,,,,,,,,,,,,,,,,,1313.2229063999985,None,,,,,,,,,,,,,,,,,meeting,17,83,silent,old,yellow,1309.4192851999978,None,1309.4192851999978,None,3,2.6366181000048527,1309.4192851999978,None,2.6366181000048527,1312.073547100008,None,1312.5908363000053,None,1312.5908363000053,None,f,0.6167106000066269,1312.5908363000053,None,0.6167106000066269,,,47aloud,001,2022_Sep_06_1553,ProdSingRedoBetween,2021.2.3,59.96778530303226,
,,,,83,0,83,0,,,,,,,,,,,,,,,,,,,,,,1316.6782600000006,None,,,,,,,,,,,,,,,,,power,135,84,silent,new,null,1313.7244778000022,None,1313.7244778000022,None,1,1.6032853000069736,1313.7244778000022,None,1.6032853000069736,1315.3646504000062,None,1315.8757387000078,None,1315.8757387000078,None,n,0.7799168000055943,1315.8757387000078,None,0.7799168000055943,,,47aloud,001,2022_Sep_06_1553,ProdSingRedoBetween,2021.2.3,59.96778530303226,
,,,,84,0,84,0,,,,,,,,,,,,,,,,,,,,,,1320.063150300004,None,,,,,,,,,,,,,,,,,provision,92,85,silent,new,null,1317.196080900001,None,1317.196080900001,None,1,1.5714777000102913,1317.196080900001,None,1.5714777000102913,1318.8025691000075,None,1319.312470200006,None,1319.312470200006,None,n,0.7351817000017036,1319.312470200006,None,0.7351817000017036,,,47aloud,001,2022_Sep_06_1553,ProdSingRedoBetween,2021.2.3,59.96778530303226,
,,,,85,0,85,0,,,,,,,,,,,,,,,,,,,,,,1323.4831762999966,None,,,,,,,,,,,,,,,,,attack,19,86,silent,old,yellow,1320.5731126000028,None,1320.5731126000028,None,2,1.7067660000029719,1320.5731126000028,None,1.7067660000029719,1322.302699199994,None,1322.8189127000078,None,1322.8189127000078,None,f,0.6366311000019778,1322.8189127000078,None,0.6366311000019778,,,47aloud,001,2022_Sep_06_1553,ProdSingRedoBetween,2021.2.3,59.96778530303226,
,,,,86,0,86,0,,,,,,,,,,,,,,,,,,,,,,1327.1200687999954,None,,,,,,,,,,,,,,,,,damage,21,87,silent,old,yellow,1323.9919079999963,None,1323.9919079999963,None,2,1.9197028000053251,1323.9919079999963,None,1.9197028000053251,1325.9364735999989,None,1326.4365936999966,None,1326.4365936999966,None,f,0.6670362000004388,1326.4365936999966,None,0.6670362000004388,,,47aloud,001,2022_Sep_06_1553,ProdSingRedoBetween,2021.2.3,59.96778530303226,
,,,,87,0,87,0,,,,,,,,,,,,,,,,,,,,,,1330.2068218000059,None,,,,,,,,,,,,,,,,,afternoon,121,88,silent,new,null,1327.635969199997,None,1327.635969199997,None,1,1.5156557000009343,1327.635969199997,None,1.5156557000009343,1329.1765789000056,None,1329.6892380000063,None,1329.6892380000063,None,n,0.4944137000129558,1329.6892380000063,None,0.4944137000129558,,,47aloud,001,2022_Sep_06_1553,ProdSingRedoBetween,2021.2.3,59.96778530303226,
,,,,88,0,88,0,,,,,,,,,,,,,,,,,,,,,,1332.9426970000059,None,,,,,,,,,,,,,,,,,sunset,145,89,silent,new,null,1330.7187720000074,None,1330.7187720000074,None,1,1.2569035000051372,1330.7187720000074,None,1.2569035000051372,1331.9929955999978,None,1332.492341300007,None,1332.492341300007,None,n,0.4273114999959944,1332.492341300007,None,0.4273114999959944,,,47aloud,001,2022_Sep_06_1553,ProdSingRedoBetween,2021.2.3,59.96778530303226,
,,,,89,0,89,0,,,,,,,,,,,,,,,,,,,,,,1336.799289600007,None,,,,,,,,,,,,,,,,,union,40,90,silent,old,blue,1333.4446915000008,None,1333.4446915000008,None,6,1.8508849999925587,1333.4446915000008,None,1.8508849999925587,1335.3126463999943,None,1335.8178627000016,None,1335.8178627000016,None,r,0.9579521999985445,1335.8178627000016,None,0.9579521999985445,,,47aloud,001,2022_Sep_06_1553,ProdSingRedoBetween,2021.2.3,59.96778530303226,
,,,,90,0,90,0,,,,,,,,,,,,,,,,,,,,,,1340.3666692999977,None,,,,,,,,,,,,,,,,,reading,107,91,silent,new,null,1337.3137715000048,None,1337.3137715000048,None,1,2.069861600000877,1337.3137715000048,None,2.069861600000877,1339.4015342000057,None,1339.9189656999952,None,1339.9189656999952,None,n,0.43266929998935666,1339.9189656999952,None,0.43266929998935666,,,47aloud,001,2022_Sep_06_1553,ProdSingRedoBetween,2021.2.3,59.96778530303226,
,,,,91,0,91,0,,,,,,,,,,,,,,,,,,,,,,1343.703161700003,None,,,,,,,,,,,,,,,,,pressure,67,92,silent,old,red,1340.8671255000081,None,1340.8671255000081,None,5,1.7404599000001326,1340.8671255000081,None,1.7404599000001326,1342.6359219000005,None,1343.1411767999962,None,1343.1411767999962,None,r,0.5303399999975227,1343.1411767999962,None,0.5303399999975227,,,47aloud,001,2022_Sep_06_1553,ProdSingRedoBetween,2021.2.3,59.96778530303226,
,,,,92,0,92,0,,,,,,,,,,,,,,,,,,,,,,1347.006436399999,None,,,,,,,,,,,,,,,,,listen,2,93,silent,old,yellow,1344.2043387000012,None,1344.2043387000012,None,5,1.7952982999995584,1344.2043387000012,None,1.7952982999995584,1346.023503999997,None,1346.526723300005,None,1346.526723300005,None,r,0.45683769999595825,1346.526723300005,None,0.45683769999595825,,,47aloud,001,2022_Sep_06_1553,ProdSingRedoBetween,2021.2.3,59.96778530303226,
,,,,93,0,93,0,,,,,,,,,,,,,,,,,,,,,,1351.6279342000053,None,,,,,,,,,,,,,,,,,appearance,22,94,silent,old,yellow,1347.5110674000025,None,1347.5110674000025,None,5,2.8245732999930624,1347.5110674000025,None,2.8245732999930624,1350.362153199996,None,1350.8772768000053,None,1350.8772768000053,None,r,0.722369199997047,1350.8772768000053,None,0.722369199997047,,,47aloud,001,2022_Sep_06_1553,ProdSingRedoBetween,2021.2.3,59.96778530303226,
,,,,94,0,94,0,,,,,,,,,,,,,,,,,,,,,,1354.8977114000008,None,,,,,,,,,,,,,,,,,congress,46,95,silent,old,blue,1352.139043400006,None,1352.139043400006,None,1,1.4925957999948878,1352.139043400006,None,1.4925957999948878,1353.6496465999953,None,1354.164041600001,None,1354.164041600001,None,n,0.7155123000120511,1354.164041600001,None,0.7155123000120511,,,47aloud,001,2022_Sep_06_1553,ProdSingRedoBetween,2021.2.3,59.96778530303226,
,,,,95,0,95,0,,,,,,,,,,,,,,,,,,,,,,1358.6516192999989,None,,,,,,,,,,,,,,,,,symbol,62,96,silent,old,red,1355.4083963000012,None,1355.4083963000012,None,5,1.8954763000074308,1355.4083963000012,None,1.8954763000074308,1357.3427041999967,None,1357.8510163000028,None,1357.8510163000028,None,r,0.7725912999885622,1357.8510163000028,None,0.7725912999885622,,,47aloud,001,2022_Sep_06_1553,ProdSingRedoBetween,2021.2.3,59.96778530303226,
,,,,96,0,96,0,,,,,,,,,,,,,,,,,,,,,,1361.7881783000048,None,,,,,,,,,,,,,,,,,curve,73,97,silent,old,red,1359.1706638000032,None,1359.1706638000032,None,5,1.693066899999394,1359.1706638000032,None,1.693066899999394,1360.8957320000045,None,1361.4044882000017,None,1361.4044882000017,None,r,0.35517199999594595,1361.4044882000017,None,0.35517199999594595,,,47aloud,001,2022_Sep_06_1553,ProdSingRedoBetween,2021.2.3,59.96778530303226,
,,,,97,0,97,0,,,,,,,,,,,,,,,,,,,,,,1365.5585756000073,None,,,,,,,,,,,,,,,,,grade,74,98,silent,old,red,1362.2931661000039,None,1362.2931661000039,None,2,1.778707099991152,1362.2931661000039,None,1.778707099991152,1364.1010870000027,None,1364.6076684,None,1364.6076684,None,f,0.9199129000044195,1364.6076684,None,0.9199129000044195,,,47aloud,001,2022_Sep_06_1553,ProdSingRedoBetween,2021.2.3,59.96778530303226,
,,,,98,0,98,0,,,,,,,,,,,,,,,,,,,,,,1368.8469805000059,None,,,,,,,,,,,,,,,,,literature,164,99,silent,new,null,1366.0632761000015,None,1366.0632761000015,None,1,1.4404240000003483,1366.0632761000015,None,1.4404240000003483,1367.5318065000029,None,1368.0445962999947,None,1368.0445962999947,None,n,0.7790681000042241,1368.0445962999947,None,0.7790681000042241,,,47aloud,001,2022_Sep_06_1553,ProdSingRedoBetween,2021.2.3,59.96778530303226,
,,,,99,0,99,0,,,,,,,,,,,,,,,,,,,,,,1372.7021949000045,None,,,,,,,,,,,,,,,,,interview,170,100,silent,new,null,1369.3678237999993,None,1369.3678237999993,None,2,1.7917420000012498,1369.3678237999993,None,1.7917420000012498,1371.1825469000032,None,1371.6997253000009,None,1371.6997253000009,None,n,0.9720554999948945,1371.6997253000009,None,0.9720554999948945,,,47aloud,001,2022_Sep_06_1553,ProdSingRedoBetween,2021.2.3,59.96778530303226,
,,,,100,0,100,0,,,,,,,,,,,,,,,,,,,,,,1376.4694559000054,None,,,,,,,,,,,,,,,,,breath,142,101,silent,new,null,1373.2243778999982,None,1373.2243778999982,None,1,1.9031475999945542,1373.2243778999982,None,1.9031475999945542,1375.1554868999956,None,1375.6687033000053,None,1375.6687033000053,None,n,0.7709272999927634,1375.6687033000053,None,0.7709272999927634,,,47aloud,001,2022_Sep_06_1553,ProdSingRedoBetween,2021.2.3,59.96778530303226,
,,,,101,0,101,0,,,,,,,,,,,,,,,,,,,,,,1380.8404919000022,None,,,,,,,,,,,,,,,,,welcome,7,102,silent,old,yellow,1376.9701273999963,None,1376.9701273999963,None,4,2.0055210999998963,1376.9701273999963,None,2.0055210999998963,1379.0054022999975,None,1379.5059713000082,None,1379.5059713000082,None,f,1.3096776999882422,1379.5059713000082,None,1.3096776999882422,,,47aloud,001,2022_Sep_06_1553,ProdSingRedoBetween,2021.2.3,59.96778530303226,
,,,,102,0,102,0,,,,,,,,,,,,,,,,,,,,,,1384.0434524000011,None,,,,,,,,,,,,,,,,,religion,102,103,silent,new,null,1381.3423865000077,None,1381.3423865000077,None,1,1.4332378999970388,1381.3423865000077,None,1.4332378999970388,1382.7950506000052,None,1383.3096391,None,1383.3096391,None,n,0.7140540999971563,1383.3096391,None,0.7140540999971563,,,47aloud,001,2022_Sep_06_1553,ProdSingRedoBetween,2021.2.3,59.96778530303226,
,,,,103,0,103,0,,,,,,,,,,,,,,,,,,,,,,1387.2473652000044,None,,,,,,,,,,,,,,,,,majority,47,104,silent,old,blue,1384.5579913999973,None,1384.5579913999973,None,5,1.4337357000040356,1384.5579913999973,None,1.4337357000040356,1386.0147912999964,None,1386.529607000004,None,1386.529607000004,None,f,0.6860792999941623,1386.529607000004,None,0.6860792999941623,,,47aloud,001,2022_Sep_06_1553,ProdSingRedoBetween,2021.2.3,59.96778530303226,
,,,,104,0,104,0,,,,,,,,,,,,,,,,,,,,,,1390.6336470999959,None,,,,,,,,,,,,,,,,,appeal,160,105,silent,new,null,1387.748753699998,None,1387.748753699998,None,4,2.034879400001955,1387.748753699998,None,2.034879400001955,1389.7993368000025,None,1390.3001866999984,None,1390.3001866999984,None,f,0.3154520000098273,1390.3001866999984,None,0.3154520000098273,,,47aloud,001,2022_Sep_06_1553,ProdSingRedoBetween,2021.2.3,59.96778530303226,
,,,,105,0,105,0,,,,,,,,,,,,,,,,,,,,,,1393.5531865999947,None,,,,,,,,,,,,,,,,,tennis,64,106,silent,old,red,1391.1427385999996,None,1391.1427385999996,None,1,1.4488778000086313,1391.1427385999996,None,1.4488778000086313,1392.6197704000078,None,1393.1196004999947,None,1393.1196004999947,None,n,0.40809089998947456,1393.1196004999947,None,0.40809089998947456,,,47aloud,001,2022_Sep_06_1553,ProdSingRedoBetween,2021.2.3,59.96778530303226,
,,,,106,0,106,0,,,,,,,,,,,,,,,,,,,,,,1397.2235164000012,None,,,,,,,,,,,,,,,,,answer,169,107,silent,new,null,1394.0602168000041,None,1394.0602168000041,None,4,2.227451700004167,1394.0602168000041,None,2.227451700004167,1396.3073148999974,None,1396.8065746000066,None,1396.8065746000066,None,f,0.40101799998956267,1396.8065746000066,None,0.40101799998956267,,,47aloud,001,2022_Sep_06_1553,ProdSingRedoBetween,2021.2.3,59.96778530303226,
,,,,107,0,107,0,,,,,,,,,,,,,,,,,,,,,,1400.1430432000052,None,,,,,,,,,,,,,,,,,dozen,174,108,silent,new,null,1397.7454088999948,None,1397.7454088999948,None,1,1.5822511000005761,1397.7454088999948,None,1.5822511000005761,1399.3600566999958,None,1399.863506499998,None,1399.863506499998,None,n,0.24824879999505356,1399.863506499998,None,0.24824879999505356,,,47aloud,001,2022_Sep_06_1553,ProdSingRedoBetween,2021.2.3,59.96778530303226,
,,,,108,0,108,0,,,,,,,,,,,,,,,,,,,,,,1402.898663800006,None,,,,,,,,,,,,,,,,,bitter,141,109,silent,new,null,1400.651493199999,None,1400.651493199999,None,1,1.3561598000087542,1400.651493199999,None,1.3561598000087542,1402.0293942999997,None,1402.529800599994,None,1402.529800599994,None,n,0.3500862000073539,1402.529800599994,None,0.3500862000073539,,,47aloud,001,2022_Sep_06_1553,ProdSingRedoBetween,2021.2.3,59.96778530303226,
,,,,109,0,109,0,,,,,,,,,,,,,,,,,,,,,,1407.100090299995,None,,,,,,,,,,,,,,,,,fellow,27,110,silent,old,yellow,1403.4150547000027,None,1403.4150547000027,None,6,2.432604399989941,1403.4150547000027,None,2.432604399989941,1405.8668124999967,None,1406.3660802999948,None,1406.3660802999948,None,r,0.7056037000002107,1406.3660802999948,None,0.7056037000002107,,,47aloud,001,2022_Sep_06_1553,ProdSingRedoBetween,2021.2.3,59.96778530303226,
,,,,110,0,110,0,,,,,,,,,,,,,,,,,,,,,,1409.9862734000053,None,,,,,,,,,,,,,,,,,captain,6,111,silent,old,yellow,1407.603403800007,None,1407.603403800007,None,6,1.460232500001439,1407.603403800007,None,1.460232500001439,1409.0928148999956,None,1409.6024629000021,None,1409.6024629000021,None,r,0.3574801000067964,1409.6024629000021,None,0.3574801000067964,,,47aloud,001,2022_Sep_06_1553,ProdSingRedoBetween,2021.2.3,59.96778530303226,
,,,,111,0,111,0,,,,,,,,,,,,,,,,,,,,,,1413.2562505999958,None,,,,,,,,,,,,,,,,,mayor,113,112,silent,new,null,1410.497839500007,None,1410.497839500007,None,3,1.7658082999987528,1410.497839500007,None,1.7658082999987528,1412.2907243999944,None,1412.8059280000016,None,1412.8059280000016,None,f,0.4337145000026794,1412.8059280000016,None,0.4337145000026794,,,47aloud,001,2022_Sep_06_1553,ProdSingRedoBetween,2021.2.3,59.96778530303226,
,,,,112,0,112,0,,,,,,,,,,,,,,,,,,,,,,1417.4609276999981,None,,,,,,,,,,,,,,,,,reach,101,113,silent,new,null,1413.7587201999995,None,1413.7587201999995,None,5,1.8969801000057487,1413.7587201999995,None,1.8969801000057487,1415.6812198999978,None,1416.1935846999986,None,1416.1935846999986,None,r,1.2381156999908853,1416.1935846999986,None,1.2381156999908853,,,47aloud,001,2022_Sep_06_1553,ProdSingRedoBetween,2021.2.3,59.96778530303226,
,,,,113,0,113,0,,,,,,,,,,,,,,,,,,,,,,1420.4967199999955,None,,,,,,,,,,,,,,,,,crisis,63,114,silent,old,red,1417.9739490000065,None,1417.9739490000065,None,6,1.6736447000002954,1417.9739490000065,None,1.6736447000002954,1419.6807233,None,1420.179930600003,None,1420.179930600003,None,r,0.29966560000320897,1420.179930600003,None,0.29966560000320897,,,47aloud,001,2022_Sep_06_1553,ProdSingRedoBetween,2021.2.3,59.96778530303226,
,,,,114,0,114,0,,,,,,,,,,,,,,,,,,,,,,1425.1849195999966,None,,,,,,,,,,,,,,,,,education,10,115,silent,old,yellow,1421.0022145999974,None,1421.0022145999974,None,6,3.1974041999928886,1421.0022145999974,None,3.1974041999928886,1424.2188410999952,None,1424.7199658000027,None,1424.7199658000027,None,r,0.4478322000068147,1424.7199658000027,None,0.4478322000068147,,,47aloud,001,2022_Sep_06_1553,ProdSingRedoBetween,2021.2.3,59.96778530303226,
,,,,115,0,115,0,,,,,,,,,,,,,,,,,,,,,,1429.8226256000053,None,,,,,,,,,,,,,,,,,hearing,134,116,silent,new,null,1425.6940143999964,None,1425.6940143999964,None,3,1.8336398000101326,1425.6940143999964,None,1.8336398000101326,1427.5567365000024,None,1428.0711582999938,None,1428.0711582999938,None,f,1.73650890000863,1428.0711582999938,None,1.73650890000863,,,47aloud,001,2022_Sep_06_1553,ProdSingRedoBetween,2021.2.3,59.96778530303226,
,,,,116,0,116,0,,,,,,,,,,,,,,,,,,,,,,1433.8765411000059,None,,,,,,,,,,,,,,,,,master,140,117,silent,new,null,1430.3337968999986,None,1430.3337968999986,None,2,2.12987120001344,1430.3337968999986,None,2.12987120001344,1432.4919044999988,None,1433.0016251000052,None,1433.0016251000052,None,n,0.8540566000010585,1433.0016251000052,None,0.8540566000010585,,,47aloud,001,2022_Sep_06_1553,ProdSingRedoBetween,2021.2.3,59.96778530303226,
,,,,117,0,117,0,,,,,,,,,,,,,,,,,,,,,,1437.7307577000029,None,,,,,,,,,,,,,,,,,theme,71,118,silent,old,red,1434.3851181000064,None,1434.3851181000064,None,3,2.0865462999936426,1434.3851181000064,None,2.0865462999936426,1436.4971287999942,None,1436.999282699995,None,1436.999282699995,None,f,0.7124868000100832,1436.999282699995,None,0.7124868000100832,,,47aloud,001,2022_Sep_06_1553,ProdSingRedoBetween,2021.2.3,59.96778530303226,
,,,,118,0,118,0,,,,,,,,,,,,,,,,,,,,,,1440.7337048000045,None,,,,,,,,,,,,,,,,,childhood,172,119,silent,new,null,1438.231210500002,None,1438.231210500002,None,1,1.5284755999891786,1438.231210500002,None,1.5284755999891786,1439.7854855000041,None,1440.3000882000051,None,1440.3000882000051,None,n,0.40350580000085756,1440.3000882000051,None,0.40350580000085756,,,47aloud,001,2022_Sep_06_1553,ProdSingRedoBetween,2021.2.3,59.96778530303226,
,,,,119,0,119,0,,,,,,,,,,,,,,,,,,,,,,1444.0704030000052,None,,,,,,,,,,,,,,,,,thing,167,120,silent,new,null,1441.249784300002,None,1441.249784300002,None,3,1.742035899995244,1441.249784300002,None,1.742035899995244,1443.0346979000024,None,1443.5367243000073,None,1443.5367243000073,None,f,0.5109864999976708,1443.5367243000073,None,0.5109864999976708,,,47aloud,001,2022_Sep_06_1553,ProdSingRedoBetween,2021.2.3,59.96778530303226,
,,,,120,0,120,0,,,,,,,,,,,,,,,,,,,,,,1447.3069285999954,None,,,,,,,,,,,,,,,,,stand,109,121,silent,new,null,1444.5788345000037,None,1444.5788345000037,None,2,1.6448395000043092,1444.5788345000037,None,1.6448395000043092,1446.2422667000064,None,1446.7582854000066,None,1446.7582854000066,None,f,0.5213699999876553,1446.7582854000066,None,0.5213699999876553,,,47aloud,001,2022_Sep_06_1553,ProdSingRedoBetween,2021.2.3,59.96778530303226,
,,,,121,0,121,0,,,,,,,,,,,,,,,,,,,,,,1450.1263753999956,None,,,,,,,,,,,,,,,,,profession,100,122,silent,new,null,1447.8180585000082,None,1447.8180585000082,None,1,1.3735824000032153,1447.8180585000082,None,1.3735824000032153,1449.2109185000008,None,1449.7294966000045,None,1449.7294966000045,None,n,0.36618309999175835,1449.7294966000045,None,0.36618309999175835,,,47aloud,001,2022_Sep_06_1553,ProdSingRedoBetween,2021.2.3,59.96778530303226,
,,,,122,0,122,0,,,,,,,,,,,,,,,,,,,,,,1455.6989871999976,None,,,,,,,,,,,,,,,,,primary,97,123,silent,new,null,1450.6372440999985,None,1450.6372440999985,None,4,3.034439299997757,1450.6372440999985,None,3.034439299997757,1453.6977784000046,None,1454.2088203000021,None,1454.2088203000021,None,f,1.4709127999958582,1454.2088203000021,None,1.4709127999958582,,,47aloud,001,2022_Sep_06_1553,ProdSingRedoBetween,2021.2.3,59.96778530303226,
,,,,123,0,123,0,,,,,,,,,,,,,,,,,,,,,,1459.1018977000058,None,,,,,,,,,,,,,,,,,sleep,49,124,silent,old,blue,1456.2091924999986,None,1456.2091924999986,None,5,1.8465091999969445,1456.2091924999986,None,1.8465091999969445,1458.0880189000018,None,1458.6017696000054,None,1458.6017696000054,None,f,0.47797809999610763,1458.6017696000054,None,0.47797809999610763,,,47aloud,001,2022_Sep_06_1553,ProdSingRedoBetween,2021.2.3,59.96778530303226,
,,,,124,0,124,0,,,,,,,,,,,,,,,,,,,,,,1462.1057113999996,None,,,,,,,,,,,,,,,,,heavy,168,125,silent,new,null,1459.6212229999946,None,1459.6212229999946,None,1,1.3305592999968212,1459.6212229999946,None,1.3305592999968212,1460.980412200006,None,1461.4878996000043,None,1461.4878996000043,None,n,0.5998086999898078,1461.4878996000043,None,0.5998086999898078,,,47aloud,001,2022_Sep_06_1553,ProdSingRedoBetween,2021.2.3,59.96778530303226,
,,,,125,0,125,0,,,,,,,,,,,,,,,,,,,,,,1465.058266699998,None,,,,,,,,,,,,,,,,,quick,133,126,silent,new,null,1462.609028299994,None,1462.609028299994,None,1,1.4546234000008553,1462.609028299994,None,1.4546234000008553,1464.093282700007,None,1464.610144499995,None,1464.610144499995,None,n,0.42143940000096336,1464.610144499995,None,0.42143940000096336,,,47aloud,001,2022_Sep_06_1553,ProdSingRedoBetween,2021.2.3,59.96778530303226,
,,,,126,0,126,0,,,,,,,,,,,,,,,,,,,,,,1468.7617297999968,None,,,,,,,,,,,,,,,,,nature,31,127,silent,old,blue,1465.5584353000013,None,1465.5584353000013,None,6,1.665383399988059,1465.5584353000013,None,1.665383399988059,1467.2434903999965,None,1467.7444169000082,None,1467.7444169000082,None,r,0.9912364999909187,1467.7444169000082,None,0.9912364999909187,,,47aloud,001,2022_Sep_06_1553,ProdSingRedoBetween,2021.2.3,59.96778530303226,
,,,,127,0,127,0,,,,,,,,,,,,,,,,,,,,,,1472.1984862999961,None,,,,,,,,,,,,,,,,,tragedy,116,128,silent,new,null,1469.2746712999942,None,1469.2746712999942,None,6,1.9809027000010246,1469.2746712999942,None,1.9809027000010246,1471.290253900006,None,1471.7982364000054,None,1471.7982364000054,None,r,0.3854509000084363,1471.7982364000054,None,0.3854509000084363,,,47aloud,001,2022_Sep_06_1553,ProdSingRedoBetween,2021.2.3,59.96778530303226,
,,,,128,0,128,0,,,,,,,,,,,,,,,,,,,,,,1475.4684777000075,None,,,,,,,,,,,,,,,,,bright,117,129,silent,new,null,1472.6990879000077,None,1472.6990879000077,None,4,1.6845426999934716,1472.6990879000077,None,1.6845426999934716,1474.4029259999952,None,1474.921513399997,None,1474.921513399997,None,f,0.5181892999971751,1474.921513399997,None,0.5181892999971751,,,47aloud,001,2022_Sep_06_1553,ProdSingRedoBetween,2021.2.3,59.96778530303226,
,,,,129,0,129,0,,,,,,,,,,,,,,,,,,,,,,1480.056276000003,None,,,,,,,,,,,,,,,,,finish,159,130,silent,new,null,1475.972033500002,None,1475.972033500002,None,3,2.4599569999991218,1475.972033500002,None,2.4599569999991218,1478.462950400004,None,1478.9720603000023,None,1478.9720603000023,None,f,1.067676799997571,1478.9720603000023,None,1.067676799997571,,,47aloud,001,2022_Sep_06_1553,ProdSingRedoBetween,2021.2.3,59.96778530303226,
,,,,130,0,130,0,,,,,,,,,,,,,,,,,,,,,,1484.1437432999955,None,,,,,,,,,,,,,,,,,agency,137,131,silent,new,null,1480.5669874000014,None,1480.5669874000014,None,3,2.2808229999936884,1480.5669874000014,None,2.2808229999936884,1482.8835624000058,None,1483.3963267000072,None,1483.3963267000072,None,f,0.7313670000003185,1483.3963267000072,None,0.7313670000003185,,,47aloud,001,2022_Sep_06_1553,ProdSingRedoBetween,2021.2.3,59.96778530303226,
,,,,131,0,131,0,,,,,,,,,,,,,,,,,,,,,,1487.380301199999,None,,,,,,,,,,,,,,,,,smooth,56,132,silent,old,blue,1484.6530067999993,None,1484.6530067999993,None,4,1.850680800009286,1484.6530067999993,None,1.850680800009286,1486.5336989000061,None,1487.0468250999984,None,1487.0468250999984,None,f,0.3048971999960486,1487.0468250999984,None,0.3048971999960486,,,47aloud,001,2022_Sep_06_1553,ProdSingRedoBetween,2021.2.3,59.96778530303226,
,,,,132,0,132,0,,,,,,,,,,,,,,,,,,,,,,1490.3497792999988,None,,,,,,,,,,,,,,,,,population,14,133,silent,old,yellow,1487.8947273999947,None,1487.8947273999947,None,6,1.4809769999992568,1487.8947273999947,None,1.4809769999992568,1489.406916299995,None,1489.920369200001,None,1489.920369200001,None,r,0.40719650000391994,1489.920369200001,None,0.40719650000391994,,,47aloud,001,2022_Sep_06_1553,ProdSingRedoBetween,2021.2.3,59.96778530303226,
,,,,133,0,133,0,,,,,,,,,,,,,,,,,,,,,,1493.420664899997,None,,,,,,,,,,,,,,,,,narrow,120,134,silent,new,null,1490.8561948999995,None,1490.8561948999995,None,1,1.5514542000018992,1490.8561948999995,None,1.5514542000018992,1492.4392612999945,None,1492.9570930000045,None,1492.9570930000045,None,n,0.4426113999943482,1492.9570930000045,None,0.4426113999943482,,,47aloud,001,2022_Sep_06_1553,ProdSingRedoBetween,2021.2.3,59.96778530303226,
,,,,134,0,134,0,,,,,,,,,,,,,,,,,,,,,,1496.6563190000015,None,,,,,,,,,,,,,,,,,atmosphere,144,135,silent,new,null,1493.926505800002,None,1493.926505800002,None,1,1.4493151000060607,1493.926505800002,None,1.4493151000060607,1495.407061100006,None,1495.9284650000045,None,1495.9284650000045,None,n,0.711293400003342,1495.9284650000045,None,0.711293400003342,,,47aloud,001,2022_Sep_06_1553,ProdSingRedoBetween,2021.2.3,59.96778530303226,
,,,,135,0,135,0,,,,,,,,,,,,,,,,,,,,,,1500.4266611000057,None,,,,,,,,,,,,,,,,,member,52,136,silent,old,blue,1497.1623613999982,None,1497.1623613999982,None,3,1.989347299997462,1497.1623613999982,None,1.989347299997462,1499.1772564999992,None,1499.6943328000052,None,1499.6943328000052,None,f,0.7053281999978935,1499.6943328000052,None,0.7053281999978935,,,47aloud,001,2022_Sep_06_1553,ProdSingRedoBetween,2021.2.3,59.96778530303226,
,,,,136,0,136,0,,,,,,,,,,,,,,,,,,,,,,1503.2294747999986,None,,,,,,,,,,,,,,,,,carry,48,137,silent,old,blue,1500.938470699999,None,1500.938470699999,None,6,1.4373018000042066,1500.938470699999,None,1.4373018000042066,1502.4041995000007,None,1502.9127246999997,None,1502.9127246999997,None,r,0.2869710000086343,1502.9127246999997,None,0.2869710000086343,,,47aloud,001,2022_Sep_06_1553,ProdSingRedoBetween,2021.2.3,59.96778530303226,
,,,,137,0,137,0,,,,,,,,,,,,,,,,,,,,,,1506.2824742999946,None,,,,,,,,,,,,,,,,,personnel,9,138,silent,old,yellow,1503.738938800001,None,1503.738938800001,None,6,1.6287485999928322,1503.738938800001,None,1.6287485999928322,1505.4001247999986,None,1505.9154146000074,None,1505.9154146000074,None,r,0.3401951999985613,1505.9154146000074,None,0.3401951999985613,,,47aloud,001,2022_Sep_06_1553,ProdSingRedoBetween,2021.2.3,59.96778530303226,
,,,,138,0,138,0,,,,,,,,,,,,,,,,,,,,,,1509.2520923999982,None,,,,,,,,,,,,,,,,,clear,32,139,silent,old,blue,1506.7880624999962,None,1506.7880624999962,None,6,1.6597796000132803,1506.7880624999962,None,1.6597796000132803,1508.4690370000026,None,1508.9710846999951,None,1508.9710846999951,None,r,0.260499299998628,1508.9710846999951,None,0.260499299998628,,,47aloud,001,2022_Sep_06_1553,ProdSingRedoBetween,2021.2.3,59.96778530303226,
,,,,139,0,139,0,,,,,,,,,,,,,,,,,,,,,,1512.3062130000035,None,,,,,,,,,,,,,,,,,cross,85,140,silent,old,red,1509.7636456000037,None,1509.7636456000037,None,5,1.6121092999965185,1509.7636456000037,None,1.6121092999965185,1511.410179700004,None,1511.9217051000014,None,1511.9217051000014,None,f,0.3659940000070492,1511.9217051000014,None,0.3659940000070492,,,47aloud,001,2022_Sep_06_1553,ProdSingRedoBetween,2021.2.3,59.96778530303226,
,,,,140,0,140,0,,,,,,,,,,,,,,,,,,,,,,1515.7586811000074,None,,,,,,,,,,,,,,,,,harmony,149,141,silent,new,null,1512.8094452000078,None,1512.8094452000078,None,2,2.1102532999939285,1512.8094452000078,None,2.1102532999939285,1514.943274300007,None,1515.4591856000043,None,1515.4591856000043,None,n,0.27649730000121053,1515.4591856000043,None,0.27649730000121053,,,47aloud,001,2022_Sep_06_1553,ProdSingRedoBetween,2021.2.3,59.96778530303226,
,,,,141,0,141,0,,,,,,,,,,,,,,,,,,,,,,1521.3810150000063,None,,,,,,,,,,,,,,,,,sound,110,142,silent,new,null,1516.2690520000033,None,1516.2690520000033,None,3,3.1705481999961194,1516.2690520000033,None,3.1705481999961194,1519.4674144000019,None,1519.9797398000082,None,1519.9797398000082,None,f,1.3800324000039836,1519.9797398000082,None,1.3800324000039836,,,47aloud,001,2022_Sep_06_1553,ProdSingRedoBetween,2021.2.3,59.96778530303226,
,,,,142,0,142,0,,,,,,,,,,,,,,,,,,,,,,1526.3210276000027,None,,,,,,,,,,,,,,,,,tough,29,143,silent,old,blue,1521.8912973999977,None,1521.8912973999977,None,4,3.540411199996015,1521.8912973999977,None,3.540411199996015,1525.4517914000025,None,1525.9523800000024,None,1525.9523800000024,None,f,0.35141590000421274,1525.9523800000024,None,0.35141590000421274,,,47aloud,001,2022_Sep_06_1553,ProdSingRedoBetween,2021.2.3,59.96778530303226,
,,,,143,0,143,0,,,,,,,,,,,,,,,,,,,,,,1532.5087547000003,None,,,,,,,,,,,,,,,,,cover,155,144,silent,new,null,1526.841591400007,None,1526.841591400007,None,3,3.1901271999959135,1526.841591400007,None,3.1901271999959135,1530.0575650999963,None,1530.560789700001,None,1530.560789700001,None,f,1.927016999994521,1530.560789700001,None,1.927016999994521,,,47aloud,001,2022_Sep_06_1553,ProdSingRedoBetween,2021.2.3,59.96778530303226,
,,,,144,0,144,0,,,,,,,,,,,,,,,,,,,,,,1536.0789690999954,None,,,,,,,,,,,,,,,,,column,104,145,silent,new,null,1533.0093468999985,None,1533.0093468999985,None,5,2.0783700999891153,1533.0093468999985,None,2.0783700999891153,1535.1123282000044,None,1535.6119043000072,None,1535.6119043000072,None,f,0.43581199999607634,1535.6119043000072,None,0.43581199999607634,,,47aloud,001,2022_Sep_06_1553,ProdSingRedoBetween,2021.2.3,59.96778530303226,
,,,,145,0,145,0,,,,,,,,,,,,,,,,,,,,,,1539.6659456000052,None,,,,,,,,,,,,,,,,,audience,65,146,silent,old,red,1536.5890683000034,None,1536.5890683000034,None,3,1.8186184999940451,1536.5890683000034,None,1.8186184999940451,1538.432609800002,None,1538.9320283999987,None,1538.9320283999987,None,f,0.7077219000057084,1538.9320283999987,None,0.7077219000057084,,,47aloud,001,2022_Sep_06_1553,ProdSingRedoBetween,2021.2.3,59.96778530303226,
,,,,146,0,146,0,,,,,,,,,,,,,,,,,,,,,,1542.6855830999993,None,,,,,,,,,,,,,,,,,department,115,147,silent,new,null,1540.1693244000053,None,1540.1693244000053,None,1,1.3506347000075039,1540.1693244000053,None,1.3506347000075039,1541.5521057000005,None,1542.0585778999957,None,1542.0585778999957,None,n,0.5972613999911118,1542.0585778999957,None,0.5972613999911118,,,47aloud,001,2022_Sep_06_1553,ProdSingRedoBetween,2021.2.3,59.96778530303226,
,,,,147,0,147,0,,,,,,,,,,,,,,,,,,,,,,1548.157718500006,None,,,,,,,,,,,,,,,,,debate,23,148,silent,old,yellow,1543.1867798000021,None,1543.1867798000021,None,4,3.8289841000078013,1543.1867798000021,None,3.8289841000078013,1547.0409292999975,None,1547.5427902999945,None,1547.5427902999945,None,f,0.5933057999936864,1547.5427902999945,None,0.5933057999936864,,,47aloud,001,2022_Sep_06_1553,ProdSingRedoBetween,2021.2.3,59.96778530303226,
,,,,148,0,148,0,,,,,,,,,,,,,,,,,,,,,,1551.494319999998,None,,,,,,,,,,,,,,,,,store,79,149,silent,old,red,1548.6662160999986,None,1548.6662160999986,None,1,1.7335501000052318,1548.6662160999986,None,1.7335501000052318,1550.429919800008,None,1550.9438876000058,None,1550.9438876000058,None,n,0.527883999995538,1550.9438876000058,None,0.527883999995538,,,47aloud,001,2022_Sep_06_1553,ProdSingRedoBetween,2021.2.3,59.96778530303226,
,,,,149,0,149,0,,,,,,,,,,,,,,,,,,,,,,1554.998309100003,None,,,,,,,,,,,,,,,,,growth,55,150,silent,old,blue,1551.997843300007,None,1551.997843300007,None,3,1.5858788000041386,1551.997843300007,None,1.5858788000041386,1553.614969800008,None,1554.133045900002,None,1554.133045900002,None,f,0.8347180999990087,1554.133045900002,None,0.8347180999990087,,,47aloud,001,2022_Sep_06_1553,ProdSingRedoBetween,2021.2.3,59.96778530303226,
,,,,150,0,150,0,,,,,,,,,,,,,,,,,,,,,,1558.018553300004,None,,,,,,,,,,,,,,,,,design,158,151,silent,new,null,1555.5101121000043,None,1555.5101121000043,None,1,1.3855020999908447,1555.5101121000043,None,1.3855020999908447,1556.9179980000044,None,1557.433696699998,None,1557.433696699998,None,n,0.5659930999972858,1557.433696699998,None,0.5659930999972858,,,47aloud,001,2022_Sep_06_1553,ProdSingRedoBetween,2021.2.3,59.96778530303226,
,,,,151,0,151,0,,,,,,,,,,,,,,,,,,,,,,1561.621192000006,None,,,,,,,,,,,,,,,,,foundation,66,152,silent,old,red,1558.520744399997,None,1558.520744399997,None,3,1.7111267000000225,1558.520744399997,None,1.7111267000000225,1560.2529695999983,None,1560.760574,None,1560.760574,None,n,0.8311832000035793,1560.760574,None,0.8311832000035793,,,47aloud,001,2022_Sep_06_1553,ProdSingRedoBetween,2021.2.3,59.96778530303226,
,,,,152,0,152,0,,,,,,,,,,,,,,,,,,,,,,1565.3580461999954,None,,,,,,,,,,,,,,,,,century,157,153,silent,new,null,1562.1245651000063,None,1562.1245651000063,None,1,2.003244400009862,1562.1245651000063,None,2.003244400009862,1564.1623378999939,None,1564.6743469000066,None,1564.6743469000066,None,n,0.6613997999957064,1564.6743469000066,None,0.6613997999957064,,,47aloud,001,2022_Sep_06_1553,ProdSingRedoBetween,2021.2.3,59.96778530303226,
,,,,153,0,153,0,,,,,,,,,,,,,,,,,,,,,,1568.6448520999984,None,,,,,,,,,,,,,,,,,entrance,41,154,silent,old,blue,1565.8669741000049,None,1565.8669741000049,None,3,1.836749599999166,1565.8669741000049,None,1.836749599999166,1567.7282544000045,None,1568.2356586999958,None,1568.2356586999958,None,f,0.3802299000089988,1568.2356586999958,None,0.3802299000089988,,,47aloud,001,2022_Sep_06_1553,ProdSingRedoBetween,2021.2.3,59.96778530303226,
,,,,154,0,154,0,,,,,,,,,,,,,,,,,,,,,,1571.731276000006,None,,,,,,,,,,,,,,,,,budget,59,155,silent,old,yellow,1569.1592601000011,None,1569.1592601000011,None,1,1.4564717000030214,1569.1592601000011,None,1.4564717000030214,1570.6469873000024,None,1571.1474720999977,None,1571.1474720999977,None,n,0.5643046999903163,1571.1474720999977,None,0.5643046999903163,,,47aloud,001,2022_Sep_06_1553,ProdSingRedoBetween,2021.2.3,59.96778530303226,
,,,,155,0,155,0,,,,,,,,,,,,,,,,,,,,,,1574.951033300007,None,,,,,,,,,,,,,,,,,production,88,156,silent,old,red,1572.2347074999998,None,1572.2347074999998,None,1,1.6531733000010718,1572.2347074999998,None,1.6531733000010718,1573.9213401000015,None,1574.4365666999947,None,1574.4365666999947,None,n,0.49105759999656584,1574.4365666999947,None,0.49105759999656584,,,47aloud,001,2022_Sep_06_1553,ProdSingRedoBetween,2021.2.3,59.96778530303226,
,,,,156,0,156,0,,,,,,,,,,,,,,,,,,,,,,1577.9208250000083,None,,,,,,,,,,,,,,,,,business,132,157,silent,new,null,1575.4516894999979,None,1575.4516894999979,None,1,1.4999869000021135,1575.4516894999979,None,1.4999869000021135,1576.9711193999974,None,1577.4751086000033,None,1577.4751086000033,None,n,0.42875579999235924,1577.4751086000033,None,0.42875579999235924,,,47aloud,001,2022_Sep_06_1553,ProdSingRedoBetween,2021.2.3,59.96778530303226,
,,,,157,0,157,0,,,,,,,,,,,,,,,,,,,,,,1580.9071184000059,None,,,,,,,,,,,,,,,,,orchestra,3,158,silent,old,yellow,1578.4296146999986,None,1578.4296146999986,None,6,1.5940701000072295,1578.4296146999986,None,1.5940701000072295,1580.0442830999964,None,1580.5654489000008,None,1580.5654489000008,None,r,0.3142729999963194,1580.5654489000008,None,0.3142729999963194,,,47aloud,001,2022_Sep_06_1553,ProdSingRedoBetween,2021.2.3,59.96778530303226,
,,,,158,0,158,0,,,,,,,,,,,,,,,,,,,,,,1584.1963460999978,None,,,,,,,,,,,,,,,,,ground,60,159,silent,old,red,1581.414761699998,None,1581.414761699998,None,4,2.088975599996047,1581.414761699998,None,2.088975599996047,1583.527439700003,None,1584.034310300005,None,1584.034310300005,None,f,0.13343480000912677,1584.034310300005,None,0.13343480000912677,,,47aloud,001,2022_Sep_06_1553,ProdSingRedoBetween,2021.2.3,59.96778530303226,
,,,,159,0,159,0,,,,,,,,,,,,,,,,,,,,,,1587.079727400007,None,,,,,,,,,,,,,,,,,running,106,160,silent,new,null,1584.7127595000056,None,1584.7127595000056,None,1,1.5749856000038562,1584.7127595000056,None,1.5749856000038562,1586.313302399998,None,1586.8131383,None,1586.8131383,None,n,0.2426705999969272,1586.8131383,None,0.2426705999969272,,,47aloud,001,2022_Sep_06_1553,ProdSingRedoBetween,2021.2.3,59.96778530303226,
,,,,160,0,160,0,,,,,,,,,,,,,,,,,,,,,,1589.921713799995,None,,,,,,,,,,,,,,,,,suspect,4,161,silent,old,yellow,1587.5895597000053,None,1587.5895597000053,None,6,1.6901827999972738,1587.5895597000053,None,1.6901827999972738,1589.3056434000027,None,1589.823342699994,None,1589.823342699994,None,r,0.07264600000053179,1589.823342699994,None,0.07264600000053179,,,47aloud,001,2022_Sep_06_1553,ProdSingRedoBetween,2021.2.3,59.96778530303226,
,,,,161,0,161,0,,,,,,,,,,,,,,,,,,,,,,1592.735541999995,None,,,,,,,,,,,,,,,,,spoke,175,162,silent,new,null,1590.4445863,None,1590.4445863,None,1,1.5472261999966577,1590.4445863,None,1.5472261999966577,1592.0203836,None,1592.5402568999998,None,1592.5402568999998,None,n,0.1794545000011567,1592.5402568999998,None,0.1794545000011567,,,47aloud,001,2022_Sep_06_1553,ProdSingRedoBetween,2021.2.3,59.96778530303226,
,,,,162,0,162,0,,,,,,,,,,,,,,,,,,,,,,1596.022224500004,None,,,,,,,,,,,,,,,,,command,99,163,silent,new,null,1593.2552350000042,None,1593.2552350000042,None,2,1.7763347000000067,1593.2552350000042,None,1.7763347000000067,1595.0565982999979,None,1595.5717824000021,None,1595.5717824000021,None,n,0.4199984000006225,1595.5717824000021,None,0.4199984000006225,,,47aloud,001,2022_Sep_06_1553,ProdSingRedoBetween,2021.2.3,59.96778530303226,
,,,,163,0,163,0,,,,,,,,,,,,,,,,,,,,,,1598.8083421000047,None,,,,,,,,,,,,,,,,,shear,96,164,silent,new,null,1596.5228203000006,None,1596.5228203000006,None,1,1.3571913999912795,1596.5228203000006,None,1.3571913999912795,1597.9169156999997,None,1598.4266853000008,None,1598.4266853000008,None,n,0.3570651000045473,1598.4266853000008,None,0.3570651000045473,,,47aloud,001,2022_Sep_06_1553,ProdSingRedoBetween,2021.2.3,59.96778530303226,
,,,,164,0,164,0,,,,,,,,,,,,,,,,,,,,,,1601.7139014999993,None,,,,,,,,,,,,,,,,,research,179,165,silent,new,null,1599.3177757999947,None,1599.3177757999947,None,4,1.41792500000156,1599.3177757999947,None,1.41792500000156,1600.7623262999987,None,1601.278204800008,None,1601.278204800008,None,f,0.41765740000118967,1601.278204800008,None,0.41765740000118967,,,47aloud,001,2022_Sep_06_1553,ProdSingRedoBetween,2021.2.3,59.96778530303226,
,,,,165,0,165,0,,,,,,,,,,,,,,,,,,,,,,1606.8330381999986,None,,,,,,,,,,,,,,,,,shock,154,166,silent,new,null,1602.2346011000045,None,1602.2346011000045,None,4,4.0291494999983115,1602.2346011000045,None,4.0291494999983115,1606.2848711999977,None,1606.799760199996,None,1606.799760199996,None,f,0.016094700011308305,1606.799760199996,None,0.016094700011308305,,,47aloud,001,2022_Sep_06_1553,ProdSingRedoBetween,2021.2.3,59.96778530303226,
,,,,166,0,166,0,,,,,,,,,,,,,,,,,,,,,,1610.0529896999942,None,,,,,,,,,,,,,,,,,fight,153,167,silent,new,null,1607.3510970000061,None,1607.3510970000061,None,1,1.8325884999940172,1607.3510970000061,None,1.8325884999940172,1609.2033751999988,None,1609.7026621999976,None,1609.7026621999976,None,n,0.32902040000772104,1609.7026621999976,None,0.32902040000772104,,,47aloud,001,2022_Sep_06_1553,ProdSingRedoBetween,2021.2.3,59.96778530303226,
,,,,167,0,167,0,,,,,,,,,,,,,,,,,,,,,,1613.0392985000071,None,,,,,,,,,,,,,,,,,brief,163,168,silent,new,null,1610.5642607000045,None,1610.5642607000045,None,1,1.5634133999992628,1610.5642607000045,None,1.5634133999992628,1612.1550238000054,None,1612.6594925999962,None,1612.6594925999962,None,n,0.3641774000134319,1612.6594925999962,None,0.3641774000134319,,,47aloud,001,2022_Sep_06_1553,ProdSingRedoBetween,2021.2.3,59.96778530303226,
,,,,168,0,168,0,,,,,,,,,,,,,,,,,,,,,,1615.6250459000003,None,,,,,,,,,,,,,,,,,gesture,78,169,silent,old,red,1613.540209800005,None,1613.540209800005,None,5,1.4755629999999655,1613.540209800005,None,1.4755629999999655,1615.0439840000035,None,1615.5631993999996,None,1615.5631993999996,None,f,0.04452310000488069,1615.5631993999996,None,0.04452310000488069,,,47aloud,001,2022_Sep_06_1553,ProdSingRedoBetween,2021.2.3,59.96778530303226,
,,,,169,0,169,0,,,,,,,,,,,,,,,,,,,,,,1620.3965863000049,None,,,,,,,,,,,,,,,,,health,94,170,silent,new,null,1616.1313133000076,None,1616.1313133000076,None,2,2.604385700004059,1616.1313133000076,None,2.604385700004059,1618.7621100999968,None,1619.2672097000031,None,1619.2672097000031,None,f,1.108543299997109,1619.2672097000031,None,1.108543299997109,,,47aloud,001,2022_Sep_06_1553,ProdSingRedoBetween,2021.2.3,59.96778530303226,
,,,,170,0,170,0,,,,,,,,,,,,,,,,,,,,,,1623.4163243000075,None,,,,,,,,,,,,,,,,,broad,95,171,silent,new,null,1620.9041318999953,None,1620.9041318999953,None,1,1.7196190999966348,1620.9041318999953,None,1.7196190999966348,1622.6498337999947,None,1623.1516140000022,None,1623.1516140000022,None,n,0.2482155000034254,1623.1516140000022,None,0.2482155000034254,,,47aloud,001,2022_Sep_06_1553,ProdSingRedoBetween,2021.2.3,59.96778530303226,
,,,,171,0,171,0,,,,,,,,,,,,,,,,,,,,,,1626.469325099999,None,,,,,,,,,,,,,,,,,charter,38,172,silent,old,blue,1623.9216066999943,None,1623.9216066999943,None,6,1.750143900004332,1623.9216066999943,None,1.750143900004332,1625.7019489999948,None,1626.2076078999962,None,1626.2076078999962,None,r,0.240142199996626,1626.2076078999962,None,0.240142199996626,,,47aloud,001,2022_Sep_06_1553,ProdSingRedoBetween,2021.2.3,59.96778530303226,
,,,,172,0,172,0,,,,,,,,,,,,,,,,,,,,,,1631.2907911000075,None,,,,,,,,,,,,,,,,,close,82,173,silent,old,red,1626.974159400008,None,1626.974159400008,None,4,2.2096644999983255,1626.974159400008,None,2.2096644999983255,1629.214452900007,None,1629.7246971999994,None,1629.7246971999994,None,r,1.5391462999978103,1629.7246971999994,None,1.5391462999978103,,,47aloud,001,2022_Sep_06_1553,ProdSingRedoBetween,2021.2.3,59.96778530303226,
,,,,173,0,173,0,,,,,,,,,,,,,,,,,,,,,,1634.9944628999947,None,,,,,,,,,,,,,,,,,fashion,75,174,silent,old,red,1631.7982372999977,None,1631.7982372999977,None,5,1.9615877000032924,1631.7982372999977,None,1.9615877000032924,1633.7788294000056,None,1634.2950251000002,None,1634.2950251000002,None,r,0.6807865999871865,1634.2950251000002,None,0.6807865999871865,,,47aloud,001,2022_Sep_06_1553,ProdSingRedoBetween,2021.2.3,59.96778530303226,
,,,,174,0,174,0,,,,,,,,,,,,,,,,,,,,,,1638.4312939999945,None,,,,,,,,,,,,,,,,,split,86,175,silent,old,red,1635.497579700008,None,1635.497579700008,None,2,1.622198600001866,1635.497579700008,None,1.622198600001866,1637.147705700001,None,1637.6523142000078,None,1637.6523142000078,None,f,0.7634474999940721,1637.6523142000078,None,0.7634474999940721,,,47aloud,001,2022_Sep_06_1553,ProdSingRedoBetween,2021.2.3,59.96778530303226,
,,,,175,0,175,0,,,,,,,,,,,,,,,,,,,,,,1641.4009122999996,None,,,,,,,,,,,,,,,,,murder,53,176,silent,old,blue,1638.9346927000006,None,1638.9346927000006,None,6,1.5290777999907732,1638.9346927000006,None,1.5290777999907732,1640.486057999995,None,1641.000522500006,None,1641.000522500006,None,r,0.3753073999978369,1641.000522500006,None,0.3753073999978369,,,47aloud,001,2022_Sep_06_1553,ProdSingRedoBetween,2021.2.3,59.96778530303226,
