StudyLoop.thisRepN,StudyLoop.thisTrialN,StudyLoop.thisN,StudyLoop.thisIndex,TestLoop.thisRepN,TestLoop.thisTrialN,TestLoop.thisN,TestLoop.thisIndex,textCondition.started,textCondition.stopped,keyCondition.keys,keyCondition.rt,keyCondition.started,keyCondition.stopped,Condition,textWelcome.started,textWelcome.stopped,keyWelcome.keys,keyWelcome.rt,keyWelcome.started,keyWelcome.stopped,textAloud.started,textAloud.stopped,textSilent.started,textSilent.stopped,textSing.started,textSing.stopped,conditional_text.started,conditional_text.stopped,textBlank500.started,textBlank500.stopped,study_word,study_num,study_order,study_type,word_color,textStudy.started,textStudy.stopped,keyStudy.keys,keyStudy.started,keyStudy.stopped,textTestInstructions.started,textTestInstructions.stopped,key_resp_3.keys,key_resp_3.rt,key_resp_3.started,key_resp_3.stopped,test_word,test_num,test_order,test_condition,old_new_test,test_word_original_color,textConf.started,textConf.stopped,textConfScale.started,textConfScale.stopped,keyConf.keys,keyConf.rt,keyConf.started,keyConf.stopped,confidence response time,textTestBlank.started,textTestBlank.stopped,textRKN.started,textRKN.stopped,textRKNScale.started,textRKNScale.stopped,keyRKN.keys,keyRKN.rt,keyRKN.started,keyRKN.stopped,rkn response time,textEnd.started,textEnd.stopped,participant,session,date,expName,psychopyVersion,frameRate,
,,,,,,,,37.86545310006477,None,a,1.9507798999547958,37.86545310006477,None,,,,,,,,,,,,,,,,,,,,,,,,,,,,,,,,,,,,,,,,,,,,,,,,,,,,,,,,,,,,,,49Silent,001,2022_Sep_12_0926,ProdSingRedoBetween,2021.2.3,60.320179535343954,
,,,,,,,,,,,,,,SilentTest,39.86386709997896,None,space,1454.6330330000492,39.86386709997896,None,,,,,,,,,,,,,,,,,,,,,,,,,,,,,,,,,,,,,,,,,,,,,,,,,,,,,,,49Silent,001,2022_Sep_12_0926,ProdSingRedoBetween,2021.2.3,60.320179535343954,
0,0,0,0,,,,,,,,,,,,,,,,,,39.86386709997896,None,39.86386709997896,None,39.86386709997896,None,39.86386709997896,None,1497.0324523999589,None,straight,7,1,silent,yellow,1495.024377600057,None,None,1495.024377600057,None,,,,,,,,,,,,,,,,,,,,,,,,,,,,,,,,,,,49Silent,001,2022_Sep_12_0926,ProdSingRedoBetween,2021.2.3,60.320179535343954,
1,0,1,0,,,,,,,,,,,,,,,,,,,,,,,,,,1499.534990999964,None,resistance,26,2,silent,yellow,1497.533021499985,None,None,1497.533021499985,None,,,,,,,,,,,,,,,,,,,,,,,,,,,,,,,,,,,49Silent,001,2022_Sep_12_0926,ProdSingRedoBetween,2021.2.3,60.320179535343954,
2,0,2,0,,,,,,,,,,,,,,,,,,,,,,,,,,1502.0374990999699,None,brief,35,3,silent,blue,1500.0357483000262,None,None,1500.0357483000262,None,,,,,,,,,,,,,,,,,,,,,,,,,,,,,,,,,,,49Silent,001,2022_Sep_12_0926,ProdSingRedoBetween,2021.2.3,60.320179535343954,
3,0,3,0,,,,,,,,,,,,,,,,,,,,,,,,,,1504.5567277000519,None,reach,15,4,silent,yellow,1502.5415721000172,None,None,1502.5415721000172,None,,,,,,,,,,,,,,,,,,,,,,,,,,,,,,,,,,,49Silent,001,2022_Sep_12_0926,ProdSingRedoBetween,2021.2.3,60.320179535343954,
4,0,4,0,,,,,,,,,,,,,,,,,,,,,,,,,,1507.059013799997,None,guard,52,5,silent,blue,1505.0572011000477,None,None,1505.0572011000477,None,,,,,,,,,,,,,,,,,,,,,,,,,,,,,,,,,,,49Silent,001,2022_Sep_12_0926,ProdSingRedoBetween,2021.2.3,60.320179535343954,
5,0,5,0,,,,,,,,,,,,,,,,,,,,,,,,,,1509.5619071000256,None,distance,47,6,silent,blue,1507.559703100007,None,None,1507.559703100007,None,,,,,,,,,,,,,,,,,,,,,,,,,,,,,,,,,,,49Silent,001,2022_Sep_12_0926,ProdSingRedoBetween,2021.2.3,60.320179535343954,
6,0,6,0,,,,,,,,,,,,,,,,,,,,,,,,,,1512.0644621000392,None,master,16,7,silent,yellow,1510.0633057999657,None,None,1510.0633057999657,None,,,,,,,,,,,,,,,,,,,,,,,,,,,,,,,,,,,49Silent,001,2022_Sep_12_0926,ProdSingRedoBetween,2021.2.3,60.320179535343954,
7,0,7,0,,,,,,,,,,,,,,,,,,,,,,,,,,1514.5668388999766,None,department,89,8,silent,red,1512.5648909000447,None,None,1512.5648909000447,None,,,,,,,,,,,,,,,,,,,,,,,,,,,,,,,,,,,49Silent,001,2022_Sep_12_0926,ProdSingRedoBetween,2021.2.3,60.320179535343954,
8,0,8,0,,,,,,,,,,,,,,,,,,,,,,,,,,1517.0693040000042,None,property,17,9,silent,yellow,1515.0674895000411,None,None,1515.0674895000411,None,,,,,,,,,,,,,,,,,,,,,,,,,,,,,,,,,,,49Silent,001,2022_Sep_12_0926,ProdSingRedoBetween,2021.2.3,60.320179535343954,
9,0,9,0,,,,,,,,,,,,,,,,,,,,,,,,,,1519.5886838999577,None,broke,57,10,silent,blue,1517.576691400027,None,None,1517.576691400027,None,,,,,,,,,,,,,,,,,,,,,,,,,,,,,,,,,,,49Silent,001,2022_Sep_12_0926,ProdSingRedoBetween,2021.2.3,60.320179535343954,
10,0,10,0,,,,,,,,,,,,,,,,,,,,,,,,,,1522.1076399000594,None,discovery,79,11,silent,red,1520.0959476999706,None,None,1520.0959476999706,None,,,,,,,,,,,,,,,,,,,,,,,,,,,,,,,,,,,49Silent,001,2022_Sep_12_0926,ProdSingRedoBetween,2021.2.3,60.320179535343954,
11,0,11,0,,,,,,,,,,,,,,,,,,,,,,,,,,1524.6102753999876,None,produce,21,12,silent,yellow,1522.6080983000575,None,None,1522.6080983000575,None,,,,,,,,,,,,,,,,,,,,,,,,,,,,,,,,,,,49Silent,001,2022_Sep_12_0926,ProdSingRedoBetween,2021.2.3,60.320179535343954,
12,0,12,0,,,,,,,,,,,,,,,,,,,,,,,,,,1527.129717700067,None,dozen,18,13,silent,yellow,1525.1214429000393,None,None,1525.1214429000393,None,,,,,,,,,,,,,,,,,,,,,,,,,,,,,,,,,,,49Silent,001,2022_Sep_12_0926,ProdSingRedoBetween,2021.2.3,60.320179535343954,
13,0,13,0,,,,,,,,,,,,,,,,,,,,,,,,,,1529.6318268000614,None,substance,37,14,silent,blue,1527.629856799962,None,None,1527.629856799962,None,,,,,,,,,,,,,,,,,,,,,,,,,,,,,,,,,,,49Silent,001,2022_Sep_12_0926,ProdSingRedoBetween,2021.2.3,60.320179535343954,
14,0,14,0,,,,,,,,,,,,,,,,,,,,,,,,,,1532.1344699000474,None,threat,36,15,silent,blue,1530.1323677999899,None,None,1530.1323677999899,None,,,,,,,,,,,,,,,,,,,,,,,,,,,,,,,,,,,49Silent,001,2022_Sep_12_0926,ProdSingRedoBetween,2021.2.3,60.320179535343954,
15,0,15,0,,,,,,,,,,,,,,,,,,,,,,,,,,1534.653523499961,None,suggestion,45,16,silent,blue,1532.6396553000668,None,None,1532.6396553000668,None,,,,,,,,,,,,,,,,,,,,,,,,,,,,,,,,,,,49Silent,001,2022_Sep_12_0926,ProdSingRedoBetween,2021.2.3,60.320179535343954,
16,0,16,0,,,,,,,,,,,,,,,,,,,,,,,,,,1537.1561320000328,None,revolution,44,17,silent,blue,1535.1558756000595,None,None,1535.1558756000595,None,,,,,,,,,,,,,,,,,,,,,,,,,,,,,,,,,,,49Silent,001,2022_Sep_12_0926,ProdSingRedoBetween,2021.2.3,60.320179535343954,
17,0,17,0,,,,,,,,,,,,,,,,,,,,,,,,,,1539.658531700028,None,interview,19,18,silent,yellow,1537.6567331000697,None,None,1537.6567331000697,None,,,,,,,,,,,,,,,,,,,,,,,,,,,,,,,,,,,49Silent,001,2022_Sep_12_0926,ProdSingRedoBetween,2021.2.3,60.320179535343954,
18,0,18,0,,,,,,,,,,,,,,,,,,,,,,,,,,1542.1613212999655,None,birth,23,19,silent,yellow,1540.1621545000235,None,None,1540.1621545000235,None,,,,,,,,,,,,,,,,,,,,,,,,,,,,,,,,,,,49Silent,001,2022_Sep_12_0926,ProdSingRedoBetween,2021.2.3,60.320179535343954,
19,0,19,0,,,,,,,,,,,,,,,,,,,,,,,,,,1544.6803527000593,None,profession,59,20,silent,yellow,1542.6676046999637,None,None,1542.6676046999637,None,,,,,,,,,,,,,,,,,,,,,,,,,,,,,,,,,,,49Silent,001,2022_Sep_12_0926,ProdSingRedoBetween,2021.2.3,60.320179535343954,
20,0,20,0,,,,,,,,,,,,,,,,,,,,,,,,,,1547.1828654999845,None,dance,56,21,silent,blue,1545.1804000000702,None,None,1545.1804000000702,None,,,,,,,,,,,,,,,,,,,,,,,,,,,,,,,,,,,49Silent,001,2022_Sep_12_0926,ProdSingRedoBetween,2021.2.3,60.320179535343954,
21,0,21,0,,,,,,,,,,,,,,,,,,,,,,,,,,1549.701933400007,None,stranger,1,22,silent,yellow,1547.6912686000578,None,None,1547.6912686000578,None,,,,,,,,,,,,,,,,,,,,,,,,,,,,,,,,,,,49Silent,001,2022_Sep_12_0926,ProdSingRedoBetween,2021.2.3,60.320179535343954,
22,0,22,0,,,,,,,,,,,,,,,,,,,,,,,,,,1552.2212168000406,None,defeat,84,23,silent,red,1550.2126679000212,None,None,1550.2126679000212,None,,,,,,,,,,,,,,,,,,,,,,,,,,,,,,,,,,,49Silent,001,2022_Sep_12_0926,ProdSingRedoBetween,2021.2.3,60.320179535343954,
23,0,23,0,,,,,,,,,,,,,,,,,,,,,,,,,,1554.740439599962,None,institute,63,24,silent,red,1552.7299284000183,None,None,1552.7299284000183,None,,,,,,,,,,,,,,,,,,,,,,,,,,,,,,,,,,,49Silent,001,2022_Sep_12_0926,ProdSingRedoBetween,2021.2.3,60.320179535343954,
24,0,24,0,,,,,,,,,,,,,,,,,,,,,,,,,,1557.2427291000495,None,trash,38,25,silent,blue,1555.2406954000471,None,None,1555.2406954000471,None,,,,,,,,,,,,,,,,,,,,,,,,,,,,,,,,,,,49Silent,001,2022_Sep_12_0926,ProdSingRedoBetween,2021.2.3,60.320179535343954,
25,0,25,0,,,,,,,,,,,,,,,,,,,,,,,,,,1559.76205879997,None,judge,51,26,silent,blue,1557.7478729999857,None,None,1557.7478729999857,None,,,,,,,,,,,,,,,,,,,,,,,,,,,,,,,,,,,49Silent,001,2022_Sep_12_0926,ProdSingRedoBetween,2021.2.3,60.320179535343954,
26,0,26,0,,,,,,,,,,,,,,,,,,,,,,,,,,1562.2813067999668,None,century,31,27,silent,blue,1560.2763768000295,None,None,1560.2763768000295,None,,,,,,,,,,,,,,,,,,,,,,,,,,,,,,,,,,,49Silent,001,2022_Sep_12_0926,ProdSingRedoBetween,2021.2.3,60.320179535343954,
27,0,27,0,,,,,,,,,,,,,,,,,,,,,,,,,,1564.8001693000551,None,column,85,28,silent,red,1562.7881334000267,None,None,1562.7881334000267,None,,,,,,,,,,,,,,,,,,,,,,,,,,,,,,,,,,,49Silent,001,2022_Sep_12_0926,ProdSingRedoBetween,2021.2.3,60.320179535343954,
28,0,28,0,,,,,,,,,,,,,,,,,,,,,,,,,,1567.3030312999617,None,management,73,29,silent,red,1565.3010801000055,None,None,1565.3010801000055,None,,,,,,,,,,,,,,,,,,,,,,,,,,,,,,,,,,,49Silent,001,2022_Sep_12_0926,ProdSingRedoBetween,2021.2.3,60.320179535343954,
29,0,29,0,,,,,,,,,,,,,,,,,,,,,,,,,,1569.8054400000256,None,color,48,30,silent,blue,1567.803507899982,None,None,1567.803507899982,None,,,,,,,,,,,,,,,,,,,,,,,,,,,,,,,,,,,49Silent,001,2022_Sep_12_0926,ProdSingRedoBetween,2021.2.3,60.320179535343954,
30,0,30,0,,,,,,,,,,,,,,,,,,,,,,,,,,1572.3245134999743,None,equipment,4,31,silent,yellow,1570.3092524000676,None,None,1570.3092524000676,None,,,,,,,,,,,,,,,,,,,,,,,,,,,,,,,,,,,49Silent,001,2022_Sep_12_0926,ProdSingRedoBetween,2021.2.3,60.320179535343954,
31,0,31,0,,,,,,,,,,,,,,,,,,,,,,,,,,1574.826759199961,None,suspect,81,32,silent,red,1572.8266664000694,None,None,1572.8266664000694,None,,,,,,,,,,,,,,,,,,,,,,,,,,,,,,,,,,,49Silent,001,2022_Sep_12_0926,ProdSingRedoBetween,2021.2.3,60.320179535343954,
32,0,32,0,,,,,,,,,,,,,,,,,,,,,,,,,,1577.3463647000026,None,company,11,33,silent,yellow,1575.3368041999638,None,None,1575.3368041999638,None,,,,,,,,,,,,,,,,,,,,,,,,,,,,,,,,,,,49Silent,001,2022_Sep_12_0926,ProdSingRedoBetween,2021.2.3,60.320179535343954,
33,0,33,0,,,,,,,,,,,,,,,,,,,,,,,,,,1579.8488351000706,None,material,14,34,silent,yellow,1577.8468882000307,None,None,1577.8468882000307,None,,,,,,,,,,,,,,,,,,,,,,,,,,,,,,,,,,,49Silent,001,2022_Sep_12_0926,ProdSingRedoBetween,2021.2.3,60.320179535343954,
34,0,34,0,,,,,,,,,,,,,,,,,,,,,,,,,,1582.3678387000691,None,tough,32,35,silent,blue,1580.3575969999656,None,None,1580.3575969999656,None,,,,,,,,,,,,,,,,,,,,,,,,,,,,,,,,,,,49Silent,001,2022_Sep_12_0926,ProdSingRedoBetween,2021.2.3,60.320179535343954,
35,0,35,0,,,,,,,,,,,,,,,,,,,,,,,,,,1584.87033960002,None,strength,72,36,silent,red,1582.8685623999918,None,None,1582.8685623999918,None,,,,,,,,,,,,,,,,,,,,,,,,,,,,,,,,,,,49Silent,001,2022_Sep_12_0926,ProdSingRedoBetween,2021.2.3,60.320179535343954,
36,0,36,0,,,,,,,,,,,,,,,,,,,,,,,,,,1587.3728803000413,None,degree,49,37,silent,blue,1585.3708770000376,None,None,1585.3708770000376,None,,,,,,,,,,,,,,,,,,,,,,,,,,,,,,,,,,,49Silent,001,2022_Sep_12_0926,ProdSingRedoBetween,2021.2.3,60.320179535343954,
37,0,37,0,,,,,,,,,,,,,,,,,,,,,,,,,,1589.8921405000146,None,question,39,38,silent,blue,1587.8781558000483,None,None,1587.8781558000483,None,,,,,,,,,,,,,,,,,,,,,,,,,,,,,,,,,,,49Silent,001,2022_Sep_12_0926,ProdSingRedoBetween,2021.2.3,60.320179535343954,
38,0,38,0,,,,,,,,,,,,,,,,,,,,,,,,,,1592.411074200063,None,drama,40,39,silent,blue,1590.3966505000135,None,None,1590.3966505000135,None,,,,,,,,,,,,,,,,,,,,,,,,,,,,,,,,,,,49Silent,001,2022_Sep_12_0926,ProdSingRedoBetween,2021.2.3,60.320179535343954,
39,0,39,0,,,,,,,,,,,,,,,,,,,,,,,,,,1594.9138680000324,None,turkey,86,40,silent,red,1592.9120016000234,None,None,1592.9120016000234,None,,,,,,,,,,,,,,,,,,,,,,,,,,,,,,,,,,,49Silent,001,2022_Sep_12_0926,ProdSingRedoBetween,2021.2.3,60.320179535343954,
40,0,40,0,,,,,,,,,,,,,,,,,,,,,,,,,,1597.416507899994,None,period,27,41,silent,yellow,1595.416764899972,None,None,1595.416764899972,None,,,,,,,,,,,,,,,,,,,,,,,,,,,,,,,,,,,49Silent,001,2022_Sep_12_0926,ProdSingRedoBetween,2021.2.3,60.320179535343954,
41,0,41,0,,,,,,,,,,,,,,,,,,,,,,,,,,1599.9356154999696,None,strain,68,42,silent,red,1597.9254014999606,None,None,1597.9254014999606,None,,,,,,,,,,,,,,,,,,,,,,,,,,,,,,,,,,,49Silent,001,2022_Sep_12_0926,ProdSingRedoBetween,2021.2.3,60.320179535343954,
42,0,42,0,,,,,,,,,,,,,,,,,,,,,,,,,,1602.4547538000625,None,motion,62,43,silent,red,1600.4400535000023,None,None,1600.4400535000023,None,,,,,,,,,,,,,,,,,,,,,,,,,,,,,,,,,,,49Silent,001,2022_Sep_12_0926,ProdSingRedoBetween,2021.2.3,60.320179535343954,
43,0,43,0,,,,,,,,,,,,,,,,,,,,,,,,,,1604.9571975000435,None,weather,65,44,silent,red,1602.955126099987,None,None,1602.955126099987,None,,,,,,,,,,,,,,,,,,,,,,,,,,,,,,,,,,,49Silent,001,2022_Sep_12_0926,ProdSingRedoBetween,2021.2.3,60.320179535343954,
44,0,44,0,,,,,,,,,,,,,,,,,,,,,,,,,,1607.4763280999614,None,weight,9,45,silent,yellow,1605.4654729999602,None,None,1605.4654729999602,None,,,,,,,,,,,,,,,,,,,,,,,,,,,,,,,,,,,49Silent,001,2022_Sep_12_0926,ProdSingRedoBetween,2021.2.3,60.320179535343954,
45,0,45,0,,,,,,,,,,,,,,,,,,,,,,,,,,1609.9788411000045,None,exchange,88,46,silent,red,1607.9770650999853,None,None,1607.9770650999853,None,,,,,,,,,,,,,,,,,,,,,,,,,,,,,,,,,,,49Silent,001,2022_Sep_12_0926,ProdSingRedoBetween,2021.2.3,60.320179535343954,
46,0,46,0,,,,,,,,,,,,,,,,,,,,,,,,,,1612.4837289999705,None,count,83,47,silent,red,1610.4821915000211,None,None,1610.4821915000211,None,,,,,,,,,,,,,,,,,,,,,,,,,,,,,,,,,,,49Silent,001,2022_Sep_12_0926,ProdSingRedoBetween,2021.2.3,60.320179535343954,
47,0,47,0,,,,,,,,,,,,,,,,,,,,,,,,,,1615.017351699993,None,sunset,77,48,silent,red,1613.002400700003,None,None,1613.002400700003,None,,,,,,,,,,,,,,,,,,,,,,,,,,,,,,,,,,,49Silent,001,2022_Sep_12_0926,ProdSingRedoBetween,2021.2.3,60.320179535343954,
48,0,48,0,,,,,,,,,,,,,,,,,,,,,,,,,,1617.5199484999757,None,principal,78,49,silent,red,1615.5177512000082,None,None,1615.5177512000082,None,,,,,,,,,,,,,,,,,,,,,,,,,,,,,,,,,,,49Silent,001,2022_Sep_12_0926,ProdSingRedoBetween,2021.2.3,60.320179535343954,
49,0,49,0,,,,,,,,,,,,,,,,,,,,,,,,,,1620.0223175999708,None,owner,80,50,silent,red,1618.0206719000125,None,None,1618.0206719000125,None,,,,,,,,,,,,,,,,,,,,,,,,,,,,,,,,,,,49Silent,001,2022_Sep_12_0926,ProdSingRedoBetween,2021.2.3,60.320179535343954,
50,0,50,0,,,,,,,,,,,,,,,,,,,,,,,,,,1622.524814400007,None,hunger,66,51,silent,red,1620.5228407999966,None,None,1620.5228407999966,None,,,,,,,,,,,,,,,,,,,,,,,,,,,,,,,,,,,49Silent,001,2022_Sep_12_0926,ProdSingRedoBetween,2021.2.3,60.320179535343954,
51,0,51,0,,,,,,,,,,,,,,,,,,,,,,,,,,1625.0273626999697,None,accident,58,52,silent,blue,1623.0258357999846,None,None,1623.0258357999846,None,,,,,,,,,,,,,,,,,,,,,,,,,,,,,,,,,,,49Silent,001,2022_Sep_12_0926,ProdSingRedoBetween,2021.2.3,60.320179535343954,
52,0,52,0,,,,,,,,,,,,,,,,,,,,,,,,,,1627.5466200000374,None,treatment,67,53,silent,red,1625.5462577000726,None,None,1625.5462577000726,None,,,,,,,,,,,,,,,,,,,,,,,,,,,,,,,,,,,49Silent,001,2022_Sep_12_0926,ProdSingRedoBetween,2021.2.3,60.320179535343954,
53,0,53,0,,,,,,,,,,,,,,,,,,,,,,,,,,1630.0657883000094,None,break,10,54,silent,yellow,1628.051277599996,None,None,1628.051277599996,None,,,,,,,,,,,,,,,,,,,,,,,,,,,,,,,,,,,49Silent,001,2022_Sep_12_0926,ProdSingRedoBetween,2021.2.3,60.320179535343954,
54,0,54,0,,,,,,,,,,,,,,,,,,,,,,,,,,1632.5849604000105,None,benefit,50,55,silent,blue,1630.572443400044,None,None,1630.572443400044,None,,,,,,,,,,,,,,,,,,,,,,,,,,,,,,,,,,,49Silent,001,2022_Sep_12_0926,ProdSingRedoBetween,2021.2.3,60.320179535343954,
55,0,55,0,,,,,,,,,,,,,,,,,,,,,,,,,,1635.104208100005,None,minute,71,56,silent,red,1633.0902507000137,None,None,1633.0902507000137,None,,,,,,,,,,,,,,,,,,,,,,,,,,,,,,,,,,,49Silent,001,2022_Sep_12_0926,ProdSingRedoBetween,2021.2.3,60.320179535343954,
56,0,56,0,,,,,,,,,,,,,,,,,,,,,,,,,,1637.6067277999828,None,south,12,57,silent,yellow,1635.604646999971,None,None,1635.604646999971,None,,,,,,,,,,,,,,,,,,,,,,,,,,,,,,,,,,,49Silent,001,2022_Sep_12_0926,ProdSingRedoBetween,2021.2.3,60.320179535343954,
57,0,57,0,,,,,,,,,,,,,,,,,,,,,,,,,,1640.1257117000641,None,direction,3,58,silent,yellow,1638.1115804000292,None,None,1638.1115804000292,None,,,,,,,,,,,,,,,,,,,,,,,,,,,,,,,,,,,49Silent,001,2022_Sep_12_0926,ProdSingRedoBetween,2021.2.3,60.320179535343954,
58,0,58,0,,,,,,,,,,,,,,,,,,,,,,,,,,1642.6282804000657,None,skill,41,59,silent,blue,1640.6262909000507,None,None,1640.6262909000507,None,,,,,,,,,,,,,,,,,,,,,,,,,,,,,,,,,,,49Silent,001,2022_Sep_12_0926,ProdSingRedoBetween,2021.2.3,60.320179535343954,
59,0,59,0,,,,,,,,,,,,,,,,,,,,,,,,,,1645.130749700009,None,sleep,75,60,silent,red,1643.1288332999684,None,None,1643.1288332999684,None,,,,,,,,,,,,,,,,,,,,,,,,,,,,,,,,,,,49Silent,001,2022_Sep_12_0926,ProdSingRedoBetween,2021.2.3,60.320179535343954,
60,0,60,0,,,,,,,,,,,,,,,,,,,,,,,,,,1647.6500174000394,None,stand,43,61,silent,blue,1645.6363696999615,None,None,1645.6363696999615,None,,,,,,,,,,,,,,,,,,,,,,,,,,,,,,,,,,,49Silent,001,2022_Sep_12_0926,ProdSingRedoBetween,2021.2.3,60.320179535343954,
61,0,61,0,,,,,,,,,,,,,,,,,,,,,,,,,,1650.1525043000001,None,impact,87,62,silent,red,1648.1505022000056,None,None,1648.1505022000056,None,,,,,,,,,,,,,,,,,,,,,,,,,,,,,,,,,,,49Silent,001,2022_Sep_12_0926,ProdSingRedoBetween,2021.2.3,60.320179535343954,
62,0,62,0,,,,,,,,,,,,,,,,,,,,,,,,,,1652.6550461000297,None,debate,70,63,silent,red,1650.6548059000634,None,None,1650.6548059000634,None,,,,,,,,,,,,,,,,,,,,,,,,,,,,,,,,,,,49Silent,001,2022_Sep_12_0926,ProdSingRedoBetween,2021.2.3,60.320179535343954,
63,0,63,0,,,,,,,,,,,,,,,,,,,,,,,,,,1655.1575380000286,None,pretty,61,64,silent,red,1653.1561487000436,None,None,1653.1561487000436,None,,,,,,,,,,,,,,,,,,,,,,,,,,,,,,,,,,,49Silent,001,2022_Sep_12_0926,ProdSingRedoBetween,2021.2.3,60.320179535343954,
64,0,64,0,,,,,,,,,,,,,,,,,,,,,,,,,,1657.676708300016,None,union,8,65,silent,yellow,1655.6672157000285,None,None,1655.6672157000285,None,,,,,,,,,,,,,,,,,,,,,,,,,,,,,,,,,,,49Silent,001,2022_Sep_12_0926,ProdSingRedoBetween,2021.2.3,60.320179535343954,
65,0,65,0,,,,,,,,,,,,,,,,,,,,,,,,,,1660.179209099966,None,touch,20,66,silent,yellow,1658.178577600047,None,None,1658.178577600047,None,,,,,,,,,,,,,,,,,,,,,,,,,,,,,,,,,,,49Silent,001,2022_Sep_12_0926,ProdSingRedoBetween,2021.2.3,60.320179535343954,
66,0,66,0,,,,,,,,,,,,,,,,,,,,,,,,,,1662.6982768999878,None,level,82,67,silent,red,1660.6873506000265,None,None,1660.6873506000265,None,,,,,,,,,,,,,,,,,,,,,,,,,,,,,,,,,,,49Silent,001,2022_Sep_12_0926,ProdSingRedoBetween,2021.2.3,60.320179535343954,
67,0,67,0,,,,,,,,,,,,,,,,,,,,,,,,,,1665.2175308000296,None,territory,25,68,silent,yellow,1663.2068791000638,None,None,1663.2068791000638,None,,,,,,,,,,,,,,,,,,,,,,,,,,,,,,,,,,,49Silent,001,2022_Sep_12_0926,ProdSingRedoBetween,2021.2.3,60.320179535343954,
68,0,68,0,,,,,,,,,,,,,,,,,,,,,,,,,,1667.7367354000453,None,split,74,69,silent,red,1665.7235199999996,None,None,1665.7235199999996,None,,,,,,,,,,,,,,,,,,,,,,,,,,,,,,,,,,,49Silent,001,2022_Sep_12_0926,ProdSingRedoBetween,2021.2.3,60.320179535343954,
69,0,69,0,,,,,,,,,,,,,,,,,,,,,,,,,,1670.2393951000413,None,harmony,6,70,silent,yellow,1668.237248599995,None,None,1668.237248599995,None,,,,,,,,,,,,,,,,,,,,,,,,,,,,,,,,,,,49Silent,001,2022_Sep_12_0926,ProdSingRedoBetween,2021.2.3,60.320179535343954,
70,0,70,0,,,,,,,,,,,,,,,,,,,,,,,,,,1672.7413611999946,None,blind,29,71,silent,blue,1670.7397298000287,None,None,1670.7397298000287,None,,,,,,,,,,,,,,,,,,,,,,,,,,,,,,,,,,,49Silent,001,2022_Sep_12_0926,ProdSingRedoBetween,2021.2.3,60.320179535343954,
71,0,71,0,,,,,,,,,,,,,,,,,,,,,,,,,,1675.260846600053,None,place,64,72,silent,red,1673.2478424999863,None,None,1673.2478424999863,None,,,,,,,,,,,,,,,,,,,,,,,,,,,,,,,,,,,49Silent,001,2022_Sep_12_0926,ProdSingRedoBetween,2021.2.3,60.320179535343954,
72,0,72,0,,,,,,,,,,,,,,,,,,,,,,,,,,1677.7632820999715,None,population,53,73,silent,blue,1675.7612923000706,None,None,1675.7612923000706,None,,,,,,,,,,,,,,,,,,,,,,,,,,,,,,,,,,,49Silent,001,2022_Sep_12_0926,ProdSingRedoBetween,2021.2.3,60.320179535343954,
73,0,73,0,,,,,,,,,,,,,,,,,,,,,,,,,,1680.2826592000201,None,carry,22,74,silent,yellow,1678.26900510001,None,None,1678.26900510001,None,,,,,,,,,,,,,,,,,,,,,,,,,,,,,,,,,,,49Silent,001,2022_Sep_12_0926,ProdSingRedoBetween,2021.2.3,60.320179535343954,
74,0,74,0,,,,,,,,,,,,,,,,,,,,,,,,,,1682.8014626000077,None,express,46,75,silent,blue,1680.788672100054,None,None,1680.788672100054,None,,,,,,,,,,,,,,,,,,,,,,,,,,,,,,,,,,,49Silent,001,2022_Sep_12_0926,ProdSingRedoBetween,2021.2.3,60.320179535343954,
75,0,75,0,,,,,,,,,,,,,,,,,,,,,,,,,,1685.3041092000203,None,people,5,76,silent,yellow,1683.3022316000424,None,None,1683.3022316000424,None,,,,,,,,,,,,,,,,,,,,,,,,,,,,,,,,,,,49Silent,001,2022_Sep_12_0926,ProdSingRedoBetween,2021.2.3,60.320179535343954,
76,0,76,0,,,,,,,,,,,,,,,,,,,,,,,,,,1687.8067714000354,None,fashion,0,77,silent,yellow,1685.8044046000578,None,None,1685.8044046000578,None,,,,,,,,,,,,,,,,,,,,,,,,,,,,,,,,,,,49Silent,001,2022_Sep_12_0926,ProdSingRedoBetween,2021.2.3,60.320179535343954,
77,0,77,0,,,,,,,,,,,,,,,,,,,,,,,,,,1690.325823100051,None,fellow,34,78,silent,blue,1688.3111500999657,None,None,1688.3111500999657,None,,,,,,,,,,,,,,,,,,,,,,,,,,,,,,,,,,,49Silent,001,2022_Sep_12_0926,ProdSingRedoBetween,2021.2.3,60.320179535343954,
78,0,78,0,,,,,,,,,,,,,,,,,,,,,,,,,,1692.828566399985,None,service,60,79,silent,red,1690.8288644000422,None,None,1690.8288644000422,None,,,,,,,,,,,,,,,,,,,,,,,,,,,,,,,,,,,49Silent,001,2022_Sep_12_0926,ProdSingRedoBetween,2021.2.3,60.320179535343954,
79,0,79,0,,,,,,,,,,,,,,,,,,,,,,,,,,1695.3476934999926,None,raise,33,80,silent,blue,1693.3355843999889,None,None,1693.3355843999889,None,,,,,,,,,,,,,,,,,,,,,,,,,,,,,,,,,,,49Silent,001,2022_Sep_12_0926,ProdSingRedoBetween,2021.2.3,60.320179535343954,
80,0,80,0,,,,,,,,,,,,,,,,,,,,,,,,,,1697.8668260000413,None,answer,28,81,silent,yellow,1695.8603636999615,None,None,1695.8603636999615,None,,,,,,,,,,,,,,,,,,,,,,,,,,,,,,,,,,,49Silent,001,2022_Sep_12_0926,ProdSingRedoBetween,2021.2.3,60.320179535343954,
81,0,81,0,,,,,,,,,,,,,,,,,,,,,,,,,,1700.3858079999918,None,division,69,82,silent,red,1698.3707957000006,None,None,1698.3707957000006,None,,,,,,,,,,,,,,,,,,,,,,,,,,,,,,,,,,,49Silent,001,2022_Sep_12_0926,ProdSingRedoBetween,2021.2.3,60.320179535343954,
82,0,82,0,,,,,,,,,,,,,,,,,,,,,,,,,,1702.888551400043,None,write,13,83,silent,yellow,1700.8865051000612,None,None,1700.8865051000612,None,,,,,,,,,,,,,,,,,,,,,,,,,,,,,,,,,,,49Silent,001,2022_Sep_12_0926,ProdSingRedoBetween,2021.2.3,60.320179535343954,
83,0,83,0,,,,,,,,,,,,,,,,,,,,,,,,,,1705.3910716000246,None,escape,54,84,silent,blue,1703.3890357000055,None,None,1703.3890357000055,None,,,,,,,,,,,,,,,,,,,,,,,,,,,,,,,,,,,49Silent,001,2022_Sep_12_0926,ProdSingRedoBetween,2021.2.3,60.320179535343954,
84,0,84,0,,,,,,,,,,,,,,,,,,,,,,,,,,1707.9102340000682,None,smooth,76,85,silent,red,1705.896868800046,None,None,1705.896868800046,None,,,,,,,,,,,,,,,,,,,,,,,,,,,,,,,,,,,49Silent,001,2022_Sep_12_0926,ProdSingRedoBetween,2021.2.3,60.320179535343954,
85,0,85,0,,,,,,,,,,,,,,,,,,,,,,,,,,1710.4127469999949,None,quarter,2,86,silent,yellow,1708.4121561000356,None,None,1708.4121561000356,None,,,,,,,,,,,,,,,,,,,,,,,,,,,,,,,,,,,49Silent,001,2022_Sep_12_0926,ProdSingRedoBetween,2021.2.3,60.320179535343954,
86,0,86,0,,,,,,,,,,,,,,,,,,,,,,,,,,1712.9151768999873,None,trend,30,87,silent,blue,1710.9155237000668,None,None,1710.9155237000668,None,,,,,,,,,,,,,,,,,,,,,,,,,,,,,,,,,,,49Silent,001,2022_Sep_12_0926,ProdSingRedoBetween,2021.2.3,60.320179535343954,
87,0,87,0,,,,,,,,,,,,,,,,,,,,,,,,,,1715.4176876000129,None,store,55,88,silent,blue,1713.4156350999838,None,None,1713.4156350999838,None,,,,,,,,,,,,,,,,,,,,,,,,,,,,,,,,,,,49Silent,001,2022_Sep_12_0926,ProdSingRedoBetween,2021.2.3,60.320179535343954,
88,0,88,0,,,,,,,,,,,,,,,,,,,,,,,,,,1717.9202583000297,None,drink,42,89,silent,blue,1715.9180558000226,None,None,1715.9180558000226,None,,,,,,,,,,,,,,,,,,,,,,,,,,,,,,,,,,,49Silent,001,2022_Sep_12_0926,ProdSingRedoBetween,2021.2.3,60.320179535343954,
89,0,89,0,,,,,,,,,,,,,,,,,,,,,,,,,,1720.4394123000093,None,contract,24,90,silent,yellow,1718.4250085999956,None,None,1718.4250085999956,None,,,,,,,,,,,,,,,,,,,,,,,,,,,,,,,,,,,49Silent,001,2022_Sep_12_0926,ProdSingRedoBetween,2021.2.3,60.320179535343954,
,,,,,,,,,,,,,,,,,,,,,,,,,,,,,,,,,,,,,,,,,1720.9401791000273,None,k,102.91679030004889,1720.9401791000273,None,,,,,,,,,,,,,,,,,,,,,,,,,,,,,49Silent,001,2022_Sep_12_0926,ProdSingRedoBetween,2021.2.3,60.320179535343954,
,,,,0,0,0,0,,,,,,,,,,,,,,,,,,,,,,1833.4022915000096,None,,,,,,,,,,,,,,,,,revolution,44,1,silent,old,blue,1824.390913899988,None,1824.390913899988,None,1,4.58604630001355,1824.390913899988,None,4.58604630001355,1829.0000737999799,None,1829.5209711999632,None,1829.5209711999632,None,n,3.8639606999931857,1829.5209711999632,None,3.8639606999931857,,,49Silent,001,2022_Sep_12_0926,ProdSingRedoBetween,2021.2.3,60.320179535343954,
,,,,1,0,1,0,,,,,,,,,,,,,,,,,,,,,,1846.7822644000407,None,,,,,,,,,,,,,,,,,solution,138,2,silent,new,null,1833.9145945999771,None,1833.9145945999771,None,1,10.982510600006208,1833.9145945999771,None,10.982510600006208,1844.921033999999,None,1845.4377818000503,None,1845.4377818000503,None,n,1.315172899980098,1845.4377818000503,None,1.315172899980098,,,49Silent,001,2022_Sep_12_0926,ProdSingRedoBetween,2021.2.3,60.320179535343954,
,,,,2,0,2,0,,,,,,,,,,,,,,,,,,,,,,1853.822645700071,None,,,,,,,,,,,,,,,,,evidence,166,3,silent,new,null,1847.2862310999772,None,1847.2862310999772,None,4,4.466723999939859,1847.2862310999772,None,4.466723999939859,1851.781863000011,None,1852.287852199981,None,1852.287852199981,None,f,1.5131045000161976,1852.287852199981,None,1.5131045000161976,,,49Silent,001,2022_Sep_12_0926,ProdSingRedoBetween,2021.2.3,60.320179535343954,
,,,,3,0,3,0,,,,,,,,,,,,,,,,,,,,,,1858.5950612999732,None,,,,,,,,,,,,,,,,,hunger,66,4,silent,old,red,1854.3322120000375,None,1854.3322120000375,None,6,2.444785000057891,1854.3322120000375,None,2.444785000057891,1856.8118093999801,None,1857.326408599969,None,1857.326408599969,None,r,1.2505202000029385,1857.326408599969,None,1.2505202000029385,,,49Silent,001,2022_Sep_12_0926,ProdSingRedoBetween,2021.2.3,60.320179535343954,
,,,,4,0,4,0,,,,,,,,,,,,,,,,,,,,,,1862.598221100052,None,,,,,,,,,,,,,,,,,blind,29,5,silent,old,blue,1859.1033050999977,None,1859.1033050999977,None,6,1.9057559000793844,1859.1033050999977,None,1.9057559000793844,1861.043381900061,None,1861.5500264000148,None,1861.5500264000148,None,r,1.0269934999523684,1861.5500264000148,None,1.0269934999523684,,,49Silent,001,2022_Sep_12_0926,ProdSingRedoBetween,2021.2.3,60.320179535343954,
,,,,5,0,5,0,,,,,,,,,,,,,,,,,,,,,,1866.3351535999682,None,,,,,,,,,,,,,,,,,payment,162,6,silent,new,null,1863.1030730999773,None,1863.1030730999773,None,1,2.057874499936588,1863.1030730999773,None,2.057874499936588,1865.1855272999965,None,1865.7013891000533,None,1865.7013891000533,None,n,0.6114572000224143,1865.7013891000533,None,0.6114572000224143,,,49Silent,001,2022_Sep_12_0926,ProdSingRedoBetween,2021.2.3,60.320179535343954,
,,,,6,0,6,0,,,,,,,,,,,,,,,,,,,,,,1869.8720413000556,None,,,,,,,,,,,,,,,,,running,156,7,silent,new,null,1866.8450686000288,None,1866.8450686000288,None,1,1.828021299908869,1866.8450686000288,None,1.828021299908869,1868.704996900051,None,1869.2047189000295,None,1869.2047189000295,None,n,0.6442489000037313,1869.2047189000295,None,0.6442489000037313,,,49Silent,001,2022_Sep_12_0926,ProdSingRedoBetween,2021.2.3,60.320179535343954,
,,,,7,0,7,0,,,,,,,,,,,,,,,,,,,,,,1874.8601761000464,None,,,,,,,,,,,,,,,,,straight,7,8,silent,old,yellow,1870.3798371000448,None,1870.3798371000448,None,1,3.4130738999228925,1870.3798371000448,None,3.4130738999228925,1873.8111279000295,None,1874.3327070999658,None,1874.3327070999658,None,n,0.5003055999986827,1874.3327070999658,None,0.5003055999986827,,,49Silent,001,2022_Sep_12_0926,ProdSingRedoBetween,2021.2.3,60.320179535343954,
,,,,8,0,8,0,,,,,,,,,,,,,,,,,,,,,,1879.214756899979,None,,,,,,,,,,,,,,,,,century,31,9,silent,old,blue,1875.364346300019,None,1875.364346300019,None,1,2.3006230000173673,1875.364346300019,None,2.3006230000173673,1877.6812439999776,None,1878.1805803000461,None,1878.1805803000461,None,n,1.0043942999327555,1878.1805803000461,None,1.0043942999327555,,,49Silent,001,2022_Sep_12_0926,ProdSingRedoBetween,2021.2.3,60.320179535343954,
,,,,9,0,9,0,,,,,,,,,,,,,,,,,,,,,,1882.5346516000573,None,,,,,,,,,,,,,,,,,brilliant,123,10,silent,new,null,1879.7251043000724,None,1879.7251043000724,None,1,1.6839093000162393,1879.7251043000724,None,1.6839093000162393,1881.4345674000215,None,1881.9364806000376,None,1881.9364806000376,None,n,0.5766823999583721,1881.9364806000376,None,0.5766823999583721,,,49Silent,001,2022_Sep_12_0926,ProdSingRedoBetween,2021.2.3,60.320179535343954,
,,,,10,0,10,0,,,,,,,,,,,,,,,,,,,,,,1888.158170400071,None,,,,,,,,,,,,,,,,,service,60,11,silent,old,red,1883.0472894000122,None,1883.0472894000122,None,4,3.129599599982612,1883.0472894000122,None,3.129599599982612,1886.2074967999943,None,1886.7223475000355,None,1886.7223475000355,None,f,1.4146938000340015,1886.7223475000355,None,1.4146938000340015,,,49Silent,001,2022_Sep_12_0926,ProdSingRedoBetween,2021.2.3,60.320179535343954,
,,,,11,0,11,0,,,,,,,,,,,,,,,,,,,,,,1892.4278506999835,None,,,,,,,,,,,,,,,,,turkey,86,12,silent,old,red,1888.663097199984,None,1888.663097199984,None,6,2.0258737999247387,1888.663097199984,None,2.0258737999247387,1890.714414200047,None,1891.2392071000068,None,1891.2392071000068,None,r,1.1617197999730706,1891.2392071000068,None,1.1617197999730706,,,49Silent,001,2022_Sep_12_0926,ProdSingRedoBetween,2021.2.3,60.320179535343954,
,,,,12,0,12,0,,,,,,,,,,,,,,,,,,,,,,1896.598681100062,None,,,,,,,,,,,,,,,,,engineer,145,13,silent,new,null,1892.932794500026,None,1892.932794500026,None,1,2.2440935999620706,1892.932794500026,None,2.2440935999620706,1895.2015170999803,None,1895.7145326000173,None,1895.7145326000173,None,n,0.8624407999450341,1895.7145326000173,None,0.8624407999450341,,,49Silent,001,2022_Sep_12_0926,ProdSingRedoBetween,2021.2.3,60.320179535343954,
,,,,13,0,13,0,,,,,,,,,,,,,,,,,,,,,,1900.8696963000111,None,,,,,,,,,,,,,,,,,scene,112,14,silent,new,null,1897.1150175000075,None,1897.1150175000075,None,1,2.557951199938543,1897.1150175000075,None,2.557951199938543,1899.7023582999827,None,1900.2077969000675,None,1900.2077969000675,None,n,0.6412160000763834,1900.2077969000675,None,0.6412160000763834,,,49Silent,001,2022_Sep_12_0926,ProdSingRedoBetween,2021.2.3,60.320179535343954,
,,,,14,0,14,0,,,,,,,,,,,,,,,,,,,,,,1906.3418688999955,None,,,,,,,,,,,,,,,,,union,8,15,silent,old,yellow,1901.3870080000488,None,1901.3870080000488,None,4,3.837907899986021,1901.3870080000488,None,3.837907899986021,1905.2424132999731,None,1905.7580606000265,None,1905.7580606000265,None,f,0.5629196000518277,1905.7580606000265,None,0.5629196000518277,,,49Silent,001,2022_Sep_12_0926,ProdSingRedoBetween,2021.2.3,60.320179535343954,
,,,,15,0,15,0,,,,,,,,,,,,,,,,,,,,,,1910.9631589000346,None,,,,,,,,,,,,,,,,,treatment,67,16,silent,old,red,1906.8565687000519,None,1906.8565687000519,None,6,2.3124788999557495,1906.8565687000519,None,2.3124788999557495,1909.2010635000188,None,1909.7120601000497,None,1909.7120601000497,None,r,1.2248910999624059,1909.7120601000497,None,1.2248910999624059,,,49Silent,001,2022_Sep_12_0926,ProdSingRedoBetween,2021.2.3,60.320179535343954,
,,,,16,0,16,0,,,,,,,,,,,,,,,,,,,,,,1915.6677845000522,None,,,,,,,,,,,,,,,,,strength,72,17,silent,old,red,1911.4668408000143,None,1911.4668408000143,None,1,2.8060701999347657,1911.4668408000143,None,2.8060701999347657,1914.301995899994,None,1914.8199538000626,None,1914.8199538000626,None,n,0.8210082999430597,1914.8199538000626,None,0.8210082999430597,,,49Silent,001,2022_Sep_12_0926,ProdSingRedoBetween,2021.2.3,60.320179535343954,
,,,,17,0,17,0,,,,,,,,,,,,,,,,,,,,,,1920.5059821000323,None,,,,,,,,,,,,,,,,,error,153,18,silent,new,null,1916.1714076000499,None,1916.1714076000499,None,2,3.245564299984835,1916.1714076000499,None,3.245564299984835,1919.4408804000122,None,1919.95998829999,None,1919.95998829999,None,f,0.5209968000417575,1919.95998829999,None,0.5209968000417575,,,49Silent,001,2022_Sep_12_0926,ProdSingRedoBetween,2021.2.3,60.320179535343954,
,,,,18,0,18,0,,,,,,,,,,,,,,,,,,,,,,1924.9103796000127,None,,,,,,,,,,,,,,,,,escape,54,19,silent,old,blue,1921.0199083000189,None,1921.0199083000189,None,6,2.9091289000352845,1921.0199083000189,None,2.9091289000352845,1923.9663664000109,None,1924.4901696000015,None,1924.4901696000015,None,r,0.3988135000690818,1924.4901696000015,None,0.3988135000690818,,,49Silent,001,2022_Sep_12_0926,ProdSingRedoBetween,2021.2.3,60.320179535343954,
,,,,19,0,19,0,,,,,,,,,,,,,,,,,,,,,,1929.464951400063,None,,,,,,,,,,,,,,,,,crowd,103,20,silent,new,null,1925.423046000069,None,1925.423046000069,None,6,3.1780331000918522,1925.423046000069,None,3.1780331000918522,1928.6388189999852,None,1929.148513299995,None,1929.148513299995,None,r,0.2924738998990506,1929.148513299995,None,0.2924738998990506,,,49Silent,001,2022_Sep_12_0926,ProdSingRedoBetween,2021.2.3,60.320179535343954,
,,,,20,0,20,0,,,,,,,,,,,,,,,,,,,,,,1932.7514026999706,None,,,,,,,,,,,,,,,,,quantity,148,21,silent,new,null,1929.9801038999576,None,1929.9801038999576,None,1,1.772839399985969,1929.9801038999576,None,1.772839399985969,1931.790599100059,None,1932.3082464999752,None,1932.3082464999752,None,n,0.4126454000361264,1932.3082464999752,None,0.4126454000361264,,,49Silent,001,2022_Sep_12_0926,ProdSingRedoBetween,2021.2.3,60.320179535343954,
,,,,21,0,21,0,,,,,,,,,,,,,,,,,,,,,,1938.8243217000272,None,,,,,,,,,,,,,,,,,guard,52,22,silent,old,blue,1933.2651038999902,None,1933.2651038999902,None,1,4.41587939998135,1933.2651038999902,None,4.41587939998135,1937.7091579000698,None,1938.2295672000619,None,1938.2295672000619,None,n,0.5795329000102356,1938.2295672000619,None,0.5795329000102356,,,49Silent,001,2022_Sep_12_0926,ProdSingRedoBetween,2021.2.3,60.320179535343954,
,,,,22,0,22,0,,,,,,,,,,,,,,,,,,,,,,1942.1440882000607,None,,,,,,,,,,,,,,,,,principal,78,23,silent,old,red,1939.336910000071,None,1939.336910000071,None,6,1.4802566999569535,1939.336910000071,None,1.4802566999569535,1940.8518963999813,None,1941.3603849000065,None,1941.3603849000065,None,r,0.7686291999416426,1941.3603849000065,None,0.7686291999416426,,,49Silent,001,2022_Sep_12_0926,ProdSingRedoBetween,2021.2.3,60.320179535343954,
,,,,23,0,23,0,,,,,,,,,,,,,,,,,,,,,,1946.214942599996,None,,,,,,,,,,,,,,,,,exchange,88,24,silent,old,red,1942.6491049999604,None,1942.6491049999604,None,4,2.687818300095387,1942.6491049999604,None,2.687818300095387,1945.365935400012,None,1945.88139460003,None,1945.88139460003,None,f,0.31162139994557947,1945.88139460003,None,0.31162139994557947,,,49Silent,001,2022_Sep_12_0926,ProdSingRedoBetween,2021.2.3,60.320179535343954,
,,,,24,0,24,0,,,,,,,,,,,,,,,,,,,,,,1949.8519869999727,None,,,,,,,,,,,,,,,,,silence,129,25,silent,new,null,1946.727463099989,None,1946.727463099989,None,6,2.025621799984947,1946.727463099989,None,2.025621799984947,1948.7856217999943,None,1949.2909174000379,None,1949.2909174000379,None,r,0.5340313999913633,1949.2909174000379,None,0.5340313999913633,,,49Silent,001,2022_Sep_12_0926,ProdSingRedoBetween,2021.2.3,60.320179535343954,
,,,,25,0,25,0,,,,,,,,,,,,,,,,,,,,,,1953.8557800999843,None,,,,,,,,,,,,,,,,,shock,124,26,silent,new,null,1950.3635890000733,None,1950.3635890000733,None,2,1.7175557999871671,1950.3635890000733,None,1.7175557999871671,1952.1169793000445,None,1952.62615929998,None,1952.62615929998,None,f,1.2068089001113549,1952.62615929998,None,1.2068089001113549,,,49Silent,001,2022_Sep_12_0926,ProdSingRedoBetween,2021.2.3,60.320179535343954,
,,,,26,0,26,0,,,,,,,,,,,,,,,,,,,,,,1958.4603323000483,None,,,,,,,,,,,,,,,,,incident,130,27,silent,new,null,1954.3663248000666,None,1954.3663248000666,None,1,3.002670200075954,1954.3663248000666,None,3.002670200075954,1957.3940322999842,None,1957.8934792999644,None,1957.8934792999644,None,n,0.5395495999837294,1957.8934792999644,None,0.5395495999837294,,,49Silent,001,2022_Sep_12_0926,ProdSingRedoBetween,2021.2.3,60.320179535343954,
,,,,27,0,27,0,,,,,,,,,,,,,,,,,,,,,,1961.6971488000127,None,,,,,,,,,,,,,,,,,display,111,28,silent,new,null,1958.9642832999816,None,1958.9642832999816,None,1,1.8127051999326795,1958.9642832999816,None,1.8127051999326795,1960.796174100018,None,1961.303793600062,None,1961.303793600062,None,n,0.377440300071612,1961.303793600062,None,0.377440300071612,,,49Silent,001,2022_Sep_12_0926,ProdSingRedoBetween,2021.2.3,60.320179535343954,
,,,,28,0,28,0,,,,,,,,,,,,,,,,,,,,,,1965.2506272000028,None,,,,,,,,,,,,,,,,,private,170,29,silent,new,null,1962.2093142999802,None,1962.2093142999802,None,3,2.087688200059347,1962.2093142999802,None,2.087688200059347,1964.318827799987,None,1964.833774800063,None,1964.833774800063,None,f,0.3912295000627637,1964.833774800063,None,0.3912295000627637,,,49Silent,001,2022_Sep_12_0926,ProdSingRedoBetween,2021.2.3,60.320179535343954,
,,,,29,0,29,0,,,,,,,,,,,,,,,,,,,,,,1971.4903111000312,None,,,,,,,,,,,,,,,,,passage,158,30,silent,new,null,1965.7620694000507,None,1965.7620694000507,None,2,4.0869344000238925,1965.7620694000507,None,4.0869344000238925,1969.8720992000308,None,1970.3726506000385,None,1970.3726506000385,None,f,1.1003319000592455,1970.3726506000385,None,1.1003319000592455,,,49Silent,001,2022_Sep_12_0926,ProdSingRedoBetween,2021.2.3,60.320179535343954,
,,,,30,0,30,0,,,,,,,,,,,,,,,,,,,,,,1974.1594148000004,None,,,,,,,,,,,,,,,,,drink,42,31,silent,old,blue,1971.997994299978,None,1971.997994299978,None,6,1.3310530000599101,1971.997994299978,None,1.3310530000599101,1973.3622506000102,None,1973.8827893000562,None,1973.8827893000562,None,r,0.25411320000421256,1973.8827893000562,None,0.25411320000421256,,,49Silent,001,2022_Sep_12_0926,ProdSingRedoBetween,2021.2.3,60.320179535343954,
,,,,31,0,31,0,,,,,,,,,,,,,,,,,,,,,,1977.4796704000328,None,,,,,,,,,,,,,,,,,quick,96,32,silent,new,null,1974.6616237000562,None,1974.6616237000562,None,2,2.0353767999913543,1974.6616237000562,None,2.0353767999913543,1976.713531699963,None,1977.219678799971,None,1977.219678799971,None,f,0.23736340005416423,1977.219678799971,None,0.23736340005416423,,,49Silent,001,2022_Sep_12_0926,ProdSingRedoBetween,2021.2.3,60.320179535343954,
,,,,32,0,32,0,,,,,,,,,,,,,,,,,,,,,,1980.0986246999819,None,,,,,,,,,,,,,,,,,interview,19,33,silent,old,yellow,1977.9847871999955,None,1977.9847871999955,None,6,1.4243067000061274,1977.9847871999955,None,1.4243067000061274,1979.4356012999779,None,1979.9589810000034,None,1979.9589810000034,None,r,0.11408379999920726,1979.9589810000034,None,0.11408379999920726,,,49Silent,001,2022_Sep_12_0926,ProdSingRedoBetween,2021.2.3,60.320179535343954,
,,,,33,0,33,0,,,,,,,,,,,,,,,,,,,,,,1983.1685680999653,None,,,,,,,,,,,,,,,,,military,113,34,silent,new,null,1980.6054693000624,None,1980.6054693000624,None,1,1.7794804000295699,1980.6054693000624,None,1.7794804000295699,1982.4029194000177,None,1982.9185032000532,None,1982.9185032000532,None,n,0.2345109999878332,1982.9185032000532,None,0.2345109999878332,,,49Silent,001,2022_Sep_12_0926,ProdSingRedoBetween,2021.2.3,60.320179535343954,
,,,,34,0,34,0,,,,,,,,,,,,,,,,,,,,,,1985.806277399999,None,,,,,,,,,,,,,,,,,finish,92,35,silent,new,null,1983.6791333999718,None,1983.6791333999718,None,1,1.5138399000279605,1983.6791333999718,None,1.5138399000279605,1985.221891400055,None,1985.7209583000513,None,1985.7209583000513,None,n,0.06394629995338619,1985.7209583000513,None,0.06394629995338619,,,49Silent,001,2022_Sep_12_0926,ProdSingRedoBetween,2021.2.3,60.320179535343954,
,,,,35,0,35,0,,,,,,,,,,,,,,,,,,,,,,1989.6092546000145,None,,,,,,,,,,,,,,,,,income,164,36,silent,new,null,1986.3219026000006,None,1986.3219026000006,None,2,2.6151508999755606,1986.3219026000006,None,2.6151508999755606,1988.96008790005,None,1989.4750657000113,None,1989.4750657000113,None,f,0.10998079995624721,1989.4750657000113,None,0.10998079995624721,,,49Silent,001,2022_Sep_12_0926,ProdSingRedoBetween,2021.2.3,60.320179535343954,
,,,,36,0,36,0,,,,,,,,,,,,,,,,,,,,,,1993.212020899984,None,,,,,,,,,,,,,,,,,edition,118,37,silent,new,null,1990.1103401000146,None,1990.1103401000146,None,1,2.362854899954982,1990.1103401000146,None,2.362854899954982,1992.504642899963,None,1993.0141720999964,None,1993.0141720999964,None,n,0.17897160002030432,1993.0141720999964,None,0.17897160002030432,,,49Silent,001,2022_Sep_12_0926,ProdSingRedoBetween,2021.2.3,60.320179535343954,
,,,,37,0,37,0,,,,,,,,,,,,,,,,,,,,,,1996.0648213999812,None,,,,,,,,,,,,,,,,,birth,23,38,silent,old,yellow,1993.7245177000295,None,1993.7245177000295,None,6,1.1805963000515476,1993.7245177000295,None,1.1805963000515476,1994.9319218000164,None,1995.433783399989,None,1995.433783399989,None,r,0.6072730000596493,1995.433783399989,None,0.6072730000596493,,,49Silent,001,2022_Sep_12_0926,ProdSingRedoBetween,2021.2.3,60.320179535343954,
,,,,38,0,38,0,,,,,,,,,,,,,,,,,,,,,,1999.2356075000716,None,,,,,,,,,,,,,,,,,bitter,126,39,silent,new,null,1996.5750032999786,None,1996.5750032999786,None,2,2.0100136999972165,1996.5750032999786,None,2.0100136999972165,1998.6007279000478,None,1999.1065315000014,None,1999.1065315000014,None,f,0.10255940002389252,1999.1065315000014,None,0.10255940002389252,,,49Silent,001,2022_Sep_12_0926,ProdSingRedoBetween,2021.2.3,60.320179535343954,
,,,,39,0,39,0,,,,,,,,,,,,,,,,,,,,,,2002.2709566999692,None,,,,,,,,,,,,,,,,,quarter,2,40,silent,old,yellow,1999.7424034000142,None,1999.7424034000142,None,6,1.7546051000244915,1999.7424034000142,None,1.7546051000244915,2001.523313099984,None,2002.0419876000378,None,2002.0419876000378,None,r,0.19913359999191016,2002.0419876000378,None,0.19913359999191016,,,49Silent,001,2022_Sep_12_0926,ProdSingRedoBetween,2021.2.3,60.320179535343954,
,,,,40,0,40,0,,,,,,,,,,,,,,,,,,,,,,2004.9237331000622,None,,,,,,,,,,,,,,,,,master,16,41,silent,old,yellow,2002.78223110002,None,2002.78223110002,None,6,1.3309843000024557,2002.78223110002,None,1.3309843000024557,2004.1407292999793,None,2004.6523554000305,None,2004.6523554000305,None,r,0.24469540000427514,2004.6523554000305,None,0.24469540000427514,,,49Silent,001,2022_Sep_12_0926,ProdSingRedoBetween,2021.2.3,60.320179535343954,
,,,,41,0,41,0,,,,,,,,,,,,,,,,,,,,,,2007.7608161000535,None,,,,,,,,,,,,,,,,,watch,93,42,silent,new,null,2005.433648700011,None,2005.433648700011,None,1,1.6954667000100017,2005.433648700011,None,1.6954667000100017,2007.160634299973,None,2007.6687100999989,None,2007.6687100999989,None,n,0.06034720002207905,2007.6687100999989,None,0.06034720002207905,,,49Silent,001,2022_Sep_12_0926,ProdSingRedoBetween,2021.2.3,60.320179535343954,
,,,,42,0,42,0,,,,,,,,,,,,,,,,,,,,,,2011.5970434000483,None,,,,,,,,,,,,,,,,,reach,15,43,silent,old,yellow,2008.2617744000163,None,2008.2617744000163,None,1,2.363294299924746,2008.2617744000163,None,2.363294299924746,2010.6514590000734,None,2011.163754899986,None,2011.163754899986,None,n,0.41329749999567866,2011.163754899986,None,0.41329749999567866,,,49Silent,001,2022_Sep_12_0926,ProdSingRedoBetween,2021.2.3,60.320179535343954,
,,,,43,0,43,0,,,,,,,,,,,,,,,,,,,,,,2014.54967940005,None,,,,,,,,,,,,,,,,,discovery,79,44,silent,old,red,2012.103190700058,None,2012.103190700058,None,6,1.6818124999990687,2012.103190700058,None,1.6818124999990687,2013.8208823000314,None,2014.3400377000216,None,2014.3400377000216,None,r,0.18099280004389584,2014.3400377000216,None,0.18099280004389584,,,49Silent,001,2022_Sep_12_0926,ProdSingRedoBetween,2021.2.3,60.320179535343954,
,,,,44,0,44,0,,,,,,,,,,,,,,,,,,,,,,2017.3528227000497,None,,,,,,,,,,,,,,,,,religion,152,45,silent,new,null,2015.06357810006,None,2015.06357810006,None,1,1.609547800035216,2015.06357810006,None,1.609547800035216,2016.7022318000672,None,2017.2032974000322,None,2017.2032974000322,None,n,0.12570910004433244,2017.2032974000322,None,0.12570910004433244,,,49Silent,001,2022_Sep_12_0926,ProdSingRedoBetween,2021.2.3,60.320179535343954,
,,,,45,0,45,0,,,,,,,,,,,,,,,,,,,,,,2020.1403396000387,None,,,,,,,,,,,,,,,,,charter,115,46,silent,new,null,2017.8592658999842,None,2017.8592658999842,None,1,1.6297462999355048,2017.8592658999842,None,1.6297462999355048,2019.5075582000427,None,2020.027870299993,None,2020.027870299993,None,n,0.08517979993484914,2020.027870299993,None,0.08517979993484914,,,49Silent,001,2022_Sep_12_0926,ProdSingRedoBetween,2021.2.3,60.320179535343954,
,,,,46,0,46,0,,,,,,,,,,,,,,,,,,,,,,2022.7946508000605,None,,,,,,,,,,,,,,,,,smell,173,47,silent,new,null,2020.6588758999715,None,2020.6588758999715,None,1,1.4461602000519633,2020.6588758999715,None,1.4461602000519633,2022.1258549999911,None,2022.6284181000665,None,2022.6284181000665,None,n,0.14074910001363605,2022.6284181000665,None,0.14074910001363605,,,49Silent,001,2022_Sep_12_0926,ProdSingRedoBetween,2021.2.3,60.320179535343954,
,,,,47,0,47,0,,,,,,,,,,,,,,,,,,,,,,2027.29563399998,None,,,,,,,,,,,,,,,,,concern,159,48,silent,new,null,2023.310567400069,None,2023.310567400069,None,1,3.2583563000662252,2023.310567400069,None,3.2583563000662252,2026.5950938999886,None,2027.1001883000135,None,2027.1001883000135,None,n,0.15706780005712062,2027.1001883000135,None,0.15706780005712062,,,49Silent,001,2022_Sep_12_0926,ProdSingRedoBetween,2021.2.3,60.320179535343954,
,,,,48,0,48,0,,,,,,,,,,,,,,,,,,,,,,2031.4720305000665,None,,,,,,,,,,,,,,,,,store,55,49,silent,old,blue,2027.8043281000573,None,2027.8043281000573,None,2,3.06066339998506,2027.8043281000573,None,3.06066339998506,2030.8846583999693,None,2031.4004803000716,None,2031.4004803000716,None,f,0.04066509997937828,2031.4004803000716,None,0.04066509997937828,,,49Silent,001,2022_Sep_12_0926,ProdSingRedoBetween,2021.2.3,60.320179535343954,
,,,,49,0,49,0,,,,,,,,,,,,,,,,,,,,,,2035.8046160000376,None,,,,,,,,,,,,,,,,,track,98,50,silent,new,null,2031.987089100061,None,2031.987089100061,None,1,2.853999500046484,2031.987089100061,None,2.853999500046484,2034.890550800017,None,2035.4050720999949,None,2035.4050720999949,None,n,0.3719429000047967,2035.4050720999949,None,0.3719429000047967,,,49Silent,001,2022_Sep_12_0926,ProdSingRedoBetween,2021.2.3,60.320179535343954,
,,,,50,0,50,0,,,,,,,,,,,,,,,,,,,,,,2038.859535500058,None,,,,,,,,,,,,,,,,,build,102,51,silent,new,null,2036.3052313000662,None,2036.3052313000662,None,1,1.6559196000453085,2036.3052313000662,None,1.6559196000453085,2037.991451399983,None,2038.4937586999731,None,2038.4937586999731,None,n,0.3393313999986276,2038.4937586999731,None,0.3393313999986276,,,49Silent,001,2022_Sep_12_0926,ProdSingRedoBetween,2021.2.3,60.320179535343954,
,,,,51,0,51,0,,,,,,,,,,,,,,,,,,,,,,2041.4600425000535,None,,,,,,,,,,,,,,,,,level,82,52,silent,old,red,2039.3814238000195,None,2039.3814238000195,None,6,1.4836137999081984,2039.3814238000195,None,1.4836137999081984,2040.8949060000014,None,2041.4102704999968,None,2041.4102704999968,None,r,0.030768999946303666,2041.4102704999968,None,0.030768999946303666,,,49Silent,001,2022_Sep_12_0926,ProdSingRedoBetween,2021.2.3,60.320179535343954,
,,,,52,0,52,0,,,,,,,,,,,,,,,,,,,,,,2044.691503799986,None,,,,,,,,,,,,,,,,,waste,110,53,silent,new,null,2041.9607367999852,None,2041.9607367999852,None,2,2.1522286999970675,2041.9607367999852,None,2.1522286999970675,2044.129356199992,None,2044.6469977999805,None,2044.6469977999805,None,f,0.01837360009085387,2044.6469977999805,None,0.01837360009085387,,,49Silent,001,2022_Sep_12_0926,ProdSingRedoBetween,2021.2.3,60.320179535343954,
,,,,53,0,53,0,,,,,,,,,,,,,,,,,,,,,,2047.2159124000464,None,,,,,,,,,,,,,,,,,hearing,101,54,silent,new,null,2045.1972860000096,None,2045.1972860000096,None,1,1.379669899935834,2045.1972860000096,None,1.379669899935834,2046.6065433999756,None,2047.1170755999628,None,2047.1170755999628,None,n,0.06802539993077517,2047.1170755999628,None,0.06802539993077517,,,49Silent,001,2022_Sep_12_0926,ProdSingRedoBetween,2021.2.3,60.320179535343954,
,,,,54,0,54,0,,,,,,,,,,,,,,,,,,,,,,2049.8352424000623,None,,,,,,,,,,,,,,,,,split,74,55,silent,old,red,2047.7239726000698,None,2047.7239726000698,None,1,1.4850903999758884,2047.7239726000698,None,1.4850903999758884,2049.2363474000013,None,2049.7605435000733,None,2049.7605435000733,None,n,0.04854590003378689,2049.7605435000733,None,0.04854590003378689,,,49Silent,001,2022_Sep_12_0926,ProdSingRedoBetween,2021.2.3,60.320179535343954,
,,,,55,0,55,0,,,,,,,,,,,,,,,,,,,,,,2053.0571502000093,None,,,,,,,,,,,,,,,,,research,154,56,silent,new,null,2050.339508700068,None,2050.339508700068,None,1,2.053712200024165,2050.339508700068,None,2.053712200024165,2052.4310633999994,None,2052.940520000062,None,2052.940520000062,None,n,0.08469109993893653,2052.940520000062,None,0.08469109993893653,,,49Silent,001,2022_Sep_12_0926,ProdSingRedoBetween,2021.2.3,60.320179535343954,
,,,,56,0,56,0,,,,,,,,,,,,,,,,,,,,,,2056.6086458000354,None,,,,,,,,,,,,,,,,,curve,179,57,silent,new,null,2053.578155299998,None,2053.578155299998,None,1,2.342927800025791,2053.578155299998,None,2.342927800025791,2055.944130399963,None,2056.45863550005,None,2056.45863550005,None,n,0.12645880004856735,2056.45863550005,None,0.12645880004856735,,,49Silent,001,2022_Sep_12_0926,ProdSingRedoBetween,2021.2.3,60.320179535343954,
,,,,57,0,57,0,,,,,,,,,,,,,,,,,,,,,,2059.5298028000398,None,,,,,,,,,,,,,,,,,degree,49,58,silent,old,blue,2057.1226105999667,None,2057.1226105999667,None,1,1.750530100078322,2057.1226105999667,None,1.750530100078322,2058.899920900003,None,2059.4116876999615,None,2059.4116876999615,None,n,0.09344939992297441,2059.4116876999615,None,0.09344939992297441,,,49Silent,001,2022_Sep_12_0926,ProdSingRedoBetween,2021.2.3,60.320179535343954,
,,,,58,0,58,0,,,,,,,,,,,,,,,,,,,,,,2062.8688559000148,None,,,,,,,,,,,,,,,,,citizen,127,59,silent,new,null,2060.0329073000466,None,2060.0329073000466,None,1,2.240143199916929,2060.0329073000466,None,2.240143199916929,2062.2991558000213,None,2062.803398799966,None,2062.803398799966,None,n,0.03783270006533712,2062.803398799966,None,0.03783270006533712,,,49Silent,001,2022_Sep_12_0926,ProdSingRedoBetween,2021.2.3,60.320179535343954,
,,,,59,0,59,0,,,,,,,,,,,,,,,,,,,,,,2065.4675467000343,None,,,,,,,,,,,,,,,,,fellow,34,60,silent,old,blue,2063.3917828999693,None,2063.3917828999693,None,1,1.4172571999952197,2063.3917828999693,None,1.4172571999952197,2064.8348457000684,None,2065.334482699982,None,2065.334482699982,None,n,0.11453709995839745,2065.334482699982,None,0.11453709995839745,,,49Silent,001,2022_Sep_12_0926,ProdSingRedoBetween,2021.2.3,60.320179535343954,
,,,,60,0,60,0,,,,,,,,,,,,,,,,,,,,,,2068.120158100035,None,,,,,,,,,,,,,,,,,dozen,18,61,silent,old,yellow,2065.983780600014,None,2065.983780600014,None,1,1.5534102999372408,2065.983780600014,None,1.5534102999372408,2067.553784799995,None,2068.0618778000353,None,2068.0618778000353,None,n,0.0273263999260962,2068.0618778000353,None,0.0273263999260962,,,49Silent,001,2022_Sep_12_0926,ProdSingRedoBetween,2021.2.3,60.320179535343954,
,,,,61,0,61,0,,,,,,,,,,,,,,,,,,,,,,2072.791575500043,None,,,,,,,,,,,,,,,,,society,91,62,silent,new,null,2068.6243389999727,None,2068.6243389999727,None,1,2.0087872999720275,2068.6243389999727,None,2.0087872999720275,2070.665202900069,None,2071.1775545000564,None,2071.1775545000564,None,n,1.5834875999717042,2071.1775545000564,None,1.5834875999717042,,,49Silent,001,2022_Sep_12_0926,ProdSingRedoBetween,2021.2.3,60.320179535343954,
,,,,62,0,62,0,,,,,,,,,,,,,,,,,,,,,,2076.695429000072,None,,,,,,,,,,,,,,,,,contract,24,63,silent,old,yellow,2073.293233799981,None,2073.293233799981,None,6,1.7317954000318423,2073.293233799981,None,1.7317954000318423,2075.0445886000525,None,2075.5484735000646,None,2075.5484735000646,None,r,1.1245781999314204,2075.5484735000646,None,1.1245781999314204,,,49Silent,001,2022_Sep_12_0926,ProdSingRedoBetween,2021.2.3,60.320179535343954,
,,,,63,0,63,0,,,,,,,,,,,,,,,,,,,,,,2079.6483312000055,None,,,,,,,,,,,,,,,,,south,12,64,silent,old,yellow,2077.199433800066,None,2077.199433800066,None,6,1.5776587000582367,2077.199433800066,None,1.5776587000582367,2078.801277099992,None,2079.314809000003,None,2079.314809000003,None,r,0.3023727999534458,2079.314809000003,None,0.3023727999534458,,,49Silent,001,2022_Sep_12_0926,ProdSingRedoBetween,2021.2.3,60.320179535343954,
,,,,64,0,64,0,,,,,,,,,,,,,,,,,,,,,,2082.13659010001,None,,,,,,,,,,,,,,,,,stranger,1,65,silent,old,yellow,2080.159360400052,None,2080.159360400052,None,6,1.1297796999569982,2080.159360400052,None,1.1297796999569982,2081.323793199961,None,2081.8380532000447,None,2081.8380532000447,None,r,0.26713719998952,2081.8380532000447,None,0.26713719998952,,,49Silent,001,2022_Sep_12_0926,ProdSingRedoBetween,2021.2.3,60.320179535343954,
,,,,65,0,65,0,,,,,,,,,,,,,,,,,,,,,,2084.90363039996,None,,,,,,,,,,,,,,,,,nation,169,66,silent,new,null,2082.6571018999675,None,2082.6571018999675,None,1,1.4000914000207558,2082.6571018999675,None,1.4000914000207558,2084.087839700049,None,2084.6034897000063,None,2084.6034897000063,None,n,0.2695931999478489,2084.6034897000063,None,0.2695931999478489,,,49Silent,001,2022_Sep_12_0926,ProdSingRedoBetween,2021.2.3,60.320179535343954,
,,,,66,0,66,0,,,,,,,,,,,,,,,,,,,,,,2087.6396550000645,None,,,,,,,,,,,,,,,,,weight,9,67,silent,old,yellow,2085.4115644000703,None,2085.4115644000703,None,1,1.3815892999991775,2085.4115644000703,None,1.3815892999991775,2086.8236679000547,None,2087.332190199988,None,2087.332190199988,None,n,0.2768307999940589,2087.332190199988,None,0.2768307999940589,,,49Silent,001,2022_Sep_12_0926,ProdSingRedoBetween,2021.2.3,60.320179535343954,
,,,,67,0,67,0,,,,,,,,,,,,,,,,,,,,,,2090.809272399987,None,,,,,,,,,,,,,,,,,material,14,68,silent,old,yellow,2088.142949800007,None,2088.142949800007,None,1,1.6022559000412002,2088.142949800007,None,1.6022559000412002,2089.7865883000195,None,2090.292527899961,None,2090.292527899961,None,n,0.4926381000550464,2090.292527899961,None,0.4926381000550464,,,49Silent,001,2022_Sep_12_0926,ProdSingRedoBetween,2021.2.3,60.320179535343954,
,,,,68,0,68,0,,,,,,,,,,,,,,,,,,,,,,2094.0137912000064,None,,,,,,,,,,,,,,,,,substance,37,69,silent,old,blue,2091.3163308000658,None,2091.3163308000658,None,2,2.060688399942592,2091.3163308000658,None,2.060688399942592,2093.3987773000263,None,2093.9170614000177,None,2093.9170614000177,None,f,0.0760219000512734,2093.9170614000177,None,0.0760219000512734,,,49Silent,001,2022_Sep_12_0926,ProdSingRedoBetween,2021.2.3,60.320179535343954,
,,,,69,0,69,0,,,,,,,,,,,,,,,,,,,,,,2097.8162653000327,None,,,,,,,,,,,,,,,,,opening,132,70,silent,new,null,2094.5259755000006,None,2094.5259755000006,None,1,2.6670567999826744,2094.5259755000006,None,2.6670567999826744,2097.2170334999682,None,2097.7181572000263,None,2097.7181572000263,None,n,0.08294620004016906,2097.7181572000263,None,0.08294620004016906,,,49Silent,001,2022_Sep_12_0926,ProdSingRedoBetween,2021.2.3,60.320179535343954,
,,,,70,0,70,0,,,,,,,,,,,,,,,,,,,,,,2101.8714842000045,None,,,,,,,,,,,,,,,,,touch,20,71,silent,old,yellow,2098.3272497999715,None,2098.3272497999715,None,6,2.553811800084077,2098.3272497999715,None,2.553811800084077,2100.9028574000113,None,2101.406849800027,None,2101.406849800027,None,r,0.43425659998320043,2101.406849800027,None,0.43425659998320043,,,49Silent,001,2022_Sep_12_0926,ProdSingRedoBetween,2021.2.3,60.320179535343954,
,,,,71,0,71,0,,,,,,,,,,,,,,,,,,,,,,2104.6233092000475,None,,,,,,,,,,,,,,,,,colonel,136,72,silent,new,null,2102.379679000005,None,2102.379679000005,None,1,1.3574257999425754,2102.379679000005,None,1.3574257999425754,2103.7580392999807,None,2104.273106000037,None,2104.273106000037,None,n,0.3279044999508187,2104.273106000037,None,0.3279044999508187,,,49Silent,001,2022_Sep_12_0926,ProdSingRedoBetween,2021.2.3,60.320179535343954,
,,,,72,0,72,0,,,,,,,,,,,,,,,,,,,,,,2108.994342799997,None,,,,,,,,,,,,,,,,,throw,143,73,silent,new,null,2105.12470559997,None,2105.12470559997,None,1,2.980367899988778,2105.12470559997,None,2.980367899988778,2108.1283218000317,None,2108.6342006999766,None,2108.6342006999766,None,n,0.3347811000421643,2108.6342006999766,None,0.3347811000421643,,,49Silent,001,2022_Sep_12_0926,ProdSingRedoBetween,2021.2.3,60.320179535343954,
,,,,73,0,73,0,,,,,,,,,,,,,,,,,,,,,,2111.863928799983,None,,,,,,,,,,,,,,,,,beginning,105,74,silent,new,null,2109.503319500014,None,2109.503319500014,None,1,1.4418207999551669,2109.503319500014,None,1.4418207999551669,2110.9664730000077,None,2111.485733199981,None,2111.485733199981,None,n,0.3473896000068635,2111.485733199981,None,0.3473896000068635,,,49Silent,001,2022_Sep_12_0926,ProdSingRedoBetween,2021.2.3,60.320179535343954,
,,,,74,0,74,0,,,,,,,,,,,,,,,,,,,,,,2114.716810600017,None,,,,,,,,,,,,,,,,,object,174,75,silent,new,null,2112.369947100058,None,2112.369947100058,None,1,1.639157300000079,2112.369947100058,None,1.639157300000079,2114.038745100028,None,2114.564761299989,None,2114.564761299989,None,n,0.13226340000983328,2114.564761299989,None,0.13226340000983328,,,49Silent,001,2022_Sep_12_0926,ProdSingRedoBetween,2021.2.3,60.320179535343954,
,,,,75,0,75,0,,,,,,,,,,,,,,,,,,,,,,2118.4044115999714,None,,,,,,,,,,,,,,,,,narrow,131,76,silent,new,null,2115.2360056999605,None,2115.2360056999605,None,1,2.4531071999808773,2115.2360056999605,None,2.4531071999808773,2117.722910100012,None,2118.2394930999726,None,2118.2394930999726,None,n,0.13761199999134988,2118.2394930999726,None,0.13761199999134988,,,49Silent,001,2022_Sep_12_0926,ProdSingRedoBetween,2021.2.3,60.320179535343954,
,,,,76,0,76,0,,,,,,,,,,,,,,,,,,,,,,2121.239926200011,None,,,,,,,,,,,,,,,,,republic,97,77,silent,new,null,2118.9082061999943,None,2118.9082061999943,None,1,1.5329823000356555,2118.9082061999943,None,1.5329823000356555,2120.4736110999947,None,2120.9793868999695,None,2120.9793868999695,None,n,0.22976840008050203,2120.9793868999695,None,0.22976840008050203,,,49Silent,001,2022_Sep_12_0926,ProdSingRedoBetween,2021.2.3,60.320179535343954,
,,,,77,0,77,0,,,,,,,,,,,,,,,,,,,,,,2123.7260556999827,None,,,,,,,,,,,,,,,,,angle,161,78,silent,new,null,2121.7421455000294,None,2121.7421455000294,None,1,1.194983199937269,2121.7421455000294,None,1.194983199937269,2122.9616077999817,None,2123.47809530003,None,2123.47809530003,None,n,0.21897779998835176,2123.47809530003,None,0.21897779998835176,,,49Silent,001,2022_Sep_12_0926,ProdSingRedoBetween,2021.2.3,60.320179535343954,
,,,,78,0,78,0,,,,,,,,,,,,,,,,,,,,,,2127.064586500055,None,,,,,,,,,,,,,,,,,group,128,79,silent,new,null,2124.2293430999853,None,2124.2293430999853,None,1,1.9716993999900296,2124.2293430999853,None,1.9716993999900296,2126.2291601999896,None,2126.7288313000463,None,2126.7288313000463,None,n,0.312292099930346,2126.7288313000463,None,0.312292099930346,,,49Silent,001,2022_Sep_12_0926,ProdSingRedoBetween,2021.2.3,60.320179535343954,
,,,,79,0,79,0,,,,,,,,,,,,,,,,,,,,,,2130.0698266000254,None,,,,,,,,,,,,,,,,,brief,35,80,silent,old,blue,2127.582415599958,None,2127.582415599958,None,6,1.7627130000619218,2127.582415599958,None,1.7627130000619218,2129.364987100009,None,2129.8696612999775,None,2129.8696612999775,None,r,0.17158219998236746,2129.8696612999775,None,0.17158219998236746,,,49Silent,001,2022_Sep_12_0926,ProdSingRedoBetween,2021.2.3,60.320179535343954,
,,,,80,0,80,0,,,,,,,,,,,,,,,,,,,,,,2132.634663100005,None,,,,,,,,,,,,,,,,,debate,70,81,silent,old,red,2130.5923720999854,None,2130.5923720999854,None,1,1.4088691000360996,2130.5923720999854,None,1.4088691000360996,2132.0290404000552,None,2132.535653800005,None,2132.535653800005,None,n,0.0814453000202775,2132.535653800005,None,0.0814453000202775,,,49Silent,001,2022_Sep_12_0926,ProdSingRedoBetween,2021.2.3,60.320179535343954,
,,,,81,0,81,0,,,,,,,,,,,,,,,,,,,,,,2135.1705173000228,None,,,,,,,,,,,,,,,,,husband,90,82,silent,new,null,2133.1469174000667,None,2133.1469174000667,None,1,1.24617510009557,2133.1469174000667,None,1.24617510009557,2134.423272200045,None,2134.944262300036,None,2134.944262300036,None,n,0.20083669992163777,2134.944262300036,None,0.20083669992163777,,,49Silent,001,2022_Sep_12_0926,ProdSingRedoBetween,2021.2.3,60.320179535343954,
,,,,82,0,82,0,,,,,,,,,,,,,,,,,,,,,,2137.747325400007,None,,,,,,,,,,,,,,,,,motion,62,83,silent,old,red,2135.670817699982,None,2135.670817699982,None,6,1.2502353999298066,2135.670817699982,None,1.2502353999298066,2136.9416607000167,None,2137.459446300054,None,2137.459446300054,None,r,0.2617892000125721,2137.459446300054,None,0.2617892000125721,,,49Silent,001,2022_Sep_12_0926,ProdSingRedoBetween,2021.2.3,60.320179535343954,
,,,,83,0,83,0,,,,,,,,,,,,,,,,,,,,,,2140.110423700069,None,,,,,,,,,,,,,,,,,cousin,94,84,silent,new,null,2138.2633592999773,None,2138.2633592999773,None,1,1.2098142999457195,2138.2633592999773,None,1.2098142999457195,2139.498651699978,None,2140.008775399998,None,2140.008775399998,None,n,0.072390399989672,2140.008775399998,None,0.072390399989672,,,49Silent,001,2022_Sep_12_0926,ProdSingRedoBetween,2021.2.3,60.320179535343954,
,,,,84,0,84,0,,,,,,,,,,,,,,,,,,,,,,2142.729000600055,None,,,,,,,,,,,,,,,,,education,168,85,silent,new,null,2140.6276081000688,None,2140.6276081000688,None,1,1.3976029000477865,2140.6276081000688,None,1.3976029000477865,2142.0506969999988,None,2142.5613881000318,None,2142.5613881000318,None,n,0.1358905000379309,2142.5613881000318,None,0.1358905000379309,,,49Silent,001,2022_Sep_12_0926,ProdSingRedoBetween,2021.2.3,60.320179535343954,
,,,,85,0,85,0,,,,,,,,,,,,,,,,,,,,,,2145.448432300007,None,,,,,,,,,,,,,,,,,instrument,117,86,silent,new,null,2143.237032699981,None,2143.237032699981,None,1,1.3560701999813318,2143.237032699981,None,1.3560701999813318,2144.6162546999985,None,2145.136385199963,None,2145.136385199963,None,n,0.2887456000316888,2145.136385199963,None,0.2887456000316888,,,49Silent,001,2022_Sep_12_0926,ProdSingRedoBetween,2021.2.3,60.320179535343954,
,,,,86,0,86,0,,,,,,,,,,,,,,,,,,,,,,2149.2011808999814,None,,,,,,,,,,,,,,,,,accident,58,87,silent,old,blue,2145.9491891000653,None,2145.9491891000653,None,6,2.379893200006336,2145.9491891000653,None,2.379893200006336,2148.351463200059,None,2148.853848000057,None,2148.853848000057,None,r,0.3232328000012785,2148.853848000057,None,0.3232328000012785,,,49Silent,001,2022_Sep_12_0926,ProdSingRedoBetween,2021.2.3,60.320179535343954,
,,,,87,0,87,0,,,,,,,,,,,,,,,,,,,,,,2152.5713019999675,None,,,,,,,,,,,,,,,,,spoke,141,88,silent,new,null,2149.710634500021,None,2149.710634500021,None,1,1.2184406999731436,2149.710634500021,None,1.2184406999731436,2150.954662900069,None,2151.475697900052,None,2151.475697900052,None,n,1.0693969000130892,2151.475697900052,None,1.0693969000130892,,,49Silent,001,2022_Sep_12_0926,ProdSingRedoBetween,2021.2.3,60.320179535343954,
,,,,88,0,88,0,,,,,,,,,,,,,,,,,,,,,,2156.8589201000286,None,,,,,,,,,,,,,,,,,dispute,135,89,silent,new,null,2153.075757100014,None,2153.075757100014,None,1,2.557320300024003,2153.075757100014,None,2.557320300024003,2155.6582891000435,None,2156.1579888999695,None,2156.1579888999695,None,n,0.6751275999704376,2156.1579888999695,None,0.6751275999704376,,,49Silent,001,2022_Sep_12_0926,ProdSingRedoBetween,2021.2.3,60.320179535343954,
,,,,89,0,89,0,,,,,,,,,,,,,,,,,,,,,,2159.8980452000396,None,,,,,,,,,,,,,,,,,write,13,90,silent,old,yellow,2157.362829299993,None,2157.362829299993,None,6,1.670257700025104,2157.362829299993,None,1.670257700025104,2159.0629671000643,None,2159.5784601999912,None,2159.5784601999912,None,r,0.29468519997317344,2159.5784601999912,None,0.29468519997317344,,,49Silent,001,2022_Sep_12_0926,ProdSingRedoBetween,2021.2.3,60.320179535343954,
,,,,90,0,90,0,,,,,,,,,,,,,,,,,,,,,,2162.5311003000243,None,,,,,,,,,,,,,,,,,medicine,109,91,silent,new,null,2160.4126222999766,None,2160.4126222999766,None,1,1.348515999969095,2160.4126222999766,None,1.348515999969095,2161.7827920999844,None,2162.2977557000704,None,2162.2977557000704,None,n,0.21532369998749346,2162.2977557000704,None,0.21532369998749346,,,49Silent,001,2022_Sep_12_0926,ProdSingRedoBetween,2021.2.3,60.320179535343954,
,,,,91,0,91,0,,,,,,,,,,,,,,,,,,,,,,2166.284810699988,None,,,,,,,,,,,,,,,,,cover,149,92,silent,new,null,2163.03393210005,None,2163.03393210005,None,1,2.391096399980597,2163.03393210005,None,2.391096399980597,2165.454755999963,None,2165.9679287000326,None,2165.9679287000326,None,n,0.2971319999778643,2165.9679287000326,None,0.2971319999778643,,,49Silent,001,2022_Sep_12_0926,ProdSingRedoBetween,2021.2.3,60.320179535343954,
,,,,92,0,92,0,,,,,,,,,,,,,,,,,,,,,,2169.171074000071,None,,,,,,,,,,,,,,,,,clean,133,93,silent,new,null,2166.797704400029,None,2166.797704400029,None,1,1.6113577000796795,2166.797704400029,None,1.6113577000796795,2168.442624200019,None,2168.9543384000426,None,2168.9543384000426,None,n,0.1987199999857694,2168.9543384000426,None,0.1987199999857694,,,49Silent,001,2022_Sep_12_0926,ProdSingRedoBetween,2021.2.3,60.320179535343954,
,,,,93,0,93,0,,,,,,,,,,,,,,,,,,,,,,2172.30767800007,None,,,,,,,,,,,,,,,,,clear,104,94,silent,new,null,2169.681780199986,None,2169.681780199986,None,6,1.8313437000615522,2169.681780199986,None,1.8313437000615522,2171.54376530007,None,2172.0592525000684,None,2172.0592525000684,None,r,0.22983149997889996,2172.0592525000684,None,0.22983149997889996,,,49Silent,001,2022_Sep_12_0926,ProdSingRedoBetween,2021.2.3,60.320179535343954,
,,,,94,0,94,0,,,,,,,,,,,,,,,,,,,,,,2174.8294393999968,None,,,,,,,,,,,,,,,,,number,120,95,silent,new,null,2172.8129355000565,None,2172.8129355000565,None,1,1.3324866000330076,2172.8129355000565,None,1.3324866000330076,2174.184965500026,None,2174.698989800061,None,2174.698989800061,None,n,0.11019549996126443,2174.698989800061,None,0.11019549996126443,,,49Silent,001,2022_Sep_12_0926,ProdSingRedoBetween,2021.2.3,60.320179535343954,
,,,,95,0,95,0,,,,,,,,,,,,,,,,,,,,,,2177.562891999958,None,,,,,,,,,,,,,,,,,dream,108,96,silent,new,null,2175.3473827000707,None,2175.3473827000707,None,1,1.3897224999964237,2175.3473827000707,None,1.3897224999964237,2176.7622323000105,None,2177.2659190000268,None,2177.2659190000268,None,n,0.2791312000481412,2177.2659190000268,None,0.2791312000481412,,,49Silent,001,2022_Sep_12_0926,ProdSingRedoBetween,2021.2.3,60.320179535343954,
,,,,96,0,96,0,,,,,,,,,,,,,,,,,,,,,,2180.0653660000535,None,,,,,,,,,,,,,,,,,orchestra,163,97,silent,new,null,2178.082298299996,None,2178.082298299996,None,1,1.2228048000251874,2178.082298299996,None,1.2228048000251874,2179.332826600061,None,2179.8384623000165,None,2179.8384623000165,None,n,0.21064950001891702,2179.8384623000165,None,0.21064950001891702,,,49Silent,001,2022_Sep_12_0926,ProdSingRedoBetween,2021.2.3,60.320179535343954,
,,,,97,0,97,0,,,,,,,,,,,,,,,,,,,,,,2182.6346871000715,None,,,,,,,,,,,,,,,,,testimony,121,98,silent,new,null,2180.57524939999,None,2180.57524939999,None,1,1.3378560999408364,2180.57524939999,None,1.3378560999408364,2181.9520638000686,None,2182.4512186000356,None,2182.4512186000356,None,n,0.16586190008092672,2182.4512186000356,None,0.16586190008092672,,,49Silent,001,2022_Sep_12_0926,ProdSingRedoBetween,2021.2.3,60.320179535343954,
,,,,98,0,98,0,,,,,,,,,,,,,,,,,,,,,,2185.506973700016,None,,,,,,,,,,,,,,,,,department,89,99,silent,old,red,2183.1495155000594,None,2183.1495155000594,None,1,1.7155971000902355,2183.1495155000594,None,1.7155971000902355,2184.8897714000195,None,2185.4070903999964,None,2185.4070903999964,None,n,0.07404490001499653,2185.4070903999964,None,0.07404490001499653,,,49Silent,001,2022_Sep_12_0926,ProdSingRedoBetween,2021.2.3,60.320179535343954,
,,,,99,0,99,0,,,,,,,,,,,,,,,,,,,,,,2188.359513400006,None,,,,,,,,,,,,,,,,,working,137,100,silent,new,null,2186.025331299985,None,2186.025331299985,None,1,1.503713299985975,2186.025331299985,None,1.503713299985975,2187.5599679000443,None,2188.0844445000403,None,2188.0844445000403,None,n,0.24469019996467978,2188.0844445000403,None,0.24469019996467978,,,49Silent,001,2022_Sep_12_0926,ProdSingRedoBetween,2021.2.3,60.320179535343954,
,,,,100,0,100,0,,,,,,,,,,,,,,,,,,,,,,2190.9611813999945,None,,,,,,,,,,,,,,,,,oxygen,119,101,silent,new,null,2188.8837686000625,None,2188.8837686000625,None,1,1.2373690999811515,2188.8837686000625,None,1.2373690999811515,2190.1522847999586,None,2190.659158100025,None,2190.659158100025,None,n,0.27000939997378737,2190.659158100025,None,0.27000939997378737,,,49Silent,001,2022_Sep_12_0926,ProdSingRedoBetween,2021.2.3,60.320179535343954,
,,,,101,0,101,0,,,,,,,,,,,,,,,,,,,,,,2195.285443400033,None,,,,,,,,,,,,,,,,,company,11,102,silent,old,yellow,2191.469303700025,None,2191.469303700025,None,1,2.6677993999328464,2191.469303700025,None,2.6677993999328464,2194.1645786999725,None,2194.685409800033,None,2194.685409800033,None,n,0.5717545999214053,2194.685409800033,None,0.5717545999214053,,,49Silent,001,2022_Sep_12_0926,ProdSingRedoBetween,2021.2.3,60.320179535343954,
,,,,102,0,102,0,,,,,,,,,,,,,,,,,,,,,,2198.600571600022,None,,,,,,,,,,,,,,,,,answer,28,103,silent,old,yellow,2195.801602500025,None,2195.801602500025,None,1,1.7275368000846356,2195.801602500025,None,1.7275368000846356,2197.5523116000695,None,2198.0678416000446,None,2198.0678416000446,None,n,0.5013200000394136,2198.0678416000446,None,0.5013200000394136,,,49Silent,001,2022_Sep_12_0926,ProdSingRedoBetween,2021.2.3,60.320179535343954,
,,,,103,0,103,0,,,,,,,,,,,,,,,,,,,,,,2202.38785509998,None,,,,,,,,,,,,,,,,,institute,63,104,silent,old,red,2199.116508300067,None,2199.116508300067,None,4,2.436655499972403,2199.116508300067,None,2.436655499972403,2201.5737503999844,None,2202.0875165000325,None,2202.0875165000325,None,f,0.2736149000702426,2202.0875165000325,None,0.2736149000702426,,,49Silent,001,2022_Sep_12_0926,ProdSingRedoBetween,2021.2.3,60.320179535343954,
,,,,104,0,104,0,,,,,,,,,,,,,,,,,,,,,,2207.4427986000665,None,,,,,,,,,,,,,,,,,addition,171,105,silent,new,null,2202.8899281000486,None,2202.8899281000486,None,3,3.69514840003103,2202.8899281000486,None,3.69514840003103,2206.608773199958,None,2207.113226799993,None,2207.113226799993,None,f,0.30389850004576147,2207.113226799993,None,0.30389850004576147,,,49Silent,001,2022_Sep_12_0926,ProdSingRedoBetween,2021.2.3,60.320179535343954,
,,,,105,0,105,0,,,,,,,,,,,,,,,,,,,,,,2210.1120876000496,None,,,,,,,,,,,,,,,,,color,48,106,silent,old,blue,2207.955703100073,None,2207.955703100073,None,1,1.3654837000649422,2207.955703100073,None,1.3654837000649422,2209.3512899000198,None,2209.8619837000733,None,2209.8619837000733,None,n,0.2351271000225097,2209.8619837000733,None,0.2351271000225097,,,49Silent,001,2022_Sep_12_0926,ProdSingRedoBetween,2021.2.3,60.320179535343954,
,,,,106,0,106,0,,,,,,,,,,,,,,,,,,,,,,2212.998382800026,None,,,,,,,,,,,,,,,,,bucket,116,107,silent,new,null,2210.627652000054,None,2210.627652000054,None,1,1.4533784000668675,2210.627652000054,None,1.4533784000668675,2212.100989000057,None,2212.619857899961,None,2212.619857899961,None,n,0.34933690004982054,2212.619857899961,None,0.34933690004982054,,,49Silent,001,2022_Sep_12_0926,ProdSingRedoBetween,2021.2.3,60.320179535343954,
,,,,107,0,107,0,,,,,,,,,,,,,,,,,,,,,,2216.2704393999884,None,,,,,,,,,,,,,,,,,smooth,76,108,silent,old,red,2213.511568099959,None,2213.511568099959,None,6,1.9214837000472471,2213.511568099959,None,1.9214837000472471,2215.4522702000104,None,2215.9538457000162,None,2215.9538457000162,None,r,0.28740160004235804,2215.9538457000162,None,0.28740160004235804,,,49Silent,001,2022_Sep_12_0926,ProdSingRedoBetween,2021.2.3,60.320179535343954,
,,,,108,0,108,0,,,,,,,,,,,,,,,,,,,,,,2218.710861600004,None,,,,,,,,,,,,,,,,,pretty,61,109,silent,old,red,2216.7957632000325,None,2216.7957632000325,None,1,1.1333442999748513,2216.7957632000325,None,1.1333442999748513,2217.9566894000163,None,2218.4793033000315,None,2218.4793033000315,None,n,0.20194049994461238,2218.4793033000315,None,0.20194049994461238,,,49Silent,001,2022_Sep_12_0926,ProdSingRedoBetween,2021.2.3,60.320179535343954,
,,,,109,0,109,0,,,,,,,,,,,,,,,,,,,,,,2221.156462099985,None,,,,,,,,,,,,,,,,,drama,40,110,silent,old,blue,2219.2289664000273,None,2219.2289664000273,None,1,1.1881443000165746,2219.2289664000273,None,1.1881443000165746,2220.439085699967,None,2220.9396960999584,None,2220.9396960999584,None,n,0.18939870002213866,2220.9396960999584,None,0.18939870002213866,,,49Silent,001,2022_Sep_12_0926,ProdSingRedoBetween,2021.2.3,60.320179535343954,
,,,,110,0,110,0,,,,,,,,,,,,,,,,,,,,,,2224.0427005999954,None,,,,,,,,,,,,,,,,,equipment,4,111,silent,old,yellow,2221.669742100057,None,2221.669742100057,None,3,1.699357100063935,2221.669742100057,None,1.699357100063935,2223.3939477000386,None,2223.909419200034,None,2223.909419200034,None,f,0.11569430003874004,2223.909419200034,None,0.11569430003874004,,,49Silent,001,2022_Sep_12_0926,ProdSingRedoBetween,2021.2.3,60.320179535343954,
,,,,111,0,111,0,,,,,,,,,,,,,,,,,,,,,,2227.2304220000515,None,,,,,,,,,,,,,,,,,short,155,112,silent,new,null,2224.5508277000627,None,2224.5508277000627,None,1,1.9062314999755472,2224.5508277000627,None,1.9062314999755472,2226.480158900027,None,2226.9969618000323,None,2226.9969618000323,None,n,0.21221859997604042,2226.9969618000323,None,0.21221859997604042,,,49Silent,001,2022_Sep_12_0926,ProdSingRedoBetween,2021.2.3,60.320179535343954,
,,,,112,0,112,0,,,,,,,,,,,,,,,,,,,,,,2233.0848500999855,None,,,,,,,,,,,,,,,,,center,177,113,silent,new,null,2227.732060899958,None,2227.732060899958,None,2,2.4530911999754608,2227.732060899958,None,2.4530911999754608,2230.2158370000543,None,2230.7158412999706,None,2230.7158412999706,None,n,2.3412201999453828,2230.7158412999706,None,2.3412201999453828,,,49Silent,001,2022_Sep_12_0926,ProdSingRedoBetween,2021.2.3,60.320179535343954,
,,,,113,0,113,0,,,,,,,,,,,,,,,,,,,,,,2236.204856400029,None,,,,,,,,,,,,,,,,,range,157,114,silent,new,null,2233.59519370005,None,2233.59519370005,None,1,1.7578890000004321,2233.59519370005,None,1.7578890000004321,2235.3704595000017,None,2235.871266799979,None,2235.871266799979,None,n,0.31386770005337894,2235.871266799979,None,0.31386770005337894,,,49Silent,001,2022_Sep_12_0926,ProdSingRedoBetween,2021.2.3,60.320179535343954,
,,,,114,0,114,0,,,,,,,,,,,,,,,,,,,,,,2240.30896220007,None,,,,,,,,,,,,,,,,,interior,178,115,silent,new,null,2236.7129222999793,None,2236.7129222999793,None,1,2.9201827000360936,2236.7129222999793,None,2.9201827000360936,2239.665650699986,None,2240.175573699991,None,2240.175573699991,None,n,0.11366369994357228,2240.175573699991,None,0.11366369994357228,,,49Silent,001,2022_Sep_12_0926,ProdSingRedoBetween,2021.2.3,60.320179535343954,
,,,,115,0,115,0,,,,,,,,,,,,,,,,,,,,,,2243.2284597000107,None,,,,,,,,,,,,,,,,,division,69,116,silent,old,red,2240.813074600068,None,2240.813074600068,None,6,1.804021600051783,2240.813074600068,None,1.804021600051783,2242.646179500036,None,2243.1514381000306,None,2243.1514381000306,None,r,0.057706299936398864,2243.1514381000306,None,0.057706299936398864,,,49Silent,001,2022_Sep_12_0926,ProdSingRedoBetween,2021.2.3,60.320179535343954,
,,,,116,0,116,0,,,,,,,,,,,,,,,,,,,,,,2245.764190100017,None,,,,,,,,,,,,,,,,,congress,107,117,silent,new,null,2243.7399787000613,None,2243.7399787000613,None,1,1.2051819000625983,2243.7399787000613,None,1.2051819000625983,2244.964723100071,None,2245.464185800054,None,2245.464185800054,None,n,0.28091590001713485,2245.464185800054,None,0.28091590001713485,,,49Silent,001,2022_Sep_12_0926,ProdSingRedoBetween,2021.2.3,60.320179535343954,
,,,,117,0,117,0,,,,,,,,,,,,,,,,,,,,,,2248.768351900042,None,,,,,,,,,,,,,,,,,primary,167,118,silent,new,null,2246.278474300052,None,2246.278474300052,None,1,1.8428440999705344,2246.278474300052,None,1.8428440999705344,2248.1575108000543,None,2248.6715186999645,None,2248.6715186999645,None,n,0.07366489991545677,2248.6715186999645,None,0.07366489991545677,,,49Silent,001,2022_Sep_12_0926,ProdSingRedoBetween,2021.2.3,60.320179535343954,
,,,,118,0,118,0,,,,,,,,,,,,,,,,,,,,,,2251.119724599994,None,,,,,,,,,,,,,,,,,prime,139,119,silent,new,null,2249.2711797000375,None,2249.2711797000375,None,1,1.2659124000929296,2249.2711797000375,None,1.2659124000929296,2250.5564909999957,None,2251.0697483000113,None,2251.0697483000113,None,n,0.01941209996584803,2251.0697483000113,None,0.01941209996584803,,,49Silent,001,2022_Sep_12_0926,ProdSingRedoBetween,2021.2.3,60.320179535343954,
,,,,119,0,119,0,,,,,,,,,,,,,,,,,,,,,,2254.2895943999756,None,,,,,,,,,,,,,,,,,period,27,120,silent,old,yellow,2251.6321532999864,None,2251.6321532999864,None,1,2.0649820000398904,2251.6321532999864,None,2.0649820000398904,2253.7235145999584,None,2254.2254341000225,None,2254.2254341000225,None,n,0.03975899994838983,2254.2254341000225,None,0.03975899994838983,,,49Silent,001,2022_Sep_12_0926,ProdSingRedoBetween,2021.2.3,60.320179535343954,
,,,,120,0,120,0,,,,,,,,,,,,,,,,,,,,,,2256.6586128000636,None,,,,,,,,,,,,,,,,,machinery,165,121,silent,new,null,2254.8029286999954,None,2254.8029286999954,None,1,1.2781065999297425,2254.8029286999954,None,1.2781065999297425,2256.112091899966,None,2256.6253490999807,None,2256.6253490999807,None,n,0.007768500014208257,2256.6253490999807,None,0.007768500014208257,,,49Silent,001,2022_Sep_12_0926,ProdSingRedoBetween,2021.2.3,60.320179535343954,
,,,,121,0,121,0,,,,,,,,,,,,,,,,,,,,,,2260.947879399988,None,,,,,,,,,,,,,,,,,stand,43,122,silent,old,blue,2257.166965399985,None,2257.166965399985,None,3,3.2101373999612406,2257.166965399985,None,3.2101373999612406,2260.396905099973,None,2260.9010675000027,None,2260.9010675000027,None,f,0.028239100007340312,2260.9010675000027,None,0.028239100007340312,,,49Silent,001,2022_Sep_12_0926,ProdSingRedoBetween,2021.2.3,60.320179535343954,
,,,,122,0,122,0,,,,,,,,,,,,,,,,,,,,,,2263.8173578999704,None,,,,,,,,,,,,,,,,,question,39,123,silent,old,blue,2261.4611578000477,None,2261.4611578000477,None,1,1.7400042000226676,2261.4611578000477,None,1.7400042000226676,2263.2342627999606,None,2263.7525669999886,None,2263.7525669999886,None,n,0.04068619990721345,2263.7525669999886,None,0.04068619990721345,,,49Silent,001,2022_Sep_12_0926,ProdSingRedoBetween,2021.2.3,60.320179535343954,
,,,,123,0,123,0,,,,,,,,,,,,,,,,,,,,,,2267.7363523000386,None,,,,,,,,,,,,,,,,,profession,59,124,silent,old,yellow,2264.3291863000486,None,2264.3291863000486,None,1,2.7999685999238864,2264.3291863000486,None,2.7999685999238864,2267.1539258999983,None,2267.6533450999996,None,2267.6533450999996,None,n,0.05979709990788251,2267.6533450999996,None,0.05979709990788251,,,49Silent,001,2022_Sep_12_0926,ProdSingRedoBetween,2021.2.3,60.320179535343954,
,,,,124,0,124,0,,,,,,,,,,,,,,,,,,,,,,2270.5224394999677,None,,,,,,,,,,,,,,,,,break,10,125,silent,old,yellow,2268.246561000007,None,2268.246561000007,None,6,1.4905204999959096,2268.246561000007,None,1.4905204999959096,2269.7564158999594,None,2270.2619537999853,None,2270.2619537999853,None,r,0.24315430002752692,2270.2619537999853,None,0.24315430002752692,,,49Silent,001,2022_Sep_12_0926,ProdSingRedoBetween,2021.2.3,60.320179535343954,
,,,,125,0,125,0,,,,,,,,,,,,,,,,,,,,,,2273.9091957999626,None,,,,,,,,,,,,,,,,,design,172,126,silent,new,null,2271.032866399968,None,2271.032866399968,None,1,1.4483531001023948,2271.032866399968,None,1.4483531001023948,2272.508868600009,None,2273.0096262999577,None,2273.0096262999577,None,n,0.8715827000560239,2273.0096262999577,None,0.8715827000560239,,,49Silent,001,2022_Sep_12_0926,ProdSingRedoBetween,2021.2.3,60.320179535343954,
,,,,126,0,126,0,,,,,,,,,,,,,,,,,,,,,,2279.6649142999668,None,,,,,,,,,,,,,,,,,count,83,127,silent,old,red,2274.4153106999584,None,2274.4153106999584,None,6,1.9378455000696704,2274.4153106999584,None,1.9378455000696704,2276.3794022999937,None,2276.8824655000353,None,2276.8824655000353,None,r,2.76668909995351,2276.8824655000353,None,2.76668909995351,,,49Silent,001,2022_Sep_12_0926,ProdSingRedoBetween,2021.2.3,60.320179535343954,
,,,,127,0,127,0,,,,,,,,,,,,,,,,,,,,,,2282.7177626000484,None,,,,,,,,,,,,,,,,,country,150,128,silent,new,null,2280.172929499997,None,2280.172929499997,None,1,1.2924305000342429,2280.172929499997,None,1.2924305000342429,2281.4995137000224,None,2282.003505300032,None,2282.003505300032,None,n,0.693668800056912,2282.003505300032,None,0.693668800056912,,,49Silent,001,2022_Sep_12_0926,ProdSingRedoBetween,2021.2.3,60.320179535343954,
,,,,128,0,128,0,,,,,,,,,,,,,,,,,,,,,,2286.3714278000407,None,,,,,,,,,,,,,,,,,owner,80,129,silent,old,red,2283.2279652999714,None,2283.2279652999714,None,6,1.1811468000523746,2283.2279652999714,None,1.1811468000523746,2284.436580199981,None,2284.9399188000243,None,2284.9399188000243,None,r,1.405145899974741,2284.9399188000243,None,1.405145899974741,,,49Silent,001,2022_Sep_12_0926,ProdSingRedoBetween,2021.2.3,60.320179535343954,
,,,,129,0,129,0,,,,,,,,,,,,,,,,,,,,,,2289.3913276999956,None,,,,,,,,,,,,,,,,,broke,57,130,silent,old,blue,2286.877491899999,None,2286.877491899999,None,6,1.4677265000063926,2286.877491899999,None,1.4677265000063926,2288.3763708999613,None,2288.8909311000025,None,2288.8909311000025,None,r,0.47823739994782954,2288.8909311000025,None,0.47823739994782954,,,49Silent,001,2022_Sep_12_0926,ProdSingRedoBetween,2021.2.3,60.320179535343954,
,,,,130,0,130,0,,,,,,,,,,,,,,,,,,,,,,2292.143956999993,None,,,,,,,,,,,,,,,,,rural,147,131,silent,new,null,2289.9010995000135,None,2289.9010995000135,None,1,1.2680645999498665,2289.9010995000135,None,1.2680645999498665,2291.2001953000436,None,2291.7104873000644,None,2291.7104873000644,None,n,0.40266290004365146,2291.7104873000644,None,0.40266290004365146,,,49Silent,001,2022_Sep_12_0926,ProdSingRedoBetween,2021.2.3,60.320179535343954,
,,,,131,0,131,0,,,,,,,,,,,,,,,,,,,,,,2295.7142654999625,None,,,,,,,,,,,,,,,,,suspect,81,132,silent,old,red,2292.6528521999717,None,2292.6528521999717,None,1,1.8923578000394627,2292.6528521999717,None,1.8923578000394627,2294.5715059000067,None,2295.0835416000336,None,2295.0835416000336,None,n,0.605632400023751,2295.0835416000336,None,0.605632400023751,,,49Silent,001,2022_Sep_12_0926,ProdSingRedoBetween,2021.2.3,60.320179535343954,
,,,,132,0,132,0,,,,,,,,,,,,,,,,,,,,,,2303.455391800031,None,,,,,,,,,,,,,,,,,threat,36,133,silent,old,blue,2296.222664300003,None,2296.222664300003,None,6,5.8665018999017775,2296.222664300003,None,5.8665018999017775,2302.103876200039,None,2302.6080745999934,None,2302.6080745999934,None,r,0.825073300045915,2302.6080745999934,None,0.825073300045915,,,49Silent,001,2022_Sep_12_0926,ProdSingRedoBetween,2021.2.3,60.320179535343954,
,,,,133,0,133,0,,,,,,,,,,,,,,,,,,,,,,2306.0913363000145,None,,,,,,,,,,,,,,,,,weather,65,134,silent,old,red,2303.9650033999933,None,2303.9650033999933,None,1,1.1802309999475256,2303.9650033999933,None,1.1802309999475256,2305.1770024000434,None,2305.7022441000445,None,2305.7022441000445,None,n,0.3629417000338435,2305.7022441000445,None,0.3629417000338435,,,49Silent,001,2022_Sep_12_0926,ProdSingRedoBetween,2021.2.3,60.320179535343954,
,,,,134,0,134,0,,,,,,,,,,,,,,,,,,,,,,2308.77729420003,None,,,,,,,,,,,,,,,,,fashion,0,135,silent,old,yellow,2306.5950501000043,None,2306.5950501000043,None,1,1.262154299998656,2306.5950501000043,None,1.262154299998656,2307.8803052000003,None,2308.3937185000395,None,2308.3937185000395,None,n,0.35944420006126165,2308.3937185000395,None,0.35944420006126165,,,49Silent,001,2022_Sep_12_0926,ProdSingRedoBetween,2021.2.3,60.320179535343954,
,,,,135,0,135,0,,,,,,,,,,,,,,,,,,,,,,2312.8815389999654,None,,,,,,,,,,,,,,,,,judge,51,136,silent,old,blue,2309.2853427999653,None,2309.2853427999653,None,3,2.3078159000724554,2309.2853427999653,None,2.3078159000724554,2311.6152816000395,None,2312.1308073999826,None,2312.1308073999826,None,f,0.7345581999979913,2312.1308073999826,None,0.7345581999979913,,,49Silent,001,2022_Sep_12_0926,ProdSingRedoBetween,2021.2.3,60.320179535343954,
,,,,136,0,136,0,,,,,,,,,,,,,,,,,,,,,,2315.7229998999974,None,,,,,,,,,,,,,,,,,conference,175,137,silent,new,null,2313.3906021000585,None,2313.3906021000585,None,1,1.3624551999382675,2313.3906021000585,None,1.3624551999382675,2314.784520599991,None,2315.290989800007,None,2315.290989800007,None,n,0.40606759989168495,2315.290989800007,None,0.40606759989168495,,,49Silent,001,2022_Sep_12_0926,ProdSingRedoBetween,2021.2.3,60.320179535343954,
,,,,137,0,137,0,,,,,,,,,,,,,,,,,,,,,,2318.9541750999633,None,,,,,,,,,,,,,,,,,strain,68,138,silent,old,red,2316.2372927999822,None,2316.2372927999822,None,1,1.7157946999650449,2316.2372927999822,None,1.7157946999650449,2317.9699766000267,None,2318.477348400047,None,2318.477348400047,None,n,0.4518837999785319,2318.477348400047,None,0.4518837999785319,,,49Silent,001,2022_Sep_12_0926,ProdSingRedoBetween,2021.2.3,60.320179535343954,
,,,,138,0,138,0,,,,,,,,,,,,,,,,,,,,,,2324.8435656999936,None,,,,,,,,,,,,,,,,,taste,134,139,silent,new,null,2319.460052700015,None,2319.460052700015,None,1,4.405083400080912,2319.460052700015,None,4.405083400080912,2323.893903600052,None,2324.3971064999932,None,2324.3971064999932,None,n,0.4281533999601379,2324.3971064999932,None,0.4281533999601379,,,49Silent,001,2022_Sep_12_0926,ProdSingRedoBetween,2021.2.3,60.320179535343954,
,,,,139,0,139,0,,,,,,,,,,,,,,,,,,,,,,2329.4519797000103,None,,,,,,,,,,,,,,,,,population,53,140,silent,old,blue,2325.3477910000365,None,2325.3477910000365,None,6,3.2133960999781266,2325.3477910000365,None,3.2133960999781266,2328.5824804999866,None,2329.1024944999954,None,2329.1024944999954,None,r,0.3228184999898076,2329.1024944999954,None,0.3228184999898076,,,49Silent,001,2022_Sep_12_0926,ProdSingRedoBetween,2021.2.3,60.320179535343954,
,,,,140,0,140,0,,,,,,,,,,,,,,,,,,,,,,2332.1176042000297,None,,,,,,,,,,,,,,,,,skill,41,141,silent,old,blue,2329.9651294000214,None,2329.9651294000214,None,1,1.4280332999769598,2329.9651294000214,None,1.4280332999769598,2331.418595700059,None,2331.934344700072,None,2331.934344700072,None,n,0.15474809997249395,2331.934344700072,None,0.15474809997249395,,,49Silent,001,2022_Sep_12_0926,ProdSingRedoBetween,2021.2.3,60.320179535343954,
,,,,141,0,141,0,,,,,,,,,,,,,,,,,,,,,,2334.7882301000645,None,,,,,,,,,,,,,,,,,management,73,142,silent,old,red,2332.6221680999734,None,2332.6221680999734,None,1,1.2749928999692202,2332.6221680999734,None,1.2749928999692202,2333.920495999977,None,2334.4236028000014,None,2334.4236028000014,None,n,0.3377316000405699,2334.4236028000014,None,0.3377316000405699,,,49Silent,001,2022_Sep_12_0926,ProdSingRedoBetween,2021.2.3,60.320179535343954,
,,,,142,0,142,0,,,,,,,,,,,,,,,,,,,,,,2338.073247399996,None,,,,,,,,,,,,,,,,,trash,38,143,silent,old,blue,2335.3064687000588,None,2335.3064687000588,None,1,1.9506700000492856,2335.3064687000588,None,1.9506700000492856,2337.27338639996,None,2337.773060000036,None,2337.773060000036,None,n,0.2761093000881374,2337.773060000036,None,0.2761093000881374,,,49Silent,001,2022_Sep_12_0926,ProdSingRedoBetween,2021.2.3,60.320179535343954,
,,,,143,0,143,0,,,,,,,,,,,,,,,,,,,,,,2341.109763400047,None,,,,,,,,,,,,,,,,,carry,22,144,silent,old,yellow,2338.5925196000608,None,2338.5925196000608,None,6,1.6326757000060752,2338.5925196000608,None,1.6326757000060752,2340.2470074000303,None,2340.765140500036,None,2340.765140500036,None,r,0.3240900000091642,2340.765140500036,None,0.3240900000091642,,,49Silent,001,2022_Sep_12_0926,ProdSingRedoBetween,2021.2.3,60.320179535343954,
,,,,144,0,144,0,,,,,,,,,,,,,,,,,,,,,,2343.830360400025,None,,,,,,,,,,,,,,,,,breath,144,145,silent,new,null,2341.620538500021,None,2341.620538500021,None,1,1.3565929000033066,2341.620538500021,None,1.3565929000033066,2342.994646099978,None,2343.5027569000376,None,2343.5027569000376,None,n,0.30648839997593313,2343.5027569000376,None,0.30648839997593313,,,49Silent,001,2022_Sep_12_0926,ProdSingRedoBetween,2021.2.3,60.320179535343954,
,,,,145,0,145,0,,,,,,,,,,,,,,,,,,,,,,2346.482934599975,None,,,,,,,,,,,,,,,,,gesture,100,146,silent,new,null,2344.345199399977,None,2344.345199399977,None,1,1.3598827000241727,2344.345199399977,None,1.3598827000241727,2345.7371538999723,None,2346.2480540999677,None,2346.2480540999677,None,n,0.21717879991047084,2346.2480540999677,None,0.21717879991047084,,,49Silent,001,2022_Sep_12_0926,ProdSingRedoBetween,2021.2.3,60.320179535343954,
,,,,146,0,146,0,,,,,,,,,,,,,,,,,,,,,,2350.0851445000153,None,,,,,,,,,,,,,,,,,defeat,84,147,silent,old,red,2346.994995099958,None,2346.994995099958,None,2,2.4062641999917105,2346.994995099958,None,2.4062641999917105,2349.4211969999596,None,2349.935245000059,None,2349.935245000059,None,f,0.12199909996706992,2349.935245000059,None,0.12199909996706992,,,49Silent,001,2022_Sep_12_0926,ProdSingRedoBetween,2021.2.3,60.320179535343954,
,,,,147,0,147,0,,,,,,,,,,,,,,,,,,,,,,2353.9464190000435,None,,,,,,,,,,,,,,,,,property,17,148,silent,old,yellow,2350.6011186999967,None,2350.6011186999967,None,1,2.352075600065291,2350.6011186999967,None,2.352075600065291,2352.9780805000337,None,2353.4887421999592,None,2353.4887421999592,None,n,0.4327741999877617,2353.4887421999592,None,0.4327741999877617,,,49Silent,001,2022_Sep_12_0926,ProdSingRedoBetween,2021.2.3,60.320179535343954,
,,,,148,0,148,0,,,,,,,,,,,,,,,,,,,,,,2356.6084400999825,None,,,,,,,,,,,,,,,,,impact,87,149,silent,old,red,2354.473320099991,None,2354.473320099991,None,1,1.2159508001059294,2354.473320099991,None,1.2159508001059294,2355.712800499983,None,2356.226879199967,None,2356.226879199967,None,n,0.3503560000099242,2356.226879199967,None,0.3503560000099242,,,49Silent,001,2022_Sep_12_0926,ProdSingRedoBetween,2021.2.3,60.320179535343954,
,,,,149,0,149,0,,,,,,,,,,,,,,,,,,,,,,2359.6453859000467,None,,,,,,,,,,,,,,,,,figure,146,150,silent,new,null,2357.116663099965,None,2357.116663099965,None,1,1.700483899912797,2357.116663099965,None,1.700483899912797,2358.8458048000466,None,2359.3503783000633,None,2359.3503783000633,None,n,0.2748476000269875,2359.3503783000633,None,0.2748476000269875,,,49Silent,001,2022_Sep_12_0926,ProdSingRedoBetween,2021.2.3,60.320179535343954,
,,,,150,0,150,0,,,,,,,,,,,,,,,,,,,,,,2362.831371600041,None,,,,,,,,,,,,,,,,,people,5,151,silent,old,yellow,2360.1496914000018,None,2360.1496914000018,None,1,1.883464999962598,2360.1496914000018,None,1.883464999962598,2362.066944399965,None,2362.5846958999755,None,2362.5846958999755,None,n,0.2245545000769198,2362.5846958999755,None,0.2245545000769198,,,49Silent,001,2022_Sep_12_0926,ProdSingRedoBetween,2021.2.3,60.320179535343954,
,,,,151,0,151,0,,,,,,,,,,,,,,,,,,,,,,2365.817650199984,None,,,,,,,,,,,,,,,,,sleep,75,152,silent,old,red,2363.3356712000677,None,2363.3356712000677,None,1,1.7056377000408247,2363.3356712000677,None,1.7056377000408247,2365.074453899986,None,2365.5880270999623,None,2365.5880270999623,None,n,0.20516109990421683,2365.5880270999623,None,0.20516109990421683,,,49Silent,001,2022_Sep_12_0926,ProdSingRedoBetween,2021.2.3,60.320179535343954,
,,,,152,0,152,0,,,,,,,,,,,,,,,,,,,,,,2368.9209303000243,None,,,,,,,,,,,,,,,,,trend,30,153,silent,old,blue,2366.3298415000318,None,2366.3298415000318,None,6,1.7353622000664473,2366.3298415000318,None,1.7353622000664473,2368.0909840000095,None,2368.6058732999954,None,2368.6058732999954,None,r,0.28336680005304515,2368.6058732999954,None,0.28336680005304515,,,49Silent,001,2022_Sep_12_0926,ProdSingRedoBetween,2021.2.3,60.320179535343954,
,,,,153,0,153,0,,,,,,,,,,,,,,,,,,,,,,2372.5096881999634,None,,,,,,,,,,,,,,,,,raise,33,154,silent,old,blue,2369.428957300028,None,2369.428957300028,None,6,2.3562701999908313,2369.428957300028,None,2.3562701999908313,2371.810519700055,None,2372.3271581999725,None,2372.3271581999725,None,r,0.16200800007209182,2372.3271581999725,None,0.16200800007209182,,,49Silent,001,2022_Sep_12_0926,ProdSingRedoBetween,2021.2.3,60.320179535343954,
,,,,154,0,154,0,,,,,,,,,,,,,,,,,,,,,,2374.893422399997,None,,,,,,,,,,,,,,,,,direction,3,155,silent,old,yellow,2373.0250053000636,None,2373.0250053000636,None,6,1.2001868999795988,2373.0250053000636,None,1.2001868999795988,2374.2459626999917,None,2374.7619948000647,None,2374.7619948000647,None,r,0.11160699999891222,2374.7619948000647,None,0.11160699999891222,,,49Silent,001,2022_Sep_12_0926,ProdSingRedoBetween,2021.2.3,60.320179535343954,
,,,,155,0,155,0,,,,,,,,,,,,,,,,,,,,,,2377.2292407000205,None,,,,,,,,,,,,,,,,,ground,151,156,silent,new,null,2375.4031609999947,None,2375.4031609999947,None,1,1.2139769999776036,2375.4031609999947,None,1.2139769999776036,2376.645719900029,None,2377.14999299997,None,2377.14999299997,None,n,0.051126400008797646,2377.14999299997,None,0.051126400008797646,,,49Silent,001,2022_Sep_12_0926,ProdSingRedoBetween,2021.2.3,60.320179535343954,
,,,,156,0,156,0,,,,,,,,,,,,,,,,,,,,,,2379.8984824999934,None,,,,,,,,,,,,,,,,,foundation,125,157,silent,new,null,2377.7403885000385,None,2377.7403885000385,None,1,1.412908500060439,2377.7403885000385,None,1.412908500060439,2379.192678499967,None,2379.7030536000384,None,2379.7030536000384,None,n,0.17015989997889847,2379.7030536000384,None,0.17015989997889847,,,49Silent,001,2022_Sep_12_0926,ProdSingRedoBetween,2021.2.3,60.320179535343954,
,,,,157,0,157,0,,,,,,,,,,,,,,,,,,,,,,2382.5344118999783,None,,,,,,,,,,,,,,,,,column,85,158,silent,old,red,2380.4030106000137,None,2380.4030106000137,None,1,1.4461942000780255,2380.4030106000137,None,1.4461942000780255,2381.8685424000723,None,2382.3744544000365,None,2382.3744544000365,None,n,0.13878100004512817,2382.3744544000365,None,0.13878100004512817,,,49Silent,001,2022_Sep_12_0926,ProdSingRedoBetween,2021.2.3,60.320179535343954,
,,,,158,0,158,0,,,,,,,,,,,,,,,,,,,,,,2385.303868100047,None,,,,,,,,,,,,,,,,,appeal,95,159,silent,new,null,2383.039144300041,None,2383.039144300041,None,1,1.1619485000846907,2383.039144300041,None,1.1619485000846907,2384.221658500028,None,2384.7424126999686,None,2384.7424126999686,None,n,0.5388301000930369,2384.7424126999686,None,0.5388301000930369,,,49Silent,001,2022_Sep_12_0926,ProdSingRedoBetween,2021.2.3,60.320179535343954,
,,,,159,0,159,0,,,,,,,,,,,,,,,,,,,,,,2387.8397396999644,None,,,,,,,,,,,,,,,,,territory,25,160,silent,old,yellow,2385.815451900009,None,2385.815451900009,None,1,1.105638400069438,2385.815451900009,None,1.105638400069438,2386.9433725000126,None,2387.459430900053,None,2387.459430900053,None,n,0.3497909000143409,2387.459430900053,None,0.3497909000143409,,,49Silent,001,2022_Sep_12_0926,ProdSingRedoBetween,2021.2.3,60.320179535343954,
,,,,160,0,160,0,,,,,,,,,,,,,,,,,,,,,,2391.8103866999736,None,,,,,,,,,,,,,,,,,minute,71,161,silent,old,red,2388.3428951000096,None,2388.3428951000096,None,6,2.0103083999129012,2388.3428951000096,None,2.0103083999129012,2390.3767429,None,2390.8794322999893,None,2390.8794322999893,None,r,0.9057937999023125,2390.8794322999893,None,0.9057937999023125,,,49Silent,001,2022_Sep_12_0926,ProdSingRedoBetween,2021.2.3,60.320179535343954,
,,,,161,0,161,0,,,,,,,,,,,,,,,,,,,,,,2395.1663348999573,None,,,,,,,,,,,,,,,,,council,122,162,silent,new,null,2392.3194470000453,None,2392.3194470000453,None,1,1.9057924998924136,2392.3194470000453,None,1.9057924998924136,2394.252533299965,None,2394.766807100037,None,2394.766807100037,None,n,0.3704244999680668,2394.766807100037,None,0.3704244999680668,,,49Silent,001,2022_Sep_12_0926,ProdSingRedoBetween,2021.2.3,60.320179535343954,
,,,,162,0,162,0,,,,,,,,,,,,,,,,,,,,,,2400.3353818999603,None,,,,,,,,,,,,,,,,,suggestion,45,163,silent,old,blue,2395.684528499958,None,2395.684528499958,None,6,3.7490945999743417,2395.684528499958,None,3.7490945999743417,2399.4655700000003,None,2399.9756097999634,None,2399.9756097999634,None,r,0.33764270006213337,2399.9756097999634,None,0.33764270006213337,,,49Silent,001,2022_Sep_12_0926,ProdSingRedoBetween,2021.2.3,60.320179535343954,
,,,,163,0,163,0,,,,,,,,,,,,,,,,,,,,,,2403.0049926000647,None,,,,,,,,,,,,,,,,,goose,106,164,silent,new,null,2400.8443239000626,None,2400.8443239000626,None,1,1.3730540999677032,2400.8443239000626,None,1.3730540999677032,2402.240376300062,None,2402.7627708000364,None,2402.7627708000364,None,n,0.22240010008681566,2402.7627708000364,None,0.22240010008681566,,,49Silent,001,2022_Sep_12_0926,ProdSingRedoBetween,2021.2.3,60.320179535343954,
,,,,164,0,164,0,,,,,,,,,,,,,,,,,,,,,,2405.60837859998,None,,,,,,,,,,,,,,,,,place,64,165,silent,old,red,2403.506147600012,None,2403.506147600012,None,1,1.2390709000173956,2403.506147600012,None,1.2390709000173956,2404.793870600057,None,2405.308057300048,None,2405.308057300048,None,n,0.26926049997564405,2405.308057300048,None,0.26926049997564405,,,49Silent,001,2022_Sep_12_0926,ProdSingRedoBetween,2021.2.3,60.320179535343954,
,,,,165,0,165,0,,,,,,,,,,,,,,,,,,,,,,2408.159858900006,None,,,,,,,,,,,,,,,,,household,176,166,silent,new,null,2406.110041500069,None,2406.110041500069,None,1,1.1871764999814332,2406.110041500069,None,1.1871764999814332,2407.3269369000336,None,2407.8311359999934,None,2407.8311359999934,None,n,0.31405899999663234,2407.8311359999934,None,0.31405899999663234,,,49Silent,001,2022_Sep_12_0926,ProdSingRedoBetween,2021.2.3,60.320179535343954,
,,,,166,0,166,0,,,,,,,,,,,,,,,,,,,,,,2410.7122835000046,None,,,,,,,,,,,,,,,,,distance,47,167,silent,old,blue,2408.667579700006,None,2408.667579700006,None,6,1.3017386000137776,2408.667579700006,None,1.3017386000137776,2410.0039115999825,None,2410.5157679000404,None,2410.5157679000404,None,r,0.16547699994407594,2410.5157679000404,None,0.16547699994407594,,,49Silent,001,2022_Sep_12_0926,ProdSingRedoBetween,2021.2.3,60.320179535343954,
,,,,167,0,167,0,,,,,,,,,,,,,,,,,,,,,,2413.0814021000406,None,,,,,,,,,,,,,,,,,front,140,168,silent,new,null,2411.2209779999685,None,2411.2209779999685,None,1,1.0205267000710592,2411.2209779999685,None,1.0205267000710592,2412.2763172000414,None,2412.7853920999914,None,2412.7853920999914,None,n,0.2718165999976918,2412.7853920999914,None,0.2718165999976918,,,49Silent,001,2022_Sep_12_0926,ProdSingRedoBetween,2021.2.3,60.320179535343954,
,,,,168,0,168,0,,,,,,,,,,,,,,,,,,,,,,2415.985927400063,None,,,,,,,,,,,,,,,,,plane,114,169,silent,new,null,2413.5888722999953,None,2413.5888722999953,None,1,1.2842928000027314,2413.5888722999953,None,1.2842928000027314,2414.9006998999976,None,2415.406097500003,None,2415.406097500003,None,n,0.5471411000471562,2415.406097500003,None,0.5471411000471562,,,49Silent,001,2022_Sep_12_0926,ProdSingRedoBetween,2021.2.3,60.320179535343954,
,,,,169,0,169,0,,,,,,,,,,,,,,,,,,,,,,2418.887404100038,None,,,,,,,,,,,,,,,,,trial,142,170,silent,new,null,2416.4951362999855,None,2416.4951362999855,None,1,1.3860667999833822,2416.4951362999855,None,1.3860667999833822,2417.9047634999733,None,2418.403630099958,None,2418.403630099958,None,n,0.46169070003088564,2418.403630099958,None,0.46169070003088564,,,49Silent,001,2022_Sep_12_0926,ProdSingRedoBetween,2021.2.3,60.320179535343954,
,,,,170,0,170,0,,,,,,,,,,,,,,,,,,,,,,2423.0582868000492,None,,,,,,,,,,,,,,,,,benefit,50,171,silent,old,blue,2419.3911040000385,None,2419.3911040000385,None,1,2.858103300095536,2419.3911040000385,None,2.858103300095536,2422.297718000016,None,2422.8116247999715,None,2422.8116247999715,None,n,0.22955719998572022,2422.8116247999715,None,0.22955719998572022,,,49Silent,001,2022_Sep_12_0926,ProdSingRedoBetween,2021.2.3,60.320179535343954,
,,,,171,0,171,0,,,,,,,,,,,,,,,,,,,,,,2426.747062599985,None,,,,,,,,,,,,,,,,,tough,32,172,silent,old,blue,2423.560035399976,None,2423.560035399976,None,1,1.5932259999681264,2423.560035399976,None,1.5932259999681264,2425.1789911000524,None,2425.6944179000566,None,2425.6944179000566,None,n,1.0268401000648737,2425.6944179000566,None,1.0268401000648737,,,49Silent,001,2022_Sep_12_0926,ProdSingRedoBetween,2021.2.3,60.320179535343954,
,,,,172,0,172,0,,,,,,,,,,,,,,,,,,,,,,2430.250628800015,None,,,,,,,,,,,,,,,,,dance,56,173,silent,old,blue,2427.2626195000485,None,2427.2626195000485,None,6,2.2425415000179783,2427.2626195000485,None,2.2425415000179783,2429.5325654000044,None,2430.0320677000564,None,2430.0320677000564,None,r,0.19319899997208267,2430.0320677000564,None,0.19319899997208267,,,49Silent,001,2022_Sep_12_0926,ProdSingRedoBetween,2021.2.3,60.320179535343954,
,,,,173,0,173,0,,,,,,,,,,,,,,,,,,,,,,2433.1850772000616,None,,,,,,,,,,,,,,,,,resistance,26,174,silent,old,yellow,2430.7769099000143,None,2430.7769099000143,None,1,1.5843789000064135,2430.7769099000143,None,1.5843789000064135,2432.38787039998,None,2432.9042967000278,None,2432.9042967000278,None,n,0.25706560001708567,2432.9042967000278,None,0.25706560001708567,,,49Silent,001,2022_Sep_12_0926,ProdSingRedoBetween,2021.2.3,60.320179535343954,
