StudyLoop.thisRepN,StudyLoop.thisTrialN,StudyLoop.thisN,StudyLoop.thisIndex,TestLoop.thisRepN,TestLoop.thisTrialN,TestLoop.thisN,TestLoop.thisIndex,textCondition.started,textCondition.stopped,keyCondition.keys,keyCondition.rt,keyCondition.started,keyCondition.stopped,Condition,textWelcome.started,textWelcome.stopped,keyWelcome.keys,keyWelcome.rt,keyWelcome.started,keyWelcome.stopped,textAloud.started,textAloud.stopped,textSilent.started,textSilent.stopped,textSing.started,textSing.stopped,conditional_text.started,conditional_text.stopped,textBlank500.started,textBlank500.stopped,study_word,study_num,study_order,study_type,word_color,textStudy.started,textStudy.stopped,keyStudy.keys,keyStudy.started,keyStudy.stopped,textTestInstructions.started,textTestInstructions.stopped,key_resp_3.keys,key_resp_3.rt,key_resp_3.started,key_resp_3.stopped,test_word,test_num,test_order,test_condition,old_new_test,test_word_original_color,textConf.started,textConf.stopped,textConfScale.started,textConfScale.stopped,keyConf.keys,keyConf.rt,keyConf.started,keyConf.stopped,confidence response time,textTestBlank.started,textTestBlank.stopped,textRKN.started,textRKN.stopped,textRKNScale.started,textRKNScale.stopped,keyRKN.keys,keyRKN.rt,keyRKN.started,keyRKN.stopped,rkn response time,textEnd.started,textEnd.stopped,participant,session,date,expName,psychopyVersion,frameRate,
,,,,,,,,30.5221796000842,None,b,1.1782265999354422,30.5221796000842,None,,,,,,,,,,,,,,,,,,,,,,,,,,,,,,,,,,,,,,,,,,,,,,,,,,,,,,,,,,,,,,50Aloud,001,2022_Sep_12_1207,ProdSingRedoBetween,2021.2.3,59.86159995843357,
,,,,,,,,,,,,,,AloudTest,31.74537630006671,None,space,546.5437161999289,31.74537630006671,None,,,,,,,,,,,,,,,,,,,,,,,,,,,,,,,,,,,,,,,,,,,,,,,,,,,,,,,50Aloud,001,2022_Sep_12_1207,ProdSingRedoBetween,2021.2.3,59.86159995843357,
0,0,0,0,,,,,,,,,,,,,,,,,,31.74537630006671,None,31.74537630006671,None,31.74537630006671,None,31.74537630006671,None,580.8321991000557,None,symbol,40,1,aloud,blue,578.8209115000209,None,None,578.8209115000209,None,,,,,,,,,,,,,,,,,,,,,,,,,,,,,,,,,,,50Aloud,001,2022_Sep_12_1207,ProdSingRedoBetween,2021.2.3,59.86159995843357,
1,0,1,0,,,,,,,,,,,,,,,,,,,,,,,,,,583.3513460000977,None,cross,77,2,aloud,red,581.3358490000246,None,None,581.3358490000246,None,,,,,,,,,,,,,,,,,,,,,,,,,,,,,,,,,,,50Aloud,001,2022_Sep_12_1207,ProdSingRedoBetween,2021.2.3,59.86159995843357,
2,0,2,0,,,,,,,,,,,,,,,,,,,,,,,,,,585.8704711000901,None,people,19,3,aloud,yellow,583.8555683000013,None,None,583.8555683000013,None,,,,,,,,,,,,,,,,,,,,,,,,,,,,,,,,,,,50Aloud,001,2022_Sep_12_1207,ProdSingRedoBetween,2021.2.3,59.86159995843357,
3,0,3,0,,,,,,,,,,,,,,,,,,,,,,,,,,588.3729505001102,None,state,87,4,aloud,red,586.3723505000817,None,None,586.3723505000817,None,,,,,,,,,,,,,,,,,,,,,,,,,,,,,,,,,,,50Aloud,001,2022_Sep_12_1207,ProdSingRedoBetween,2021.2.3,59.86159995843357,
4,0,4,0,,,,,,,,,,,,,,,,,,,,,,,,,,590.8922541000647,None,research,85,5,aloud,red,588.8808806000743,None,None,588.8808806000743,None,,,,,,,,,,,,,,,,,,,,,,,,,,,,,,,,,,,50Aloud,001,2022_Sep_12_1207,ProdSingRedoBetween,2021.2.3,59.86159995843357,
5,0,5,0,,,,,,,,,,,,,,,,,,,,,,,,,,593.4113348000683,None,emergency,66,6,aloud,red,591.4029340000125,None,None,591.4029340000125,None,,,,,,,,,,,,,,,,,,,,,,,,,,,,,,,,,,,50Aloud,001,2022_Sep_12_1207,ProdSingRedoBetween,2021.2.3,59.86159995843357,
6,0,6,0,,,,,,,,,,,,,,,,,,,,,,,,,,595.9136757000815,None,group,44,7,aloud,blue,593.9117743000388,None,None,593.9117743000388,None,,,,,,,,,,,,,,,,,,,,,,,,,,,,,,,,,,,50Aloud,001,2022_Sep_12_1207,ProdSingRedoBetween,2021.2.3,59.86159995843357,
7,0,7,0,,,,,,,,,,,,,,,,,,,,,,,,,,598.4165114000207,None,order,11,8,aloud,yellow,596.4170106000965,None,None,596.4170106000965,None,,,,,,,,,,,,,,,,,,,,,,,,,,,,,,,,,,,50Aloud,001,2022_Sep_12_1207,ProdSingRedoBetween,2021.2.3,59.86159995843357,
8,0,8,0,,,,,,,,,,,,,,,,,,,,,,,,,,600.9352322000777,None,institute,79,9,aloud,red,598.9206697000191,None,None,598.9206697000191,None,,,,,,,,,,,,,,,,,,,,,,,,,,,,,,,,,,,50Aloud,001,2022_Sep_12_1207,ProdSingRedoBetween,2021.2.3,59.86159995843357,
9,0,9,0,,,,,,,,,,,,,,,,,,,,,,,,,,603.454668499995,None,member,42,10,aloud,blue,601.4395919000963,None,None,601.4395919000963,None,,,,,,,,,,,,,,,,,,,,,,,,,,,,,,,,,,,50Aloud,001,2022_Sep_12_1207,ProdSingRedoBetween,2021.2.3,59.86159995843357,
10,0,10,0,,,,,,,,,,,,,,,,,,,,,,,,,,605.957278600079,None,session,5,11,aloud,yellow,603.9552361000096,None,None,603.9552361000096,None,,,,,,,,,,,,,,,,,,,,,,,,,,,,,,,,,,,50Aloud,001,2022_Sep_12_1207,ProdSingRedoBetween,2021.2.3,59.86159995843357,
11,0,11,0,,,,,,,,,,,,,,,,,,,,,,,,,,608.4596057001036,None,sleep,17,12,aloud,yellow,606.4593810000224,None,None,606.4593810000224,None,,,,,,,,,,,,,,,,,,,,,,,,,,,,,,,,,,,50Aloud,001,2022_Sep_12_1207,ProdSingRedoBetween,2021.2.3,59.86159995843357,
12,0,12,0,,,,,,,,,,,,,,,,,,,,,,,,,,610.979015900055,None,school,47,13,aloud,blue,608.969735700055,None,None,608.969735700055,None,,,,,,,,,,,,,,,,,,,,,,,,,,,,,,,,,,,50Aloud,001,2022_Sep_12_1207,ProdSingRedoBetween,2021.2.3,59.86159995843357,
13,0,13,0,,,,,,,,,,,,,,,,,,,,,,,,,,613.4979797000997,None,drove,4,14,aloud,yellow,611.4824242000468,None,None,611.4824242000468,None,,,,,,,,,,,,,,,,,,,,,,,,,,,,,,,,,,,50Aloud,001,2022_Sep_12_1207,ProdSingRedoBetween,2021.2.3,59.86159995843357,
14,0,14,0,,,,,,,,,,,,,,,,,,,,,,,,,,616.0005416000495,None,title,25,15,aloud,yellow,613.9985238000518,None,None,613.9985238000518,None,,,,,,,,,,,,,,,,,,,,,,,,,,,,,,,,,,,50Aloud,001,2022_Sep_12_1207,ProdSingRedoBetween,2021.2.3,59.86159995843357,
15,0,15,0,,,,,,,,,,,,,,,,,,,,,,,,,,618.5029845000245,None,debate,82,16,aloud,red,616.5009282000829,None,None,616.5009282000829,None,,,,,,,,,,,,,,,,,,,,,,,,,,,,,,,,,,,50Aloud,001,2022_Sep_12_1207,ProdSingRedoBetween,2021.2.3,59.86159995843357,
16,0,16,0,,,,,,,,,,,,,,,,,,,,,,,,,,621.0054277000017,None,literature,68,17,aloud,red,619.0035751000978,None,None,619.0035751000978,None,,,,,,,,,,,,,,,,,,,,,,,,,,,,,,,,,,,50Aloud,001,2022_Sep_12_1207,ProdSingRedoBetween,2021.2.3,59.86159995843357,
17,0,17,0,,,,,,,,,,,,,,,,,,,,,,,,,,623.5081655000104,None,second,0,18,aloud,yellow,621.507290000096,None,None,621.507290000096,None,,,,,,,,,,,,,,,,,,,,,,,,,,,,,,,,,,,50Aloud,001,2022_Sep_12_1207,ProdSingRedoBetween,2021.2.3,59.86159995843357,
18,0,18,0,,,,,,,,,,,,,,,,,,,,,,,,,,626.010738800047,None,court,39,19,aloud,blue,624.0094503000146,None,None,624.0094503000146,None,,,,,,,,,,,,,,,,,,,,,,,,,,,,,,,,,,,50Aloud,001,2022_Sep_12_1207,ProdSingRedoBetween,2021.2.3,59.86159995843357,
19,0,19,0,,,,,,,,,,,,,,,,,,,,,,,,,,628.5297761000693,None,rural,18,20,aloud,yellow,626.514642800088,None,None,626.514642800088,None,,,,,,,,,,,,,,,,,,,,,,,,,,,,,,,,,,,50Aloud,001,2022_Sep_12_1207,ProdSingRedoBetween,2021.2.3,59.86159995843357,
20,0,20,0,,,,,,,,,,,,,,,,,,,,,,,,,,631.0322379000718,None,engineer,54,21,aloud,blue,629.0302707001101,None,None,629.0302707001101,None,,,,,,,,,,,,,,,,,,,,,,,,,,,,,,,,,,,50Aloud,001,2022_Sep_12_1207,ProdSingRedoBetween,2021.2.3,59.86159995843357,
21,0,21,0,,,,,,,,,,,,,,,,,,,,,,,,,,633.5347954001045,None,carry,69,22,aloud,red,631.5337652000599,None,None,631.5337652000599,None,,,,,,,,,,,,,,,,,,,,,,,,,,,,,,,,,,,50Aloud,001,2022_Sep_12_1207,ProdSingRedoBetween,2021.2.3,59.86159995843357,
22,0,22,0,,,,,,,,,,,,,,,,,,,,,,,,,,636.0536580000771,None,beauty,12,23,aloud,yellow,634.0419760000659,None,None,634.0419760000659,None,,,,,,,,,,,,,,,,,,,,,,,,,,,,,,,,,,,50Aloud,001,2022_Sep_12_1207,ProdSingRedoBetween,2021.2.3,59.86159995843357,
23,0,23,0,,,,,,,,,,,,,,,,,,,,,,,,,,638.5731356000761,None,object,38,24,aloud,blue,636.5632034000009,None,None,636.5632034000009,None,,,,,,,,,,,,,,,,,,,,,,,,,,,,,,,,,,,50Aloud,001,2022_Sep_12_1207,ProdSingRedoBetween,2021.2.3,59.86159995843357,
24,0,24,0,,,,,,,,,,,,,,,,,,,,,,,,,,641.0923078000778,None,center,46,25,aloud,blue,639.0768566000042,None,None,639.0768566000042,None,,,,,,,,,,,,,,,,,,,,,,,,,,,,,,,,,,,50Aloud,001,2022_Sep_12_1207,ProdSingRedoBetween,2021.2.3,59.86159995843357,
25,0,25,0,,,,,,,,,,,,,,,,,,,,,,,,,,643.5948398000328,None,oxygen,56,26,aloud,blue,641.5943352000322,None,None,641.5943352000322,None,,,,,,,,,,,,,,,,,,,,,,,,,,,,,,,,,,,50Aloud,001,2022_Sep_12_1207,ProdSingRedoBetween,2021.2.3,59.86159995843357,
26,0,26,0,,,,,,,,,,,,,,,,,,,,,,,,,,646.1141751999967,None,travel,2,27,aloud,yellow,644.1015485000098,None,None,644.1015485000098,None,,,,,,,,,,,,,,,,,,,,,,,,,,,,,,,,,,,50Aloud,001,2022_Sep_12_1207,ProdSingRedoBetween,2021.2.3,59.86159995843357,
27,0,27,0,,,,,,,,,,,,,,,,,,,,,,,,,,648.6166892000474,None,capital,72,28,aloud,red,646.6167311000172,None,None,646.6167311000172,None,,,,,,,,,,,,,,,,,,,,,,,,,,,,,,,,,,,50Aloud,001,2022_Sep_12_1207,ProdSingRedoBetween,2021.2.3,59.86159995843357,
28,0,28,0,,,,,,,,,,,,,,,,,,,,,,,,,,651.1191532000666,None,career,81,29,aloud,red,649.1170020001009,None,None,649.1170020001009,None,,,,,,,,,,,,,,,,,,,,,,,,,,,,,,,,,,,50Aloud,001,2022_Sep_12_1207,ProdSingRedoBetween,2021.2.3,59.86159995843357,
29,0,29,0,,,,,,,,,,,,,,,,,,,,,,,,,,653.6211545000551,None,mechanical,84,30,aloud,red,651.6206938000396,None,None,651.6206938000396,None,,,,,,,,,,,,,,,,,,,,,,,,,,,,,,,,,,,50Aloud,001,2022_Sep_12_1207,ProdSingRedoBetween,2021.2.3,59.86159995843357,
30,0,30,0,,,,,,,,,,,,,,,,,,,,,,,,,,656.124029800063,None,piece,80,31,aloud,red,654.1217637000373,None,None,654.1217637000373,None,,,,,,,,,,,,,,,,,,,,,,,,,,,,,,,,,,,50Aloud,001,2022_Sep_12_1207,ProdSingRedoBetween,2021.2.3,59.86159995843357,
31,0,31,0,,,,,,,,,,,,,,,,,,,,,,,,,,658.6265333000338,None,master,64,32,aloud,red,656.6266235000221,None,None,656.6266235000221,None,,,,,,,,,,,,,,,,,,,,,,,,,,,,,,,,,,,50Aloud,001,2022_Sep_12_1207,ProdSingRedoBetween,2021.2.3,59.86159995843357,
32,0,32,0,,,,,,,,,,,,,,,,,,,,,,,,,,661.1292305000825,None,worker,37,33,aloud,blue,659.1295348000713,None,None,659.1295348000713,None,,,,,,,,,,,,,,,,,,,,,,,,,,,,,,,,,,,50Aloud,001,2022_Sep_12_1207,ProdSingRedoBetween,2021.2.3,59.86159995843357,
33,0,33,0,,,,,,,,,,,,,,,,,,,,,,,,,,663.6315835000714,None,treatment,49,34,aloud,blue,661.6293451000238,None,None,661.6293451000238,None,,,,,,,,,,,,,,,,,,,,,,,,,,,,,,,,,,,50Aloud,001,2022_Sep_12_1207,ProdSingRedoBetween,2021.2.3,59.86159995843357,
34,0,34,0,,,,,,,,,,,,,,,,,,,,,,,,,,666.150684399996,None,close,60,35,aloud,red,664.1359754001023,None,None,664.1359754001023,None,,,,,,,,,,,,,,,,,,,,,,,,,,,,,,,,,,,50Aloud,001,2022_Sep_12_1207,ProdSingRedoBetween,2021.2.3,59.86159995843357,
35,0,35,0,,,,,,,,,,,,,,,,,,,,,,,,,,668.6701377000427,None,corner,31,36,aloud,blue,666.6547745000571,None,None,666.6547745000571,None,,,,,,,,,,,,,,,,,,,,,,,,,,,,,,,,,,,50Aloud,001,2022_Sep_12_1207,ProdSingRedoBetween,2021.2.3,59.86159995843357,
36,0,36,0,,,,,,,,,,,,,,,,,,,,,,,,,,671.1722540000919,None,contract,27,37,aloud,yellow,669.1704084000085,None,None,669.1704084000085,None,,,,,,,,,,,,,,,,,,,,,,,,,,,,,,,,,,,50Aloud,001,2022_Sep_12_1207,ProdSingRedoBetween,2021.2.3,59.86159995843357,
37,0,37,0,,,,,,,,,,,,,,,,,,,,,,,,,,673.6914131001104,None,dispute,43,38,aloud,blue,671.676220000023,None,None,671.676220000023,None,,,,,,,,,,,,,,,,,,,,,,,,,,,,,,,,,,,50Aloud,001,2022_Sep_12_1207,ProdSingRedoBetween,2021.2.3,59.86159995843357,
38,0,38,0,,,,,,,,,,,,,,,,,,,,,,,,,,676.1937707000179,None,appeal,58,39,aloud,blue,674.1918545000954,None,None,674.1918545000954,None,,,,,,,,,,,,,,,,,,,,,,,,,,,,,,,,,,,50Aloud,001,2022_Sep_12_1207,ProdSingRedoBetween,2021.2.3,59.86159995843357,
39,0,39,0,,,,,,,,,,,,,,,,,,,,,,,,,,678.6965686000185,None,plane,28,40,aloud,yellow,676.6955427000066,None,None,676.6955427000066,None,,,,,,,,,,,,,,,,,,,,,,,,,,,,,,,,,,,50Aloud,001,2022_Sep_12_1207,ProdSingRedoBetween,2021.2.3,59.86159995843357,
40,0,40,0,,,,,,,,,,,,,,,,,,,,,,,,,,681.2157955000876,None,signal,51,41,aloud,blue,679.2020475000609,None,None,679.2020475000609,None,,,,,,,,,,,,,,,,,,,,,,,,,,,,,,,,,,,50Aloud,001,2022_Sep_12_1207,ProdSingRedoBetween,2021.2.3,59.86159995843357,
41,0,41,0,,,,,,,,,,,,,,,,,,,,,,,,,,683.7182750001084,None,direction,33,42,aloud,blue,681.7161948001012,None,None,681.7161948001012,None,,,,,,,,,,,,,,,,,,,,,,,,,,,,,,,,,,,50Aloud,001,2022_Sep_12_1207,ProdSingRedoBetween,2021.2.3,59.86159995843357,
42,0,42,0,,,,,,,,,,,,,,,,,,,,,,,,,,686.2207492000889,None,answer,26,43,aloud,yellow,684.2200316000963,None,None,684.2200316000963,None,,,,,,,,,,,,,,,,,,,,,,,,,,,,,,,,,,,50Aloud,001,2022_Sep_12_1207,ProdSingRedoBetween,2021.2.3,59.86159995843357,
43,0,43,0,,,,,,,,,,,,,,,,,,,,,,,,,,688.7232737001032,None,guest,83,44,aloud,red,686.7232325000223,None,None,686.7232325000223,None,,,,,,,,,,,,,,,,,,,,,,,,,,,,,,,,,,,50Aloud,001,2022_Sep_12_1207,ProdSingRedoBetween,2021.2.3,59.86159995843357,
44,0,44,0,,,,,,,,,,,,,,,,,,,,,,,,,,691.2254697000608,None,staff,1,45,aloud,yellow,689.2242775000632,None,None,689.2242775000632,None,,,,,,,,,,,,,,,,,,,,,,,,,,,,,,,,,,,50Aloud,001,2022_Sep_12_1207,ProdSingRedoBetween,2021.2.3,59.86159995843357,
45,0,45,0,,,,,,,,,,,,,,,,,,,,,,,,,,693.7281882000389,None,harmony,13,46,aloud,yellow,691.7276565000648,None,None,691.7276565000648,None,,,,,,,,,,,,,,,,,,,,,,,,,,,,,,,,,,,50Aloud,001,2022_Sep_12_1207,ProdSingRedoBetween,2021.2.3,59.86159995843357,
46,0,46,0,,,,,,,,,,,,,,,,,,,,,,,,,,696.230723900022,None,angle,16,47,aloud,yellow,694.2285811000038,None,None,694.2285811000038,None,,,,,,,,,,,,,,,,,,,,,,,,,,,,,,,,,,,50Aloud,001,2022_Sep_12_1207,ProdSingRedoBetween,2021.2.3,59.86159995843357,
47,0,47,0,,,,,,,,,,,,,,,,,,,,,,,,,,698.7331059999997,None,finish,45,48,aloud,blue,696.7316389000043,None,None,696.7316389000043,None,,,,,,,,,,,,,,,,,,,,,,,,,,,,,,,,,,,50Aloud,001,2022_Sep_12_1207,ProdSingRedoBetween,2021.2.3,59.86159995843357,
48,0,48,0,,,,,,,,,,,,,,,,,,,,,,,,,,701.2524690000573,None,division,70,49,aloud,red,699.240692100022,None,None,699.240692100022,None,,,,,,,,,,,,,,,,,,,,,,,,,,,,,,,,,,,50Aloud,001,2022_Sep_12_1207,ProdSingRedoBetween,2021.2.3,59.86159995843357,
49,0,49,0,,,,,,,,,,,,,,,,,,,,,,,,,,703.7716064000269,None,build,20,50,aloud,yellow,701.7594715000596,None,None,701.7594715000596,None,,,,,,,,,,,,,,,,,,,,,,,,,,,,,,,,,,,50Aloud,001,2022_Sep_12_1207,ProdSingRedoBetween,2021.2.3,59.86159995843357,
50,0,50,0,,,,,,,,,,,,,,,,,,,,,,,,,,706.2741585000185,None,speech,34,51,aloud,blue,704.2722968000453,None,None,704.2722968000453,None,,,,,,,,,,,,,,,,,,,,,,,,,,,,,,,,,,,50Aloud,001,2022_Sep_12_1207,ProdSingRedoBetween,2021.2.3,59.86159995843357,
51,0,51,0,,,,,,,,,,,,,,,,,,,,,,,,,,708.7766137000872,None,trend,59,52,aloud,yellow,706.775915700011,None,None,706.775915700011,None,,,,,,,,,,,,,,,,,,,,,,,,,,,,,,,,,,,50Aloud,001,2022_Sep_12_1207,ProdSingRedoBetween,2021.2.3,59.86159995843357,
52,0,52,0,,,,,,,,,,,,,,,,,,,,,,,,,,711.2791320000542,None,number,74,53,aloud,red,709.279280000017,None,None,709.279280000017,None,,,,,,,,,,,,,,,,,,,,,,,,,,,,,,,,,,,50Aloud,001,2022_Sep_12_1207,ProdSingRedoBetween,2021.2.3,59.86159995843357,
53,0,53,0,,,,,,,,,,,,,,,,,,,,,,,,,,713.7816776999971,None,pressure,23,54,aloud,yellow,711.7819734000368,None,None,711.7819734000368,None,,,,,,,,,,,,,,,,,,,,,,,,,,,,,,,,,,,50Aloud,001,2022_Sep_12_1207,ProdSingRedoBetween,2021.2.3,59.86159995843357,
54,0,54,0,,,,,,,,,,,,,,,,,,,,,,,,,,716.3004983999999,None,birth,9,55,aloud,yellow,714.2862629001029,None,None,714.2862629001029,None,,,,,,,,,,,,,,,,,,,,,,,,,,,,,,,,,,,50Aloud,001,2022_Sep_12_1207,ProdSingRedoBetween,2021.2.3,59.86159995843357,
55,0,55,0,,,,,,,,,,,,,,,,,,,,,,,,,,718.8033865001053,None,expansion,62,56,aloud,red,716.8042641000357,None,None,716.8042641000357,None,,,,,,,,,,,,,,,,,,,,,,,,,,,,,,,,,,,50Aloud,001,2022_Sep_12_1207,ProdSingRedoBetween,2021.2.3,59.86159995843357,
56,0,56,0,,,,,,,,,,,,,,,,,,,,,,,,,,721.3225313000148,None,bright,89,57,aloud,red,719.3083648000611,None,None,719.3083648000611,None,,,,,,,,,,,,,,,,,,,,,,,,,,,,,,,,,,,50Aloud,001,2022_Sep_12_1207,ProdSingRedoBetween,2021.2.3,59.86159995843357,
57,0,57,0,,,,,,,,,,,,,,,,,,,,,,,,,,723.824946400011,None,appearance,50,58,aloud,blue,721.8230119000655,None,None,721.8230119000655,None,,,,,,,,,,,,,,,,,,,,,,,,,,,,,,,,,,,50Aloud,001,2022_Sep_12_1207,ProdSingRedoBetween,2021.2.3,59.86159995843357,
58,0,58,0,,,,,,,,,,,,,,,,,,,,,,,,,,726.327525800094,None,congress,53,59,aloud,blue,724.327634400106,None,None,724.327634400106,None,,,,,,,,,,,,,,,,,,,,,,,,,,,,,,,,,,,50Aloud,001,2022_Sep_12_1207,ProdSingRedoBetween,2021.2.3,59.86159995843357,
59,0,59,0,,,,,,,,,,,,,,,,,,,,,,,,,,728.8300227000145,None,shock,76,60,aloud,red,726.8310512000462,None,None,726.8310512000462,None,,,,,,,,,,,,,,,,,,,,,,,,,,,,,,,,,,,50Aloud,001,2022_Sep_12_1207,ProdSingRedoBetween,2021.2.3,59.86159995843357,
60,0,60,0,,,,,,,,,,,,,,,,,,,,,,,,,,731.332245000056,None,grade,21,61,aloud,yellow,729.3312567000976,None,None,729.3312567000976,None,,,,,,,,,,,,,,,,,,,,,,,,,,,,,,,,,,,50Aloud,001,2022_Sep_12_1207,ProdSingRedoBetween,2021.2.3,59.86159995843357,
61,0,61,0,,,,,,,,,,,,,,,,,,,,,,,,,,733.8349902000045,None,escape,57,62,aloud,blue,731.8353023000527,None,None,731.8353023000527,None,,,,,,,,,,,,,,,,,,,,,,,,,,,,,,,,,,,50Aloud,001,2022_Sep_12_1207,ProdSingRedoBetween,2021.2.3,59.86159995843357,
62,0,62,0,,,,,,,,,,,,,,,,,,,,,,,,,,736.3541337000206,None,count,67,63,aloud,red,734.3389157000929,None,None,734.3389157000929,None,,,,,,,,,,,,,,,,,,,,,,,,,,,,,,,,,,,50Aloud,001,2022_Sep_12_1207,ProdSingRedoBetween,2021.2.3,59.86159995843357,
63,0,63,0,,,,,,,,,,,,,,,,,,,,,,,,,,738.8567975000478,None,murder,75,64,aloud,red,736.8560574000003,None,None,736.8560574000003,None,,,,,,,,,,,,,,,,,,,,,,,,,,,,,,,,,,,50Aloud,001,2022_Sep_12_1207,ProdSingRedoBetween,2021.2.3,59.86159995843357,
64,0,64,0,,,,,,,,,,,,,,,,,,,,,,,,,,741.3758673000848,None,audience,30,65,aloud,blue,739.3609135000734,None,None,739.3609135000734,None,,,,,,,,,,,,,,,,,,,,,,,,,,,,,,,,,,,50Aloud,001,2022_Sep_12_1207,ProdSingRedoBetween,2021.2.3,59.86159995843357,
65,0,65,0,,,,,,,,,,,,,,,,,,,,,,,,,,743.8783823000267,None,sunset,78,66,aloud,red,741.879084300017,None,None,741.879084300017,None,,,,,,,,,,,,,,,,,,,,,,,,,,,,,,,,,,,50Aloud,001,2022_Sep_12_1207,ProdSingRedoBetween,2021.2.3,59.86159995843357,
66,0,66,0,,,,,,,,,,,,,,,,,,,,,,,,,,746.3975103000412,None,short,73,67,aloud,red,744.3830857001012,None,None,744.3830857001012,None,,,,,,,,,,,,,,,,,,,,,,,,,,,,,,,,,,,50Aloud,001,2022_Sep_12_1207,ProdSingRedoBetween,2021.2.3,59.86159995843357,
67,0,67,0,,,,,,,,,,,,,,,,,,,,,,,,,,748.9167664000997,None,evidence,8,68,aloud,yellow,746.9023492000997,None,None,746.9023492000997,None,,,,,,,,,,,,,,,,,,,,,,,,,,,,,,,,,,,50Aloud,001,2022_Sep_12_1207,ProdSingRedoBetween,2021.2.3,59.86159995843357,
68,0,68,0,,,,,,,,,,,,,,,,,,,,,,,,,,751.4192894001026,None,tragedy,24,69,aloud,yellow,749.4186286000768,None,None,749.4186286000768,None,,,,,,,,,,,,,,,,,,,,,,,,,,,,,,,,,,,50Aloud,001,2022_Sep_12_1207,ProdSingRedoBetween,2021.2.3,59.86159995843357,
69,0,69,0,,,,,,,,,,,,,,,,,,,,,,,,,,753.9384967000224,None,heavy,48,70,aloud,blue,751.9238433000864,None,None,751.9238433000864,None,,,,,,,,,,,,,,,,,,,,,,,,,,,,,,,,,,,50Aloud,001,2022_Sep_12_1207,ProdSingRedoBetween,2021.2.3,59.86159995843357,
70,0,70,0,,,,,,,,,,,,,,,,,,,,,,,,,,756.4409216000931,None,interview,15,71,aloud,yellow,754.4390418000985,None,None,754.4390418000985,None,,,,,,,,,,,,,,,,,,,,,,,,,,,,,,,,,,,50Aloud,001,2022_Sep_12_1207,ProdSingRedoBetween,2021.2.3,59.86159995843357,
71,0,71,0,,,,,,,,,,,,,,,,,,,,,,,,,,758.9433980000904,None,income,55,72,aloud,blue,756.9414800000377,None,None,756.9414800000377,None,,,,,,,,,,,,,,,,,,,,,,,,,,,,,,,,,,,50Aloud,001,2022_Sep_12_1207,ProdSingRedoBetween,2021.2.3,59.86159995843357,
72,0,72,0,,,,,,,,,,,,,,,,,,,,,,,,,,761.4459932000609,None,century,35,73,aloud,blue,759.443898800062,None,None,759.443898800062,None,,,,,,,,,,,,,,,,,,,,,,,,,,,,,,,,,,,50Aloud,001,2022_Sep_12_1207,ProdSingRedoBetween,2021.2.3,59.86159995843357,
73,0,73,0,,,,,,,,,,,,,,,,,,,,,,,,,,763.9652247000486,None,clean,6,74,aloud,yellow,761.9509740000358,None,None,761.9509740000358,None,,,,,,,,,,,,,,,,,,,,,,,,,,,,,,,,,,,50Aloud,001,2022_Sep_12_1207,ProdSingRedoBetween,2021.2.3,59.86159995843357,
74,0,74,0,,,,,,,,,,,,,,,,,,,,,,,,,,766.4676106000552,None,estate,71,75,aloud,red,764.4657079000026,None,None,764.4657079000026,None,,,,,,,,,,,,,,,,,,,,,,,,,,,,,,,,,,,50Aloud,001,2022_Sep_12_1207,ProdSingRedoBetween,2021.2.3,59.86159995843357,
75,0,75,0,,,,,,,,,,,,,,,,,,,,,,,,,,768.9868174000876,None,quiet,36,76,aloud,blue,766.9714207000798,None,None,766.9714207000798,None,,,,,,,,,,,,,,,,,,,,,,,,,,,,,,,,,,,50Aloud,001,2022_Sep_12_1207,ProdSingRedoBetween,2021.2.3,59.86159995843357,
76,0,76,0,,,,,,,,,,,,,,,,,,,,,,,,,,771.4893636000343,None,theme,61,77,aloud,red,769.4890544000082,None,None,769.4890544000082,None,,,,,,,,,,,,,,,,,,,,,,,,,,,,,,,,,,,50Aloud,001,2022_Sep_12_1207,ProdSingRedoBetween,2021.2.3,59.86159995843357,
77,0,77,0,,,,,,,,,,,,,,,,,,,,,,,,,,774.0084623000585,None,victory,52,78,aloud,blue,771.9958260999992,None,None,771.9958260999992,None,,,,,,,,,,,,,,,,,,,,,,,,,,,,,,,,,,,50Aloud,001,2022_Sep_12_1207,ProdSingRedoBetween,2021.2.3,59.86159995843357,
78,0,78,0,,,,,,,,,,,,,,,,,,,,,,,,,,776.5107995000435,None,bucket,29,79,aloud,blue,774.5109600001015,None,None,774.5109600001015,None,,,,,,,,,,,,,,,,,,,,,,,,,,,,,,,,,,,50Aloud,001,2022_Sep_12_1207,ProdSingRedoBetween,2021.2.3,59.86159995843357,
79,0,79,0,,,,,,,,,,,,,,,,,,,,,,,,,,779.0135221000528,None,skill,3,80,aloud,yellow,777.011569900089,None,None,777.011569900089,None,,,,,,,,,,,,,,,,,,,,,,,,,,,,,,,,,,,50Aloud,001,2022_Sep_12_1207,ProdSingRedoBetween,2021.2.3,59.86159995843357,
80,0,80,0,,,,,,,,,,,,,,,,,,,,,,,,,,781.5327045000158,None,childhood,22,81,aloud,yellow,779.5196701000677,None,None,779.5196701000677,None,,,,,,,,,,,,,,,,,,,,,,,,,,,,,,,,,,,50Aloud,001,2022_Sep_12_1207,ProdSingRedoBetween,2021.2.3,59.86159995843357,
81,0,81,0,,,,,,,,,,,,,,,,,,,,,,,,,,784.0351810000138,None,passage,10,82,aloud,yellow,782.0342817000346,None,None,782.0342817000346,None,,,,,,,,,,,,,,,,,,,,,,,,,,,,,,,,,,,50Aloud,001,2022_Sep_12_1207,ProdSingRedoBetween,2021.2.3,59.86159995843357,
82,0,82,0,,,,,,,,,,,,,,,,,,,,,,,,,,786.537650500075,None,private,86,83,aloud,red,784.5357040000381,None,None,784.5357040000381,None,,,,,,,,,,,,,,,,,,,,,,,,,,,,,,,,,,,50Aloud,001,2022_Sep_12_1207,ProdSingRedoBetween,2021.2.3,59.86159995843357,
83,0,83,0,,,,,,,,,,,,,,,,,,,,,,,,,,789.0569420000538,None,motion,7,84,aloud,yellow,787.041910000029,None,None,787.041910000029,None,,,,,,,,,,,,,,,,,,,,,,,,,,,,,,,,,,,50Aloud,001,2022_Sep_12_1207,ProdSingRedoBetween,2021.2.3,59.86159995843357,
84,0,84,0,,,,,,,,,,,,,,,,,,,,,,,,,,791.5594093000982,None,phrase,14,85,aloud,yellow,789.5597010001075,None,None,789.5597010001075,None,,,,,,,,,,,,,,,,,,,,,,,,,,,,,,,,,,,50Aloud,001,2022_Sep_12_1207,ProdSingRedoBetween,2021.2.3,59.86159995843357,
85,0,85,0,,,,,,,,,,,,,,,,,,,,,,,,,,794.0785294000525,None,judge,32,86,aloud,blue,792.0647075000452,None,None,792.0647075000452,None,,,,,,,,,,,,,,,,,,,,,,,,,,,,,,,,,,,50Aloud,001,2022_Sep_12_1207,ProdSingRedoBetween,2021.2.3,59.86159995843357,
86,0,86,0,,,,,,,,,,,,,,,,,,,,,,,,,,796.5810404000804,None,health,88,87,aloud,red,794.5793592000846,None,None,794.5793592000846,None,,,,,,,,,,,,,,,,,,,,,,,,,,,,,,,,,,,50Aloud,001,2022_Sep_12_1207,ProdSingRedoBetween,2021.2.3,59.86159995843357,
87,0,87,0,,,,,,,,,,,,,,,,,,,,,,,,,,799.100238300045,None,testimony,41,88,aloud,blue,797.0850553000346,None,None,797.0850553000346,None,,,,,,,,,,,,,,,,,,,,,,,,,,,,,,,,,,,50Aloud,001,2022_Sep_12_1207,ProdSingRedoBetween,2021.2.3,59.86159995843357,
88,0,88,0,,,,,,,,,,,,,,,,,,,,,,,,,,801.6027866000077,None,benefit,65,89,aloud,red,799.6015268000774,None,None,799.6015268000774,None,,,,,,,,,,,,,,,,,,,,,,,,,,,,,,,,,,,50Aloud,001,2022_Sep_12_1207,ProdSingRedoBetween,2021.2.3,59.86159995843357,
89,0,89,0,,,,,,,,,,,,,,,,,,,,,,,,,,804.1052310001105,None,fashion,63,90,aloud,red,802.1056095000822,None,None,802.1056095000822,None,,,,,,,,,,,,,,,,,,,,,,,,,,,,,,,,,,,50Aloud,001,2022_Sep_12_1207,ProdSingRedoBetween,2021.2.3,59.86159995843357,
,,,,,,,,,,,,,,,,,,,,,,,,,,,,,,,,,,,,,,,,,804.6060648000566,None,k,83.40321519994177,804.6060648000566,None,,,,,,,,,,,,,,,,,,,,,,,,,,,,,50Aloud,001,2022_Sep_12_1207,ProdSingRedoBetween,2021.2.3,59.86159995843357,
,,,,0,0,0,0,,,,,,,,,,,,,,,,,,,,,,899.5064800000982,None,,,,,,,,,,,,,,,,,count,67,1,aloud,old,red,888.5474314000458,None,888.5474314000458,None,1,7.701770100044087,888.5474314000458,None,7.701770100044087,896.2835314000258,None,896.8001974000363,None,896.8001974000363,None,n,2.6812274999683723,896.8001974000363,None,2.6812274999683723,,,50Aloud,001,2022_Sep_12_1207,ProdSingRedoBetween,2021.2.3,59.86159995843357,
,,,,1,0,1,0,,,,,,,,,,,,,,,,,,,,,,904.90595210006,None,,,,,,,,,,,,,,,,,novel,109,2,aloud,new,null,900.0282197000924,None,900.0282197000924,None,5,3.013045899919234,900.0282197000924,None,3.013045899919234,903.0809229000006,None,903.592507500085,None,903.592507500085,None,f,1.2887757999124005,903.592507500085,None,1.2887757999124005,,,50Aloud,001,2022_Sep_12_1207,ProdSingRedoBetween,2021.2.3,59.86159995843357,
,,,,2,0,2,0,,,,,,,,,,,,,,,,,,,,,,911.1455311001046,None,,,,,,,,,,,,,,,,,congress,53,3,aloud,old,blue,905.4185624000384,None,905.4185624000384,None,6,3.8227965000551194,905.4185624000384,None,3.8227965000551194,909.263211100013,None,909.7789998000953,None,909.7789998000953,None,r,1.3422827000031248,909.7789998000953,None,1.3422827000031248,,,50Aloud,001,2022_Sep_12_1207,ProdSingRedoBetween,2021.2.3,59.86159995843357,
,,,,3,0,3,0,,,,,,,,,,,,,,,,,,,,,,914.6657880001003,None,,,,,,,,,,,,,,,,,rural,18,4,aloud,old,yellow,911.6474744000006,None,911.6474744000006,None,6,1.9778411999577656,911.6474744000006,None,1.9778411999577656,913.6477743000723,None,914.1523811001098,None,914.1523811001098,None,r,0.4889062999282032,914.1523811001098,None,0.4889062999282032,,,50Aloud,001,2022_Sep_12_1207,ProdSingRedoBetween,2021.2.3,59.86159995843357,
,,,,4,0,4,0,,,,,,,,,,,,,,,,,,,,,,917.8534761000192,None,,,,,,,,,,,,,,,,,century,35,5,aloud,old,blue,915.1796767000342,None,915.1796767000342,None,6,1.6216924999607727,915.1796767000342,None,1.6216924999607727,916.824101800099,None,917.3397447000025,None,917.3397447000025,None,r,0.4936929999385029,917.3397447000025,None,0.4936929999385029,,,50Aloud,001,2022_Sep_12_1207,ProdSingRedoBetween,2021.2.3,59.86159995843357,
,,,,5,0,5,0,,,,,,,,,,,,,,,,,,,,,,920.8885100000771,None,,,,,,,,,,,,,,,,,sunset,78,6,aloud,old,red,918.3609633001033,None,918.3609633001033,None,6,1.432300899992697,918.3609633001033,None,1.432300899992697,919.8223626000108,None,920.3380338000134,None,920.3380338000134,None,r,0.5274485999252647,920.3380338000134,None,0.5274485999252647,,,50Aloud,001,2022_Sep_12_1207,ProdSingRedoBetween,2021.2.3,59.86159995843357,
,,,,6,0,6,0,,,,,,,,,,,,,,,,,,,,,,926.4275345000206,None,,,,,,,,,,,,,,,,,breath,94,7,aloud,new,null,921.3936613000697,None,921.3936613000697,None,2,2.711616199929267,921.3936613000697,None,2.711616199929267,924.1261301001068,None,924.6277702000225,None,924.6277702000225,None,n,1.7816487000091001,924.6277702000225,None,1.7816487000091001,,,50Aloud,001,2022_Sep_12_1207,ProdSingRedoBetween,2021.2.3,59.86159995843357,
,,,,7,0,7,0,,,,,,,,,,,,,,,,,,,,,,930.7316864000168,None,,,,,,,,,,,,,,,,,population,166,8,aloud,new,null,926.9370406001108,None,926.9370406001108,None,1,2.6642616000026464,926.9370406001108,None,2.6642616000026464,929.6318124000682,None,930.1316567000467,None,930.1316567000467,None,n,0.5816177000524476,930.1316567000467,None,0.5816177000524476,,,50Aloud,001,2022_Sep_12_1207,ProdSingRedoBetween,2021.2.3,59.86159995843357,
,,,,8,0,8,0,,,,,,,,,,,,,,,,,,,,,,935.1712131000822,None,,,,,,,,,,,,,,,,,birth,9,9,aloud,old,yellow,931.2322698000353,None,931.2322698000353,None,6,2.953067500027828,931.2322698000353,None,2.953067500027828,934.201813200023,None,934.702634400106,None,934.702634400106,None,r,0.45092119998298585,934.702634400106,None,0.45092119998298585,,,50Aloud,001,2022_Sep_12_1207,ProdSingRedoBetween,2021.2.3,59.86159995843357,
,,,,9,0,9,0,,,,,,,,,,,,,,,,,,,,,,939.2401417000219,None,,,,,,,,,,,,,,,,,payment,110,10,aloud,new,null,935.6919353000121,None,935.6919353000121,None,3,2.3413394999224693,935.6919353000121,None,2.3413394999224693,938.0578776000766,None,938.5730516000185,None,938.5730516000185,None,n,0.6442714999429882,938.5730516000185,None,0.6442714999429882,,,50Aloud,001,2022_Sep_12_1207,ProdSingRedoBetween,2021.2.3,59.86159995843357,
,,,,10,0,10,0,,,,,,,,,,,,,,,,,,,,,,943.027338200016,None,,,,,,,,,,,,,,,,,personnel,168,11,aloud,new,null,939.7525195000926,None,939.7525195000926,None,1,2.0807340999599546,939.7525195000926,None,2.0807340999599546,941.8607495001052,None,942.3642126000486,None,942.3642126000486,None,n,0.6450541999656707,942.3642126000486,None,0.6450541999656707,,,50Aloud,001,2022_Sep_12_1207,ProdSingRedoBetween,2021.2.3,59.86159995843357,
,,,,11,0,11,0,,,,,,,,,,,,,,,,,,,,,,946.3807814000174,None,,,,,,,,,,,,,,,,,title,25,12,aloud,old,yellow,943.5373687000247,None,943.5373687000247,None,6,1.9279768000124022,943.5373687000247,None,1.9279768000124022,945.5033340000082,None,946.013877700083,None,946.013877700083,None,r,0.3393887000856921,946.013877700083,None,0.3393887000856921,,,50Aloud,001,2022_Sep_12_1207,ProdSingRedoBetween,2021.2.3,59.86159995843357,
,,,,12,0,12,0,,,,,,,,,,,,,,,,,,,,,,949.9844188001007,None,,,,,,,,,,,,,,,,,thing,155,13,aloud,new,null,946.8876746000024,None,946.8876746000024,None,1,2.2096331000793725,946.8876746000024,None,2.2096331000793725,949.1200007000007,None,949.633825100027,None,949.633825100027,None,n,0.32750349992420524,949.633825100027,None,0.32750349992420524,,,50Aloud,001,2022_Sep_12_1207,ProdSingRedoBetween,2021.2.3,59.86159995843357,
,,,,13,0,13,0,,,,,,,,,,,,,,,,,,,,,,952.9206017000834,None,,,,,,,,,,,,,,,,,shear,151,14,aloud,new,null,950.497395100072,None,950.497395100072,None,1,1.5359582999954,950.497395100072,None,1.5359582999954,952.0583030000562,None,952.5727434,None,952.5727434,None,n,0.33256520004943013,952.5727434,None,0.33256520004943013,,,50Aloud,001,2022_Sep_12_1207,ProdSingRedoBetween,2021.2.3,59.86159995843357,
,,,,14,0,14,0,,,,,,,,,,,,,,,,,,,,,,956.590927900048,None,,,,,,,,,,,,,,,,,master,64,15,aloud,old,red,953.4351855000714,None,953.4351855000714,None,5,1.4941416000947356,953.4351855000714,None,1.4941416000947356,954.9593502000207,None,955.4733690000139,None,955.4733690000139,None,f,1.095931199961342,955.4733690000139,None,1.095931199961342,,,50Aloud,001,2022_Sep_12_1207,ProdSingRedoBetween,2021.2.3,59.86159995843357,
,,,,15,0,15,0,,,,,,,,,,,,,,,,,,,,,,959.7775495999958,None,,,,,,,,,,,,,,,,,staff,1,16,aloud,old,yellow,957.100109100109,None,957.100109100109,None,2,1.7171950000338256,957.100109100109,None,1.7171950000338256,958.846245600027,None,959.3609990000259,None,959.3609990000259,None,n,0.3922975000459701,959.3609990000259,None,0.3922975000459701,,,50Aloud,001,2022_Sep_12_1207,ProdSingRedoBetween,2021.2.3,59.86159995843357,
,,,,16,0,16,0,,,,,,,,,,,,,,,,,,,,,,964.1818821000634,None,,,,,,,,,,,,,,,,,group,44,17,aloud,old,blue,960.2843979001045,None,960.2843979001045,None,4,2.0049563999054953,960.2843979001045,None,2.0049563999054953,962.3155092000961,None,962.8306919001043,None,962.8306919001043,None,f,1.3226366000017151,962.8306919001043,None,1.3226366000017151,,,50Aloud,001,2022_Sep_12_1207,ProdSingRedoBetween,2021.2.3,59.86159995843357,
,,,,17,0,17,0,,,,,,,,,,,,,,,,,,,,,,967.768666200107,None,,,,,,,,,,,,,,,,,country,170,18,aloud,new,null,964.6822588000214,None,964.6822588000214,None,2,2.135005799937062,964.6822588000214,None,2.135005799937062,966.835633300012,None,967.3409380000085,None,967.3409380000085,None,n,0.40434050001204014,967.3409380000085,None,0.40434050001204014,,,50Aloud,001,2022_Sep_12_1207,ProdSingRedoBetween,2021.2.3,59.86159995843357,
,,,,18,0,18,0,,,,,,,,,,,,,,,,,,,,,,972.2574303000001,None,,,,,,,,,,,,,,,,,interview,15,19,aloud,old,yellow,968.2708730000304,None,968.2708730000304,None,4,3.050360199995339,968.2708730000304,None,3.050360199995339,971.3428215000313,None,971.8563239000505,None,971.8563239000505,None,f,0.3850114999804646,971.8563239000505,None,0.3850114999804646,,,50Aloud,001,2022_Sep_12_1207,ProdSingRedoBetween,2021.2.3,59.86159995843357,
,,,,19,0,19,0,,,,,,,,,,,,,,,,,,,,,,977.2615889000008,None,,,,,,,,,,,,,,,,,review,165,20,aloud,new,null,972.7608051000861,None,972.7608051000861,None,3,2.2405560000333935,972.7608051000861,None,2.2405560000333935,975.0279904000927,None,975.54764600005,None,975.54764600005,None,n,1.6857094999868423,975.54764600005,None,1.6857094999868423,,,50Aloud,001,2022_Sep_12_1207,ProdSingRedoBetween,2021.2.3,59.86159995843357,
,,,,20,0,20,0,,,,,,,,,,,,,,,,,,,,,,980.6483071000548,None,,,,,,,,,,,,,,,,,display,137,21,aloud,new,null,977.7708396000089,None,977.7708396000089,None,2,1.966452700085938,977.7708396000089,None,1.966452700085938,979.7652227000799,None,980.264800200006,None,980.264800200006,None,n,0.36056139995343983,980.264800200006,None,0.36056139995343983,,,50Aloud,001,2022_Sep_12_1207,ProdSingRedoBetween,2021.2.3,59.86159995843357,
,,,,21,0,21,0,,,,,,,,,,,,,,,,,,,,,,986.7708804000868,None,,,,,,,,,,,,,,,,,member,42,22,aloud,old,blue,981.1491695001023,None,981.1491695001023,None,3,3.484271200024523,981.1491695001023,None,3.484271200024523,984.6603395000566,None,985.1733576999977,None,985.1733576999977,None,n,1.5799366000574082,985.1733576999977,None,1.5799366000574082,,,50Aloud,001,2022_Sep_12_1207,ProdSingRedoBetween,2021.2.3,59.86159995843357,
,,,,22,0,22,0,,,,,,,,,,,,,,,,,,,,,,991.3757284000749,None,,,,,,,,,,,,,,,,,judge,32,23,aloud,old,blue,987.2717849001056,None,987.2717849001056,None,5,2.5215105999959633,987.2717849001056,None,2.5215105999959633,989.8259583000327,None,990.341475400026,None,990.341475400026,None,f,1.003872099914588,990.341475400026,None,1.003872099914588,,,50Aloud,001,2022_Sep_12_1207,ProdSingRedoBetween,2021.2.3,59.86159995843357,
,,,,23,0,23,0,,,,,,,,,,,,,,,,,,,,,,994.2786020000931,None,,,,,,,,,,,,,,,,,drove,4,24,aloud,old,yellow,991.8824713000795,None,991.8824713000795,None,6,1.5269331999588758,991.8824713000795,None,1.5269331999588758,993.4311739000259,None,993.9474010000704,None,993.9474010000704,None,r,0.30996690003667027,993.9474010000704,None,0.30996690003667027,,,50Aloud,001,2022_Sep_12_1207,ProdSingRedoBetween,2021.2.3,59.86159995843357,
,,,,24,0,24,0,,,,,,,,,,,,,,,,,,,,,,997.2813655000646,None,,,,,,,,,,,,,,,,,length,150,25,aloud,new,null,994.7913426000159,None,994.7913426000159,None,2,1.625981199904345,994.7913426000159,None,1.625981199904345,996.4489324000897,None,996.9536723000929,None,996.9536723000929,None,n,0.31166540004778653,996.9536723000929,None,0.31166540004778653,,,50Aloud,001,2022_Sep_12_1207,ProdSingRedoBetween,2021.2.3,59.86159995843357,
,,,,25,0,25,0,,,,,,,,,,,,,,,,,,,,,,1000.8352182999952,None,,,,,,,,,,,,,,,,,production,162,26,aloud,new,null,997.7868400000734,None,997.7868400000734,None,3,2.150519600021653,997.7868400000734,None,2.150519600021653,999.9690113000106,None,1000.4729247000068,None,1000.4729247000068,None,n,0.34436869993805885,1000.4729247000068,None,0.34436869993805885,,,50Aloud,001,2022_Sep_12_1207,ProdSingRedoBetween,2021.2.3,59.86159995843357,
,,,,26,0,26,0,,,,,,,,,,,,,,,,,,,,,,1009.1768179000355,None,,,,,,,,,,,,,,,,,symbol,40,27,aloud,old,blue,1001.339255800005,None,1001.339255800005,None,4,7.086285499972291,1001.339255800005,None,7.086285499972291,1008.4510116000893,None,1008.9600144000724,None,1008.9600144000724,None,f,0.19333719997666776,1008.9600144000724,None,0.19333719997666776,,,50Aloud,001,2022_Sep_12_1207,ProdSingRedoBetween,2021.2.3,59.86159995843357,
,,,,27,0,27,0,,,,,,,,,,,,,,,,,,,,,,1012.5969027000247,None,,,,,,,,,,,,,,,,,sleep,17,28,aloud,old,yellow,1009.6851415000856,None,1009.6851415000856,None,4,2.0202220999635756,1009.6851415000856,None,2.0202220999635756,1011.7304408000782,None,1012.229799300083,None,1012.229799300083,None,f,0.33951770002022386,1012.229799300083,None,0.33951770002022386,,,50Aloud,001,2022_Sep_12_1207,ProdSingRedoBetween,2021.2.3,59.86159995843357,
,,,,28,0,28,0,,,,,,,,,,,,,,,,,,,,,,1016.550857800059,None,,,,,,,,,,,,,,,,,school,47,29,aloud,old,blue,1013.1046825000085,None,1013.1046825000085,None,2,2.60867089999374,1013.1046825000085,None,2.60867089999374,1015.7366292000515,None,1016.2552256000927,None,1016.2552256000927,None,n,0.27413749997504056,1016.2552256000927,None,0.27413749997504056,,,50Aloud,001,2022_Sep_12_1207,ProdSingRedoBetween,2021.2.3,59.86159995843357,
,,,,29,0,29,0,,,,,,,,,,,,,,,,,,,,,,1019.9038566000527,None,,,,,,,,,,,,,,,,,private,86,30,aloud,old,red,1017.0628022000892,None,1017.0628022000892,None,4,1.994545399909839,1017.0628022000892,None,1.994545399909839,1019.0915859000525,None,1019.6102359000361,None,1019.6102359000361,None,f,0.26309350004885346,1019.6102359000361,None,0.26309350004885346,,,50Aloud,001,2022_Sep_12_1207,ProdSingRedoBetween,2021.2.3,59.86159995843357,
,,,,30,0,30,0,,,,,,,,,,,,,,,,,,,,,,1022.8404931999976,None,,,,,,,,,,,,,,,,,style,105,31,aloud,new,null,1020.4132976999972,None,1020.4132976999972,None,2,1.6440113000571728,1020.4132976999972,None,1.6440113000571728,1022.0779099001084,None,1022.5903534000972,None,1022.5903534000972,None,n,0.2270290000597015,1022.5903534000972,None,0.2270290000597015,,,50Aloud,001,2022_Sep_12_1207,ProdSingRedoBetween,2021.2.3,59.86159995843357,
,,,,31,0,31,0,,,,,,,,,,,,,,,,,,,,,,1030.664775500074,None,,,,,,,,,,,,,,,,,incident,101,32,aloud,new,null,1023.3409816001076,None,1023.3409816001076,None,3,6.364420800004154,1023.3409816001076,None,6.364420800004154,1029.7307351001073,None,1030.236978400033,None,1030.236978400033,None,n,0.4123488999903202,1030.236978400033,None,0.4123488999903202,,,50Aloud,001,2022_Sep_12_1207,ProdSingRedoBetween,2021.2.3,59.86159995843357,
,,,,32,0,32,0,,,,,,,,,,,,,,,,,,,,,,1033.5177942001028,None,,,,,,,,,,,,,,,,,husband,135,33,aloud,new,null,1031.1685746000148,None,1031.1685746000148,None,1,1.4887969000265002,1031.1685746000148,None,1.4887969000265002,1032.6872427000199,None,1033.2057610000484,None,1033.2057610000484,None,n,0.2836236000293866,1033.2057610000484,None,0.2836236000293866,,,50Aloud,001,2022_Sep_12_1207,ProdSingRedoBetween,2021.2.3,59.86159995843357,
,,,,33,0,33,0,,,,,,,,,,,,,,,,,,,,,,1036.3372633000836,None,,,,,,,,,,,,,,,,,minor,153,34,aloud,new,null,1034.027403300046,None,1034.027403300046,None,1,1.453968600020744,1034.027403300046,None,1.453968600020744,1035.5029581000563,None,1036.0067641000496,None,1036.0067641000496,None,n,0.31471820001024753,1036.0067641000496,None,0.31471820001024753,,,50Aloud,001,2022_Sep_12_1207,ProdSingRedoBetween,2021.2.3,59.86159995843357,
,,,,34,0,34,0,,,,,,,,,,,,,,,,,,,,,,1039.1269006000366,None,,,,,,,,,,,,,,,,,weight,104,35,aloud,new,null,1036.8464289000258,None,1036.8464289000258,None,1,1.4748639999888837,1036.8464289000258,None,1.4748639999888837,1038.3411091000307,None,1038.8645961000584,None,1038.8645961000584,None,n,0.23291959997732192,1038.8645961000584,None,0.23291959997732192,,,50Aloud,001,2022_Sep_12_1207,ProdSingRedoBetween,2021.2.3,59.86159995843357,
,,,,35,0,35,0,,,,,,,,,,,,,,,,,,,,,,1042.2265346000204,None,,,,,,,,,,,,,,,,,appeal,58,36,aloud,old,blue,1039.6407303001033,None,1039.6407303001033,None,1,1.8086017000023276,1039.6407303001033,None,1.8086017000023276,1041.4775008000433,None,1041.992980100098,None,1041.992980100098,None,n,0.2163369000190869,1041.992980100098,None,0.2163369000190869,,,50Aloud,001,2022_Sep_12_1207,ProdSingRedoBetween,2021.2.3,59.86159995843357,
,,,,36,0,36,0,,,,,,,,,,,,,,,,,,,,,,1045.663161000004,None,,,,,,,,,,,,,,,,,device,177,37,aloud,new,null,1042.7396430000663,None,1042.7396430000663,None,3,1.757708799908869,1042.7396430000663,None,1.757708799908869,1044.5164354000008,None,1045.0301548000425,None,1045.0301548000425,None,n,0.6031153000658378,1045.0301548000425,None,0.6031153000658378,,,50Aloud,001,2022_Sep_12_1207,ProdSingRedoBetween,2021.2.3,59.86159995843357,
,,,,37,0,37,0,,,,,,,,,,,,,,,,,,,,,,1048.9165687001077,None,,,,,,,,,,,,,,,,,prime,171,38,aloud,new,null,1046.1647525000153,None,1046.1647525000153,None,2,2.004640099941753,1046.1647525000153,None,2.004640099941753,1048.2032501000213,None,1048.7164349000668,None,1048.7164349000668,None,n,0.1810356000205502,1048.7164349000668,None,0.1810356000205502,,,50Aloud,001,2022_Sep_12_1207,ProdSingRedoBetween,2021.2.3,59.86159995843357,
,,,,38,0,38,0,,,,,,,,,,,,,,,,,,,,,,1051.3523172000423,None,,,,,,,,,,,,,,,,,corner,31,39,aloud,old,blue,1049.429683100083,None,1049.429683100083,None,1,1.2516759000718594,1049.429683100083,None,1.2516759000718594,1050.7016142000211,None,1051.2053091000998,None,1051.2053091000998,None,n,0.12406020006164908,1051.2053091000998,None,0.12406020006164908,,,50Aloud,001,2022_Sep_12_1207,ProdSingRedoBetween,2021.2.3,59.86159995843357,
,,,,39,0,39,0,,,,,,,,,,,,,,,,,,,,,,1053.9882320000324,None,,,,,,,,,,,,,,,,,state,87,40,aloud,old,red,1051.8631762000732,None,1051.8631762000732,None,1,1.3141666000010446,1051.8631762000732,None,1.3141666000010446,1053.207920600078,None,1053.7267059000442,None,1053.7267059000442,None,n,0.23481639998499304,1053.7267059000442,None,0.23481639998499304,,,50Aloud,001,2022_Sep_12_1207,ProdSingRedoBetween,2021.2.3,59.86159995843357,
,,,,40,0,40,0,,,,,,,,,,,,,,,,,,,,,,1056.6409310000017,None,,,,,,,,,,,,,,,,,quiet,36,41,aloud,old,blue,1054.4900486000115,None,1054.4900486000115,None,5,1.5513272000243887,1054.4900486000115,None,1.5513272000243887,1056.058938800008,None,1056.57460250007,None,1056.57460250007,None,f,0.04287619993556291,1056.57460250007,None,0.04287619993556291,,,50Aloud,001,2022_Sep_12_1207,ProdSingRedoBetween,2021.2.3,59.86159995843357,
,,,,41,0,41,0,,,,,,,,,,,,,,,,,,,,,,1060.4955979000079,None,,,,,,,,,,,,,,,,,produce,178,42,aloud,new,null,1057.1515293000266,None,1057.1515293000266,None,3,2.3299816999351606,1057.1515293000266,None,2.3299816999351606,1059.5153906000778,None,1060.030660700053,None,1060.030660700053,None,n,0.43476420000661165,1060.030660700053,None,0.43476420000661165,,,50Aloud,001,2022_Sep_12_1207,ProdSingRedoBetween,2021.2.3,59.86159995843357,
,,,,42,0,42,0,,,,,,,,,,,,,,,,,,,,,,1063.8648786999984,None,,,,,,,,,,,,,,,,,testimony,41,43,aloud,old,blue,1061.0077061000047,None,1061.0077061000047,None,5,1.2656036999542266,1061.0077061000047,None,1.2656036999542266,1062.3022525000852,None,1062.817298600101,None,1062.817298600101,None,f,1.0241710999980569,1062.817298600101,None,1.0241710999980569,,,50Aloud,001,2022_Sep_12_1207,ProdSingRedoBetween,2021.2.3,59.86159995843357,
,,,,43,0,43,0,,,,,,,,,,,,,,,,,,,,,,1066.7676616000244,None,,,,,,,,,,,,,,,,,beauty,12,44,aloud,old,yellow,1064.3703905000584,None,1064.3703905000584,None,2,1.5029386000242084,1064.3703905000584,None,1.5029386000242084,1065.9020307000028,None,1066.4175901000854,None,1066.4175901000854,None,n,0.3280667000217363,1066.4175901000854,None,0.3280667000217363,,,50Aloud,001,2022_Sep_12_1207,ProdSingRedoBetween,2021.2.3,59.86159995843357,
,,,,44,0,44,0,,,,,,,,,,,,,,,,,,,,,,1070.1044027000898,None,,,,,,,,,,,,,,,,,research,85,45,aloud,old,red,1067.2718529000413,None,1067.2718529000413,None,5,1.9615090999286622,1067.2718529000413,None,1.9615090999286622,1069.2550243000733,None,1069.7588220000034,None,1069.7588220000034,None,f,0.31464689993299544,1069.7588220000034,None,0.31464689993299544,,,50Aloud,001,2022_Sep_12_1207,ProdSingRedoBetween,2021.2.3,59.86159995843357,
,,,,45,0,45,0,,,,,,,,,,,,,,,,,,,,,,1074.1582128000446,None,,,,,,,,,,,,,,,,,fashion,63,46,aloud,old,red,1070.608138600015,None,1070.608138600015,None,5,2.6811161000514403,1070.608138600015,None,2.6811161000514403,1073.3090517000528,None,1073.8285425000358,None,1073.8285425000358,None,f,0.3089459999464452,1073.8285425000358,None,0.3089459999464452,,,50Aloud,001,2022_Sep_12_1207,ProdSingRedoBetween,2021.2.3,59.86159995843357,
,,,,46,0,46,0,,,,,,,,,,,,,,,,,,,,,,1078.9132340000942,None,,,,,,,,,,,,,,,,,center,46,47,aloud,old,blue,1074.6593121000333,None,1074.6593121000333,None,3,3.4220448998967186,1074.6593121000333,None,3.4220448998967186,1078.1125030000694,None,1078.613446500036,None,1078.613446500036,None,n,0.27593420003540814,1078.613446500036,None,0.27593420003540814,,,50Aloud,001,2022_Sep_12_1207,ProdSingRedoBetween,2021.2.3,59.86159995843357,
,,,,47,0,47,0,,,,,,,,,,,,,,,,,,,,,,1081.3350107000442,None,,,,,,,,,,,,,,,,,shock,76,48,aloud,old,red,1079.4255734001053,None,1079.4255734001053,None,5,1.1918806000612676,1079.4255734001053,None,1.1918806000612676,1080.6602110000094,None,1081.1738863000646,None,1081.1738863000646,None,f,0.131532899918966,1081.1738863000646,None,0.131532899918966,,,50Aloud,001,2022_Sep_12_1207,ProdSingRedoBetween,2021.2.3,59.86159995843357,
,,,,48,0,48,0,,,,,,,,,,,,,,,,,,,,,,1083.918173900107,None,,,,,,,,,,,,,,,,,build,20,49,aloud,old,yellow,1081.8518691000063,None,1081.8518691000063,None,5,1.4615400000475347,1081.8518691000063,None,1.4615400000475347,1083.3342951000668,None,1083.8367762000998,None,1083.8367762000998,None,f,0.05260119994636625,1083.8367762000998,None,0.05260119994636625,,,50Aloud,001,2022_Sep_12_1207,ProdSingRedoBetween,2021.2.3,59.86159995843357,
,,,,49,0,49,0,,,,,,,,,,,,,,,,,,,,,,1086.107107100077,None,,,,,,,,,,,,,,,,,bright,89,50,aloud,old,red,1084.423993500066,None,1084.423993500066,None,6,1.065485700033605,1084.423993500066,None,1.065485700033605,1085.5264628001023,None,1086.0370896999957,None,1086.0370896999957,None,f,0.036329699913039804,1086.0370896999957,None,0.036329699913039804,,,50Aloud,001,2022_Sep_12_1207,ProdSingRedoBetween,2021.2.3,59.86159995843357,
,,,,50,0,50,0,,,,,,,,,,,,,,,,,,,,,,1089.0454746000469,None,,,,,,,,,,,,,,,,,income,55,51,aloud,old,blue,1086.6209725000663,None,1086.6209725000663,None,2,1.7804093000013381,1086.6209725000663,None,1.7804093000013381,1088.4254365001107,None,1088.9443864000496,None,1088.9443864000496,None,n,0.07326089998241514,1088.9443864000496,None,0.07326089998241514,,,50Aloud,001,2022_Sep_12_1207,ProdSingRedoBetween,2021.2.3,59.86159995843357,
,,,,51,0,51,0,,,,,,,,,,,,,,,,,,,,,,1091.5758736000862,None,,,,,,,,,,,,,,,,,suggestion,173,52,aloud,new,null,1089.5766203000676,None,1089.5766203000676,None,2,1.2807069999398664,1089.5766203000676,None,1.2807069999398664,1090.8771459000418,None,1091.3926446000114,None,1091.3926446000114,None,n,0.1527264000615105,1091.3926446000114,None,0.1527264000615105,,,50Aloud,001,2022_Sep_12_1207,ProdSingRedoBetween,2021.2.3,59.86159995843357,
,,,,52,0,52,0,,,,,,,,,,,,,,,,,,,,,,1095.2796095000813,None,,,,,,,,,,,,,,,,,question,128,53,aloud,new,null,1092.0817864000564,None,1092.0817864000564,None,2,1.3996252999641001,1092.0817864000564,None,1.3996252999641001,1093.5175759000704,None,1094.0319578000344,None,1094.0319578000344,None,n,1.2175084999762475,1094.0319578000344,None,1.2175084999762475,,,50Aloud,001,2022_Sep_12_1207,ProdSingRedoBetween,2021.2.3,59.86159995843357,
,,,,53,0,53,0,,,,,,,,,,,,,,,,,,,,,,1098.0655241000932,None,,,,,,,,,,,,,,,,,trend,59,54,aloud,old,yellow,1095.786558700027,None,1095.786558700027,None,4,1.5588722999673337,1095.786558700027,None,1.5588722999673337,1097.3703062999994,None,1097.8833477000007,None,1097.8833477000007,None,f,0.15803369996137917,1097.8833477000007,None,0.15803369996137917,,,50Aloud,001,2022_Sep_12_1207,ProdSingRedoBetween,2021.2.3,59.86159995843357,
,,,,54,0,54,0,,,,,,,,,,,,,,,,,,,,,,1100.8184662000276,None,,,,,,,,,,,,,,,,,service,148,55,aloud,new,null,1098.5780532000354,None,1098.5780532000354,None,3,1.3994149999925867,1098.5780532000354,None,1.3994149999925867,1100.0086649000878,None,1100.5232603000477,None,1100.5232603000477,None,n,0.2703137999633327,1100.5232603000477,None,0.2703137999633327,,,50Aloud,001,2022_Sep_12_1207,ProdSingRedoBetween,2021.2.3,59.86159995843357,
,,,,55,0,55,0,,,,,,,,,,,,,,,,,,,,,,1103.888164700009,None,,,,,,,,,,,,,,,,,session,5,56,aloud,old,yellow,1101.3403017000528,None,1101.3403017000528,None,3,1.8529576000291854,1101.3403017000528,None,1.8529576000291854,1103.2236830000766,None,1103.7381117000477,None,1103.7381117000477,None,n,0.13535390002653003,1103.7381117000477,None,0.13535390002653003,,,50Aloud,001,2022_Sep_12_1207,ProdSingRedoBetween,2021.2.3,59.86159995843357,
,,,,56,0,56,0,,,,,,,,,,,,,,,,,,,,,,1106.4907464000862,None,,,,,,,,,,,,,,,,,expansion,62,57,aloud,old,red,1104.3929631001083,None,1104.3929631001083,None,3,1.0965544000500813,1104.3929631001083,None,1.0965544000500813,1105.5140742000658,None,1106.0314885000698,None,1106.0314885000698,None,n,0.4338841999415308,1106.0314885000698,None,0.4338841999415308,,,50Aloud,001,2022_Sep_12_1207,ProdSingRedoBetween,2021.2.3,59.86159995843357,
,,,,57,0,57,0,,,,,,,,,,,,,,,,,,,,,,1111.6792403000873,None,,,,,,,,,,,,,,,,,course,136,58,aloud,new,null,1107.0016549000284,None,1107.0016549000284,None,2,3.7759649000363424,1107.0016549000284,None,3.7759649000363424,1110.7979047000408,None,1111.3123626000015,None,1111.3123626000015,None,n,0.34502220002468675,1111.3123626000015,None,0.34502220002468675,,,50Aloud,001,2022_Sep_12_1207,ProdSingRedoBetween,2021.2.3,59.86159995843357,
,,,,58,0,58,0,,,,,,,,,,,,,,,,,,,,,,1114.2483025999973,None,,,,,,,,,,,,,,,,,profession,163,59,aloud,new,null,1112.1966180000454,None,1112.1966180000454,None,2,1.108865800080821,1112.1966180000454,None,1.108865800080821,1113.3374312000815,None,1113.8629891000455,None,1113.8629891000455,None,n,0.35450079990550876,1113.8629891000455,None,0.35450079990550876,,,50Aloud,001,2022_Sep_12_1207,ProdSingRedoBetween,2021.2.3,59.86159995843357,
,,,,59,0,59,0,,,,,,,,,,,,,,,,,,,,,,1116.5182073001051,None,,,,,,,,,,,,,,,,,discussion,174,60,aloud,new,null,1114.753510700073,None,1114.753510700073,None,2,0.9118497000308707,1114.753510700073,None,0.9118497000308707,1115.6850986001082,None,1116.200667600031,None,1116.200667600031,None,n,0.2966582999797538,1116.200667600031,None,0.2966582999797538,,,50Aloud,001,2022_Sep_12_1207,ProdSingRedoBetween,2021.2.3,59.86159995843357,
,,,,60,0,60,0,,,,,,,,,,,,,,,,,,,,,,1119.7207908000564,None,,,,,,,,,,,,,,,,,split,158,61,aloud,new,null,1117.0260166000808,None,1117.0260166000808,None,2,2.0233825999312103,1117.0260166000808,None,2.0233825999312103,1119.0715021000942,None,1119.5740455000196,None,1119.5740455000196,None,n,0.12340529996436089,1119.5740455000196,None,0.12340529996436089,,,50Aloud,001,2022_Sep_12_1207,ProdSingRedoBetween,2021.2.3,59.86159995843357,
,,,,61,0,61,0,,,,,,,,,,,,,,,,,,,,,,1122.5577985000564,None,,,,,,,,,,,,,,,,,benefit,65,62,aloud,old,red,1120.231822700007,None,1120.231822700007,None,6,1.4575883999932557,1120.231822700007,None,1.4575883999932557,1121.7132663000375,None,1122.2231355000986,None,1122.2231355000986,None,r,0.3142786000389606,1122.2231355000986,None,0.3142786000389606,,,50Aloud,001,2022_Sep_12_1207,ProdSingRedoBetween,2021.2.3,59.86159995843357,
,,,,62,0,62,0,,,,,,,,,,,,,,,,,,,,,,1126.3272480000742,None,,,,,,,,,,,,,,,,,angle,16,63,aloud,old,yellow,1123.0572676000884,None,1123.0572676000884,None,6,2.6321174999466166,1123.0572676000884,None,2.6321174999466166,1125.7117378000403,None,1126.227260200074,None,1126.227260200074,None,r,0.07814150000922382,1126.227260200074,None,0.07814150000922382,,,50Aloud,001,2022_Sep_12_1207,ProdSingRedoBetween,2021.2.3,59.86159995843357,
,,,,63,0,63,0,,,,,,,,,,,,,,,,,,,,,,1129.168453500024,None,,,,,,,,,,,,,,,,,short,73,64,aloud,old,red,1126.8355063000927,None,1126.8355063000927,None,6,1.6378949999343604,1126.8355063000927,None,1.6378949999343604,1128.4974950000178,None,1129.0019392000977,None,1129.0019392000977,None,r,0.14354799990542233,1129.0019392000977,None,0.14354799990542233,,,50Aloud,001,2022_Sep_12_1207,ProdSingRedoBetween,2021.2.3,59.86159995843357,
,,,,64,0,64,0,,,,,,,,,,,,,,,,,,,,,,1132.0830554000568,None,,,,,,,,,,,,,,,,,strain,159,65,aloud,new,null,1129.6878064000048,None,1129.6878064000048,None,4,1.5777022000402212,1129.6878064000048,None,1.5777022000402212,1131.2892568000825,None,1131.8048081001034,None,1131.8048081001034,None,f,0.2605530999135226,1131.8048081001034,None,0.2605530999135226,,,50Aloud,001,2022_Sep_12_1207,ProdSingRedoBetween,2021.2.3,59.86159995843357,
,,,,65,0,65,0,,,,,,,,,,,,,,,,,,,,,,1135.4864768000552,None,,,,,,,,,,,,,,,,,running,125,66,aloud,new,null,1132.5835909000598,None,1132.5835909000598,None,2,2.081815099925734,1132.5835909000598,None,2.081815099925734,1134.6873963000253,None,1135.2029761000304,None,1135.2029761000304,None,n,0.254372900002636,1135.2029761000304,None,0.254372900002636,,,50Aloud,001,2022_Sep_12_1207,ProdSingRedoBetween,2021.2.3,59.86159995843357,
,,,,66,0,66,0,,,,,,,,,,,,,,,,,,,,,,1138.340158600011,None,,,,,,,,,,,,,,,,,watch,116,67,aloud,new,null,1135.9967826000648,None,1135.9967826000648,None,2,1.764543200028129,1135.9967826000648,None,1.764543200028129,1137.7906789000845,None,1138.3088679000502,None,1138.3088679000502,None,n,0.012749599991366267,1138.3088679000502,None,0.012749599991366267,,,50Aloud,001,2022_Sep_12_1207,ProdSingRedoBetween,2021.2.3,59.86159995843357,
,,,,67,0,67,0,,,,,,,,,,,,,,,,,,,,,,1141.3090532000642,None,,,,,,,,,,,,,,,,,raise,124,68,aloud,new,null,1138.841419500066,None,1138.841419500066,None,4,1.5680177999893203,1138.841419500066,None,1.5680177999893203,1140.4290712000802,None,1140.9419447000837,None,1140.9419447000837,None,f,0.3394637000747025,1140.9419447000837,None,0.3394637000747025,,,50Aloud,001,2022_Sep_12_1207,ProdSingRedoBetween,2021.2.3,59.86159995843357,
,,,,68,0,68,0,,,,,,,,,,,,,,,,,,,,,,1144.1283794000046,None,,,,,,,,,,,,,,,,,danger,156,69,aloud,new,null,1141.809292800026,None,1141.809292800026,None,2,1.424089299980551,1141.809292800026,None,1.424089299980551,1143.260864000069,None,1143.766035900102,None,1143.766035900102,None,n,0.33936019998509437,1143.766035900102,None,0.33936019998509437,,,50Aloud,001,2022_Sep_12_1207,ProdSingRedoBetween,2021.2.3,59.86159995843357,
,,,,69,0,69,0,,,,,,,,,,,,,,,,,,,,,,1146.999762600055,None,,,,,,,,,,,,,,,,,executive,141,70,aloud,new,null,1144.6380096001085,None,1144.6380096001085,None,2,1.6673957000020891,1144.6380096001085,None,1.6673957000020891,1146.3333338000812,None,1146.850792100071,None,1146.850792100071,None,n,0.12666069995611906,1146.850792100071,None,0.12666069995611906,,,50Aloud,001,2022_Sep_12_1207,ProdSingRedoBetween,2021.2.3,59.86159995843357,
,,,,70,0,70,0,,,,,,,,,,,,,,,,,,,,,,1149.7007312000496,None,,,,,,,,,,,,,,,,,relation,93,71,aloud,new,null,1147.520500200102,None,1147.520500200102,None,2,1.08084259997122,1147.520500200102,None,1.08084259997122,1148.6209504000144,None,1149.1335708000697,None,1149.1335708000697,None,n,0.5479071999434382,1149.1335708000697,None,0.5479071999434382,,,50Aloud,001,2022_Sep_12_1207,ProdSingRedoBetween,2021.2.3,59.86159995843357,
,,,,71,0,71,0,,,,,,,,,,,,,,,,,,,,,,1152.9372104000067,None,,,,,,,,,,,,,,,,,commercial,107,72,aloud,new,null,1150.2011470000725,None,1150.2011470000725,None,1,1.744278599973768,1150.2011470000725,None,1.744278599973768,1151.9723284000065,None,1152.486598300049,None,1152.486598300049,None,n,0.4268070000689477,1152.486598300049,None,0.4268070000689477,,,50Aloud,001,2022_Sep_12_1207,ProdSingRedoBetween,2021.2.3,59.86159995843357,
,,,,72,0,72,0,,,,,,,,,,,,,,,,,,,,,,1155.7733490000246,None,,,,,,,,,,,,,,,,,degree,122,73,aloud,new,null,1153.4436674000463,None,1153.4436674000463,None,1,1.461708200047724,1153.4436674000463,None,1.461708200047724,1154.9254226000048,None,1155.4433950000675,None,1155.4433950000675,None,n,0.3019979000091553,1155.4433950000675,None,0.3019979000091553,,,50Aloud,001,2022_Sep_12_1207,ProdSingRedoBetween,2021.2.3,59.86159995843357,
,,,,73,0,73,0,,,,,,,,,,,,,,,,,,,,,,1159.945959600038,None,,,,,,,,,,,,,,,,,discovery,160,74,aloud,new,null,1156.2868835000554,None,1156.2868835000554,None,1,3.1064634999493137,1156.2868835000554,None,3.1064634999493137,1159.4127729000757,None,1159.9274280000245,None,1159.9274280000245,None,n,0.0021434000227600336,1159.9274280000245,None,0.0021434000227600336,,,50Aloud,001,2022_Sep_12_1207,ProdSingRedoBetween,2021.2.3,59.86159995843357,
,,,,74,0,74,0,,,,,,,,,,,,,,,,,,,,,,1162.9648801001022,None,,,,,,,,,,,,,,,,,problem,132,75,aloud,new,null,1160.4670404000208,None,1160.4670404000208,None,1,1.7023830000543967,1160.4670404000208,None,1.7023830000543967,1162.199444900034,None,1162.7253918000497,None,1162.7253918000497,None,n,0.21211620001122355,1162.7253918000497,None,0.21211620001122355,,,50Aloud,001,2022_Sep_12_1207,ProdSingRedoBetween,2021.2.3,59.86159995843357,
,,,,75,0,75,0,,,,,,,,,,,,,,,,,,,,,,1165.9001882000593,None,,,,,,,,,,,,,,,,,people,19,76,aloud,old,yellow,1163.4686936000362,None,1163.4686936000362,None,4,1.8608212999533862,1163.4686936000362,None,1.8608212999533862,1165.3569944000337,None,1165.8683984000236,None,1165.8683984000236,None,f,0.013162999995984137,1165.8683984000236,None,0.013162999995984137,,,50Aloud,001,2022_Sep_12_1207,ProdSingRedoBetween,2021.2.3,59.86159995843357,
,,,,76,0,76,0,,,,,,,,,,,,,,,,,,,,,,1168.9198592000175,None,,,,,,,,,,,,,,,,,pressure,23,77,aloud,old,yellow,1166.4047018000856,None,1166.4047018000856,None,4,1.9327309000073,1166.4047018000856,None,1.9327309000073,1168.3544553000247,None,1168.8715514000505,None,1168.8715514000505,None,f,0.025864000082947314,1168.8715514000505,None,0.025864000082947314,,,50Aloud,001,2022_Sep_12_1207,ProdSingRedoBetween,2021.2.3,59.86159995843357,
,,,,77,0,77,0,,,,,,,,,,,,,,,,,,,,,,1172.3403551001102,None,,,,,,,,,,,,,,,,,under,175,78,aloud,new,null,1169.426904699998,None,1169.426904699998,None,2,2.2945582000538707,1169.426904699998,None,2.2945582000538707,1171.746276800055,None,1172.2641385000898,None,1172.2641385000898,None,n,0.05727140000090003,1172.2641385000898,None,0.05727140000090003,,,50Aloud,001,2022_Sep_12_1207,ProdSingRedoBetween,2021.2.3,59.86159995843357,
,,,,78,0,78,0,,,,,,,,,,,,,,,,,,,,,,1175.3763163000112,None,,,,,,,,,,,,,,,,,estate,71,79,aloud,old,red,1172.8404622999951,None,1172.8404622999951,None,5,1.9050657000625506,1172.8404622999951,None,1.9050657000625506,1174.7828470000532,None,1175.3029486000305,None,1175.3029486000305,None,f,0.050511499983258545,1175.3029486000305,None,0.050511499983258545,,,50Aloud,001,2022_Sep_12_1207,ProdSingRedoBetween,2021.2.3,59.86159995843357,
,,,,79,0,79,0,,,,,,,,,,,,,,,,,,,,,,1179.6638189000078,None,,,,,,,,,,,,,,,,,carry,69,80,aloud,old,red,1175.884988600039,None,1175.884988600039,None,1,2.036385799990967,1175.884988600039,None,2.036385799990967,1177.9517866000533,None,1178.4628777001053,None,1178.4628777001053,None,n,1.1786013999953866,1178.4628777001053,None,1.1786013999953866,,,50Aloud,001,2022_Sep_12_1207,ProdSingRedoBetween,2021.2.3,59.86159995843357,
,,,,80,0,80,0,,,,,,,,,,,,,,,,,,,,,,1181.8018577001058,None,,,,,,,,,,,,,,,,,cousin,130,81,aloud,new,null,1180.1714816000313,None,1180.1714816000313,None,1,0.941971700056456,1180.1714816000313,None,0.941971700056456,1181.1346161999973,None,1181.6534423000412,None,1181.6534423000412,None,n,0.12415509996935725,1181.6534423000412,None,0.12415509996935725,,,50Aloud,001,2022_Sep_12_1207,ProdSingRedoBetween,2021.2.3,59.86159995843357,
,,,,81,0,81,0,,,,,,,,,,,,,,,,,,,,,,1184.2524746001,None,,,,,,,,,,,,,,,,,stranger,121,82,aloud,new,null,1182.3236809000373,None,1182.3236809000373,None,1,1.0537737000267953,1182.3236809000373,None,1.0537737000267953,1183.4046760000056,None,1183.9183038000483,None,1183.9183038000483,None,n,0.3151407999685034,1183.9183038000483,None,0.3151407999685034,,,50Aloud,001,2022_Sep_12_1207,ProdSingRedoBetween,2021.2.3,59.86159995843357,
,,,,82,0,82,0,,,,,,,,,,,,,,,,,,,,,,1188.056809800095,None,,,,,,,,,,,,,,,,,audience,30,83,aloud,old,blue,1184.7684281000402,None,1184.7684281000402,None,3,2.344992500031367,1184.7684281000402,None,2.344992500031367,1187.1398337000282,None,1187.6647094000364,None,1187.6647094000364,None,n,0.3608453000197187,1187.6647094000364,None,0.3608453000197187,,,50Aloud,001,2022_Sep_12_1207,ProdSingRedoBetween,2021.2.3,59.86159995843357,
,,,,83,0,83,0,,,,,,,,,,,,,,,,,,,,,,1191.0586280000862,None,,,,,,,,,,,,,,,,,guest,83,84,aloud,old,red,1188.5640911000082,None,1188.5640911000082,None,1,1.2293922998942435,1188.5640911000082,None,1.2293922998942435,1189.830267900019,None,1190.348008400062,None,1190.348008400062,None,n,0.6933601999189705,1190.348008400062,None,0.6933601999189705,,,50Aloud,001,2022_Sep_12_1207,ProdSingRedoBetween,2021.2.3,59.86159995843357,
,,,,84,0,84,0,,,,,,,,,,,,,,,,,,,,,,1195.8467856000643,None,,,,,,,,,,,,,,,,,harmony,13,85,aloud,old,yellow,1191.5731852001045,None,1191.5731852001045,None,1,3.5643139000749215,1191.5731852001045,None,3.5643139000749215,1195.1626371000893,None,1195.6723457000917,None,1195.6723457000917,None,n,0.1530640999553725,1195.6723457000917,None,0.1530640999553725,,,50Aloud,001,2022_Sep_12_1207,ProdSingRedoBetween,2021.2.3,59.86159995843357,
,,,,85,0,85,0,,,,,,,,,,,,,,,,,,,,,,1198.1991021001013,None,,,,,,,,,,,,,,,,,theme,61,86,aloud,old,red,1196.357529400033,None,1196.357529400033,None,1,1.0039347000420094,1196.357529400033,None,1.0039347000420094,1197.385006000055,None,1197.900187100051,None,1197.900187100051,None,n,0.2772501000436023,1197.900187100051,None,0.2772501000436023,,,50Aloud,001,2022_Sep_12_1207,ProdSingRedoBetween,2021.2.3,59.86159995843357,
,,,,86,0,86,0,,,,,,,,,,,,,,,,,,,,,,1201.085303400061,None,,,,,,,,,,,,,,,,,safety,139,87,aloud,new,null,1198.710265200003,None,1198.710265200003,None,1,1.5471277000615373,1198.710265200003,None,1.5471277000615373,1200.2855216000462,None,1200.7908233000198,None,1200.7908233000198,None,n,0.27462349995039403,1200.7908233000198,None,0.27462349995039403,,,50Aloud,001,2022_Sep_12_1207,ProdSingRedoBetween,2021.2.3,59.86159995843357,
,,,,87,0,87,0,,,,,,,,,,,,,,,,,,,,,,1204.4053153001005,None,,,,,,,,,,,,,,,,,heavy,48,88,aloud,old,blue,1201.5971295000054,None,1201.5971295000054,None,1,2.1163862999528646,1201.5971295000054,None,2.1163862999528646,1203.74572180002,None,1204.2620666000294,None,1204.2620666000294,None,n,0.11529510002583265,1204.2620666000294,None,0.11529510002583265,,,50Aloud,001,2022_Sep_12_1207,ProdSingRedoBetween,2021.2.3,59.86159995843357,
,,,,88,0,88,0,,,,,,,,,,,,,,,,,,,,,,1206.907809299999,None,,,,,,,,,,,,,,,,,comfort,161,89,aloud,new,null,1204.9164954000153,None,1204.9164954000153,None,1,1.0848371000029147,1204.9164954000153,None,1.0848371000029147,1206.0263049000641,None,1206.5474717000034,None,1206.5474717000034,None,n,0.33402730000671,1206.5474717000034,None,0.33402730000671,,,50Aloud,001,2022_Sep_12_1207,ProdSingRedoBetween,2021.2.3,59.86159995843357,
,,,,89,0,89,0,,,,,,,,,,,,,,,,,,,,,,1209.4770333000924,None,,,,,,,,,,,,,,,,,direction,33,90,aloud,old,blue,1207.4269266000483,None,1207.4269266000483,None,3,1.3504441999830306,1207.4269266000483,None,1.3504441999830306,1208.7942492000293,None,1209.2933680000715,None,1209.2933680000715,None,n,0.16407749999780208,1209.2933680000715,None,0.16407749999780208,,,50Aloud,001,2022_Sep_12_1207,ProdSingRedoBetween,2021.2.3,59.86159995843357,
,,,,90,0,90,0,,,,,,,,,,,,,,,,,,,,,,1214.482085000025,None,,,,,,,,,,,,,,,,,victory,52,91,aloud,old,blue,1209.999001200078,None,1209.999001200078,None,2,3.7224401000421494,1209.999001200078,None,3.7224401000421494,1213.7506024000468,None,1214.270532399998,None,1214.270532399998,None,n,0.19491709989961237,1214.270532399998,None,0.19491709989961237,,,50Aloud,001,2022_Sep_12_1207,ProdSingRedoBetween,2021.2.3,59.86159995843357,
,,,,91,0,91,0,,,,,,,,,,,,,,,,,,,,,,1217.4682862000773,None,,,,,,,,,,,,,,,,,majority,91,92,aloud,new,null,1214.9981259000488,None,1214.9981259000488,None,2,1.8513346000108868,1214.9981259000488,None,1.8513346000108868,1216.8735902000917,None,1217.3927524000173,None,1217.3927524000173,None,n,0.056707700015977025,1217.3927524000173,None,0.056707700015977025,,,50Aloud,001,2022_Sep_12_1207,ProdSingRedoBetween,2021.2.3,59.86159995843357,
,,,,92,0,92,0,,,,,,,,,,,,,,,,,,,,,,1220.238014500006,None,,,,,,,,,,,,,,,,,skill,3,93,aloud,old,yellow,1217.9732422000961,None,1217.9732422000961,None,2,1.5161840000655502,1217.9732422000961,None,1.5161840000655502,1219.520739800064,None,1220.0326432000147,None,1220.0326432000147,None,n,0.18488370010163635,1220.0326432000147,None,0.18488370010163635,,,50Aloud,001,2022_Sep_12_1207,ProdSingRedoBetween,2021.2.3,59.86159995843357,
,,,,93,0,93,0,,,,,,,,,,,,,,,,,,,,,,1223.676352300099,None,,,,,,,,,,,,,,,,,broke,98,94,aloud,new,null,1220.7486739000306,None,1220.7486739000306,None,2,2.3247038000263274,1220.7486739000306,None,2.3247038000263274,1223.0916335000657,None,1223.5969027000247,None,1223.5969027000247,None,n,0.05265299999155104,1223.5969027000247,None,0.05265299999155104,,,50Aloud,001,2022_Sep_12_1207,ProdSingRedoBetween,2021.2.3,59.86159995843357,
,,,,94,0,94,0,,,,,,,,,,,,,,,,,,,,,,1227.1613640000578,None,,,,,,,,,,,,,,,,,signal,51,95,aloud,old,blue,1224.2146146000596,None,1224.2146146000596,None,4,1.538939099991694,1224.2146146000596,None,1.538939099991694,1225.7870575000998,None,1226.2972061000764,None,1226.2972061000764,None,f,0.8402095000492409,1226.2972061000764,None,0.8402095000492409,,,50Aloud,001,2022_Sep_12_1207,ProdSingRedoBetween,2021.2.3,59.86159995843357,
,,,,95,0,95,0,,,,,,,,,,,,,,,,,,,,,,1229.8471516000573,None,,,,,,,,,,,,,,,,,crowd,131,96,aloud,new,null,1227.6685085000936,None,1227.6685085000936,None,3,1.2451969000976533,1227.6685085000936,None,1.2451969000976533,1228.9310776001075,None,1229.430348200025,None,1229.430348200025,None,n,0.3871144000440836,1229.430348200025,None,0.3871144000440836,,,50Aloud,001,2022_Sep_12_1207,ProdSingRedoBetween,2021.2.3,59.86159995843357,
,,,,96,0,96,0,,,,,,,,,,,,,,,,,,,,,,1233.2023131001042,None,,,,,,,,,,,,,,,,,stand,111,97,aloud,new,null,1230.357142199995,None,1230.357142199995,None,1,1.9882884999969974,1230.357142199995,None,1.9882884999969974,1232.3685173999984,None,1232.8839036000427,None,1232.8839036000427,None,n,0.2856626999564469,1232.8839036000427,None,0.2856626999564469,,,50Aloud,001,2022_Sep_12_1207,ProdSingRedoBetween,2021.2.3,59.86159995843357,
,,,,97,0,97,0,,,,,,,,,,,,,,,,,,,,,,1235.5864346000599,None,,,,,,,,,,,,,,,,,charter,129,98,aloud,new,null,1233.7184485000325,None,1233.7184485000325,None,1,0.9871707999845967,1233.7184485000325,None,0.9871707999845967,1234.7364158000564,None,1235.2364816000918,None,1235.2364816000918,None,n,0.32488040009047836,1235.2364816000918,None,0.32488040009047836,,,50Aloud,001,2022_Sep_12_1207,ProdSingRedoBetween,2021.2.3,59.86159995843357,
,,,,98,0,98,0,,,,,,,,,,,,,,,,,,,,,,1238.6562684000237,None,,,,,,,,,,,,,,,,,present,90,99,aloud,new,null,1236.0992701000068,None,1236.0992701000068,None,1,1.6461028000339866,1236.0992701000068,None,1.6461028000339866,1237.7721523001092,None,1238.272476800019,None,1238.272476800019,None,n,0.36898859997745603,1238.272476800019,None,0.36898859997745603,,,50Aloud,001,2022_Sep_12_1207,ProdSingRedoBetween,2021.2.3,59.86159995843357,
,,,,99,0,99,0,,,,,,,,,,,,,,,,,,,,,,1242.3264965000562,None,,,,,,,,,,,,,,,,,object,38,100,aloud,old,blue,1239.1702340000775,None,1239.1702340000775,None,5,2.279117399943061,1239.1702340000775,None,2.279117399943061,1241.4770718000364,None,1241.9785756000783,None,1241.9785756000783,None,f,0.32692639995366335,1241.9785756000783,None,0.32692639995366335,,,50Aloud,001,2022_Sep_12_1207,ProdSingRedoBetween,2021.2.3,59.86159995843357,
,,,,100,0,100,0,,,,,,,,,,,,,,,,,,,,,,1245.9165378001053,None,,,,,,,,,,,,,,,,,column,119,101,aloud,new,null,1242.8343292000936,None,1242.8343292000936,None,1,1.4792356999823824,1242.8343292000936,None,1.4792356999823824,1244.348874200019,None,1244.8681035001064,None,1244.8681035001064,None,n,1.029422999941744,1244.8681035001064,None,1.029422999941744,,,50Aloud,001,2022_Sep_12_1207,ProdSingRedoBetween,2021.2.3,59.86159995843357,
,,,,101,0,101,0,,,,,,,,,,,,,,,,,,,,,,1248.6829289000016,None,,,,,,,,,,,,,,,,,childhood,22,102,aloud,old,yellow,1246.436679400038,None,1246.436679400038,None,6,1.4047026000916958,1246.436679400038,None,1.4047026000916958,1247.8859735000879,None,1248.403005200089,None,1248.403005200089,None,r,0.26242839999031276,1248.403005200089,None,0.26242839999031276,,,50Aloud,001,2022_Sep_12_1207,ProdSingRedoBetween,2021.2.3,59.86159995843357,
,,,,102,0,102,0,,,,,,,,,,,,,,,,,,,,,,1251.620505800005,None,,,,,,,,,,,,,,,,,community,143,103,aloud,new,null,1249.1938237000722,None,1249.1938237000722,None,2,1.6075699999928474,1249.1938237000722,None,1.6075699999928474,1250.8204235000303,None,1251.3430429000873,None,1251.3430429000873,None,n,0.2584976999787614,1251.3430429000873,None,0.2584976999787614,,,50Aloud,001,2022_Sep_12_1207,ProdSingRedoBetween,2021.2.3,59.86159995843357,
,,,,103,0,103,0,,,,,,,,,,,,,,,,,,,,,,1254.8056122000562,None,,,,,,,,,,,,,,,,,institute,79,104,aloud,old,red,1252.1288400000194,None,1252.1288400000194,None,6,1.6485754000023007,1252.1288400000194,None,1.6485754000023007,1253.805644200067,None,1254.3067042001057,None,1254.3067042001057,None,r,0.4708384000696242,1254.3067042001057,None,0.4708384000696242,,,50Aloud,001,2022_Sep_12_1207,ProdSingRedoBetween,2021.2.3,59.86159995843357,
,,,,104,0,104,0,,,,,,,,,,,,,,,,,,,,,,1257.4933475001017,None,,,,,,,,,,,,,,,,,native,140,105,aloud,new,null,1255.3106604000786,None,1255.3106604000786,None,2,1.3468162000644952,1255.3106604000786,None,1.3468162000644952,1256.67542460002,None,1257.1813206000952,None,1257.1813206000952,None,n,0.29220640007406473,1257.1813206000952,None,0.29220640007406473,,,50Aloud,001,2022_Sep_12_1207,ProdSingRedoBetween,2021.2.3,59.86159995843357,
,,,,105,0,105,0,,,,,,,,,,,,,,,,,,,,,,1262.0795776000014,None,,,,,,,,,,,,,,,,,passage,10,106,aloud,old,yellow,1258.0038246000186,None,1258.0038246000186,None,1,3.2215938000008464,1258.0038246000186,None,3.2215938000008464,1261.2476435001008,None,1261.7627210000064,None,1261.7627210000064,None,n,0.2867794999619946,1261.7627210000064,None,0.2867794999619946,,,50Aloud,001,2022_Sep_12_1207,ProdSingRedoBetween,2021.2.3,59.86159995843357,
,,,,106,0,106,0,,,,,,,,,,,,,,,,,,,,,,1264.9841400000732,None,,,,,,,,,,,,,,,,,material,102,107,aloud,new,null,1262.5858060000464,None,1262.5858060000464,None,1,1.5275866000447422,1262.5858060000464,None,1.5275866000447422,1264.132760800072,None,1264.632269200054,None,1264.632269200054,None,n,0.3212777000153437,1264.632269200054,None,0.3212777000153437,,,50Aloud,001,2022_Sep_12_1207,ProdSingRedoBetween,2021.2.3,59.86159995843357,
,,,,107,0,107,0,,,,,,,,,,,,,,,,,,,,,,1267.9518964000745,None,,,,,,,,,,,,,,,,,speech,34,108,aloud,old,blue,1265.51044740004,None,1265.51044740004,None,6,1.5151374000124633,1265.51044740004,None,1.5151374000124633,1267.0573992000427,None,1267.5684325000038,None,1267.5684325000038,None,r,0.3609363000141457,1267.5684325000038,None,0.3609363000141457,,,50Aloud,001,2022_Sep_12_1207,ProdSingRedoBetween,2021.2.3,59.86159995843357,
,,,,108,0,108,0,,,,,,,,,,,,,,,,,,,,,,1272.4075415000552,None,,,,,,,,,,,,,,,,,travel,2,109,aloud,old,yellow,1268.4663694000337,None,1268.4663694000337,None,2,3.1990108999889344,1268.4663694000337,None,3.1990108999889344,1271.6936903001042,None,1272.216058500111,None,1272.216058500111,None,n,0.16158019995782524,1272.216058500111,None,0.16158019995782524,,,50Aloud,001,2022_Sep_12_1207,ProdSingRedoBetween,2021.2.3,59.86159995843357,
,,,,109,0,109,0,,,,,,,,,,,,,,,,,,,,,,1275.47632970009,None,,,,,,,,,,,,,,,,,worker,37,110,aloud,old,blue,1272.9152546999976,None,1272.9152546999976,None,3,1.7262064999667928,1272.9152546999976,None,1.7262064999667928,1274.6624241000973,None,1275.1762037000153,None,1275.1762037000153,None,n,0.2732358999783173,1275.1762037000153,None,0.2732358999783173,,,50Aloud,001,2022_Sep_12_1207,ProdSingRedoBetween,2021.2.3,59.86159995843357,
,,,,110,0,110,0,,,,,,,,,,,,,,,,,,,,,,1279.4312350000255,None,,,,,,,,,,,,,,,,,motion,7,111,aloud,old,yellow,1275.9859474000987,None,1275.9859474000987,None,4,1.6156287000048906,1275.9859474000987,None,1.6156287000048906,1277.6284789000638,None,1278.1302899000002,None,1278.1302899000002,None,f,1.2712805999908596,1278.1302899000002,None,1.2712805999908596,,,50Aloud,001,2022_Sep_12_1207,ProdSingRedoBetween,2021.2.3,59.86159995843357,
,,,,111,0,111,0,,,,,,,,,,,,,,,,,,,,,,1282.2664347999962,None,,,,,,,,,,,,,,,,,conference,92,112,aloud,new,null,1279.9390393000795,None,1279.9390393000795,None,1,1.4624012999702245,1279.9390393000795,None,1.4624012999702245,1281.4331234000856,None,1281.932965300046,None,1281.932965300046,None,n,0.316510499920696,1281.932965300046,None,0.316510499920696,,,50Aloud,001,2022_Sep_12_1207,ProdSingRedoBetween,2021.2.3,59.86159995843357,
,,,,112,0,112,0,,,,,,,,,,,,,,,,,,,,,,1284.7355478000827,None,,,,,,,,,,,,,,,,,balance,112,113,aloud,new,null,1282.7689419999951,None,1282.7689419999951,None,1,1.2326198000228032,1282.7689419999951,None,1.2326198000228032,1284.018930500024,None,1284.5229873000644,None,1284.5229873000644,None,n,0.19057630002498627,1284.5229873000644,None,0.19057630002498627,,,50Aloud,001,2022_Sep_12_1207,ProdSingRedoBetween,2021.2.3,59.86159995843357,
,,,,113,0,113,0,,,,,,,,,,,,,,,,,,,,,,1288.9749880000018,None,,,,,,,,,,,,,,,,,background,172,114,aloud,new,null,1285.2396126000676,None,1285.2396126000676,None,5,3.050006900099106,1285.2396126000676,None,3.050006900099106,1288.315451500006,None,1288.8271503000287,None,1288.8271503000287,None,f,0.12636130000464618,1288.8271503000287,None,0.12636130000464618,,,50Aloud,001,2022_Sep_12_1207,ProdSingRedoBetween,2021.2.3,59.86159995843357,
,,,,114,0,114,0,,,,,,,,,,,,,,,,,,,,,,1291.642551900004,None,,,,,,,,,,,,,,,,,cross,77,115,aloud,old,red,1289.4913636000128,None,1289.4913636000128,None,6,1.3581655999878421,1289.4913636000128,None,1.3581655999878421,1290.876374600106,None,1291.381049000076,None,1291.381049000076,None,r,0.2364469999447465,1291.381049000076,None,0.2364469999447465,,,50Aloud,001,2022_Sep_12_1207,ProdSingRedoBetween,2021.2.3,59.86159995843357,
,,,,115,0,115,0,,,,,,,,,,,,,,,,,,,,,,1295.6965242000297,None,,,,,,,,,,,,,,,,,trail,142,116,aloud,new,null,1292.1449067000067,None,1292.1449067000067,None,3,1.1765753000508994,1292.1449067000067,None,1.1765753000508994,1293.3452276000753,None,1293.849262200063,None,1293.849262200063,None,n,1.8161217999877408,1293.849262200063,None,1.8161217999877408,,,50Aloud,001,2022_Sep_12_1207,ProdSingRedoBetween,2021.2.3,59.86159995843357,
,,,,116,0,116,0,,,,,,,,,,,,,,,,,,,,,,1298.1656341000926,None,,,,,,,,,,,,,,,,,piece,80,117,aloud,old,red,1296.2071469000075,None,1296.2071469000075,None,6,1.2183286000508815,1296.2071469000075,None,1.2183286000508815,1297.4769266000949,None,1297.982093400089,None,1297.982093400089,None,r,0.1552767000393942,1297.982093400089,None,0.1552767000393942,,,50Aloud,001,2022_Sep_12_1207,ProdSingRedoBetween,2021.2.3,59.86159995843357,
,,,,117,0,117,0,,,,,,,,,,,,,,,,,,,,,,1300.6515098999953,None,,,,,,,,,,,,,,,,,murder,75,118,aloud,old,red,1298.6706949000945,None,1298.6706949000945,None,6,1.1868767000269145,1298.6706949000945,None,1.1868767000269145,1299.8905117000686,None,1300.4057077000616,None,1300.4057077000616,None,r,0.22772630001418293,1300.4057077000616,None,0.22772630001418293,,,50Aloud,001,2022_Sep_12_1207,ProdSingRedoBetween,2021.2.3,59.86159995843357,
,,,,118,0,118,0,,,,,,,,,,,,,,,,,,,,,,1302.920174100087,None,,,,,,,,,,,,,,,,,bucket,29,119,aloud,old,blue,1301.1650915000355,None,1301.1650915000355,None,6,1.0124339999165386,1301.1650915000355,None,1.0124339999165386,1302.2036547000753,None,1302.7084458000027,None,1302.7084458000027,None,r,0.18905279994942248,1302.7084458000027,None,0.18905279994942248,,,50Aloud,001,2022_Sep_12_1207,ProdSingRedoBetween,2021.2.3,59.86159995843357,
,,,,119,0,119,0,,,,,,,,,,,,,,,,,,,,,,1305.9831610000692,None,,,,,,,,,,,,,,,,,tragedy,24,120,aloud,old,yellow,1303.425810100045,None,1303.425810100045,None,1,1.9676853000419214,1303.425810100045,None,1.9676853000419214,1305.4260131000774,None,1305.9402271000436,None,1305.9402271000436,None,n,0.013306700042448938,1305.9402271000436,None,0.013306700042448938,,,50Aloud,001,2022_Sep_12_1207,ProdSingRedoBetween,2021.2.3,59.86159995843357,
,,,,120,0,120,0,,,,,,,,,,,,,,,,,,,,,,1309.2434668000787,None,,,,,,,,,,,,,,,,,capital,72,121,aloud,old,red,1306.5117482000496,None,1306.5117482000496,None,3,1.8258403999498114,1306.5117482000496,None,1.8258403999498114,1308.359898500028,None,1308.8598770000972,None,1308.8598770000972,None,n,0.35759660007897764,1308.8598770000972,None,0.35759660007897764,,,50Aloud,001,2022_Sep_12_1207,ProdSingRedoBetween,2021.2.3,59.86159995843357,
,,,,121,0,121,0,,,,,,,,,,,,,,,,,,,,,,1313.850512700039,None,,,,,,,,,,,,,,,,,guide,167,122,aloud,new,null,1309.7507015001029,None,1309.7507015001029,None,4,3.506765399943106,1309.7507015001029,None,3.506765399943106,1313.2808091000188,None,1313.7914497000165,None,1313.7914497000165,None,f,0.02604629995767027,1313.7914497000165,None,0.02604629995767027,,,50Aloud,001,2022_Sep_12_1207,ProdSingRedoBetween,2021.2.3,59.86159995843357,
,,,,122,0,122,0,,,,,,,,,,,,,,,,,,,,,,1316.4173077000305,None,,,,,,,,,,,,,,,,,council,146,123,aloud,new,null,1314.3660413000034,None,1314.3660413000034,None,3,1.2355179999722168,1314.3660413000034,None,1.2355179999722168,1315.62207510008,None,1316.1337570000906,None,1316.1337570000906,None,n,0.25974129990208894,1316.1337570000906,None,0.25974129990208894,,,50Aloud,001,2022_Sep_12_1207,ProdSingRedoBetween,2021.2.3,59.86159995843357,
,,,,123,0,123,0,,,,,,,,,,,,,,,,,,,,,,1318.7862686000299,None,,,,,,,,,,,,,,,,,curve,114,124,aloud,new,null,1316.9243472000817,None,1316.9243472000817,None,2,1.173140799975954,1316.9243472000817,None,1.173140799975954,1318.1194781000959,None,1318.61962890008,None,1318.61962890008,None,n,0.14190190006047487,1318.61962890008,None,0.14190190006047487,,,50Aloud,001,2022_Sep_12_1207,ProdSingRedoBetween,2021.2.3,59.86159995843357,
,,,,124,0,124,0,,,,,,,,,,,,,,,,,,,,,,1321.8568684000056,None,,,,,,,,,,,,,,,,,fight,103,125,aloud,new,null,1319.294762100093,None,1319.294762100093,None,2,1.7707211999222636,1319.294762100093,None,1.7707211999222636,1321.091664400068,None,1321.6061727000633,None,1321.6061727000633,None,n,0.22723319998476654,1321.6061727000633,None,0.22723319998476654,,,50Aloud,001,2022_Sep_12_1207,ProdSingRedoBetween,2021.2.3,59.86159995843357,
,,,,125,0,125,0,,,,,,,,,,,,,,,,,,,,,,1324.8265118000563,None,,,,,,,,,,,,,,,,,mechanical,84,126,aloud,old,red,1322.363667900092,None,1322.363667900092,None,4,1.7099188999272883,1322.363667900092,None,1.7099188999272883,1324.094106100034,None,1324.6089690000517,None,1324.6089690000517,None,f,0.1925550999585539,1324.6089690000517,None,0.1925550999585539,,,50Aloud,001,2022_Sep_12_1207,ProdSingRedoBetween,2021.2.3,59.86159995843357,
,,,,126,0,126,0,,,,,,,,,,,,,,,,,,,,,,1327.347342299996,None,,,,,,,,,,,,,,,,,debate,82,127,aloud,old,red,1325.3272619000636,None,1325.3272619000636,None,5,1.2582801999524236,1325.3272619000636,None,1.2582801999524236,1326.6159708000487,None,1327.138118700008,None,1327.138118700008,None,f,0.19149549992289394,1327.138118700008,None,0.19149549992289394,,,50Aloud,001,2022_Sep_12_1207,ProdSingRedoBetween,2021.2.3,59.86159995843357,
,,,,127,0,127,0,,,,,,,,,,,,,,,,,,,,,,1330.2317223000573,None,,,,,,,,,,,,,,,,,literature,68,128,aloud,old,red,1327.8633256000467,None,1327.8633256000467,None,6,1.538190899998881,1327.8633256000467,None,1.538190899998881,1329.431115000043,None,1329.9308769000927,None,1329.9308769000927,None,r,0.27065520000178367,1329.9308769000927,None,0.27065520000178367,,,50Aloud,001,2022_Sep_12_1207,ProdSingRedoBetween,2021.2.3,59.86159995843357,
,,,,128,0,128,0,,,,,,,,,,,,,,,,,,,,,,1333.5843434000853,None,,,,,,,,,,,,,,,,,grade,21,129,aloud,old,yellow,1330.7329190000892,None,1330.7329190000892,None,4,1.5565629000775516,1330.7329190000892,None,1.5565629000775516,1332.3175455000019,None,1332.8168069000822,None,1332.8168069000822,None,f,0.7366566000273451,1332.8168069000822,None,0.7366566000273451,,,50Aloud,001,2022_Sep_12_1207,ProdSingRedoBetween,2021.2.3,59.86159995843357,
,,,,129,0,129,0,,,,,,,,,,,,,,,,,,,,,,1336.6040323000634,None,,,,,,,,,,,,,,,,,tennis,179,130,aloud,new,null,1334.0931320000673,None,1334.0931320000673,None,1,1.0683642999501899,1334.0931320000673,None,1.0683642999501899,1335.1874459000537,None,1335.6941594000673,None,1335.6941594000673,None,n,0.8913855000864714,1335.6941594000673,None,0.8913855000864714,,,50Aloud,001,2022_Sep_12_1207,ProdSingRedoBetween,2021.2.3,59.86159995843357,
,,,,130,0,130,0,,,,,,,,,,,,,,,,,,,,,,1339.4083534000674,None,,,,,,,,,,,,,,,,,career,81,131,aloud,old,red,1337.1075286000269,None,1337.1075286000269,None,4,1.454004199942574,1337.1075286000269,None,1.454004199942574,1338.5928209000267,None,1339.110653800075,None,1339.110653800075,None,f,0.2669395999982953,1339.110653800075,None,0.2669395999982953,,,50Aloud,001,2022_Sep_12_1207,ProdSingRedoBetween,2021.2.3,59.86159995843357,
,,,,131,0,131,0,,,,,,,,,,,,,,,,,,,,,,1341.8426539000357,None,,,,,,,,,,,,,,,,,health,88,132,aloud,old,red,1339.9166376000503,None,1339.9166376000503,None,3,1.0447238000342622,1339.9166376000503,None,1.0447238000342622,1340.9925216000993,None,1341.492360000033,None,1341.492360000033,None,n,0.32526299997698516,1341.492360000033,None,0.32526299997698516,,,50Aloud,001,2022_Sep_12_1207,ProdSingRedoBetween,2021.2.3,59.86159995843357,
,,,,132,0,132,0,,,,,,,,,,,,,,,,,,,,,,1345.0456385000143,None,,,,,,,,,,,,,,,,,committee,149,133,aloud,new,null,1342.3516017000657,None,1342.3516017000657,None,2,1.913899900042452,1342.3516017000657,None,1.913899900042452,1344.2958471000893,None,1344.8057170000393,None,1344.8057170000393,None,n,0.2118664999725297,1344.8057170000393,None,0.2118664999725297,,,50Aloud,001,2022_Sep_12_1207,ProdSingRedoBetween,2021.2.3,59.86159995843357,
,,,,133,0,133,0,,,,,,,,,,,,,,,,,,,,,,1347.8654243000783,None,,,,,,,,,,,,,,,,,company,96,134,aloud,new,null,1345.55047310004,None,1345.55047310004,None,2,1.5070689000422135,1345.55047310004,None,1.5070689000422135,1347.082913500024,None,1347.58415530005,None,1347.58415530005,None,n,0.26531609997618943,1347.58415530005,None,0.26531609997618943,,,50Aloud,001,2022_Sep_12_1207,ProdSingRedoBetween,2021.2.3,59.86159995843357,
,,,,134,0,134,0,,,,,,,,,,,,,,,,,,,,,,1350.9350679001072,None,,,,,,,,,,,,,,,,,growth,169,135,aloud,new,null,1348.377399600111,None,1348.377399600111,None,2,1.6160852999892086,1348.377399600111,None,1.6160852999892086,1350.0190439000726,None,1350.5220647000242,None,1350.5220647000242,None,n,0.39146909990813583,1350.5220647000242,None,0.39146909990813583,,,50Aloud,001,2022_Sep_12_1207,ProdSingRedoBetween,2021.2.3,59.86159995843357,
,,,,135,0,135,0,,,,,,,,,,,,,,,,,,,,,,1354.5718820000766,None,,,,,,,,,,,,,,,,,engineer,54,136,aloud,old,blue,1351.4424408000195,None,1351.4424408000195,None,4,2.214968700078316,1351.4424408000195,None,2.214968700078316,1353.6877067000605,None,1354.1882686000317,None,1354.1882686000317,None,f,0.36514140001963824,1354.1882686000317,None,0.36514140001963824,,,50Aloud,001,2022_Sep_12_1207,ProdSingRedoBetween,2021.2.3,59.86159995843357,
,,,,136,0,136,0,,,,,,,,,,,,,,,,,,,,,,1357.925452399999,None,,,,,,,,,,,,,,,,,agreement,106,137,aloud,new,null,1355.0747024000157,None,1355.0747024000157,None,2,2.0227601000806317,1355.0747024000157,None,2.0227601000806317,1357.1255483001005,None,1357.6250471000094,None,1357.6250471000094,None,n,0.2803628999972716,1357.6250471000094,None,0.2803628999972716,,,50Aloud,001,2022_Sep_12_1207,ProdSingRedoBetween,2021.2.3,59.86159995843357,
,,,,137,0,137,0,,,,,,,,,,,,,,,,,,,,,,1360.1955815000692,None,,,,,,,,,,,,,,,,,guard,138,138,aloud,new,null,1358.4302626000717,None,1358.4302626000717,None,2,0.907268299954012,1358.4302626000717,None,0.907268299954012,1359.3600593000883,None,1359.8632324000355,None,1359.8632324000355,None,n,0.3143089000368491,1359.8632324000355,None,0.3143089000368491,,,50Aloud,001,2022_Sep_12_1207,ProdSingRedoBetween,2021.2.3,59.86159995843357,
,,,,138,0,138,0,,,,,,,,,,,,,,,,,,,,,,1362.4150448000291,None,,,,,,,,,,,,,,,,,dozen,95,139,aloud,new,null,1360.7007035000715,None,1360.7007035000715,None,2,0.8047917999792844,1360.7007035000715,None,0.8047917999792844,1361.5314266000642,None,1362.057900100015,None,1362.057900100015,None,n,0.3276641999837011,1362.057900100015,None,0.3276641999837011,,,50Aloud,001,2022_Sep_12_1207,ProdSingRedoBetween,2021.2.3,59.86159995843357,
,,,,139,0,139,0,,,,,,,,,,,,,,,,,,,,,,1364.8322512001032,None,,,,,,,,,,,,,,,,,impact,113,140,aloud,new,null,1362.934367000009,None,1362.934367000009,None,1,1.1631338000297546,1362.934367000009,None,1.1631338000297546,1364.1169043000555,None,1364.6321737000253,None,1364.6321737000253,None,n,0.17733639990910888,1364.6321737000253,None,0.17733639990910888,,,50Aloud,001,2022_Sep_12_1207,ProdSingRedoBetween,2021.2.3,59.86159995843357,
,,,,140,0,140,0,,,,,,,,,,,,,,,,,,,,,,1368.652793800109,None,,,,,,,,,,,,,,,,,rapid,176,141,aloud,new,null,1365.3378153000958,None,1365.3378153000958,None,1,1.8076870000222698,1365.3378153000958,None,1.8076870000222698,1367.1694568000967,None,1367.6730988000054,None,1367.6730988000054,None,n,0.9523285999894142,1367.6730988000054,None,0.9523285999894142,,,50Aloud,001,2022_Sep_12_1207,ProdSingRedoBetween,2021.2.3,59.86159995843357,
,,,,141,0,141,0,,,,,,,,,,,,,,,,,,,,,,1372.7235220000148,None,,,,,,,,,,,,,,,,,block,97,142,aloud,new,null,1369.163685000036,None,1369.163685000036,None,1,2.9898125999607146,1369.163685000036,None,2.9898125999607146,1372.1745480000973,None,1372.6785251999972,None,1372.6785251999972,None,n,0.02703650004696101,1372.6785251999972,None,0.02703650004696101,,,50Aloud,001,2022_Sep_12_1207,ProdSingRedoBetween,2021.2.3,59.86159995843357,
,,,,142,0,142,0,,,,,,,,,,,,,,,,,,,,,,1374.9758294000058,None,,,,,,,,,,,,,,,,,division,70,143,aloud,old,red,1373.2264408000046,None,1373.2264408000046,None,1,0.9510595999890938,1373.2264408000046,None,0.9510595999890938,1374.211321700015,None,1374.72751960007,None,1374.72751960007,None,n,0.22601660003419966,1374.72751960007,None,0.22601660003419966,,,50Aloud,001,2022_Sep_12_1207,ProdSingRedoBetween,2021.2.3,59.86159995843357,
,,,,143,0,143,0,,,,,,,,,,,,,,,,,,,,,,1377.9287932000589,None,,,,,,,,,,,,,,,,,taste,100,144,aloud,new,null,1375.4837996000424,None,1375.4837996000424,None,5,1.4937225000467151,1375.4837996000424,None,1.4937225000467151,1377.0011029000161,None,1377.5117474000435,None,1377.5117474000435,None,f,0.3858931999420747,1377.5117474000435,None,0.3858931999420747,,,50Aloud,001,2022_Sep_12_1207,ProdSingRedoBetween,2021.2.3,59.86159995843357,
,,,,144,0,144,0,,,,,,,,,,,,,,,,,,,,,,1381.2831569000846,None,,,,,,,,,,,,,,,,,command,147,145,aloud,new,null,1378.4317369000055,None,1378.4317369000055,None,2,1.9538539999630302,1378.4317369000055,None,1.9538539999630302,1380.4161664000712,None,1380.9206351001048,None,1380.9206351001048,None,n,0.3368703000014648,1380.9206351001048,None,0.3368703000014648,,,50Aloud,001,2022_Sep_12_1207,ProdSingRedoBetween,2021.2.3,59.86159995843357,
,,,,145,0,145,0,,,,,,,,,,,,,,,,,,,,,,1386.3704139000038,None,,,,,,,,,,,,,,,,,answer,26,146,aloud,old,yellow,1381.7857661000453,None,1381.7857661000453,None,4,3.7037791999755427,1381.7857661000453,None,3.7037791999755427,1385.5209435001016,None,1386.0203851000406,None,1386.0203851000406,None,f,0.3250403000274673,1386.0203851000406,None,0.3250403000274673,,,50Aloud,001,2022_Sep_12_1207,ProdSingRedoBetween,2021.2.3,59.86159995843357,
,,,,146,0,146,0,,,,,,,,,,,,,,,,,,,,,,1389.7570248000557,None,,,,,,,,,,,,,,,,,height,134,147,aloud,new,null,1386.8710478000576,None,1386.8710478000576,None,5,1.5464031000155956,1386.8710478000576,None,1.5464031000155956,1388.4410224000458,None,1388.9563715000404,None,1388.9563715000404,None,f,0.7811607000185177,1388.9563715000404,None,0.7811607000185177,,,50Aloud,001,2022_Sep_12_1207,ProdSingRedoBetween,2021.2.3,59.86159995843357,
,,,,147,0,147,0,,,,,,,,,,,,,,,,,,,,,,1392.9937636000104,None,,,,,,,,,,,,,,,,,waste,118,148,aloud,new,null,1390.2638405000325,None,1390.2638405000325,None,2,2.0416800000239164,1390.2638405000325,None,2.0416800000239164,1392.3299194000429,None,1392.8473211000673,None,1392.8473211000673,None,n,0.13032369990833104,1392.8473211000673,None,0.13032369990833104,,,50Aloud,001,2022_Sep_12_1207,ProdSingRedoBetween,2021.2.3,59.86159995843357,
,,,,148,0,148,0,,,,,,,,,,,,,,,,,,,,,,1395.582377600018,None,,,,,,,,,,,,,,,,,emergency,66,149,aloud,old,red,1393.5003051999956,None,1393.5003051999956,None,2,1.4372046999633312,1393.5003051999956,None,1.4372046999633312,1394.9627409999957,None,1395.4665106000612,None,1395.4665106000612,None,n,0.09510140004567802,1395.4665106000612,None,0.09510140004567802,,,50Aloud,001,2022_Sep_12_1207,ProdSingRedoBetween,2021.2.3,59.86159995843357,
,,,,149,0,149,0,,,,,,,,,,,,,,,,,,,,,,1398.8867670000764,None,,,,,,,,,,,,,,,,,contract,27,150,aloud,old,yellow,1396.1036838000873,None,1396.1036838000873,None,4,1.8898320000153035,1396.1036838000873,None,1.8898320000153035,1398.0176321000326,None,1398.5429168000119,None,1398.5429168000119,None,f,0.3146275000181049,1398.5429168000119,None,0.3146275000181049,,,50Aloud,001,2022_Sep_12_1207,ProdSingRedoBetween,2021.2.3,59.86159995843357,
,,,,150,0,150,0,,,,,,,,,,,,,,,,,,,,,,1402.5200117001077,None,,,,,,,,,,,,,,,,,power,127,151,aloud,new,null,1399.4085329000372,None,1399.4085329000372,None,2,2.2009162000613287,1399.4085329000372,None,2.2009162000613287,1401.637538800016,None,1402.1569119000342,None,1402.1569119000342,None,n,0.34062840009573847,1402.1569119000342,None,0.34062840009573847,,,50Aloud,001,2022_Sep_12_1207,ProdSingRedoBetween,2021.2.3,59.86159995843357,
,,,,151,0,151,0,,,,,,,,,,,,,,,,,,,,,,1405.1400864000898,None,,,,,,,,,,,,,,,,,oxygen,56,152,aloud,old,blue,1403.0224392000819,None,1403.0224392000819,None,6,1.2431422000518069,1403.0224392000819,None,1.2431422000518069,1404.2976450000424,None,1404.816399400006,None,1404.816399400006,None,r,0.2971648999955505,1404.816399400006,None,0.2971648999955505,,,50Aloud,001,2022_Sep_12_1207,ProdSingRedoBetween,2021.2.3,59.86159995843357,
,,,,152,0,152,0,,,,,,,,,,,,,,,,,,,,,,1408.0921438001096,None,,,,,,,,,,,,,,,,,close,60,153,aloud,old,red,1405.6437071000692,None,1405.6437071000692,None,6,1.4939373000524938,1405.6437071000692,None,1.4939373000524938,1407.1592719000764,None,1407.6586173000978,None,1407.6586173000978,None,r,0.4149095000466332,1407.6586173000978,None,0.4149095000466332,,,50Aloud,001,2022_Sep_12_1207,ProdSingRedoBetween,2021.2.3,59.86159995843357,
,,,,153,0,153,0,,,,,,,,,,,,,,,,,,,,,,1412.2964112000773,None,,,,,,,,,,,,,,,,,second,0,154,aloud,old,yellow,1408.5986171000404,None,1408.5986171000404,None,4,2.8828935999190435,1408.5986171000404,None,2.8828935999190435,1411.5143957000691,None,1412.0345113000367,None,1412.0345113000367,None,f,0.2470104000531137,1412.0345113000367,None,0.2470104000531137,,,50Aloud,001,2022_Sep_12_1207,ProdSingRedoBetween,2021.2.3,59.86159995843357,
,,,,154,0,154,0,,,,,,,,,,,,,,,,,,,,,,1415.3327838000841,None,,,,,,,,,,,,,,,,,couch,126,155,aloud,new,null,1412.8034352000104,None,1412.8034352000104,None,2,1.7020735000260174,1412.8034352000104,None,1.7020735000260174,1414.5317549000029,None,1415.0368549000705,None,1415.0368549000705,None,n,0.26856140000745654,1415.0368549000705,None,0.26856140000745654,,,50Aloud,001,2022_Sep_12_1207,ProdSingRedoBetween,2021.2.3,59.86159995843357,
,,,,155,0,155,0,,,,,,,,,,,,,,,,,,,,,,1418.871076200041,None,,,,,,,,,,,,,,,,,clean,6,156,aloud,old,yellow,1415.8360037000384,None,1415.8360037000384,None,5,2.1734937999863178,1415.8360037000384,None,2.1734937999863178,1418.036019799998,None,1418.5396191000473,None,1418.5396191000473,None,f,0.30989370006136596,1418.5396191000473,None,0.30989370006136596,,,50Aloud,001,2022_Sep_12_1207,ProdSingRedoBetween,2021.2.3,59.86159995843357,
,,,,156,0,156,0,,,,,,,,,,,,,,,,,,,,,,1423.2407765000826,None,,,,,,,,,,,,,,,,,solution,152,157,aloud,new,null,1419.3795287000248,None,1419.3795287000248,None,3,3.005978800007142,1419.3795287000248,None,3.005978800007142,1422.4094633000204,None,1422.9348694001092,None,1422.9348694001092,None,n,0.29064329992979765,1422.9348694001092,None,0.29064329992979765,,,50Aloud,001,2022_Sep_12_1207,ProdSingRedoBetween,2021.2.3,59.86159995843357,
,,,,157,0,157,0,,,,,,,,,,,,,,,,,,,,,,1426.4801281000255,None,,,,,,,,,,,,,,,,,patient,123,158,aloud,new,null,1423.7522566000698,None,1423.7522566000698,None,3,1.801185499993153,1423.7522566000698,None,1.801185499993153,1425.5783948000753,None,1426.0981142000528,None,1426.0981142000528,None,n,0.35952129994984716,1426.0981142000528,None,0.35952129994984716,,,50Aloud,001,2022_Sep_12_1207,ProdSingRedoBetween,2021.2.3,59.86159995843357,
,,,,158,0,158,0,,,,,,,,,,,,,,,,,,,,,,1429.1309185000136,None,,,,,,,,,,,,,,,,,region,108,159,aloud,new,null,1426.9953347000992,None,1426.9953347000992,None,2,1.2622555999550968,1426.9953347000992,None,1.2622555999550968,1428.2892260000808,None,1428.7963990001008,None,1428.7963990001008,None,n,0.31724370003212243,1428.7963990001008,None,0.31724370003212243,,,50Aloud,001,2022_Sep_12_1207,ProdSingRedoBetween,2021.2.3,59.86159995843357,
,,,,159,0,159,0,,,,,,,,,,,,,,,,,,,,,,1432.2830599000445,None,,,,,,,,,,,,,,,,,concern,145,160,aloud,new,null,1429.6436312000733,None,1429.6436312000733,None,4,1.5338830000255257,1429.6436312000733,None,1.5338830000255257,1431.201313000056,None,1431.7202975000255,None,1431.7202975000255,None,f,0.5372668000636622,1431.7202975000255,None,0.5372668000636622,,,50Aloud,001,2022_Sep_12_1207,ProdSingRedoBetween,2021.2.3,59.86159995843357,
,,,,160,0,160,0,,,,,,,,,,,,,,,,,,,,,,1436.120193800074,None,,,,,,,,,,,,,,,,,hearing,157,161,aloud,new,null,1432.7901141000912,None,1432.7901141000912,None,4,2.699404799961485,1432.7901141000912,None,2.699404799961485,1435.5195769000566,None,1436.0225010000868,None,1436.0225010000868,None,f,0.08301719999872148,1436.0225010000868,None,0.08301719999872148,,,50Aloud,001,2022_Sep_12_1207,ProdSingRedoBetween,2021.2.3,59.86159995843357,
,,,,161,0,161,0,,,,,,,,,,,,,,,,,,,,,,1439.7236220000777,None,,,,,,,,,,,,,,,,,sound,133,162,aloud,new,null,1436.6305804000003,None,1436.6305804000003,None,2,2.219001100049354,1436.6305804000003,None,2.219001100049354,1438.876988700009,None,1439.392505099997,None,1439.392505099997,None,n,0.31306949991267174,1439.392505099997,None,0.31306949991267174,,,50Aloud,001,2022_Sep_12_1207,ProdSingRedoBetween,2021.2.3,59.86159995843357,
,,,,162,0,162,0,,,,,,,,,,,,,,,,,,,,,,1442.6100068000378,None,,,,,,,,,,,,,,,,,provision,164,163,aloud,new,null,1440.2265632000053,None,1440.2265632000053,None,2,1.6230798000469804,1440.2265632000053,None,1.6230798000469804,1441.8862651000964,None,1442.407624600106,None,1442.407624600106,None,n,0.17788940004538745,1442.407624600106,None,0.17788940004538745,,,50Aloud,001,2022_Sep_12_1207,ProdSingRedoBetween,2021.2.3,59.86159995843357,
,,,,163,0,163,0,,,,,,,,,,,,,,,,,,,,,,1445.2457881000591,None,,,,,,,,,,,,,,,,,finish,45,164,aloud,old,blue,1443.1190198000986,None,1443.1190198000986,None,2,1.2185311999637634,1443.1190198000986,None,1.2185311999637634,1444.3641599999974,None,1444.879173100111,None,1444.879173100111,None,n,0.3383934999583289,1444.879173100111,None,0.3383934999583289,,,50Aloud,001,2022_Sep_12_1207,ProdSingRedoBetween,2021.2.3,59.86159995843357,
,,,,164,0,164,0,,,,,,,,,,,,,,,,,,,,,,1449.0331308000023,None,,,,,,,,,,,,,,,,,character,144,165,aloud,new,null,1445.7526363000507,None,1445.7526363000507,None,3,2.5208560000173748,1445.7526363000507,None,2.5208560000173748,1448.301378400065,None,1448.8174011000665,None,1448.8174011000665,None,n,0.20016030000988394,1448.8174011000665,None,0.20016030000988394,,,50Aloud,001,2022_Sep_12_1207,ProdSingRedoBetween,2021.2.3,59.86159995843357,
,,,,165,0,165,0,,,,,,,,,,,,,,,,,,,,,,1453.037130300072,None,,,,,,,,,,,,,,,,,evidence,8,166,aloud,old,yellow,1449.5455659000436,None,1449.5455659000436,None,3,2.8559801999945194,1449.5455659000436,None,2.8559801999945194,1452.42191740009,None,1452.9371076000389,None,1452.9371076000389,None,n,0.0723828999325633,1452.9371076000389,None,0.0723828999325633,,,50Aloud,001,2022_Sep_12_1207,ProdSingRedoBetween,2021.2.3,59.86159995843357,
,,,,166,0,166,0,,,,,,,,,,,,,,,,,,,,,,1455.5561566000106,None,,,,,,,,,,,,,,,,,number,74,167,aloud,old,red,1453.5480726000387,None,1453.5480726000387,None,3,1.149512100033462,1453.5480726000387,None,1.149512100033462,1454.7253723000176,None,1455.2395091000944,None,1455.2395091000944,None,n,0.2900200999574736,1455.2395091000944,None,0.2900200999574736,,,50Aloud,001,2022_Sep_12_1207,ProdSingRedoBetween,2021.2.3,59.86159995843357,
,,,,167,0,167,0,,,,,,,,,,,,,,,,,,,,,,1460.1939849000191,None,,,,,,,,,,,,,,,,,dispute,43,168,aloud,old,blue,1456.05678730004,None,1456.05678730004,None,6,3.376732000033371,1456.05678730004,None,3.376732000033371,1459.4614842000883,None,1459.9609368999954,None,1459.9609368999954,None,r,0.20862920000217855,1459.9609368999954,None,0.20862920000217855,,,50Aloud,001,2022_Sep_12_1207,ProdSingRedoBetween,2021.2.3,59.86159995843357,
,,,,168,0,168,0,,,,,,,,,,,,,,,,,,,,,,1463.3308294001035,None,,,,,,,,,,,,,,,,,appearance,50,169,aloud,old,blue,1460.705073100049,None,1460.705073100049,None,4,1.7765053000766784,1460.705073100049,None,1.7765053000766784,1462.5000207000412,None,1463.015209000092,None,1463.015209000092,None,f,0.29840229998808354,1463.015209000092,None,0.29840229998808354,,,50Aloud,001,2022_Sep_12_1207,ProdSingRedoBetween,2021.2.3,59.86159995843357,
,,,,169,0,169,0,,,,,,,,,,,,,,,,,,,,,,1466.4505655000685,None,,,,,,,,,,,,,,,,,order,11,170,aloud,old,yellow,1463.8310992000625,None,1463.8310992000625,None,4,1.9304636999731883,1463.8310992000625,None,1.9304636999731883,1465.7846972000552,None,1466.2888634999981,None,1466.2888634999981,None,f,0.14463740005157888,1466.2888634999981,None,0.14463740005157888,,,50Aloud,001,2022_Sep_12_1207,ProdSingRedoBetween,2021.2.3,59.86159995843357,
,,,,170,0,170,0,,,,,,,,,,,,,,,,,,,,,,1468.7770296001108,None,,,,,,,,,,,,,,,,,phrase,14,171,aloud,old,yellow,1466.9626261000521,None,1466.9626261000521,None,2,1.230890900013037,1466.9626261000521,None,1.230890900013037,1468.222881600028,None,1468.7409537000349,None,1468.7409537000349,None,n,0.01273010007571429,1468.7409537000349,None,0.01273010007571429,,,50Aloud,001,2022_Sep_12_1207,ProdSingRedoBetween,2021.2.3,59.86159995843357,
,,,,171,0,171,0,,,,,,,,,,,,,,,,,,,,,,1472.3397719000932,None,,,,,,,,,,,,,,,,,escape,57,172,aloud,old,blue,1469.2944688000716,None,1469.2944688000716,None,5,2.3630878999829292,1469.2944688000716,None,2.3630878999829292,1471.6742047000444,None,1472.192005100078,None,1472.192005100078,None,f,0.12172050005756319,1472.192005100078,None,0.12172050005756319,,,50Aloud,001,2022_Sep_12_1207,ProdSingRedoBetween,2021.2.3,59.86159995843357,
,,,,172,0,172,0,,,,,,,,,,,,,,,,,,,,,,1476.1936143001076,None,,,,,,,,,,,,,,,,,court,39,173,aloud,old,blue,1472.850807400071,None,1472.850807400071,None,2,2.7507252999348566,1472.850807400071,None,2.7507252999348566,1475.6344752000878,None,1476.143988099997,None,1476.143988099997,None,n,0.02550760004669428,1476.143988099997,None,0.02550760004669428,,,50Aloud,001,2022_Sep_12_1207,ProdSingRedoBetween,2021.2.3,59.86159995843357,
,,,,173,0,173,0,,,,,,,,,,,,,,,,,,,,,,1482.100991900079,None,,,,,,,,,,,,,,,,,scene,117,174,aloud,new,null,1476.696211200091,None,1476.696211200091,None,1,4.721354200039059,1476.696211200091,None,4.721354200039059,1481.451688000001,None,1481.9716106000124,None,1481.9716106000124,None,n,0.10200130008161068,1481.9716106000124,None,0.10200130008161068,,,50Aloud,001,2022_Sep_12_1207,ProdSingRedoBetween,2021.2.3,59.86159995843357,
,,,,174,0,174,0,,,,,,,,,,,,,,,,,,,,,,1485.9033912000014,None,,,,,,,,,,,,,,,,,plane,28,175,aloud,old,yellow,1482.6023188000545,None,1482.6023188000545,None,4,2.67924700002186,1482.6023188000545,None,2.67924700002186,1485.3043186001014,None,1485.8200395000167,None,1485.8200395000167,None,f,0.0535391999874264,1485.8200395000167,None,0.0535391999874264,,,50Aloud,001,2022_Sep_12_1207,ProdSingRedoBetween,2021.2.3,59.86159995843357,
,,,,175,0,175,0,,,,,,,,,,,,,,,,,,,,,,1488.3223893000977,None,,,,,,,,,,,,,,,,,position,115,176,aloud,new,null,1486.4081390000647,None,1486.4081390000647,None,3,1.0975242999847978,1486.4081390000647,None,1.0975242999847978,1487.5238720000489,None,1488.0409645000473,None,1488.0409645000473,None,n,0.25661409995518625,1488.0409645000473,None,0.25661409995518625,,,50Aloud,001,2022_Sep_12_1207,ProdSingRedoBetween,2021.2.3,59.86159995843357,
