StudyLoop.thisRepN,StudyLoop.thisTrialN,StudyLoop.thisN,StudyLoop.thisIndex,TestLoop.thisRepN,TestLoop.thisTrialN,TestLoop.thisN,TestLoop.thisIndex,textCondition.started,textCondition.stopped,keyCondition.keys,keyCondition.rt,keyCondition.started,keyCondition.stopped,Condition,textWelcome.started,textWelcome.stopped,keyWelcome.keys,keyWelcome.rt,keyWelcome.started,keyWelcome.stopped,textAloud.started,textAloud.stopped,textSilent.started,textSilent.stopped,textSing.started,textSing.stopped,conditional_text.started,conditional_text.stopped,textBlank500.started,textBlank500.stopped,study_word,study_num,study_order,study_type,word_color,textStudy.started,textStudy.stopped,keyStudy.keys,keyStudy.started,keyStudy.stopped,textTestInstructions.started,textTestInstructions.stopped,key_resp_3.keys,key_resp_3.rt,key_resp_3.started,key_resp_3.stopped,test_word,test_num,test_order,test_condition,old_new_test,test_word_original_color,textConf.started,textConf.stopped,textConfScale.started,textConfScale.stopped,keyConf.keys,keyConf.rt,keyConf.started,keyConf.stopped,confidence response time,textTestBlank.started,textTestBlank.stopped,textRKN.started,textRKN.stopped,textRKNScale.started,textRKNScale.stopped,keyRKN.keys,keyRKN.rt,keyRKN.started,keyRKN.stopped,rkn response time,textEnd.started,textEnd.stopped,participant,session,date,expName,psychopyVersion,frameRate,
,,,,,,,,61.80933189999996,None,c,2.2118012999999905,61.80933189999996,None,,,,,,,,,,,,,,,,,,,,,,,,,,,,,,,,,,,,,,,,,,,,,,,,,,,,,,,,,,,,,,51Sing,001,2022_Sep_19_1523,ProdSingRedoBetween,2021.2.3,59.91884591509449,
,,,,,,,,,,,,,,SingTest,64.07537439999999,None,space,373.76091679999996,64.07537439999999,None,,,,,,,,,,,,,,,,,,,,,,,,,,,,,,,,,,,,,,,,,,,,,,,,,,,,,,,51Sing,001,2022_Sep_19_1523,ProdSingRedoBetween,2021.2.3,59.91884591509449,
0,0,0,0,,,,,,,,,,,,,,,,,,64.07537439999999,None,64.07537439999999,None,64.07537439999999,None,64.07537439999999,None,440.3844658,None,notice,55,1,sing,blue,438.3746422,None,None,438.3746422,None,,,,,,,,,,,,,,,,,,,,,,,,,,,,,,,,,,,51Sing,001,2022_Sep_19_1523,ProdSingRedoBetween,2021.2.3,59.91884591509449,
1,0,1,0,,,,,,,,,,,,,,,,,,,,,,,,,,442.88687039999996,None,alert,59,2,sing,yellow,440.88726979999996,None,None,440.88726979999996,None,,,,,,,,,,,,,,,,,,,,,,,,,,,,,,,,,,,51Sing,001,2022_Sep_19_1523,ProdSingRedoBetween,2021.2.3,59.91884591509449,
2,0,2,0,,,,,,,,,,,,,,,,,,,,,,,,,,445.40622719999993,None,vision,47,3,sing,blue,443.40346099999994,None,None,443.40346099999994,None,,,,,,,,,,,,,,,,,,,,,,,,,,,,,,,,,,,51Sing,001,2022_Sep_19_1523,ProdSingRedoBetween,2021.2.3,59.91884591509449,
3,0,3,0,,,,,,,,,,,,,,,,,,,,,,,,,,447.9085875,None,finance,26,4,sing,yellow,445.90731120000004,None,None,445.90731120000004,None,,,,,,,,,,,,,,,,,,,,,,,,,,,,,,,,,,,51Sing,001,2022_Sep_19_1523,ProdSingRedoBetween,2021.2.3,59.91884591509449,
4,0,4,0,,,,,,,,,,,,,,,,,,,,,,,,,,450.4279866,None,trash,44,5,sing,blue,448.413517,None,None,448.413517,None,,,,,,,,,,,,,,,,,,,,,,,,,,,,,,,,,,,51Sing,001,2022_Sep_19_1523,ProdSingRedoBetween,2021.2.3,59.91884591509449,
5,0,5,0,,,,,,,,,,,,,,,,,,,,,,,,,,452.93042109999993,None,dream,52,6,sing,blue,450.9291397,None,None,450.9291397,None,,,,,,,,,,,,,,,,,,,,,,,,,,,,,,,,,,,51Sing,001,2022_Sep_19_1523,ProdSingRedoBetween,2021.2.3,59.91884591509449,
6,0,6,0,,,,,,,,,,,,,,,,,,,,,,,,,,455.43288160000003,None,permit,68,7,sing,red,453.43095220000004,None,None,453.43095220000004,None,,,,,,,,,,,,,,,,,,,,,,,,,,,,,,,,,,,51Sing,001,2022_Sep_19_1523,ProdSingRedoBetween,2021.2.3,59.91884591509449,
7,0,7,0,,,,,,,,,,,,,,,,,,,,,,,,,,457.95211379999995,None,worker,67,8,sing,red,455.9419095,None,None,455.9419095,None,,,,,,,,,,,,,,,,,,,,,,,,,,,,,,,,,,,51Sing,001,2022_Sep_19_1523,ProdSingRedoBetween,2021.2.3,59.91884591509449,
8,0,8,0,,,,,,,,,,,,,,,,,,,,,,,,,,460.45452589999996,None,grade,40,9,sing,blue,458.4543071,None,None,458.4543071,None,,,,,,,,,,,,,,,,,,,,,,,,,,,,,,,,,,,51Sing,001,2022_Sep_19_1523,ProdSingRedoBetween,2021.2.3,59.91884591509449,
9,0,9,0,,,,,,,,,,,,,,,,,,,,,,,,,,462.95704900000004,None,blind,29,10,sing,blue,460.95505280000003,None,None,460.95505280000003,None,,,,,,,,,,,,,,,,,,,,,,,,,,,,,,,,,,,51Sing,001,2022_Sep_19_1523,ProdSingRedoBetween,2021.2.3,59.91884591509449,
10,0,10,0,,,,,,,,,,,,,,,,,,,,,,,,,,465.4762102,None,private,18,11,sing,yellow,463.4622973,None,None,463.4622973,None,,,,,,,,,,,,,,,,,,,,,,,,,,,,,,,,,,,51Sing,001,2022_Sep_19_1523,ProdSingRedoBetween,2021.2.3,59.91884591509449,
11,0,11,0,,,,,,,,,,,,,,,,,,,,,,,,,,467.9786519,None,century,19,12,sing,yellow,465.97666480000004,None,None,465.97666480000004,None,,,,,,,,,,,,,,,,,,,,,,,,,,,,,,,,,,,51Sing,001,2022_Sep_19_1523,ProdSingRedoBetween,2021.2.3,59.91884591509449,
12,0,12,0,,,,,,,,,,,,,,,,,,,,,,,,,,470.48130139999995,None,people,16,13,sing,yellow,468.48186719999995,None,None,468.48186719999995,None,,,,,,,,,,,,,,,,,,,,,,,,,,,,,,,,,,,51Sing,001,2022_Sep_19_1523,ProdSingRedoBetween,2021.2.3,59.91884591509449,
13,0,13,0,,,,,,,,,,,,,,,,,,,,,,,,,,473.0003731,None,citizen,0,14,sing,yellow,470.99196850000004,None,None,470.99196850000004,None,,,,,,,,,,,,,,,,,,,,,,,,,,,,,,,,,,,51Sing,001,2022_Sep_19_1523,ProdSingRedoBetween,2021.2.3,59.91884591509449,
14,0,14,0,,,,,,,,,,,,,,,,,,,,,,,,,,475.5193473,None,column,6,15,sing,yellow,473.50503769999995,None,None,473.50503769999995,None,,,,,,,,,,,,,,,,,,,,,,,,,,,,,,,,,,,51Sing,001,2022_Sep_19_1523,ProdSingRedoBetween,2021.2.3,59.91884591509449,
15,0,15,0,,,,,,,,,,,,,,,,,,,,,,,,,,478.02205929999997,None,express,35,16,sing,blue,476.0229585,None,None,476.0229585,None,,,,,,,,,,,,,,,,,,,,,,,,,,,,,,,,,,,51Sing,001,2022_Sep_19_1523,ProdSingRedoBetween,2021.2.3,59.91884591509449,
16,0,16,0,,,,,,,,,,,,,,,,,,,,,,,,,,480.5412449,None,platform,28,17,sing,yellow,478.5371604,None,None,478.5371604,None,,,,,,,,,,,,,,,,,,,,,,,,,,,,,,,,,,,51Sing,001,2022_Sep_19_1523,ProdSingRedoBetween,2021.2.3,59.91884591509449,
17,0,17,0,,,,,,,,,,,,,,,,,,,,,,,,,,483.04375539999995,None,bright,78,18,sing,red,481.0415261,None,None,481.0415261,None,,,,,,,,,,,,,,,,,,,,,,,,,,,,,,,,,,,51Sing,001,2022_Sep_19_1523,ProdSingRedoBetween,2021.2.3,59.91884591509449,
18,0,18,0,,,,,,,,,,,,,,,,,,,,,,,,,,485.56297909999995,None,force,1,19,sing,yellow,483.54937620000004,None,None,483.54937620000004,None,,,,,,,,,,,,,,,,,,,,,,,,,,,,,,,,,,,51Sing,001,2022_Sep_19_1523,ProdSingRedoBetween,2021.2.3,59.91884591509449,
19,0,19,0,,,,,,,,,,,,,,,,,,,,,,,,,,488.0654229,None,owner,72,20,sing,red,486.06601359999996,None,None,486.06601359999996,None,,,,,,,,,,,,,,,,,,,,,,,,,,,,,,,,,,,51Sing,001,2022_Sep_19_1523,ProdSingRedoBetween,2021.2.3,59.91884591509449,
20,0,20,0,,,,,,,,,,,,,,,,,,,,,,,,,,490.58456440000003,None,personnel,8,21,sing,yellow,488.57354559999993,None,None,488.57354559999993,None,,,,,,,,,,,,,,,,,,,,,,,,,,,,,,,,,,,51Sing,001,2022_Sep_19_1523,ProdSingRedoBetween,2021.2.3,59.91884591509449,
21,0,21,0,,,,,,,,,,,,,,,,,,,,,,,,,,493.0872039,None,crisis,2,22,sing,yellow,491.0851201,None,None,491.0851201,None,,,,,,,,,,,,,,,,,,,,,,,,,,,,,,,,,,,51Sing,001,2022_Sep_19_1523,ProdSingRedoBetween,2021.2.3,59.91884591509449,
22,0,22,0,,,,,,,,,,,,,,,,,,,,,,,,,,495.6059558,None,production,61,23,sing,red,493.5980291,None,None,493.5980291,None,,,,,,,,,,,,,,,,,,,,,,,,,,,,,,,,,,,51Sing,001,2022_Sep_19_1523,ProdSingRedoBetween,2021.2.3,59.91884591509449,
23,0,23,0,,,,,,,,,,,,,,,,,,,,,,,,,,498.10869929999996,None,balance,7,24,sing,yellow,496.1079974,None,None,496.1079974,None,,,,,,,,,,,,,,,,,,,,,,,,,,,,,,,,,,,51Sing,001,2022_Sep_19_1523,ProdSingRedoBetween,2021.2.3,59.91884591509449,
24,0,24,0,,,,,,,,,,,,,,,,,,,,,,,,,,500.61125050000004,None,estate,64,25,sing,red,498.61138639999996,None,None,498.61138639999996,None,,,,,,,,,,,,,,,,,,,,,,,,,,,,,,,,,,,51Sing,001,2022_Sep_19_1523,ProdSingRedoBetween,2021.2.3,59.91884591509449,
25,0,25,0,,,,,,,,,,,,,,,,,,,,,,,,,,503.1304919,None,display,85,26,sing,red,501.1170368,None,None,501.1170368,None,,,,,,,,,,,,,,,,,,,,,,,,,,,,,,,,,,,51Sing,001,2022_Sep_19_1523,ProdSingRedoBetween,2021.2.3,59.91884591509449,
26,0,26,0,,,,,,,,,,,,,,,,,,,,,,,,,,505.63295969999996,None,harmony,79,27,sing,red,503.633806,None,None,503.633806,None,,,,,,,,,,,,,,,,,,,,,,,,,,,,,,,,,,,51Sing,001,2022_Sep_19_1523,ProdSingRedoBetween,2021.2.3,59.91884591509449,
27,0,27,0,,,,,,,,,,,,,,,,,,,,,,,,,,508.15215040000004,None,discovery,21,28,sing,yellow,506.1389625,None,None,506.1389625,None,,,,,,,,,,,,,,,,,,,,,,,,,,,,,,,,,,,51Sing,001,2022_Sep_19_1523,ProdSingRedoBetween,2021.2.3,59.91884591509449,
28,0,28,0,,,,,,,,,,,,,,,,,,,,,,,,,,510.65463989999995,None,minute,49,29,sing,blue,508.6545534,None,None,508.6545534,None,,,,,,,,,,,,,,,,,,,,,,,,,,,,,,,,,,,51Sing,001,2022_Sep_19_1523,ProdSingRedoBetween,2021.2.3,59.91884591509449,
29,0,29,0,,,,,,,,,,,,,,,,,,,,,,,,,,513.1571227,None,rough,73,30,sing,red,511.15560120000004,None,None,511.15560120000004,None,,,,,,,,,,,,,,,,,,,,,,,,,,,,,,,,,,,51Sing,001,2022_Sep_19_1523,ProdSingRedoBetween,2021.2.3,59.91884591509449,
30,0,30,0,,,,,,,,,,,,,,,,,,,,,,,,,,515.6763986999999,None,point,33,31,sing,blue,513.6640199000001,None,None,513.6640199000001,None,,,,,,,,,,,,,,,,,,,,,,,,,,,,,,,,,,,51Sing,001,2022_Sep_19_1523,ProdSingRedoBetween,2021.2.3,59.91884591509449,
31,0,31,0,,,,,,,,,,,,,,,,,,,,,,,,,,518.1787555000001,None,nature,22,32,sing,yellow,516.176764,None,None,516.176764,None,,,,,,,,,,,,,,,,,,,,,,,,,,,,,,,,,,,51Sing,001,2022_Sep_19_1523,ProdSingRedoBetween,2021.2.3,59.91884591509449,
32,0,32,0,,,,,,,,,,,,,,,,,,,,,,,,,,520.6979865000001,None,government,37,33,sing,blue,518.6825308,None,None,518.6825308,None,,,,,,,,,,,,,,,,,,,,,,,,,,,,,,,,,,,51Sing,001,2022_Sep_19_1523,ProdSingRedoBetween,2021.2.3,59.91884591509449,
33,0,33,0,,,,,,,,,,,,,,,,,,,,,,,,,,523.2005415000001,None,command,41,34,sing,blue,521.1985937,None,None,521.1985937,None,,,,,,,,,,,,,,,,,,,,,,,,,,,,,,,,,,,51Sing,001,2022_Sep_19_1523,ProdSingRedoBetween,2021.2.3,59.91884591509449,
34,0,34,0,,,,,,,,,,,,,,,,,,,,,,,,,,525.7196618,None,company,5,35,sing,yellow,523.7156385999999,None,None,523.7156385999999,None,,,,,,,,,,,,,,,,,,,,,,,,,,,,,,,,,,,51Sing,001,2022_Sep_19_1523,ProdSingRedoBetween,2021.2.3,59.91884591509449,
35,0,35,0,,,,,,,,,,,,,,,,,,,,,,,,,,528.2221787999999,None,suggestion,69,36,sing,red,526.2201004000001,None,None,526.2201004000001,None,,,,,,,,,,,,,,,,,,,,,,,,,,,,,,,,,,,51Sing,001,2022_Sep_19_1523,ProdSingRedoBetween,2021.2.3,59.91884591509449,
36,0,36,0,,,,,,,,,,,,,,,,,,,,,,,,,,530.7413308,None,phrase,84,37,sing,red,528.7355588,None,None,528.7355588,None,,,,,,,,,,,,,,,,,,,,,,,,,,,,,,,,,,,51Sing,001,2022_Sep_19_1523,ProdSingRedoBetween,2021.2.3,59.91884591509449,
37,0,37,0,,,,,,,,,,,,,,,,,,,,,,,,,,533.2437895,None,engineer,51,38,sing,blue,531.2418115999999,None,None,531.2418115999999,None,,,,,,,,,,,,,,,,,,,,,,,,,,,,,,,,,,,51Sing,001,2022_Sep_19_1523,ProdSingRedoBetween,2021.2.3,59.91884591509449,
38,0,38,0,,,,,,,,,,,,,,,,,,,,,,,,,,535.7630311,None,turkey,10,39,sing,yellow,533.7496100000001,None,None,533.7496100000001,None,,,,,,,,,,,,,,,,,,,,,,,,,,,,,,,,,,,51Sing,001,2022_Sep_19_1523,ProdSingRedoBetween,2021.2.3,59.91884591509449,
39,0,39,0,,,,,,,,,,,,,,,,,,,,,,,,,,538.2821133,None,still,30,40,sing,blue,536.2723527,None,None,536.2723527,None,,,,,,,,,,,,,,,,,,,,,,,,,,,,,,,,,,,51Sing,001,2022_Sep_19_1523,ProdSingRedoBetween,2021.2.3,59.91884591509449,
40,0,40,0,,,,,,,,,,,,,,,,,,,,,,,,,,540.7846493,None,frank,70,41,sing,red,538.7842959,None,None,538.7842959,None,,,,,,,,,,,,,,,,,,,,,,,,,,,,,,,,,,,51Sing,001,2022_Sep_19_1523,ProdSingRedoBetween,2021.2.3,59.91884591509449,
41,0,41,0,,,,,,,,,,,,,,,,,,,,,,,,,,543.2872035999999,None,short,39,42,sing,blue,541.2851651000001,None,None,541.2851651000001,None,,,,,,,,,,,,,,,,,,,,,,,,,,,,,,,,,,,51Sing,001,2022_Sep_19_1523,ProdSingRedoBetween,2021.2.3,59.91884591509449,
42,0,42,0,,,,,,,,,,,,,,,,,,,,,,,,,,545.8064193,None,management,11,43,sing,yellow,543.7940189000001,None,None,543.7940189000001,None,,,,,,,,,,,,,,,,,,,,,,,,,,,,,,,,,,,51Sing,001,2022_Sep_19_1523,ProdSingRedoBetween,2021.2.3,59.91884591509449,
43,0,43,0,,,,,,,,,,,,,,,,,,,,,,,,,,548.3102614,None,strain,32,44,sing,blue,546.3084446999999,None,None,546.3084446999999,None,,,,,,,,,,,,,,,,,,,,,,,,,,,,,,,,,,,51Sing,001,2022_Sep_19_1523,ProdSingRedoBetween,2021.2.3,59.91884591509449,
44,0,44,0,,,,,,,,,,,,,,,,,,,,,,,,,,550.8280358,None,treatment,3,45,sing,yellow,548.8219004,None,None,548.8219004,None,,,,,,,,,,,,,,,,,,,,,,,,,,,,,,,,,,,51Sing,001,2022_Sep_19_1523,ProdSingRedoBetween,2021.2.3,59.91884591509449,
45,0,45,0,,,,,,,,,,,,,,,,,,,,,,,,,,553.3471096999999,None,shape,53,46,sing,blue,551.3324726000001,None,None,551.3324726000001,None,,,,,,,,,,,,,,,,,,,,,,,,,,,,,,,,,,,51Sing,001,2022_Sep_19_1523,ProdSingRedoBetween,2021.2.3,59.91884591509449,
46,0,46,0,,,,,,,,,,,,,,,,,,,,,,,,,,555.8663901,None,break,66,47,sing,red,553.8515669000001,None,None,553.8515669000001,None,,,,,,,,,,,,,,,,,,,,,,,,,,,,,,,,,,,51Sing,001,2022_Sep_19_1523,ProdSingRedoBetween,2021.2.3,59.91884591509449,
47,0,47,0,,,,,,,,,,,,,,,,,,,,,,,,,,558.3686620000001,None,bitter,34,48,sing,blue,556.3669012999999,None,None,556.3669012999999,None,,,,,,,,,,,,,,,,,,,,,,,,,,,,,,,,,,,51Sing,001,2022_Sep_19_1523,ProdSingRedoBetween,2021.2.3,59.91884591509449,
48,0,48,0,,,,,,,,,,,,,,,,,,,,,,,,,,560.8880672,None,chief,63,49,sing,red,558.8767296000001,None,None,558.8767296000001,None,,,,,,,,,,,,,,,,,,,,,,,,,,,,,,,,,,,51Sing,001,2022_Sep_19_1523,ProdSingRedoBetween,2021.2.3,59.91884591509449,
49,0,49,0,,,,,,,,,,,,,,,,,,,,,,,,,,563.3904944999999,None,budget,50,50,sing,blue,561.3884243,None,None,561.3884243,None,,,,,,,,,,,,,,,,,,,,,,,,,,,,,,,,,,,51Sing,001,2022_Sep_19_1523,ProdSingRedoBetween,2021.2.3,59.91884591509449,
50,0,50,0,,,,,,,,,,,,,,,,,,,,,,,,,,565.9096658999999,None,staff,9,51,sing,yellow,563.8945727,None,None,563.8945727,None,,,,,,,,,,,,,,,,,,,,,,,,,,,,,,,,,,,51Sing,001,2022_Sep_19_1523,ProdSingRedoBetween,2021.2.3,59.91884591509449,
51,0,51,0,,,,,,,,,,,,,,,,,,,,,,,,,,568.4286162999999,None,crime,23,52,sing,yellow,566.41347,None,None,566.41347,None,,,,,,,,,,,,,,,,,,,,,,,,,,,,,,,,,,,51Sing,001,2022_Sep_19_1523,ProdSingRedoBetween,2021.2.3,59.91884591509449,
52,0,52,0,,,,,,,,,,,,,,,,,,,,,,,,,,570.9480962,None,school,31,53,sing,blue,568.9400192,None,None,568.9400192,None,,,,,,,,,,,,,,,,,,,,,,,,,,,,,,,,,,,51Sing,001,2022_Sep_19_1523,ProdSingRedoBetween,2021.2.3,59.91884591509449,
53,0,53,0,,,,,,,,,,,,,,,,,,,,,,,,,,573.4505693000001,None,dance,45,54,sing,blue,571.4485863,None,None,571.4485863,None,,,,,,,,,,,,,,,,,,,,,,,,,,,,,,,,,,,51Sing,001,2022_Sep_19_1523,ProdSingRedoBetween,2021.2.3,59.91884591509449,
54,0,54,0,,,,,,,,,,,,,,,,,,,,,,,,,,575.9697309000001,None,fellow,14,55,sing,yellow,573.956831,None,None,573.956831,None,,,,,,,,,,,,,,,,,,,,,,,,,,,,,,,,,,,51Sing,001,2022_Sep_19_1523,ProdSingRedoBetween,2021.2.3,59.91884591509449,
55,0,55,0,,,,,,,,,,,,,,,,,,,,,,,,,,578.4722735,None,atmosphere,74,56,sing,red,576.4702785,None,None,576.4702785,None,,,,,,,,,,,,,,,,,,,,,,,,,,,,,,,,,,,51Sing,001,2022_Sep_19_1523,ProdSingRedoBetween,2021.2.3,59.91884591509449,
56,0,56,0,,,,,,,,,,,,,,,,,,,,,,,,,,580.974868,None,height,77,57,sing,red,578.9743326999999,None,None,578.9743326999999,None,,,,,,,,,,,,,,,,,,,,,,,,,,,,,,,,,,,51Sing,001,2022_Sep_19_1523,ProdSingRedoBetween,2021.2.3,59.91884591509449,
57,0,57,0,,,,,,,,,,,,,,,,,,,,,,,,,,583.4940265,None,measure,54,58,sing,blue,581.4860381999999,None,None,581.4860381999999,None,,,,,,,,,,,,,,,,,,,,,,,,,,,,,,,,,,,51Sing,001,2022_Sep_19_1523,ProdSingRedoBetween,2021.2.3,59.91884591509449,
58,0,58,0,,,,,,,,,,,,,,,,,,,,,,,,,,586.0131610000001,None,fashion,56,59,sing,blue,584.0007800000001,None,None,584.0007800000001,None,,,,,,,,,,,,,,,,,,,,,,,,,,,,,,,,,,,51Sing,001,2022_Sep_19_1523,ProdSingRedoBetween,2021.2.3,59.91884591509449,
59,0,59,0,,,,,,,,,,,,,,,,,,,,,,,,,,588.5155801999999,None,bureau,71,60,sing,red,586.5133860000001,None,None,586.5133860000001,None,,,,,,,,,,,,,,,,,,,,,,,,,,,,,,,,,,,51Sing,001,2022_Sep_19_1523,ProdSingRedoBetween,2021.2.3,59.91884591509449,
60,0,60,0,,,,,,,,,,,,,,,,,,,,,,,,,,591.0347562,None,exchange,48,61,sing,blue,589.0197132999999,None,None,589.0197132999999,None,,,,,,,,,,,,,,,,,,,,,,,,,,,,,,,,,,,51Sing,001,2022_Sep_19_1523,ProdSingRedoBetween,2021.2.3,59.91884591509449,
61,0,61,0,,,,,,,,,,,,,,,,,,,,,,,,,,593.53727,None,guest,12,62,sing,yellow,591.5364889,None,None,591.5364889,None,,,,,,,,,,,,,,,,,,,,,,,,,,,,,,,,,,,51Sing,001,2022_Sep_19_1523,ProdSingRedoBetween,2021.2.3,59.91884591509449,
62,0,62,0,,,,,,,,,,,,,,,,,,,,,,,,,,596.0564591,None,agreement,62,63,sing,red,594.0427189,None,None,594.0427189,None,,,,,,,,,,,,,,,,,,,,,,,,,,,,,,,,,,,51Sing,001,2022_Sep_19_1523,ProdSingRedoBetween,2021.2.3,59.91884591509449,
63,0,63,0,,,,,,,,,,,,,,,,,,,,,,,,,,598.5589786999999,None,place,43,64,sing,blue,596.5594348,None,None,596.5594348,None,,,,,,,,,,,,,,,,,,,,,,,,,,,,,,,,,,,51Sing,001,2022_Sep_19_1523,ProdSingRedoBetween,2021.2.3,59.91884591509449,
64,0,64,0,,,,,,,,,,,,,,,,,,,,,,,,,,601.0780471,None,pancakes,27,65,sing,yellow,599.0680061,None,None,599.0680061,None,,,,,,,,,,,,,,,,,,,,,,,,,,,,,,,,,,,51Sing,001,2022_Sep_19_1523,ProdSingRedoBetween,2021.2.3,59.91884591509449,
65,0,65,0,,,,,,,,,,,,,,,,,,,,,,,,,,603.5969918000001,None,passage,15,66,sing,yellow,601.5860631999999,None,None,601.5860631999999,None,,,,,,,,,,,,,,,,,,,,,,,,,,,,,,,,,,,51Sing,001,2022_Sep_19_1523,ProdSingRedoBetween,2021.2.3,59.91884591509449,
66,0,66,0,,,,,,,,,,,,,,,,,,,,,,,,,,606.099745,None,route,25,67,sing,yellow,604.0991016,None,None,604.0991016,None,,,,,,,,,,,,,,,,,,,,,,,,,,,,,,,,,,,51Sing,001,2022_Sep_19_1523,ProdSingRedoBetween,2021.2.3,59.91884591509449,
67,0,67,0,,,,,,,,,,,,,,,,,,,,,,,,,,608.6189311,None,power,88,68,sing,red,606.6135124,None,None,606.6135124,None,,,,,,,,,,,,,,,,,,,,,,,,,,,,,,,,,,,51Sing,001,2022_Sep_19_1523,ProdSingRedoBetween,2021.2.3,59.91884591509449,
68,0,68,0,,,,,,,,,,,,,,,,,,,,,,,,,,611.1214115999999,None,emergency,86,69,sing,red,609.1194450999999,None,None,609.1194450999999,None,,,,,,,,,,,,,,,,,,,,,,,,,,,,,,,,,,,51Sing,001,2022_Sep_19_1523,ProdSingRedoBetween,2021.2.3,59.91884591509449,
69,0,69,0,,,,,,,,,,,,,,,,,,,,,,,,,,613.6236744,None,listen,82,70,sing,red,611.6226948000001,None,None,611.6226948000001,None,,,,,,,,,,,,,,,,,,,,,,,,,,,,,,,,,,,51Sing,001,2022_Sep_19_1523,ProdSingRedoBetween,2021.2.3,59.91884591509449,
70,0,70,0,,,,,,,,,,,,,,,,,,,,,,,,,,616.1264234,None,raise,13,71,sing,yellow,614.1249385000001,None,None,614.1249385000001,None,,,,,,,,,,,,,,,,,,,,,,,,,,,,,,,,,,,51Sing,001,2022_Sep_19_1523,ProdSingRedoBetween,2021.2.3,59.91884591509449,
71,0,71,0,,,,,,,,,,,,,,,,,,,,,,,,,,618.6456605999999,None,broad,87,72,sing,red,616.6334890999999,None,None,616.6334890999999,None,,,,,,,,,,,,,,,,,,,,,,,,,,,,,,,,,,,51Sing,001,2022_Sep_19_1523,ProdSingRedoBetween,2021.2.3,59.91884591509449,
72,0,72,0,,,,,,,,,,,,,,,,,,,,,,,,,,621.1481448,None,smell,38,73,sing,blue,619.1461027999999,None,None,619.1461027999999,None,,,,,,,,,,,,,,,,,,,,,,,,,,,,,,,,,,,51Sing,001,2022_Sep_19_1523,ProdSingRedoBetween,2021.2.3,59.91884591509449,
73,0,73,0,,,,,,,,,,,,,,,,,,,,,,,,,,623.6674481,None,principal,80,74,sing,red,621.6620081000001,None,None,621.6620081000001,None,,,,,,,,,,,,,,,,,,,,,,,,,,,,,,,,,,,51Sing,001,2022_Sep_19_1523,ProdSingRedoBetween,2021.2.3,59.91884591509449,
74,0,74,0,,,,,,,,,,,,,,,,,,,,,,,,,,626.1698406,None,welcome,75,75,sing,red,624.1679561999999,None,None,624.1679561999999,None,,,,,,,,,,,,,,,,,,,,,,,,,,,,,,,,,,,51Sing,001,2022_Sep_19_1523,ProdSingRedoBetween,2021.2.3,59.91884591509449,
75,0,75,0,,,,,,,,,,,,,,,,,,,,,,,,,,628.6890034999999,None,empty,42,76,sing,blue,626.6749852,None,None,626.6749852,None,,,,,,,,,,,,,,,,,,,,,,,,,,,,,,,,,,,51Sing,001,2022_Sep_19_1523,ProdSingRedoBetween,2021.2.3,59.91884591509449,
76,0,76,0,,,,,,,,,,,,,,,,,,,,,,,,,,631.1914816999999,None,revolution,83,77,sing,red,629.1896368,None,None,629.1896368,None,,,,,,,,,,,,,,,,,,,,,,,,,,,,,,,,,,,51Sing,001,2022_Sep_19_1523,ProdSingRedoBetween,2021.2.3,59.91884591509449,
77,0,77,0,,,,,,,,,,,,,,,,,,,,,,,,,,633.6939789,None,crowd,17,78,sing,yellow,631.6941972,None,None,631.6941972,None,,,,,,,,,,,,,,,,,,,,,,,,,,,,,,,,,,,51Sing,001,2022_Sep_19_1523,ProdSingRedoBetween,2021.2.3,59.91884591509449,
78,0,78,0,,,,,,,,,,,,,,,,,,,,,,,,,,636.1977632,None,testimony,57,79,sing,blue,634.1975970000001,None,None,634.1975970000001,None,,,,,,,,,,,,,,,,,,,,,,,,,,,,,,,,,,,51Sing,001,2022_Sep_19_1523,ProdSingRedoBetween,2021.2.3,59.91884591509449,
79,0,79,0,,,,,,,,,,,,,,,,,,,,,,,,,,638.6989963999999,None,population,81,80,sing,red,636.6994258,None,None,636.6994258,None,,,,,,,,,,,,,,,,,,,,,,,,,,,,,,,,,,,51Sing,001,2022_Sep_19_1523,ProdSingRedoBetween,2021.2.3,59.91884591509449,
80,0,80,0,,,,,,,,,,,,,,,,,,,,,,,,,,641.2181635,None,direction,4,81,sing,yellow,639.2089392999999,None,None,639.2089392999999,None,,,,,,,,,,,,,,,,,,,,,,,,,,,,,,,,,,,51Sing,001,2022_Sep_19_1523,ProdSingRedoBetween,2021.2.3,59.91884591509449,
81,0,81,0,,,,,,,,,,,,,,,,,,,,,,,,,,643.7373643999999,None,pressure,58,82,sing,blue,641.7288163000001,None,None,641.7288163000001,None,,,,,,,,,,,,,,,,,,,,,,,,,,,,,,,,,,,51Sing,001,2022_Sep_19_1523,ProdSingRedoBetween,2021.2.3,59.91884591509449,
82,0,82,0,,,,,,,,,,,,,,,,,,,,,,,,,,646.2398782999999,None,health,60,83,sing,red,644.240258,None,None,644.240258,None,,,,,,,,,,,,,,,,,,,,,,,,,,,,,,,,,,,51Sing,001,2022_Sep_19_1523,ProdSingRedoBetween,2021.2.3,59.91884591509449,
83,0,83,0,,,,,,,,,,,,,,,,,,,,,,,,,,648.7589473999999,None,gesture,89,84,sing,red,646.7475770000001,None,None,646.7475770000001,None,,,,,,,,,,,,,,,,,,,,,,,,,,,,,,,,,,,51Sing,001,2022_Sep_19_1523,ProdSingRedoBetween,2021.2.3,59.91884591509449,
84,0,84,0,,,,,,,,,,,,,,,,,,,,,,,,,,651.2616744,None,graduate,24,85,sing,yellow,649.2594807999999,None,None,649.2594807999999,None,,,,,,,,,,,,,,,,,,,,,,,,,,,,,,,,,,,51Sing,001,2022_Sep_19_1523,ProdSingRedoBetween,2021.2.3,59.91884591509449,
85,0,85,0,,,,,,,,,,,,,,,,,,,,,,,,,,653.7641366999999,None,silence,20,86,sing,yellow,651.7634055999999,None,None,651.7634055999999,None,,,,,,,,,,,,,,,,,,,,,,,,,,,,,,,,,,,51Sing,001,2022_Sep_19_1523,ProdSingRedoBetween,2021.2.3,59.91884591509449,
86,0,86,0,,,,,,,,,,,,,,,,,,,,,,,,,,656.2831103999999,None,department,36,87,sing,blue,654.2686185,None,None,654.2686185,None,,,,,,,,,,,,,,,,,,,,,,,,,,,,,,,,,,,51Sing,001,2022_Sep_19_1523,ProdSingRedoBetween,2021.2.3,59.91884591509449,
87,0,87,0,,,,,,,,,,,,,,,,,,,,,,,,,,658.8023676999999,None,native,76,88,sing,red,656.7951063,None,None,656.7951063,None,,,,,,,,,,,,,,,,,,,,,,,,,,,,,,,,,,,51Sing,001,2022_Sep_19_1523,ProdSingRedoBetween,2021.2.3,59.91884591509449,
88,0,88,0,,,,,,,,,,,,,,,,,,,,,,,,,,661.3048578,None,entrance,46,89,sing,blue,659.3029604999999,None,None,659.3029604999999,None,,,,,,,,,,,,,,,,,,,,,,,,,,,,,,,,,,,51Sing,001,2022_Sep_19_1523,ProdSingRedoBetween,2021.2.3,59.91884591509449,
89,0,89,0,,,,,,,,,,,,,,,,,,,,,,,,,,663.8237096,None,quiet,65,90,sing,red,661.812815,None,None,661.812815,None,,,,,,,,,,,,,,,,,,,,,,,,,,,,,,,,,,,51Sing,001,2022_Sep_19_1523,ProdSingRedoBetween,2021.2.3,59.91884591509449,
,,,,,,,,,,,,,,,,,,,,,,,,,,,,,,,,,,,,,,,,,664.3249307000001,None,k,101.37475749999999,664.3249307000001,None,,,,,,,,,,,,,,,,,,,,,,,,,,,,,51Sing,001,2022_Sep_19_1523,ProdSingRedoBetween,2021.2.3,59.91884591509449,
,,,,0,0,0,0,,,,,,,,,,,,,,,,,,,,,,776.6031141000001,None,,,,,,,,,,,,,,,,,phrase,84,1,sing,old,red,766.2406676,None,766.2406676,None,4,7.746937399999979,766.2406676,None,7.746937399999979,774.0212343999999,None,774.5344840999999,None,774.5344840999999,None,f,2.053096299999993,774.5344840999999,None,2.053096299999993,,,51Sing,001,2022_Sep_19_1523,ProdSingRedoBetween,2021.2.3,59.91884591509449,
,,,,1,0,1,0,,,,,,,,,,,,,,,,,,,,,,782.42562,None,,,,,,,,,,,,,,,,,public,154,2,sing,new,null,777.1063179999999,None,777.1063179999999,None,6,3.5533439999999246,777.1063179999999,None,3.5533439999999246,780.6963903000001,None,781.2078325,None,781.2078325,None,r,1.1877959999999348,781.2078325,None,1.1877959999999348,,,51Sing,001,2022_Sep_19_1523,ProdSingRedoBetween,2021.2.3,59.91884591509449,
,,,,2,0,2,0,,,,,,,,,,,,,,,,,,,,,,787.4846692000001,None,,,,,,,,,,,,,,,,,power,88,3,sing,old,red,782.9353381000001,None,782.9353381000001,None,3,2.468476399999986,782.9353381000001,None,2.468476399999986,785.4298117000001,None,785.9373060999999,None,785.9373060999999,None,n,1.5144824999999855,785.9373060999999,None,1.5144824999999855,,,51Sing,001,2022_Sep_19_1523,ProdSingRedoBetween,2021.2.3,59.91884591509449,
,,,,3,0,3,0,,,,,,,,,,,,,,,,,,,,,,790.8507978,None,,,,,,,,,,,,,,,,,region,139,4,sing,new,null,788.0039589,None,788.0039589,None,2,1.935582400000044,788.0039589,None,1.935582400000044,789.9664708,None,790.4718359999999,None,790.4718359999999,None,n,0.3558894999999893,790.4718359999999,None,0.3558894999999893,,,51Sing,001,2022_Sep_19_1523,ProdSingRedoBetween,2021.2.3,59.91884591509449,
,,,,4,0,4,0,,,,,,,,,,,,,,,,,,,,,,795.3931017,None,,,,,,,,,,,,,,,,,candidate,95,5,sing,new,null,791.3608131000001,None,791.3608131000001,None,6,2.5547882999999274,791.3608131000001,None,2.5547882999999274,793.9398134,None,794.4544596999999,None,794.4544596999999,None,r,0.9092196999999942,794.4544596999999,None,0.9092196999999942,,,51Sing,001,2022_Sep_19_1523,ProdSingRedoBetween,2021.2.3,59.91884591509449,
,,,,5,0,5,0,,,,,,,,,,,,,,,,,,,,,,800.3933603,None,,,,,,,,,,,,,,,,,display,85,6,sing,old,red,795.9180871000001,None,795.9180871000001,None,4,3.093466899999953,795.9180871000001,None,3.093466899999953,799.0422391,None,799.5474413,None,799.5474413,None,f,0.8241871000000174,799.5474413,None,0.8241871000000174,,,51Sing,001,2022_Sep_19_1523,ProdSingRedoBetween,2021.2.3,59.91884591509449,
,,,,6,0,6,0,,,,,,,,,,,,,,,,,,,,,,804.0310420999999,None,,,,,,,,,,,,,,,,,dance,45,7,sing,old,blue,800.8964635,None,800.8964635,None,6,1.6670791000000236,800.8964635,None,1.6670791000000236,802.5801013,None,803.0839047,None,803.0839047,None,r,0.9196573000000399,803.0839047,None,0.9196573000000399,,,51Sing,001,2022_Sep_19_1523,ProdSingRedoBetween,2021.2.3,59.91884591509449,
,,,,7,0,7,0,,,,,,,,,,,,,,,,,,,,,,809.720143,None,,,,,,,,,,,,,,,,,rough,73,8,sing,old,red,804.5424499999999,None,804.5424499999999,None,4,3.2851296999999704,804.5424499999999,None,3.2851296999999704,807.8507417000001,None,808.3544901,None,808.3544901,None,f,1.3371045000001232,808.3544901,None,1.3371045000001232,,,51Sing,001,2022_Sep_19_1523,ProdSingRedoBetween,2021.2.3,59.91884591509449,
,,,,8,0,8,0,,,,,,,,,,,,,,,,,,,,,,814.0738845000001,None,,,,,,,,,,,,,,,,,direction,4,9,sing,old,yellow,810.2224463,None,810.2224463,None,3,2.2051738000000114,810.2224463,None,2.2051738000000114,812.4640954000001,None,812.9738557000001,None,812.9738557000001,None,n,1.0777160000000094,812.9738557000001,None,1.0777160000000094,,,51Sing,001,2022_Sep_19_1523,ProdSingRedoBetween,2021.2.3,59.91884591509449,
,,,,9,0,9,0,,,,,,,,,,,,,,,,,,,,,,817.2622152000001,None,,,,,,,,,,,,,,,,,husband,151,10,sing,new,null,814.5923577000001,None,814.5923577000001,None,1,1.7312019000000873,814.5923577000001,None,1.7312019000000873,816.3454507000001,None,816.8723632000001,None,816.8723632000001,None,n,0.3631937999998627,816.8723632000001,None,0.3631937999998627,,,51Sing,001,2022_Sep_19_1523,ProdSingRedoBetween,2021.2.3,59.91884591509449,
,,,,10,0,10,0,,,,,,,,,,,,,,,,,,,,,,820.8658878000001,None,,,,,,,,,,,,,,,,,quiet,65,11,sing,old,red,817.7858238000001,None,817.7858238000001,None,6,1.7137136999999711,817.7858238000001,None,1.7137136999999711,819.5311506,None,820.0505229,None,820.0505229,None,r,0.7930624000000535,820.0505229,None,0.7930624000000535,,,51Sing,001,2022_Sep_19_1523,ProdSingRedoBetween,2021.2.3,59.91884591509449,
,,,,11,0,11,0,,,,,,,,,,,,,,,,,,,,,,823.9376096000001,None,,,,,,,,,,,,,,,,,height,77,12,sing,old,red,821.381975,None,821.381975,None,2,1.8054402999998729,821.381975,None,1.8054402999998729,823.2163891,None,823.722397,None,823.722397,None,n,0.18514319999985673,823.722397,None,0.18514319999985673,,,51Sing,001,2022_Sep_19_1523,ProdSingRedoBetween,2021.2.3,59.91884591509449,
,,,,12,0,12,0,,,,,,,,,,,,,,,,,,,,,,827.6207395000001,None,,,,,,,,,,,,,,,,,cover,129,13,sing,new,null,824.4614203000001,None,824.4614203000001,None,3,2.4620961000000534,824.4614203000001,None,2.4620961000000534,826.9550169000001,None,827.4603369000001,None,827.4603369000001,None,n,0.1431483000001208,827.4603369000001,None,0.1431483000001208,,,51Sing,001,2022_Sep_19_1523,ProdSingRedoBetween,2021.2.3,59.91884591509449,
,,,,13,0,13,0,,,,,,,,,,,,,,,,,,,,,,831.4911955,None,,,,,,,,,,,,,,,,,division,116,14,sing,new,null,828.1301124000001,None,828.1301124000001,None,4,2.5854683000000023,828.1301124000001,None,2.5854683000000023,830.7443153000002,None,831.2577573000001,None,831.2577573000001,None,f,0.21777129999986755,831.2577573000001,None,0.21777129999986755,,,51Sing,001,2022_Sep_19_1523,ProdSingRedoBetween,2021.2.3,59.91884591509449,
,,,,14,0,14,0,,,,,,,,,,,,,,,,,,,,,,834.8457452,None,,,,,,,,,,,,,,,,,pressure,58,15,sing,old,blue,832.0003849,None,832.0003849,None,2,2.011136699999952,832.0003849,None,2.011136699999952,834.0291143,None,834.5488660999999,None,834.5488660999999,None,n,0.2707860000000437,834.5488660999999,None,0.2707860000000437,,,51Sing,001,2022_Sep_19_1523,ProdSingRedoBetween,2021.2.3,59.91884591509449,
,,,,15,0,15,0,,,,,,,,,,,,,,,,,,,,,,839.0864561999999,None,,,,,,,,,,,,,,,,,broad,87,16,sing,old,red,835.3452380000001,None,835.3452380000001,None,4,2.6423465000000306,835.3452380000001,None,2.6423465000000306,838.0197614000001,None,838.5316720000001,None,838.5316720000001,None,f,0.5279381000000285,838.5316720000001,None,0.5279381000000285,,,51Sing,001,2022_Sep_19_1523,ProdSingRedoBetween,2021.2.3,59.91884591509449,
,,,,16,0,16,0,,,,,,,,,,,,,,,,,,,,,,842.8204054,None,,,,,,,,,,,,,,,,,frank,70,17,sing,old,red,839.608123,None,839.608123,None,6,1.5313634999999977,839.608123,None,1.5313634999999977,841.168737,None,841.6738777,None,841.6738777,None,f,1.0976000000000568,841.6738777,None,1.0976000000000568,,,51Sing,001,2022_Sep_19_1523,ProdSingRedoBetween,2021.2.3,59.91884591509449,
,,,,17,0,17,0,,,,,,,,,,,,,,,,,,,,,,845.7552122,None,,,,,,,,,,,,,,,,,shape,53,18,sing,old,blue,843.3248442000001,None,843.3248442000001,None,1,1.686548799999855,843.3248442000001,None,1.686548799999855,845.0480512000001,None,845.5576303,None,845.5576303,None,n,0.17392369999993207,845.5576303,None,0.17392369999993207,,,51Sing,001,2022_Sep_19_1523,ProdSingRedoBetween,2021.2.3,59.91884591509449,
,,,,18,0,18,0,,,,,,,,,,,,,,,,,,,,,,849.6618926000001,None,,,,,,,,,,,,,,,,,blind,29,19,sing,old,blue,846.2594349000001,None,846.2594349000001,None,4,2.3920539999999164,846.2594349000001,None,2.3920539999999164,848.6776617,None,849.1931516,None,849.1931516,None,f,0.4505337000000509,849.1931516,None,0.4505337000000509,,,51Sing,001,2022_Sep_19_1523,ProdSingRedoBetween,2021.2.3,59.91884591509449,
,,,,19,0,19,0,,,,,,,,,,,,,,,,,,,,,,852.6455229000001,None,,,,,,,,,,,,,,,,,raise,13,20,sing,old,yellow,850.1871682000001,None,850.1871682000001,None,6,1.5124465999999757,850.1871682000001,None,1.5124465999999757,851.7378318000001,None,852.2452026999999,None,852.2452026999999,None,r,0.3742588000000069,852.2452026999999,None,0.3742588000000069,,,51Sing,001,2022_Sep_19_1523,ProdSingRedoBetween,2021.2.3,59.91884591509449,
,,,,20,0,20,0,,,,,,,,,,,,,,,,,,,,,,855.8510006000001,None,,,,,,,,,,,,,,,,,master,159,21,sing,new,null,853.1519899,None,853.1519899,None,1,1.7555794999998398,853.1519899,None,1.7555794999998398,854.9399964000002,None,855.4486081,None,855.4486081,None,n,0.371013400000038,855.4486081,None,0.371013400000038,,,51Sing,001,2022_Sep_19_1523,ProdSingRedoBetween,2021.2.3,59.91884591509449,
,,,,21,0,21,0,,,,,,,,,,,,,,,,,,,,,,858.9851943000001,None,,,,,,,,,,,,,,,,,strength,175,22,sing,new,null,856.3858651,None,856.3858651,None,4,1.7537348999999267,856.3858651,None,1.7537348999999267,858.1746234,None,858.6864005,None,858.6864005,None,f,0.26910659999998643,858.6864005,None,0.26910659999998643,,,51Sing,001,2022_Sep_19_1523,ProdSingRedoBetween,2021.2.3,59.91884591509449,
,,,,22,0,22,0,,,,,,,,,,,,,,,,,,,,,,862.7390169,None,,,,,,,,,,,,,,,,,crowd,17,23,sing,old,yellow,859.4971637000001,None,859.4971637000001,None,3,2.4342967999998564,859.4971637000001,None,2.4342967999998564,861.9562484,None,862.4576575000001,None,862.4576575000001,None,n,0.2657572999999047,862.4576575000001,None,0.2657572999999047,,,51Sing,001,2022_Sep_19_1523,ProdSingRedoBetween,2021.2.3,59.91884591509449,
,,,,23,0,23,0,,,,,,,,,,,,,,,,,,,,,,866.6951127,None,,,,,,,,,,,,,,,,,crisis,2,24,sing,old,yellow,863.2480246,None,863.2480246,None,1,2.675529099999949,863.2480246,None,2.675529099999949,865.9499907,None,866.4626314,None,866.4626314,None,n,0.20487219999995432,866.4626314,None,0.20487219999995432,,,51Sing,001,2022_Sep_19_1523,ProdSingRedoBetween,2021.2.3,59.91884591509449,
,,,,24,0,24,0,,,,,,,,,,,,,,,,,,,,,,869.3968591,None,,,,,,,,,,,,,,,,,childhood,97,25,sing,new,null,867.2239131000001,None,867.2239131000001,None,1,1.2996169000000464,867.2239131000001,None,1.2996169000000464,868.5517320000001,None,869.0714745,None,869.0714745,None,n,0.30809720000002017,869.0714745,None,0.30809720000002017,,,51Sing,001,2022_Sep_19_1523,ProdSingRedoBetween,2021.2.3,59.91884591509449,
,,,,25,0,25,0,,,,,,,,,,,,,,,,,,,,,,872.8156428,None,,,,,,,,,,,,,,,,,marriage,100,26,sing,new,null,869.9050139999999,None,869.9050139999999,None,4,1.9143697000001794,869.9050139999999,None,1.9143697000001794,871.8480248000001,None,872.3493215000001,None,872.3493215000001,None,f,0.44623330000013084,872.3493215000001,None,0.44623330000013084,,,51Sing,001,2022_Sep_19_1523,ProdSingRedoBetween,2021.2.3,59.91884591509449,
,,,,26,0,26,0,,,,,,,,,,,,,,,,,,,,,,875.9188991000001,None,,,,,,,,,,,,,,,,,discovery,21,27,sing,old,yellow,873.3187073000001,None,873.3187073000001,None,5,1.988699600000018,873.3187073000001,None,1.988699600000018,875.3356894000001,None,875.8387212,None,875.8387212,None,f,0.06070910000016738,875.8387212,None,0.06070910000016738,,,51Sing,001,2022_Sep_19_1523,ProdSingRedoBetween,2021.2.3,59.91884591509449,
,,,,27,0,27,0,,,,,,,,,,,,,,,,,,,,,,879.1888234,None,,,,,,,,,,,,,,,,,vision,47,28,sing,old,blue,876.4286793000001,None,876.4286793000001,None,4,1.8228414000000157,876.4286793000001,None,1.8228414000000157,878.2818738000001,None,878.7884744,None,878.7884744,None,f,0.3751078000000234,878.7884744,None,0.3751078000000234,,,51Sing,001,2022_Sep_19_1523,ProdSingRedoBetween,2021.2.3,59.91884591509449,
,,,,28,0,28,0,,,,,,,,,,,,,,,,,,,,,,882.0251955000001,None,,,,,,,,,,,,,,,,,count,179,29,sing,new,null,879.6973153000001,None,879.6973153000001,None,2,1.5541011999998773,879.6973153000001,None,1.5541011999998773,881.2741006000001,None,881.7785647000001,None,881.7785647000001,None,n,0.21685549999983778,881.7785647000001,None,0.21685549999983778,,,51Sing,001,2022_Sep_19_1523,ProdSingRedoBetween,2021.2.3,59.91884591509449,
,,,,29,0,29,0,,,,,,,,,,,,,,,,,,,,,,885.2948749,None,,,,,,,,,,,,,,,,,government,37,30,sing,old,blue,882.5281348000001,None,882.5281348000001,None,6,1.2994104999997944,882.5281348000001,None,1.2994104999997944,883.8519767,None,884.3650466000001,None,884.3650466000001,None,r,0.9023830000000999,884.3650466000001,None,0.9023830000000999,,,51Sing,001,2022_Sep_19_1523,ProdSingRedoBetween,2021.2.3,59.91884591509449,
,,,,30,0,30,0,,,,,,,,,,,,,,,,,,,,,,888.9983525,None,,,,,,,,,,,,,,,,,thing,167,31,sing,new,null,885.7999737,None,885.7999737,None,1,2.267327000000023,885.7999737,None,2.267327000000023,888.1004836,None,888.6147479000001,None,888.6147479000001,None,n,0.3646045000000413,888.6147479000001,None,0.3646045000000413,,,51Sing,001,2022_Sep_19_1523,ProdSingRedoBetween,2021.2.3,59.91884591509449,
,,,,31,0,31,0,,,,,,,,,,,,,,,,,,,,,,892.4184028,None,,,,,,,,,,,,,,,,,season,163,32,sing,new,null,889.4997323,None,889.4997323,None,3,2.135651800000005,889.4997323,None,2.135651800000005,891.6509755,None,892.1515997000001,None,892.1515997000001,None,n,0.23571530000003804,892.1515997000001,None,0.23571530000003804,,,51Sing,001,2022_Sep_19_1523,ProdSingRedoBetween,2021.2.3,59.91884591509449,
,,,,32,0,32,0,,,,,,,,,,,,,,,,,,,,,,895.3547159,None,,,,,,,,,,,,,,,,,hearing,176,33,sing,new,null,892.9189982,None,892.9189982,None,4,1.6603642000000036,892.9189982,None,1.6603642000000036,894.6092086000001,None,895.1211279000001,None,895.1211279000001,None,f,0.2101913000001332,895.1211279000001,None,0.2101913000001332,,,51Sing,001,2022_Sep_19_1523,ProdSingRedoBetween,2021.2.3,59.91884591509449,
,,,,33,0,33,0,,,,,,,,,,,,,,,,,,,,,,898.0073135,None,,,,,,,,,,,,,,,,,death,130,34,sing,new,null,895.8555395999999,None,895.8555395999999,None,1,1.2117875999999796,895.8555395999999,None,1.2117875999999796,897.0897695000001,None,897.590381,None,897.590381,None,n,0.3889094999999543,897.590381,None,0.3889094999999543,,,51Sing,001,2022_Sep_19_1523,ProdSingRedoBetween,2021.2.3,59.91884591509449,
,,,,34,0,34,0,,,,,,,,,,,,,,,,,,,,,,901.2104184,None,,,,,,,,,,,,,,,,,plane,94,35,sing,new,null,898.5078920000001,None,898.5078920000001,None,1,1.4474831999998514,898.5078920000001,None,1.4474831999998514,899.9760196,None,900.4765362,None,900.4765362,None,n,0.7187532000000374,900.4765362,None,0.7187532000000374,,,51Sing,001,2022_Sep_19_1523,ProdSingRedoBetween,2021.2.3,59.91884591509449,
,,,,35,0,35,0,,,,,,,,,,,,,,,,,,,,,,904.1300952000001,None,,,,,,,,,,,,,,,,,device,147,36,sing,new,null,901.7112161,None,901.7112161,None,3,1.5480909999998858,901.7112161,None,1.5480909999998858,903.2793221,None,903.7801502,None,903.7801502,None,n,0.3191739999999754,903.7801502,None,0.3191739999999754,,,51Sing,001,2022_Sep_19_1523,ProdSingRedoBetween,2021.2.3,59.91884591509449,
,,,,36,0,36,0,,,,,,,,,,,,,,,,,,,,,,908.4844965,None,,,,,,,,,,,,,,,,,smell,38,37,sing,old,blue,904.6307255000002,None,904.6307255000002,None,2,3.044613600000048,904.6307255000002,None,3.044613600000048,907.7006531,None,908.2009281,None,908.2009281,None,n,0.2584440000000541,908.2009281,None,0.2584440000000541,,,51Sing,001,2022_Sep_19_1523,ProdSingRedoBetween,2021.2.3,59.91884591509449,
,,,,37,0,37,0,,,,,,,,,,,,,,,,,,,,,,910.9034941,None,,,,,,,,,,,,,,,,,tennis,168,38,sing,new,null,908.9850819000001,None,908.9850819000001,None,1,1.2342486000000008,908.9850819000001,None,1.2342486000000008,910.2362647,None,910.736799,None,910.736799,None,n,0.13847310000005564,910.736799,None,0.13847310000005564,,,51Sing,001,2022_Sep_19_1523,ProdSingRedoBetween,2021.2.3,59.91884591509449,
,,,,38,0,38,0,,,,,,,,,,,,,,,,,,,,,,913.8064523,None,,,,,,,,,,,,,,,,,staff,9,39,sing,old,yellow,911.4041496,None,911.4041496,None,1,1.7831567000000632,911.4041496,None,1.7831567000000632,913.2058753000001,None,913.7065035,None,913.7065035,None,n,0.08087350000005245,913.7065035,None,0.08087350000005245,,,51Sing,001,2022_Sep_19_1523,ProdSingRedoBetween,2021.2.3,59.91884591509449,
,,,,39,0,39,0,,,,,,,,,,,,,,,,,,,,,,918.3612747,None,,,,,,,,,,,,,,,,,guest,12,40,sing,old,yellow,914.3070522,None,914.3070522,None,6,2.592329300000074,914.3070522,None,2.592329300000074,916.926674,None,917.427191,None,917.427191,None,r,0.9043286999999509,917.427191,None,0.9043286999999509,,,51Sing,001,2022_Sep_19_1523,ProdSingRedoBetween,2021.2.3,59.91884591509449,
,,,,40,0,40,0,,,,,,,,,,,,,,,,,,,,,,921.3305262000001,None,,,,,,,,,,,,,,,,,second,108,41,sing,new,null,918.8640321,None,918.8640321,None,4,1.7314297000000352,918.8640321,None,1.7314297000000352,920.6152228000001,None,921.1306165999999,None,921.1306165999999,None,f,0.1846891999998661,921.1306165999999,None,0.1846891999998661,,,51Sing,001,2022_Sep_19_1523,ProdSingRedoBetween,2021.2.3,59.91884591509449,
,,,,41,0,41,0,,,,,,,,,,,,,,,,,,,,,,925.9034220000001,None,,,,,,,,,,,,,,,,,force,1,42,sing,old,yellow,921.8342714,None,921.8342714,None,4,2.9129715000001397,921.8342714,None,2.9129715000001397,924.7712984,None,925.2845324,None,925.2845324,None,f,0.5907190000000355,925.2845324,None,0.5907190000000355,,,51Sing,001,2022_Sep_19_1523,ProdSingRedoBetween,2021.2.3,59.91884591509449,
,,,,42,0,42,0,,,,,,,,,,,,,,,,,,,,,,928.2923051,None,,,,,,,,,,,,,,,,,fashion,56,43,sing,old,blue,926.4190977000001,None,926.4190977000001,None,2,1.2484234999999444,926.4190977000001,None,1.2484234999999444,927.6981881000002,None,928.2106670000001,None,928.2106670000001,None,n,0.057039499999973486,928.2106670000001,None,0.057039499999973486,,,51Sing,001,2022_Sep_19_1523,ProdSingRedoBetween,2021.2.3,59.91884591509449,
,,,,43,0,43,0,,,,,,,,,,,,,,,,,,,,,,933.5103389000001,None,,,,,,,,,,,,,,,,,guide,115,44,sing,new,null,928.8049832000002,None,928.8049832000002,None,4,3.542450899999949,928.8049832000002,None,3.542450899999949,932.3817454,None,932.8924796000001,None,932.8924796000001,None,f,0.5908838999998807,932.8924796000001,None,0.5908838999998807,,,51Sing,001,2022_Sep_19_1523,ProdSingRedoBetween,2021.2.3,59.91884591509449,
,,,,44,0,44,0,,,,,,,,,,,,,,,,,,,,,,936.2795208,None,,,,,,,,,,,,,,,,,command,41,45,sing,old,blue,934.0203826,None,934.0203826,None,3,1.4150110999999015,934.0203826,None,1.4150110999999015,935.4650662000001,None,935.9815310000001,None,935.9815310000001,None,n,0.2697969999999259,935.9815310000001,None,0.2697969999999259,,,51Sing,001,2022_Sep_19_1523,ProdSingRedoBetween,2021.2.3,59.91884591509449,
,,,,45,0,45,0,,,,,,,,,,,,,,,,,,,,,,938.7982277000001,None,,,,,,,,,,,,,,,,,agreement,62,46,sing,old,red,936.7886708000001,None,936.7886708000001,None,3,1.3827622000001156,936.7886708000001,None,1.3827622000001156,938.2074499,None,938.7213561000001,None,938.7213561000001,None,n,0.04996840000012526,938.7213561000001,None,0.04996840000012526,,,51Sing,001,2022_Sep_19_1523,ProdSingRedoBetween,2021.2.3,59.91884591509449,
,,,,46,0,46,0,,,,,,,,,,,,,,,,,,,,,,941.5193159,None,,,,,,,,,,,,,,,,,dream,52,47,sing,old,blue,939.3000051000001,None,939.3000051000001,None,5,1.479371300000139,939.3000051000001,None,1.479371300000139,940.8021757000001,None,941.3204515,None,941.3204515,None,f,0.1788042000000587,941.3204515,None,0.1788042000000587,,,51Sing,001,2022_Sep_19_1523,ProdSingRedoBetween,2021.2.3,59.91884591509449,
,,,,47,0,47,0,,,,,,,,,,,,,,,,,,,,,,944.1535099,None,,,,,,,,,,,,,,,,,empty,42,48,sing,old,blue,942.0350248,None,942.0350248,None,3,1.4162713999999141,942.0350248,None,1.4162713999999141,943.4707098000001,None,943.9798421,None,943.9798421,None,n,0.14349909999987176,943.9798421,None,0.14349909999987176,,,51Sing,001,2022_Sep_19_1523,ProdSingRedoBetween,2021.2.3,59.91884591509449,
,,,,48,0,48,0,,,,,,,,,,,,,,,,,,,,,,948.3576788,None,,,,,,,,,,,,,,,,,center,111,49,sing,new,null,944.6735026000001,None,944.6735026000001,None,3,3.001792000000023,944.6735026000001,None,3.001792000000023,947.7069969000001,None,948.2102697,None,948.2102697,None,n,0.12898429999995642,948.2102697,None,0.12898429999995642,,,51Sing,001,2022_Sep_19_1523,ProdSingRedoBetween,2021.2.3,59.91884591509449,
,,,,49,0,49,0,,,,,,,,,,,,,,,,,,,,,,953.6139326,None,,,,,,,,,,,,,,,,,estate,64,50,sing,old,red,948.866935,None,948.866935,None,6,3.576418999999987,948.866935,None,3.576418999999987,952.4679502000001,None,952.9791873000001,None,952.9791873000001,None,r,0.608192999999801,952.9791873000001,None,0.608192999999801,,,51Sing,001,2022_Sep_19_1523,ProdSingRedoBetween,2021.2.3,59.91884591509449,
,,,,50,0,50,0,,,,,,,,,,,,,,,,,,,,,,956.3156779999999,None,,,,,,,,,,,,,,,,,country,143,51,sing,new,null,954.1200662000001,None,954.1200662000001,None,3,1.4914743999997881,954.1200662000001,None,1.4914743999997881,955.6399068000001,None,956.1486717,None,956.1486717,None,n,0.142644399999881,956.1486717,None,0.142644399999881,,,51Sing,001,2022_Sep_19_1523,ProdSingRedoBetween,2021.2.3,59.91884591509449,
,,,,51,0,51,0,,,,,,,,,,,,,,,,,,,,,,959.6020787,None,,,,,,,,,,,,,,,,,damage,101,52,sing,new,null,956.8304359000001,None,956.8304359000001,None,2,2.157044600000063,956.8304359000001,None,2.157044600000063,959.0198864000001,None,959.5191295,None,959.5191295,None,n,0.06823310000004312,959.5191295,None,0.06823310000004312,,,51Sing,001,2022_Sep_19_1523,ProdSingRedoBetween,2021.2.3,59.91884591509449,
,,,,52,0,52,0,,,,,,,,,,,,,,,,,,,,,,962.6432935,None,,,,,,,,,,,,,,,,,addition,177,53,sing,new,null,960.1156306,None,960.1156306,None,1,1.4719426999999996,960.1156306,None,1.4719426999999996,961.6197112,None,962.1311072000001,None,962.1311072000001,None,n,0.48025239999992664,962.1311072000001,None,0.48025239999992664,,,51Sing,001,2022_Sep_19_1523,ProdSingRedoBetween,2021.2.3,59.91884591509449,
,,,,53,0,53,0,,,,,,,,,,,,,,,,,,,,,,965.575595,None,,,,,,,,,,,,,,,,,silence,20,54,sing,old,yellow,963.1754879,None,963.1754879,None,1,1.6917958000001363,963.1754879,None,1.6917958000001363,964.893975,None,965.4103861000001,None,965.4103861000001,None,n,0.13692859999991924,965.4103861000001,None,0.13692859999991924,,,51Sing,001,2022_Sep_19_1523,ProdSingRedoBetween,2021.2.3,59.91884591509449,
,,,,54,0,54,0,,,,,,,,,,,,,,,,,,,,,,969.8624362,None,,,,,,,,,,,,,,,,,budget,50,55,sing,old,blue,966.0801901,None,966.0801901,None,2,3.163151599999992,966.0801901,None,3.163151599999992,969.2693254000001,None,969.7832592,None,969.7832592,None,n,0.0520521999999346,969.7832592,None,0.0520521999999346,,,51Sing,001,2022_Sep_19_1523,ProdSingRedoBetween,2021.2.3,59.91884591509449,
,,,,55,0,55,0,,,,,,,,,,,,,,,,,,,,,,974.6173414,None,,,,,,,,,,,,,,,,,native,76,56,sing,old,red,970.3789995,None,970.3789995,None,6,3.0404046999999537,970.3789995,None,3.0404046999999537,973.4503845000002,None,973.9523767000001,None,973.9523767000001,None,r,0.6349371999999676,973.9523767000001,None,0.6349371999999676,,,51Sing,001,2022_Sep_19_1523,ProdSingRedoBetween,2021.2.3,59.91884591509449,
,,,,56,0,56,0,,,,,,,,,,,,,,,,,,,,,,978.4211064000001,None,,,,,,,,,,,,,,,,,exchange,48,57,sing,old,blue,975.1293054,None,975.1293054,None,4,1.7781162000001132,975.1293054,None,1.7781162000001132,976.9472204000001,None,977.4569367000001,None,977.4569367000001,None,f,0.9462609999998222,977.4569367000001,None,0.9462609999998222,,,51Sing,001,2022_Sep_19_1523,ProdSingRedoBetween,2021.2.3,59.91884591509449,
,,,,57,0,57,0,,,,,,,,,,,,,,,,,,,,,,984.7469882,None,,,,,,,,,,,,,,,,,point,33,58,sing,old,blue,978.9309935000001,None,978.9309935000001,None,5,5.024257300000045,978.9309935000001,None,5.024257300000045,983.9775823,None,984.4815423,None,984.4815423,None,f,0.24198780000006082,984.4815423,None,0.24198780000006082,,,51Sing,001,2022_Sep_19_1523,ProdSingRedoBetween,2021.2.3,59.91884591509449,
,,,,58,0,58,0,,,,,,,,,,,,,,,,,,,,,,987.9305307,None,,,,,,,,,,,,,,,,,broke,102,59,sing,new,null,985.2677113,None,985.2677113,None,3,1.8155100999999831,985.2677113,None,1.8155100999999831,987.1140717000001,None,987.6190627999999,None,987.6190627999999,None,n,0.2961758999999802,987.6190627999999,None,0.2961758999999802,,,51Sing,001,2022_Sep_19_1523,ProdSingRedoBetween,2021.2.3,59.91884591509449,
,,,,59,0,59,0,,,,,,,,,,,,,,,,,,,,,,993.3192901,None,,,,,,,,,,,,,,,,,narrow,141,60,sing,new,null,988.4424748000001,None,988.4424748000001,None,2,4.1448811000000205,988.4424748000001,None,4.1448811000000205,992.6265301999999,None,993.1406316,None,993.1406316,None,n,0.15056490000006306,993.1406316,None,0.15056490000006306,,,51Sing,001,2022_Sep_19_1523,ProdSingRedoBetween,2021.2.3,59.91884591509449,
,,,,60,0,60,0,,,,,,,,,,,,,,,,,,,,,,997.0747382,None,,,,,,,,,,,,,,,,,number,132,61,sing,new,null,993.8295855000001,None,993.8295855000001,None,2,2.2216410000000906,993.8295855000001,None,2.2216410000000906,996.0718539,None,996.5762353,None,996.5762353,None,n,0.46705340000016804,996.5762353,None,0.46705340000016804,,,51Sing,001,2022_Sep_19_1523,ProdSingRedoBetween,2021.2.3,59.91884591509449,
,,,,61,0,61,0,,,,,,,,,,,,,,,,,,,,,,1001.0266997000001,None,,,,,,,,,,,,,,,,,union,133,62,sing,new,null,997.5902876,None,997.5902876,None,4,2.7489539000000605,997.5902876,None,2.7489539000000605,1000.3594588000001,None,1000.8635945000001,None,1000.8635945000001,None,f,0.139767799999845,1000.8635945000001,None,0.139767799999845,,,51Sing,001,2022_Sep_19_1523,ProdSingRedoBetween,2021.2.3,59.91884591509449,
,,,,62,0,62,0,,,,,,,,,,,,,,,,,,,,,,1003.7355304,None,,,,,,,,,,,,,,,,,voice,104,63,sing,new,null,1001.5361371000001,None,1001.5361371000001,None,3,1.4511046000000078,1001.5361371000001,None,1.4511046000000078,1003.0144699,None,1003.5296867,None,1003.5296867,None,n,0.16962390000003325,1003.5296867,None,0.16962390000003325,,,51Sing,001,2022_Sep_19_1523,ProdSingRedoBetween,2021.2.3,59.91884591509449,
,,,,63,0,63,0,,,,,,,,,,,,,,,,,,,,,,1006.8670248999999,None,,,,,,,,,,,,,,,,,object,122,64,sing,new,null,1004.2550435,None,1004.2550435,None,4,1.764176500000076,1004.2550435,None,1.764176500000076,1006.0544305999999,None,1006.5658866000001,None,1006.5658866000001,None,f,0.26936049999994793,1006.5658866000001,None,0.26936049999994793,,,51Sing,001,2022_Sep_19_1523,ProdSingRedoBetween,2021.2.3,59.91884591509449,
,,,,64,0,64,0,,,,,,,,,,,,,,,,,,,,,,1012.7727750000001,None,,,,,,,,,,,,,,,,,growth,164,65,sing,new,null,1007.3744094000001,None,1007.3744094000001,None,1,4.708825900000193,1007.3744094000001,None,4.708825900000193,1012.1076351000002,None,1012.6220519000001,None,1012.6220519000001,None,n,0.13324800000009418,1012.6220519000001,None,0.13324800000009418,,,51Sing,001,2022_Sep_19_1523,ProdSingRedoBetween,2021.2.3,59.91884591509449,
,,,,65,0,65,0,,,,,,,,,,,,,,,,,,,,,,1016.9278807000001,None,,,,,,,,,,,,,,,,,entrance,46,66,sing,old,blue,1013.2771095,None,1013.2771095,None,6,2.518067199999905,1013.2771095,None,2.518067199999905,1015.8285844,None,1016.3432359000001,None,1016.3432359000001,None,r,0.5559811000000536,1016.3432359000001,None,0.5559811000000536,,,51Sing,001,2022_Sep_19_1523,ProdSingRedoBetween,2021.2.3,59.91884591509449,
,,,,66,0,66,0,,,,,,,,,,,,,,,,,,,,,,1019.9685822000001,None,,,,,,,,,,,,,,,,,alert,59,67,sing,old,yellow,1017.4569841,None,1017.4569841,None,3,1.474280599999929,1017.4569841,None,1.474280599999929,1018.9669249000001,None,1019.480452,None,1019.480452,None,n,0.45897530000002007,1019.480452,None,0.45897530000002007,,,51Sing,001,2022_Sep_19_1523,ProdSingRedoBetween,2021.2.3,59.91884591509449,
,,,,67,0,67,0,,,,,,,,,,,,,,,,,,,,,,1023.9831770000001,None,,,,,,,,,,,,,,,,,people,16,68,sing,old,yellow,1020.4889338,None,1020.4889338,None,4,2.706161299999849,1020.4889338,None,2.706161299999849,1023.2196947,None,1023.7354318,None,1023.7354318,None,f,0.2277821000000131,1023.7354318,None,0.2277821000000131,,,51Sing,001,2022_Sep_19_1523,ProdSingRedoBetween,2021.2.3,59.91884591509449,
,,,,68,0,68,0,,,,,,,,,,,,,,,,,,,,,,1026.4886842,None,,,,,,,,,,,,,,,,,enemy,171,69,sing,new,null,1024.4843338,None,1024.4843338,None,1,1.2549070999998548,1024.4843338,None,1.2549070999998548,1025.774723,None,1026.2854622,None,1026.2854622,None,n,0.18166610000002947,1026.2854622,None,0.18166610000002947,,,51Sing,001,2022_Sep_19_1523,ProdSingRedoBetween,2021.2.3,59.91884591509449,
,,,,69,0,69,0,,,,,,,,,,,,,,,,,,,,,,1029.2220638000001,None,,,,,,,,,,,,,,,,,revolution,83,70,sing,old,red,1027.0120466,None,1027.0120466,None,6,1.5030479000001833,1027.0120466,None,1.5030479000001833,1028.538929,None,1029.0436730000001,None,1029.0436730000001,None,r,0.15955250000001797,1029.0436730000001,None,0.15955250000001797,,,51Sing,001,2022_Sep_19_1523,ProdSingRedoBetween,2021.2.3,59.91884591509449,
,,,,70,0,70,0,,,,,,,,,,,,,,,,,,,,,,1033.0419552,None,,,,,,,,,,,,,,,,,signal,110,71,sing,new,null,1029.7292504,None,1029.7292504,None,4,1.95393120000017,1029.7292504,None,1.95393120000017,1031.7094713000001,None,1032.2245227,None,1032.2245227,None,f,0.7866659999999683,1032.2245227,None,0.7866659999999683,,,51Sing,001,2022_Sep_19_1523,ProdSingRedoBetween,2021.2.3,59.91884591509449,
,,,,71,0,71,0,,,,,,,,,,,,,,,,,,,,,,1035.811612,None,,,,,,,,,,,,,,,,,pattern,166,72,sing,new,null,1033.5496142,None,1033.5496142,None,2,1.5095619999999599,1033.5496142,None,1.5095619999999599,1035.0787958,None,1035.5800476,None,1035.5800476,None,n,0.20711689999984628,1035.5800476,None,0.20711689999984628,,,51Sing,001,2022_Sep_19_1523,ProdSingRedoBetween,2021.2.3,59.91884591509449,
,,,,72,0,72,0,,,,,,,,,,,,,,,,,,,,,,1038.297366,None,,,,,,,,,,,,,,,,,mankind,172,73,sing,new,null,1036.3224167,None,1036.3224167,None,1,1.2887591000001066,1036.3224167,None,1.2887591000001066,1037.6341301,None,1038.1505069,None,1038.1505069,None,n,0.11683410000000549,1038.1505069,None,0.11683410000000549,,,51Sing,001,2022_Sep_19_1523,ProdSingRedoBetween,2021.2.3,59.91884591509449,
,,,,73,0,73,0,,,,,,,,,,,,,,,,,,,,,,1042.1855427,None,,,,,,,,,,,,,,,,,suggestion,69,74,sing,old,red,1038.803367,None,1038.803367,None,5,2.7678436999999576,1038.803367,None,2.7678436999999576,1041.6053823,None,1042.1199271,None,1042.1199271,None,f,0.043277799999941635,1042.1199271,None,0.043277799999941635,,,51Sing,001,2022_Sep_19_1523,ProdSingRedoBetween,2021.2.3,59.91884591509449,
,,,,74,0,74,0,,,,,,,,,,,,,,,,,,,,,,1045.5378692,None,,,,,,,,,,,,,,,,,pancakes,27,75,sing,old,yellow,1042.6957713,None,1042.6957713,None,1,2.099426900000026,1042.6957713,None,2.099426900000026,1044.8221491,None,1045.3267825,None,1045.3267825,None,n,0.19640849999996135,1045.3267825,None,0.19640849999996135,,,51Sing,001,2022_Sep_19_1523,ProdSingRedoBetween,2021.2.3,59.91884591509449,
,,,,75,0,75,0,,,,,,,,,,,,,,,,,,,,,,1049.4437202000001,None,,,,,,,,,,,,,,,,,gesture,89,76,sing,old,red,1046.0414713,None,1046.0414713,None,4,1.9698057000000517,1046.0414713,None,1.9698057000000517,1048.0473200000001,None,1048.5634163,None,1048.5634163,None,f,0.8637388999998166,1048.5634163,None,0.8637388999998166,,,51Sing,001,2022_Sep_19_1523,ProdSingRedoBetween,2021.2.3,59.91884591509449,
,,,,76,0,76,0,,,,,,,,,,,,,,,,,,,,,,1052.0489146,None,,,,,,,,,,,,,,,,,education,107,77,sing,new,null,1049.9730963,None,1049.9730963,None,2,1.3821697999999287,1049.9730963,None,1.3821697999999287,1051.3849095,None,1051.8945038,None,1051.8945038,None,n,0.13268829999992704,1051.8945038,None,0.13268829999992704,,,51Sing,001,2022_Sep_19_1523,ProdSingRedoBetween,2021.2.3,59.91884591509449,
,,,,77,0,77,0,,,,,,,,,,,,,,,,,,,,,,1059.2016022,None,,,,,,,,,,,,,,,,,still,30,78,sing,old,blue,1052.5746565,None,1052.5746565,None,3,5.628494900000078,1052.5746565,None,5.628494900000078,1058.2388134,None,1058.7583096,None,1058.7583096,None,n,0.4128299999999854,1058.7583096,None,0.4128299999999854,,,51Sing,001,2022_Sep_19_1523,ProdSingRedoBetween,2021.2.3,59.91884591509449,
,,,,78,0,78,0,,,,,,,,,,,,,,,,,,,,,,1064.0079031,None,,,,,,,,,,,,,,,,,principal,80,79,sing,old,red,1059.7218816,None,1059.7218816,None,3,3.1853006000001187,1059.7218816,None,3.1853006000001187,1062.9219319000001,None,1063.4300941000001,None,1063.4300941000001,None,n,0.5490601000001334,1063.4300941000001,None,0.5490601000001334,,,51Sing,001,2022_Sep_19_1523,ProdSingRedoBetween,2021.2.3,59.91884591509449,
,,,,79,0,79,0,,,,,,,,,,,,,,,,,,,,,,1066.8759299,None,,,,,,,,,,,,,,,,,notice,55,80,sing,old,blue,1064.5114017,None,1064.5114017,None,4,1.491805099999965,1064.5114017,None,1.491805099999965,1066.027758,None,1066.5434869,None,1066.5434869,None,f,0.31576369999993403,1066.5434869,None,0.31576369999993403,,,51Sing,001,2022_Sep_19_1523,ProdSingRedoBetween,2021.2.3,59.91884591509449,
,,,,80,0,80,0,,,,,,,,,,,,,,,,,,,,,,1069.6981359000001,None,,,,,,,,,,,,,,,,,motion,178,81,sing,new,null,1067.3843596000002,None,1067.3843596000002,None,2,1.706745600000204,1067.3843596000002,None,1.706745600000204,1069.1126211,None,1069.6221711,None,1069.6221711,None,n,0.05306909999990239,1069.6221711,None,0.05306909999990239,,,51Sing,001,2022_Sep_19_1523,ProdSingRedoBetween,2021.2.3,59.91884591509449,
,,,,81,0,81,0,,,,,,,,,,,,,,,,,,,,,,1072.1645527,None,,,,,,,,,,,,,,,,,territory,126,82,sing,new,null,1070.2286967,None,1070.2286967,None,1,1.23843120000015,1070.2286967,None,1.23843120000015,1071.5017299,None,1072.0184589,None,1072.0184589,None,n,0.12871800000016265,1072.0184589,None,0.12871800000016265,,,51Sing,001,2022_Sep_19_1523,ProdSingRedoBetween,2021.2.3,59.91884591509449,
,,,,82,0,82,0,,,,,,,,,,,,,,,,,,,,,,1075.1513432000002,None,,,,,,,,,,,,,,,,,committee,161,83,sing,new,null,1072.6651613000001,None,1072.6651613000001,None,5,1.6660142000000633,1072.6651613000001,None,1.6660142000000633,1074.3508852,None,1074.8506432000001,None,1074.8506432000001,None,f,0.28052729999990333,1074.8506432000001,None,0.28052729999990333,,,51Sing,001,2022_Sep_19_1523,ProdSingRedoBetween,2021.2.3,59.91884591509449,
,,,,83,0,83,0,,,,,,,,,,,,,,,,,,,,,,1079.1715512,None,,,,,,,,,,,,,,,,,platform,28,84,sing,old,yellow,1075.661994,None,1075.661994,None,4,2.3650552999999945,1075.661994,None,2.3650552999999945,1078.0562994,None,1078.5750699,None,1078.5750699,None,f,0.5720491999998103,1078.5750699,None,0.5720491999998103,,,51Sing,001,2022_Sep_19_1523,ProdSingRedoBetween,2021.2.3,59.91884591509449,
,,,,84,0,84,0,,,,,,,,,,,,,,,,,,,,,,1082.5415591,None,,,,,,,,,,,,,,,,,management,11,85,sing,old,yellow,1079.6781257,None,1079.6781257,None,3,2.1249612999999954,1079.6781257,None,2.1249612999999954,1081.825121,None,1082.3246027,None,1082.3246027,None,n,0.19842679999987922,1082.3246027,None,0.19842679999987922,,,51Sing,001,2022_Sep_19_1523,ProdSingRedoBetween,2021.2.3,59.91884591509449,
,,,,85,0,85,0,,,,,,,,,,,,,,,,,,,,,,1086.5327371,None,,,,,,,,,,,,,,,,,series,150,86,sing,new,null,1083.0525877,None,1083.0525877,None,5,2.8305094999998346,1083.0525877,None,2.8305094999998346,1085.9134587,None,1086.4401116000001,None,1086.4401116000001,None,f,0.06728180000004613,1086.4401116000001,None,0.06728180000004613,,,51Sing,001,2022_Sep_19_1523,ProdSingRedoBetween,2021.2.3,59.91884591509449,
,,,,86,0,86,0,,,,,,,,,,,,,,,,,,,,,,1090.6496579,None,,,,,,,,,,,,,,,,,minute,49,87,sing,old,blue,1087.0511695,None,1087.0511695,None,6,2.183898999999883,1087.0511695,None,2.183898999999883,1089.266212,None,1089.7780541,None,1089.7780541,None,r,0.8490024000000176,1089.7780541,None,0.8490024000000176,,,51Sing,001,2022_Sep_19_1523,ProdSingRedoBetween,2021.2.3,59.91884591509449,
,,,,87,0,87,0,,,,,,,,,,,,,,,,,,,,,,1095.4043986000001,None,,,,,,,,,,,,,,,,,household,119,88,sing,new,null,1091.1696321,None,1091.1696321,None,2,3.3055583999998817,1091.1696321,None,3.3055583999998817,1094.5101646,None,1095.0261525,None,1095.0261525,None,n,0.36091510000005655,1095.0261525,None,0.36091510000005655,,,51Sing,001,2022_Sep_19_1523,ProdSingRedoBetween,2021.2.3,59.91884591509449,
,,,,88,0,88,0,,,,,,,,,,,,,,,,,,,,,,1097.8902071,None,,,,,,,,,,,,,,,,,bitter,34,89,sing,old,blue,1095.9133878,None,1095.9133878,None,1,1.2976249999999254,1095.9133878,None,1.2976249999999254,1097.2401663,None,1097.7450488,None,1097.7450488,None,n,0.12200119999988601,1097.7450488,None,0.12200119999988601,,,51Sing,001,2022_Sep_19_1523,ProdSingRedoBetween,2021.2.3,59.91884591509449,
,,,,89,0,89,0,,,,,,,,,,,,,,,,,,,,,,1100.6763023,None,,,,,,,,,,,,,,,,,attack,120,90,sing,new,null,1098.3999768,None,1098.3999768,None,1,1.6590435999999045,1098.3999768,None,1.6590435999999045,1100.0767115,None,1100.582062,None,1100.582062,None,n,0.07694040000001223,1100.582062,None,0.07694040000001223,,,51Sing,001,2022_Sep_19_1523,ProdSingRedoBetween,2021.2.3,59.91884591509449,
,,,,90,0,90,0,,,,,,,,,,,,,,,,,,,,,,1104.7136571,None,,,,,,,,,,,,,,,,,commercial,157,91,sing,new,null,1101.1812063,None,1101.1812063,None,3,2.90985969999997,1101.1812063,None,2.90985969999997,1104.1143913,None,1104.6160347,None,1104.6160347,None,n,0.07504549999998744,1104.6160347,None,0.07504549999998744,,,51Sing,001,2022_Sep_19_1523,ProdSingRedoBetween,2021.2.3,59.91884591509449,
,,,,91,0,91,0,,,,,,,,,,,,,,,,,,,,,,1108.2002871,None,,,,,,,,,,,,,,,,,production,61,92,sing,old,red,1105.2199068,None,1105.2199068,None,5,1.895077300000139,1105.2199068,None,1.895077300000139,1107.1348506,None,1107.6535214,None,1107.6535214,None,f,0.5256025999999565,1107.6535214,None,0.5256025999999565,,,51Sing,001,2022_Sep_19_1523,ProdSingRedoBetween,2021.2.3,59.91884591509449,
,,,,92,0,92,0,,,,,,,,,,,,,,,,,,,,,,1111.2199385000001,None,,,,,,,,,,,,,,,,,course,127,93,sing,new,null,1108.7075868,None,1108.7075868,None,3,1.7595761000000039,1108.7075868,None,1.7595761000000039,1110.4887403,None,1111.0077988,None,1111.0077988,None,n,0.1873892999999498,1111.0077988,None,0.1873892999999498,,,51Sing,001,2022_Sep_19_1523,ProdSingRedoBetween,2021.2.3,59.91884591509449,
,,,,93,0,93,0,,,,,,,,,,,,,,,,,,,,,,1114.6916212,None,,,,,,,,,,,,,,,,,society,109,94,sing,new,null,1111.7307777,None,1111.7307777,None,5,2.216237799999817,1111.7307777,None,2.216237799999817,1113.9740823,None,1114.4777829,None,1114.4777829,None,f,0.1973321999998916,1114.4777829,None,0.1973321999998916,,,51Sing,001,2022_Sep_19_1523,ProdSingRedoBetween,2021.2.3,59.91884591509449,
,,,,94,0,94,0,,,,,,,,,,,,,,,,,,,,,,1118.3605675000001,None,,,,,,,,,,,,,,,,,comfort,173,95,sing,new,null,1115.2014519,None,1115.2014519,None,4,2.2496132999999645,1115.2014519,None,2.2496132999999645,1117.4854777,None,1117.9986432,None,1117.9986432,None,f,0.3324119999999766,1117.9986432,None,0.3324119999999766,,,51Sing,001,2022_Sep_19_1523,ProdSingRedoBetween,2021.2.3,59.91884591509449,
,,,,95,0,95,0,,,,,,,,,,,,,,,,,,,,,,1120.9164901000001,None,,,,,,,,,,,,,,,,,tragedy,91,96,sing,new,null,1118.8796884,None,1118.8796884,None,2,1.44334670000012,1118.8796884,None,1.44334670000012,1120.3527827,None,1120.8657018000001,None,1120.8657018000001,None,n,0.017614000000094165,1120.8657018000001,None,0.017614000000094165,,,51Sing,001,2022_Sep_19_1523,ProdSingRedoBetween,2021.2.3,59.91884591509449,
,,,,96,0,96,0,,,,,,,,,,,,,,,,,,,,,,1124.433356,None,,,,,,,,,,,,,,,,,expansion,148,97,sing,new,null,1121.4465117,None,1121.4465117,None,2,2.404521700000032,1121.4465117,None,2.404521700000032,1123.8675184,None,1124.3932777,None,1124.3932777,None,n,0.017730799999981173,1124.3932777,None,0.017730799999981173,,,51Sing,001,2022_Sep_19_1523,ProdSingRedoBetween,2021.2.3,59.91884591509449,
,,,,97,0,97,0,,,,,,,,,,,,,,,,,,,,,,1128.0366966000001,None,,,,,,,,,,,,,,,,,bureau,71,98,sing,old,red,1124.9416945,None,1124.9416945,None,6,2.1573128999998517,1124.9416945,None,2.1573128999998517,1127.1191430000001,None,1127.6222625,None,1127.6222625,None,r,0.3887267999998585,1127.6222625,None,0.3887267999998585,,,51Sing,001,2022_Sep_19_1523,ProdSingRedoBetween,2021.2.3,59.91884591509449,
,,,,98,0,98,0,,,,,,,,,,,,,,,,,,,,,,1131.7743348000001,None,,,,,,,,,,,,,,,,,treatment,3,99,sing,old,yellow,1128.5372875,None,1128.5372875,None,3,2.4097148000000743,1128.5372875,None,2.4097148000000743,1130.9755790000002,None,1131.4936414000001,None,1131.4936414000001,None,n,0.2613350999999966,1131.4936414000001,None,0.2613350999999966,,,51Sing,001,2022_Sep_19_1523,ProdSingRedoBetween,2021.2.3,59.91884591509449,
,,,,99,0,99,0,,,,,,,,,,,,,,,,,,,,,,1135.7496895,None,,,,,,,,,,,,,,,,,personnel,8,100,sing,old,yellow,1132.2759883,None,1132.2759883,None,6,2.615055600000005,1132.2759883,None,2.615055600000005,1134.9134619000001,None,1135.4383007000001,None,1135.4383007000001,None,r,0.2848057000001063,1135.4383007000001,None,0.2848057000001063,,,51Sing,001,2022_Sep_19_1523,ProdSingRedoBetween,2021.2.3,59.91884591509449,
,,,,100,0,100,0,,,,,,,,,,,,,,,,,,,,,,1138.2847326,None,,,,,,,,,,,,,,,,,session,128,101,sing,new,null,1136.2679593,None,1136.2679593,None,3,1.2470353000001069,1136.2679593,None,1.2470353000001069,1137.5473298,None,1138.0500348,None,1138.0500348,None,n,0.20904780000000756,1138.0500348,None,0.20904780000000756,,,51Sing,001,2022_Sep_19_1523,ProdSingRedoBetween,2021.2.3,59.91884591509449,
,,,,101,0,101,0,,,,,,,,,,,,,,,,,,,,,,1141.2834791,None,,,,,,,,,,,,,,,,,write,153,102,sing,new,null,1138.8112792,None,1138.8112792,None,1,1.7758559000001242,1138.8112792,None,1.7758559000001242,1140.6234798,None,1141.1436863000001,None,1141.1436863000001,None,n,0.1153287999998156,1141.1436863000001,None,0.1153287999998156,,,51Sing,001,2022_Sep_19_1523,ProdSingRedoBetween,2021.2.3,59.91884591509449,
,,,,102,0,102,0,,,,,,,,,,,,,,,,,,,,,,1144.9890822,None,,,,,,,,,,,,,,,,,citizen,0,103,sing,old,yellow,1141.8002514,None,1141.8002514,None,4,2.266798999999992,1141.8002514,None,2.266798999999992,1144.0937924,None,1144.6104671,None,1144.6104671,None,f,0.36059819999991305,1144.6104671,None,0.36059819999991305,,,51Sing,001,2022_Sep_19_1523,ProdSingRedoBetween,2021.2.3,59.91884591509449,
,,,,103,0,103,0,,,,,,,,,,,,,,,,,,,,,,1147.456011,None,,,,,,,,,,,,,,,,,fellow,14,104,sing,old,yellow,1145.5215051,None,1145.5215051,None,4,1.185535200000004,1145.5215051,None,1.185535200000004,1146.7283465,None,1147.2394061,None,1147.2394061,None,f,0.195530700000063,1147.2394061,None,0.195530700000063,,,51Sing,001,2022_Sep_19_1523,ProdSingRedoBetween,2021.2.3,59.91884591509449,
,,,,104,0,104,0,,,,,,,,,,,,,,,,,,,,,,1149.9436409,None,,,,,,,,,,,,,,,,,substance,124,105,sing,new,null,1147.9598313000001,None,1147.9598313000001,None,2,1.3151874000000134,1147.9598313000001,None,1.3151874000000134,1149.2927717,None,1149.7992514,None,1149.7992514,None,n,0.11572030000002087,1149.7992514,None,0.11572030000002087,,,51Sing,001,2022_Sep_19_1523,ProdSingRedoBetween,2021.2.3,59.91884591509449,
,,,,105,0,105,0,,,,,,,,,,,,,,,,,,,,,,1152.8783796,None,,,,,,,,,,,,,,,,,atmosphere,74,106,sing,old,red,1150.450096,None,1150.450096,None,1,1.6009429000000637,1150.450096,None,1.6009429000000637,1152.0883858,None,1152.5948849000001,None,1152.5948849000001,None,n,0.25600180000014916,1152.5948849000001,None,0.25600180000014916,,,51Sing,001,2022_Sep_19_1523,ProdSingRedoBetween,2021.2.3,59.91884591509449,
,,,,106,0,106,0,,,,,,,,,,,,,,,,,,,,,,1155.5011787,None,,,,,,,,,,,,,,,,,material,117,107,sing,new,null,1153.3844831000001,None,1153.3844831000001,None,2,1.2104749999998603,1153.3844831000001,None,1.2104749999998603,1154.619519,None,1155.1357415,None,1155.1357415,None,n,0.33126549999997223,1155.1357415,None,0.33126549999997223,,,51Sing,001,2022_Sep_19_1523,ProdSingRedoBetween,2021.2.3,59.91884591509449,
,,,,107,0,107,0,,,,,,,,,,,,,,,,,,,,,,1158.2669692,None,,,,,,,,,,,,,,,,,throw,118,108,sing,new,null,1156.0178395,None,1156.0178395,None,3,1.2891962999999578,1156.0178395,None,1.2891962999999578,1157.3392974,None,1157.8514246,None,1157.8514246,None,n,0.3915335000001505,1157.8514246,None,0.3915335000001505,,,51Sing,001,2022_Sep_19_1523,ProdSingRedoBetween,2021.2.3,59.91884591509449,
,,,,108,0,108,0,,,,,,,,,,,,,,,,,,,,,,1161.3424908,None,,,,,,,,,,,,,,,,,emergency,86,109,sing,old,red,1158.7858771,None,1158.7858771,None,4,1.6411266000000069,1158.7858771,None,1.6411266000000069,1160.4603848000002,None,1160.9724709,None,1160.9724709,None,f,0.3426191999999446,1160.9724709,None,0.3426191999999446,,,51Sing,001,2022_Sep_19_1523,ProdSingRedoBetween,2021.2.3,59.91884591509449,
,,,,109,0,109,0,,,,,,,,,,,,,,,,,,,,,,1165.7431663,None,,,,,,,,,,,,,,,,,route,25,110,sing,old,yellow,1161.8668378,None,1161.8668378,None,6,2.7442120000000614,1161.8668378,None,2.7442120000000614,1164.644232,None,1165.1588643,None,1165.1588643,None,r,0.5561427000000094,1165.1588643,None,0.5561427000000094,,,51Sing,001,2022_Sep_19_1523,ProdSingRedoBetween,2021.2.3,59.91884591509449,
,,,,110,0,110,0,,,,,,,,,,,,,,,,,,,,,,1169.0828671,None,,,,,,,,,,,,,,,,,disease,112,111,sing,new,null,1166.2745166,None,1166.2745166,None,4,1.936336400000073,1166.2745166,None,1.936336400000073,1168.2300076000001,None,1168.7487805,None,1168.7487805,None,f,0.3022158999999647,1168.7487805,None,0.3022158999999647,,,51Sing,001,2022_Sep_19_1523,ProdSingRedoBetween,2021.2.3,59.91884591509449,
,,,,111,0,111,0,,,,,,,,,,,,,,,,,,,,,,1173.8159936,None,,,,,,,,,,,,,,,,,right,155,112,sing,new,null,1169.6041396,None,1169.6041396,None,2,2.670790300000135,1169.6041396,None,2.670790300000135,1172.3004552,None,1172.8150568,None,1172.8150568,None,n,0.9719176000000971,1172.8150568,None,0.9719176000000971,,,51Sing,001,2022_Sep_19_1523,ProdSingRedoBetween,2021.2.3,59.91884591509449,
,,,,112,0,112,0,,,,,,,,,,,,,,,,,,,,,,1178.6735871,None,,,,,,,,,,,,,,,,,engineer,51,113,sing,old,blue,1174.3275218,None,1174.3275218,None,1,3.5795196999999916,1174.3275218,None,3.5795196999999916,1177.9473244,None,1178.456059,None,1178.456059,None,n,0.19490939999991497,1178.456059,None,0.19490939999991497,,,51Sing,001,2022_Sep_19_1523,ProdSingRedoBetween,2021.2.3,59.91884591509449,
,,,,113,0,113,0,,,,,,,,,,,,,,,,,,,,,,1181.406876,None,,,,,,,,,,,,,,,,,testimony,57,114,sing,old,blue,1179.190738,None,1179.190738,None,4,1.588247999999794,1179.190738,None,1.588247999999794,1180.8255326,None,1181.3410427000001,None,1181.3410427000001,None,f,0.045915400000012596,1181.3410427000001,None,0.045915400000012596,,,51Sing,001,2022_Sep_19_1523,ProdSingRedoBetween,2021.2.3,59.91884591509449,
,,,,114,0,114,0,,,,,,,,,,,,,,,,,,,,,,1184.8602479,None,,,,,,,,,,,,,,,,,sweet,136,115,sing,new,null,1181.9154156,None,1181.9154156,None,2,2.159466600000087,1181.9154156,None,2.159466600000087,1184.0942286,None,1184.5999604,None,1184.5999604,None,n,0.24295600000004924,1184.5999604,None,0.24295600000004924,,,51Sing,001,2022_Sep_19_1523,ProdSingRedoBetween,2021.2.3,59.91884591509449,
,,,,115,0,115,0,,,,,,,,,,,,,,,,,,,,,,1188.8808744,None,,,,,,,,,,,,,,,,,finance,26,116,sing,old,yellow,1185.3737936,None,1185.3737936,None,5,2.6211297000002105,1185.3737936,None,2.6211297000002105,1188.0208119000001,None,1188.5308031,None,1188.5308031,None,f,0.3201105999999072,1188.5308031,None,0.3201105999999072,,,51Sing,001,2022_Sep_19_1523,ProdSingRedoBetween,2021.2.3,59.91884591509449,
,,,,116,0,116,0,,,,,,,,,,,,,,,,,,,,,,1192.1008172,None,,,,,,,,,,,,,,,,,capital,156,117,sing,new,null,1189.3815599,None,1189.3815599,None,3,1.725279799999953,1189.3815599,None,1.725279799999953,1191.1352631,None,1191.6550322,None,1191.6550322,None,n,0.4278099000000566,1191.6550322,None,0.4278099000000566,,,51Sing,001,2022_Sep_19_1523,ProdSingRedoBetween,2021.2.3,59.91884591509449,
,,,,117,0,117,0,,,,,,,,,,,,,,,,,,,,,,1199.7418097,None,,,,,,,,,,,,,,,,,break,66,118,sing,old,red,1192.6130666000001,None,1192.6130666000001,None,3,6.533765500000072,1192.6130666000001,None,6.533765500000072,1199.1754686,None,1199.6793337000001,None,1199.6793337000001,None,f,0.04356680000000779,1199.6793337000001,None,0.04356680000000779,,,51Sing,001,2022_Sep_19_1523,ProdSingRedoBetween,2021.2.3,59.91884591509449,
,,,,118,0,118,0,,,,,,,,,,,,,,,,,,,,,,1202.7485549,None,,,,,,,,,,,,,,,,,express,35,119,sing,old,blue,1200.2501232,None,1200.2501232,None,4,1.6249182999999903,1200.2501232,None,1.6249182999999903,1201.8987315,None,1202.4110094,None,1202.4110094,None,f,0.30394890000002306,1202.4110094,None,0.30394890000002306,,,51Sing,001,2022_Sep_19_1523,ProdSingRedoBetween,2021.2.3,59.91884591509449,
,,,,119,0,119,0,,,,,,,,,,,,,,,,,,,,,,1208.6855227,None,,,,,,,,,,,,,,,,,trash,44,120,sing,old,blue,1203.2643657,None,1203.2643657,None,6,4.178449300000011,1203.2643657,None,4.178449300000011,1207.4729533,None,1207.9861114,None,1207.9861114,None,r,0.6808181999999761,1207.9861114,None,0.6808181999999761,,,51Sing,001,2022_Sep_19_1523,ProdSingRedoBetween,2021.2.3,59.91884591509449,
,,,,120,0,120,0,,,,,,,,,,,,,,,,,,,,,,1212.3208626,None,,,,,,,,,,,,,,,,,company,5,121,sing,old,yellow,1209.1896815,None,1209.1896815,None,3,2.3733561999999893,1209.1896815,None,2.3733561999999893,1211.5940781,None,1212.1292395,None,1212.1292395,None,n,0.16956660000005286,1212.1292395,None,0.16956660000005286,,,51Sing,001,2022_Sep_19_1523,ProdSingRedoBetween,2021.2.3,59.91884591509449,
,,,,121,0,121,0,,,,,,,,,,,,,,,,,,,,,,1216.4750472,None,,,,,,,,,,,,,,,,,community,99,122,sing,new,null,1212.8224974,None,1212.8224974,None,3,2.820429200000035,1212.8224974,None,2.820429200000035,1215.6665935,None,1216.1762843000001,None,1216.1762843000001,None,n,0.2746047999999064,1216.1762843000001,None,0.2746047999999064,,,51Sing,001,2022_Sep_19_1523,ProdSingRedoBetween,2021.2.3,59.91884591509449,
,,,,122,0,122,0,,,,,,,,,,,,,,,,,,,,,,1219.5219203000001,None,,,,,,,,,,,,,,,,,measure,54,123,sing,old,blue,1216.9836059,None,1216.9836059,None,4,1.6112739000000147,1216.9836059,None,1.6112739000000147,1218.61266,None,1219.1279021,None,1219.1279021,None,f,0.36295610000001943,1219.1279021,None,0.36295610000001943,,,51Sing,001,2022_Sep_19_1523,ProdSingRedoBetween,2021.2.3,59.91884591509449,
,,,,123,0,123,0,,,,,,,,,,,,,,,,,,,,,,1222.733876,None,,,,,,,,,,,,,,,,,place,43,124,sing,old,blue,1220.0454717,None,1220.0454717,None,5,1.8614735999999539,1220.0454717,None,1.8614735999999539,1221.936569,None,1222.4481854,None,1222.4481854,None,f,0.2667713000000731,1222.4481854,None,0.2667713000000731,,,51Sing,001,2022_Sep_19_1523,ProdSingRedoBetween,2021.2.3,59.91884591509449,
,,,,124,0,124,0,,,,,,,,,,,,,,,,,,,,,,1225.8204921000001,None,,,,,,,,,,,,,,,,,trial,93,125,sing,new,null,1223.2533008,None,1223.2533008,None,2,1.4695424000001367,1223.2533008,None,1.4695424000001367,1224.7527943,None,1225.2672833000001,None,1225.2672833000001,None,n,0.5275866999998016,1225.2672833000001,None,0.5275866999998016,,,51Sing,001,2022_Sep_19_1523,ProdSingRedoBetween,2021.2.3,59.91884591509449,
,,,,125,0,125,0,,,,,,,,,,,,,,,,,,,,,,1229.5549073,None,,,,,,,,,,,,,,,,,quantity,113,126,sing,new,null,1226.3561280000001,None,1226.3561280000001,None,3,2.1749075999998695,1226.3561280000001,None,2.1749075999998695,1228.5634782,None,1229.074403,None,1229.074403,None,n,0.45643889999996645,1229.074403,None,0.45643889999996645,,,51Sing,001,2022_Sep_19_1523,ProdSingRedoBetween,2021.2.3,59.91884591509449,
,,,,126,0,126,0,,,,,,,,,,,,,,,,,,,,,,1232.6913651,None,,,,,,,,,,,,,,,,,permit,68,127,sing,old,red,1230.0630167,None,1230.0630167,None,6,1.6597792999998546,1230.0630167,None,1.6597792999998546,1231.7435358,None,1232.266946,None,1232.266946,None,r,0.3999341999999615,1232.266946,None,0.3999341999999615,,,51Sing,001,2022_Sep_19_1523,ProdSingRedoBetween,2021.2.3,59.91884591509449,
,,,,127,0,127,0,,,,,,,,,,,,,,,,,,,,,,1237.979882,None,,,,,,,,,,,,,,,,,drove,146,128,sing,new,null,1233.2015933,None,1233.2015933,None,3,3.953219999999874,1233.2015933,None,3.953219999999874,1237.1802247,None,1237.6832233,None,1237.6832233,None,n,0.2795831000000817,1237.6832233,None,0.2795831000000817,,,51Sing,001,2022_Sep_19_1523,ProdSingRedoBetween,2021.2.3,59.91884591509449,
,,,,128,0,128,0,,,,,,,,,,,,,,,,,,,,,,1240.8660371,None,,,,,,,,,,,,,,,,,short,39,129,sing,old,blue,1238.4844307,None,1238.4844307,None,1,1.5182942999999796,1238.4844307,None,1.5182942999999796,1240.0326589000001,None,1240.5378474000001,None,1240.5378474000001,None,n,0.29709909999996853,1240.5378474000001,None,0.29709909999996853,,,51Sing,001,2022_Sep_19_1523,ProdSingRedoBetween,2021.2.3,59.91884591509449,
,,,,129,0,129,0,,,,,,,,,,,,,,,,,,,,,,1243.7716516,None,,,,,,,,,,,,,,,,,mayor,121,130,sing,new,null,1241.3693382000001,None,1241.3693382000001,None,1,1.5614743999999519,1241.3693382000001,None,1.5614743999999519,1242.9544793,None,1243.4726497000001,None,1243.4726497000001,None,n,0.26624629999992067,1243.4726497000001,None,0.26624629999992067,,,51Sing,001,2022_Sep_19_1523,ProdSingRedoBetween,2021.2.3,59.91884591509449,
,,,,130,0,130,0,,,,,,,,,,,,,,,,,,,,,,1247.7069044,None,,,,,,,,,,,,,,,,,crime,23,131,sing,old,yellow,1244.2951713,None,1244.2951713,None,3,2.459634499999993,1244.2951713,None,2.459634499999993,1246.7777803000001,None,1247.2973759000001,None,1247.2973759000001,None,n,0.393395000000055,1247.2973759000001,None,0.393395000000055,,,51Sing,001,2022_Sep_19_1523,ProdSingRedoBetween,2021.2.3,59.91884591509449,
,,,,131,0,131,0,,,,,,,,,,,,,,,,,,,,,,1250.7590148,None,,,,,,,,,,,,,,,,,science,162,132,sing,new,null,1248.2143472,None,1248.2143472,None,3,1.7245435999998335,1248.2143472,None,1.7245435999998335,1249.9660602000001,None,1250.4762185,None,1250.4762185,None,n,0.25459780000005594,1250.4762185,None,0.25459780000005594,,,51Sing,001,2022_Sep_19_1523,ProdSingRedoBetween,2021.2.3,59.91884591509449,
,,,,132,0,132,0,,,,,,,,,,,,,,,,,,,,,,1254.5821239,None,,,,,,,,,,,,,,,,,welcome,75,133,sing,old,red,1251.2700923,None,1251.2700923,None,2,2.621007899999995,1251.2700923,None,2.621007899999995,1253.9238058,None,1254.4299067,None,1254.4299067,None,n,0.13291879999997036,1254.4299067,None,0.13291879999997036,,,51Sing,001,2022_Sep_19_1523,ProdSingRedoBetween,2021.2.3,59.91884591509449,
,,,,133,0,133,0,,,,,,,,,,,,,,,,,,,,,,1257.5994731,None,,,,,,,,,,,,,,,,,passage,15,134,sing,old,yellow,1255.0991668000001,None,1255.0991668000001,None,5,1.519620600000053,1255.0991668000001,None,1.519620600000053,1256.6495478,None,1257.1537548000001,None,1257.1537548000001,None,f,0.4250246999999945,1257.1537548000001,None,0.4250246999999945,,,51Sing,001,2022_Sep_19_1523,ProdSingRedoBetween,2021.2.3,59.91884591509449,
,,,,134,0,134,0,,,,,,,,,,,,,,,,,,,,,,1260.9528232,None,,,,,,,,,,,,,,,,,track,160,135,sing,new,null,1258.1008301,None,1258.1008301,None,5,2.0299509999999827,1258.1008301,None,2.0299509999999827,1260.1521812,None,1260.657072,None,1260.657072,None,f,0.2738091999999597,1260.657072,None,0.2738091999999597,,,51Sing,001,2022_Sep_19_1523,ProdSingRedoBetween,2021.2.3,59.91884591509449,
,,,,135,0,135,0,,,,,,,,,,,,,,,,,,,,,,1265.6083047,None,,,,,,,,,,,,,,,,,article,105,136,sing,new,null,1261.4687288,None,1261.4687288,None,3,3.518135999999913,1261.4687288,None,3.518135999999913,1265.0128138,None,1265.528152,None,1265.528152,None,f,0.05104899999992085,1265.528152,None,0.05104899999992085,,,51Sing,001,2022_Sep_19_1523,ProdSingRedoBetween,2021.2.3,59.91884591509449,
,,,,136,0,136,0,,,,,,,,,,,,,,,,,,,,,,1271.5800661,None,,,,,,,,,,,,,,,,,worker,67,137,sing,old,red,1266.1245758,None,1266.1245758,None,2,3.902268900000081,1266.1245758,None,3.902268900000081,1270.0612504,None,1270.5643895,None,1270.5643895,None,n,0.9983529000000999,1270.5643895,None,0.9983529000000999,,,51Sing,001,2022_Sep_19_1523,ProdSingRedoBetween,2021.2.3,59.91884591509449,
,,,,137,0,137,0,,,,,,,,,,,,,,,,,,,,,,1274.5163612000001,None,,,,,,,,,,,,,,,,,tough,149,138,sing,new,null,1272.0964788,None,1272.0964788,None,1,1.5223426000000018,1272.0964788,None,1.5223426000000018,1273.6597907,None,1274.1733862,None,1274.1733862,None,n,0.31738210000003164,1274.1733862,None,0.31738210000003164,,,51Sing,001,2022_Sep_19_1523,ProdSingRedoBetween,2021.2.3,59.91884591509449,
,,,,138,0,138,0,,,,,,,,,,,,,,,,,,,,,,1277.152343,None,,,,,,,,,,,,,,,,,afternoon,114,139,sing,new,null,1275.0296282,None,1275.0296282,None,1,1.4611927999999352,1275.0296282,None,1.4611927999999352,1276.5303054,None,1277.0380278,None,1277.0380278,None,n,0.09273480000001655,1277.0380278,None,0.09273480000001655,,,51Sing,001,2022_Sep_19_1523,ProdSingRedoBetween,2021.2.3,59.91884591509449,
,,,,139,0,139,0,,,,,,,,,,,,,,,,,,,,,,1279.8716623,None,,,,,,,,,,,,,,,,,executive,135,140,sing,new,null,1277.6596641,None,1277.6596641,None,5,1.5350322999997843,1277.6596641,None,1.5350322999997843,1279.2225578,None,1279.7273273,None,1279.7273273,None,f,0.11552330000017719,1279.7273273,None,0.11552330000017719,,,51Sing,001,2022_Sep_19_1523,ProdSingRedoBetween,2021.2.3,59.91884591509449,
,,,,140,0,140,0,,,,,,,,,,,,,,,,,,,,,,1282.3741909,None,,,,,,,,,,,,,,,,,strain,32,141,sing,old,blue,1280.3814565,None,1280.3814565,None,3,1.3732820999998694,1280.3814565,None,1.3732820999998694,1281.774897,None,1282.2786017,None,1282.2786017,None,f,0.07612970000013775,1282.2786017,None,0.07612970000013775,,,51Sing,001,2022_Sep_19_1523,ProdSingRedoBetween,2021.2.3,59.91884591509449,
,,,,141,0,141,0,,,,,,,,,,,,,,,,,,,,,,1285.0432818,None,,,,,,,,,,,,,,,,,column,6,142,sing,old,yellow,1282.8810317,None,1282.8810317,None,6,1.2816545000000588,1282.8810317,None,1.2816545000000588,1284.1932506,None,1284.6959614,None,1284.6959614,None,r,0.3228356000001895,1284.6959614,None,0.3228356000001895,,,51Sing,001,2022_Sep_19_1523,ProdSingRedoBetween,2021.2.3,59.91884591509449,
,,,,142,0,142,0,,,,,,,,,,,,,,,,,,,,,,1287.9986678,None,,,,,,,,,,,,,,,,,school,31,143,sing,old,blue,1285.5481352,None,1285.5481352,None,4,1.5907452999999805,1285.5481352,None,1.5907452999999805,1287.1787282,None,1287.6794868,None,1287.6794868,None,f,0.2912939999998798,1287.6794868,None,0.2912939999998798,,,51Sing,001,2022_Sep_19_1523,ProdSingRedoBetween,2021.2.3,59.91884591509449,
,,,,143,0,143,0,,,,,,,,,,,,,,,,,,,,,,1291.0664756,None,,,,,,,,,,,,,,,,,thick,142,144,sing,new,null,1288.5138222,None,1288.5138222,None,3,1.7688560999999936,1288.5138222,None,1.7688560999999936,1290.3000006,None,1290.8054803,None,1290.8054803,None,n,0.2451656999999159,1290.8054803,None,0.2451656999999159,,,51Sing,001,2022_Sep_19_1523,ProdSingRedoBetween,2021.2.3,59.91884591509449,
,,,,144,0,144,0,,,,,,,,,,,,,,,,,,,,,,1299.524588,None,,,,,,,,,,,,,,,,,scene,138,145,sing,new,null,1291.5714033,None,1291.5714033,None,2,7.247327899999846,1291.5714033,None,7.247327899999846,1298.8417607000001,None,1299.3412662,None,1299.3412662,None,n,0.1654190000001563,1299.3412662,None,0.1654190000001563,,,51Sing,001,2022_Sep_19_1523,ProdSingRedoBetween,2021.2.3,59.91884591509449,
,,,,145,0,145,0,,,,,,,,,,,,,,,,,,,,,,1302.2121441,None,,,,,,,,,,,,,,,,,provision,96,146,sing,new,null,1300.03676,None,1300.03676,None,4,1.5500346999999692,1300.03676,None,1.5500346999999692,1301.6190704,None,1302.1288809,None,1302.1288809,None,f,0.041728799999873445,1302.1288809,None,0.041728799999873445,,,51Sing,001,2022_Sep_19_1523,ProdSingRedoBetween,2021.2.3,59.91884591509449,
,,,,146,0,146,0,,,,,,,,,,,,,,,,,,,,,,1304.7173344,None,,,,,,,,,,,,,,,,,detective,123,147,sing,new,null,1302.7278617,None,1302.7278617,None,3,1.3708331000000271,1302.7278617,None,1.3708331000000271,1304.1323198,None,1304.6465354,None,1304.6465354,None,n,0.044261699999879056,1304.6465354,None,0.044261699999879056,,,51Sing,001,2022_Sep_19_1523,ProdSingRedoBetween,2021.2.3,59.91884591509449,
,,,,147,0,147,0,,,,,,,,,,,,,,,,,,,,,,1307.0154751,None,,,,,,,,,,,,,,,,,nature,22,148,sing,old,yellow,1305.2364447,None,1305.2364447,None,3,1.1343582999998034,1305.2364447,None,1.1343582999998034,1306.4061599000001,None,1306.91706,None,1306.91706,None,n,0.06964190000007875,1306.91706,None,0.06964190000007875,,,51Sing,001,2022_Sep_19_1523,ProdSingRedoBetween,2021.2.3,59.91884591509449,
,,,,148,0,148,0,,,,,,,,,,,,,,,,,,,,,,1309.4860309,None,,,,,,,,,,,,,,,,,resistance,158,149,sing,new,null,1307.5250077,None,1307.5250077,None,4,1.2697912999999517,1307.5250077,None,1.2697912999999517,1308.8202157,None,1309.3389322,None,1309.3389322,None,f,0.1199056999998902,1309.3389322,None,0.1199056999998902,,,51Sing,001,2022_Sep_19_1523,ProdSingRedoBetween,2021.2.3,59.91884591509449,
,,,,149,0,149,0,,,,,,,,,,,,,,,,,,,,,,1311.953546,None,,,,,,,,,,,,,,,,,accident,103,150,sing,new,null,1309.9931164,None,1309.9931164,None,4,1.2255592999999863,1309.9931164,None,1.2255592999999863,1311.2362068,None,1311.7433195,None,1311.7433195,None,f,0.1793184000000565,1311.7433195,None,0.1793184000000565,,,51Sing,001,2022_Sep_19_1523,ProdSingRedoBetween,2021.2.3,59.91884591509449,
,,,,150,0,150,0,,,,,,,,,,,,,,,,,,,,,,1316.2914929,None,,,,,,,,,,,,,,,,,graduate,24,151,sing,old,yellow,1312.4625655,None,1312.4625655,None,6,2.2361298999999235,1312.4625655,None,2.2361298999999235,1314.7281458,None,1315.2427042,None,1315.2427042,None,f,1.0239480000000185,1315.2427042,None,1.0239480000000185,,,51Sing,001,2022_Sep_19_1523,ProdSingRedoBetween,2021.2.3,59.91884591509449,
,,,,151,0,151,0,,,,,,,,,,,,,,,,,,,,,,1321.496557,None,,,,,,,,,,,,,,,,,light,125,152,sing,new,null,1316.8050202,None,1316.8050202,None,5,3.8456723000001602,1316.8050202,None,3.8456723000001602,1320.6798731000001,None,1321.1819457000001,None,1321.1819457000001,None,f,0.29275910000001204,1321.1819457000001,None,0.29275910000001204,,,51Sing,001,2022_Sep_19_1523,ProdSingRedoBetween,2021.2.3,59.91884591509449,
,,,,152,0,152,0,,,,,,,,,,,,,,,,,,,,,,1325.9343323,None,,,,,,,,,,,,,,,,,symbol,174,153,sing,new,null,1322.0039307,None,1322.0039307,None,3,3.3026775000000725,1322.0039307,None,3.3026775000000725,1325.3347518,None,1325.8453626,None,1325.8453626,None,n,0.0693232999999509,1325.8453626,None,0.0693232999999509,,,51Sing,001,2022_Sep_19_1523,ProdSingRedoBetween,2021.2.3,59.91884591509449,
,,,,153,0,153,0,,,,,,,,,,,,,,,,,,,,,,1329.738091,None,,,,,,,,,,,,,,,,,stranger,131,154,sing,new,null,1326.4499117,None,1326.4499117,None,1,2.5927250000002005,1326.4499117,None,2.5927250000002005,1329.0719941,None,1329.5713698,None,1329.5713698,None,n,0.1513032000000294,1329.5713698,None,0.1513032000000294,,,51Sing,001,2022_Sep_19_1523,ProdSingRedoBetween,2021.2.3,59.91884591509449,
,,,,154,0,154,0,,,,,,,,,,,,,,,,,,,,,,1332.2420985,None,,,,,,,,,,,,,,,,,angle,134,155,sing,new,null,1330.2462929,None,1330.2462929,None,1,1.3726396999998087,1330.2462929,None,1.3726396999998087,1331.6468373,None,1332.157193,None,1332.157193,None,n,0.061368899999934,1332.157193,None,0.061368899999934,,,51Sing,001,2022_Sep_19_1523,ProdSingRedoBetween,2021.2.3,59.91884591509449,
,,,,155,0,155,0,,,,,,,,,,,,,,,,,,,,,,1335.2933996,None,,,,,,,,,,,,,,,,,health,60,156,sing,old,red,1332.7578172,None,1332.7578172,None,4,1.6208196000000044,1332.7578172,None,1.6208196000000044,1334.4107682000001,None,1334.9150141,None,1334.9150141,None,f,0.35975950000010926,1334.9150141,None,0.35975950000010926,,,51Sing,001,2022_Sep_19_1523,ProdSingRedoBetween,2021.2.3,59.91884591509449,
,,,,156,0,156,0,,,,,,,,,,,,,,,,,,,,,,1341.6165997,None,,,,,,,,,,,,,,,,,design,106,157,sing,new,null,1335.7969886,None,1335.7969886,None,5,4.965905600000042,1335.7969886,None,4.965905600000042,1340.7907505,None,1341.3009159,None,1341.3009159,None,f,0.293745299999955,1341.3009159,None,0.293745299999955,,,51Sing,001,2022_Sep_19_1523,ProdSingRedoBetween,2021.2.3,59.91884591509449,
,,,,157,0,157,0,,,,,,,,,,,,,,,,,,,,,,1344.8365612,None,,,,,,,,,,,,,,,,,benefit,145,158,sing,new,null,1342.1196848,None,1342.1196848,None,5,1.890940700000101,1342.1196848,None,1.890940700000101,1344.0366638,None,1344.5462026,None,1344.5462026,None,f,0.26455959999998413,1344.5462026,None,0.26455959999998413,,,51Sing,001,2022_Sep_19_1523,ProdSingRedoBetween,2021.2.3,59.91884591509449,
,,,,158,0,158,0,,,,,,,,,,,,,,,,,,,,,,1348.3065819,None,,,,,,,,,,,,,,,,,balance,7,159,sing,old,yellow,1345.340252,None,1345.340252,None,4,2.1183906000001116,1345.340252,None,2.1183906000001116,1347.4891641000002,None,1347.9949741,None,1347.9949741,None,f,0.2876764000000094,1347.9949741,None,0.2876764000000094,,,51Sing,001,2022_Sep_19_1523,ProdSingRedoBetween,2021.2.3,59.91884591509449,
,,,,159,0,159,0,,,,,,,,,,,,,,,,,,,,,,1353.0613085,None,,,,,,,,,,,,,,,,,beginning,170,160,sing,new,null,1348.8131361,None,1348.8131361,None,1,3.2374124000000393,1348.8131361,None,3.2374124000000393,1352.0779356,None,1352.5828269,None,1352.5828269,None,f,0.45177339999986543,1352.5828269,None,0.45177339999986543,,,51Sing,001,2022_Sep_19_1523,ProdSingRedoBetween,2021.2.3,59.91884591509449,
,,,,160,0,160,0,,,,,,,,,,,,,,,,,,,,,,1356.4980877,None,,,,,,,,,,,,,,,,,payment,140,161,sing,new,null,1353.5705926,None,1353.5705926,None,2,1.5759686999999758,1353.5705926,None,1.5759686999999758,1355.1646246,None,1355.6697743,None,1355.6697743,None,n,0.8128159000000323,1355.6697743,None,0.8128159000000323,,,51Sing,001,2022_Sep_19_1523,ProdSingRedoBetween,2021.2.3,59.91884591509449,
,,,,161,0,161,0,,,,,,,,,,,,,,,,,,,,,,1365.4403524,None,,,,,,,,,,,,,,,,,discussion,152,162,sing,new,null,1357.0159327000001,None,1357.0159327000001,None,3,7.362604099999999,1357.0159327000001,None,7.362604099999999,1364.4077536,None,1364.9327916,None,1364.9327916,None,n,0.47786299999984294,1364.9327916,None,0.47786299999984294,,,51Sing,001,2022_Sep_19_1523,ProdSingRedoBetween,2021.2.3,59.91884591509449,
,,,,162,0,162,0,,,,,,,,,,,,,,,,,,,,,,1368.2768921,None,,,,,,,,,,,,,,,,,listen,82,163,sing,old,red,1365.9448386000001,None,1365.9448386000001,None,2,1.305842499999926,1365.9448386000001,None,1.305842499999926,1367.2802825,None,1367.7945569,None,1367.7945569,None,n,0.46406640000009247,1367.7945569,None,0.46406640000009247,,,51Sing,001,2022_Sep_19_1523,ProdSingRedoBetween,2021.2.3,59.91884591509449,
,,,,163,0,163,0,,,,,,,,,,,,,,,,,,,,,,1374.0031179,None,,,,,,,,,,,,,,,,,scale,144,164,sing,new,null,1368.794513,None,1368.794513,None,3,2.152131499999996,1368.794513,None,2.152131499999996,1370.9688379000002,None,1371.4848367,None,1371.4848367,None,n,2.493803699999944,1371.4848367,None,2.493803699999944,,,51Sing,001,2022_Sep_19_1523,ProdSingRedoBetween,2021.2.3,59.91884591509449,
,,,,164,0,164,0,,,,,,,,,,,,,,,,,,,,,,1376.7182037,None,,,,,,,,,,,,,,,,,harmony,79,165,sing,old,red,1374.5248642000001,None,1374.5248642000001,None,1,1.3817363000000569,1374.5248642000001,None,1.3817363000000569,1375.9428393,None,1376.454989,None,1376.454989,None,n,0.24361709999993764,1376.454989,None,0.24361709999993764,,,51Sing,001,2022_Sep_19_1523,ProdSingRedoBetween,2021.2.3,59.91884591509449,
,,,,165,0,165,0,,,,,,,,,,,,,,,,,,,,,,1380.0548054,None,,,,,,,,,,,,,,,,,color,165,166,sing,new,null,1377.2374546,None,1377.2374546,None,4,1.925116300000127,1377.2374546,None,1.925116300000127,1379.1926946,None,1379.7060608,None,1379.7060608,None,f,0.32855750000021544,1379.7060608,None,0.32855750000021544,,,51Sing,001,2022_Sep_19_1523,ProdSingRedoBetween,2021.2.3,59.91884591509449,
,,,,166,0,166,0,,,,,,,,,,,,,,,,,,,,,,1382.6573,None,,,,,,,,,,,,,,,,,grade,40,167,sing,old,blue,1380.5748579,None,1380.5748579,None,2,1.3237543999998707,1380.5748579,None,1.3237543999998707,1381.9324938,None,1382.4407191,None,1382.4407191,None,n,0.18585540000003675,1382.4407191,None,0.18585540000003675,,,51Sing,001,2022_Sep_19_1523,ProdSingRedoBetween,2021.2.3,59.91884591509449,
,,,,167,0,167,0,,,,,,,,,,,,,,,,,,,,,,1385.3436333,None,,,,,,,,,,,,,,,,,carry,169,168,sing,new,null,1383.1668059,None,1383.1668059,None,2,1.4758370000001833,1383.1668059,None,1.4758370000001833,1384.6694427,None,1385.1807087,None,1385.1807087,None,n,0.1418848999999227,1385.1807087,None,0.1418848999999227,,,51Sing,001,2022_Sep_19_1523,ProdSingRedoBetween,2021.2.3,59.91884591509449,
,,,,168,0,168,0,,,,,,,,,,,,,,,,,,,,,,1388.165134,None,,,,,,,,,,,,,,,,,bright,78,169,sing,old,red,1385.8532995,None,1385.8532995,None,4,1.5252556000000368,1385.8532995,None,1.5252556000000368,1387.3963241000001,None,1387.9085114,None,1387.9085114,None,f,0.23008400000003348,1387.9085114,None,0.23008400000003348,,,51Sing,001,2022_Sep_19_1523,ProdSingRedoBetween,2021.2.3,59.91884591509449,
,,,,169,0,169,0,,,,,,,,,,,,,,,,,,,,,,1392.0002258,None,,,,,,,,,,,,,,,,,chief,63,170,sing,old,red,1388.6826995000001,None,1388.6826995000001,None,1,2.431803899999977,1388.6826995000001,None,2.431803899999977,1391.1337719,None,1391.6332183,None,1391.6332183,None,n,0.3373272999999699,1391.6332183,None,0.3373272999999699,,,51Sing,001,2022_Sep_19_1523,ProdSingRedoBetween,2021.2.3,59.91884591509449,
,,,,170,0,170,0,,,,,,,,,,,,,,,,,,,,,,1396.137414,None,,,,,,,,,,,,,,,,,patient,92,171,sing,new,null,1392.5015720000001,None,1392.5015720000001,None,5,2.7729764999999134,1392.5015720000001,None,2.7729764999999134,1395.3043913000001,None,1395.8124772,None,1395.8124772,None,f,0.3021258000001126,1395.8124772,None,0.3021258000001126,,,51Sing,001,2022_Sep_19_1523,ProdSingRedoBetween,2021.2.3,59.91884591509449,
,,,,171,0,171,0,,,,,,,,,,,,,,,,,,,,,,1398.6734323,None,,,,,,,,,,,,,,,,,turkey,10,172,sing,old,yellow,1396.648819,None,1396.648819,None,6,1.1057192000000668,1396.648819,None,1.1057192000000668,1397.7817622,None,1398.2997504,None,1398.2997504,None,r,0.34278440000002774,1398.2997504,None,0.34278440000002774,,,51Sing,001,2022_Sep_19_1523,ProdSingRedoBetween,2021.2.3,59.91884591509449,
,,,,172,0,172,0,,,,,,,,,,,,,,,,,,,,,,1402.2604615,None,,,,,,,,,,,,,,,,,private,18,173,sing,old,yellow,1399.1810983,None,1399.1810983,None,3,2.197641800000156,1399.1810983,None,2.197641800000156,1401.419339,None,1401.9326711,None,1401.9326711,None,n,0.30986940000002505,1401.9326711,None,0.30986940000002505,,,51Sing,001,2022_Sep_19_1523,ProdSingRedoBetween,2021.2.3,59.91884591509449,
,,,,173,0,173,0,,,,,,,,,,,,,,,,,,,,,,1406.2006042,None,,,,,,,,,,,,,,,,,population,81,174,sing,old,red,1402.7686351,None,1402.7686351,None,4,2.417927499999905,1402.7686351,None,2.417927499999905,1405.2192309,None,1405.7307144000001,None,1405.7307144000001,None,f,0.4478836000000683,1405.7307144000001,None,0.4478836000000683,,,51Sing,001,2022_Sep_19_1523,ProdSingRedoBetween,2021.2.3,59.91884591509449,
,,,,174,0,174,0,,,,,,,,,,,,,,,,,,,,,,1410.2848368,None,,,,,,,,,,,,,,,,,department,36,175,sing,old,blue,1406.7193216,None,1406.7193216,None,5,2.651299000000108,1406.7193216,None,2.651299000000108,1409.4065127000001,None,1409.9196544000001,None,1409.9196544000001,None,f,0.34677659999988464,1409.9196544000001,None,0.34677659999988464,,,51Sing,001,2022_Sep_19_1523,ProdSingRedoBetween,2021.2.3,59.91884591509449,
,,,,175,0,175,0,,,,,,,,,,,,,,,,,,,,,,1417.1935446,None,,,,,,,,,,,,,,,,,century,19,176,sing,old,yellow,1410.7959096,None,1410.7959096,None,3,5.062565799999902,1410.7959096,None,5.062565799999902,1415.8751029,None,1416.3848642,None,1416.3848642,None,n,0.785769099999925,1416.3848642,None,0.785769099999925,,,51Sing,001,2022_Sep_19_1523,ProdSingRedoBetween,2021.2.3,59.91884591509449,
,,,,176,0,176,0,,,,,,,,,,,,,,,,,,,,,,1419.9632201,None,,,,,,,,,,,,,,,,,waste,137,177,sing,new,null,1417.7151058,None,1417.7151058,None,1,1.3514294000001428,1417.7151058,None,1.3514294000001428,1419.0986299,None,1419.6157841000002,None,1419.6157841000002,None,n,0.3229418999999325,1419.6157841000002,None,0.3229418999999325,,,51Sing,001,2022_Sep_19_1523,ProdSingRedoBetween,2021.2.3,59.91884591509449,
,,,,177,0,177,0,,,,,,,,,,,,,,,,,,,,,,1424.7995379000001,None,,,,,,,,,,,,,,,,,mechanical,90,178,sing,new,null,1420.4857044,None,1420.4857044,None,2,3.492788700000119,1420.4857044,None,3.492788700000119,1423.9985618,None,1424.5075022,None,1424.5075022,None,n,0.2710047000000486,1424.5075022,None,0.2710047000000486,,,51Sing,001,2022_Sep_19_1523,ProdSingRedoBetween,2021.2.3,59.91884591509449,
,,,,178,0,178,0,,,,,,,,,,,,,,,,,,,,,,1427.4533543,None,,,,,,,,,,,,,,,,,owner,72,179,sing,old,red,1425.3051281,None,1425.3051281,None,1,1.241428100000121,1425.3051281,None,1.241428100000121,1426.5715967,None,1427.0853245,None,1427.0853245,None,n,0.3491705000001275,1427.0853245,None,0.3491705000001275,,,51Sing,001,2022_Sep_19_1523,ProdSingRedoBetween,2021.2.3,59.91884591509449,
,,,,179,0,179,0,,,,,,,,,,,,,,,,,,,,,,1430.0219791,None,,,,,,,,,,,,,,,,,piece,98,180,sing,new,null,1427.9729655,None,1427.9729655,None,4,1.3334451000000627,1427.9729655,None,1.3334451000000627,1429.3399335000001,None,1429.8578952,None,1429.8578952,None,f,0.13652200000001358,1429.8578952,None,0.13652200000001358,,,51Sing,001,2022_Sep_19_1523,ProdSingRedoBetween,2021.2.3,59.91884591509449,
,,,,,,,,,,,,,,,,,,,,,,,,,,,,,,,,,,,,,,,,,,,,,,,,,,,,,,,,,,,,,,,,,,,,,,,,,1430.5237171,None,,,,,,,
